name,time,activity,ax,ay,az,batch_val,gx,gy,gz,ibat,index,middle,pitch,roll,temp,thumb,ts,vbat,yaw
lg,1625081277720150380,0,0.6223,-0.1577,0.8188,1,-21.4844,-10.5591,-41.687,69,1.3036,1.0405,-48.1164,-3.8504,27,0.011,19304,3.7004,-182.0461
lg,1625081277720271693,0,0.6531,-0.1326,0.7676,2,-19.9585,-11.1084,-38.6353,69,1.3036,1.0405,-48.3252,-3.2162,27,0.01,8499,3.7004,-184.1239
lg,1625081277720323470,0,0.6995,-0.134,0.7737,3,-18.6157,-10.376,-37.2314,69,1.3036,1.0405,-48.5457,-2.5945,27,0.011,8487,3.7004,-186.1193
lg,1625081277720372932,0,0.7212,-0.1455,0.7717,4,-17.6392,-10.1318,-37.0483,69,1.3036,1.0405,-48.7699,-1.9849,27,0.011,7935,3.7004,-188.0743
lg,1625081277720421005,0,0.2161,-0.467,0.4705,5,39.1235,-67.4438,-56.6406,106,1.3176,1.0285,-50.7704,-0.0916,27,0.014,14683,3.6355,170.2283
lg,1625081277720468856,0,0.1907,-0.3752,0.6672,6,20.1416,-47.7905,-35.9497,106,1.3186,1.0295,-51.518,0.7839,27,0.011,8182,3.6355,169.2666
lg,1625081277720517004,0,0.3372,-0.1772,0.3984,7,21.3013,-48.645,-20.9351,106,1.3196,1.0315,-53.0078,1.5296,27,0.012,7945,3.6355,168.8078
lg,1625081277720563633,0,0.5688,-0.3677,0.7239,8,-12.3291,-13.855,22.7661,106,1.3206,1.0325,-53.0041,-1.6316,27,0.014,7961,3.6355,171.4985
lg,1625081277720631002,0,0.6653,-0.6953,0.8716,9,-14.7095,19.6533,29.48,106,1.3216,1.0345,-51.5662,-5.5743,27,0.014,8023,3.6355,-185.1311
lg,1625081277720790536,0,0.5295,-0.6365,0.876,10,-6.4087,35.7666,25.2686,106,1.3236,1.0365,-48.9556,-7.7337,27,0.012,8412,3.6355,-183.1401
lg,1625081277720885405,0,0.4707,-0.6309,0.8716,11,6.4087,45.2881,11.7188,106,1.3246,1.0385,-46.3053,-9.1421,27,0.013,8027,3.6355,-181.7518
lg,1625081277720935367,0,0.4336,-0.6729,0.8955,12,15.5029,42.5415,5.4321,106,1.3256,1.0395,-43.8021,-9.8485,27,0.017,8314,3.6355,-180.8358
lg,1625081277720982959,0,0.2329,-0.7273,0.8494,13,38.269,50.4761,-5.9204,106,1.3276,1.0405,-40.872,-9.3436,27,0.017,8119,3.6355,-180.5311
lg,1625081277721028384,0,0.0229,-0.6726,0.8276,14,49.9878,45.8374,-13.7939,106,1.3296,1.0375,-38.7531,-8.0837,27,0.015,8079,3.6355,-180.4924
lg,1625081277721074513,0,0.01,-0.5706,0.7441,15,47.3633,-5.7373,-12.6953,106,1.3306,1.0285,-37.8278,-7.2499,27,0.015,8759,3.6355,-180.1865
lg,1625081277721120494,0,0.167,-0.6062,0.7834,16,36.5601,-43.396,0.5493,106,1.3317,1.0205,-38.6454,-7.4282,27,0.015,8202,3.6355,-178.9818
lg,1625081277721164067,0,0.5339,-0.6118,0.7974,17,24.4141,-63.9038,13.916,106,1.3317,1.0155,-40.8179,-8.5129,27,0.015,8211,3.6355,-176.9794
lg,1625081277721208900,0,0.6904,-0.5217,0.814,18,18.7988,-55.542,15.7471,106,1.3317,1.0105,-42.7796,-9.6458,27,0.013,8228,3.6355,-175.0029
lg,1625081277721253325,0,0.823,-0.4609,0.7966,19,-1.9531,-18.9819,9.0942,106,1.3317,1.0095,-43.4732,-10.9929,27,0.013,8267,3.6355,-173.7702
lg,1625081277721296009,0,0.6675,-0.5549,0.8096,20,-15.8081,29.7852,1.77,106,1.3317,1.0155,-42.0236,-12.4728,27,0.016,8297,3.6355,-173.3079
lg,1625081277721339731,0,0.2708,-0.6091,0.7979,21,-22.0337,45.3491,-2.0142,106,1.3317,1.0255,-39.2833,-14.2664,27,0.018,8280,3.6355,-173.2561
lg,1625081277721382675,0,0.1768,-0.6357,0.7454,22,-31.6162,38.9404,-3.2959,106,1.3317,1.0355,-36.8507,-16.338,27,0.017,8337,3.6355,-173.167
lg,1625081277721426507,0,0.04,-0.72,0.7485,23,-34.729,2.6855,-9.2163,106,1.3306,1.0415,-35.705,-18.7201,27,0.014,8319,3.6355,-172.8869
lg,1625081277721490599,0,0.0742,-0.9465,0.8787,24,-33.7524,-36.438,-10.9863,106,1.3317,1.0395,-36.1397,-21.4364,27,0.015,8403,3.6355,-172.0251
lg,1625081277721534320,0,0.0359,-0.845,0.8291,25,9.2163,-59.082,-35.5225,106,1.3296,1.0385,-37.9604,-21.742,27,0.013,8412,3.6355,-171.9841
lg,1625081277721578931,0,0.1074,-0.3022,0.5835,26,31.8604,-80.7495,-49.0112,106,1.3306,1.0395,-40.5711,-20.2109,27,0.013,8435,3.6355,-172.6568
lg,1625081277721623930,0,0.4272,-0.1396,0.4758,27,19.3481,-70.8618,-11.4746,106,1.3306,1.0395,-43.3711,-19.7619,27,0.015,8475,3.6355,-172.0331
lg,1625081277721667374,0,0.604,-0.4749,0.7864,28,-10.8643,-39.6729,17.2119,106,1.3317,1.0415,-44.2136,-21.8598,27,0.012,8430,3.6355,-170.0072
lg,1625081277721749502,0,0.6577,-0.5657,0.7983,29,-11.1694,-19.4702,26.123,106,1.3317,1.0425,-44.0965,-24.0692,27,0.012,8533,3.6355,-167.867
lg,1625081277721997813,0,0.6331,-0.5032,0.8088,30,-6.0425,14.0991,28.9307,106,1.3327,1.0445,-42.5147,-25.4509,27,0.012,10099,3.6355,-166.5868
lg,1625081277722058052,0,0.7029,-0.6262,0.8926,31,-0.9766,28.4424,24.6582,106,1.3327,1.0465,-40.6923,-26.2531,27,0.016,9041,3.6355,-165.7844
lg,1625081277722112255,0,0.5635,-0.7188,0.9412,32,10.6812,65.6738,14.1602,106,1.3337,1.0485,-37.5197,-25.806,27,0.015,8535,3.6355,-166.2891
lg,1625081278099031299,0,-0.1394,-0.6089,0.8022,33,48.4009,1.3428,-12.0239,106,1.3357,1.0385,-36.0857,-24.1009,27,0.015,24926,3.6355,-166.494
lg,1625081278099126909,0,0.1812,-0.6111,0.7993,34,39.978,-56.3965,-0.7324,106,1.3367,1.0275,-37.1852,-23.806,27,0.017,9011,3.6355,-164.9988
lg,1625081278099181111,0,0.5918,-0.489,0.7759,35,23.9868,-81.0547,9.8877,106,1.3377,1.0225,-39.7914,-24.5435,27,0.018,13132,3.6355,-162.6194
lg,1625081278099230888,0,1.0781,-0.5142,0.8613,36,-5.0659,-46.0815,10.5591,106,1.3377,1.0235,-41.5475,-25.9695,26,0.018,8562,3.6355,-160.9278
lg,1625081278099280628,0,0.6914,-0.6533,0.9429,37,-6.3477,51.0254,0.061,106,1.3367,1.0295,-39.3157,-25.8436,26,0.02,9590,3.6355,-161.8484
lg,1625081278099331091,0,0.1218,-0.6221,0.7664,38,-12.3901,65.3687,-15.0146,106,1.3377,1.0385,-36.0576,-25.6847,26,0.019,7980,3.6355,-163.5616
lg,1625081278099378997,0,0.0242,-0.6553,0.7922,39,-29.9072,11.7188,-9.5215,106,1.3377,1.0455,-34.5466,-27.1379,27,0.018,7972,3.6355,-163.8618
lg,1625081278099424552,0,0.062,-0.6697,0.7812,40,-34.0576,-13.4277,-8.4839,106,1.3347,1.0465,-34.0291,-29.0824,27,0.011,8194,3.6355,-163.5774
lg,1625081278099469125,0,0.2314,-0.854,0.8689,41,-37.5366,-38.8184,-1.2207,106,1.3327,1.0415,-34.5185,-31.7822,27,0.013,9013,3.6355,-162.295
lg,1625081278099511810,0,-0.0298,-0.3291,0.407,42,48.3398,-50.293,-65.4297,106,1.3306,1.0405,-36.1862,-29.3424,27,0.017,8704,3.6355,-163.566
lg,1625081278099557291,0,0.0217,-0.2424,0.5342,43,27.0386,-75.3174,-31.6162,106,1.3306,1.0405,-38.1448,-28.2823,26,0.017,8024,3.6355,-163.2602
lg,1625081278099599623,0,0.3364,-0.165,0.5212,44,15.5029,-95.8252,-6.5308,106,1.3317,1.0405,-41.3706,-28.515,26,0.017,8105,3.6355,-161.4722
lg,1625081278099642382,0,0.7996,-0.5059,0.7793,45,-14.7705,-69.519,17.2119,106,1.3317,1.0415,-43.3885,-31.085,26,0.017,8084,3.6355,-158.6655
lg,1625081278099686196,0,0.71,-0.5276,0.7891,46,-5.0659,4.0894,20.1416,106,1.3327,1.0425,-42.5594,-31.9523,26,0.016,8071,3.6355,-157.7726
lg,1625081278099729862,0,0.5679,-0.5195,0.8086,47,-2.9907,30.9448,19.2871,106,1.3337,1.0435,-40.6284,-32.0933,27,0.017,10814,3.6355,-157.7643
lg,1625081278099780639,0,0.6208,-0.6089,0.8667,48,-1.0376,41.748,16.8457,106,1.3347,1.0455,-38.4548,-31.9969,27,0.017,8725,3.6355,-158.0977
lg,1625081278099828509,0,0.5737,-0.645,0.897,49,3.0518,58.6548,15.5029,106,1.3347,1.0465,-35.7082,-31.4953,27,0.018,8185,3.6355,-158.8927
lg,1625081278099877730,0,0.2432,-0.7493,0.9165,50,18.9209,78.0029,6.1646,106,1.3357,1.0485,-32.0008,-30.1694,27,0.017,8220,3.6355,-160.3501
lg,1625081278099922526,0,-0.1125,-0.7417,0.8569,51,48.0957,45.2881,-12.3901,106,1.3377,1.0505,-29.3005,-27.97,27,0.018,8225,3.6355,-161.5913
lg,1625081278099969321,0,-0.1106,-0.677,0.8408,52,49.3774,7.5684,-14.0381,106,1.3387,1.0515,-29.3475,-26.956,27,0.018,8230,3.6355,-161.028
lg,1625081278100017747,0,0.2083,-0.6851,0.8474,53,37.5977,-47.4854,0.3052,106,1.3397,1.0505,-30.3261,-26.483,27,0.02,8220,3.6355,-159.7615
lg,1625081278100066024,0,0.5586,-0.5625,0.7773,54,27.5879,-61.8286,13.2446,106,1.3387,1.0485,-32.2882,-26.7137,27,0.019,8242,3.6355,-157.7176
lg,1625081278100111449,0,0.9524,-0.3872,0.7327,55,2.0142,-42.8467,14.4043,106,1.3397,1.0485,-34.1844,-27.5128,27,0.018,8331,3.6355,-156.1461
lg,1625081278100163707,0,0.9622,-0.5032,0.8555,56,-7.2021,-12.4512,7.2632,106,1.3397,1.0515,-34.8689,-28.2323,27,0.02,8365,3.6355,-155.4945
lg,1625081278100210188,0,0.5623,-0.635,0.8047,57,-12.9395,55.542,-7.2021,106,1.3397,1.0555,-32.8261,-28.2809,27,0.019,8345,3.6355,-156.8362
lg,1625081278100258021,0,-0.0378,-0.5742,0.72,58,-20.4468,69.6411,-16.9678,106,1.3397,1.0585,-29.4166,-28.4015,27,0.019,8362,3.6355,-158.8298
lg,1625081278100306187,0,-0.1631,-0.6445,0.7449,59,-31.4331,41.3818,-10.8643,106,1.3387,1.0565,-28.2426,-30.6002,27,0.016,8438,3.6355,-158.731
lg,1625081278100363408,0,0.1672,-1.0923,1.0938,60,-50.6592,-43.8843,-1.5259,106,1.3337,1.0485,-29.921,-32.9793,27,0.013,10071,3.6355,-157.3166
lg,1625081278100416203,0,0.124,-0.6216,0.5417,61,23.3154,-76.1719,-48.0347,106,1.3317,1.0465,-32.6402,-32.3825,27,0.017,9021,3.6355,-157.111
lg,1625081278100461443,0,0.1357,-0.1992,0.5803,62,23.0713,-78.7354,-39.978,106,1.3306,1.0465,-35.3832,-31.038,27,0.018,8542,3.6355,-157.0771
lg,1625081278100503998,0,0.4595,-0.0867,0.5635,63,-1.77,-68.2373,2.1973,106,1.3306,1.0465,-37.8638,-31.372,27,0.018,8584,3.6355,-155.7059
lg,1625081278100548738,0,0.6309,-0.6614,0.8594,64,-24.7803,-41.687,22.522,106,1.3306,1.0465,-38.465,-33.9198,27,0.018,8563,3.6355,-153.4375
lg,1625081278450079682,0,0.6245,-0.6523,0.8669,65,-6.6528,20.9961,21.6064,106,1.3337,1.0495,-37.0752,-34.4597,27,0.017,26163,3.6355,-153.0798
lg,1625081278450196643,0,0.6858,-0.6509,0.8625,66,1.1597,41.9922,18.2495,106,1.3337,1.0515,-35.0941,-34.2576,27,0.017,9046,3.6355,-153.4541
lg,1625081278450252309,0,0.3918,-0.7368,0.8748,67,18.4937,78.7354,6.2256,142,1.3357,1.0525,-31.7162,-32.7666,27,0.019,7968,3.652,-155.1406
lg,1625081278450304808,0,-0.0464,-0.8367,0.7883,68,47.7295,64.0869,-12.3291,142,1.3377,1.0515,-28.5704,-30.477,27,0.018,7935,3.652,-156.8248
lg,1625081278450357530,0,-0.0266,-0.6406,0.7349,69,58.7158,-5.0049,-13.9771,142,1.3397,1.0565,-27.8973,-28.4048,27,0.02,11769,3.652,-157.0155
lg,1625081278450406195,0,0.2524,-0.6404,0.7183,70,47.1802,-45.6543,5.249,142,1.3407,1.0525,-28.9069,-27.6573,27,0.02,10596,3.652,-155.5532
lg,1625081278450455750,0,0.554,-0.6035,0.8152,71,39.4287,-56.1523,18.3105,142,1.3417,1.0495,-30.5432,-27.3954,26,0.019,8010,3.652,-153.4364
lg,1625081278450502842,0,0.6487,-0.4861,0.7231,72,34.1797,-52.4292,13.5498,142,1.3417,1.0445,-32.8098,-26.7338,26,0.019,8062,3.652,-151.8427
lg,1625081278450550990,0,0.7825,-0.2808,0.6472,73,-0.8545,-27.4658,9.3994,142,1.3417,1.0415,-34.1987,-27.2094,26,0.019,8158,3.652,-150.8992
lg,1625081278450605026,0,0.6104,-0.4751,0.7595,74,-22.2168,16.3574,7.2632,142,1.3427,1.0445,-33.4844,-28.2446,27,0.02,9323,3.652,-150.8548
lg,1625081278450650192,0,0.2776,-0.6912,0.8411,75,-40.5273,30.8228,1.5869,142,1.3427,1.0515,-31.6492,-30.0023,27,0.021,9606,3.652,-151.2397
lg,1625081278450701524,0,-0.0269,-0.5945,0.718,76,-42.9077,10.6812,-1.9531,142,1.3417,1.0575,-30.0869,-31.9631,27,0.019,8799,3.652,-151.3683
lg,1625081278450748746,0,-0.1267,-0.6292,0.7468,77,-53.1006,-12.8174,2.8076,142,1.3387,1.0565,-30.2754,-35.6909,27,0.015,8267,3.652,-149.548
lg,1625081278450795726,0,0.1589,-0.7498,0.97,78,-67.5049,-81.2378,13.7939,142,1.3347,1.0515,-31.6004,-39.9018,26,0.016,8218,3.652,-146.7047
lg,1625081278450840948,0,0.1519,-0.5222,0.4478,79,29.541,-98.7549,-54.5044,142,1.3317,1.0495,-35.2702,-39.7173,26,0.016,8277,3.652,-145.4379
lg,1625081278450887040,0,0.4082,-0.4475,0.5564,80,25.2686,-95.7031,-34.5459,142,1.3306,1.0485,-38.8466,-39.7049,26,0.017,8281,3.652,-143.7193
lg,1625081278450932058,0,0.5701,-0.1541,0.5178,81,25.4517,-76.8433,-16.9678,142,1.3317,1.0495,-41.9709,-39.2396,27,0.017,8349,3.652,-142.2529
lg,1625081278450981464,0,0.5769,-0.6079,0.7861,82,-5.249,-0.5493,15.9302,142,1.3317,1.0495,-41.109,-39.813,27,0.016,12177,3.652,-141.6362
lg,1625081278451027204,0,0.4519,-0.5059,0.7429,83,-1.9531,28.9917,26.5503,142,1.3337,1.0515,-38.9802,-39.6849,27,0.017,10523,3.652,-141.7215
lg,1625081278451071259,0,0.5767,-0.5771,0.7837,84,-3.2349,22.583,27.9541,142,1.3347,1.0525,-37.2417,-39.8783,27,0.017,8489,3.652,-141.4678
lg,1625081278451114555,0,0.6765,-0.5962,0.7952,85,-1.8921,30.6396,27.2217,142,1.3347,1.0535,-35.4195,-39.9223,27,0.017,8464,3.652,-141.4534
lg,1625081278451157591,0,0.541,-0.7148,0.9041,86,8.1787,67.2607,18.0664,142,1.3357,1.0555,-32.4841,-38.7453,27,0.019,8391,3.652,-142.8863
lg,1625081278451203998,0,0.1138,-0.8274,0.822,87,32.1045,74.707,-5.6763,142,1.3377,1.0575,-29.2496,-36.562,27,0.015,8472,3.652,-145.0514
lg,1625081278451249016,0,-0.1423,-0.7395,0.7625,88,62.0728,15.0146,-26.1841,142,1.3397,1.0585,-28.0102,-33.7779,27,0.021,9460,3.652,-146.2195
lg,1625081278451295367,0,0.0891,-0.5938,0.7056,89,62.7441,-18.0664,-18.9819,142,1.3407,1.0555,-28.617,-32.0635,27,0.02,8485,3.652,-145.3871
lg,1625081278451350885,0,0.2319,-0.5574,0.7205,90,49.6826,-53.833,4.7607,142,1.3417,1.0485,-29.7793,-31.0467,27,0.018,8714,3.652,-143.7826
lg,1625081278451400995,0,0.6423,-0.5347,0.7488,91,28.5645,-75.1343,21.7285,142,1.3417,1.0435,-32.0811,-31.45,27,0.019,8560,3.652,-141.0105
lg,1625081278451450642,0,1.0625,-0.4365,0.7722,92,5.249,-49.7437,14.2822,142,1.3407,1.0415,-34.1561,-32.1771,27,0.019,8628,3.652,-139.205
lg,1625081278451493512,0,0.7971,-0.5146,0.7837,93,-4.8828,38.0249,-1.1597,142,1.3417,1.0445,-33.1354,-31.8384,27,0.02,8686,3.652,-140.2092
lg,1625081278451538067,0,0.4907,-0.5994,0.8,94,-11.2915,68.6035,-7.0801,142,1.3417,1.0505,-29.9418,-31.5021,27,0.021,8617,3.652,-142.4215
lg,1625081278451583066,0,-0.0171,-0.5283,0.6733,95,-22.644,56.7017,-14.4043,142,1.3427,1.0565,-27.1547,-31.778,27,0.02,8643,3.652,-144.1951
lg,1625081278451632602,0,-0.0674,-0.6375,0.7512,96,-44.7388,-12.5732,-10.1929,142,1.3407,1.0595,-26.6298,-33.8844,27,0.02,8629,3.652,-144.1247
lg,1625081278822274145,0,0.1099,-0.6104,0.5583,97,25.3906,-88.3179,-51.5747,142,1.3367,1.0515,-30.356,-33.658,27,0.014,24549,3.652,-143.4897
lg,1625081278822361200,0,0.3511,-0.3823,0.6062,98,24.353,-110.1074,-44.4946,142,1.3317,1.0475,-34.979,-33.1569,27,0.019,9753,3.652,-142.0833
lg,1625081278822418291,0,0.6392,-0.4175,0.688,99,-5.127,-17.334,1.77,142,1.3357,1.0505,-35.6448,-33.5914,27,0.018,11909,3.652,-141.5885
lg,1625081278822469253,0,0.3833,-0.436,0.699,100,-8.8501,16.4795,14.2212,142,1.3367,1.0515,-33.7763,-33.8822,27,0.019,8227,3.652,-141.4986
lg,1625081278822519012,0,0.4287,-0.5701,0.803,101,-15.9302,13.7329,31.25,142,1.3377,1.0545,-32.2081,-35.0372,27,0.019,12297,3.652,-140.6164
lg,1625081278822567159,0,0.7913,-0.6621,0.8638,102,-12.207,4.3945,25.8789,142,1.3377,1.0565,-31.6079,-36.0676,27,0.019,7953,3.652,-139.7004
lg,1625081278822613714,0,0.6587,-0.7524,0.8821,103,3.1738,54.7485,11.4136,142,1.3387,1.0585,-29.4924,-35.5679,27,0.019,10547,3.652,-140.6773
lg,1625081278822658695,0,0.4563,-0.717,0.8689,104,14.4653,71.8384,3.418,142,1.3407,1.0605,-26.7753,-34.3264,27,0.018,7987,3.652,-142.3429
lg,1625081278822703639,0,0.0017,-0.8027,0.8103,105,37.5366,60.3638,-15.3198,142,1.3427,1.0615,-24.1021,-32.4074,27,0.021,7982,3.652,-144.1619
lg,1625081278822748731,0,-0.1099,-0.6851,0.7717,106,52.2461,-5.4932,-16.1133,142,1.3437,1.0595,-23.4936,-30.527,27,0.02,8042,3.652,-144.4552
lg,1625081278822794508,0,0.0605,-0.6218,0.7366,107,48.3398,-40.3442,-5.7983,142,1.3437,1.0525,-24.2386,-29.2774,27,0.02,8045,3.652,-143.618
lg,1625081278822843377,0,0.4385,-0.6013,0.7734,108,30.6396,-78.3691,10.498,142,1.3447,1.0465,-26.7509,-29.2972,27,0.02,8569,3.652,-141.3687
lg,1625081278822889247,0,1.0122,-0.4402,0.6733,109,2.5024,-74.585,15.4419,142,1.3457,1.0445,-29.9603,-30.3945,26,0.019,8854,3.652,-139.0117
lg,1625081278822978801,0,0.97,-0.5906,0.8293,110,-9.7046,7.6904,3.54,142,1.3457,1.0465,-30.1555,-30.9215,26,0.02,8176,3.652,-138.9706
lg,1625081278823028134,0,0.6636,-0.6509,0.822,111,-12.6343,49.3774,-3.9062,142,1.3457,1.0515,-28.6382,-31.0525,26,0.02,8173,3.652,-140.1563
lg,1625081278823072374,0,0.1206,-0.585,0.6963,112,-19.3481,62.5,-14.7095,142,1.3447,1.0575,-26.0051,-31.281,27,0.021,8312,3.652,-141.9978
lg,1625081278823116280,0,0.054,-0.6787,0.7444,113,-39.7339,4.8828,-10.5591,142,1.3437,1.0615,-25.1918,-33.112,27,0.021,8207,3.652,-142.314
lg,1625081278823160483,0,0.095,-0.8013,0.7659,114,-45.7764,-16.9067,-6.897,142,1.3427,1.0575,-25.1303,-35.5636,27,0.014,8201,3.652,-141.9184
lg,1625081278823204335,0,0.0857,-0.9832,0.8499,115,12.4512,-38.4521,-44.4336,142,1.3397,1.0535,-26.602,-35.381,27,0.017,8258,3.652,-142.2776
lg,1625081278823247501,0,0.1135,-0.4197,0.6072,116,37.6587,-78.5522,-72.2046,142,1.3377,1.0515,-30.1069,-33.5171,27,0.02,8246,3.652,-142.959
lg,1625081278823290241,0,0.5212,-0.0635,0.4514,117,36.5601,-86.9141,-57.1289,142,1.3367,1.0505,-34.0884,-31.6732,27,0.016,8294,3.652,-142.896
lg,1625081278823335240,0,0.554,-0.0745,0.4443,118,19.5923,-35.8887,-17.5781,142,1.3357,1.0495,-36.375,-30.3115,27,0.018,8368,3.652,-143.1154
lg,1625081278823381406,0,0.3311,-0.4846,0.7124,119,-7.9346,2.2583,3.7842,142,1.3367,1.0505,-35.6137,-30.8569,27,0.018,8379,3.652,-142.9128
lg,1625081278823425498,0,0.3884,-0.4712,0.7334,120,-9.8267,-4.6997,20.2637,142,1.3367,1.0515,-34.8877,-31.8779,27,0.018,10471,3.652,-141.9064
lg,1625081278823469812,0,0.6543,-0.5271,0.7925,121,-12.5122,-18.2495,23.5596,142,1.3377,1.0535,-34.9683,-33.2667,27,0.019,8422,3.652,-140.4215
lg,1625081278823512293,0,0.8579,-0.6072,0.8494,122,-8.2397,11.1084,23.6816,142,1.3387,1.0545,-34.2435,-34.0458,27,0.019,8457,3.652,-139.7195
lg,1625081278823556348,0,0.6165,-0.7188,0.8811,123,-4.3335,42.9077,20.5078,142,1.3397,1.0565,-31.4585,-33.621,27,0.02,8415,3.652,-140.7816
lg,1625081278823600532,0,0.408,-0.7747,0.8958,124,9.2773,78.7354,9.3384,142,1.3417,1.0585,-28.1484,-32.7456,27,0.019,8666,3.652,-142.2521
lg,1625081278823646217,0,0.0244,-0.8892,0.8521,125,42.7246,54.4434,-9.2773,142,1.3427,1.0605,-25.5021,-30.8939,27,0.023,8486,3.652,-143.5988
lg,1625081278823690531,0,0.0471,-0.7026,0.7483,126,55.4199,-19.3481,-13.855,142,1.3437,1.0605,-25.5839,-29.1743,27,0.018,8483,3.652,-143.4543
lg,1625081278823734456,0,0.3203,-0.6536,0.749,127,49.4995,-42.3584,-5.249,142,1.3447,1.0585,-26.9837,-28.4894,27,0.02,8529,3.652,-141.9512
lg,1625081278823816159,0,0.4543,-0.6501,0.7563,128,38.269,-58.0444,12.6343,142,1.3457,1.0565,-28.6912,-28.268,27,0.02,8549,3.652,-139.9728
lg,1625081279179768395,0,0.7756,-0.5952,0.7727,129,-8.3618,28.3203,-1.2817,142,1.3457,1.0585,-28.1137,-28.6051,27,0.021,24311,3.652,-140.4842
lg,1625081279179872875,0,0.2568,-0.5864,0.6836,130,-10.7422,54.5044,-7.8125,142,1.3467,1.0625,-25.5482,-28.9543,27,0.022,8849,3.652,-142.1177
lg,1625081279179929059,0,0.0857,-0.5642,0.6643,131,-25.8789,57.4951,-9.9487,142,1.3417,1.0615,-22.9883,-29.7997,27,0.02,8234,3.652,-143.5353
lg,1625081279179982206,0,-0.0896,-0.6802,0.7212,132,-42.1753,4.3945,-7.2021,142,1.3427,1.0625,-21.9327,-31.898,27,0.015,8227,3.652,-143.6977
lg,1625081279180033187,0,0.0503,-1.1436,1.1902,133,-17.1509,-52.2461,-24.9023,142,1.3417,1.0565,-23.4496,-33.1985,27,0.017,12073,3.652,-143.2035
lg,1625081279180085483,0,0.083,-0.4905,0.6724,134,35.5835,-94.7266,-61.2183,142,1.3397,1.0565,-28.0107,-31.6719,27,0.017,10822,3.652,-143.2693
lg,1625081279180130852,0,0.6228,-0.1406,0.4751,135,33.8745,-108.2764,-28.8696,142,1.3407,1.0555,-33.2059,-30.6197,27,0.018,8004,3.652,-142.0232
lg,1625081279180183185,0,0.72,-0.4248,0.7078,136,2.8076,-34.3628,-9.5825,142,1.3407,1.0555,-34.8787,-30.7633,27,0.019,8219,3.652,-141.5682
lg,1625081279180232073,0,0.3962,-0.4468,0.7087,137,2.7466,20.4468,6.6528,142,1.3417,1.0575,-33.6587,-30.5798,27,0.019,9643,3.652,-141.7662
lg,1625081279180277887,0,0.3865,-0.4749,0.7783,138,0.7324,19.104,14.0991,142,1.3417,1.0585,-32.5896,-31.1599,27,0.018,8098,3.652,-141.1129
lg,1625081279180322720,0,0.5469,-0.5344,0.8301,139,-7.3853,-6.1035,24.9634,142,1.3427,1.0605,-32.4615,-32.3277,27,0.018,8956,3.652,-139.7149
lg,1625081279180370719,0,0.8948,-0.6523,0.874,140,-5.188,6.5918,24.353,142,1.3437,1.0615,-31.9816,-33.113,27,0.019,8095,3.652,-138.8324
lg,1625081279180415348,0,0.7061,-0.6475,0.8289,141,6.958,68.7256,13.2446,142,1.3437,1.0625,-29.468,-32.3922,27,0.019,8141,3.652,-139.9578
lg,1625081279180459440,0,0.3081,-0.6975,0.8611,142,12.207,88.3789,7.9956,142,1.3437,1.0635,-25.8147,-31.0243,27,0.02,8139,3.652,-141.8523
lg,1625081279180501310,0,0.1641,-0.7646,0.8733,143,29.48,78.4302,-3.1738,142,1.3457,1.0655,-22.5035,-29.5208,27,0.018,8172,3.652,-143.5131
lg,1625081279180547643,0,-0.0798,-0.7759,0.7622,144,61.2793,27.2827,-18.9209,142,1.3467,1.0665,-20.9217,-27.2779,27,0.02,8215,3.652,-144.5107
lg,1625081279180593883,0,0.1147,-0.5684,0.6775,145,61.8286,-40.2222,-10.8643,142,1.3477,1.0645,-22.0356,-25.4698,27,0.019,8207,3.652,-143.9593
lg,1625081279180637493,0,0.2793,-0.5806,0.6953,146,53.0396,-58.96,-1.9531,142,1.3487,1.0605,-24.0253,-24.3271,27,0.02,8238,3.652,-142.7321
lg,1625081279180681956,0,0.7195,-0.427,0.6726,147,32.5317,-80.5054,13.6108,142,1.3487,1.0575,-27.4267,-24.163,27,0.019,8277,3.652,-140.6047
lg,1625081279180726881,0,1.1643,-0.427,0.7922,148,-0.9155,-47.1802,15.5029,142,1.3497,1.0575,-29.8232,-25.049,27,0.021,8300,3.652,-139.0055
lg,1625081279180770047,0,0.9014,-0.5056,0.8049,149,-11.4136,49.1943,0.9766,142,1.3487,1.0605,-28.5678,-25.2818,27,0.021,9072,3.652,-139.8139
lg,1625081279180818861,0,0.2227,-0.5569,0.7273,150,-25.1465,100.8301,-9.9487,142,1.3487,1.0645,-24.5511,-25.7464,27,0.022,8290,3.652,-141.9188
lg,1625081279180866860,0,-0.1682,-0.6143,0.8003,151,-34.9121,55.7251,-5.8594,142,1.3477,1.0675,-21.4138,-27.1113,27,0.015,8354,3.652,-143.0374
lg,1625081279180912045,0,-0.2358,-0.6885,0.8003,152,-39.7949,12.146,-9.1553,142,1.3477,1.0655,-19.9056,-29.0324,27,0.014,8395,3.652,-143.4457
lg,1625081279180953841,0,-0.1985,-0.9519,0.9639,153,5.249,-70.8618,-39.4287,142,1.3477,1.0655,-22.0865,-29.4655,27,0.018,8451,3.652,-143.2128
lg,1625081279180997544,0,0.1638,-0.4175,0.7002,154,31.4331,-127.6855,-42.7246,142,1.3467,1.0635,-26.9271,-28.7139,27,0.02,8454,3.652,-142.0926
lg,1625081279181041487,0,0.8503,-0.1582,0.5308,155,22.8271,-135.437,-15.8691,142,1.3467,1.0635,-33.0904,-28.6783,27,0.018,9154,3.652,-139.8638
lg,1625081279181085376,0,0.7776,-0.4153,0.7034,156,-0.9766,-22.1558,0.1221,142,1.3477,1.0645,-34.2647,-29.0629,27,0.017,10884,3.652,-139.3097
lg,1625081279181127449,0,0.3928,-0.3899,0.7329,157,-5.7373,29.541,18.3105,142,1.3487,1.0655,-32.5216,-29.2791,27,0.018,8470,3.652,-139.2679
lg,1625081279181170504,0,0.3372,-0.4468,0.7556,158,-11.9629,23.8037,23.7427,142,1.3487,1.0665,-30.8673,-30.2172,27,0.019,8569,3.652,-138.7266
lg,1625081279181363223,0,0.6426,-0.6138,0.865,159,-15.2588,-8.9722,30.8228,142,1.3487,1.0665,-30.5474,-31.7573,27,0.019,8587,3.652,-137.1813
lg,1625081279181422445,0,0.8994,-0.6516,0.8628,160,-7.019,18.7988,25.3906,142,1.3497,1.0675,-29.7331,-32.4836,27,0.02,8671,3.652,-136.5579
lg,1625081279548553490,0,0.0276,-0.7766,0.8582,161,20.2637,87.0972,3.54,142,1.3487,1.0715,-26.5063,-30.9008,27,0.015,24644,3.652,-137.9467
lg,1625081279548593989,0,-0.0322,-0.7603,0.7954,162,44.3115,33.6914,-7.3853,142,1.3517,1.0685,-24.5235,-29.2341,27,0.021,8800,3.652,-138.7215
lg,1625081279548614711,0,0.2493,-0.5806,0.7148,163,45.0439,-43.8232,1.3428,142,1.3517,1.0675,-25.6656,-28.2627,27,0.021,11855,3.652,-137.5611
lg,1625081279548634303,0,0.6548,-0.4419,0.6636,164,26.8555,-67.749,10.6201,142,1.3517,1.0635,-28.3741,-28.2147,27,0.017,10297,3.652,-135.6197
lg,1625081279548653099,0,1.0242,-0.4426,0.7168,165,-2.0142,-36.8652,12.9395,142,1.3517,1.0625,-30.2629,-29.0438,27,0.02,10792,3.652,-134.2343
lg,1625081279548672599,0,0.7002,-0.5405,0.7656,166,-8.9111,38.3911,-1.2817,142,1.3527,1.0645,-29.2074,-29.1634,27,0.021,8009,3.652,-135.0395
lg,1625081279548691265,0,0.4131,-0.4856,0.6812,167,-13.5498,62.1948,-6.4087,142,1.3527,1.0675,-27.0544,-29.1807,27,0.021,7917,3.652,-136.5527
lg,1625081279548709395,0,-0.0649,-0.5352,0.7129,168,-26.9165,44.7388,-8.7891,142,1.3527,1.0705,-24.5069,-30.0052,27,0.026,7962,3.652,-137.7333
lg,1625081279548727524,0,-0.0483,-0.5984,0.7419,169,-34.9731,8.1177,-4.8828,142,1.3507,1.0715,-24.4544,-32.3261,27,0.014,8013,3.652,-137.0509
lg,1625081279548745783,0,0.2466,-0.9348,1.0759,170,-50.354,-75.9888,5.4932,142,1.3477,1.0675,-26.2662,-35.5819,27,0.018,11086,3.652,-134.8294
lg,1625081279548763672,0,0.1143,-0.8674,0.8264,171,3.9673,-88.2568,-30.7007,142,1.3487,1.0665,-30.0089,-35.3097,27,0.02,8476,3.652,-133.7571
lg,1625081279548781597,0,0.25,-0.4922,0.7058,172,25.9399,-109.314,-41.2598,142,1.3487,1.0655,-33.9602,-34.9776,27,0.019,8067,3.652,-132.3796
lg,1625081279548799393,0,0.7771,-0.2363,0.6025,173,22.3999,-112.7319,-15.686,142,1.3487,1.0655,-38.631,-35.1811,27,0.019,9954,3.652,-130.0302
lg,1625081279548817727,0,0.8101,-0.5557,0.7524,174,2.9907,-33.2642,-4.3945,142,1.3487,1.0655,-39.8888,-35.6138,27,0.018,8204,3.652,-129.1902
lg,1625081279548839356,0,0.4873,-0.4141,0.6836,175,7.0801,34.1187,13.4277,142,1.3487,1.0665,-38.1305,-34.8469,27,0.018,8183,3.652,-129.7729
lg,1625081279548860059,0,0.4231,-0.4651,0.7151,176,1.3428,36.499,17.6392,142,1.3497,1.0685,-36.0674,-34.5132,27,0.018,8746,3.652,-130.1472
lg,1625081279548878411,0,0.5913,-0.4895,0.7559,177,-4.2114,23.3154,29.6631,142,1.3497,1.0685,-34.5129,-34.9205,27,0.018,8820,3.652,-129.6515
lg,1625081279548896466,0,0.7258,-0.6309,0.8281,178,-2.7466,42.5415,29.6021,90,1.3497,1.0705,-32.4567,-35.1078,26,0.019,8262,3.6696,-129.6182
lg,1625081279548913947,0,0.5552,-0.6353,0.8242,179,6.7749,80.0781,21.1182,90,1.3497,1.0715,-29.1797,-34.2566,26,0.019,8299,3.6696,-130.8893
lg,1625081279548931614,0,0.3779,-0.6719,0.8052,180,12.146,87.4634,14.3433,90,1.3507,1.0725,-25.5993,-33.238,26,0.019,8243,3.6696,-132.4344
lg,1625081279548948780,0,-0.0073,-0.7273,0.8098,181,30.2734,65.2466,-1.0376,90,1.3517,1.0735,-22.4461,-31.7628,26,0.021,8279,3.6696,-133.8374
lg,1625081279548968095,0,-0.04,-0.6519,0.7222,182,49.0723,-7.6294,-4.8218,90,1.3527,1.0735,-21.8662,-30.238,27,0.023,8308,3.6696,-133.6648
lg,1625081279548986224,0,0.0791,-0.623,0.6956,183,46.9971,-38.147,-1.5869,90,1.3537,1.0705,-23.5696,-29.555,27,0.02,8296,3.6696,-132.0184
lg,1625081279549003687,0,0.4431,-0.5569,0.7329,184,31.0669,-75.2563,12.0239,90,1.3537,1.0675,-26.0241,-29.4882,27,0.019,8359,3.6696,-129.7999
lg,1625081279549020298,0,1.0164,-0.4006,0.7046,185,0.5493,-78.186,19.043,90,1.3537,1.0665,-29.2998,-30.6352,27,0.02,8370,3.6696,-127.2727
lg,1625081279549037057,0,1.0457,-0.5464,0.804,186,-10.6812,7.3853,5.3711,90,1.3537,1.0685,-29.6243,-31.1834,27,0.02,8424,3.6696,-127.1828
lg,1625081279549056130,0,0.7825,-0.5415,0.7705,187,-14.5264,57.5562,1.6479,90,1.3527,1.0715,-27.4746,-31.4614,27,0.021,8471,3.6696,-128.3272
lg,1625081279549073630,0,0.1777,-0.5715,0.6548,188,-21.4844,90.0879,-8.1177,90,1.3527,1.0745,-23.977,-31.6796,27,0.017,8468,3.6696,-130.5469
lg,1625081279549091463,0,-0.2156,-0.658,0.7339,189,-34.4238,37.2925,-12.6343,90,1.3527,1.0735,-21.6589,-32.9491,27,0.014,8461,3.6696,-131.7203
lg,1625081279549109333,0,-0.28,-0.813,0.7678,190,21.0571,-53.4668,-49.3774,90,1.3527,1.0715,-23.2106,-32.4594,27,0.019,8502,3.6696,-132.0468
lg,1625081279549127463,0,-0.1252,-0.7842,0.6621,191,30.6396,-91.7969,-56.3965,90,1.3507,1.0705,-26.3977,-31.9964,27,0.018,8509,3.6696,-131.6841
lg,1625081279549144222,0,0.5608,-0.366,0.5518,192,37.2314,-139.4653,-39.1846,90,1.3507,1.0685,-32.4694,-31.4594,27,0.019,9779,3.6696,-129.8175
lg,1625081279886255202,0,0.3281,-0.4392,0.7759,193,-4.3945,28.9307,6.0425,90,1.3517,1.0705,-30.873,-31.2963,27,0.02,26730,3.6696,-130.3361
lg,1625081279886302683,0,0.5449,-0.5012,0.843,194,-9.0332,11.3525,17.7612,90,1.3517,1.0715,-30.0372,-31.8407,27,0.02,8827,3.6696,-129.9279
lg,1625081279886323849,0,0.7146,-0.5576,0.8076,195,-3.6621,30.1514,22.9492,90,1.3527,1.0715,-28.7653,-32.1587,27,0.02,7979,3.6696,-129.7238
lg,1625081279886343793,0,0.7231,-0.5803,0.8765,196,-3.2959,46.936,22.3389,90,1.3517,1.0725,-26.3579,-31.9426,27,0.02,8041,3.6696,-130.438
lg,1625081279886362497,0,0.3804,-0.6965,0.875,197,18.0054,84.5947,1.8921,90,1.3527,1.0745,-23.1458,-30.7063,27,0.02,11024,3.6696,-132.1892
lg,1625081279886381237,0,-0.022,-0.7529,0.8374,198,44.3726,57.6782,-13.3057,90,1.3537,1.0755,-20.4993,-28.7692,27,0.018,10719,3.6696,-133.7189
lg,1625081279886401200,0,-0.0801,-0.6877,0.7688,199,52.2461,22.3389,-17.0288,90,1.3547,1.0755,-19.2477,-26.7473,27,0.022,8022,3.6696,-134.6375
lg,1625081279886422181,0,0.1533,-0.6025,0.7847,200,44.7998,-42.1143,-3.479,90,1.3557,1.0725,-20.4126,-25.6239,27,0.02,9717,3.6696,-133.8266
lg,1625081279886441236,0,0.728,-0.3242,0.6865,201,21.8506,-78.3081,15.625,90,1.3547,1.0715,-23.8497,-25.5146,27,0.021,8059,3.6696,-131.7623
lg,1625081279886461569,0,1.1707,-0.5552,0.8745,202,-17.1509,-38.5132,13.7939,90,1.3547,1.0715,-25.923,-26.9419,26,0.022,8071,3.6696,-130.373
lg,1625081279886497680,0,0.7427,-0.613,0.8191,203,-15.9912,67.0166,0.7935,90,1.3547,1.0745,-23.9354,-27.3636,26,0.018,9336,3.6696,-131.5452
lg,1625081279886521569,0,0.3855,-0.5984,0.7791,204,-17.334,98.3276,-4.8218,90,1.3547,1.0775,-20.461,-27.6383,26,0.02,8612,3.6696,-133.5359
lg,1625081279886542828,0,-0.1155,-0.571,0.7405,205,-26.1841,66.7725,-8.667,90,1.3537,1.0765,-17.2388,-28.552,26,0.018,8155,3.6696,-135.0558
lg,1625081279886567179,0,0.0066,-1.0178,1.1067,206,-27.832,-17.9443,-14.0381,90,1.3527,1.0735,-17.4879,-30.186,26,0.019,8470,3.6696,-135.0364
lg,1625081279886590105,0,-0.0032,-0.7717,0.6814,207,20.2637,-45.105,-43.8843,90,1.3527,1.0715,-20.0627,-29.4822,26,0.018,8386,3.6696,-135.4111
lg,1625081279886610993,0,0.1841,-0.3887,0.5952,208,39.3066,-77.2095,-44.0063,90,1.3517,1.0715,-23.3799,-28.0363,26,0.019,8267,3.6696,-135.4131
lg,1625081279886631067,0,0.5771,0.0444,0.3875,209,31.8604,-59.3262,-8.3008,90,1.3517,1.0715,-26.9313,-26.3247,26,0.02,8279,3.6696,-134.8824
lg,1625081279886649122,0,0.4629,-0.4922,0.8909,210,-23.3765,-4.8828,17.4561,90,1.3527,1.0725,-26.683,-27.7127,27,0.019,9962,3.6696,-134.0425
lg,1625081279886668678,0,0.6353,-0.5032,0.8623,211,-15.3198,4.5166,28.8086,90,1.3527,1.0735,-26.201,-28.8743,27,0.019,8302,3.6696,-132.9637
lg,1625081279886688400,0,0.6699,-0.6318,0.9163,212,-15.1367,12.3901,26.3062,90,1.3527,1.0745,-25.4427,-30.0114,27,0.02,8311,3.6696,-132.1237
lg,1625081279886708751,0,0.6296,-0.6592,0.9016,213,-3.8452,37.7808,21.3623,90,1.3537,1.0755,-23.8688,-30.3799,27,0.02,8331,3.6696,-132.0531
lg,1625081279886728529,0,0.501,-0.6882,0.8848,214,5.127,56.1523,15.625,90,1.3537,1.0775,-21.6339,-30.2111,27,0.019,8396,3.6696,-132.5852
lg,1625081279886748843,0,0.3066,-0.7766,0.8987,215,23.1934,55.7251,4.0283,90,1.3547,1.0775,-19.3561,-29.3493,27,0.019,10737,3.6696,-133.4615
lg,1625081279886768213,0,0.0837,-0.6941,0.791,216,44.3115,28.6865,-6.5918,90,1.3557,1.0785,-17.9129,-27.8074,27,0.021,8506,3.6696,-134.1155
lg,1625081279886787435,0,0.0896,-0.667,0.7952,217,41.5649,3.418,-5.4321,90,1.3567,1.0775,-18.3022,-26.9329,27,0.024,8559,3.6696,-133.6244
lg,1625081279886804731,0,0.4465,-0.3809,0.7344,218,18.3716,-39.2456,13.2446,90,1.3567,1.0775,-19.8501,-26.6187,27,0.023,8493,3.6696,-132.3717
lg,1625081279886823416,0,0.9158,-0.6677,0.9314,219,-15.564,-41.5039,19.3481,90,1.3557,1.0795,-21.6932,-28.0835,27,0.022,8563,3.6696,-130.7098
lg,1625081279886845471,0,0.916,-0.5569,0.7764,220,-12.8784,36.438,7.6904,90,1.3547,1.0775,-21.123,-28.6576,27,0.019,8513,3.6696,-131.0786
lg,1625081279886866434,0,0.3579,-0.6501,0.95,221,-21.4844,95.2759,-5.8594,90,1.3547,1.0775,-17.7602,-29.0138,26,0.018,9008,3.6696,-133.1709
lg,1625081279886884767,0,-0.2083,-1.1045,0.7722,222,46.2036,56.0303,-76.2939,90,1.3547,1.0755,-16.2818,-27.0514,26,0.02,8569,3.6696,-136.7569
lg,1625081279886903267,0,-0.3345,-0.8726,0.8223,223,55.7861,16.2964,-88.501,90,1.3537,1.0725,-17.463,-23.6395,26,0.021,8657,3.6696,-138.8667
lg,1625081279886922470,0,0.2766,-0.2673,0.4126,224,96.0083,-65.5518,-58.0444,90,1.3527,1.0695,-21.2171,-19.7223,27,0.016,8618,3.6696,-140.0384
lg,1625081280236608442,0,0.1257,-0.0244,0.4817,225,22.2168,75.6836,-20.9351,90,1.3517,1.0675,-18.3924,-17.5246,27,0.017,24635,3.6696,-142.1558
lg,1625081280236646238,0,0.1001,-0.3242,0.679,226,-19.2261,33.5693,-5.188,90,1.3517,1.0655,-16.7607,-18.4196,27,0.019,9685,3.6696,-142.6991
lg,1625081280236667089,0,0.4231,-0.4487,0.769,227,-28.4424,4.3335,1.8921,90,1.3517,1.0685,-17.0486,-20.0917,27,0.019,13129,3.6696,-142.5226
lg,1625081280236686793,0,0.5671,-0.8369,1.126,228,-25.7568,8.2397,-5.0659,90,1.3517,1.0695,-17.0286,-21.6456,27,0.02,8070,3.6696,-142.6574
lg,1625081280236705311,0,0.5903,-0.5762,0.8665,229,0.9766,33.5693,-11.4136,90,1.3517,1.0695,-16.4551,-21.7516,27,0.02,7992,3.6696,-143.4959
lg,1625081280236723255,0,0.4492,-0.658,0.8186,230,4.0894,46.0815,-14.9536,90,1.3517,1.0705,-15.2139,-21.5118,27,0.021,7907,3.6696,-144.8637
lg,1625081280236740533,0,0.3877,-0.6619,0.8535,231,18.4937,51.3916,-24.8413,90,1.3517,1.0705,-13.8638,-20.9537,27,0.022,7937,3.6696,-146.4308
lg,1625081280236757792,0,0.2275,-0.7346,0.8362,232,40.0391,41.9312,-36.6821,90,1.3517,1.0725,-12.7468,-19.6833,27,0.018,8136,3.6696,-148.2529
lg,1625081280236774754,0,0.2034,-0.6753,0.7371,233,65.2466,9.0942,-44.8608,90,1.3537,1.0745,-12.9653,-17.5463,27,0.02,8306,3.6696,-149.92
lg,1625081280236791273,0,0.2432,-0.6318,0.7363,234,70.9839,-6.2866,-47.6074,90,1.3537,1.0755,-13.9659,-15.1659,27,0.023,8477,3.6696,-151.5328
lg,1625081280236813106,0,0.386,-0.5964,0.7156,235,74.707,-26.1841,-44.4336,90,1.3547,1.0765,-15.7893,-12.6941,27,0.022,8068,3.6696,-152.8451
lg,1625081280236832124,0,0.5156,-0.613,0.7275,236,78.8574,-26.3672,-42.9077,90,1.3557,1.0775,-17.7174,-10.0597,27,0.024,8100,3.6696,-154.1349
lg,1625081280236850013,0,0.5452,-0.5916,0.738,237,85.9985,-17.6392,-48.4619,90,1.3557,1.0775,-19.2569,-7.0131,27,0.022,12138,3.6696,-155.7564
lg,1625081280236867790,0,0.5203,-0.5762,0.7383,238,93.3228,-11.0474,-55.603,90,1.3547,1.0775,-20.3846,-3.5884,27,0.022,8151,3.6696,-157.7217
lg,1625081280236884808,0,0.4824,-0.5986,0.7976,239,98.6328,-8.8501,-59.5093,90,1.3557,1.0785,-21.1427,0.4268,27,0.021,8138,3.6696,-159.9779
lg,1625081280236902530,0,0.4661,-0.5671,0.7998,240,116.4551,-10.9863,-66.8945,90,1.3557,1.0785,-21.7771,4.8427,27,0.019,8093,3.6696,-162.4156
lg,1625081280236919938,0,0.4614,-0.5767,0.8613,241,129.6387,-17.8833,-77.0874,90,1.3547,1.0785,-22.3606,9.8913,27,0.021,8151,3.6696,-165.3027
lg,1625081280236936734,0,0.4724,-0.5623,0.9019,242,138.6108,-20.874,-81.2988,90,1.3547,1.0795,-22.7825,15.8606,27,0.022,8529,3.6696,-168.6642
lg,1625081280236953752,0,0.4692,-0.5723,0.9221,243,162.7197,-26.062,-93.689,90,1.3537,1.0795,-22.8551,22.3098,27,0.022,8690,3.6696,-172.2377
lg,1625081280236970789,0,0.47,-0.5471,0.9377,244,188.1104,-26.062,-102.9663,90,1.3527,1.0785,-22.3592,29.7493,27,0.021,8260,3.6696,-176.0578
lg,1625081280236988048,0,0.4587,-0.5027,0.9353,245,216.4917,-16.9678,-110.4126,90,1.3517,1.0785,-20.9194,38.085,27,0.021,8297,3.6696,-179.6998
lg,1625081280237004788,0,0.4614,-0.4294,0.854,246,232.7881,-12.8784,-114.3799,90,1.3497,1.0785,-18.693,47.3231,27,0.02,8633,3.6696,-182.9267
lg,1625081280237021455,0,0.4739,-0.3674,0.832,247,261.2915,-5.9814,-120.1782,90,1.3487,1.0775,-15.6492,57.1473,27,0.023,8337,3.6696,-185.6344
lg,1625081280237038251,0,0.4817,-0.2705,0.7744,248,278.8696,-2.3804,-130.127,90,1.3467,1.0765,-12.1416,66.9428,27,0.023,8387,3.6696,-187.7651
lg,1625081280237055047,0,0.4502,-0.2295,0.7622,249,294.6777,20.3857,-126.9531,90,1.3447,1.0755,-8.1742,76.8513,27,0.022,8388,3.6696,-188.2299
lg,1625081280237071713,0,0.4165,-0.1423,0.7666,250,315.4297,39.5508,-120.3613,90,1.3437,1.0745,-4.2955,87.3261,27,0.021,8422,3.6696,-187.1159
lg,1625081280237088769,0,0.3701,-0.1162,0.7605,251,328.9795,47.2412,-116.6992,90,1.3417,1.0725,-0.8555,98.3563,27,0.021,8486,3.6696,-184.9433
lg,1625081280237105379,0,0.3655,-0.0049,0.6208,252,351.4404,61.5234,-104.3701,90,1.3407,1.0725,1.3859,110.454,27,0.021,8660,3.6696,-181.6213
lg,1625081280237121472,0,0.3164,0.3289,0.4175,253,356.3843,69.5801,-100.3418,90,1.3397,1.0715,2.5287,122.9485,27,0.021,8610,3.6696,-177.519
lg,1625081280237138305,0,0.2188,0.7083,0.239,254,318.1152,71.5332,-97.9614,90,1.3387,1.0705,3.1038,134.1554,27,0.02,8518,3.6696,-172.9965
lg,1625081280237155694,0,0.1887,0.8174,0.2324,255,281.7383,65.3076,-94.4824,90,1.3377,1.0695,3.2783,142.0266,27,0.025,8790,3.6696,-168.9815
lg,1625081280237172490,0,0.2502,0.7761,0.4146,256,204.5288,50.7202,-85.3271,90,1.3367,1.0685,2.9191,148.2542,27,0.025,8595,3.6696,-165.1796
lg,1625081280614441822,0,0.1287,0.7144,0.7058,257,122.8027,67.3828,-57.312,90,1.3337,1.0665,1.4883,151.0904,27,0.025,24409,3.6696,-161.9601
lg,1625081280614528691,0,0.061,0.7156,0.7805,258,94.9707,58.1665,-47.3633,90,1.3306,1.0665,0.2149,152.77,27,0.025,8708,3.6696,-159.2539
lg,1625081280614581376,0,0.041,0.6445,0.8806,259,76.8433,39.6729,-38.4521,90,1.3317,1.0665,-0.614,153.817,27,0.026,14522,3.6696,-157.1765
lg,1625081280614632893,0,0.0342,0.6204,0.9177,260,73.0591,24.231,-29.7852,90,1.3296,1.0655,-1.0537,154.7357,27,0.025,7903,3.6696,-155.6623
lg,1625081280614679985,0,0.0098,0.6331,0.9412,261,74.3408,6.7139,-21.3623,90,1.3296,1.0655,-0.9828,155.7326,27,0.025,7983,3.6696,-154.7378
lg,1625081280614727466,0,-0.0098,0.6289,0.9314,262,74.4629,-2.9907,-16.8457,90,1.3286,1.0655,-0.6051,156.7608,27,0.024,7944,3.6696,-154.1353
lg,1625081280614775725,0,-0.0435,0.6179,0.9102,263,74.707,-25.4517,-8.5449,90,1.3286,1.0655,0.5394,157.8269,27,0.023,8272,3.6696,-154.1906
lg,1625081280614822335,0,-0.0281,0.6411,0.8638,264,74.8901,-52.6733,-0.7324,90,1.3286,1.0655,2.5732,158.8495,27,0.024,11012,3.6696,-154.9566
lg,1625081280614867724,0,0.0276,0.6536,0.8511,265,72.8149,-80.5664,6.6528,90,1.3276,1.0655,5.4797,159.7088,27,0.024,8010,3.6696,-156.4331
lg,1625081280614913723,0,0.021,0.6404,0.7756,266,71.3501,-91.4307,10.0708,90,1.3266,1.0655,9.0379,160.1482,27,0.022,8033,3.6696,-158.1089
lg,1625081280614959519,0,0.2146,0.7859,0.9058,267,65.5518,-116.333,7.3242,90,1.3256,1.0645,13.0812,160.4093,27,0.023,8067,3.6696,-160.298
lg,1625081280615004296,0,0.0444,0.8818,0.8674,268,43.0298,-93.9941,-5.0049,90,1.3256,1.0645,16.806,159.6919,27,0.024,8103,3.6696,-161.9122
lg,1625081280615049480,0,0.127,0.9224,0.9009,269,12.5732,-119.9341,-15.0757,90,1.3256,1.0645,21.517,157.5758,27,0.024,8297,3.6696,-163.7974
lg,1625081280615096183,0,0.2703,0.8955,0.8909,270,-1.77,-121.2158,-15.4419,90,1.3236,1.0635,26.0307,154.6219,27,0.023,8162,3.6696,-166.1422
lg,1625081280615146553,0,0.4143,0.6428,0.9548,271,-22.644,-99.5483,-21.8506,90,1.3226,1.0635,29.7188,151.0657,27,0.024,8190,3.6696,-168.2203
lg,1625081280615193016,0,0.3843,0.4114,1.1006,272,-13.855,-60.3027,-24.5972,90,1.3216,1.0635,32.3522,148.3573,27,0.023,8198,3.6696,-169.5988
lg,1625081280615236182,0,0.2861,0.3679,1.106,273,3.3569,-44.4946,-24.4751,90,1.3216,1.0635,34.6572,146.3531,27,0.023,8300,3.6696,-170.8545
lg,1625081280615281514,0,0.1567,0.4692,0.949,274,40.4053,-40.7715,-17.334,90,1.3206,1.0635,36.748,145.3033,27,0.022,8372,3.6696,-172.6496
lg,1625081280615326903,0,0.0781,0.6262,0.7935,275,55.6641,-62.7441,-12.9395,90,1.3206,1.0635,39.3287,143.9418,27,0.022,8332,3.6696,-175.6165
lg,1625081280615371846,0,0.1372,0.6321,0.7478,276,55.0537,-81.665,-11.4136,90,1.3206,1.0635,42.8439,141.2194,27,0.023,8390,3.6696,-180.3278
lg,1625081280615415735,0,0.2024,0.6436,0.7539,277,50.5981,-116.1499,-8.0566,90,1.3196,1.0625,46.4649,137.3617,27,0.022,8362,3.6696,-186.3438
lg,1625081280615459679,0,0.3237,0.6165,0.7117,278,53.4668,-133.0566,-7.0801,90,1.3196,1.0625,50.007,132.2317,27,0.022,8396,3.6696,165.9677
lg,1625081280615503289,0,0.3699,0.6794,0.636,279,57.312,-135.498,-3.8452,90,1.3196,1.0625,52.7879,125.9519,27,0.022,8419,3.6696,156.8228
lg,1625081280615546733,0,0.4272,0.6873,0.6011,280,55.3589,-135.1929,-2.8076,90,1.3186,1.0625,54.6785,118.365,27,0.022,8413,3.6696,146.4615
lg,1625081280615589806,0,0.4485,0.7151,0.593,281,46.936,-133.0566,-0.3052,90,1.3186,1.0625,55.5838,109.9537,27,0.022,8474,3.6696,135.3481
lg,1625081280615632547,0,0.4939,0.7009,0.5813,282,39.0625,-129.1504,0.9155,90,1.3176,1.0625,55.4197,101.2507,27,0.021,8431,3.6696,124.1459
lg,1625081280615676046,0,0.5586,0.7004,0.562,283,29.9072,-119.2017,0.6714,90,1.3186,1.0625,54.2457,93.2274,27,0.022,14321,3.6696,113.9419
lg,1625081280615719675,0,0.6042,0.6699,0.5481,284,27.9541,-114.624,0.3052,90,1.3186,1.0625,52.3736,86.3744,27,0.021,8495,3.6696,105.0792
lg,1625081280615763897,0,0.6194,0.6606,0.563,285,23.6816,-102.356,-1.2207,90,1.3186,1.0625,49.9706,80.5607,27,0.021,8503,3.6696,97.2884
lg,1625081280615809470,0,0.6333,0.6458,0.5957,286,21.6675,-88.8062,-2.3804,90,1.3186,1.0615,47.308,75.9781,27,0.02,8555,3.6696,90.9067
lg,1625081280615854081,0,0.6182,0.6189,0.5972,287,22.583,-75.3174,-3.8452,90,1.3176,1.0615,44.571,72.5528,27,0.021,8590,3.6696,85.7623
lg,1625081280615906876,0,0.6086,0.5852,0.6355,288,25.5127,-63.1104,-4.6387,90,1.3186,1.0615,41.8814,70.0197,27,0.021,8856,3.6696,81.5469
lg,1625081280985987103,0,0.5295,0.5325,0.7234,289,40.8325,-38.3911,-7.6294,95,1.3146,1.0615,39.7218,68.8128,27,0.021,25897,3.6773,78.5106
lg,1625081280986077250,0,0.4622,0.5142,0.7603,290,60.2417,-28.4424,-11.1694,95,1.3186,1.0615,37.8837,68.7374,27,0.021,10859,3.6773,75.9817
lg,1625081280986129693,0,0.4077,0.5459,0.7576,291,74.8291,-26.4282,-14.3433,95,1.3196,1.0615,36.2629,69.3822,27,0.022,10162,3.6773,73.5912
lg,1625081280986177600,0,0.3674,0.6206,0.7319,292,88.562,-32.2876,-17.6392,95,1.3196,1.0615,34.7451,70.5843,27,0.021,10799,3.6773,71.0214
lg,1625081280986223525,0,0.3542,0.6506,0.6995,293,94.4824,-36.8652,-19.8364,95,1.3196,1.0615,33.2525,72.1705,27,0.022,7952,3.6773,68.107
lg,1625081280986295950,0,0.4014,0.7539,0.6216,294,101.1353,-49.0112,-24.9634,95,1.3196,1.0615,31.855,73.8715,27,0.021,8081,3.6773,64.9935
lg,1625081280986342487,0,0.4956,0.8345,0.5334,295,98.5107,-57.8003,-28.3203,95,1.3206,1.0615,30.4578,75.5715,27,0.022,7966,3.6773,61.647
lg,1625081280986386153,0,0.551,0.9082,0.4761,296,95.7642,-57.251,-30.2124,95,1.3206,1.0615,29.2713,77.1412,27,0.023,8036,3.6773,58.4728
lg,1625081280986428671,0,0.5662,0.9248,0.4189,297,80.6885,-53.5278,-33.3862,95,1.3216,1.0625,28.2177,78.5834,27,0.024,9116,3.6773,55.5171
lg,1625081280986470466,0,0.6047,0.9722,0.4443,298,62.7441,-41.626,-35.7666,95,1.3216,1.0615,27.4151,79.5543,27,0.024,8130,3.6773,53.1049
lg,1625081280986513558,0,0.6367,0.9758,0.4067,299,45.8374,-29.48,-38.0859,95,1.3226,1.0615,26.792,80.1757,27,0.023,8048,3.6773,51.2789
lg,1625081280986556687,0,0.5681,0.9822,0.4265,300,27.771,-16.4185,-39.6118,95,1.3226,1.0615,26.4094,80.2835,27,0.024,10906,3.6773,50.0172
lg,1625081280986599983,0,0.5093,0.9661,0.4463,301,20.0195,-11.9629,-39.1846,95,1.3226,1.0615,26.1015,79.8317,27,0.025,8051,3.6773,48.9678
lg,1625081280986641483,0,0.4868,0.9404,0.4392,302,5.9204,-10.6812,-37.9028,95,1.3226,1.0615,25.7664,79.1339,27,0.025,8060,3.6773,47.9495
lg,1625081280986685945,0,0.4604,0.9348,0.4541,303,-5.0049,-14.2212,-35.5225,95,1.3226,1.0615,25.3381,77.9289,27,0.024,8084,3.6773,46.7806
lg,1625081280986729055,0,0.4343,0.8977,0.4529,304,-13.1836,-17.1509,-32.7148,95,1.3216,1.0615,24.7768,76.3651,27,0.024,10300,3.6773,45.4977
lg,1625081280986772703,0,0.4092,0.8589,0.4399,305,-20.1416,-20.5688,-29.1138,95,1.3226,1.0615,24.0341,74.5281,27,0.024,8655,3.6773,44.1075
lg,1625081280986815702,0,0.4153,0.8533,0.4604,306,-21.9727,-23.3765,-27.8931,95,1.3226,1.0615,23.1891,72.6099,27,0.023,8201,3.6773,42.6082
lg,1625081280986858480,0,0.3953,0.8198,0.47,307,-24.9634,-29.0527,-23.6206,95,1.3226,1.0605,22.1045,70.5373,27,0.024,8258,3.6773,40.929
lg,1625081280986900312,0,0.3984,0.8,0.4617,308,-27.0996,-35.0342,-20.1416,95,1.3226,1.0615,20.7638,68.4177,27,0.023,8242,3.6773,39.0932
lg,1625081280986941608,0,0.407,0.8035,0.4575,309,-27.3438,-39.4897,-18.3716,95,1.3226,1.0615,19.1448,66.3925,27,0.024,8290,3.6773,37.087
lg,1625081280986983163,0,0.468,0.7979,0.4543,310,-26.3672,-45.5322,-15.625,95,1.3236,1.0615,17.3257,64.4801,27,0.024,10946,3.6773,35.0243
lg,1625081280987034440,0,0.4712,0.7939,0.4631,311,-26.123,-46.6919,-15.625,95,1.3236,1.0615,15.47,62.6842,27,0.024,8641,3.6773,32.9652
lg,1625081280987079366,0,0.5291,0.7825,0.4443,312,-25.6958,-46.5088,-15.7471,95,1.3236,1.0615,13.5223,61.0716,27,0.023,8334,3.6773,30.9672
lg,1625081280987121050,0,0.5376,0.7861,0.4485,313,-25.3906,-44.1895,-16.6626,95,1.3236,1.0615,11.647,59.6078,27,0.023,8430,3.6773,29.0713
lg,1625081280987165512,0,0.5515,0.7578,0.4495,314,-24.9634,-42.1753,-17.0288,95,1.3236,1.0615,9.841,58.2722,27,0.023,8472,3.6773,27.3091
lg,1625081280987208567,0,0.5564,0.7527,0.4473,315,-23.5596,-38.6353,-18.5547,95,1.3236,1.0615,8.1186,57.0888,27,0.023,8481,3.6773,25.6093
lg,1625081280987257178,0,0.5947,0.7732,0.4299,316,-20.9961,-34.9121,-19.4702,95,1.3236,1.0615,6.4842,56.1651,27,0.023,8431,3.6773,24.035
lg,1625081280987300307,0,0.5967,0.7607,0.437,317,-20.2637,-28.6865,-20.6909,95,1.3246,1.0615,5.0445,55.3349,27,0.023,8427,3.6773,22.6425
lg,1625081280987342158,0,0.5925,0.7637,0.4436,318,-19.4092,-25.2686,-21.1182,95,1.3236,1.0625,3.8527,54.6232,28,0.023,8478,3.6773,21.4553
lg,1625081280987383565,0,0.5444,0.739,0.4375,319,-17.7612,-20.0806,-22.0947,95,1.3236,1.0615,2.7785,54.0461,28,0.023,8927,3.6773,20.3608
lg,1625081280987429639,0,0.5476,0.7368,0.4324,320,-16.8457,-17.0288,-21.4844,95,1.3236,1.0615,1.7553,53.5069,28,0.023,8572,3.6773,19.3219
lg,1625081281338111061,0,0.5139,0.759,0.4219,321,-11.1084,-17.0898,-17.334,95,1.3236,1.0615,0.6919,53.2853,27,0.023,24676,3.6773,18.3731
lg,1625081281338199171,0,0.5396,0.7432,0.4304,322,-9.5215,-18.5547,-15.1978,95,1.3236,1.0615,-0.4937,53.1155,27,0.023,8690,3.6773,17.4226
lg,1625081281338251485,0,0.5352,0.7517,0.438,323,-8.3618,-18.9819,-13.7939,95,1.3236,1.0615,-1.7066,52.9873,27,0.023,7909,3.6773,16.487
lg,1625081281338303669,0,0.5259,0.7312,0.4312,324,-5.7983,-18.9819,-12.207,95,1.3246,1.0605,-2.95,53.0402,27,0.023,8231,3.6773,15.6144
lg,1625081281338348761,0,0.5415,0.7222,0.4282,325,-3.54,-17.6392,-7.9346,95,1.3236,1.0615,-4.2468,53.1454,27,0.022,10272,3.6773,14.8495
lg,1625081281338393668,0,0.5532,0.7085,0.4285,326,-2.0142,-16.4795,-6.1646,95,1.3236,1.0615,-5.5581,53.3003,27,0.023,9893,3.6773,14.1592
lg,1625081281338437816,0,0.5554,0.7361,0.436,327,-0.6714,-16.9067,-4.7607,95,1.3236,1.0615,-6.865,53.5406,27,0.022,8850,3.6773,13.4796
lg,1625081281338479908,0,0.553,0.7195,0.4329,328,1.5259,-16.6016,-3.6011,95,1.3236,1.0615,-8.1512,53.8535,27,0.023,8508,3.6773,12.8325
lg,1625081281338524852,0,0.5552,0.7195,0.4319,329,3.1128,-14.6484,-2.6245,95,1.3236,1.0615,-9.3781,54.2224,27,0.022,8002,3.6773,12.266
lg,1625081281338568036,0,0.552,0.7239,0.4189,330,4.0283,-14.2822,-2.6855,95,1.3236,1.0615,-10.5556,54.6537,27,0.023,8050,3.6773,11.7518
lg,1625081281338610517,0,0.5549,0.7205,0.4229,331,4.6997,-12.3291,-1.2817,95,1.3236,1.0615,-11.6821,55.0814,27,0.022,8102,3.6773,11.2805
lg,1625081281338651980,0,0.5581,0.7339,0.4309,332,6.5918,-11.7798,-0.4883,95,1.3236,1.0615,-12.7653,55.5723,27,0.023,8091,3.6773,10.8418
lg,1625081281338692757,0,0.5625,0.7227,0.4294,333,8.5449,-10.498,-0.1831,95,1.3246,1.0625,-13.8053,56.1108,27,0.023,9119,3.6773,10.4528
lg,1625081281338733664,0,0.5562,0.738,0.438,334,8.728,-8.4839,0.3052,95,1.3246,1.0615,-14.7754,56.6705,27,0.023,8143,3.6773,10.1319
lg,1625081281338776700,0,0.5889,0.7495,0.4358,335,9.3384,-5.3101,1.77,95,1.3246,1.0625,-15.702,57.177,27,0.024,8148,3.6773,9.9611
lg,1625081281338819089,0,0.5503,0.7566,0.4465,336,10.6812,-1.3428,2.6855,95,1.3236,1.0615,-16.4577,57.6673,27,0.023,8149,3.6773,9.9545
lg,1625081281338862088,0,0.5337,0.7598,0.4351,337,11.2915,0.1221,3.9673,95,1.3236,1.0615,-17.1704,58.1687,27,0.024,9891,3.6773,10.0235
lg,1625081281338903588,0,0.5208,0.762,0.4243,338,12.5122,0.1831,6.1035,95,1.3236,1.0615,-17.9076,58.7104,27,0.023,8174,3.6773,10.1373
lg,1625081281338944791,0,0.5132,0.7822,0.438,339,12.5732,-0.3052,7.1411,95,1.3246,1.0615,-18.6221,59.2285,27,0.024,8235,3.6773,10.2608
lg,1625081281338988494,0,0.5134,0.752,0.436,340,12.7563,-0.7935,8.667,95,1.3246,1.0625,-19.402,59.6973,27,0.023,8349,3.6773,10.4131
lg,1625081281339031197,0,0.4875,0.762,0.4314,341,13.1836,-1.0376,10.2539,95,1.3246,1.0625,-20.1554,60.1782,27,0.023,8288,3.6773,10.5863
lg,1625081281339073234,0,0.501,0.7483,0.4448,342,13.6719,-0.9155,10.376,95,1.3236,1.0615,-20.9261,60.6137,27,0.023,8351,3.6773,10.7597
lg,1625081281339114511,0,0.4956,0.752,0.4465,343,13.9771,-2.0142,11.4136,95,1.3246,1.0615,-21.6986,61.0497,27,0.023,8296,3.6773,10.9437
lg,1625081281339156251,0,0.4912,0.7576,0.4573,344,14.5264,-2.1362,12.085,95,1.3246,1.0625,-22.4483,61.4706,27,0.022,8335,3.6773,11.1473
lg,1625081281339196602,0,0.4854,0.7563,0.458,345,14.4043,-2.1973,12.3901,95,1.3246,1.0625,-23.1709,61.8643,27,0.022,8430,3.6773,11.361
lg,1625081281339244269,0,0.5051,0.7549,0.4641,346,14.7095,-2.1973,12.2681,95,1.3246,1.0625,-23.8986,62.2411,27,0.022,8406,3.6773,11.5825
lg,1625081281339291212,0,0.5037,0.7646,0.47,347,16.8457,-2.8076,10.9863,95,1.3246,1.0625,-24.5498,62.7076,27,0.023,8420,3.6773,11.7592
lg,1625081281339332045,0,0.5085,0.7717,0.4727,348,17.334,-2.8076,10.5591,95,1.3246,1.0625,-25.1627,63.1823,27,0.022,8487,3.6773,11.932
lg,1625081281339373989,0,0.4998,0.7788,0.4773,349,17.1509,-0.7935,10.5591,95,1.3246,1.0615,-25.65,63.5932,27,0.022,8481,3.6773,12.242
lg,1625081281339414896,0,0.5117,0.7605,0.4626,350,17.2119,0.9766,9.8267,95,1.3246,1.0625,-26.1511,63.9762,27,0.021,8618,3.6773,12.5611
lg,1625081281339462451,0,0.4829,0.771,0.4751,351,17.9443,2.0752,9.5215,95,1.3236,1.0615,-26.5327,64.3384,27,0.021,8538,3.6773,12.9329
lg,1625081281339504950,0,0.489,0.7803,0.4778,352,16.5405,3.8452,8.9111,95,1.3256,1.0625,-26.8509,64.6081,27,0.021,8558,3.6773,13.3689
lg,1625081281695373950,0,0.4456,0.7532,0.4648,353,14.4043,3.2959,8.0566,95,1.3216,1.0625,-27.0813,64.7869,27,0.021,24321,3.6773,13.7772
lg,1625081281695463560,0,0.4468,0.7771,0.4519,354,14.4043,2.9297,7.3853,95,1.3246,1.0615,-27.2717,65.029,27,0.021,9931,3.6773,14.1347
lg,1625081281695518337,0,0.4509,0.7717,0.4578,355,12.3901,0.5493,7.2021,95,1.3246,1.0615,-27.4995,65.2072,27,0.021,12268,3.6773,14.405
lg,1625081281695574966,0,0.4395,0.7759,0.4675,356,12.146,0.061,6.7139,95,1.3256,1.0625,-27.6784,65.3637,27,0.022,8246,3.6773,14.658
lg,1625081281695623929,0,0.4475,0.7861,0.4663,357,11.4746,-1.77,6.0425,95,1.3246,1.0615,-27.8639,65.5439,27,0.022,10373,3.6773,14.8188
lg,1625081281695674502,0,0.4429,0.7871,0.4841,358,10.6812,-1.77,5.0659,95,1.3246,1.0615,-27.9899,65.6555,27,0.021,7997,3.6773,14.983
lg,1625081281695722890,0,0.4539,0.7764,0.4673,359,10.1318,-2.1973,3.2959,95,1.3246,1.0615,-28.0921,65.789,27,0.021,7965,3.6773,15.0875
lg,1625081281695769890,0,0.4429,0.7778,0.4761,360,9.3994,-2.3193,2.8076,95,1.3246,1.0615,-28.1478,65.8758,27,0.021,7948,3.6773,15.1895
lg,1625081281695855166,0,0.457,0.7893,0.4692,361,9.3384,-2.4414,1.709,95,1.3246,1.0615,-28.1839,65.9995,27,0.02,7994,3.6773,15.2533
lg,1625081281695907277,0,0.4573,0.7864,0.4736,362,8.1177,-2.6245,0.4883,95,1.3256,1.0615,-28.1785,66.0707,27,0.021,8746,3.6773,15.2957
lg,1625081281695952295,0,0.4646,0.7693,0.4814,363,8.2397,-2.5635,-0.6714,95,1.3256,1.0625,-28.1573,66.1156,27,0.021,8020,3.6773,15.3385
lg,1625081281695997442,0,0.4663,0.7908,0.4697,364,7.4463,-2.3804,-1.4648,95,1.3246,1.0615,-28.0932,66.1825,27,0.021,8030,3.6773,15.3503
lg,1625081281696042534,0,0.4663,0.7734,0.4717,365,6.5308,-2.5635,-2.2583,95,1.3256,1.0615,-28.0209,66.1952,27,0.021,8137,3.6773,15.3533
lg,1625081281696086460,0,0.4473,0.7629,0.459,366,4.8828,-1.5869,-3.1738,95,1.3256,1.0615,-27.8795,66.1429,27,0.021,8123,3.6773,15.374
lg,1625081281696130793,0,0.4395,0.752,0.4617,367,4.5166,-1.6479,-3.3569,95,1.3256,1.0615,-27.7313,66.0598,27,0.021,8193,3.6773,15.3969
lg,1625081281696174588,0,0.4463,0.7585,0.4634,368,4.3945,-2.8076,-2.8687,95,1.3256,1.0615,-27.6324,65.999,27,0.021,8186,3.6773,15.3757
lg,1625081281696216273,0,0.4497,0.7739,0.4595,369,3.8452,-4.6387,-2.9907,95,1.3256,1.0625,-27.5565,65.9832,27,0.021,8184,3.6773,15.2618
lg,1625081281696258735,0,0.4373,0.7759,0.4683,370,4.0283,-5.5542,-2.8687,95,1.3256,1.0615,-27.5177,65.9947,27,0.021,8240,3.6773,15.1103
lg,1625081281696301624,0,0.4495,0.7827,0.4653,371,3.418,-7.3853,-3.7231,95,1.3256,1.0615,-27.4528,66.0182,27,0.022,8239,3.6773,14.8701
lg,1625081281696343975,0,0.4673,0.7749,0.4709,372,4.1504,-8.9111,-3.7231,95,1.3256,1.0615,-27.4551,66.0791,27,0.022,9974,3.6773,14.5764
lg,1625081281696385937,0,0.4844,0.7725,0.4626,373,3.8452,-8.667,-4.2114,95,1.3256,1.0615,-27.4748,66.1422,27,0.021,8357,3.6773,14.2771
lg,1625081281696430029,0,0.4985,0.7922,0.4592,374,4.1504,-6.958,-4.6387,95,1.3256,1.0615,-27.4602,66.2187,27,0.021,9884,3.6773,14.0268
lg,1625081281696472733,0,0.502,0.783,0.4749,375,3.7231,-5.249,-4.8218,95,1.3256,1.0615,-27.421,66.1999,27,0.02,8690,3.6773,13.8658
lg,1625081281696552732,0,0.5107,0.7834,0.4724,376,3.1128,-5.5542,-5.188,95,1.3256,1.0615,-27.3921,66.1732,27,0.019,8598,3.6773,13.6819
lg,1625081281696603583,0,0.4934,0.7825,0.4463,377,2.9907,-3.9673,-5.0049,95,1.3246,1.0605,-27.3248,66.164,27,0.02,8416,3.6773,13.5416
lg,1625081281696652675,0,0.4756,0.7581,0.4551,378,2.3193,-3.1738,-4.3945,95,1.3246,1.0615,-27.255,66.0572,27,0.02,8476,3.6773,13.4681
lg,1625081281696695452,0,0.479,0.7678,0.4653,379,1.4648,-4.1504,-4.5166,95,1.3256,1.0615,-27.1922,65.9299,27,0.02,8509,3.6773,13.3543
lg,1625081281696737618,0,0.4824,0.7595,0.4583,380,1.0986,-4.2725,-3.9673,95,1.3256,1.0615,-27.167,65.8213,27,0.019,8774,3.6773,13.2287
lg,1625081281696779840,0,0.4646,0.7537,0.4568,381,1.4038,-5.249,-3.418,95,1.3256,1.0615,-27.1546,65.7116,27,0.019,8691,3.6773,13.085
lg,1625081281696825987,0,0.4834,0.7705,0.4587,382,2.6855,-5.9814,-2.3193,95,1.3266,1.0615,-27.2149,65.6807,27,0.019,8532,3.6773,12.9208
lg,1625081281696870653,0,0.4753,0.7607,0.4551,383,2.9907,-6.897,-2.3193,95,1.3266,1.0615,-27.2829,65.6758,27,0.019,8623,3.6773,12.7208
lg,1625081281696918671,0,0.48,0.7532,0.4504,384,3.1128,-7.3242,-1.9531,95,1.3256,1.0615,-27.375,65.6826,27,0.019,8598,3.6773,12.5271
lg,1625081282055251995,0,0.48,0.761,0.4602,385,5.127,-6.4087,-1.6479,95,1.3246,1.0615,-27.4597,65.7382,27,0.019,25051,3.6773,12.3647
lg,1625081282055322976,0,0.478,0.7563,0.4419,386,6.1035,-6.958,-1.709,95,1.3256,1.0615,-27.5563,65.8766,27,0.019,9835,3.6773,12.1636
lg,1625081282055373031,0,0.4919,0.7581,0.4595,387,7.6904,-7.2021,-1.77,95,1.3256,1.0615,-27.6683,66.0435,27,0.018,11284,3.6773,11.9703
lg,1625081282055420401,0,0.5049,0.7686,0.4648,388,7.6294,-6.3477,-2.1362,95,1.3256,1.0615,-27.7606,66.1913,27,0.019,8021,3.6773,11.8076
lg,1625081282055464011,0,0.4873,0.7527,0.4456,389,8.3618,-4.6387,-2.3804,95,1.3266,1.0605,-27.803,66.3527,27,0.02,10310,3.6773,11.7045
lg,1625081282055531585,0,0.479,0.7549,0.4563,390,8.667,-4.3335,-1.8311,95,1.3266,1.0605,-27.8354,66.4872,27,0.02,7978,3.6773,11.6377
lg,1625081282055577584,0,0.4778,0.7793,0.4338,391,8.728,-3.7842,-1.9531,95,1.3256,1.0605,-27.8617,66.6098,28,0.019,8168,3.6773,11.6043
lg,1625081282055620769,0,0.4841,0.7786,0.4426,392,8.606,-3.9673,-1.4648,95,1.3266,1.0605,-27.8918,66.7813,28,0.019,8049,3.6773,11.5361
lg,1625081282055661842,0,0.4888,0.7715,0.4465,393,8.728,-4.0283,-0.5493,95,1.3266,1.0615,-27.9694,66.9279,28,0.02,9470,3.6773,11.4926
lg,1625081282055702694,0,0.4829,0.7881,0.4553,394,8.1787,-3.54,-0.3662,95,1.3266,1.0605,-28.0117,67.0354,27,0.019,10387,3.6773,11.4758
lg,1625081282055743101,0,0.4629,0.7603,0.4658,395,8.9722,-4.2725,0.1831,95,1.3266,1.0605,-28.0671,67.1207,27,0.019,8070,3.6773,11.4683
lg,1625081282055787341,0,0.4773,0.7764,0.4751,396,8.9111,-5.127,0.5493,95,1.3266,1.0605,-28.2177,67.2127,27,0.019,8266,3.6773,11.4075
lg,1625081282055831637,0,0.4866,0.7778,0.4688,397,7.9956,-5.6763,1.2207,95,1.3266,1.0605,-28.3528,67.2901,27,0.019,8085,3.6773,11.3545
lg,1625081282055873599,0,0.4668,0.7595,0.4719,398,8.4229,-6.5308,1.8921,95,1.3266,1.0605,-28.498,67.3606,27,0.019,8370,3.6773,11.2946
lg,1625081282055914284,0,0.4854,0.7847,0.468,399,8.3008,-6.1035,1.709,95,1.3266,1.0605,-28.6377,67.4589,27,0.019,8150,3.6773,11.2311
lg,1625081282055954635,0,0.4844,0.7834,0.4658,400,7.3242,-5.3101,1.709,95,1.3266,1.0605,-28.76,67.5017,27,0.02,8190,3.6773,11.2019
lg,1625081282055994449,0,0.4832,0.772,0.4675,401,7.2632,-3.7842,0.7324,95,1.3266,1.0605,-28.8265,67.4998,27,0.019,9973,3.6707,11.2302
lg,1625081282056034153,0,0.4775,0.7646,0.4495,402,5.9814,-2.6855,1.2207,91,1.3276,1.0615,-28.8952,67.4505,27,0.02,8204,3.6707,11.2992
lg,1625081282056073930,0,0.4668,0.7695,0.4573,403,6.7139,-2.2583,1.6479,91,1.3276,1.0605,-28.9412,67.4068,27,0.02,8446,3.6707,11.3994
lg,1625081282056112985,0,0.4536,0.7646,0.4561,404,6.1646,-2.3193,1.6479,91,1.3266,1.0615,-28.9651,67.3321,27,0.02,8310,3.6707,11.5024
lg,1625081282056174373,0,0.45,0.7854,0.4585,405,5.4932,-3.1738,1.3428,91,1.3276,1.0605,-28.9618,67.28,27,0.02,8327,3.6707,11.5498
lg,1625081282056215558,0,0.4524,0.7703,0.4553,406,5.8594,-4.5776,0.9155,91,1.3266,1.0605,-28.9846,67.2658,27,0.019,8344,3.6707,11.5349
lg,1625081282056260335,0,0.4724,0.7886,0.4592,407,6.2256,-6.1646,0.9766,91,1.3276,1.0605,-29.0576,67.3202,27,0.019,8309,3.6707,11.4205
lg,1625081282056301464,0,0.4802,0.7791,0.4609,408,5.9814,-6.2866,0.5493,91,1.3276,1.0605,-29.1337,67.3498,27,0.02,8309,3.6707,11.3271
lg,1625081282056341149,0,0.4717,0.7856,0.4785,409,6.2256,-5.7983,-0.1221,91,1.3276,1.0605,-29.1448,67.352,27,0.019,8415,3.6707,11.2589
lg,1625081282056382963,0,0.4688,0.7673,0.4612,410,6.4697,-4.8828,0.1831,91,1.3266,1.0605,-29.1713,67.3576,27,0.019,8386,3.6707,11.2275
lg,1625081282056422944,0,0.4688,0.772,0.4563,411,6.3477,-4.8828,0.7324,91,1.3276,1.0615,-29.2144,67.3701,27,0.019,10086,3.6707,11.1979
lg,1625081282056462203,0,0.4565,0.7649,0.4629,412,5.6763,-4.5166,0.7935,91,1.3276,1.0605,-29.2324,67.3218,27,0.019,8664,3.6707,11.1976
lg,1625081282056501573,0,0.4602,0.7693,0.4641,413,5.5542,-4.4556,0.6714,91,1.3266,1.0615,-29.2546,67.2696,27,0.019,8492,3.6707,11.1975
lg,1625081282056541017,0,0.449,0.7722,0.4561,414,5.7983,-5.5542,0.3052,91,1.3276,1.0605,-29.2493,67.2794,27,0.019,8517,3.6707,11.1315
lg,1625081282056580313,0,0.4441,0.7693,0.4502,415,5.3101,-7.5073,0.1831,91,1.3276,1.0605,-29.2646,67.3197,27,0.019,8485,3.6707,10.9763
lg,1625081282056619257,0,0.4448,0.7666,0.4661,416,5.249,-8.7891,-0.3662,91,1.3276,1.0615,-29.2766,67.3484,27,0.019,8539,3.6707,10.7771
lg,1625081282429053324,0,0.4697,0.7808,0.481,417,6.8359,-8.9111,-1.8311,91,1.3256,1.0605,-29.2662,67.443,27,0.019,24824,3.6707,10.5533
lg,1625081282429171859,0,0.4805,0.7905,0.4675,418,7.6294,-7.9346,-2.0752,91,1.3276,1.0605,-29.2488,67.5901,27,0.019,8807,3.6707,10.3475
lg,1625081282429224674,0,0.4805,0.772,0.4639,419,7.5684,-7.019,-2.7466,91,1.3266,1.0605,-29.2125,67.7012,27,0.02,9700,3.6707,10.1787
lg,1625081282429300136,0,0.4595,0.7771,0.4539,420,5.8594,-6.4697,-2.8687,91,1.3276,1.0605,-29.1222,67.7546,27,0.02,11905,3.6707,10.0207
lg,1625081282429349209,0,0.4446,0.7988,0.4648,421,5.6152,-6.4697,-2.5024,91,1.3276,1.0605,-29.0428,67.776,27,0.019,10495,3.6707,9.8778
lg,1625081282429395690,0,0.46,0.78,0.4675,422,5.6152,-8.8501,-2.6855,91,1.3276,1.0605,-28.9943,67.8368,27,0.019,7957,3.6707,9.6358
lg,1625081282429438764,0,0.4729,0.7935,0.4712,423,4.5166,-10.8032,-3.0518,91,1.3276,1.0605,-28.9743,67.9045,27,0.02,7946,3.6707,9.3006
lg,1625081282429482263,0,0.4841,0.7925,0.4734,424,4.4556,-10.7422,-2.8076,91,1.3276,1.0605,-28.9873,67.9568,27,0.02,8167,3.6707,8.9768
lg,1625081282429524855,0,0.4758,0.7825,0.4587,425,3.9062,-10.1318,-2.3193,91,1.3276,1.0605,-29.005,67.9902,27,0.021,8010,3.6707,8.6777
lg,1625081282429565947,0,0.4844,0.7876,0.4626,426,3.479,-9.0942,-2.9297,91,1.3276,1.0605,-28.9943,67.9877,27,0.021,8675,3.6707,8.4136
lg,1625081282429607743,0,0.4851,0.7905,0.4604,427,2.2583,-7.5073,-2.8076,91,1.3276,1.0605,-28.9646,67.9111,27,0.021,8025,3.6707,8.2148
lg,1625081282429650465,0,0.4729,0.7632,0.4712,428,1.8311,-6.7139,-3.2349,91,1.3276,1.0605,-28.9074,67.7489,27,0.02,9958,3.6707,8.0694
lg,1625081282429690742,0,0.4985,0.7944,0.4597,429,1.0986,-5.9814,-3.418,91,1.3276,1.0605,-28.8588,67.6171,27,0.021,8306,3.6707,7.9161
lg,1625081282429732556,0,0.4941,0.759,0.4482,430,0.7324,-4.9438,-3.6621,91,1.3276,1.0605,-28.8192,67.4392,27,0.021,8095,3.6707,7.8082
lg,1625081282429773297,0,0.4729,0.7637,0.4727,431,0.4883,-4.6997,-3.8452,91,1.3276,1.0605,-28.7148,67.2035,27,0.021,8096,3.6707,7.7285
lg,1625081282429815407,0,0.4897,0.7683,0.4504,432,0.2441,-4.4556,-3.6011,91,1.3276,1.0605,-28.6473,67.005,27,0.02,8186,3.6707,7.6365
lg,1625081282429856407,0,0.479,0.7715,0.4504,433,0.3662,-3.8452,-3.8452,91,1.3276,1.0605,-28.5504,66.824,27,0.021,8153,3.6707,7.5543
lg,1625081282429897554,0,0.4736,0.7668,0.4473,434,0.6714,-2.7466,-3.3569,91,1.3276,1.0605,-28.4536,66.637,27,0.021,8193,3.6707,7.5223
lg,1625081282429966072,0,0.4578,0.772,0.4739,435,1.5259,-2.6855,-2.8687,91,1.3276,1.0605,-28.3696,66.4708,27,0.02,8231,3.6707,7.4889
lg,1625081282430008960,0,0.4595,0.7773,0.4629,436,2.4414,-4.1504,-2.8687,91,1.3286,1.0605,-28.2755,66.3685,27,0.021,8220,3.6707,7.4103
lg,1625081282430050571,0,0.478,0.7727,0.4392,437,3.3569,-5.9814,-2.7466,91,1.3286,1.0605,-28.2696,66.3912,27,0.021,8278,3.6707,7.2319
lg,1625081282430092071,0,0.4668,0.7625,0.468,438,4.9438,-6.1035,-2.7466,91,1.3286,1.0605,-28.2416,66.4007,27,0.022,8293,3.6707,7.086
lg,1625081282430133626,0,0.4797,0.7827,0.4473,439,6.2866,-5.6763,-1.4038,91,1.3286,1.0605,-28.2714,66.5156,27,0.021,11478,3.6707,6.9478
lg,1625081282430175551,0,0.4719,0.7561,0.4583,440,6.5918,-5.6152,-1.0986,91,1.3276,1.0595,-28.316,66.5767,27,0.021,9207,3.6707,6.8473
lg,1625081282430217236,0,0.467,0.7671,0.4543,441,5.9204,-5.6152,-0.8545,91,1.3276,1.0595,-28.3412,66.6084,27,0.021,8320,3.6707,6.7516
lg,1625081282430259365,0,0.4639,0.761,0.4583,442,5.6763,-4.5776,-0.2441,91,1.3276,1.0605,-28.3771,66.6064,27,0.021,8291,3.6707,6.7094
lg,1625081282430299994,0,0.4412,0.7781,0.4607,443,6.1035,-5.7983,-0.061,91,1.3286,1.0605,-28.3746,66.6571,27,0.021,8346,3.6707,6.6133
lg,1625081282430340290,0,0.4529,0.7668,0.4609,444,5.7373,-7.3853,0,91,1.3276,1.0595,-28.4332,66.7093,27,0.021,8376,3.6707,6.4589
lg,1625081282430384141,0,0.4658,0.7671,0.4695,445,6.0425,-8.7891,0.1221,91,1.3276,1.0605,-28.5329,66.816,27,0.021,9612,3.6707,6.2063
lg,1625081282430427974,0,0.4746,0.7744,0.4753,446,6.5308,-9.7656,-0.4272,91,1.3286,1.0605,-28.6362,66.9265,27,0.022,8392,3.6707,5.9569
lg,1625081282430468955,0,0.489,0.792,0.4731,447,6.4697,-8.7891,-1.4648,91,1.3286,1.0605,-28.6939,67.048,27,0.021,8692,3.6707,5.7189
lg,1625081282430510029,0,0.4868,0.7793,0.4661,448,6.1646,-7.3853,-1.5869,91,1.3286,1.0605,-28.7336,67.1252,27,0.021,8506,3.6707,5.5402
lg,1625081282784110598,0,0.5105,0.7939,0.4695,449,3.8452,-3.7842,-1.8921,91,1.3286,1.0595,-28.6868,66.99,27,0.021,24462,3.6707,5.5618
lg,1625081282784188579,0,0.4998,0.7864,0.4729,450,3.418,-0.2441,-2.6855,91,1.3286,1.0595,-28.5675,66.8327,27,0.021,9441,3.6707,5.6592
lg,1625081282784294837,0,0.4951,0.7747,0.4819,451,1.5259,2.3193,-2.5635,91,1.3286,1.0595,-28.4398,66.5078,27,0.021,7878,3.6707,5.8845
lg,1625081282784345188,0,0.5146,0.7747,0.46,452,1.709,2.3804,-2.9907,91,1.3286,1.0595,-28.3462,66.2564,27,0.021,8209,3.6707,6.073
lg,1625081282784392354,0,0.5012,0.7886,0.4712,453,1.4648,7.1411,-4.2725,91,1.3286,1.0595,-28.0885,65.9144,27,0.02,11641,3.6707,6.4341
lg,1625081282785173512,0,0.4592,0.7847,0.47,454,-0.061,9.5825,-5.4932,91,1.3286,1.0595,-27.6776,65.4848,27,0.021,9877,3.6707,6.8657
lg,1625081282785239733,0,0.4617,0.7737,0.4863,455,1.1597,7.9346,-5.3101,91,1.3286,1.0595,-27.3223,65.1067,27,0.021,8953,3.6707,7.2417
lg,1625081282785293936,0,0.4631,0.7913,0.468,456,2.5024,7.5684,-5.0049,91,1.3296,1.0595,-26.9554,64.77,27,0.021,7981,3.6707,7.6785
lg,1625081282785344528,0,0.437,0.7827,0.4873,457,2.1973,9.2163,-4.2114,91,1.3286,1.0605,-26.5852,64.4424,27,0.021,8023,3.6707,8.1011
lg,1625081282785393491,0,0.4233,0.7808,0.4648,458,1.5869,8.2397,-4.8828,91,1.3286,1.0595,-26.2034,64.1756,27,0.02,8060,3.6707,8.4404
lg,1625081282785440527,0,0.4241,0.7737,0.4871,459,1.8311,6.5918,-3.9673,91,1.3286,1.0595,-25.8952,63.8964,27,0.021,8616,3.6707,8.7478
lg,1625081282785484878,0,0.4133,0.7717,0.4702,460,2.0142,4.9438,-3.1128,91,1.3286,1.0605,-25.644,63.692,27,0.02,8329,3.6707,8.9836
lg,1625081282785530785,0,0.3843,0.7695,0.4736,461,1.3428,2.3193,-1.0986,91,1.3286,1.0595,-25.4597,63.4855,27,0.02,11552,3.6707,9.154
lg,1625081282785573507,0,0.3767,0.7693,0.488,462,0.9155,0.6714,-0.3052,91,1.3286,1.0605,-25.3182,63.2599,27,0.019,8385,3.6707,9.2837
lg,1625081282785617525,0,0.3879,0.7534,0.4941,463,2.1973,-3.479,0.9155,91,1.3286,1.0605,-25.3337,63.1212,27,0.019,8047,3.6707,9.2833
lg,1625081282785981132,0,0.3958,0.7681,0.4937,464,2.7466,-6.7139,2.6855,91,1.3296,1.0605,-25.4742,63.0711,27,0.019,8563,3.6707,9.1788
lg,1625081282786052094,0,0.4182,0.772,0.4829,465,3.2959,-10.6201,2.2583,91,1.3296,1.0605,-25.7114,63.146,27,0.02,10100,3.6707,8.8974
lg,1625081282786100964,0,0.438,0.7769,0.4963,466,4.6387,-12.146,2.4414,91,1.3296,1.0605,-26.0503,63.3684,27,0.019,8355,3.6707,8.5164
lg,1625081282786153426,0,0.4622,0.7805,0.488,467,5.188,-11.2305,1.8921,91,1.3296,1.0605,-26.3594,63.5716,27,0.019,9428,3.6707,8.1868
lg,1625081282786203981,0,0.4851,0.8086,0.481,468,4.0894,-7.5073,1.0376,91,1.3296,1.0605,-26.5623,63.6743,27,0.02,8302,3.6707,7.989
lg,1625081282786416367,0,0.4614,0.7786,0.4819,469,2.9907,-4.0894,-0.4272,91,1.3296,1.0605,-26.625,63.6404,27,0.019,8348,3.6707,7.9201
lg,1625081282786462644,0,0.4563,0.7939,0.5061,470,3.0518,-2.3193,-1.4038,91,1.3296,1.0605,-26.5726,63.5122,27,0.019,8292,3.6707,7.9586
lg,1625081282786506236,0,0.4385,0.7671,0.498,471,2.8076,-1.77,-1.5869,91,1.3296,1.0605,-26.5101,63.3948,27,0.02,8326,3.6707,7.9799
lg,1625081282786554069,0,0.4333,0.7803,0.5042,472,2.7466,-1.9531,-3.1128,91,1.3296,1.0605,-26.3747,63.3005,27,0.02,8430,3.6707,7.9594
lg,1625081282786598365,0,0.4507,0.7646,0.4905,473,2.6245,-1.9531,-3.8452,91,1.3296,1.0605,-26.2727,63.2219,27,0.02,8414,3.6707,7.9174
lg,1625081282786643457,0,0.4509,0.7864,0.4805,474,2.8687,-2.4414,-4.5166,91,1.3296,1.0605,-26.1193,63.1949,27,0.02,8539,3.6707,7.8529
lg,1625081282786688271,0,0.4517,0.7861,0.4709,475,1.709,-1.9531,-4.6997,91,1.3296,1.0605,-25.9887,63.1602,27,0.02,8459,3.6707,7.7604
lg,1625081282786733919,0,0.4475,0.7825,0.4929,476,0.4883,-0.3662,-4.5166,91,1.3296,1.0605,-25.8268,62.9974,27,0.02,8502,3.6707,7.7562
lg,1625081282786781437,0,0.4348,0.7686,0.5125,477,-0.2441,-0.2441,-4.2114,91,1.3296,1.0605,-25.6581,62.7474,27,0.02,8409,3.6707,7.7851
lg,1625081282786828214,0,0.4397,0.7537,0.4963,478,-0.4883,-1.4038,-3.2959,91,1.3296,1.0605,-25.5491,62.5555,27,0.02,8458,3.6707,7.7692
lg,1625081282786937342,0,0.4312,0.759,0.5078,479,0.1221,-1.4648,-2.9907,91,1.3296,1.0615,-25.4596,62.3448,27,0.02,8521,3.6707,7.7663
lg,1625081282786987990,0,0.4329,0.7632,0.5007,480,0.6714,-3.2959,-3.1738,91,1.3296,1.0605,-25.4039,62.2176,27,0.02,8519,3.6707,7.6746
lg,1625081283132632584,0,0.4568,0.7764,0.4922,481,1.3428,-4.3335,-3.7842,91,1.3276,1.0605,-25.4017,62.1767,27,0.02,25338,3.6707,7.5068
lg,1625081283132725157,0,0.4705,0.7742,0.5061,482,1.1597,-3.2959,-4.2114,91,1.3296,1.0605,-25.33,62.0533,27,0.02,9055,3.6707,7.4276
lg,1625081283132776360,0,0.4741,0.7852,0.4895,483,1.4038,-1.2817,-4.2114,91,1.3296,1.0605,-25.2649,62.0036,27,0.02,8862,3.6707,7.3775
lg,1625081283132824286,0,0.4338,0.7837,0.4963,484,-0.4883,2.0752,-4.4556,91,1.3296,1.0605,-25.0589,61.8012,27,0.02,8019,3.6707,7.447
lg,1625081283132868989,0,0.4355,0.7615,0.4917,485,-0.7324,0.3662,-5.6152,91,1.3296,1.0605,-24.9093,61.634,27,0.02,12173,3.6707,7.47
lg,1625081283132912340,0,0.4382,0.7485,0.4944,486,0.7935,0.061,-5.4932,91,1.3296,1.0605,-24.7585,61.499,27,0.02,7985,3.6707,7.4486
lg,1625081283132956692,0,0.4321,0.7537,0.4951,487,0.7935,0.6714,-5.188,91,1.3296,1.0615,-24.5955,61.3617,27,0.02,7809,3.6707,7.4521
lg,1625081283133001247,0,0.4307,0.7927,0.4854,488,1.8921,0.4272,-5.3101,91,1.3296,1.0605,-24.408,61.3496,27,0.02,7826,3.6707,7.4106
lg,1625081283133044691,0,0.4241,0.7766,0.4878,489,2.1973,0,-5.0659,91,1.3296,1.0605,-24.2196,61.3184,27,0.02,7873,3.6707,7.3637
lg,1625081283133086098,0,0.4099,0.7678,0.5037,490,1.9531,0.6104,-5.5542,91,1.3296,1.0605,-24.005,61.2381,27,0.019,7954,3.6707,7.352
lg,1625081283133127449,0,0.3962,0.7632,0.5151,491,2.8076,0.4272,-6.5918,91,1.3296,1.0615,-23.7367,61.1758,27,0.019,8550,3.6707,7.322
lg,1625081283133168615,0,0.4009,0.7842,0.5156,492,4.3335,0.061,-8.3008,91,1.3296,1.0615,-23.4191,61.2239,27,0.019,8032,3.6707,7.2293
lg,1625081283133208893,0,0.4075,0.7876,0.5078,493,5.9204,-0.8545,-9.2773,91,1.3296,1.0615,-23.1114,61.3754,27,0.02,8018,3.6707,7.0734
lg,1625081283133251800,0,0.4072,0.7646,0.532,494,6.2866,-1.1597,-10.6812,91,1.3306,1.0615,-22.7793,61.4711,27,0.02,8019,3.6707,6.9108
lg,1625081283133295780,0,0.4285,0.7952,0.532,495,8.5449,-1.9531,-12.8174,91,1.3296,1.0615,-22.4187,61.722,27,0.02,8111,3.6707,6.6596
lg,1625081283133384039,0,0.4246,0.7961,0.5522,496,9.7046,-1.5869,-13.1836,91,1.3306,1.0615,-22.0347,61.9658,28,0.02,8128,3.6707,6.4347
lg,1625081283133432686,0,0.4365,0.8074,0.5518,497,11.1694,0.4272,-15.3809,91,1.3296,1.0615,-21.5651,62.2602,28,0.019,8134,3.6707,6.2414
lg,1625081283133476834,0,0.4519,0.823,0.5547,498,11.9019,3.6011,-16.7236,91,1.3296,1.0615,-21.0238,62.5504,28,0.019,8104,3.6707,6.1428
lg,1625081283133519926,0,0.4663,0.8213,0.5637,499,12.5732,5.188,-16.7236,91,1.3296,1.0615,-20.4992,62.8152,28,0.02,8211,3.6707,6.1166
lg,1625081283133562592,0,0.4978,0.8574,0.5393,500,13.4888,12.146,-16.7236,91,1.3306,1.0615,-19.9096,63.1029,27,0.02,8176,3.6707,6.3283
lg,1625081283133607129,0,0.4958,0.8845,0.5378,501,11.2915,21.6064,-15.625,91,1.3296,1.0615,-19.1901,63.1981,27,0.02,8245,3.6707,6.9131
lg,1625081283133650906,0,0.4749,0.8865,0.5105,502,7.3853,29.2969,-12.9395,91,1.3306,1.0615,-18.4286,63.0821,27,0.02,10363,3.6707,7.8193
lg,1625081283133693332,0,0.4487,0.9075,0.4636,503,1.0986,36.7432,-10.376,91,1.3296,1.0615,-17.6049,62.741,27,0.019,8281,3.6707,9.0079
lg,1625081283133734442,0,0.4297,0.9014,0.459,504,-2.9907,39.917,-8.667,91,1.3296,1.0615,-16.7674,62.2216,27,0.019,8278,3.6707,10.3308
lg,1625081283133776034,0,0.4099,0.8745,0.4766,505,-11.4136,42.9077,-6.5918,91,1.3296,1.0615,-15.9498,61.3121,27,0.019,8327,3.6707,11.796
lg,1625081283133817904,0,0.386,0.7476,0.5439,506,-20.5688,39.4287,-6.7139,91,1.3306,1.0625,-15.2146,59.8503,27,0.02,8341,3.6707,13.1738
lg,1625081283133859774,0,0.3931,0.3159,0.801,507,-34.8511,25.2686,-14.5874,91,1.3306,1.0615,-14.668,56.968,27,0.02,12679,3.6707,14.1194
lg,1625081283133902570,0,0.2722,0.3115,0.7947,508,11.6577,32.1045,-6.6528,91,1.3296,1.0615,-13.9594,55.8848,27,0.02,8492,3.6707,15.4121
lg,1625081283133944829,0,0.2686,0.9761,0.2815,509,57.4951,30.7617,12.0239,91,1.3296,1.0615,-13.7549,58.5487,27,0.02,8426,3.6707,16.578
lg,1625081283133986476,0,0.3279,1.1836,0.071,510,41.0156,24.1699,14.5264,91,1.3306,1.0615,-14.0336,59.6171,27,0.02,8547,3.6707,17.1845
lg,1625081283134059587,0,0.396,1.0034,0.25,511,-33.5083,13.6108,4.5776,91,1.3296,1.0615,-14.0239,57.1887,27,0.02,9958,3.6707,17.6475
lg,1625081283134105271,0,0.2935,0.5449,0.6855,512,-54.2603,11.5967,-2.9297,91,1.3296,1.0625,-13.867,54.2171,27,0.019,8590,3.6707,18.1585
lg,1625081283500562684,0,0.4602,0.853,0.4739,513,6.1646,-8.606,5.188,99,1.3296,1.0615,-14.6825,54.7407,28,0.02,25733,3.6718,17.9346
lg,1625081283500654386,0,0.4114,0.7512,0.5891,514,-4.6387,8.1787,3.9062,99,1.3286,1.0625,-14.9595,54.3405,28,0.02,8773,3.6718,18.3371
lg,1625081283500707719,0,0.2688,0.6946,0.6506,515,9.7656,10.8643,6.7139,99,1.3296,1.0625,-14.9596,54.2869,28,0.02,11008,3.6718,18.9448
lg,1625081283500759811,0,0.2883,0.7646,0.5681,516,22.1558,-1.9531,10.7422,99,1.3296,1.0625,-15.4258,55.0729,27,0.019,10688,3.6718,19.1472
lg,1625081283500809329,0,0.3572,0.7498,0.5457,517,21.4844,-6.5918,12.207,99,1.3296,1.0625,-16.1955,55.858,27,0.02,8019,3.6718,19.2215
lg,1625081283500858791,0,0.3491,0.7593,0.5554,518,19.8364,-3.9673,13.3057,99,1.3306,1.0625,-16.8184,56.5298,27,0.019,8144,3.6718,19.4807
lg,1625081283500906976,0,0.3005,0.7737,0.5303,519,20.9351,-4.0283,15.7471,99,1.3296,1.0625,-17.4143,57.2555,27,0.02,9641,3.6718,19.711
lg,1625081283500955716,0,0.2739,0.7979,0.5024,520,16.2964,-8.728,18.4937,99,1.3296,1.0625,-18.1715,57.8814,27,0.019,8011,3.6718,19.8133
lg,1625081283501000234,0,0.2896,0.752,0.5049,521,10.6201,-11.5356,21.5454,99,1.3296,1.0625,-19.1225,58.1995,27,0.02,8577,3.6718,19.9049
lg,1625081283501046697,0,0.2766,0.8118,0.4717,522,9.5825,-13.916,24.7192,99,1.3306,1.0625,-20.1413,58.6187,27,0.019,8725,3.6718,19.9306
lg,1625081283501092622,0,0.2905,0.8057,0.51,523,4.1504,-18.1885,23.8037,99,1.3306,1.0625,-21.1974,58.7796,27,0.019,8085,3.6718,19.8091
lg,1625081283501135881,0,0.3296,0.7664,0.6038,524,4.2725,-26.001,22.4609,99,1.3306,1.0625,-22.3996,58.8226,28,0.019,8107,3.6718,19.4557
lg,1625081283501178954,0,0.3567,0.7832,0.6274,525,11.1694,-33.3252,21.4233,99,1.3296,1.0625,-23.7032,59.2483,28,0.019,8163,3.6718,18.8101
lg,1625081283501277509,0,0.3943,0.7815,0.6047,526,12.8174,-35.0952,21.4233,99,1.3306,1.0625,-25.0702,59.8154,28,0.02,8162,3.6718,18.0734
lg,1625081283501332508,0,0.4463,0.8032,0.6201,527,15.1367,-32.5317,22.9492,99,1.3296,1.0625,-26.4567,60.4279,28,0.019,8225,3.6718,17.4577
lg,1625081283501386989,0,0.4561,0.7898,0.593,528,17.8833,-27.6489,24.4751,99,1.3286,1.0625,-27.7805,61.0801,28,0.02,8190,3.6718,17.0452
lg,1625081283501431285,0,0.4397,0.8179,0.5503,529,17.7612,-20.874,26.4893,99,1.3306,1.0625,-28.9545,61.6889,28,0.02,8639,3.6718,16.8883
lg,1625081283501476488,0,0.4441,0.8101,0.5291,530,13.1836,-18.4326,27.5269,99,1.3306,1.0625,-30.0947,62.0733,28,0.02,8216,3.6718,16.8377
lg,1625081283501519877,0,0.438,0.7961,0.5168,531,11.1694,-19.8975,27.71,99,1.3306,1.0625,-31.2111,62.3056,27,0.02,8351,3.6718,16.7503
lg,1625081283501564543,0,0.4253,0.7712,0.5168,532,6.2256,-18.9819,27.1606,99,1.3306,1.0625,-32.2586,62.3824,27,0.02,8319,3.6718,16.6905
lg,1625081283501607839,0,0.4214,0.7498,0.5137,533,1.3428,-18.4937,26.9775,99,1.3306,1.0625,-33.2612,62.2286,27,0.02,8304,3.6718,16.666
lg,1625081283501651412,0,0.4094,0.7498,0.4858,534,-1.3428,-17.1509,27.1606,99,1.3306,1.0625,-34.1931,62.0009,27,0.02,8818,3.6718,16.6735
lg,1625081283501697078,0,0.4172,0.7456,0.491,535,-2.3804,-17.334,27.0996,99,1.3306,1.0635,-35.0966,61.5865,27,0.02,8794,3.6718,16.7242
lg,1625081283501740448,0,0.4143,0.7375,0.5034,536,-5.3101,-17.5171,26.4282,99,1.3306,1.0625,-35.9508,61.1762,27,0.02,8428,3.6718,16.7428
lg,1625081283501782985,0,0.416,0.7349,0.5066,537,-5.4321,-16.9678,24.231,99,1.3306,1.0625,-36.6888,60.7781,27,0.02,8410,3.6718,16.7432
lg,1625081283501825132,0,0.4141,0.7175,0.4951,538,-7.6904,-20.5688,21.3623,99,1.3296,1.0625,-37.3844,60.439,28,0.02,9718,3.6718,16.5176
lg,1625081283501867076,0,0.3972,0.637,0.5371,539,-7.0801,-19.165,18.4937,99,1.3306,1.0625,-37.9462,59.8943,28,0.019,8526,3.6718,16.4354
lg,1625081283501909872,0,0.4072,0.6582,0.5083,540,2.1973,-20.6909,15.8081,99,1.3296,1.0635,-38.4388,59.937,28,0.02,8518,3.6718,16.1445
lg,1625081283502431792,0,0.4023,0.6804,0.4956,541,4.6997,-21.8506,14.5874,99,1.3306,1.0625,-38.8671,60.2056,28,0.02,8583,3.6718,15.7254
lg,1625081283502492921,0,0.426,0.7012,0.4802,542,4.5166,-21.3623,11.4136,99,1.3306,1.0635,-39.1955,60.5777,27,0.02,8581,3.6718,15.1994
lg,1625081283502542680,0,0.4429,0.6499,0.5188,543,5.8594,-21.5454,5.6763,99,1.3306,1.0635,-39.3793,60.905,27,0.02,8622,3.6718,14.6423
lg,1625081283502591365,0,0.4524,0.6677,0.5251,544,14.4653,-20.2637,0.3052,99,1.3306,1.0625,-39.3389,61.6325,27,0.02,8608,3.6718,14.003
lg,1625081283871718469,0,0.4841,0.6995,0.5107,545,20.5688,-10.8032,-8.5449,99,1.3286,1.0625,-38.8444,62.5295,27,0.02,24797,3.6718,13.5393
lg,1625081283871783672,0,0.4473,0.6812,0.5227,546,23.4375,-4.4556,-11.9629,99,1.3296,1.0635,-38.0686,63.2966,27,0.02,9498,3.6718,13.3568
lg,1625081283871805061,0,0.4221,0.7241,0.5046,547,25.6348,-2.9297,-16.9067,99,1.3306,1.0625,-37.0318,64.2434,28,0.019,11590,3.6718,13.0924
lg,1625081283871824135,0,0.4204,0.7305,0.511,548,25.7568,-2.9907,-18.0664,99,1.3296,1.0625,-35.9794,65.1516,28,0.019,7958,3.6718,12.8384
lg,1625081283871842153,0,0.4192,0.7456,0.5029,549,26.3672,-4.6387,-19.6533,99,1.3306,1.0625,-34.9198,66.1344,28,0.02,10287,3.6718,12.4869
lg,1625081283871859301,0,0.4326,0.7847,0.5071,550,26.1841,-5.6763,-21.3623,99,1.3306,1.0635,-33.8667,67.1499,28,0.02,10309,3.6718,12.0618
lg,1625081283871876078,0,0.4619,0.8069,0.5186,551,26.4282,-5.6152,-21.3623,99,1.3296,1.0625,-32.8542,68.1168,27,0.02,7985,3.6718,11.6747
lg,1625081283871892634,0,0.4844,0.8159,0.5168,552,25.0244,-4.2725,-21.4233,99,1.3306,1.0625,-31.8891,68.9604,27,0.02,8014,3.6718,11.3678
lg,1625081283871908930,0,0.4749,0.822,0.5415,553,25.2075,-2.2583,-20.874,99,1.3296,1.0625,-30.9417,69.6855,27,0.02,8063,3.6718,11.1999
lg,1625081283871925985,0,0.4683,0.8093,0.5396,554,22.0947,2.5024,-19.7754,99,1.3296,1.0635,-29.9847,70.1046,28,0.02,8104,3.6718,11.2908
lg,1625081283871943504,0,0.4451,0.8088,0.54,555,21.4233,4.3335,-18.1885,99,1.3296,1.0625,-29.0568,70.4207,28,0.02,10735,3.6718,11.4938
lg,1625081283872016910,0,0.4341,0.8477,0.5166,556,20.813,4.1504,-15.9302,99,1.3306,1.0635,-28.2054,70.7796,28,0.02,8565,3.6718,11.6794
lg,1625081283872038151,0,0.4473,0.8501,0.5269,557,18.8599,1.5869,-14.4043,99,1.3306,1.0635,-27.4989,71.0722,28,0.02,8064,3.6718,11.7878
lg,1625081283872055891,0,0.4514,0.8474,0.5247,558,18.4937,0.1831,-13.4888,99,1.3306,1.0635,-26.8833,71.3619,27,0.019,8089,3.6718,11.8507
lg,1625081283872072595,0,0.4546,0.8496,0.5215,559,15.1978,-1.6479,-11.4746,99,1.3306,1.0635,-26.396,71.5394,27,0.02,8082,3.6718,11.8619
lg,1625081283872089724,0,0.4592,0.8542,0.512,560,12.146,-1.5259,-9.5215,99,1.3306,1.0635,-26.0074,71.598,27,0.019,8154,3.6718,11.8943
lg,1625081283872106483,0,0.4805,0.8469,0.5142,561,9.9487,-1.9531,-8.8501,99,1.3306,1.0635,-25.7099,71.5623,27,0.019,8146,3.6718,11.9196
lg,1625081283872123946,0,0.4795,0.8481,0.5049,562,6.0425,-0.6714,-6.7139,99,1.3306,1.0635,-25.4885,71.3554,28,0.019,8520,3.6718,12.0165
lg,1625081283872141353,0,0.4814,0.8337,0.5061,563,3.2959,-0.4272,-5.249,99,1.3306,1.0635,-25.3435,71.0165,28,0.019,8215,3.6718,12.1454
lg,1625081283872157760,0,0.4783,0.8381,0.4912,564,1.0986,0.2441,-4.6997,99,1.3306,1.0635,-25.2782,70.5451,28,0.02,8212,3.6718,12.3235
lg,1625081283872175612,0,0.4861,0.8315,0.4556,565,-3.2959,1.5259,-2.5024,99,1.3306,1.0635,-25.2443,70.025,28,0.019,8250,3.6718,12.5127
lg,1625081283872192427,0,0.4683,0.8115,0.4722,566,-8.2397,5.0049,-0.8545,99,1.3306,1.0635,-25.2021,69.1968,27,0.02,8266,3.6718,12.8865
lg,1625081283872209278,0,0.457,0.7712,0.4944,567,-10.9253,8.1177,0.6714,99,1.3306,1.0635,-25.1751,68.1342,27,0.019,8267,3.6718,13.4379
lg,1625081283872226111,0,0.4321,0.7727,0.499,568,-11.2915,9.4604,2.4414,99,1.3306,1.0635,-25.1325,67.0512,27,0.019,8302,3.6718,14.0586
lg,1625081283872242463,0,0.4014,0.7478,0.4836,569,-10.0708,8.728,6.2256,99,1.3306,1.0635,-25.196,66.0402,27,0.019,8391,3.6718,14.6974
lg,1625081283872259093,0,0.363,0.7583,0.4995,570,-7.019,2.9297,9.7046,99,1.3306,1.0635,-25.3729,65.2363,27,0.019,8348,3.6718,15.1607
lg,1625081283872291722,0,0.3677,0.7585,0.4878,571,-6.2866,1.2817,11.4746,99,1.3306,1.0635,-25.7206,64.5795,27,0.019,8376,3.6718,15.4937
lg,1625081283872310796,0,0.3513,0.7495,0.4751,572,-4.0894,-3.1738,14.3433,99,1.3306,1.0635,-26.1291,64.0509,27,0.019,8444,3.6718,15.7708
lg,1625081283872327999,0,0.3376,0.7615,0.4924,573,-1.3428,-11.1694,16.6626,99,1.3306,1.0635,-26.6968,63.7484,27,0.018,8437,3.6718,15.7802
lg,1625081283872345592,0,0.3896,0.7581,0.4875,574,2.8687,-21.7285,18.4326,99,1.3296,1.0635,-27.6061,63.8154,27,0.019,8569,3.6718,15.3924
lg,1625081283872363369,0,0.4766,0.7712,0.5132,575,7.6294,-26.9775,18.0664,99,1.3296,1.0635,-28.7096,64.1566,27,0.018,10249,3.6718,14.7932
lg,1625081283872380036,0,0.5239,0.7769,0.4973,576,8.1177,-20.0806,16.9067,99,1.3296,1.0635,-29.6983,64.438,27,0.018,8532,3.6718,14.433
lg,1625081284218736897,0,0.4441,0.7444,0.4766,577,10.5591,-3.7842,18.9819,99,1.3296,1.0635,-30.3284,64.4442,28,0.018,24290,3.6718,14.8026
lg,1625081284218806526,0,0.4216,0.7754,0.4226,578,12.9395,0.061,19.7144,99,1.3256,1.0625,-30.843,64.6159,28,0.018,9189,3.6718,15.2689
lg,1625081284218826822,0,0.3762,0.8223,0.3867,579,11.5967,-0.061,19.7144,99,1.3296,1.0635,-31.2196,64.8692,27,0.019,8113,3.6718,15.6607
lg,1625081284218847081,0,0.3557,0.7935,0.4121,580,4.3945,-7.0801,18.7378,99,1.3296,1.0635,-31.6346,64.8905,27,0.019,11592,3.6718,15.7898
lg,1625081284218865378,0,0.3567,0.6941,0.5061,581,3.8452,-12.4512,17.7002,99,1.3296,1.0605,-32.1385,64.6485,27,0.018,8098,3.6718,15.8672
lg,1625081284218883859,0,0.3672,0.6909,0.5547,582,14.8315,-20.874,18.6768,99,1.3296,1.0635,-32.81,64.9251,27,0.018,10607,3.6718,15.6624
lg,1625081284218901655,0,0.4607,0.7432,0.5215,583,23.5596,-26.3672,19.4092,99,1.3296,1.0635,-33.7261,65.8452,27,0.018,8029,3.6718,15.1366
lg,1625081284218920358,0,0.5063,0.7729,0.5068,584,25.8789,-26.062,20.0195,99,1.3296,1.0635,-34.674,67.0966,27,0.018,8082,3.6718,14.4831
lg,1625081284218940655,0,0.4841,0.9863,0.4014,585,33.9966,-13.5498,24.292,99,1.3296,1.0635,-35.3626,68.5622,27,0.018,8077,3.6718,14.3088
lg,1625081284219033913,0,0.5491,0.9487,0.3977,586,13.4277,-14.7095,22.8271,99,1.3296,1.0635,-36.1265,69.1821,27,0.019,8109,3.6718,14.0772
lg,1625081284219055727,0,0.5386,0.71,0.5757,587,4.9438,-5.6152,19.165,99,1.3296,1.0635,-36.7467,68.5492,27,0.018,8468,3.6718,14.6186
lg,1625081284219075079,0,0.4785,0.7507,0.5427,588,17.8223,2.7466,19.7754,99,1.3296,1.0645,-36.9806,68.6528,27,0.018,8173,3.6718,15.2934
lg,1625081284219092523,0,0.4341,0.9106,0.3965,589,26.3062,3.3569,21.7896,99,1.3296,1.0635,-37.2127,69.2512,27,0.018,8303,3.6718,15.9139
lg,1625081284219110653,0,0.4084,0.936,0.3721,590,15.0146,4.6387,22.583,99,1.3296,1.0645,-37.3904,69.413,28,0.018,8301,3.6718,16.5674
lg,1625081284219131430,0,0.4065,0.7805,0.4905,591,7.1411,1.5869,19.5923,99,1.3296,1.0635,-37.5338,68.8558,28,0.018,8189,3.6718,17.0655
lg,1625081284219150634,0,0.4431,0.5818,0.6123,592,8.3008,-12.085,11.7798,99,1.3296,1.0645,-37.8667,68.2955,28,0.018,10305,3.6718,17.3877
lg,1625081284219170041,0,0.4534,0.5576,0.6396,593,16.1133,-13.3057,9.4604,99,1.3306,1.0645,-38.1575,68.033,28,0.018,8282,3.6718,17.6654
lg,1625081284219192059,0,0.47,0.5364,0.6299,594,31.1279,-12.146,6.2256,99,1.3306,1.0635,-38.3636,68.372,27,0.019,8318,3.6718,17.9442
lg,1625081284219208837,0,0.4675,0.5598,0.5896,595,40.1611,-8.3008,4.4556,99,1.3296,1.0635,-38.3704,69.214,27,0.019,8390,3.6718,18.2281
lg,1625081284219227596,0,0.4475,0.6201,0.5522,596,43.8232,-5.6152,2.3804,99,1.3306,1.0635,-38.22,70.1723,27,0.019,8695,3.6718,18.5845
lg,1625081284219248114,0,0.45,0.6414,0.5054,597,41.687,-5.3711,-0.9155,99,1.3306,1.0635,-37.9471,71.1843,28,0.019,8368,3.6718,18.8241
lg,1625081284219293688,0,0.416,0.6587,0.4885,598,34.8511,-7.2632,-5.5542,99,1.3306,1.0635,-37.4487,72.0405,28,0.019,8332,3.6718,18.8859
lg,1625081284219315558,0,0.4021,0.6372,0.5132,599,31.5552,-9.2163,-7.3242,99,1.3306,1.0635,-36.8559,72.6533,28,0.019,8431,3.6718,18.7671
lg,1625081284219344632,0,0.4036,0.6636,0.5222,600,27.0996,-14.2822,-10.7422,99,1.3306,1.0635,-36.2437,73.3044,28,0.019,8454,3.6718,18.4932
lg,1625081284219399761,0,0.4365,0.7429,0.4683,601,24.7192,-20.874,-12.3291,99,1.3306,1.0645,-35.6449,74.3964,27,0.019,10804,3.6718,17.6789
lg,1625081284219420168,0,0.4771,0.8323,0.4397,602,16.4185,-23.7427,-14.2822,99,1.3306,1.0645,-35.0166,75.2622,27,0.019,9132,3.6718,16.6945
lg,1625081284219437279,0,0.5349,0.843,0.4541,603,5.127,-21.5454,-16.5405,99,1.3306,1.0635,-34.3881,75.5755,27,0.019,8575,3.6718,15.8162
lg,1625081284219455112,0,0.5261,0.8235,0.501,604,-1.8311,-15.3809,-18.3716,99,1.3306,1.0645,-33.6461,75.3113,28,0.019,8566,3.6718,15.2841
lg,1625081284219474167,0,0.5093,0.835,0.4978,605,-3.3569,-13.4888,-18.8599,99,1.3306,1.0645,-32.8563,74.9596,28,0.019,8559,3.6718,14.813
lg,1625081284219494371,0,0.5112,0.8394,0.5012,606,-5.3101,-12.5122,-18.8599,99,1.3306,1.0645,-32.0925,74.5509,28,0.018,8603,3.6718,14.3508
lg,1625081284219515093,0,0.4946,0.8342,0.4995,607,-7.0801,-10.376,-19.2261,99,1.3306,1.0645,-31.2952,73.9908,28,0.018,8754,3.6718,13.9864
lg,1625081284219533611,0,0.4697,0.811,0.5093,608,-7.2632,-9.0942,-19.4092,99,1.3306,1.0645,-30.4841,73.3622,27,0.018,8681,3.6718,13.6809
lg,1625081284575220338,0,0.4966,0.8027,0.4844,609,-0.7935,-15.4419,-17.334,99,1.3296,1.0635,-29.9223,73.1929,27,0.018,25716,3.6718,13.0722
lg,1625081284575312096,0,0.4841,0.7903,0.4812,610,-0.3662,-15.0757,-15.625,99,1.3286,1.0635,-29.4347,73.0118,27,0.019,9683,3.6718,12.5007
lg,1625081284575363281,0,0.4697,0.7959,0.4756,611,-1.1597,-14.4043,-14.8315,99,1.3296,1.0635,-28.9586,72.7967,27,0.018,7995,3.6718,11.9548
lg,1625081284575409762,0,0.4814,0.7427,0.4851,612,-0.3052,-17.8223,-13.2446,99,1.3296,1.0635,-28.677,72.6027,27,0.019,11625,3.6718,11.3122
lg,1625081284575455409,0,0.4834,0.7773,0.4324,613,2.0752,-19.165,-11.9629,99,1.3296,1.0635,-28.4561,72.6849,28,0.019,8010,3.6718,10.5473
lg,1625081284575501575,0,0.467,0.7812,0.4202,614,0.3662,-17.8833,-11.7188,99,1.3296,1.0645,-28.2051,72.6926,28,0.018,7903,3.6718,9.8295
lg,1625081284575546834,0,0.4626,0.7883,0.4092,615,-5.188,-16.9678,-11.9019,99,1.3296,1.0645,-27.9347,72.4891,28,0.019,8205,3.6718,9.1333
lg,1625081284575633648,0,0.4502,0.7942,0.4238,616,-7.2632,-18.1274,-13.0005,99,1.3296,1.0635,-27.6144,72.2082,28,0.018,8048,3.6718,8.381
lg,1625081284575681333,0,0.4644,0.8259,0.4165,617,-6.958,-19.8975,-13.4888,99,1.3306,1.0635,-27.317,72.0741,27,0.018,9536,3.6718,7.4508
lg,1625081284575726018,0,0.4912,0.834,0.4011,618,-7.5684,-21.9116,-15.1978,99,1.3306,1.0645,-27.0383,71.9157,27,0.019,8398,3.6718,6.4755
lg,1625081284575767573,0,0.5334,0.8711,0.3882,619,-11.2915,-18.2495,-16.3574,99,1.3296,1.0645,-26.7298,71.6739,27,0.018,8009,3.6718,5.583
lg,1625081284575811535,0,0.5391,0.8564,0.4045,620,-14.1602,-12.8784,-17.5781,99,1.3296,1.0645,-26.344,71.18,27,0.017,8079,3.6718,4.9178
lg,1625081284575853905,0,0.5408,0.8594,0.4011,621,-14.6484,-10.2539,-17.7612,99,1.3296,1.0645,-25.9088,70.5119,27,0.018,8105,3.6718,4.5388
lg,1625081284575895608,0,0.5317,0.8503,0.397,622,-15.9912,-1.5259,-18.0054,99,1.3296,1.0645,-25.3965,69.7897,27,0.018,8105,3.6718,4.3079
lg,1625081284575936756,0,0.47,0.8079,0.4277,623,-14.4043,3.7231,-16.6016,99,1.3296,1.0645,-24.7994,68.9432,27,0.018,9858,3.6718,4.3427
lg,1625081284575980070,0,0.4187,0.7878,0.438,624,-11.4136,5.188,-14.2822,92,1.3296,1.0645,-24.2021,68.1624,27,0.018,8192,3.6707,4.4679
lg,1625081284576021570,0,0.3782,0.7666,0.4709,625,-8.7891,4.3945,-13.3057,92,1.3296,1.0645,-23.6523,67.5664,27,0.018,8198,3.6707,4.4865
lg,1625081284576064366,0,0.3572,0.7625,0.4897,626,-2.9297,-3.1738,-11.6577,92,1.3306,1.0645,-23.1956,67.1513,27,0.018,8146,3.6707,4.3363
lg,1625081284576105625,0,0.4067,0.7581,0.5042,627,5.127,-14.0381,-9.5215,92,1.3296,1.0645,-23.106,67.2035,27,0.018,8223,3.6707,3.7864
lg,1625081284576147958,0,0.4758,0.7939,0.4778,628,11.4136,-19.5312,-8.5449,92,1.3306,1.0645,-23.2533,67.6943,27,0.017,10750,3.6707,2.9889
lg,1625081284576189457,0,0.4985,0.7996,0.4717,629,13.4277,-17.395,-8.1787,92,1.3306,1.0645,-23.4107,68.2346,27,0.019,8400,3.6707,2.2824
lg,1625081284576230086,0,0.5183,0.7988,0.4658,630,12.5122,-13.9771,-8.1177,92,1.3296,1.0645,-23.5424,68.6304,27,0.018,8335,3.6707,1.8229
lg,1625081284576305049,0,0.519,0.8101,0.4539,631,12.6343,-8.7891,-7.2632,92,1.3296,1.0645,-23.6256,69.0112,27,0.019,8340,3.6707,1.4767
lg,1625081284576353011,0,0.5144,0.8,0.4412,632,9.6436,-2.1362,-7.1411,92,1.3296,1.0645,-23.6211,69.1634,28,0.019,8295,3.6707,1.4054
lg,1625081284576395066,0,0.4734,0.7913,0.4392,633,5.0049,1.9531,-8.5449,92,1.3306,1.0645,-23.4373,69.0551,28,0.019,8371,3.6707,1.4868
lg,1625081284576438436,0,0.4612,0.7891,0.4553,634,4.2725,2.3193,-8.8501,92,1.3296,1.0645,-23.216,68.8799,28,0.019,8544,3.6707,1.59
lg,1625081284576479343,0,0.4492,0.7688,0.4517,635,1.5259,4.0283,-9.9487,92,1.3306,1.0645,-22.9341,68.5652,28,0.019,8431,3.6707,1.7466
lg,1625081284576521157,0,0.4551,0.7947,0.4468,636,0.1831,2.6855,-10.498,92,1.3306,1.0645,-22.6512,68.2757,27,0.018,8458,3.6707,1.815
lg,1625081284576562898,0,0.46,0.7842,0.4539,637,0.061,2.1973,-9.5825,92,1.3306,1.0645,-22.437,67.9693,27,0.019,8410,3.6707,1.8805
lg,1625081284576603527,0,0.4595,0.7832,0.469,638,-1.2817,4.6997,-9.4604,92,1.3306,1.0645,-22.1918,67.5504,27,0.018,8401,3.6707,2.0527
lg,1625081284576644915,0,0.436,0.7939,0.4822,639,-0.6104,7.0801,-7.7515,92,1.3306,1.0645,-21.9205,67.1118,27,0.019,8486,3.6707,2.3435
lg,1625081284576684822,0,0.4316,0.813,0.4705,640,0.3052,8.5449,-6.4087,92,1.3306,1.0645,-21.6641,66.7447,27,0.02,8445,3.6707,2.6863
lg,1625081284948715321,0,0.407,0.8049,0.4626,641,1.2207,8.3008,-3.6621,92,1.3306,1.0645,-21.4801,66.4215,27,0.019,24397,3.6707,3.0547
lg,1625081284948799321,0,0.4041,0.8,0.4763,642,2.1362,7.2021,-3.1738,92,1.3296,1.0635,-21.3299,66.1274,27,0.019,9591,3.6707,3.3935
lg,1625081284948851376,0,0.4092,0.8003,0.468,643,3.9062,4.9438,-2.0752,92,1.3306,1.0645,-21.274,65.9599,27,0.019,10526,3.6707,3.6497
lg,1625081284948898875,0,0.4231,0.8176,0.469,644,3.8452,6.1035,-1.0376,92,1.3306,1.0645,-21.224,65.7668,27,0.019,8750,3.6707,3.9687
lg,1625081284948986745,0,0.4309,0.8127,0.4741,645,4.4556,6.0425,0,92,1.3306,1.0645,-21.2598,65.6106,28,0.019,8462,3.6707,4.2965
lg,1625081284949038059,0,0.3945,0.8071,0.4727,646,5.249,6.8359,1.1597,92,1.3306,1.0645,-21.2539,65.4669,28,0.019,9365,3.6707,4.6756
lg,1625081284949084762,0,0.3782,0.8164,0.4897,647,5.249,6.4697,2.1973,92,1.3306,1.0635,-21.2441,65.3014,28,0.02,8001,3.6707,5.0658
lg,1625081284949128576,0,0.3977,0.8118,0.4827,648,5.9814,4.4556,2.6855,92,1.3306,1.0645,-21.331,65.2077,28,0.02,7985,3.6707,5.3798
lg,1625081284949171206,0,0.3674,0.8232,0.4788,649,5.5542,5.127,4.1504,92,1.3306,1.0645,-21.3863,65.1001,27,0.02,8443,3.6707,5.7383
lg,1625081284949213520,0,0.354,0.8179,0.4563,650,5.127,1.6479,4.9438,92,1.3306,1.0645,-21.5089,65.0638,27,0.019,8379,3.6707,5.9593
lg,1625081284949256982,0,0.3555,0.8174,0.4666,651,4.6997,0.061,4.3335,92,1.3306,1.0645,-21.6481,64.9637,27,0.019,8174,3.6707,6.1445
lg,1625081284949299260,0,0.3557,0.8181,0.4573,652,3.1128,0.4883,5.0049,92,1.3306,1.0645,-21.7845,64.8658,27,0.019,8058,3.6707,6.3215
lg,1625081284949342482,0,0.3423,0.7847,0.4607,653,4.0894,-1.8311,5.7373,92,1.3306,1.0645,-21.9755,64.7902,28,0.019,8082,3.6707,6.4388
lg,1625081284949387092,0,0.3499,0.7695,0.457,654,3.2959,-2.5635,5.8594,92,1.3306,1.0645,-22.2218,64.7405,28,0.019,8137,3.6707,6.4636
lg,1625081284949431592,0,0.3501,0.7727,0.4492,655,3.7842,-4.2114,5.6152,92,1.3306,1.0645,-22.4614,64.7036,28,0.019,8126,3.6707,6.4819
lg,1625081284949474832,0,0.3481,0.7632,0.4646,656,3.7231,-3.8452,5.249,92,1.3306,1.0645,-22.6697,64.6163,28,0.019,8205,3.6707,6.5262
lg,1625081284949517295,0,0.353,0.7551,0.4722,657,4.8218,-3.6011,4.8218,92,1.3306,1.0645,-22.8644,64.5487,28,0.019,8192,3.6707,6.5825
lg,1625081284949561627,0,0.343,0.7629,0.4683,658,7.3242,-4.5166,4.6387,92,1.3306,1.0645,-23.0336,64.6168,28,0.018,8272,3.6707,6.5923
lg,1625081284949607312,0,0.3579,0.748,0.4807,659,10.9863,-7.2021,3.8452,92,1.3306,1.0645,-23.2529,64.8305,28,0.018,8301,3.6707,6.5008
lg,1625081284949653775,0,0.3635,0.7388,0.4875,660,15.2588,-9.2773,1.4038,92,1.3306,1.0645,-23.4268,65.2308,27,0.018,8292,3.6707,6.2961
lg,1625081284949697126,0,0.3586,0.72,0.5054,661,18.2495,-10.3149,0.6714,92,1.3306,1.0645,-23.6271,65.8096,27,0.018,8382,3.6707,5.9832
lg,1625081284949741848,0,0.385,0.7458,0.4946,662,22.0947,-11.9019,-0.9766,92,1.3306,1.0645,-23.7757,66.5042,27,0.018,8346,3.6707,5.6454
lg,1625081284949788236,0,0.4272,0.7681,0.4827,663,23.6206,-10.5591,-2.9907,92,1.3306,1.0635,-23.8442,67.2966,27,0.017,12022,3.6707,5.3359
lg,1625081284949830865,0,0.4229,0.7773,0.4712,664,23.6816,-8.4839,-4.6997,92,1.3306,1.0645,-23.8477,68.0638,28,0.019,8479,3.6707,5.0564
lg,1625081284949878087,0,0.4304,0.7827,0.4634,665,21.6675,-5.4932,-6.0425,92,1.3306,1.0645,-23.7681,68.7039,28,0.019,10487,3.6707,4.8804
lg,1625081284949921716,0,0.4277,0.8071,0.4617,666,19.165,-2.6855,-7.2021,92,1.3306,1.0645,-23.5807,69.2106,28,0.019,8464,3.6707,4.7999
lg,1625081284949969345,0,0.4514,0.835,0.4429,667,16.2964,0.6104,-8.7891,92,1.3306,1.0645,-23.324,69.6108,27,0.019,8464,3.6707,4.8098
lg,1625081284950069418,0,0.4543,0.8149,0.4866,668,14.3433,2.6245,-9.2773,92,1.3306,1.0645,-23.0164,69.7319,27,0.018,8482,3.6707,5.0015
lg,1625081284950118010,0,0.4458,0.8186,0.4688,669,13.0615,5.7983,-9.2163,92,1.3306,1.0645,-22.6886,69.8433,27,0.019,8607,3.6707,5.2477
lg,1625081284950160066,0,0.4426,0.8167,0.4783,670,12.207,9.5215,-8.7891,92,1.3306,1.0645,-22.3329,69.8216,27,0.018,8965,3.6707,5.6651
lg,1625081284950200732,0,0.4102,0.8145,0.4644,671,11.7188,10.7422,-6.8359,92,1.3306,1.0645,-21.9891,69.7758,27,0.019,8625,3.6707,6.1487
lg,1625081284950243324,0,0.3877,0.7976,0.4734,672,13.3667,11.4746,-5.3711,92,1.3306,1.0645,-21.6684,69.7403,27,0.018,8711,3.6707,6.6947
lg,1625081285340663295,0,0.3853,0.7925,0.4736,673,15.3809,3.2349,-0.3662,92,1.3306,1.0645,-21.6594,69.8771,27,0.018,24575,3.6707,6.9805
lg,1625081285340747517,0,0.3589,0.7676,0.4998,674,15.686,-0.1831,1.1597,92,1.3306,1.0645,-21.7115,69.974,27,0.018,9548,3.6707,7.1853
lg,1625081285340798961,0,0.3933,0.7666,0.4915,675,19.043,-5.249,2.7466,92,1.3306,1.0645,-21.9661,70.2914,27,0.018,7984,3.6707,7.201
lg,1625081285340848997,0,0.446,0.8162,0.4727,676,20.9961,-7.9346,2.6245,92,1.3296,1.0615,-22.3501,70.8943,27,0.018,8083,3.6707,7.0294
lg,1625081285340895793,0,0.5103,0.8645,0.4541,677,20.6909,-5.0049,2.8076,92,1.3306,1.0645,-22.7329,71.4421,27,0.018,12080,3.6707,6.9934
lg,1625081285340940089,0,0.5186,0.8999,0.4453,678,17.1509,4.2114,3.0518,92,1.3306,1.0645,-22.9811,71.7307,27,0.018,10449,3.6707,7.3301
lg,1625081285340983625,0,0.4985,0.9387,0.4236,679,11.6577,15.3809,4.3335,92,1.3306,1.0645,-23.0683,71.6748,27,0.018,7974,3.6707,8.1228
lg,1625081285341026310,0,0.4878,0.9514,0.4373,680,9.5215,21.0571,5.0049,92,1.3306,1.0645,-23.0715,71.4223,27,0.018,7983,3.6707,9.1655
lg,1625081285341074310,0,0.4238,0.9277,0.4536,681,5.3711,27.9541,6.4087,92,1.3306,1.0645,-22.9294,70.8372,27,0.018,7993,3.6707,10.5297
lg,1625081285341117013,0,0.397,0.9204,0.4785,682,4.3335,28.9307,7.8735,92,1.3296,1.0645,-22.7697,70.1556,27,0.018,8172,3.6707,11.9649
lg,1625081285341158494,0,0.3774,0.9268,0.4763,683,5.0049,27.3438,8.4229,92,1.3317,1.0655,-22.6027,69.5636,27,0.018,9873,3.6707,13.3255
lg,1625081285341250956,0,0.3638,0.9104,0.469,684,4.7607,25.7568,9.3994,92,1.3296,1.0645,-22.4744,69.0059,27,0.018,12608,3.6707,14.6253
lg,1625081285341298567,0,0.3472,0.896,0.4878,685,4.3335,24.8413,11.2305,92,1.3306,1.0645,-22.3924,68.4055,27,0.018,8765,3.6707,15.9269
lg,1625081285341343270,0,0.3381,0.8669,0.4854,686,5.0049,21.7896,11.6577,92,1.3306,1.0645,-22.3639,67.8742,27,0.018,8465,3.6707,17.1134
lg,1625081285341386881,0,0.325,0.8694,0.4773,687,4.4556,19.8364,12.6343,92,1.3306,1.0645,-22.3657,67.3844,27,0.019,8192,3.6707,18.2231
lg,1625081285341429362,0,0.3491,0.8406,0.4695,688,3.7231,15.564,12.0239,92,1.3306,1.0645,-22.4736,66.9384,27,0.019,8229,3.6707,19.152
lg,1625081285341471343,0,0.3237,0.7991,0.4695,689,2.5024,13.3667,10.7422,92,1.3306,1.0645,-22.5332,66.4504,27,0.018,8218,3.6707,19.987
lg,1625081285341513694,0,0.3044,0.7869,0.489,690,1.9531,11.8408,9.7656,92,1.3306,1.0645,-22.5626,65.9104,27,0.019,8243,3.6707,20.7692
lg,1625081285341556175,0,0.3066,0.7439,0.5054,691,3.479,6.0425,7.8125,92,1.3306,1.0645,-22.6089,65.4796,28,0.018,8660,3.6707,21.3096
lg,1625081285341599434,0,0.3088,0.7166,0.502,692,4.8828,1.2207,5.6763,92,1.3306,1.0645,-22.6786,65.1776,28,0.019,8707,3.6707,21.6289
lg,1625081285341642452,0,0.3601,0.7217,0.4966,693,7.6294,-1.8921,2.9297,92,1.3306,1.0645,-22.8105,65.0902,28,0.019,8313,3.6707,21.7627
lg,1625081285341684563,0,0.3728,0.7017,0.5024,694,8.3618,-1.0376,1.5869,92,1.3306,1.0655,-22.9192,65.0232,28,0.019,8361,3.6707,21.9089
lg,1625081285341727063,0,0.3738,0.6921,0.4854,695,7.9956,2.0142,-0.3662,92,1.3306,1.0645,-22.9176,64.9038,27,0.018,8337,3.6707,22.1426
lg,1625081285341974375,0,0.3665,0.6838,0.4688,696,7.6904,6.3477,-1.2817,92,1.3317,1.0655,-22.8078,64.7412,27,0.018,8409,3.6707,22.5188
lg,1625081285342026208,0,0.334,0.679,0.4963,697,7.9346,8.9722,-2.1973,92,1.3317,1.0655,-22.5414,64.4888,27,0.019,8590,3.6707,23.0055
lg,1625081285342070578,0,0.3335,0.6885,0.4856,698,8.8501,9.5215,-3.2959,92,1.3317,1.0655,-22.2299,64.3237,27,0.019,8439,3.6707,23.4709
lg,1625081285342186539,0,0.3057,0.6841,0.511,699,11.5967,6.2866,-3.7231,92,1.3306,1.0655,-21.8989,64.2613,27,0.019,8422,3.6707,23.8213
lg,1625081285342234983,0,0.3032,0.7227,0.5271,700,15.3809,2.8076,-4.7607,92,1.3306,1.0655,-21.5634,64.4354,27,0.018,8485,3.6707,24.0046
lg,1625081285342277557,0,0.2881,0.7478,0.5225,701,19.8975,-2.5024,-4.7607,92,1.3317,1.0645,-21.2817,64.9028,27,0.02,9525,3.6707,23.9665
lg,1625081285342326946,0,0.3176,0.8074,0.5342,702,23.8037,-6.7749,-4.8218,92,1.3317,1.0655,-21.101,65.6268,27,0.018,10386,3.6707,23.7456
lg,1625081285342370741,0,0.3396,0.8582,0.5098,703,25.4517,-9.7046,-4.3945,92,1.3317,1.0655,-21.0063,66.5373,27,0.019,8591,3.6707,23.3872
lg,1625081285342532832,0,0.354,0.8779,0.5071,704,23.8647,-9.8267,-4.3945,92,1.3317,1.0655,-20.9293,67.3779,27,0.019,8560,3.6707,23.0265
lg,1625081285665824963,0,0.3958,0.9314,0.4995,705,16.8457,-4.6387,-5.7983,92,1.3296,1.0645,-20.7694,67.9127,27,0.019,24832,3.6707,22.8342
lg,1625081285665916185,0,0.4053,0.9478,0.502,706,12.5732,-2.9297,-6.5308,92,1.3266,1.0615,-20.5686,68.2467,27,0.019,9679,3.6707,22.7022
lg,1625081285665967740,0,0.3818,0.9246,0.5103,707,10.437,-1.8311,-6.6528,92,1.3296,1.0615,-20.2603,68.345,27,0.019,8240,3.6707,22.6827
lg,1625081285666016128,0,0.3428,0.9233,0.532,708,6.897,2.3193,-7.2021,92,1.3286,1.0655,-19.8675,68.2796,27,0.019,11949,3.6707,22.7832
lg,1625081285666063202,0,0.2761,0.9194,0.5679,709,6.0425,1.8921,-6.7139,92,1.3296,1.0645,-19.4256,68.1014,27,0.02,8132,3.6707,22.8428
lg,1625081285666109479,0,0.2651,0.876,0.5691,710,5.9204,-4.7607,-5.9814,92,1.3286,1.0645,-19.0798,67.9653,27,0.019,8088,3.6707,22.7164
lg,1625081285666155701,0,0.2812,0.9036,0.5422,711,7.4463,-15.1978,-6.1646,92,1.3306,1.0615,-18.918,68.1125,27,0.02,8019,3.6707,22.146
lg,1625081285666199756,0,0.325,0.8833,0.5273,712,6.5308,-23.3154,-7.4463,92,1.3306,1.0655,-18.9345,68.3366,27,0.02,9246,3.6707,21.2344
lg,1625081285666243181,0,0.3994,0.8743,0.5012,713,3.3569,-25.2075,-9.7046,92,1.3306,1.0655,-19.0511,68.5104,27,0.02,8423,3.6707,20.2002
lg,1625081285666329903,0,0.4209,0.8665,0.4768,714,1.0376,-24.292,-10.6812,92,1.3306,1.0645,-19.1536,68.522,27,0.02,8067,3.6707,19.2018
lg,1625081285666378143,0,0.467,0.8333,0.4641,715,-5.4321,-18.0664,-12.8784,92,1.3306,1.0655,-19.2154,68.3023,27,0.02,8089,3.6707,18.3915
lg,1625081285666422235,0,0.4734,0.8208,0.4526,716,-13.3057,-7.3853,-15.4419,92,1.3317,1.0655,-19.0548,67.662,27,0.02,8106,3.6707,17.9545
lg,1625081285666464994,0,0.4409,0.7952,0.4626,717,-18.9819,5.0049,-17.8833,92,1.3317,1.0655,-18.5816,66.6236,27,0.02,9227,3.6707,17.9639
lg,1625081285666508919,0,0.4131,0.7603,0.4707,718,-21.2402,9.5825,-19.2871,92,1.3317,1.0655,-17.9246,65.395,27,0.02,8344,3.6707,18.1259
lg,1625081285666551326,0,0.3816,0.7434,0.4832,719,-22.2778,14.2212,-21.2402,92,1.3317,1.0655,-17.0816,64.0316,27,0.02,9758,3.6707,18.4224
lg,1625081285666594104,0,0.3413,0.7183,0.5098,720,-20.4468,12.5732,-22.8882,92,1.3317,1.0655,-16.2085,62.8265,27,0.019,8251,3.6707,18.5813
lg,1625081285666636789,0,0.3022,0.7432,0.5217,721,-16.1133,12.2681,-22.644,92,1.3317,1.0655,-15.2716,61.8566,27,0.019,8267,3.6707,18.691
lg,1625081285666678066,0,0.2771,0.7568,0.5293,722,-13.4888,9.0942,-22.0337,92,1.3306,1.0655,-14.4848,61.2197,28,0.019,8421,3.6707,18.5669
lg,1625081285666723065,0,0.2546,0.7715,0.5522,723,-6.8359,2.9907,-18.7378,92,1.3317,1.0655,-13.7954,60.7296,28,0.019,8307,3.6707,18.3732
lg,1625081285666766324,0,0.241,0.8088,0.5386,724,0.4272,-4.6997,-15.0146,92,1.3306,1.0655,-13.3678,60.67,28,0.019,8284,3.6707,17.9485
lg,1625081285666809731,0,0.2898,0.8762,0.5081,725,4.8828,-14.5874,-11.1694,92,1.3317,1.0655,-13.3607,60.9939,28,0.019,8295,3.6707,17.2115
lg,1625081285666852898,0,0.3237,0.8848,0.4976,726,5.9814,-18.8599,-9.6436,92,1.3306,1.0655,-13.6151,61.4655,27,0.019,8402,3.6707,16.3332
lg,1625081285666895601,0,0.3972,0.9055,0.4697,727,5.0659,-21.1182,-7.4463,92,1.3317,1.0655,-14.0505,61.9152,27,0.019,8353,3.6707,15.414
lg,1625081285666936841,0,0.4346,0.9285,0.4524,728,1.0376,-16.3574,-6.0425,92,1.3317,1.0655,-14.485,62.1988,27,0.019,8403,3.6707,14.6843
lg,1625081285667012248,0,0.4395,0.9463,0.4585,729,-3.8452,-8.2397,-4.8828,92,1.3317,1.0655,-14.786,62.2052,27,0.019,8451,3.6707,14.2746
lg,1625081285667057636,0,0.4316,0.946,0.4531,730,-10.5591,0.7935,-3.3569,92,1.3306,1.0655,-14.9501,61.8623,27,0.019,12557,3.6707,14.2228
lg,1625081285667099673,0,0.3853,0.9419,0.4705,731,-14.8315,7.5684,-1.9531,92,1.3317,1.0655,-14.9398,61.2561,27,0.018,8794,3.6707,14.4498
lg,1625081285667141913,0,0.3345,0.9192,0.4924,732,-16.2964,9.9487,-0.4883,92,1.3306,1.0655,-14.8407,60.5233,27,0.019,8550,3.6707,14.7994
lg,1625081285667184950,0,0.3169,0.8811,0.5042,733,-17.334,9.2773,0.3052,92,1.3317,1.0655,-14.7639,59.7185,27,0.019,8489,3.6707,15.1467
lg,1625081285667230560,0,0.3022,0.8391,0.5056,734,-15.686,6.5918,0.6714,92,1.3306,1.0655,-14.7451,58.9838,27,0.02,8564,3.6707,15.4082
lg,1625081285667278041,0,0.313,0.7964,0.5015,735,-14.5874,1.6479,0.5493,92,1.3306,1.0655,-14.8713,58.3236,27,0.019,8524,3.6707,15.4948
lg,1625081285667320911,0,0.3279,0.7568,0.532,736,-13.3667,-1.5869,1.1597,92,1.3306,1.0655,-15.1254,57.6514,27,0.02,9670,3.6707,15.5037
lg,1625081286016626220,0,0.3865,0.6865,0.4954,737,-3.54,5.0659,4.8828,91,1.3317,1.0645,-15.3526,57.4448,27,0.02,25732,3.6674,16.0547
lg,1625081286016709737,0,0.3345,0.7542,0.4207,738,-4.6997,15.564,6.5308,91,1.3317,1.0655,-15.4669,57.1907,27,0.019,9073,3.6674,16.7149
lg,1625081286016762441,0,0.2136,0.6968,0.4446,739,-12.6343,19.2871,7.3853,91,1.3266,1.0655,-15.2531,56.4615,28,0.019,8048,3.6674,17.5533
lg,1625081286016812940,0,0.0991,0.6807,0.4983,740,-12.207,16.3574,8.7891,91,1.3276,1.0645,-14.8418,55.6538,28,0.019,10824,3.6674,18.3479
lg,1625081286016860643,0,0.0676,0.6934,0.5273,741,-6.2256,-5.6152,8.728,91,1.3317,1.0655,-14.843,55.2702,28,0.019,9988,3.6674,18.3916
lg,1625081286016905736,0,0.1345,0.7041,0.5513,742,2.5635,-28.2593,9.9487,91,1.3306,1.0655,-15.5568,55.4155,28,0.02,7937,3.6674,17.6975
lg,1625081286016950698,0,0.1699,0.7021,0.5745,743,6.958,-34.8511,10.3149,91,1.3306,1.0655,-16.5571,55.7716,27,0.019,7934,3.6674,16.7899
lg,1625081286017032568,0,0.2295,0.7153,0.5671,744,16.2964,-43.2129,11.1694,91,1.3306,1.0655,-17.7834,56.6079,27,0.019,7992,3.6674,15.5952
lg,1625081286017079845,0,0.2803,0.7615,0.5273,745,23.4375,-46.6309,12.3901,91,1.3306,1.0655,-19.1589,57.9126,27,0.019,7980,3.6674,14.2395
lg,1625081286017124493,0,0.3562,0.811,0.5088,746,27.1606,-46.875,13.6719,91,1.3317,1.0655,-20.6364,59.4606,28,0.019,10335,3.6674,12.8374
lg,1625081286017168437,0,0.4087,0.8516,0.4941,747,27.2217,-45.105,13.855,91,1.3317,1.0655,-21.982,61.0076,28,0.02,8641,3.6674,11.5206
lg,1625081286017210159,0,0.4189,0.8477,0.4878,748,25.3296,-38.8184,12.3901,91,1.3317,1.0655,-23.1894,62.4401,28,0.02,8048,3.6674,10.308
lg,1625081286017252214,0,0.4502,0.8855,0.5005,749,22.2778,-32.1045,10.498,91,1.3317,1.0655,-24.162,63.6583,28,0.02,8143,3.6674,9.2977
lg,1625081286017294917,0,0.467,0.8965,0.4868,750,19.8975,-28.7476,9.6436,91,1.3317,1.0655,-24.8877,64.5757,27,0.019,8156,3.6674,8.5406
lg,1625081286017337398,0,0.4741,0.8943,0.4912,751,14.5264,-19.3481,6.7139,91,1.3317,1.0655,-25.453,65.2835,27,0.02,8133,3.6674,7.9522
lg,1625081286017380102,0,0.5037,0.8855,0.4954,752,9.0942,-9.4604,3.8452,91,1.3317,1.0655,-25.6393,65.3952,27,0.02,11834,3.6674,7.9218
lg,1625081286017423601,0,0.4978,0.8708,0.5015,753,4.5166,1.77,0.9766,91,1.3306,1.0655,-25.6728,65.3108,27,0.019,8338,3.6674,8.1098
lg,1625081286017466230,0,0.428,0.8472,0.5305,754,1.5259,14.3433,-2.4414,91,1.3317,1.0655,-25.2488,64.8302,27,0.02,8208,3.6674,8.7779
lg,1625081286017509323,0,0.355,0.8301,0.5488,755,-0.061,19.104,-3.6011,91,1.3317,1.0655,-24.5759,64.1791,27,0.02,8331,3.6674,9.6235
lg,1625081286017551322,0,0.304,0.8022,0.5566,756,1.5869,17.5781,-3.3569,91,1.3317,1.0655,-23.8675,63.5999,27,0.02,10919,3.6674,10.412
lg,1625081286017594192,0,0.2437,0.78,0.5566,757,3.7231,15.0146,-2.8076,91,1.3317,1.0655,-23.1969,63.2637,27,0.019,8306,3.6674,10.9735
lg,1625081286017636025,0,0.24,0.7788,0.5513,758,5.6763,7.6294,-2.0142,91,1.3317,1.0655,-22.6361,63.0198,27,0.02,8459,3.6674,11.3758
lg,1625081286017680136,0,0.2439,0.7646,0.5376,759,7.8125,-1.709,-0.8545,91,1.3317,1.0655,-22.3248,63.0121,27,0.02,8371,3.6674,11.4284
lg,1625081286017755061,0,0.2771,0.7791,0.5195,760,7.9956,-10.0098,0.4272,91,1.3317,1.0655,-22.2902,63.1847,27,0.02,8339,3.6674,11.1606
lg,1625081286017805764,0,0.3352,0.7603,0.5134,761,6.1035,-13.2446,0.5493,91,1.3317,1.0655,-22.4604,63.3145,27,0.02,8591,3.6674,10.7749
lg,1625081286017851282,0,0.3433,0.7441,0.5186,762,4.5166,-12.8174,0.4272,91,1.3327,1.0665,-22.6391,63.3397,27,0.02,8356,3.6674,10.4176
lg,1625081286017895412,0,0.365,0.7354,0.5144,763,2.5635,-9.5825,0.4272,91,1.3317,1.0655,-22.809,63.2374,27,0.02,8458,3.6674,10.1874
lg,1625081286017941096,0,0.3535,0.73,0.5056,764,1.8921,-5.6763,-0.1221,91,1.3327,1.0655,-22.8661,63.0675,27,0.02,8434,3.6674,10.0941
lg,1625081286017982559,0,0.3567,0.7266,0.5051,765,1.0376,-3.6621,-0.9155,91,1.3327,1.0655,-22.7645,62.7881,28,0.019,8422,3.6674,10.1352
lg,1625081286018024170,0,0.3257,0.7302,0.5225,766,1.3428,-1.0376,-1.5259,91,1.3327,1.0655,-22.6216,62.5167,28,0.02,8485,3.6674,10.2016
lg,1625081286018066058,0,0.325,0.7339,0.5356,767,3.7842,-1.9531,-2.8687,91,1.3327,1.0655,-22.4446,62.3557,28,0.02,8528,3.6674,10.2094
lg,1625081286018108632,0,0.3433,0.7454,0.5625,768,7.6294,-4.2114,-4.8828,91,1.3327,1.0665,-22.2667,62.3678,28,0.02,8560,3.6674,10.1005
lg,1625081286369272890,0,0.3862,0.8052,0.5508,769,17.9443,-3.1128,-7.8125,91,1.3327,1.0655,-22.0218,62.9049,27,0.02,25221,3.6674,9.9347
lg,1625081286369386648,0,0.4014,0.8357,0.5286,770,20.0195,-1.2207,-7.6904,91,1.3317,1.0655,-21.7719,63.5561,28,0.02,8819,3.6674,9.8228
lg,1625081286369436610,0,0.4229,0.8782,0.4954,771,19.043,3.9673,-7.5073,91,1.3317,1.0655,-21.4698,64.1802,28,0.019,11538,3.6674,9.8843
lg,1625081286369484776,0,0.3938,0.8877,0.5107,772,15.2588,7.2632,-6.8359,91,1.3317,1.0655,-21.0751,64.5904,28,0.019,10187,3.6674,10.0927
lg,1625081286369537609,0,0.3521,0.8943,0.5029,773,10.0098,9.8267,-4.5776,91,1.3317,1.0655,-20.6568,64.7109,28,0.019,11422,3.6674,10.4529
lg,1625081286369583738,0,0.3528,0.9072,0.5002,774,8.2397,8.9722,-3.479,91,1.3317,1.0655,-20.304,64.7819,27,0.019,8301,3.6674,10.7933
lg,1625081286369725108,0,0.3447,0.886,0.5115,775,4.6387,6.4697,-0.3052,91,1.3317,1.0655,-20.1157,64.6762,27,0.019,8007,3.6674,11.1095
lg,1625081286369774755,0,0.3599,0.8728,0.49,776,1.709,5.6763,2.8076,91,1.3317,1.0655,-20.1049,64.478,27,0.019,8023,3.6674,11.4393
lg,1625081286369819199,0,0.3594,0.8596,0.4966,777,-0.1221,7.019,4.4556,91,1.3317,1.0655,-20.135,64.1584,27,0.019,8048,3.6674,11.858
lg,1625081286369864162,0,0.3455,0.8269,0.5078,778,-2.3193,8.4839,5.7373,91,1.3317,1.0655,-20.1712,63.6744,28,0.019,8028,3.6674,12.3739
lg,1625081286369909328,0,0.3572,0.8125,0.519,779,-2.1973,9.0332,7.3853,91,1.3317,1.0655,-20.2813,63.1563,28,0.018,8132,3.6674,12.95
lg,1625081286369953161,0,0.3311,0.7637,0.5063,780,-1.2817,8.9111,7.2021,91,1.3327,1.0665,-20.37,62.6716,28,0.02,8342,3.6674,13.4725
lg,1625081286369996790,0,0.3374,0.7456,0.5288,781,0.061,6.958,6.5308,91,1.3327,1.0655,-20.4723,62.2049,27,0.019,8120,3.6674,13.9809
lg,1625081286370040290,0,0.3296,0.7266,0.5391,782,2.6245,6.4697,5.0659,91,1.3327,1.0665,-20.5172,61.8259,27,0.02,8125,3.6674,14.4539
lg,1625081286370084641,0,0.3096,0.7124,0.5366,783,6.1646,5.8594,4.0894,91,1.3327,1.0665,-20.5013,61.5994,27,0.02,8204,3.6674,14.8861
lg,1625081286370127789,0,0.3037,0.7275,0.5413,784,8.606,3.2959,3.3569,91,1.3327,1.0665,-20.4824,61.5309,27,0.019,8287,3.6674,15.1993
lg,1625081286370169603,0,0.2935,0.7351,0.5276,785,11.4136,2.0752,2.8687,91,1.3327,1.0665,-20.4466,61.635,28,0.019,8283,3.6674,15.4422
lg,1625081286370211029,0,0.2725,0.7644,0.5308,786,13.4888,0.2441,2.9297,91,1.3327,1.0665,-20.3829,61.8753,28,0.02,8312,3.6674,15.6067
lg,1625081286370253306,0,0.2488,0.7617,0.5496,787,14.7095,-0.9155,3.2959,91,1.3327,1.0665,-20.2258,62.1035,28,0.019,8241,3.6674,15.7597
lg,1625081286370298121,0,0.1912,0.7639,0.5728,788,16.8457,-2.3804,4.3945,91,1.3327,1.0665,-20.08,62.3925,28,0.019,8269,3.6674,15.8902
lg,1625081286370340435,0,0.1548,0.7844,0.5884,789,20.3857,-8.5449,6.5918,91,1.3327,1.0665,-20.0392,62.8735,28,0.019,8323,3.6674,15.8334
lg,1625081286370411749,0,0.1228,0.8364,0.5671,790,22.9492,-13.7329,7.6904,91,1.3327,1.0655,-20.196,63.6733,28,0.019,8354,3.6674,15.459
lg,1625081286370456990,0,0.0918,0.8547,0.5498,791,23.9258,-23.3154,12.207,91,1.3327,1.0665,-20.4502,64.5748,28,0.019,8374,3.6674,14.8905
lg,1625081286370500971,0,0.1533,0.8591,0.5266,792,25.2075,-45.166,14.7705,91,1.3317,1.0655,-21.2722,65.8418,28,0.019,9305,3.6674,13.4944
lg,1625081286370544156,0,0.2671,0.9043,0.4873,793,24.1699,-55.7861,16.2354,91,1.3317,1.0665,-22.4769,67.3386,27,0.02,9896,3.6674,11.6311
lg,1625081286370585933,0,0.3523,0.9749,0.4631,794,18.7988,-57.9834,16.9067,91,1.3327,1.0665,-23.7816,68.7732,27,0.019,8562,3.6674,9.6115
lg,1625081286370628562,0,0.4377,0.9941,0.4529,795,8.1787,-53.1006,14.8315,91,1.3327,1.0665,-24.9973,69.7593,27,0.018,8502,3.6674,7.7155
lg,1625081286370670969,0,0.4658,0.9697,0.4583,796,4.3945,-50.2319,13.3667,91,1.3327,1.0665,-26.1257,70.4945,28,0.019,8500,3.6674,5.9269
lg,1625081286370712913,0,0.512,0.9697,0.4824,797,-4.7607,-37.7197,9.5825,91,1.3327,1.0665,-26.9502,70.6587,28,0.019,8531,3.6674,4.6047
lg,1625081286370754913,0,0.5098,0.9529,0.511,798,-10.1318,-24.1699,5.3711,91,1.3327,1.0665,-27.4089,70.3133,28,0.019,8588,3.6674,3.8278
lg,1625081286370801005,0,0.4871,0.9187,0.5276,799,-13.1836,-10.498,-0.4883,91,1.3327,1.0665,-27.4343,69.5672,28,0.02,8559,3.6674,3.5724
lg,1625081286370843690,0,0.4595,0.9082,0.5193,800,-13.9771,-5.9814,-2.9907,91,1.3327,1.0665,-27.2499,68.7481,28,0.018,8580,3.6674,3.456
lg,1625081286757379269,0,0.4102,0.8372,0.5117,801,-15.5029,6.4697,-11.7798,91,1.3327,1.0665,-26.547,67.6635,28,0.018,24833,3.6674,3.7287
lg,1625081286757469676,0,0.3999,0.7979,0.542,802,-15.5029,9.3384,-13.6108,91,1.3327,1.0665,-25.7573,66.4827,27,0.018,9953,3.6674,4.0999
lg,1625081286757523323,0,0.449,0.7229,0.5955,803,-14.9536,7.019,-14.7705,91,1.3327,1.0655,-25.1279,65.2376,27,0.02,10747,3.6674,4.399
lg,1625081286757573508,0,0.4194,0.6807,0.5637,804,-6.897,21.1182,-11.9019,91,1.3327,1.0655,-24.3745,64.1074,27,0.02,10337,3.6674,5.2739
lg,1625081286757620026,0,0.3052,0.7808,0.4561,805,-5.0659,30.6396,-8.1177,91,1.3327,1.0665,-23.318,63.2869,27,0.019,7906,3.6674,6.4005
lg,1625081286757667563,0,0.2612,0.7717,0.4448,806,-8.4229,29.1138,-5.6763,91,1.3327,1.0655,-22.2936,62.4351,27,0.018,7885,3.6674,7.4615
lg,1625081286757712247,0,0.2151,0.7478,0.4453,807,-15.8081,20.9961,-3.6011,91,1.3317,1.0655,-21.4396,61.3864,27,0.019,7897,3.6674,8.2412
lg,1625081286757758043,0,0.1792,0.7224,0.4766,808,-16.6626,8.9111,-2.0752,91,1.3327,1.0655,-20.8095,60.4033,27,0.019,7956,3.6674,8.607
lg,1625081286757803747,0,0.2329,0.7073,0.4822,809,-15.2588,0.1831,-0.9155,91,1.3317,1.0665,-20.7016,59.6643,28,0.019,9207,3.6674,8.4575
lg,1625081286757848209,0,0.2346,0.7297,0.4844,810,-15.2588,-10.6201,1.9531,91,1.3327,1.0665,-20.8625,58.9906,28,0.02,9669,3.6674,8.1547
lg,1625081286757892820,0,0.2329,0.7061,0.5032,811,-13.1836,-16.1743,5.0659,91,1.3327,1.0665,-21.1357,58.4394,28,0.019,8118,3.6674,7.7423
lg,1625081286757939523,0,0.2532,0.7117,0.5249,812,-7.3242,-24.231,9.5215,91,1.3327,1.0665,-21.758,58.1801,28,0.019,8081,3.6674,7.1443
lg,1625081286757985189,0,0.2681,0.7119,0.5381,813,-3.6011,-26.2451,11.8408,91,1.3327,1.0665,-22.6014,58.2409,28,0.019,8139,3.6674,6.514
lg,1625081286758028522,0,0.3118,0.7104,0.5068,814,2.1973,-28.2593,13.4888,91,1.3327,1.0665,-23.5282,58.4518,28,0.019,8109,3.6674,5.8363
lg,1625081286758072596,0,0.3174,0.7124,0.5391,815,7.8125,-29.2358,12.9395,91,1.3327,1.0665,-24.4147,58.8465,28,0.02,8137,3.6674,5.1314
lg,1625081286758114373,0,0.3552,0.6941,0.541,816,11.3525,-29.3579,12.2681,91,1.3327,1.0655,-25.2801,59.5261,28,0.02,8159,3.6674,4.3765
lg,1625081286758158206,0,0.3723,0.7009,0.5574,817,18.2495,-28.4424,8.4839,91,1.3327,1.0665,-26.0356,60.3069,27,0.02,8178,3.6674,3.6158
lg,1625081286758200984,0,0.4043,0.7002,0.5605,818,25.1465,-28.7476,4.8218,91,1.3327,1.0665,-26.6957,61.3866,27,0.02,8216,3.6674,2.7632
lg,1625081286758245428,0,0.4292,0.7146,0.532,819,29.48,-25.5127,1.2207,91,1.3327,1.0655,-27.1794,62.6739,27,0.019,8190,3.6674,1.9279
lg,1625081286758287075,0,0.4436,0.7422,0.5366,820,31.5552,-18.1885,-2.5024,91,1.3327,1.0655,-27.3674,63.9351,28,0.019,11187,3.6674,1.3094
lg,1625081286758329612,0,0.4377,0.7729,0.5315,821,31.5552,-9.8877,-5.188,91,1.3327,1.0665,-27.2625,65.0691,28,0.019,8258,3.6674,0.9725
lg,1625081286758375519,0,0.437,0.7979,0.5063,822,28.0762,-4.0894,-7.4463,91,1.3327,1.0665,-26.9664,66.012,28,0.02,8236,3.6674,0.8143
lg,1625081286758424000,0,0.428,0.8188,0.5105,823,26.3672,-1.9531,-8.2397,91,1.3327,1.0665,-26.5622,66.7731,28,0.019,8294,3.6674,0.7481
lg,1625081286758466703,0,0.4316,0.811,0.5046,824,24.1089,0.3052,-8.7891,91,1.3327,1.0665,-26.1523,67.4333,28,0.019,8328,3.6674,0.7737
lg,1625081286758514018,0,0.4539,0.8047,0.502,825,20.6909,2.3804,-9.5215,91,1.3327,1.0665,-25.7506,67.8986,28,0.02,9037,3.6674,0.8845
lg,1625081286758557666,0,0.4724,0.7981,0.4993,826,18.8599,6.7139,-9.1553,91,1.3327,1.0665,-25.3576,68.1932,28,0.019,8354,3.6674,1.1876
lg,1625081286758601313,0,0.4771,0.7856,0.4907,827,16.4185,10.3149,-8.2397,91,1.3327,1.0665,-24.9833,68.2449,28,0.02,8424,3.6674,1.7791
lg,1625081286758644461,0,0.4775,0.7742,0.4897,828,15.0146,17.4561,-5.4321,91,1.3327,1.0665,-24.6373,68.1579,27,0.02,8466,3.6674,2.5869
lg,1625081286758685479,0,0.4436,0.7712,0.4915,829,12.0239,26.062,-2.5635,91,1.3327,1.0665,-24.2162,67.6945,27,0.02,11731,3.6674,3.987
lg,1625081286758725349,0,0.4031,0.7754,0.4932,830,10.8032,34.3628,0.6104,91,1.3327,1.0665,-23.7048,67.1389,27,0.02,8526,3.6674,5.561
lg,1625081286758768164,0,0.3455,0.7656,0.5103,831,12.6953,36.377,4.5166,91,1.3327,1.0665,-23.1922,66.5823,27,0.019,8480,3.6674,7.2808
lg,1625081286758809848,0,0.2693,0.761,0.5159,832,15.0146,32.7148,7.2632,91,1.3327,1.0665,-22.6786,66.1683,27,0.019,8554,3.6674,8.8898
lg,1625081287099353481,0,0.1611,0.7393,0.5989,833,28.8696,5.6152,8.606,91,1.3327,1.0665,-22.4187,66.5272,27,0.019,24763,3.6674,9.5142
lg,1625081287099449962,0,0.1235,0.7817,0.6479,834,38.0249,-13.4277,7.6904,91,1.3276,1.0645,-22.3354,67.503,27,0.018,9579,3.6674,9.378
lg,1625081287099504239,0,0.1343,0.8804,0.645,835,48.2788,-35.8887,7.8125,91,1.3327,1.0665,-22.5707,69.3375,27,0.019,8174,3.6674,8.2906
lg,1625081287099556183,0,0.2551,0.9255,0.5874,836,52.4292,-60.9741,6.1646,91,1.3327,1.0655,-23.246,71.8631,27,0.019,11533,3.6674,6.0799
lg,1625081287099603627,0,0.4971,0.9336,0.4905,837,47.4243,-73.4253,4.3335,91,1.3327,1.0655,-24.3355,74.5892,27,0.019,9143,3.6674,3.2094
lg,1625081287099647590,0,0.6523,0.9272,0.4456,838,35.7666,-53.894,2.9297,91,1.3327,1.0665,-25.3046,76.5829,27,0.019,11201,3.6674,1.0948
lg,1625081287099690682,0,0.6672,0.9324,0.4097,839,19.7754,-18.8599,1.3428,91,1.3327,1.0665,-25.847,77.327,27,0.02,7963,3.6674,0.4598
lg,1625081287099732941,0,0.6562,0.9312,0.3711,840,9.8267,-1.4648,-0.2441,91,1.3327,1.0665,-25.8617,76.7069,27,0.019,7998,3.6674,1.2257
lg,1625081287099776941,0,0.4771,0.9084,0.4502,841,-9.0332,28.9917,-3.9062,91,1.3327,1.0665,-25.2486,74.8295,27,0.02,10328,3.6674,3.1646
lg,1625081287099821162,0,0.3923,0.8855,0.4912,842,-18.8599,48.645,-6.3477,91,1.3327,1.0665,-24.3272,72.6679,27,0.019,8130,3.6674,5.3922
lg,1625081287099866569,0,0.2085,0.8928,0.5002,843,-20.9961,51.4526,-6.6528,91,1.3327,1.0665,-22.9435,70.4936,27,0.019,8052,3.6674,7.6398
lg,1625081287099911550,0,0.1436,0.8828,0.5142,844,-20.0806,43.9453,-6.0425,91,1.3327,1.0665,-21.706,68.7532,28,0.018,8101,3.6674,9.0844
lg,1625081287099953569,0,0.1575,0.8796,0.4895,845,-18.6768,21.6675,-5.5542,91,1.3327,1.0665,-20.6799,67.3849,28,0.018,8100,3.6674,9.9803
lg,1625081287099996365,0,0.2527,0.8748,0.4614,846,-17.5781,10.1318,-4.1504,91,1.3327,1.0655,-20.1181,66.3408,28,0.019,8947,3.6674,10.3875
lg,1625081287100040198,0,0.2334,0.875,0.4507,847,-18.6157,11.6577,-3.54,91,1.3337,1.0665,-19.5299,65.303,28,0.019,8610,3.6674,10.8322
lg,1625081287100085401,0,0.1702,0.8586,0.4663,848,-18.7378,7.6904,-2.5024,97,1.3337,1.0665,-18.9273,64.3012,27,0.019,8199,3.6674,11.136
lg,1625081287100130771,0,0.1523,0.8499,0.4768,849,-17.6392,2.8687,-1.1597,97,1.3337,1.0665,-18.5455,63.5524,27,0.019,8172,3.6674,11.0746
lg,1625081287100174159,0,0.1248,0.8655,0.4639,850,-14.2212,-9.9487,0.6104,97,1.3327,1.0665,-18.2964,63.0136,27,0.019,8243,3.6674,10.735
lg,1625081287100216289,0,0.1313,0.8271,0.4814,851,-10.437,-24.6582,1.1597,97,1.3337,1.0665,-18.3678,62.7343,27,0.019,8238,3.6674,9.8749
lg,1625081287100258325,0,0.1414,0.7903,0.5161,852,-3.2959,-41.3818,2.3804,97,1.3337,1.0665,-18.814,62.8265,28,0.019,8262,3.6674,8.4455
lg,1625081287100300843,0,0.1572,0.7781,0.5225,853,1.3428,-50.4761,2.8687,97,1.3327,1.0665,-19.4583,63.1955,28,0.019,8259,3.6674,6.6872
lg,1625081287100344343,0,0.2576,0.7935,0.5166,854,9.8267,-63.4766,5.5542,97,1.3327,1.0665,-20.6059,64.1135,28,0.019,8294,3.6674,4.4563
lg,1625081287100386917,0,0.3479,0.8218,0.5083,855,15.9302,-67.0776,6.7749,97,1.3327,1.0665,-21.9513,65.4026,28,0.019,8353,3.6674,2.0587
lg,1625081287100428972,0,0.3796,0.8242,0.5007,856,17.5171,-64.8193,7.5073,97,1.3337,1.0665,-23.2857,66.7685,28,0.019,8338,3.6674,-0.2804
lg,1625081287100470083,0,0.4194,0.8391,0.4797,857,19.4092,-59.9365,7.3242,97,1.3337,1.0665,-24.4717,68.2018,28,0.019,8341,3.6674,-2.476
lg,1625081287100511027,0,0.4832,0.8635,0.4431,858,18.2495,-49.8657,6.897,97,1.3337,1.0665,-25.5174,69.5281,28,0.019,8493,3.6674,-4.3304
lg,1625081287100552119,0,0.4949,0.8884,0.4285,859,13.7329,-33.8745,5.4321,97,1.3337,1.0665,-26.2229,70.4356,27,0.019,8401,3.6674,-5.5694
lg,1625081287100596545,0,0.4778,0.9077,0.4165,860,10.0708,-25.0854,4.0894,97,1.3337,1.0665,-26.6763,71.0638,27,0.019,8470,3.6674,-6.4722
lg,1625081287100638266,0,0.4507,0.9126,0.4294,861,1.8311,-11.4746,1.77,97,1.3337,1.0665,-26.7878,71.074,27,0.019,8497,3.6674,-6.8119
lg,1625081287100681433,0,0.4158,0.8877,0.4626,862,-2.8687,-1.2207,-0.6104,97,1.3337,1.0665,-26.6185,70.6182,27,0.019,8462,3.6674,-6.7065
lg,1625081287100725710,0,0.3748,0.8552,0.4915,863,-5.188,4.2725,-3.1128,97,1.3337,1.0665,-26.2251,69.9026,27,0.019,8461,3.6674,-6.3724
lg,1625081287100770784,0,0.3645,0.8262,0.5042,864,-5.3101,5.7983,-5.0659,97,1.3327,1.0675,-25.7474,69.139,27,0.019,8517,3.6674,-5.9968
lg,1625081287459513049,0,0.3525,0.7683,0.5576,865,3.9062,-2.0752,-11.4746,97,1.3327,1.0665,-25.1644,68.7792,28,0.018,25130,3.6674,-5.9888
lg,1625081287459632455,0,0.4534,0.7712,0.5449,866,9.5215,-7.0801,-14.7705,97,1.3286,1.0635,-24.7573,68.8178,28,0.019,9825,3.6674,-6.2727
lg,1625081287459693381,0,0.4663,0.7466,0.5571,867,9.5825,-4.6387,-16.7847,97,1.3327,1.0665,-24.1579,68.6424,28,0.019,8240,3.6674,-6.3018
lg,1625081287459743714,0,0.4436,0.6873,0.5811,868,7.4463,7.6294,-21.1182,97,1.3337,1.0665,-23.3862,68.2154,27,0.018,8432,3.6674,-6.0238
lg,1625081287459793954,0,0.3982,0.615,0.6348,869,9.5215,10.6812,-21.5454,97,1.3327,1.0665,-22.5324,67.6297,27,0.019,10354,3.6674,-5.5678
lg,1625081287459841842,0,0.3501,0.6895,0.5891,870,15.0146,12.3291,-20.6909,97,1.3327,1.0665,-21.6348,67.6599,27,0.018,7899,3.6674,-5.0317
lg,1625081287459891083,0,0.3264,0.7678,0.5159,871,23.9258,15.9302,-16.4185,97,1.3327,1.0665,-20.7166,68.0066,27,0.018,7939,3.6674,-4.4848
lg,1625081287459946267,0,0.2976,0.9128,0.3987,872,17.7612,15.3198,-10.6812,97,1.3327,1.0665,-19.9313,68.4831,28,0.019,7962,3.6674,-4.0155
lg,1625081287459993730,0,0.2671,0.9424,0.4045,873,9.5215,11.5967,-8.7891,97,1.3327,1.0665,-19.3071,68.3535,28,0.019,8024,3.6674,-3.7907
lg,1625081287460044100,0,0.2534,0.895,0.4417,874,-4.3945,2.9907,-6.4697,97,1.3337,1.0665,-18.982,67.7662,28,0.019,10094,3.6674,-3.8341
lg,1625081287460129562,0,0.2532,0.8674,0.4705,875,-9.1553,-6.5308,-1.709,97,1.3337,1.0665,-18.8366,67.2243,28,0.019,8855,3.6674,-4.0307
lg,1625081287460199098,0,0.3123,0.884,0.4395,876,-10.498,-14.8315,2.9907,97,1.3337,1.0665,-19.1223,66.8157,27,0.019,8072,3.6674,-4.5082
