name,time,activity,ax,ay,az,batch_val,gx,gy,gz,ibat,index,middle,pitch,roll,temp,thumb,ts,vbat,yaw
rg,1625081295783119094,1,0.1614,0.8997,0.5134,1,0.7324,11.5967,-12.146,54,1.0485,0.5373,8.6583,64.5146,28,0.6543,18748,3.916,25.5777
rg,1625081295783167353,1,0.1597,0.8899,0.5112,2,1.0376,10.3149,-10.8643,54,1.0485,0.5373,8.542,64.3966,28,0.6543,8196,3.916,25.7408
rg,1625081295783191297,1,0.1584,0.8882,0.5205,3,0.9766,9.6436,-9.4604,54,1.0485,0.5373,8.3721,64.2606,28,0.6543,7449,3.916,25.9007
rg,1625081295783211204,1,0.1621,0.8884,0.5161,4,0.9766,9.7046,-10.498,54,1.0485,0.5373,8.2322,64.1175,28,0.6543,7580,3.916,26.0435
rg,1625081295783289815,1,0.167,0.8945,0.5168,5,0.9766,8.4839,-10.1929,54,1.0485,0.5373,8.0644,63.9977,28,0.6543,7473,3.916,26.1504
rg,1625081295783315315,1,0.1687,0.8926,0.5171,6,1.0376,8.9722,-10.9863,54,1.0485,0.5373,7.8719,63.8818,28,0.6543,7507,3.916,26.2732
rg,1625081295783335630,1,0.166,0.8992,0.5178,7,0.9155,8.8501,-10.8032,54,1.0475,0.5373,7.7499,63.7714,28,0.6543,7498,3.916,26.3832
rg,1625081295783354463,1,0.1687,0.8987,0.5088,8,0.9766,7.5073,-10.437,54,1.0485,0.5373,7.5889,63.6786,28,0.6543,7692,3.916,26.4531
rg,1625081295783372741,1,0.1682,0.9006,0.5076,9,0.9155,6.8359,-9.7046,54,1.0485,0.5373,7.3974,63.5895,28,0.6543,7590,3.916,26.5123
rg,1625081295783392407,1,0.1746,0.9062,0.5137,10,1.0376,6.2866,-10.3149,54,1.0475,0.5373,7.2152,63.4992,28,0.6543,7561,3.916,26.5401
rg,1625081295783412018,1,0.1772,0.9048,0.502,11,0,6.4087,-11.3525,54,1.0485,0.5373,7.0436,63.4193,28,0.6543,7674,3.916,26.5625
rg,1625081295783431407,1,0.1743,0.9011,0.502,12,0.9766,7.3853,-11.6577,54,1.0485,0.5373,6.9392,63.3517,28,0.6543,7767,3.916,26.6082
rg,1625081295783449777,1,0.1763,0.9001,0.5034,13,-0.4883,5.9814,-10.498,54,1.0485,0.5373,6.7686,63.2207,28,0.6543,7667,3.916,26.6236
rg,1625081295783469240,1,0.1738,0.8911,0.4961,14,0.9766,6.5308,-10.9863,54,1.0485,0.5373,6.6328,63.1589,28,0.6543,7688,3.916,26.6501
rg,1625081295783486499,1,0.1721,0.8928,0.5012,15,-0.3662,5.8594,-10.7422,54,1.0485,0.5373,6.4864,63.0354,28,0.6543,7716,3.916,26.6561
rg,1625081295783505166,1,0.1768,0.8938,0.5042,16,-0.9155,6.1035,-11.4746,54,1.0485,0.5373,6.3239,62.8252,28,0.6543,7710,3.916,26.668
rg,1625081295783522129,1,0.1746,0.896,0.502,17,-2.5635,5.9814,-10.6812,54,1.0485,0.5373,6.1854,62.6294,28,0.6543,7704,3.916,26.6789
rg,1625081295783541369,1,0.1777,0.8906,0.5024,18,-2.0142,4.8218,-9.2163,54,1.0495,0.5373,5.9676,62.4547,28,0.6553,8023,3.916,26.6739
rg,1625081295783559999,1,0.384,0.5908,0.7542,19,9.6436,18.4326,-17.8223,173,1.0535,0.5423,5.8964,61.9859,28,0.6523,7936,3.8511,26.9132
rg,1625081295783577777,1,0.3816,0.603,0.7505,20,10.9253,19.9585,-16.6626,173,1.0535,0.5423,5.8236,61.6135,28,0.6523,8013,3.8511,27.2254
rg,1625081295783596110,1,0.3813,0.5999,0.749,21,11.9629,22.8271,-17.4561,173,1.0535,0.5433,5.8356,61.3004,28,0.6523,7955,3.8511,27.6197
rg,1625081295783614165,1,0.376,0.6003,0.7515,22,12.5122,24.353,-17.2119,173,1.0545,0.5423,5.8814,61.0213,28,0.6523,7856,3.8511,28.0672
rg,1625081295783631424,1,0.3564,0.6084,0.7534,23,14.8926,26.7944,-17.0288,173,1.0545,0.5433,6.0081,60.8604,28,0.6523,8732,3.8511,28.5997
rg,1625081295783648813,1,0.3533,0.6191,0.7559,24,16.0522,27.9541,-16.7847,173,1.0545,0.5423,6.1567,60.7694,28,0.6523,9433,3.8511,29.1748
rg,1625081295783689202,1,0.3452,0.6238,0.7632,25,17.7612,29.3579,-14.8926,173,1.0545,0.5433,6.2829,60.7552,28,0.6523,7994,3.8511,29.8324
rg,1625081295783709591,1,0.3406,0.6284,0.7646,26,18.7378,31.4331,-15.5029,173,1.0545,0.5433,6.4771,60.793,28,0.6523,7928,3.8511,30.5497
rg,1625081295783728368,1,0.3313,0.6392,0.77,27,19.8364,31.7993,-15.1978,173,1.0545,0.5433,6.684,60.8847,28,0.6533,8066,3.8511,31.2849
rg,1625081295783745516,1,0.3252,0.6426,0.7771,28,21.1182,32.4707,-15.8081,173,1.0545,0.5433,6.9329,61.023,28,0.6533,7988,3.8511,32.0302
rg,1625081295783762590,1,0.3164,0.6511,0.7732,29,21.8506,33.6914,-16.5405,173,1.0545,0.5443,7.2374,61.2093,28,0.6533,8136,3.8511,32.8058
rg,1625081295783779868,1,0.3062,0.6545,0.7708,30,22.4609,32.8369,-14.9536,173,1.0545,0.5433,7.476,61.4237,28,0.6543,8053,3.8511,33.5819
rg,1625081295783798350,1,0.2996,0.6584,0.7881,31,22.3999,33.2642,-15.3809,173,1.0555,0.5433,7.7489,61.614,28,0.6533,8159,3.8511,34.363
rg,1625081295783816090,1,0.29,0.6677,0.7798,32,22.583,33.3252,-15.3198,173,1.0545,0.5443,8.0252,61.8324,28,0.6543,8120,3.8511,35.1502
rg,1625081296127482207,1,0.2737,0.6826,0.7839,33,20.1416,29.7852,-12.4512,173,1.0555,0.5453,8.1591,61.9519,28,0.6553,24804,3.8511,35.8668
rg,1625081296127520095,1,0.2717,0.688,0.7827,34,18.9209,28.6255,-12.146,173,1.0555,0.5453,8.2513,62.0283,28,0.6553,10080,3.8511,36.5494
rg,1625081296127540577,1,0.2761,0.6829,0.7817,35,15.7471,27.6489,-12.8784,173,1.0565,0.5453,8.3684,61.9164,28,0.6553,10235,3.8511,37.1737
rg,1625081296127559706,1,0.2612,0.6819,0.7825,36,14.0991,26.6724,-12.146,173,1.0565,0.5453,8.445,61.7788,28,0.6553,7395,3.8511,37.7812
rg,1625081296127578947,1,0.2402,0.6824,0.7747,37,12.8174,26.4282,-12.9395,173,1.0565,0.5463,8.5813,61.6,28,0.6553,7510,3.8511,38.3634
rg,1625081296127596558,1,0.2412,0.6838,0.7778,38,12.3291,24.4751,-12.7563,173,1.0565,0.5463,8.6711,61.397,28,0.6563,7431,3.8511,38.8755
rg,1625081296127614187,1,0.2249,0.6699,0.7842,39,10.0708,23.8647,-14.0381,173,1.0565,0.5463,8.825,61.0726,28,0.6563,7542,3.8511,39.3327
rg,1625081296127685113,1,0.2109,0.6687,0.78,40,9.6436,22.522,-13.0615,173,1.0565,0.5463,8.9422,60.7228,28,0.6553,8680,3.8511,39.705
rg,1625081296127706761,1,0.2151,0.6719,0.7739,41,8.9722,18.4937,-13.4888,173,1.0575,0.5463,8.9839,60.3669,28,0.6553,8724,3.8511,39.9746
rg,1625081296127725242,1,0.217,0.6721,0.7778,42,7.8125,15.7471,-13.2446,173,1.0565,0.5463,8.961,59.9582,28,0.6563,9515,3.8511,40.148
rg,1625081296127741928,1,0.219,0.6807,0.7759,43,7.0801,12.5732,-14.2212,173,1.0565,0.5463,8.9073,59.5301,28,0.6563,7620,3.8511,40.19
rg,1625081296127758779,1,0.2312,0.6843,0.7761,44,6.3477,11.7188,-13.4277,173,1.0565,0.5463,8.7882,59.0929,28,0.6563,7627,3.8511,40.2173
rg,1625081296127775261,1,0.2488,0.6843,0.7759,45,4.4556,9.9487,-12.9395,173,1.0565,0.5463,8.5862,58.5908,28,0.6563,7889,3.8511,40.1926
rg,1625081296127792557,1,0.2512,0.6846,0.772,46,3.7231,9.2773,-14.2212,173,1.0565,0.5463,8.4145,58.0761,28,0.6563,7628,3.8511,40.1181
rg,1625081296127812223,1,0.2532,0.6804,0.7673,47,2.0752,9.5215,-14.9536,173,1.0565,0.5463,8.2714,57.5138,28,0.6563,7679,3.8511,40.035
rg,1625081296127830390,1,0.262,0.6792,0.7615,48,1.8921,8.5449,-15.1978,173,1.0565,0.5473,8.0999,56.9666,28,0.6563,7635,3.8511,39.9123
rg,1625081296127847242,1,0.2629,0.6792,0.7595,49,1.0376,8.728,-14.4043,173,1.0565,0.5463,7.9018,56.4108,28,0.6563,7751,3.8511,39.8117
rg,1625081296127863112,1,0.2749,0.6799,0.759,50,0.9766,8.8501,-14.6484,173,1.0565,0.5473,7.7039,55.8771,28,0.6563,7656,3.8511,39.7088
rg,1625081296127878927,1,0.2788,0.675,0.7522,51,1.0376,9.0942,-14.1602,173,1.0565,0.5473,7.4895,55.3707,28,0.6573,7772,3.8511,39.6237
rg,1625081296127896260,1,0.28,0.6714,0.7549,52,0.9155,9.8877,-14.1602,173,1.0565,0.5473,7.2978,54.8721,28,0.6563,7647,3.8511,39.5622
rg,1625081296127911982,1,0.2708,0.6592,0.7534,53,0.9766,11.1694,-14.6484,173,1.0575,0.5473,7.1167,54.3813,28,0.6563,7854,3.8511,39.5211
rg,1625081296127929334,1,0.2744,0.655,0.7605,54,0.9766,10.498,-13.0615,173,1.0575,0.5473,6.9243,53.8923,28,0.6573,7821,3.8511,39.4971
rg,1625081296127962223,1,0.2805,0.6548,0.7568,55,0.9766,10.0708,-13.0615,173,1.0575,0.5473,6.7149,53.4251,28,0.6573,7791,3.8511,39.4581
rg,1625081296127979297,1,0.2751,0.6477,0.7634,56,1.0376,10.3149,-13.3667,173,1.0575,0.5473,6.5309,52.9617,28,0.6573,7781,3.8511,39.447
rg,1625081296127995611,1,0.2812,0.6516,0.7625,57,0.9766,10.498,-13.4888,173,1.0575,0.5473,6.3588,52.5159,28,0.6573,7804,3.8511,39.4064
rg,1625081296128012537,1,0.2808,0.6587,0.7581,58,0.9766,11.4746,-13.5498,173,1.0585,0.5473,6.2196,52.1073,28,0.6573,8084,3.8511,39.3953
rg,1625081296128029204,1,0.2876,0.6526,0.7549,59,0.9155,11.5356,-14.1602,173,1.0575,0.5473,6.0893,51.7053,28,0.6573,9076,3.8511,39.3683
rg,1625081296128046574,1,0.2812,0.6521,0.7576,60,1.0986,11.6577,-13.0615,173,1.0575,0.5473,5.9456,51.3232,28,0.6573,7886,3.8511,39.3693
rg,1625081296128062704,1,0.2781,0.6467,0.7598,61,1.8311,11.9019,-13.3057,173,1.0585,0.5473,5.8262,50.9723,28,0.6573,8053,3.8511,39.3684
rg,1625081296128079037,1,0.2812,0.6475,0.7605,62,1.8311,12.7563,-13.0005,173,1.0575,0.5473,5.7176,50.6383,28,0.6573,9760,3.8511,39.3997
rg,1625081296128095167,1,0.2791,0.6423,0.7595,63,1.0986,13.6719,-14.4653,173,1.0575,0.5473,5.6564,50.3096,28,0.6573,8103,3.8511,39.4321
rg,1625081296128113204,1,0.2742,0.6396,0.7625,64,2.2583,13.4888,-13.1836,173,1.0575,0.5473,5.5908,50.0022,28,0.6573,8212,3.8511,39.4749
rg,1625081296483339280,1,0.2793,0.6433,0.7661,65,5.188,14.8926,-13.3667,173,1.0585,0.5473,5.562,49.8281,28,0.6573,24611,3.8511,39.5539
rg,1625081296483474038,1,0.2756,0.6426,0.7603,66,4.3945,15.8081,-13.6719,173,1.0585,0.5473,5.5717,49.6374,28,0.6583,12774,3.8511,39.6521
rg,1625081296483528519,1,0.2749,0.6504,0.7603,67,3.9673,13.855,-11.1694,173,1.0585,0.5473,5.4589,49.4498,28,0.6583,9709,3.8511,39.7547
rg,1625081296483579686,1,0.2695,0.6516,0.7566,68,5.127,14.0991,-12.085,173,1.0585,0.5473,5.394,49.3205,28,0.6583,7506,3.8511,39.8404
rg,1625081296483706963,1,0.2744,0.6528,0.7629,69,3.7842,14.0381,-13.0615,173,1.0585,0.5473,5.3532,49.133,28,0.6573,7544,3.8511,39.8973
rg,1625081296483758463,1,0.2727,0.6506,0.7634,70,3.54,14.0381,-11.9019,173,1.0585,0.5473,5.2819,48.941,28,0.6583,8213,3.8511,39.9827
rg,1625081296483805185,1,0.2612,0.6438,0.7605,71,3.7231,13.855,-12.4512,173,1.0585,0.5483,5.2447,48.7535,28,0.6583,7629,3.8511,40.0458
rg,1625081296483850259,1,0.2656,0.6487,0.7671,72,4.0283,13.7939,-12.8784,173,1.0575,0.5473,5.2392,48.6195,28,0.6583,9179,3.8511,40.0875
rg,1625081296483894832,1,0.2588,0.6477,0.7585,73,4.8218,13.3057,-13.0615,173,1.0575,0.5473,5.2131,48.4939,28,0.6583,7654,3.8511,40.1158
rg,1625081296483941443,1,0.2561,0.6565,0.7603,74,5.0049,13.7939,-13.916,173,1.0575,0.5473,5.2352,48.3912,28,0.6573,7593,3.8511,40.1362
rg,1625081296483986721,1,0.2561,0.6545,0.7571,75,4.9438,13.5498,-14.1602,173,1.0575,0.5473,5.2555,48.29,28,0.6573,7729,3.8511,40.1416
rg,1625081296484030147,1,0.2571,0.6592,0.7571,76,6.0425,13.1836,-14.1602,173,1.0585,0.5473,5.2648,48.2431,28,0.6583,10576,3.8511,40.1357
rg,1625081296484072832,1,0.2634,0.6624,0.7544,77,5.127,13.1836,-13.855,173,1.0585,0.5483,5.252,48.1717,28,0.6583,7792,3.8511,40.1382
rg,1625081296484115202,1,0.2622,0.6689,0.761,78,4.8218,12.9395,-14.1602,173,1.0585,0.5483,5.2493,48.0903,28,0.6583,7681,3.8511,40.1248
rg,1625081296484158053,1,0.2634,0.6619,0.7581,79,5.3101,12.5122,-13.5498,173,1.0585,0.5473,5.2114,48.0246,28,0.6583,7787,3.8511,40.1134
rg,1625081296484353608,1,0.2551,0.6716,0.7576,80,4.0894,12.3291,-12.6343,173,1.0585,0.5483,5.1622,47.9304,28,0.6583,8472,3.8511,40.1221
rg,1625081296484476644,1,0.2568,0.6687,0.7537,81,4.8218,12.146,-12.2681,173,1.0585,0.5483,5.0933,47.8704,28,0.6583,8886,3.8511,40.1346
rg,1625081296484525533,1,0.2625,0.6653,0.7595,82,5.0659,12.5732,-13.0615,173,1.0585,0.5483,5.0376,47.7474,28,0.6583,8240,3.8511,40.1138
rg,1625081296484576644,1,0.2583,0.6699,0.7544,83,4.9438,12.0239,-12.146,173,1.0575,0.5483,4.9643,47.7001,28,0.6583,7937,3.8511,40.125
rg,1625081296484726125,1,0.251,0.6589,0.7485,84,5.127,11.2915,-11.9019,173,1.0585,0.5483,4.876,47.6508,28,0.6583,7850,3.8511,40.12
rg,1625081296484781124,1,0.2529,0.6729,0.7476,85,4.7607,12.085,-13.0615,173,1.0585,0.5483,4.8144,47.6093,28,0.6583,7958,3.8511,40.1473
rg,1625081296484826791,1,0.2549,0.6638,0.7524,86,4.5776,12.6343,-13.1226,173,1.0575,0.5483,4.7988,47.5445,28,0.6573,7842,3.8511,40.1494
rg,1625081296484877217,1,0.252,0.6707,0.7488,87,5.4932,13.0615,-12.8174,173,1.0585,0.5473,4.7929,47.5368,28,0.6583,7981,3.8511,40.1732
rg,1625081296484922865,1,0.2532,0.6785,0.749,88,6.0425,12.5732,-12.7563,173,1.0585,0.5473,4.7811,47.5654,28,0.6583,7918,3.8511,40.1853
rg,1625081296484971920,1,0.2537,0.6785,0.7473,89,5.3711,13.0615,-13.6719,173,1.0585,0.5483,4.7995,47.5649,28,0.6583,8017,3.8511,40.1876
rg,1625081296485071049,1,0.2612,0.6917,0.7463,90,3.7842,11.4136,-12.207,173,1.0585,0.5473,4.7187,47.5231,28,0.6583,7989,3.8511,40.1823
rg,1625081296485124567,1,0.2588,0.6887,0.7529,91,3.6621,12.5732,-14.5264,173,1.0585,0.5483,4.7481,47.4508,28,0.6583,8109,3.8511,40.1466
rg,1625081296485169215,1,0.2583,0.6858,0.7561,92,2.8076,11.7798,-12.8784,173,1.0575,0.5483,4.7063,47.35,28,0.6583,8047,3.8511,40.1312
rg,1625081296485214252,1,0.2595,0.687,0.7498,93,1.9531,11.2915,-12.146,173,1.0585,0.5483,4.627,47.2306,28,0.6583,8166,3.8511,40.1215
rg,1625081296485262326,1,0.26,0.6812,0.7566,94,0.8545,11.7188,-12.8174,173,1.0585,0.5483,4.6169,47.0481,28,0.6583,8062,3.8511,40.1138
rg,1625081296485308085,1,0.2532,0.6692,0.7502,95,1.8311,11.8408,-13.6108,173,1.0585,0.5483,4.6058,46.9037,28,0.6583,8303,3.8511,40.0755
rg,1625081296485364288,1,0.2417,0.6675,0.7583,96,1.9531,11.4746,-12.6343,173,1.0585,0.5483,4.5821,46.7557,28,0.6583,8115,3.8511,40.0506
rg,1625081296826395803,1,0.2502,0.6602,0.7583,97,2.5635,11.2915,-12.8784,173,1.0595,0.5483,4.5419,46.6252,28,0.6583,24811,3.8511,40.0116
rg,1625081296826471692,1,0.2534,0.668,0.7559,98,1.77,9.9487,-12.8174,173,1.0595,0.5493,4.4598,46.4816,28,0.6593,14905,3.8511,39.9353
rg,1625081296826523321,1,0.2595,0.665,0.7485,99,1.77,11.0474,-14.4653,173,1.0585,0.5483,4.4423,46.3486,28,0.6593,10520,3.8511,39.8452
rg,1625081296826570747,1,0.262,0.6667,0.7534,100,3.1738,10.9253,-13.4277,173,1.0585,0.5493,4.3896,46.2743,28,0.6583,7431,3.8511,39.7787
rg,1625081296826673395,1,0.2607,0.6655,0.76,101,3.1128,10.9253,-14.6484,173,1.0585,0.5483,4.393,46.2885,28,0.6593,7560,3.8511,39.6982
rg,1625081296826721543,1,0.2559,0.6697,0.7539,102,4.5776,11.4746,-15.1367,173,1.0585,0.5483,4.4199,46.2738,28,0.6583,7459,3.8511,39.6002
rg,1625081296826764820,1,0.2598,0.6743,0.7461,103,3.0518,11.6577,-14.1602,173,1.0595,0.5483,4.4133,46.2205,28,0.6583,7624,3.8511,39.5358
rg,1625081296826807487,1,0.261,0.6763,0.7471,104,2.3804,11.3525,-13.3057,173,1.0585,0.5483,4.3683,46.131,28,0.6583,9326,3.8511,39.4658
rg,1625081296826848412,1,0.259,0.6804,0.7549,105,2.3193,10.498,-13.3667,173,1.0585,0.5483,4.3153,46.0499,28,0.6583,7668,3.8511,39.3883
rg,1625081296826888542,1,0.2595,0.6841,0.7527,106,1.5869,9.8877,-12.8174,173,1.0585,0.5483,4.231,45.9516,28,0.6583,7529,3.8511,39.3086
rg,1625081296826931634,1,0.2576,0.6946,0.7502,107,0.9766,8.9111,-11.7798,173,1.0585,0.5483,4.0994,45.8531,28,0.6583,7702,3.8808,39.2305
rg,1625081296826976264,1,0.2581,0.6831,0.7573,108,0.9766,9.2163,-12.146,117,1.0585,0.5483,3.9894,45.7299,28,0.6583,7560,3.8808,39.1484
rg,1625081296827019597,1,0.259,0.6804,0.7507,109,0.9766,8.7891,-12.4512,117,1.0585,0.5483,3.918,45.6133,28,0.6593,7668,3.8808,39.0404
rg,1625081296827060911,1,0.2505,0.6777,0.7551,110,0.9155,8.5449,-12.207,117,1.0585,0.5483,3.8102,45.4899,28,0.6583,7578,3.8808,38.9355
rg,1625081296827101448,1,0.2446,0.6841,0.7524,111,0.9766,7.3853,-11.1694,117,1.0585,0.5483,3.6572,45.3875,28,0.6593,7659,3.8808,38.8268
rg,1625081296827141355,1,0.2537,0.6865,0.7546,112,0.9766,6.7139,-11.2915,117,1.0585,0.5483,3.4779,45.2889,28,0.6593,7643,3.8808,38.6952
rg,1625081296827180985,1,0.2449,0.6829,0.7566,113,0,6.4087,-11.2305,117,1.0585,0.5483,3.3121,45.1461,28,0.6593,7697,3.8808,38.5559
rg,1625081296827221188,1,0.2522,0.6833,0.759,114,1.0376,6.1035,-11.0474,117,1.0585,0.5483,3.1233,45.0405,28,0.6593,7678,3.8808,38.4119
rg,1625081296827261744,1,0.2502,0.6882,0.7664,115,-0.7935,3.8452,-9.7656,117,1.0585,0.5483,2.8512,44.8695,28,0.6593,7724,3.8808,38.2403
rg,1625081296827302503,1,0.26,0.6816,0.7607,116,-1.2207,2.3193,-8.0566,117,1.0585,0.5473,2.4741,44.6871,28,0.6593,7903,3.8808,38.0737
rg,1625081296827343651,1,0.2524,0.679,0.7588,117,-1.2207,1.709,-8.4839,117,1.0585,0.5483,2.1192,44.5099,28,0.6593,7786,3.8808,37.8779
rg,1625081296827383928,1,0.2566,0.6672,0.7598,118,-2.6245,2.1362,-10.498,117,1.0595,0.5483,1.8337,44.2627,28,0.6593,8121,3.8808,37.6362
rg,1625081296827425280,1,0.2642,0.6609,0.7505,119,-3.418,1.0986,-9.5215,117,1.0585,0.5483,1.4801,43.9981,28,0.6593,9883,3.8808,37.3932
rg,1625081296827466095,1,0.2698,0.6492,0.7471,120,-3.54,0.061,-8.7891,117,1.0585,0.5483,1.0718,43.7259,28,0.6593,8020,3.8808,37.1418
rg,1625081296827505798,1,0.2708,0.6511,0.7444,121,-1.8311,1.4648,-9.3994,117,1.0595,0.5483,0.733,43.5416,28,0.6593,7947,3.8808,36.9113
rg,1625081296827545761,1,0.2805,0.6418,0.7405,122,-1.3428,2.6245,-10.9863,117,1.0585,0.5483,0.4584,43.3753,28,0.6593,8008,3.8808,36.6664
rg,1625081296827586964,1,0.2849,0.6335,0.7366,123,-0.1831,2.9297,-11.9019,117,1.0585,0.5483,0.2138,43.2547,28,0.6593,7962,3.8808,36.4027
rg,1625081296827627446,1,0.2935,0.6353,0.7432,124,1.0376,5.0049,-12.146,117,1.0595,0.5483,0.0308,43.1819,28,0.6603,10998,3.8808,36.1884
rg,1625081296827669057,1,0.2964,0.6348,0.7429,125,1.0376,5.3711,-12.146,117,1.0595,0.5483,-0.0469,43.1199,28,0.6603,7998,3.8808,35.9812
rg,1625081296827709186,1,0.2886,0.6316,0.7424,126,0.9766,8.1177,-13.9771,117,1.0595,0.5493,-0.0717,43.0452,28,0.6593,7962,3.8808,35.7981
rg,1625081296827751241,1,0.2937,0.6421,0.7395,127,0.9766,9.7656,-14.6484,117,1.0595,0.5483,-0.0373,42.9954,28,0.6603,8043,3.8808,35.6397
rg,1625081296827805334,1,0.293,0.6487,0.7507,128,0.9766,9.6436,-14.4043,117,1.0595,0.5483,0.0356,42.9584,28,0.6603,8046,3.8808,35.5093
rg,1625081297171402368,1,0.2883,0.6829,0.7556,129,0.9766,11.3525,-14.1602,117,1.0595,0.5483,0.1319,42.9546,28,0.6603,27088,3.8808,35.4072
rg,1625081297171485164,1,0.2532,0.6853,0.7639,130,-1.5869,10.3149,-12.6953,117,1.0595,0.5483,0.2289,42.84,28,0.6603,12892,3.8808,35.3193
rg,1625081297171539794,1,0.272,0.6763,0.7671,131,-4.0283,6.5918,-10.498,117,1.0595,0.5493,0.1139,42.6135,28,0.6603,10026,3.8808,35.1931
rg,1625081297171591275,1,0.2778,0.6724,0.7798,132,-5.127,6.7139,-11.8408,117,1.0595,0.5493,0.0336,42.3196,28,0.6603,7516,3.8808,35.029
rg,1625081297171639182,1,0.2668,0.6609,0.7795,133,-7.5684,6.958,-11.9019,117,1.0595,0.5493,-0.0169,41.9297,28,0.6603,7502,3.8808,34.867
rg,1625081297171688015,1,0.2568,0.6372,0.7766,134,-8.3618,4.0283,-10.6201,117,1.0595,0.5493,-0.1764,41.4881,28,0.6603,7544,3.8808,34.6615
rg,1625081297171736237,1,0.2659,0.6353,0.7734,135,-7.0801,2.9907,-10.5591,117,1.0595,0.5493,-0.3843,41.1169,28,0.6603,7512,3.8808,34.4274
rg,1625081297171783607,1,0.2642,0.6274,0.7617,136,-4.8218,2.8076,-11.4746,117,1.0595,0.5493,-0.571,40.8543,28,0.6603,9085,3.8808,34.1585
rg,1625081297171827996,1,0.2703,0.6262,0.7578,137,-2.6245,1.3428,-12.146,117,1.0595,0.5483,-0.7929,40.6946,28,0.6603,7520,3.8808,33.8291
rg,1625081297171874181,1,0.2722,0.627,0.7483,138,-1.1597,1.6479,-14.3433,117,1.0595,0.5493,-1.039,40.6735,28,0.6603,7557,3.8808,33.4415
rg,1625081297171919274,1,0.29,0.6387,0.7534,139,0.7324,0.6714,-12.6953,117,1.0595,0.5493,-1.2875,40.6858,28,0.6603,7599,3.8808,33.0763
rg,1625081297171964884,1,0.2656,0.6665,0.7412,140,0.9766,0.4883,-13.3667,117,1.0595,0.5483,-1.4588,40.7733,28,0.6603,7677,3.8808,32.6845
rg,1625081297172009829,1,0.2627,0.6848,0.7393,141,0.9155,-0.1831,-14.4653,117,1.0595,0.5483,-1.6025,40.8901,28,0.6603,7617,3.8808,32.2415
rg,1625081297172055347,1,0.2839,0.6917,0.7571,142,-3.9673,-3.2959,-13.3057,117,1.0595,0.5483,-1.898,40.7952,28,0.6603,7752,3.8808,31.7532
rg,1625081297172099884,1,0.312,0.6799,0.7703,143,-5.8594,-3.8452,-12.8174,117,1.0595,0.5483,-2.275,40.4506,28,0.6603,7712,3.8808,31.2907
rg,1625081297172145624,1,0.3323,0.6819,0.7803,144,-12.207,-2.9297,-12.5732,117,1.0595,0.5483,-2.6459,40.0001,28,0.6603,7891,3.8808,30.8342
rg,1625081297172190365,1,0.3184,0.6455,0.8047,145,-15.9302,0.3662,-13.3057,117,1.0595,0.5483,-2.8633,39.3261,28,0.6603,7753,3.8808,30.4414
rg,1625081297172315068,1,0.2791,0.6348,0.7925,146,-15.2588,1.709,-12.9395,117,1.0595,0.5483,-2.9757,38.7018,28,0.6603,7882,3.8808,30.0881
rg,1625081297172368623,1,0.2664,0.6196,0.7949,147,-15.0146,-5.5542,-12.146,117,1.0595,0.5483,-3.3119,38.0923,28,0.6603,12742,3.8808,29.5743
rg,1625081297172416586,1,0.2393,0.6245,0.7864,148,-14.0381,-6.4697,-12.0239,117,1.0595,0.5483,-3.6816,37.6695,28,0.6603,7958,3.8808,29.0101
rg,1625081297172463067,1,0.2212,0.6475,0.7871,149,-13.5498,-11.8408,-10.9863,117,1.0595,0.5483,-4.1258,37.2318,28,0.6593,7854,3.8808,28.3697
rg,1625081297172518178,1,0.2107,0.6711,0.7939,150,-11.9629,-20.2026,-9.5825,117,1.0595,0.5473,-4.8253,36.9233,28,0.6593,8014,3.8808,27.5671
rg,1625081297172564197,1,0.249,0.679,0.8118,151,-10.8032,-27.3438,-8.667,117,1.0595,0.5473,-5.869,36.706,28,0.6583,7878,3.8808,26.6195
rg,1625081297172607659,1,0.3071,0.7163,0.8489,152,-14.0991,-34.6069,-8.0566,117,1.0585,0.5473,-7.1606,36.3908,28,0.6563,8459,3.8808,25.5165
rg,1625081297172651141,1,0.3794,0.7454,0.8618,153,-18.3105,-42.2974,-11.7798,117,1.0585,0.5473,-8.6827,36.0124,28,0.6553,8447,3.8808,24.1038
rg,1625081297172696826,1,0.4524,0.7546,0.8699,154,-25.2075,-42.6025,-12.3291,117,1.0585,0.5463,-10.2717,35.4145,28,0.6533,8477,3.8808,22.6642
rg,1625081297172743844,1,0.4626,0.7307,0.8699,155,-30.0903,-38.6353,-12.2681,117,1.0585,0.5463,-11.7154,34.6276,28,0.6523,7992,3.8808,21.3242
rg,1625081297172788751,1,0.3906,0.6997,0.864,156,-38.147,-27.0386,-13.3057,117,1.0575,0.5463,-12.6094,33.4894,28,0.6513,8645,3.8808,20.2236
rg,1625081297172834232,1,0.3301,0.6431,0.8833,157,-43.0908,-27.3438,-7.3853,117,1.0575,0.5463,-13.5285,32.0568,28,0.6503,8058,3.8808,19.3416
rg,1625081297172879158,1,0.4106,0.5942,0.9368,158,-44.6777,-30.3345,-1.0376,117,1.0575,0.5463,-14.8037,30.4465,28,0.6503,8340,3.8808,18.6571
rg,1625081297172923362,1,0.4363,0.5852,0.9529,159,-43.1519,-26.7944,1.9531,117,1.0575,0.5463,-16.0358,28.9111,28,0.6503,8084,3.8808,18.1643
rg,1625081297172972880,1,0.4307,0.6279,0.9341,160,-39.6729,-17.2729,2.6855,117,1.0575,0.5463,-16.8847,27.5821,28,0.6493,8243,3.8808,17.8719
rg,1625081297508309209,1,0.4836,0.7212,1.0557,161,-45.5933,-24.4751,-6.1646,117,1.0565,0.5453,-17.7946,26.2249,28,0.6463,24876,3.8808,17.1036
rg,1625081297508395190,1,0.4463,0.6792,1.167,162,-52.3071,-22.0947,-14.3433,117,1.0565,0.5453,-18.3605,24.5825,28,0.6423,12959,3.8808,16.1126
rg,1625081297508447727,1,0.5063,0.6345,1.3113,163,-51.0254,-32.1045,-15.5029,117,1.0555,0.5463,-19.308,22.9606,28,0.6403,9901,3.8808,14.9515
rg,1625081297508496505,1,0.7224,0.6206,1.3643,164,-50.8423,-34.729,-10.0098,117,1.0545,0.5463,-20.687,21.3087,28,0.6383,8683,3.8808,13.9852
rg,1625081297508541690,1,0.7434,0.6052,1.3708,165,-51.9409,-24.7192,-6.2256,117,1.0545,0.5473,-21.345,19.5236,28,0.6373,7407,3.8808,13.5931
rg,1625081297508587115,1,0.6067,0.6191,1.3044,166,-52.6733,-5.4321,-0.3662,117,1.0535,0.5473,-21.602,17.6805,28,0.6353,7441,3.8808,13.4221
rg,1625081297508636041,1,0.499,0.5876,1.2927,167,-60.9741,2.2583,15.3809,117,1.0535,0.5493,-21.6032,15.2733,28,0.6333,7489,3.8808,13.9833
rg,1625081297508683374,1,0.5581,0.5625,1.2649,168,-62.9883,-0.9155,20.9351,117,1.0525,0.5503,-22.0228,12.566,28,0.6313,9608,3.8808,15.0298
rg,1625081297508729467,1,0.6282,0.519,1.2808,169,-73.8525,5.5542,40.8325,117,1.0525,0.5513,-22.2193,9.3166,28,0.6293,10899,3.8808,16.6722
rg,1625081297508774615,1,0.626,0.5259,1.2673,170,-77.5757,12.3901,42.7856,117,1.0525,0.5533,-22.0691,6.0134,28,0.6263,7719,3.8808,18.3853
rg,1625081297508820096,1,0.627,0.55,1.2485,171,-87.7686,21.4233,40.9546,117,1.0525,0.5553,-21.4813,2.5114,28,0.6233,7557,3.8808,19.962
rg,1625081297508866577,1,0.6189,0.5366,1.2334,172,-95.6421,25.4517,38.9404,117,1.0535,0.5573,-20.6386,-1.2489,28,0.6203,7586,3.8808,21.4057
rg,1625081297508911966,1,0.5918,0.3845,1.2947,173,-109.7412,38.147,39.3677,117,1.0535,0.5583,-19.1869,-5.4851,28,0.6173,7637,3.8808,22.7474
rg,1625081297508957391,1,0.501,0.374,1.292,174,-114.4409,47.3022,36.1938,117,1.0535,0.5603,-17.2324,-9.6103,28,0.6113,10652,3.8808,23.7247
rg,1625081297509007132,1,0.4514,0.3765,1.2263,175,-122.0093,49.0112,34.5459,117,1.0535,0.5613,-15.2004,-13.7498,28,0.6083,7829,3.8808,24.4245
rg,1625081297509056502,1,0.3923,0.3684,1.1724,176,-124.4507,49.1943,32.5317,117,1.0545,0.5643,-13.15,-17.7364,28,0.6043,7740,3.8808,24.8635
rg,1625081297509149409,1,0.3464,0.3931,1.0879,177,-132.2021,42.2363,31.9824,117,1.0545,0.5643,-11.3851,-21.7853,28,0.6013,7734,3.8808,25.2047
rg,1625081297509199890,1,0.3555,0.355,1.0176,178,-138.4277,37.5977,32.2266,117,1.0555,0.5663,-9.9351,-26.3052,28,0.5983,7750,3.8808,25.5619
rg,1625081297509244112,1,0.3508,0.3198,0.9995,179,-153.1372,33.6914,32.4707,117,1.0555,0.5673,-8.5871,-30.9715,28,0.5963,7765,3.8808,25.8121
rg,1625081297509288205,1,0.321,0.262,0.9558,180,-161.0107,30.7007,29.48,117,1.0555,0.5683,-7.3962,-35.8545,28,0.5953,7736,3.8808,25.9012
rg,1625081297509331649,1,0.2927,0.249,0.9221,181,-163.147,27.4048,28.1982,117,1.0565,0.5693,-6.2917,-40.69,28,0.5943,7948,3.8808,25.9036
rg,1625081297509375093,1,0.2336,0.2146,0.8464,182,-165.7104,17.7002,25.3296,117,1.0565,0.5713,-5.5393,-45.5158,28,0.5933,7824,3.8808,25.976
rg,1625081297509420223,1,0.2808,0.1924,0.7971,183,-165.8936,-0.3662,24.5972,117,1.0565,0.5713,-5.4516,-50.3428,28,0.5923,8017,3.8808,26.4914
rg,1625081297509462723,1,0.3625,0.1819,0.7891,184,-165.1611,-9.1553,26.062,117,1.0575,0.5723,-5.6848,-55.1579,28,0.5913,7847,3.8808,27.2705
rg,1625081297509508463,1,0.498,0.1599,0.7646,185,-162.7197,-7.3853,25.1465,117,1.0575,0.5733,-6.1417,-59.9588,28,0.5913,8054,3.8808,27.9288
rg,1625081297509551926,1,0.4597,0.1267,0.7512,186,-159.9731,8.7891,24.9634,117,1.0585,0.5743,-6.1989,-64.5256,28,0.5913,7908,3.8808,27.9232
rg,1625081297509594796,1,0.4224,0.1235,0.752,187,-157.4707,12.3291,25.1465,117,1.0585,0.5743,-6.1266,-68.8847,28,0.5903,8081,3.8808,27.6917
rg,1625081297509638833,1,0.4114,0.1296,0.729,188,-151.5503,11.5356,27.0386,117,1.0585,0.5753,-6.0212,-72.9665,28,0.5913,7911,3.8808,27.4287
rg,1625081297509681444,1,0.4253,0.1165,0.7024,189,-147.8882,9.1553,29.8462,117,1.0585,0.5753,-5.9155,-76.9248,28,0.5913,8121,3.8808,27.2112
rg,1625081297509725481,1,0.4358,0.1016,0.6902,190,-146.5454,9.2773,28.5034,117,1.0585,0.5753,-5.9169,-80.8335,28,0.5933,8014,3.8808,26.8987
rg,1625081297509768795,1,0.468,0.0808,0.6599,191,-144.4702,5.5542,27.0996,117,1.0595,0.5763,-6.1171,-84.7309,28,0.5943,8163,3.8808,26.6567
rg,1625081297509843647,1,0.5457,0.0334,0.6577,192,-144.3481,4.3945,24.7803,117,1.0605,0.5753,-6.5617,-88.7275,28,0.5963,8077,3.8808,26.3906
rg,1625081297865253904,1,0.6333,-0.0959,0.698,193,-141.3574,31.8604,11.2305,117,1.0615,0.5763,-7.745,-92.4123,28,0.6023,26180,3.8808,24.5467
rg,1625081297865334236,1,0.5005,-0.1423,0.7029,194,-139.6484,55.0537,-1.5869,117,1.0625,0.5783,-9.2301,-95.8027,28,0.6053,13762,3.8808,22.1133
rg,1625081297865384884,1,0.4221,-0.1682,0.7107,195,-135.9863,57.9224,-8.667,117,1.0625,0.5793,-10.9648,-98.8525,28,0.6063,7525,3.8808,19.5333
rg,1625081297865432736,1,0.3672,-0.1497,0.7241,196,-134.2773,55.3589,-10.498,117,1.0625,0.5793,-12.7606,-101.6986,28,0.6063,7677,3.8808,17.0113
rg,1625081297865478958,1,0.2429,-0.0615,0.7007,197,-139.6484,44.0674,-6.2866,117,1.0615,0.5773,-14.2037,-104.6879,28,0.6063,7524,3.8808,14.8394
rg,1625081297865524995,1,0.1646,-0.0833,0.6865,198,-148.3765,34.729,-1.8311,117,1.0605,0.5733,-14.922,-108.529,28,0.6033,7635,3.8808,13.3736
rg,1625081297865569439,1,0.1594,-0.0764,0.6719,199,-167.3584,8.5449,8.9111,117,1.0595,0.5633,-15.3579,-112.86,28,0.5963,8122,3.8808,12.3537
rg,1625081297865614902,1,0.2598,-0.1106,0.6335,200,-181.1523,-18.0664,18.0054,117,1.0555,0.5503,-15.373,-118.0759,28,0.5893,8217,3.8808,12.1808
rg,1625081297865658402,1,0.3372,-0.1277,0.6455,201,-186.7065,-26.001,18.0664,117,1.0505,0.5353,-15.408,-123.8792,28,0.5813,7725,3.8808,12.404
rg,1625081297865702901,1,0.5366,-0.1699,0.6431,202,-187.3169,-28.3813,22.7051,117,1.0435,0.5223,-15.5594,-129.7587,28,0.5763,7737,3.8808,12.3926
rg,1625081297865750790,1,0.6475,-0.2629,0.6816,203,-180.4199,-2.3193,30.2734,117,1.0365,0.5102,-16.2283,-135.1073,28,0.5723,7668,3.8808,11.235
rg,1625081297865796642,1,0.5754,-0.3643,0.7156,204,-176.0254,16.8457,29.48,117,1.0305,0.5042,-17.3872,-139.9305,28,0.5713,7797,3.8808,9.3969
rg,1625081297865841382,1,0.5093,-0.4509,0.7207,205,-153.6255,30.0293,31.4331,117,1.0245,0.4992,-18.8688,-143.5659,28,0.5703,7674,3.8808,7.0313
rg,1625081297865924882,1,0.5281,-0.5142,0.823,206,-142.2729,32.7148,30.1514,117,1.0245,0.4982,-20.9079,-145.9217,28,0.5733,7748,3.8808,4.3411
rg,1625081297865968845,1,0.5291,-0.7307,0.7173,207,-97.3511,60.73,27.71,117,1.0245,0.4992,-23.4278,-146.7326,28,0.5743,7756,3.8808,1.1293
rg,1625081297866012141,1,0.2334,-0.4404,0.6409,208,-71.3501,54.0161,21.9116,117,1.0245,0.5002,-25.6762,-146.4763,28,0.5763,7835,3.8808,-1.8701
rg,1625081297866053955,1,0.2603,-0.5862,0.6519,209,-62.7441,46.3257,17.8223,117,1.0245,0.5012,-27.8834,-145.9189,28,0.5783,7798,3.8808,-4.6652
rg,1625081297866094807,1,0.3608,-0.3325,0.5176,210,-43.8232,32.959,9.0942,117,1.0255,0.5022,-30.1377,-145.0033,28,0.5803,7858,3.8808,-6.8476
rg,1625081297866138918,1,0.3047,-0.4597,0.6162,211,-42.0532,40.3442,-2.8076,117,1.0265,0.5062,-32.5603,-143.7909,28,0.5823,7899,3.8808,-9.0406
rg,1625081297866181788,1,0.2961,-0.4771,0.6228,212,-33.6914,37.9028,-4.4556,117,1.0285,0.5092,-34.7604,-142.0858,28,0.5863,8002,3.8808,-11.3406
rg,1625081297866223455,1,0.2812,-0.6218,0.7246,213,-8.3618,38.4521,-3.7231,117,1.0315,0.5133,-36.785,-139.1205,28,0.5883,11067,3.8808,-13.9382
rg,1625081297866265769,1,0.3184,-0.6799,0.7488,214,6.5308,44.5557,-1.5869,117,1.0355,0.5173,-38.7922,-135.1715,28,0.5923,8214,3.8808,-17.0889
rg,1625081297866307547,1,0.4023,-0.6567,0.6985,215,35.2173,52.1851,-1.5259,117,1.0395,0.5243,-40.9121,-129.7059,28,0.5943,7993,3.8808,-20.8112
rg,1625081297866350028,1,0.4666,-0.5137,0.6052,216,47.1802,72.4487,-6.7139,117,1.0425,0.5283,-43.6279,-123.0938,28,0.5963,8276,3.8808,-25.5644
rg,1625081297866391121,1,0.1943,-0.4055,0.5632,217,40.1001,99.1211,-16.0522,117,1.0465,0.5323,-46.3882,-115.1524,28,0.5973,10826,3.8808,-32.208
rg,1625081297866432528,1,-0.241,-0.2124,0.4968,218,29.7241,99.9756,-17.5171,117,1.0485,0.5343,-47.5576,-108.3437,28,0.5993,8129,3.8808,-38.7222
rg,1625081297866475416,1,-0.3379,-0.3118,0.5706,219,-5.3711,58.3496,-10.0708,117,1.0495,0.5353,-47.558,-103.2856,28,0.6013,8100,3.8808,-44.018
rg,1625081297866519694,1,-0.1343,-0.2664,0.5647,220,-24.1089,-12.2681,0.4883,117,1.0515,0.5373,-46.7557,-101.5541,28,0.6053,8130,3.8808,-45.687
rg,1625081297866563268,1,0.1995,-0.5029,0.6611,221,-45.2271,-35.5225,10.1318,117,1.0485,0.5353,-45.743,-101.8274,28,0.6073,8196,3.8808,-45.9206
rg,1625081297866606527,1,0.3184,-0.6196,0.7407,222,-51.5747,-36.1328,14.8926,117,1.0415,0.5303,-44.6572,-102.647,28,0.6073,8647,3.8808,-45.9264
rg,1625081297866649175,1,0.6653,-0.5986,0.7734,223,-42.7246,-26.8555,16.9067,117,1.0305,0.5183,-44.2116,-101.6437,28,0.6063,10390,3.8808,-47.2174
rg,1625081297866742767,1,0.8035,-0.6052,0.9355,224,-3.7842,17.334,17.2119,117,1.0315,0.5223,-44.1177,-98.5676,28,0.6093,8186,3.8808,-50.0595
rg,1625081298219450079,1,0.0457,-0.1099,0.4197,225,15.625,34.6069,1.1597,117,1.0295,0.5233,-44.1616,-93.4328,28,0.6093,25113,3.8808,-54.1933
rg,1625081298219528115,1,0.4004,-0.3486,0.6497,226,0.6104,20.9961,-1.709,117,1.0305,0.5233,-44.4167,-90.0172,28,0.6113,13253,3.8808,-57.1652
rg,1625081298219580578,1,0.291,-0.3818,0.6804,227,-16.1133,47.6685,-3.2959,81,1.0305,0.5243,-43.9764,-86.1831,28,0.6133,9757,3.8874,-61.6573
rg,1625081298219630411,1,0.147,-0.5386,0.7852,228,-20.3857,56.3965,-3.418,81,1.0315,0.5243,-43.146,-82.401,28,0.6153,7473,3.8874,-66.4637
rg,1625081298219677448,1,0.1145,-0.6313,0.8562,229,-15.5029,49.0723,-1.709,81,1.0325,0.5263,-41.9798,-79.0128,28,0.6183,7568,3.8874,-70.6141
rg,1625081298219723837,1,0.1541,-0.7185,0.9092,230,-9.0942,45.0439,-1.4038,81,1.0335,0.5283,-40.7375,-75.8653,28,0.6213,7762,3.8874,-74.2685
rg,1625081298219770337,1,0.1953,-0.7437,0.929,231,14.7095,42.4194,-5.0659,81,1.0365,0.5303,-39.5571,-72.0791,28,0.6233,7603,3.8874,-77.6185
rg,1625081298219817485,1,0.3479,-0.7017,0.8779,232,39.856,45.3491,-4.2114,81,1.0395,0.5343,-38.4312,-67.5171,28,0.6243,8895,3.8874,-80.8554
rg,1625081298219863503,1,0.4492,-0.7344,0.8923,233,50.7812,55.9692,-4.2725,81,1.0425,0.5353,-37.1925,-62.6712,28,0.6223,7719,3.8874,-84.2481
rg,1625081298219908206,1,0.3821,-0.6418,0.7966,234,67.8711,84.9609,-21.3013,81,1.0435,0.5363,-35.6453,-56.412,28,0.6203,7699,3.8874,-89.056
rg,1625081298219957095,1,-0.1716,-0.3113,0.6814,235,61.0352,100.708,-26.9165,81,1.0455,0.5373,-32.5729,-49.9869,28,0.6193,7699,3.8874,-94.4663
rg,1625081298220006928,1,-0.521,-0.1746,0.6211,236,36.6211,80.8716,-26.123,81,1.0465,0.5403,-29.1862,-45.5538,28,0.6213,7563,3.8874,-98.6185
rg,1625081298220055595,1,-0.6921,-0.5266,0.8643,237,-15.3809,-16.3574,-14.9536,81,1.0485,0.5413,-28.0643,-45.6639,28,0.6253,7732,3.8874,-98.8189
rg,1625081298220102076,1,-0.3101,-0.6143,0.8865,238,-19.4092,-75.0732,-9.0332,81,1.0495,0.5403,-30.1461,-47.7265,28,0.6283,7604,3.8874,-95.6926
rg,1625081298220145150,1,0.7471,-0.7764,0.9468,239,-27.0996,-108.2153,2.0142,81,1.0415,0.5333,-32.4257,-50.1983,28,0.6283,7789,3.8874,-92.658
rg,1625081298220195113,1,0.6411,-0.8577,1.0254,240,-20.874,-25.9399,0.7935,81,1.0335,0.5253,-32.7974,-51.1086,28,0.6273,9243,3.8874,-91.9224
rg,1625081298220300038,1,0.7458,-0.8608,1.0923,241,9.5825,1.5869,3.3569,81,1.0335,0.5243,-33.3679,-50.5013,28,0.6263,7847,3.8874,-92.0201
rg,1625081298220349908,1,0.5906,-0.1287,0.5452,242,34.668,55.542,-0.7324,81,1.0325,0.5243,-32.6029,-46.8665,28,0.6233,7807,3.8874,-94.6988
rg,1625081298220393556,1,-0.1064,-0.3318,0.5874,243,21.9727,71.2891,-3.2349,81,1.0325,0.5243,-29.2463,-43.9467,28,0.6223,7705,3.8874,-97.5639
rg,1625081298220438075,1,-0.0872,-0.2314,0.5454,244,16.2964,37.2925,-3.7842,81,1.0325,0.5233,-26.9412,-41.7882,28,0.6223,7671,3.8874,-99.2665
rg,1625081298220483000,1,0.3838,-0.3838,0.7034,245,0.9155,1.8921,3.54,81,1.0335,0.5233,-26.7554,-41.2452,28,0.6223,8309,3.8874,-99.4484
rg,1625081298220532926,1,0.4807,-0.4695,0.7441,246,-10.8032,32.959,0.7324,81,1.0335,0.5233,-25.8281,-40.8996,28,0.6233,7752,3.8874,-100.5567
rg,1625081298220608666,1,0.2695,-0.5059,0.7751,247,-16.3574,53.3447,-1.709,81,1.0335,0.5243,-23.8905,-40.547,28,0.6253,7775,3.8874,-102.2987
rg,1625081298220674277,1,0.0408,-0.6218,0.8452,248,-21.7896,56.7017,-1.3428,81,1.0335,0.5253,-21.3729,-40.5927,28,0.6283,7768,3.8874,-104.0225
rg,1625081298220719110,1,0.0991,-0.7253,0.9126,249,-17.4561,44.4336,-3.2959,81,1.0345,0.5273,-19.4695,-40.7205,28,0.6303,7981,3.8874,-105.4045
rg,1625081298220765851,1,0.0945,-0.772,0.9382,250,-12.8784,44.3726,-4.8218,81,1.0345,0.5303,-17.6519,-40.4179,28,0.6343,8211,3.8874,-106.8644
rg,1625081298220813369,1,0.0291,-0.8577,0.9927,251,4.5776,43.1519,-8.728,81,1.0365,0.5343,-15.9209,-39.8267,28,0.6363,8036,3.8874,-108.301
rg,1625081298220861869,1,0.083,-0.8601,0.9666,252,37.5366,32.0435,-7.7515,81,1.0385,0.5373,-14.6407,-38.1104,28,0.6373,7930,3.8874,-109.3618
rg,1625081298220912276,1,0.4294,-0.8123,0.8953,253,53.3447,29.9683,-7.2021,81,1.0415,0.5393,-13.9594,-35.2835,28,0.6353,8089,3.8874,-110.5201
rg,1625081298220956424,1,0.4641,-0.7432,0.8232,254,76.4771,49.2554,-20.3247,81,1.0425,0.5413,-13.1246,-32.0508,28,0.6323,7903,3.8874,-112.2925
rg,1625081298220998313,1,0.1902,-0.627,0.7693,255,77.7588,87.7686,-36.1938,81,1.0435,0.5403,-10.7516,-28.5859,28,0.6283,8121,3.8874,-115.3178
rg,1625081298221041961,1,-0.2954,-0.355,0.6934,256,73.7305,94.6655,-39.978,81,1.0445,0.5413,-7.0437,-25.3575,28,0.6283,7993,3.8874,-118.448
rg,1625081298569700181,1,-0.1714,-0.6187,0.9111,257,1.0376,-54.5044,-11.3525,81,1.0495,0.5463,-8.5784,-25.7295,28,0.6343,24556,3.8874,-117.8685
rg,1625081298569784421,1,0.4077,-0.5798,0.8867,258,-6.4697,-61.0352,-6.897,81,1.0485,0.5473,-10.6386,-26.5958,28,0.6373,12644,3.8874,-117.351
rg,1625081298569836754,1,0.4141,-0.6682,0.8799,259,-3.2349,3.418,-8.2397,81,1.0425,0.5433,-11.0595,-27.0486,28,0.6373,9677,3.8874,-117.6393
rg,1625081298569887920,1,0.3428,-0.5303,0.8271,260,-0.061,14.4653,-8.9722,81,1.0355,0.5373,-11.0316,-27.1439,28,0.6353,7449,3.8874,-118.1942
rg,1625081298569938791,1,0.2021,-0.3208,0.7795,261,-7.0801,27.0996,-14.7095,81,1.0315,0.5313,-10.4343,-27.0392,28,0.6333,7508,3.8874,-119.2687
rg,1625081298569985568,1,0.3445,-0.4749,0.6536,262,13.1226,42.7856,-2.0142,81,1.0355,0.5323,-9.4497,-26.6906,28,0.6333,9768,3.8874,-120.0724
rg,1625081298570030864,1,0.1731,-0.1787,0.7314,263,6.4087,43.7622,-7.9956,81,1.0375,0.5323,-7.411,-26.9157,28,0.6333,7974,3.8874,-121.3269
rg,1625081298570075475,1,-0.0862,-0.5244,0.8513,264,-16.1133,47.0581,-6.8359,81,1.0385,0.5323,-5.3852,-27.614,28,0.6333,7449,3.8874,-122.4202
rg,1625081298570121142,1,0.1611,-0.4216,0.7849,265,-14.0991,11.5967,-1.5259,81,1.0405,0.5333,-5.1966,-28.1688,28,0.6343,8036,3.8874,-122.6906
rg,1625081298570166419,1,0.2803,-0.5146,0.8552,266,-17.7612,11.8408,-1.4038,81,1.0405,0.5343,-5.221,-28.9549,28,0.6353,7849,3.8874,-122.9566
rg,1625081298570254049,1,0.3416,-0.5386,0.8579,267,-18.0664,28.8696,-5.8594,81,1.0405,0.5353,-4.8589,-29.7197,28,0.6373,8561,3.8874,-123.7182
rg,1625081298570303789,1,0.0542,-0.491,0.8323,268,-18.8599,46.6919,-13.855,81,1.0395,0.5353,-3.4606,-30.3936,28,0.6383,11171,3.8874,-125.1373
rg,1625081298570350233,1,-0.0129,-0.5234,0.8464,269,-26.062,31.4331,-16.4185,81,1.0385,0.5353,-2.5567,-31.4146,28,0.6393,7714,3.8874,-126.3479
rg,1625081298570394937,1,-0.02,-0.5876,0.896,270,-28.3203,23.1323,-20.5078,81,1.0375,0.5363,-2.3147,-32.6649,28,0.6403,7973,3.8874,-127.4988
rg,1625081298570860231,1,-0.0242,-0.6143,0.9119,271,-29.48,10.376,-26.4893,81,1.0365,0.5373,-2.4078,-33.8379,28,0.6423,8172,3.8874,-128.6123
rg,1625081298570945953,1,0.0405,-0.7273,0.989,272,-20.3247,-2.7466,-29.6021,81,1.0355,0.5393,-3.1434,-34.6943,28,0.6453,8373,3.8874,-129.5249
rg,1625081298570999175,1,0.1262,-0.8633,1.0615,273,-1.4038,-7.3242,-27.832,81,1.0345,0.5413,-4.1013,-34.8689,28,0.6473,7846,3.8874,-130.2627
rg,1625081298571048101,1,0.1543,-0.8762,1.0464,274,14.9536,-8.3008,-26.6724,81,1.0355,0.5443,-5.0718,-34.4084,28,0.6483,8072,3.8874,-130.939
rg,1625081298571094897,1,0.4458,-0.8252,0.9795,275,52.5513,-1.2207,-21.1182,81,1.0385,0.5473,-6.1304,-32.4505,28,0.6463,8127,3.8874,-131.6116
rg,1625081298571139915,1,0.5093,-0.6533,0.8318,276,68.2983,10.1318,-23.9868,81,1.0405,0.5493,-6.4951,-29.4916,28,0.6423,7737,3.8874,-133.3714
rg,1625081298571184008,1,0.4011,-0.5916,0.8074,277,73.1201,48.7671,-36.438,81,1.0425,0.5493,-6.0665,-26.5733,28,0.6393,8307,3.8874,-135.5778
rg,1625081298571232581,1,0.1934,-0.5891,0.7891,278,67.2607,70.9229,-43.335,81,1.0435,0.5493,-4.4552,-24.0227,28,0.6373,8102,3.8874,-138.3338
rg,1625081298571279063,1,0.0747,-0.5452,0.7793,279,58.7158,72.5098,-44.2505,81,1.0445,0.5483,-2.4909,-21.9381,28,0.6363,8686,3.8874,-141.069
rg,1625081298571329414,1,0.0217,-0.4766,0.7961,280,53.5889,70.6177,-43.7012,81,1.0455,0.5503,-0.4464,-20.0816,28,0.6353,7813,3.8874,-143.6996
rg,1625081298571371710,1,-0.2522,-0.3516,0.7593,281,31.8604,55.6641,-36.1938,81,1.0465,0.5513,1.8305,-19.0119,28,0.6373,8722,3.8874,-145.8016
rg,1625081298571420044,1,-0.4697,-0.3999,0.854,282,6.1646,18.6768,-15.7471,81,1.0485,0.5533,3.275,-19.0144,28,0.6393,8619,3.8874,-146.6476
rg,1625081298571464784,1,-0.1621,-0.511,0.9124,283,-11.8408,-46.6919,3.0518,81,1.0495,0.5543,1.781,-19.848,28,0.6413,8800,3.8874,-145.9327
rg,1625081298571509099,1,0.0881,-0.5364,0.8794,284,-21.6675,-67.2607,10.376,81,1.0465,0.5473,-0.8462,-21.1477,28,0.6413,8286,3.8874,-144.6108
rg,1625081298571553487,1,0.4507,-0.5132,0.8591,285,-50.354,-74.4629,7.2021,81,1.0385,0.5303,-4.3797,-23.5638,28,0.6383,8874,3.8874,-143.1845
rg,1625081298571601117,1,1.1899,-0.7441,0.8596,286,-13.0005,-22.1558,19.5312,81,1.0445,0.5303,-6.3841,-24.6485,28,0.6393,8406,3.8874,-142.056
rg,1625081298571644209,1,0.5127,-0.1487,0.7461,287,-9.7046,68.0542,-0.1831,81,1.0455,0.5303,-4.9768,-24.4788,28,0.6383,8413,3.8874,-143.2561
rg,1625081298571694413,1,-0.0986,-0.5923,0.9231,288,3.1738,56.8237,-8.667,81,1.0465,0.5323,-2.6637,-24.5852,28,0.6383,10178,3.8874,-144.4925
rg,1625081298911397615,1,0.2476,-0.4221,0.8406,289,-10.437,19.4702,2.5024,81,1.0495,0.5343,-2.3913,-25.0645,28,0.6403,25397,3.8874,-144.7251
rg,1625081298911481374,1,0.1003,-0.541,0.8472,290,-26.001,36.1938,-3.2349,81,1.0495,0.5373,-1.2793,-26.3655,28,0.6433,12595,3.8874,-145.4586
rg,1625081298911533429,1,0.0549,-0.6538,0.8835,291,-27.2827,25.8789,-11.2915,81,1.0505,0.5393,-0.6303,-27.8313,28,0.6453,9990,3.8874,-146.3237
rg,1625081298911582948,1,0.042,-0.6821,0.9004,292,-24.4141,21.6064,-17.2729,81,1.0515,0.5413,-0.263,-29.157,28,0.6473,7484,3.8874,-147.3393
rg,1625081298911630707,1,0.0112,-0.7458,0.925,293,-15.1367,14.2822,-21.1792,81,1.0515,0.5433,-0.1985,-30.1322,28,0.6493,7409,3.8874,-148.3564
rg,1625081298911678466,1,-0.0166,-0.7627,0.9209,294,-7.3853,12.8174,-23.2544,81,1.0515,0.5453,-0.3437,-30.4627,28,0.6513,7458,3.8874,-149.3159
rg,1625081298911724040,1,0.0212,-0.7888,0.9424,295,12.085,0.4883,-21.7896,81,1.0515,0.5473,-0.7935,-30.3384,28,0.6533,7411,3.8874,-150.0747
rg,1625081298911769002,1,0.2798,-0.8184,0.9314,296,44.6167,-0.4272,-19.043,81,1.0525,0.5503,-1.6534,-28.9582,28,0.6533,9271,3.8874,-150.7284
rg,1625081298911813298,1,0.6235,-0.7056,0.8176,297,65.6128,11.4136,-15.9302,81,1.0525,0.5513,-1.7502,-26.0196,28,0.6503,8101,3.8874,-151.8963
rg,1625081298911857113,1,0.532,-0.6096,0.7454,298,88.7451,66.6504,-22.7661,81,1.0525,0.5493,-0.7477,-22.8887,28,0.6483,7698,3.8874,-153.8475
rg,1625081298911898706,1,0.1614,-0.5054,0.7122,299,82.4585,110.7788,-34.729,81,1.0515,0.5503,2.4645,-20.121,28,0.6443,7524,3.8874,-156.77
rg,1625081298911940150,1,0.0264,-0.4541,0.6921,300,77.6978,108.7646,-40.1001,81,1.0515,0.5503,5.8748,-17.7484,28,0.6413,7580,3.8874,-159.7339
rg,1625081298911982372,1,-0.4221,-0.197,0.679,301,50.0488,114.1968,-31.9824,81,1.0515,0.5503,10.8075,-16.0673,28,0.6403,7709,3.8874,-162.2934
rg,1625081298912091649,1,-0.929,-0.3035,0.8096,302,23.4985,96.5576,-25.3296,81,1.0535,0.5543,14.1033,-16.648,28,0.6423,7609,3.8874,-163.4594
rg,1625081298912142204,1,-0.9128,-0.4031,0.8872,303,-17.5781,-0.3052,0.1831,81,1.0555,0.5563,15.1932,-17.576,28,0.6453,7774,3.8874,-163.5127
rg,1625081298912186278,1,-0.3027,-0.4031,0.8835,304,-41.8701,-98.1445,24.4751,81,1.0555,0.5563,11.8717,-18.9895,28,0.6473,7636,3.8874,-161.3581
rg,1625081298912230871,1,0.175,-0.5837,0.9912,305,-54.0771,-123.7793,31.5552,81,1.0535,0.5523,6.8856,-21.1146,28,0.6473,7699,3.8874,-158.5135
rg,1625081298912275574,1,0.6743,-0.5564,0.9385,306,-74.4019,-100.5859,22.9492,81,1.0485,0.5393,2.1333,-24.2044,28,0.6463,8252,3.8874,-156.1094
rg,1625081298912319352,1,1.3,-0.9917,0.8228,307,-13.9771,-19.8364,28.5645,81,1.0515,0.5413,0.2312,-25.4328,28,0.6473,7900,3.8874,-154.7497
rg,1625081298912364315,1,0.5083,-0.5728,0.8611,308,12.7563,21.4233,15.0757,81,1.0515,0.5413,2.5314,-26.0535,28,0.6453,7890,3.8874,-156.1804
rg,1625081298912409037,1,-0.3499,-0.4187,0.7837,309,7.9346,117.8589,-3.9062,81,1.0525,0.5413,6.2873,-25.1417,28,0.6453,10220,3.8874,-157.7626
rg,1625081298912453925,1,-0.3623,-0.3164,0.7031,310,30.7007,54.0771,4.8828,81,1.0515,0.5413,9.059,-23.9745,28,0.6453,8125,3.8874,-158.4803
rg,1625081298912501610,1,0.1968,-0.4031,0.783,311,20.6299,-1.0376,8.606,81,1.0515,0.5423,8.3202,-23.2237,28,0.6453,7848,3.8874,-158.1706
rg,1625081298912550351,1,0.2546,-0.3521,0.7739,312,14.2822,4.0894,4.3945,81,1.0515,0.5443,8.0479,-23.0767,28,0.6463,8038,3.8874,-158.5618
rg,1625081298912595240,1,0.0879,-0.3999,0.783,313,0.3052,29.4189,-6.5918,81,1.0515,0.5463,8.4806,-23.3194,28,0.6473,7849,3.8874,-159.2975
rg,1625081298912698239,1,0.0168,-0.437,0.7773,314,-11.5356,18.9209,-12.5122,81,1.0505,0.5473,8.5919,-24.1282,28,0.6493,8025,3.8874,-160.1022
rg,1625081298912753017,1,0.0432,-0.4629,0.7854,315,-15.686,14.7705,-14.7705,81,1.0495,0.5483,8.4511,-25.2631,28,0.6513,8109,3.8874,-161.0452
rg,1625081298912797868,1,0.0122,-0.5547,0.8376,316,-21.5454,19.7754,-19.043,81,1.0495,0.5493,8.467,-26.5973,28,0.6543,8157,3.8874,-162.1321
rg,1625081298912842535,1,-0.0186,-0.6929,0.9246,317,-18.1274,22.8271,-16.6016,81,1.0485,0.5503,8.6763,-27.8733,28,0.6563,8018,3.8874,-163.2094
rg,1625081298912888720,1,0.0403,-0.7844,0.9851,318,-1.5869,26.123,-11.6577,81,1.0485,0.5513,8.9633,-28.4936,28,0.6583,8192,3.8874,-164.1878
rg,1625081298912932738,1,0.0779,-0.8293,1.0022,319,11.2305,30.2734,-11.1084,81,1.0485,0.5533,9.3278,-28.6366,28,0.6603,8033,3.8874,-165.2395
rg,1625081298912979256,1,0.1982,-0.7944,0.9951,320,45.4712,46.6919,-8.728,81,1.0515,0.5553,10.1024,-27.4139,28,0.6613,8273,3.8874,-166.5169
rg,1625081299266699099,1,0.0286,-0.5771,0.7817,321,84.6558,106.2012,-27.0386,81,1.0575,0.5563,12.96,-24.977,28,0.6573,24391,3.8874,-169.4979
rg,1625081299266871061,1,-0.4976,-0.2808,0.738,322,66.5894,88.623,-31.4941,81,1.0575,0.5563,16.4199,-22.8475,28,0.6553,12825,3.8874,-172.1267
rg,1625081299266926672,1,-0.8264,-0.2959,0.8386,323,18.5547,29.541,-23.8647,81,1.0585,0.5593,18.146,-22.4133,28,0.6553,9986,3.8874,-173.4905
rg,1625081299266977394,1,-0.6313,-0.3848,0.8633,324,0,-60.9131,-7.019,81,1.0605,0.5623,16.4008,-22.2554,28,0.6573,9548,3.8874,-172.8034
rg,1625081299267025356,1,-0.3691,-0.4102,0.8904,325,-10.8643,-93.6279,3.479,81,1.0605,0.5623,13.1678,-22.3681,28,0.6593,7515,3.8874,-171.2207
rg,1625081299267071393,1,0.219,-0.5535,0.9292,326,-33.2031,-116.1499,9.1553,81,1.0565,0.5573,8.1114,-23.6109,28,0.6593,7447,3.8874,-169.0936
rg,1625081299267119319,1,0.3545,-0.3562,0.8416,327,-46.4478,-100.8911,7.2632,81,1.0455,0.5433,3.8884,-25.7068,28,0.6553,7659,3.8874,-167.4046
rg,1625081299267165763,1,0.4209,-0.1062,1.4333,328,-55.8472,-71.6553,2.9907,81,1.0475,0.5403,0.6129,-27.0765,28,0.6563,9122,3.8874,-165.9561
rg,1625081299267214078,1,0.8606,-0.1731,0.9441,329,4.6387,0.3052,-3.0518,81,1.0485,0.5403,-0.961,-26.4017,28,0.6543,7747,3.8874,-166.0767
rg,1625081299267262985,1,-0.042,-0.8008,1.0339,330,-8.9722,64.7583,-10.437,81,1.0495,0.5403,1.6789,-26.5395,28,0.6543,7634,3.8874,-168.0772
rg,1625081299267310985,1,-0.0889,-0.3481,0.7786,331,29.2358,50.9644,-16.8457,81,1.0495,0.5413,3.3782,-25.3365,28,0.6553,7655,3.8874,-169.5731
rg,1625081299267358985,1,0.0955,-0.3984,0.8442,332,16.6016,30.8838,-8.9722,81,1.0515,0.5443,3.7767,-25.0043,28,0.6573,12389,3.8874,-170.328
rg,1625081299267405114,1,0.1516,-0.3687,0.8394,333,3.6621,25.1465,-10.498,81,1.0525,0.5453,3.9903,-24.856,28,0.6583,7812,3.8874,-171.1333
rg,1625081299267565077,1,0.0723,-0.4231,0.8379,334,-5.9814,33.2031,-14.9536,81,1.0535,0.5483,4.6034,-25.2476,28,0.6603,9231,3.8874,-172.2463
rg,1625081299267628558,1,0.0566,-0.4714,0.8347,335,-10.8643,25.9399,-20.813,81,1.0545,0.5503,4.8602,-25.9402,28,0.6623,7834,3.8874,-173.4618
rg,1625081299267676521,1,0.0801,-0.5134,0.8618,336,-12.6343,23.6206,-25.8179,81,1.0555,0.5513,4.8736,-26.7432,28,0.6633,7698,3.8874,-174.8256
rg,1625081299267719317,1,-0.0205,-0.5342,0.875,337,-14.8315,30.0903,-33.3252,81,1.0565,0.5533,5.1822,-27.6654,28,0.6653,8730,3.8874,-176.583
rg,1625081299267763317,1,-0.1021,-0.6108,0.9048,338,-12.146,28.8696,-34.8511,81,1.0575,0.5543,5.5458,-28.5608,28,0.6663,7869,3.8874,-178.3873
rg,1625081299267945334,1,-0.1355,-0.6235,0.9204,339,-9.2163,26.8555,-33.6304,81,1.0585,0.5573,5.8717,-29.3327,28,0.6683,8017,3.8874,-180.1163
rg,1625081299267996445,1,-0.1025,-0.677,0.968,340,1.5259,18.3105,-28.3813,81,1.0585,0.5583,5.9116,-29.6266,28,0.6693,7803,3.8874,-181.4945
rg,1625081299268042278,1,0.0076,-0.7488,1.0344,341,26.062,16.6626,-25.2075,81,1.0595,0.5603,5.7506,-28.952,28,0.6703,8008,3.8874,-182.7333
rg,1625081299268088723,1,0.1267,-0.7993,1.0347,342,45.3491,17.5781,-21.5454,81,1.0595,0.5603,5.5173,-27.5889,28,0.6683,7865,3.8874,-183.8711
rg,1625081299268134019,1,0.3389,-0.6458,0.9114,343,79.2847,42.6636,-22.3389,81,1.0585,0.5593,5.7844,-24.8707,28,0.6663,7916,3.8874,-185.4855
rg,1625081299268179167,1,0.0139,-0.4585,0.8401,344,77.2705,74.3408,-32.4097,81,1.0575,0.5613,7.7193,-22.2151,28,0.6623,10765,3.8874,-187.9011
rg,1625081299268224278,1,-0.3721,-0.2373,0.7957,345,60.4248,70.6787,-27.9541,81,1.0575,0.5603,10.5839,-19.9254,28,0.6593,8085,3.8874,170.0534
rg,1625081299268268037,1,-0.5925,-0.1045,0.7898,346,37.7808,49.3774,-26.4282,81,1.0585,0.5633,13.1914,-18.5751,28,0.6603,7944,3.8874,168.4163
rg,1625081299268312462,1,-0.6069,-0.3601,0.9863,347,-8.8501,-30.2124,-13.0005,81,1.0605,0.5663,12.5375,-18.9993,28,0.6623,8193,3.8874,168.2993
rg,1625081299268357166,1,-0.2905,-0.3008,0.9104,348,-30.9448,-93.75,2.1973,81,1.0625,0.5653,9.2136,-19.9444,28,0.6643,7973,3.8852,169.6661
rg,1625081299268401814,1,0.0659,-0.4922,1.0518,349,-45.9595,-115.9058,9.4604,86,1.0605,0.5613,4.0728,-21.908,28,0.6643,8214,3.8852,-188.3521
rg,1625081299268446740,1,0.4832,-0.6035,1.0554,350,-63.9648,-101.9897,10.3149,86,1.0555,0.5493,-0.4766,-24.6773,28,0.6613,8082,3.8852,-186.3541
rg,1625081299268495017,1,1.1008,-0.9702,1.0103,351,-13.855,-46.5088,16.8457,86,1.0585,0.5493,-3.2515,-25.857,28,0.6633,8132,3.8852,-184.9312
rg,1625081299268598091,1,1.0315,-0.3315,0.9326,352,29.2358,-10.498,8.0566,86,1.0585,0.5493,-2.7114,-25.2537,28,0.6613,8140,3.8852,-185.8342
rg,1625081299603782772,1,-0.105,-0.3271,0.8496,353,20.3857,37.1094,-6.4087,86,1.0595,0.5513,-1.1094,-24.2409,28,0.6623,24881,3.8852,-186.6949
rg,1625081299604022882,1,0.135,-0.3347,0.834,354,5.188,20.5688,-5.3711,86,1.0605,0.5523,-0.7423,-23.9262,28,0.6643,8525,3.8852,-187.2309
rg,1625081299604108974,1,0.0718,-0.3955,0.8428,355,-6.8359,28.1372,-10.2539,86,1.0615,0.5563,-0.0311,-24.2349,28,0.6663,13982,3.8852,-188.0651
rg,1625081299604176011,1,0,-0.4326,0.8562,356,-15.564,23.8037,-18.3105,86,1.0625,0.5573,0.5277,-24.9556,28,0.6683,7383,3.8852,170.872
rg,1625081299604332788,1,-0.0061,-0.5059,0.8894,357,-18.0664,18.5547,-20.9961,86,1.0625,0.5593,0.7498,-26.0183,28,0.6693,7447,3.8852,169.7019
rg,1625081299604387584,1,-0.0364,-0.6462,0.9529,358,-16.6626,16.6016,-23.9868,86,1.0635,0.5613,0.9554,-27.0139,28,0.6713,7414,3.8852,168.5422
rg,1625081299604441603,1,-0.0017,-0.6282,0.946,359,-4.0283,14.5874,-23.6816,86,1.0645,0.5623,1.0043,-27.4463,28,0.6733,7437,3.8852,167.4285
rg,1625081299604495732,1,0.0422,-0.6453,0.9546,360,0.4272,16.1133,-22.583,86,1.0655,0.5643,1.0325,-27.7029,28,0.6753,7477,3.8852,166.3246
rg,1625081299604547528,1,0.1008,-0.6599,0.9836,361,13.7329,26.9165,-21.1792,86,1.0655,0.5663,1.3581,-27.4165,28,0.6753,7777,3.8852,165.0691
rg,1625081299604601084,1,0.1541,-0.6873,0.9807,362,37.5977,45.166,-17.8833,86,1.0665,0.5663,2.2984,-26.2546,28,0.6753,7976,3.8852,163.6017
rg,1625081299604653917,1,0.2332,-0.6685,0.9294,363,51.2085,55.7251,-15.3198,86,1.0665,0.5653,3.4991,-24.6492,28,0.6733,7702,3.8852,162.0633
rg,1625081299604699416,1,0.0112,-0.4937,0.8782,364,59.6924,85.6323,-24.5361,86,1.0655,0.5663,6.0661,-22.6392,28,0.6713,7518,3.8852,159.7659
rg,1625081299604746935,1,-0.2415,-0.3777,0.8259,365,56.1523,90.332,-24.8413,86,1.0645,0.5663,9.3876,-20.7751,28,0.6693,7725,3.8852,157.4821
rg,1625081299604795972,1,-0.626,-0.2251,0.8274,366,29.48,57.6782,-18.7988,86,1.0655,0.5673,12.3027,-19.7004,28,0.6693,7554,3.8852,155.991
rg,1625081299604838768,1,-0.675,-0.3481,0.8757,367,7.019,18.6768,-14.7095,86,1.0675,0.5703,12.0834,-20.3915,28,0.6703,7805,3.8852,155.9666
rg,1625081299604881305,1,-0.4404,-0.4897,1.0369,368,-31.189,-68.0542,-4.8828,86,1.0685,0.5703,9.8326,-21.6602,28,0.6723,7721,3.8852,156.7376
rg,1625081299604926249,1,0.0762,-0.5645,1.043,369,-46.875,-105.2246,2.6855,86,1.0675,0.5663,5.4767,-23.56,28,0.6723,7865,3.8852,158.4368
rg,1625081299604972545,1,0.3147,-0.6938,1.073,370,-51.4526,-102.356,3.8452,86,1.0615,0.5563,1.0912,-25.8556,28,0.6693,7661,3.8852,160.2745
rg,1625081299605061471,1,0.5146,-0.5332,1.4629,371,-42.2974,-61.3403,4.0283,86,1.0625,0.5493,-1.7727,-27.325,28,0.6703,7714,3.8852,161.5324
rg,1625081299605111693,1,0.8245,-0.144,0.8345,372,18.9209,-24.6582,16.4795,86,1.0625,0.5483,-2.6686,-25.7907,28,0.6693,7741,3.8852,161.3838
rg,1625081299605155396,1,0.3735,-0.4165,0.8262,373,14.0991,77.2705,-0.2441,86,1.0625,0.5463,0.3203,-25.5147,28,0.6683,9304,3.8852,160.0487
rg,1625081299605202822,1,-0.144,-0.2219,0.6855,374,33.2642,65.0024,-6.8359,86,1.0625,0.5463,2.9896,-23.9269,28,0.6683,7845,3.8852,158.7181
rg,1625081299605248507,1,-0.1133,-0.3708,0.8447,375,15.8081,37.0483,-4.9438,86,1.0635,0.5483,4.4205,-23.3317,28,0.6693,7740,3.8852,157.9415
rg,1625081299605295062,1,0.0171,-0.3965,0.843,376,10.0708,25.3296,-4.0283,86,1.0645,0.5503,5.0673,-23.0433,28,0.6703,7952,3.8852,157.3853
rg,1625081299605339284,1,0.1448,-0.4326,0.8855,377,3.0518,27.4658,-9.0942,86,1.0645,0.5523,5.4045,-23.1034,28,0.6703,7868,3.8852,156.6053
rg,1625081299605385691,1,-0.0317,-0.4067,0.8237,378,0.4272,38.0249,-15.2588,86,1.0655,0.5543,6.4196,-23.3269,28,0.6723,7991,3.8852,155.4258
rg,1625081299605432617,1,-0.0796,-0.4263,0.8301,379,-3.2959,33.6914,-19.043,86,1.0655,0.5563,7.2836,-23.7539,28,0.6743,7886,3.8852,154.1626
rg,1625081299605484580,1,-0.0349,-0.4917,0.8875,380,-8.3008,16.9678,-28.0762,86,1.0675,0.5583,7.2314,-24.4529,28,0.6773,12251,3.8852,152.8247
rg,1625081299605528358,1,-0.0288,-0.5205,0.9097,381,-9.2773,17.334,-29.48,86,1.0685,0.5603,7.1387,-25.2002,28,0.6793,8058,3.8852,151.4274
rg,1625081299605575209,1,-0.0369,-0.5725,0.9673,382,-3.54,20.9351,-28.8696,86,1.0685,0.5633,7.1867,-25.727,28,0.6813,7928,3.8852,149.9877
rg,1625081299605622579,1,-0.0195,-0.6077,0.9944,383,7.9346,23.4375,-25.2075,86,1.0685,0.5643,7.3429,-25.7988,28,0.6823,8930,3.8852,148.6329
rg,1625081299605669561,1,0.0515,-0.6875,1.0044,384,19.9585,26.4893,-22.8271,86,1.0695,0.5663,7.516,-25.505,28,0.6813,7965,3.8852,147.2946
rg,1625081299945742185,1,-0.2644,-0.3203,0.7966,385,54.8706,73.1812,-23.6206,86,1.0685,0.5673,10.1527,-23.4941,28,0.6743,25634,3.8852,145.2202
rg,1625081299945855777,1,-0.6973,-0.2268,0.835,386,21.6675,31.4331,-17.334,86,1.0705,0.5693,10.7139,-23.5192,28,0.6753,13043,3.8852,144.8924
rg,1625081299945881555,1,-0.249,-0.5103,1.0125,387,-23.9868,-52.4902,-7.4463,86,1.0715,0.5703,7.5098,-24.5756,28,0.6773,10023,3.8852,146.1375
rg,1625081299945902703,1,-0.0139,-0.4827,0.9922,388,-33.3862,-102.356,-0.7935,86,1.0695,0.5663,3.5381,-25.7887,28,0.6773,7555,3.8852,147.8592
rg,1625081299945924759,1,0.3245,-0.585,0.998,389,-44.1895,-92.7734,4.2114,86,1.0615,0.5563,-0.4309,-27.6692,28,0.6743,7606,3.8852,149.6835
rg,1625081299946037128,1,0.3877,-0.5688,1.082,390,-48.7671,-77.8809,2.0142,86,1.0605,0.5463,-3.781,-29.6674,28,0.6723,7464,3.8852,151.2638
rg,1625081299946065110,1,0.8091,-0.6575,0.7588,391,31.311,-24.9023,10.9253,86,1.0605,0.5453,-5.7367,-28.8293,28,0.6693,8259,3.8852,152.1465
rg,1625081299946083795,1,0.2546,-0.4783,0.8289,392,34.1187,51.2695,-2.5635,86,1.0605,0.5443,-4.3436,-27.4121,28,0.6683,9477,3.8852,151.0813
rg,1625081299946103517,1,0.0002,-0.3977,0.7961,393,40.9546,51.3306,-8.1787,86,1.0595,0.5443,-2.6706,-24.8479,28,0.6673,7746,3.8852,150.03
rg,1625081299946120795,1,-0.1431,-0.1326,0.688,394,25.5127,24.9023,-9.3994,86,1.0595,0.5433,-1.3632,-23.2624,28,0.6663,7608,3.8852,149.2623
rg,1625081299946138721,1,0.1287,-0.321,0.8296,395,1.5259,0.1831,-6.8359,86,1.0595,0.5443,-1.7351,-23.1061,28,0.6673,7873,3.8852,149.0052
rg,1625081299946156850,1,0.2209,-0.3792,0.887,396,-2.5635,5.9814,-6.2256,86,1.0595,0.5453,-2.0521,-23.1932,28,0.6673,7613,3.8852,148.6815
rg,1625081299946176387,1,0.1558,-0.3655,0.8687,397,-7.3853,31.6772,-7.9346,86,1.0595,0.5473,-1.3076,-23.4438,28,0.6673,7794,3.8852,147.8862
rg,1625081299946195795,1,0.0237,-0.4048,0.8218,398,-7.3853,37.9028,-9.4604,86,1.0605,0.5493,-0.1319,-24.031,28,0.6683,7670,3.8852,146.834
rg,1625081299946215035,1,-0.0234,-0.4265,0.8467,399,-16.2964,36.1938,-14.7705,86,1.0605,0.5503,0.9983,-24.7902,28,0.6693,7818,3.8852,145.6962
rg,1625081299946234868,1,-0.0696,-0.5215,0.9043,400,-18.9209,31.25,-23.8647,86,1.0615,0.5523,1.8277,-25.7773,28,0.6723,7764,3.8852,144.2935
rg,1625081299946254035,1,-0.0935,-0.5417,0.9353,401,-15.0757,25.4517,-26.8555,86,1.0625,0.5543,2.3867,-26.5937,28,0.6743,10646,3.8852,142.8729
rg,1625081299946273368,1,-0.0776,-0.5779,0.957,402,-12.207,21.2402,-26.6113,86,1.0645,0.5553,2.545,-27.0617,28,0.6793,7969,3.8852,141.592
rg,1625081299946291350,1,0.0427,-0.697,1.0166,403,20.4468,21.3013,-25.2075,86,1.0645,0.5593,2.6686,-26.589,28,0.6803,12268,3.8852,140.2922
rg,1625081299946309201,1,0.1274,-0.6311,0.9731,404,33.5083,24.5361,-23.0103,86,1.0655,0.5613,3.1463,-25.1623,28,0.6803,8082,3.8852,138.9564
rg,1625081299946329016,1,0.2063,-0.616,0.9678,405,53.894,44.8608,-16.6016,86,1.0655,0.5643,3.9798,-23.3759,28,0.6793,7816,3.8852,137.5849
rg,1625081299946379442,1,-0.0239,-0.511,0.927,406,63.4766,71.228,-25.0854,86,1.0655,0.5643,6.1177,-21.2346,28,0.6773,7949,3.8852,135.5484
rg,1625081299946409646,1,-0.26,-0.3428,0.824,407,62.9883,72.1436,-25.2686,86,1.0655,0.5643,9.3289,-18.7199,28,0.6753,7908,3.8852,133.6419
rg,1625081299946430349,1,-0.551,-0.1191,0.7876,408,34.1797,39.7339,-16.6016,86,1.0655,0.5653,11.6009,-17.2249,28,0.6753,8932,3.8852,132.569
rg,1625081299946448534,1,-0.5591,-0.3113,0.9336,409,-11.7798,-24.5361,-8.0566,86,1.0675,0.5673,11.2697,-17.736,28,0.6753,8074,3.8852,132.5469
rg,1625081299946466590,1,-0.0413,-0.4397,0.9875,410,-29.7852,-80.8716,0.6104,86,1.0675,0.5673,7.8612,-18.9932,28,0.6753,8139,3.8852,133.5619
rg,1625081299946484312,1,0.2393,-0.5061,1.0229,411,-35.5835,-85.083,4.2114,86,1.0655,0.5653,3.9654,-20.5549,28,0.6733,7980,3.8852,134.8526
rg,1625081299946502793,1,0.4197,-0.5432,0.9878,412,-40.7715,-46.3257,4.8218,86,1.0585,0.5563,1.384,-22.44,28,0.6713,8017,3.8852,135.7072
rg,1625081299946520478,1,0.6917,-0.9119,1.0469,413,-0.4272,8.4229,15.2588,86,1.0585,0.5553,0.8727,-23.0912,28,0.6743,8007,3.8852,136.128
rg,1625081299946540034,1,0.5164,-0.3076,0.8523,414,31.9824,28.9917,9.2773,86,1.0575,0.5533,0.929,-21.7009,28,0.6743,8197,3.8852,136.0138
rg,1625081299946557849,1,-0.1782,-0.5674,0.9148,415,24.4141,87.0361,0.8545,86,1.0575,0.5543,4.5029,-21.1738,28,0.6743,8048,3.8852,134.7641
rg,1625081299946576941,1,-0.0964,-0.1929,0.7239,416,36.9873,31.6162,3.1128,86,1.0575,0.5553,5.8389,-19.4768,28,0.6733,8067,3.8852,134.4606
rg,1625081300300071882,1,-0.0054,-0.3833,0.8867,417,6.7749,24.8413,-8.3008,86,1.0615,0.5583,6.4429,-19.4258,28,0.6773,24228,3.8852,133.7962
rg,1625081300300189104,1,-0.0029,-0.3811,0.8708,418,1.8311,21.9727,-12.0239,86,1.0625,0.5613,6.8605,-19.6577,28,0.6793,12798,3.8852,132.925
rg,1625081300300241807,1,-0.0669,-0.3201,0.8433,419,-8.7891,22.7051,-19.2871,86,1.0645,0.5623,7.3429,-20.1766,28,0.6813,11058,3.8852,131.8772
rg,1625081300300291122,1,-0.1094,-0.366,0.8811,420,-17.7002,22.4609,-22.7661,86,1.0655,0.5633,7.8257,-21.127,28,0.6833,7479,3.8852,130.686
rg,1625081300300340344,1,-0.1377,-0.4568,0.9534,421,-24.0479,12.5732,-26.3062,86,1.0665,0.5653,7.8833,-22.418,28,0.6843,7511,3.8852,129.4878
rg,1625081300300463140,1,-0.1086,-0.4905,0.9893,422,-23.3154,7.4463,-27.71,86,1.0665,0.5663,7.5316,-23.7128,28,0.6853,7522,3.8852,128.3138
rg,1625081300300517325,1,-0.0259,-0.5566,1.0222,423,-17.395,4.5166,-25.4517,86,1.0665,0.5673,7.0299,-24.7217,28,0.6873,7555,3.8852,127.2805
rg,1625081300300560399,1,0.0593,-0.6101,1.0647,424,-2.0142,11.4136,-22.9492,86,1.0655,0.5683,6.6692,-25.1211,28,0.6873,8636,3.8852,126.2249
rg,1625081300300607602,1,0.2051,-0.655,1.0383,425,24.353,28.1982,-19.5312,86,1.0655,0.5703,6.7306,-24.5623,28,0.6863,12285,3.8852,124.9969
rg,1625081300300655547,1,0.1013,-0.5022,0.9473,426,42.6025,53.7109,-22.644,86,1.0655,0.5703,7.8425,-23.209,28,0.6843,7708,3.8852,123.2615
rg,1625081300300701176,1,-0.0623,-0.4451,0.9185,427,41.748,63.2324,-24.353,86,1.0655,0.5703,9.9994,-21.8602,28,0.6823,7878,3.8852,121.3671
rg,1625081300300744417,1,-0.3572,-0.2991,0.8735,428,30.2124,48.7671,-22.9492,86,1.0655,0.5703,11.9104,-20.841,28,0.6813,8058,3.8852,119.7962
rg,1625081300300788842,1,-0.4285,-0.3179,0.9487,429,1.5259,1.2817,-20.6909,86,1.0665,0.5713,12.1045,-20.8568,28,0.6823,9761,3.8852,119.0066
rg,1625081300300833639,1,-0.2842,-0.2522,0.9143,430,-18.5547,-45.7153,-11.9019,86,1.0685,0.5723,10.4139,-21.3389,28,0.6833,9405,3.8852,119.2722
rg,1625081300300877972,1,-0.0396,-0.54,1.032,431,-42.4805,-69.0918,-6.4697,86,1.0675,0.5693,7.4344,-23.1505,28,0.6843,8502,3.8852,120.0522
rg,1625081300300921546,1,0.093,-0.5828,1.041,432,-43.1519,-73.4863,-1.0376,86,1.0615,0.5603,4.2778,-24.9862,28,0.6823,8164,3.8852,121.1985
rg,1625081300300963934,1,0.2429,-0.5232,1.3362,433,-45.5322,-63.4766,2.2583,86,1.0595,0.5523,1.4964,-26.5946,28,0.6813,7685,3.8852,122.4069
rg,1625081300301006638,1,0.6519,-0.9854,1.1418,434,-1.5869,-37.6587,15.9912,86,1.0595,0.5523,-0.3119,-24.7715,28,0.6803,7671,3.8852,123.4072
rg,1625081300301077378,1,0.4534,-0.416,0.9653,435,18.9209,22.2778,10.9863,86,1.0585,0.5523,-0.2091,-23.9582,28,0.6773,7723,3.8852,123.4305
rg,1625081300301121360,1,-0.0898,-0.3242,0.832,436,38.5742,33.9966,1.3428,86,1.0585,0.5523,1.2927,-22.3133,28,0.6773,8065,3.8852,122.9473
rg,1625081300301166359,1,-0.0984,-0.1487,0.7722,437,37.5977,14.7095,1.5869,86,1.0585,0.5503,1.5708,-20.9893,28,0.6763,8460,3.8852,122.8418
rg,1625081300301237600,1,-0.002,-0.2632,0.8306,438,9.1553,-9.5825,-4.6997,86,1.0585,0.5513,0.8004,-20.5156,28,0.6763,9379,3.8852,122.8035
rg,1625081300301284526,1,0.1077,-0.3145,0.8999,439,-12.5122,-8.3008,-6.4087,86,1.0575,0.5513,0.1144,-20.9608,28,0.6753,9783,3.8852,122.6834
rg,1625081300301327951,1,0.2063,-0.3154,0.8567,440,-16.6016,2.5024,-3.9673,86,1.0575,0.5523,-0.3548,-21.5882,28,0.6753,7779,3.8852,122.5014
rg,1625081300301370007,1,0.1294,-0.3328,0.8337,441,-27.1606,23.6206,-5.4932,86,1.0575,0.5533,0.1245,-22.6711,28,0.6763,8577,3.8852,121.9435
rg,1625081300301411322,1,0.0339,-0.3755,0.8569,442,-35.1562,30.8228,-9.7046,86,1.0575,0.5533,1.0103,-24.1145,28,0.6773,7805,3.8852,121.0974
rg,1625081300301467877,1,-0.053,-0.4502,0.8853,443,-42.7246,28.8696,-15.9302,86,1.0575,0.5533,1.8632,-25.9508,28,0.6793,8347,3.8852,120.0271
rg,1625081300301511043,1,-0.0664,-0.533,0.9377,444,-43.8843,24.0479,-17.8223,86,1.0585,0.5543,2.46,-27.8793,28,0.6813,8029,3.8852,118.9491
rg,1625081300301554340,1,-0.0698,-0.5662,0.9495,445,-42.8467,22.2778,-17.7612,86,1.0585,0.5543,2.9403,-29.7463,28,0.6833,7918,3.8852,117.89
rg,1625081300301596006,1,-0.0437,-0.677,1.0217,446,-32.0435,23.1323,-15.625,86,1.0595,0.5563,3.3811,-31.2219,28,0.6863,8098,3.8852,116.8728
rg,1625081300301638561,1,-0.0205,-0.7268,1.0156,447,-6.5918,25.3906,-11.2915,86,1.0605,0.5593,3.9109,-31.7082,28,0.6883,7968,3.8852,115.9449
rg,1625081300301683950,1,0.0273,-0.75,1.0122,448,6.5308,28.0762,-8.667,86,1.0625,0.5623,4.3157,-31.6631,28,0.6883,8367,3.8852,115.0451
rg,1625081300645198535,1,-0.1975,-0.425,0.8438,449,51.0864,59.6313,-20.0806,86,1.0625,0.5663,6.2441,-29.6022,28,0.6823,24588,3.8852,113.1494
rg,1625081300645282183,1,-0.5205,-0.1807,0.8276,450,25.1465,29.7852,-18.0054,86,1.0645,0.5673,7.129,-29.1849,28,0.6803,11243,3.8852,112.5893
rg,1625081300645334090,1,-0.5713,-0.4114,0.9436,451,-20.2026,-32.7148,-14.6484,86,1.0665,0.5683,6.5521,-29.7721,28,0.6813,7728,3.8852,112.749
rg,1625081300645383794,1,-0.1892,-0.3433,0.8733,452,-34.4238,-87.8906,-3.54,86,1.0665,0.5673,3.6502,-30.6677,28,0.6813,7412,3.8852,114.4441
rg,1625081300645432368,1,0.0986,-0.4836,0.9709,453,-46.9971,-101.1353,-1.4648,86,1.0625,0.5623,-0.1623,-32.306,28,0.6803,7612,3.8852,116.5281
rg,1625081300645480701,1,0.416,-0.6548,1.0239,454,-54.8096,-78.7964,-0.1221,86,1.0545,0.5543,-3.5094,-34.551,28,0.6773,7477,3.8852,118.278
rg,1625081300645565349,1,0.4612,-0.6199,1.0759,455,-55.1758,-58.8379,0.3052,86,1.0545,0.5493,-6.1061,-36.7676,28,0.6803,7501,3.8852,119.6741
rg,1625081300645616441,1,0.8215,-0.699,0.8157,456,25.9399,5.6763,10.7422,86,1.0535,0.5503,-5.2839,-35.3637,28,0.6783,8947,3.8852,118.5682
rg,1625081300645662849,1,-0.04,-0.6638,0.9089,457,21.4844,86.6699,1.8311,86,1.0525,0.5513,-2.122,-34.4042,28,0.6773,9589,3.8852,116.6419
rg,1625081300645709385,1,-0.1697,-0.1941,0.6553,458,36.8042,38.6353,-0.1831,86,1.0535,0.5523,-0.2163,-32.2338,28,0.6773,7692,3.8852,115.7721
rg,1625081300645755663,1,-0.0259,-0.3079,0.792,459,21.0571,9.1553,-6.5918,86,1.0525,0.5533,0.0336,-30.953,28,0.6773,7716,3.8852,115.3547
rg,1625081300645800459,1,0.0725,-0.2515,0.7588,460,15.3198,3.1738,-8.1787,86,1.0535,0.5543,-0.2288,-29.8406,28,0.6773,7575,3.8852,115.0063
rg,1625081300645847903,1,0.1062,-0.365,0.8164,461,-2.8076,13.4277,-12.5732,86,1.0535,0.5553,-0.2729,-29.7159,28,0.6783,7622,3.8852,114.301
rg,1625081300645906533,1,0.0344,-0.3337,0.8008,462,-7.2632,19.7754,-15.1367,86,1.0535,0.5553,0.032,-29.7162,28,0.6803,7619,3.8852,113.3809
rg,1625081300645950810,1,-0.0471,-0.4124,0.8428,463,-17.8833,19.6533,-19.4092,86,1.0545,0.5563,0.4344,-30.2821,28,0.6823,7653,3.8852,112.3148
rg,1625081300646110532,1,0.0144,-0.4946,0.9058,464,-19.7754,15.8691,-19.7144,86,1.0555,0.5573,0.453,-31.1251,28,0.6843,7722,3.8852,111.2946
rg,1625081300646174995,1,0.0051,-0.5762,0.9529,465,-24.0479,17.0288,-22.9492,86,1.0575,0.5583,0.5212,-32.0873,28,0.6873,7701,3.8852,110.1559
rg,1625081300646244865,1,-0.084,-0.6338,0.9951,466,-15.686,23.8037,-25.6958,86,1.0585,0.5593,0.911,-32.7381,28,0.6893,7681,3.8852,108.7768
rg,1625081300646296754,1,-0.0942,-0.6553,1.0046,467,-9.0942,21.4233,-23.0713,86,1.0595,0.5613,1.2008,-33.1474,28,0.6903,7731,3.8852,107.5352
rg,1625081300646339476,1,0.0137,-0.7241,1.0352,468,12.6953,18.5547,-19.9585,86,1.0615,0.5623,1.3147,-32.7285,28,0.6913,7756,3.8852,106.4594
rg,1625081300646381975,1,0.2375,-0.7043,0.9709,469,47.4854,30.2734,-18.8599,91,1.0615,0.5653,1.4493,-30.983,28,0.6893,7823,3.8808,105.167
rg,1625081300646450938,1,0.1956,-0.5786,0.9021,470,57.6172,43.7622,-21.4844,91,1.0615,0.5653,2.0682,-28.7935,28,0.6863,7819,3.8808,103.5363
rg,1625081300646494679,1,-0.2585,-0.3452,0.7998,471,49.0723,62.1948,-28.8696,91,1.0605,0.5643,4.2881,-26.7432,28,0.6843,7971,3.8808,101.3694
rg,1625081300646536605,1,-0.5354,-0.3079,0.8433,472,36.1328,48.2788,-29.6631,91,1.0615,0.5653,5.6143,-25.8828,28,0.6833,7834,3.8808,99.9322
rg,1625081300646579215,1,-0.3787,-0.5142,1.0176,473,-6.5308,-41.1987,-22.9492,91,1.0645,0.5683,4.2363,-26.1804,28,0.6853,11052,3.8808,99.8297
rg,1625081300646620641,1,-0.2197,-0.4465,0.9341,474,-7.3242,-65.0024,-18.9209,91,1.0655,0.5683,1.6884,-26.3283,28,0.6863,7971,3.8808,100.3145
rg,1625081300646662845,1,0,-0.4526,0.9341,475,-26.001,-77.6367,-10.2539,91,1.0635,0.5633,-1.3227,-27.3362,28,0.6863,7916,3.8808,101.3556
rg,1625081300646705159,1,0.2261,-0.7156,1.0728,476,-42.9688,-75.6836,-9.0942,91,1.0575,0.5533,-4.4867,-29.3476,28,0.6853,8159,3.8808,102.4891
rg,1625081300646748141,1,0.7771,-0.7368,0.7546,477,38.8184,-32.7148,7.0801,91,1.0585,0.5543,-6.6926,-28.3519,28,0.6853,9970,3.8808,103.3986
rg,1625081300646800474,1,0.6121,-0.0874,0.7927,478,34.6069,-1.2817,-1.2817,91,1.0585,0.5543,-5.3484,-27.3186,28,0.6833,8483,3.8808,102.326
rg,1625081300646844881,1,-0.0881,-0.3491,0.7566,479,28.6865,47.4854,-11.1084,91,1.0575,0.5543,-3.4087,-25.9719,28,0.6813,8957,3.8808,101.0672
rg,1625081300646888159,1,-0.0596,-0.1003,0.6965,480,11.5356,3.6621,-18.3716,91,1.0575,0.5533,-3.2714,-24.7718,28,0.6813,8143,3.8808,100.3015
rg,1625081300996511480,1,0.1631,-0.3733,0.8577,481,-25.3906,10.376,-18.3716,91,1.0575,0.5533,-3.3468,-25.6825,28,0.6843,24852,3.8808,99.4562
rg,1625081300996592850,1,0.0088,-0.5227,0.9609,482,-39.978,21.4844,-20.4468,91,1.0575,0.5543,-2.8308,-27.3232,28,0.6873,13413,3.8808,98.3436
rg,1625081300996644832,1,-0.0198,-0.6765,1.0327,483,-31.6162,17.5171,-22.3389,91,1.0575,0.5543,-2.4865,-28.7584,28,0.6893,9911,3.8808,97.2338
rg,1625081300996693998,1,-0.0125,-0.6782,1.0203,484,-16.3574,13.0615,-22.3999,91,1.0585,0.5563,-2.3468,-29.5516,28,0.6903,7415,3.8808,96.2033
rg,1625081300996739998,1,0.0242,-0.717,1.0571,485,-9.1553,10.3149,-23.1934,91,1.0605,0.5573,-2.4599,-30.0989,28,0.6913,9007,3.8808,95.2019
rg,1625081300996824146,1,0.1338,-0.729,1,486,20.3857,8.9722,-24.7192,91,1.0625,0.5583,-2.7873,-29.4662,28,0.6923,7494,3.8808,94.1735
rg,1625081300996873053,1,0.2874,-0.6448,0.9622,487,34.4849,14.5264,-23.7427,91,1.0635,0.5613,-2.6927,-27.6689,28,0.6903,7436,3.8808,92.7422
rg,1625081300996917646,1,0.1304,-0.5337,0.8672,488,54.3213,43.8843,-29.1138,91,1.0635,0.5623,-1.0586,-25.1706,28,0.6873,9211,3.8808,90.9173
rg,1625081300996960738,1,-0.5356,-0.1299,0.7034,489,30.1514,38.9404,-32.959,91,1.0645,0.5623,1.2036,-23.5045,28,0.6863,7633,3.8808,89.0874
rg,1625081300997004016,1,-0.5637,-0.5266,0.9744,490,2.3193,8.667,-30.6396,91,1.0655,0.5633,0.3297,-24.1454,28,0.6863,7464,3.8808,88.9263
rg,1625081300997047460,1,-0.1877,-0.491,0.9753,491,-12.207,-84.5947,-18.1274,91,1.0655,0.5633,-2.6661,-24.7415,28,0.6863,7653,3.8808,89.669
rg,1625081300997090589,1,0.3291,-0.5,0.9683,492,-30.6396,-88.4399,-12.6953,91,1.0635,0.5593,-6.6172,-26.1413,28,0.6863,7543,3.8808,90.7482
rg,1625081300997133960,1,0.3789,-0.5894,0.9634,493,-35.3394,-68.2983,-9.2163,91,1.0585,0.5543,-9.6748,-27.8765,28,0.6833,7715,3.8808,91.7026
rg,1625081300997177033,1,0.4749,-0.7427,1.3208,494,-27.9541,-32.1045,-4.3945,91,1.0585,0.5533,-11.1842,-29.1256,28,0.6853,7571,3.8808,92.1818
rg,1625081300997218830,1,0.1472,-0.458,0.814,495,23.3154,29.6631,-0.061,91,1.0595,0.5533,-8.5591,-28.1666,28,0.6833,10781,3.8808,90.6914
rg,1625081300997260904,1,-0.1682,-0.4412,0.7764,496,23.3154,74.5239,-2.1973,91,1.0595,0.5543,-5.2221,-27.1105,28,0.6823,7604,3.8808,89.2322
rg,1625081300997302737,1,-0.1167,-0.2717,0.7217,497,17.7002,18.8599,-5.5542,91,1.0595,0.5553,-4.1083,-26.1008,28,0.6833,7640,3.8808,88.6748
rg,1625081300997344051,1,0.1536,-0.2087,0.7126,498,5.249,-2.9907,-11.7798,91,1.0605,0.5563,-4.7205,-25.4779,28,0.6833,8541,3.8808,88.272
rg,1625081300997386033,1,0.1953,-0.2156,0.7131,499,-5.127,-0.1221,-12.8784,91,1.0615,0.5563,-5.3388,-25.3037,28,0.6843,7684,3.8808,87.778
rg,1625081300997605013,1,0.1328,-0.3552,0.7998,500,-19.7754,12.5122,-16.5405,91,1.0625,0.5573,-5.3045,-25.9566,28,0.6863,8536,3.8808,86.9562
rg,1625081300997654809,1,0.0583,-0.5156,0.8945,501,-26.6724,18.7378,-16.9067,91,1.0635,0.5573,-4.8556,-27.0887,28,0.6883,8219,3.8808,86.0257
rg,1625081300997743309,1,0.0945,-0.5425,0.9128,502,-27.0996,17.5171,-16.0522,91,1.0645,0.5603,-4.4768,-28.2172,28,0.6913,8278,3.8808,85.0709
rg,1625081300997788661,1,0.0918,-0.6204,0.9661,503,-25.2686,26.6113,-18.2495,91,1.0655,0.5623,-3.9019,-29.3108,28,0.6923,8153,3.8808,83.9283
rg,1625081300997831975,1,0.0525,-0.7031,1.0012,504,-13.4888,33.1421,-17.5171,91,1.0665,0.5633,-3.0438,-29.9925,28,0.6943,7947,3.8808,82.6748
rg,1625081300998000808,1,0.0918,-0.7131,0.9927,505,-3.1738,33.9355,-17.8223,91,1.0665,0.5643,-2.2155,-29.7377,28,0.6943,8213,3.8808,81.4165
rg,1625081300998064104,1,0.1646,-0.6624,0.9492,506,25.2686,37.9028,-15.2588,91,1.0645,0.5663,-1.4299,-28.8842,28,0.6923,8195,3.8808,80.1453
rg,1625081300998109549,1,0.0725,-0.3826,0.8049,507,40.2832,53.833,-16.4795,91,1.0645,0.5673,0.0266,-27.1142,28,0.6903,7989,3.8808,78.5443
rg,1625081300998169919,1,-0.5984,-0.4253,0.8279,508,-1.1597,42.7246,-27.4048,91,1.0655,0.5683,2.2669,-27.1921,28,0.6903,8612,3.8808,76.7886
rg,1625081300998216641,1,-0.6138,-0.5906,0.9824,509,-13.4277,4.2114,-20.3857,91,1.0675,0.5683,3.0281,-27.8919,28,0.6923,8635,3.8808,75.9776
rg,1625081300998260863,1,-0.0894,-0.6028,0.9707,510,-17.9443,-67.688,-14.8926,91,1.0675,0.5653,0.4293,-28.7332,28,0.6923,8064,3.8808,76.7335
rg,1625081300998304048,1,0.2305,-0.5605,0.9255,511,-23.1934,-72.2656,-10.6812,91,1.0635,0.5603,-2.7791,-29.7679,28,0.6913,7931,3.8808,77.7804
rg,1625081300998349640,1,0.3164,-0.7195,1.146,512,-25.6348,-59.6924,-10.2539,91,1.0635,0.5563,-5.8099,-31.3659,28,0.6913,8308,3.8808,78.682
rg,1625081301338684390,1,0.0054,-0.3459,0.6785,513,49.5605,45.3491,-6.6528,91,1.0625,0.5543,-4.1693,-29.1094,28,0.6873,22986,3.8808,77.5183
rg,1625081301338811056,1,0.001,-0.2722,0.7148,514,38.269,21.0571,-13.6108,91,1.0635,0.5553,-4.0952,-27.2669,28,0.6873,8963,3.8808,76.7472
rg,1625081301338866778,1,0.1431,-0.1477,0.6772,515,25.1465,10.6812,-14.7705,91,1.0635,0.5563,-4.3609,-26.1906,28,0.6883,9885,3.8808,75.9396
rg,1625081301339003389,1,0.1621,-0.2344,0.7246,516,3.479,17.8223,-18.9819,91,1.0635,0.5573,-4.3566,-25.6495,28,0.6893,7412,3.8808,74.9148
rg,1625081301339055444,1,-0.0273,-0.4312,0.8928,517,-15.3809,28.0762,-21.4233,91,1.0635,0.5583,-3.4895,-26.1747,28,0.6923,7588,3.8808,73.6485
rg,1625081301339104629,1,-0.0186,-0.5508,0.9465,518,-14.4653,21.5454,-21.4233,91,1.0645,0.5593,-3.0634,-26.9057,28,0.6943,8827,3.8808,72.5077
rg,1625081301339151277,1,0.0991,-0.6492,1.0066,519,-4.8828,17.1509,-18.7378,91,1.0655,0.5613,-2.8621,-27.276,28,0.6963,7697,3.8808,71.5387
rg,1625081301339197221,1,0.1123,-0.6587,1.0076,520,11.1084,27.0996,-19.104,91,1.0665,0.5623,-2.3475,-27.0047,28,0.6983,7574,3.8808,70.373
rg,1625081301339241851,1,0.1047,-0.6199,1.0022,521,20.874,28.9307,-19.7144,91,1.0675,0.5643,-1.779,-26.3077,28,0.6993,7803,3.8808,69.1539
rg,1625081301339285406,1,0.1653,-0.658,0.989,522,42.2363,33.6914,-24.8413,91,1.0685,0.5653,-1.2402,-24.8642,28,0.6983,7602,3.8808,67.6796
rg,1625081301339328313,1,-0.0198,-0.2915,0.8152,523,62.7441,47.6685,-28.0151,91,1.0685,0.5663,0.1553,-22.1343,28,0.6963,9794,3.8808,65.8885
rg,1625081301339372795,1,-0.6526,-0.4148,0.8887,524,42.4194,47.6685,-35.2783,91,1.0695,0.5673,1.8256,-21.7313,28,0.6963,8529,3.8808,64.297
rg,1625081301339415832,1,-0.575,-0.5024,0.9824,525,3.9062,-17.9443,-25.5127,91,1.0695,0.5683,1.7656,-21.7795,28,0.6963,7633,3.8808,63.6112
rg,1625081301339458405,1,0.0027,-0.5723,0.9744,526,-3.2349,-83.252,-23.2544,91,1.0685,0.5673,-1.7321,-22.2437,28,0.6963,7965,3.8808,63.9908
rg,1625081301339502257,1,0.2073,-0.4473,0.8845,527,-3.1738,-86.2427,-18.6768,91,1.0645,0.5653,-5.8304,-22.5531,28,0.6963,7750,3.8808,64.6253
rg,1625081301339563683,1,0.5417,-0.7812,1.1331,528,5.4321,-59.3872,-15.0757,91,1.0635,0.5643,-8.8601,-22.8209,28,0.6963,7915,3.8808,65.0368
rg,1625081301339610109,1,0.5437,-0.4751,0.8679,529,51.5137,-9.5825,-15.7471,91,1.0625,0.5623,-10.2217,-20.8913,28,0.6953,7941,3.8808,64.6065
rg,1625081301339654090,1,0.2642,-0.436,0.7258,530,64.6362,20.874,-18.1885,91,1.0625,0.5613,-9.9691,-18.5218,28,0.6933,7735,3.8808,63.6861
rg,1625081301339744682,1,0.0291,-0.2783,0.6465,531,72.0825,16.3574,-21.3623,91,1.0615,0.5613,-9.2968,-15.6648,28,0.6913,8007,3.8808,62.7029
rg,1625081301339795164,1,0.0542,-0.2456,0.6562,532,69.2749,-6.2866,-25.3296,91,1.0625,0.5603,-9.5967,-12.941,28,0.6903,7840,3.8808,61.8071
rg,1625081301339837830,1,0.1792,-0.0562,0.5544,533,66.1621,-21.9116,-25.0854,91,1.0605,0.5623,-10.9742,-9.8787,28,0.6903,10424,3.8808,60.9289
rg,1625081301340238699,1,0.2209,-0.074,0.5571,534,57.6172,-28.5034,-26.7944,91,1.0605,0.5623,-12.6664,-7.3044,28,0.6903,7923,3.8808,59.9942
rg,1625081301340467458,1,0.2874,-0.2371,0.6548,535,43.8843,-29.6021,-28.8086,91,1.0605,0.5633,-14.3626,-5.7792,28,0.6923,8072,3.8808,59.0541
rg,1625081301340534031,1,0.3198,-0.2466,0.6609,536,47.3022,-21.3013,-27.5879,91,1.0605,0.5643,-15.7128,-4.1566,28,0.6943,7923,3.8808,58.1215
rg,1625081301340579494,1,0.3337,-0.2297,0.6538,537,49.6826,-16.3574,-25.0854,91,1.0615,0.5653,-16.8321,-2.4497,28,0.6963,8110,3.8808,57.263
rg,1625081301340644994,1,0.3643,-0.2917,0.7009,538,56.8848,-5.9204,-20.5078,91,1.0635,0.5673,-17.4717,-0.6655,28,0.6983,8020,3.8808,56.6203
rg,1625081301340690068,1,0.3313,-0.2954,0.709,539,69.8853,7.5073,-16.2964,91,1.0645,0.5683,-17.4443,1.5105,28,0.7003,8125,3.8808,56.181
rg,1625081301340735771,1,0.2773,-0.2791,0.7097,540,75.9888,14.7705,-16.5405,91,1.0665,0.5693,-16.9772,3.8657,28,0.7013,8042,3.8808,55.7784
rg,1625081301340781605,1,0.2266,-0.2134,0.6714,541,95.6421,18.4937,-13.7329,91,1.0665,0.5703,-16.2713,6.9938,28,0.6983,8202,3.8808,55.5226
rg,1625081301340826660,1,0.4209,-0.3035,0.7305,542,115.5396,23.8037,-10.8643,91,1.0645,0.5693,-15.8072,10.6548,28,0.6953,8079,3.8808,55.502
rg,1625081301340870178,1,0.3665,-0.2417,0.6865,543,123.7793,37.3535,-16.0522,91,1.0625,0.5683,-14.4171,14.6777,28,0.6913,8256,3.8808,55.4596
rg,1625081301340916178,1,0.1213,-0.176,0.6743,544,126.2207,51.7578,-19.2871,91,1.0615,0.5663,-12.12,18.6142,28,0.6873,8124,3.8808,55.5989
rg,1625081301684496955,1,0.0742,-0.1074,0.7014,545,131.4697,14.0991,-16.2354,91,1.0585,0.5653,-11.4302,22.9756,28,0.6793,24868,3.8808,55.2686
rg,1625081301684614065,1,0.1167,-0.0798,0.7146,546,136.3525,-4.7607,-13.3057,91,1.0575,0.5663,-11.3511,27.3986,28,0.6773,14388,3.8808,54.9211
rg,1625081301684757731,1,0.1453,-0.0488,0.7258,547,141.1743,-12.085,-9.5825,91,1.0585,0.5663,-11.6475,31.9594,28,0.6773,7420,3.8808,54.5695
rg,1625081301684812491,1,0.1956,-0.0649,0.7847,548,142.8833,-16.4185,-7.6904,91,1.0585,0.5673,-12.3204,36.5994,28,0.6763,7523,3.8808,54.2002
rg,1625081301684865324,1,0.2305,-0.0786,0.8018,549,152.771,-21.2402,-2.9907,91,1.0585,0.5673,-13.1775,41.3263,28,0.6763,7373,3.8808,53.8699
rg,1625081301684914268,1,0.2971,-0.0986,0.8279,550,168.5181,-18.3716,1.4648,91,1.0585,0.5683,-14.1745,46.5178,28,0.6763,7539,3.8808,53.747
rg,1625081301685017490,1,0.314,-0.1025,0.8403,551,191.4062,-10.376,9.9487,91,1.0605,0.5703,-15.2185,52.3939,28,0.6783,10453,3.8808,54.1015
rg,1625081301685068934,1,0.3193,-0.0923,0.8267,552,202.8809,-5.7983,13.6719,91,1.0605,0.5703,-16.3189,58.6007,28,0.6783,8399,3.8808,54.6865
rg,1625081301685113712,1,0.3049,-0.0198,0.7476,553,228.6377,1.9531,20.9961,91,1.0615,0.5723,-17.5803,65.6778,28,0.6803,7479,3.8808,55.6727
rg,1625081301685305896,1,0.2729,0.0808,0.6497,554,246.2769,3.6621,23.9258,91,1.0625,0.5723,-18.9609,73.4638,28,0.6813,7588,3.8808,56.7043
rg,1625081301685354081,1,0.2634,0.1057,0.6257,555,254.6997,1.0376,25.3296,91,1.0635,0.5733,-20.5007,81.5353,28,0.6843,7846,3.8808,57.5932
rg,1625081301685399026,1,0.3311,0.1985,0.5762,556,268.1885,-2.8687,27.0386,91,1.0655,0.5733,-22.319,90.3615,28,0.6843,7945,3.8808,58.1639
rg,1625081301685443396,1,0.3752,0.2605,0.5439,557,275.0854,-2.5635,27.0386,91,1.0665,0.5733,-24.1203,99.7825,28,0.6853,7856,3.8808,58.7332
rg,1625081301685491322,1,0.3972,0.4023,0.4885,558,279.2358,6.958,23.9868,91,1.0665,0.5743,-25.8766,109.0883,28,0.6863,7627,3.8808,59.4593
rg,1625081301685533766,1,0.4292,0.4729,0.54,559,271.4233,20.1416,23.3154,91,1.0665,0.5743,-27.8305,117.7357,28,0.6873,7911,3.8808,60.696
rg,1625081301685578840,1,0.4426,0.4983,0.5796,560,267.2119,28.5645,23.4375,91,1.0675,0.5753,-30.0345,125.9181,28,0.6873,8414,3.8808,62.2311
rg,1625081301685621562,1,0.4019,0.5557,0.6526,561,259.6436,47.8516,24.231,91,1.0675,0.5763,-32.8115,133.3904,28,0.6883,8402,3.8808,64.3775
rg,1625081301685702043,1,0.405,0.6304,0.7073,562,253.9673,58.5327,25.3906,91,1.0685,0.5753,-36.0533,140.4481,28,0.6883,7767,3.8808,66.7293
rg,1625081301685756376,1,0.405,0.7283,0.7549,563,252.1973,64.4531,25.3296,91,1.0685,0.5763,-39.8237,147.0623,28,0.6893,8438,3.8808,69.4174
rg,1625081301685797802,1,0.397,0.7854,0.7764,564,245.6665,79.895,26.001,91,1.0695,0.5763,-44.0313,153.4959,28,0.6893,7791,3.8808,72.07
rg,1625081301685840080,1,0.3025,0.8818,0.7954,565,233.7646,99.8535,30.4565,91,1.0695,0.5763,-49.0268,159.2867,28,0.6913,7752,3.8808,74.8577
rg,1625081301685881894,1,0.1509,1.0059,0.7898,566,214.5386,113.5254,34.5459,91,1.0705,0.5763,-54.4728,164.2798,28,0.6923,13258,3.8808,77.6161
rg,1625081301685927024,1,0.0691,1.1216,0.8066,567,186.2793,113.4644,39.7949,91,1.0705,0.5753,-59.9496,168.5621,28,0.6923,7816,3.8808,79.9042
rg,1625081301685970061,1,-0.0544,1.1689,0.8145,568,153.3203,110.7788,42.7246,91,1.0705,0.5733,-65.3038,171.9868,28,0.6933,7969,3.8808,81.7782
rg,1625081301686015005,1,-0.1265,1.1785,0.8401,569,135.2539,104.126,42.3584,91,1.0705,0.5723,-70.4092,175.1363,28,0.6943,8276,3.8808,83.3323
rg,1625081301686230504,1,-0.1931,1.1499,0.8801,570,100.5859,82.8247,40.7715,91,1.0705,0.5723,-74.7271,177.323,28,0.6943,7964,3.8808,84.608
rg,1625081301686280837,1,-0.1707,1.0837,0.9392,571,71.7163,58.4717,37.5977,91,1.0715,0.5703,-78.1858,178.4514,28,0.6953,10296,3.8808,85.9352
rg,1625081301686324485,1,-0.1326,1.0178,1.0364,572,55.2368,44.9219,33.4473,91,1.0705,0.5693,-81.1467,178.3621,28,0.6963,8753,3.8808,87.9307
rg,1625081301686474114,1,-0.1553,0.9229,1.0884,573,51.1475,41.748,30.8228,91,1.0715,0.5693,-83.6433,174.5491,28,0.6963,7944,3.8808,93.3127
rg,1625081301686519096,1,-0.1899,0.8918,1.0974,574,48.4619,35.2783,25.2075,91,1.0715,0.5683,-85.1033,142.6944,28,0.6953,8444,3.8808,122.2369
rg,1625081301686561596,1,-0.175,0.8806,1.0847,575,49.6216,24.0479,19.9585,91,1.0715,0.5673,-84.8639,38.0441,28,0.6963,8520,3.8808,-129.4804
rg,1625081301686622706,1,-0.1575,0.8853,1.0579,576,48.4009,16.8457,14.8315,91,1.0715,0.5673,-83.4672,29.5299,28,0.6963,8353,3.8808,-116.8917
rg,1625081302039321070,1,-0.3713,0.793,1.1965,577,53.894,14.4043,7.3853,91,1.0725,0.5683,-81.5864,27.1915,28,0.6983,25436,3.8808,-111.6997
rg,1625081302039411958,1,-0.3264,0.759,1.5164,578,76.355,-0.2441,8.606,91,1.0725,0.5683,-79.7776,27.8427,28,0.6983,14430,3.8808,-109.1269
rg,1625081302039467106,1,-0.4568,0.8723,1.6951,579,88.1958,-1.8921,-0.2441,91,1.0735,0.5673,-77.7781,31.0813,28,0.6983,8811,3.8808,-108.7818
rg,1625081302039689717,1,-0.6208,0.8535,1.7915,580,94.6045,-22.0947,-5.4932,91,1.0735,0.5663,-76.256,36.4312,28,0.6983,7652,3.8808,-110.4377
rg,1625081302039743994,1,-0.6797,0.8853,1.7212,581,99.5483,-39.856,-5.7373,91,1.0735,0.5653,-75.1765,43.2965,28,0.6993,7539,3.8808,-113.5245
rg,1625081302039793179,1,-0.4792,1.0867,1.5249,582,95.0928,-88.8062,-4.5776,91,1.0735,0.5623,-75.1035,56.0119,28,0.7003,7579,3.8808,-122.9132
rg,1625081302039841642,1,-0.1677,1.1719,1.2957,583,68.6646,-118.2861,-5.7373,91,1.0735,0.5583,-74.8315,72.3864,28,0.7013,9797,3.8808,-137.2078
rg,1625081302039893753,1,-0.0024,1.1672,1.2158,584,52.6123,-123.5962,-9.2773,91,1.0725,0.5553,-73.5793,86.9465,28,0.7023,7805,3.8808,-151.0033
rg,1625081302040135178,1,0.304,1.1177,1.0498,585,23.8037,-112.793,-11.8408,91,1.0725,0.5523,-71.5822,97.3484,28,0.7023,7639,3.8808,-161.2013
rg,1625081302040280030,1,0.4595,1.0618,0.8945,586,2.7466,-72.876,-11.9019,91,1.0735,0.5523,-69.5769,100.6167,28,0.7043,7901,3.8808,-164.9934
rg,1625081302040331344,1,0.4468,1.0432,0.8201,587,-8.4839,-52.3682,-12.2681,91,1.0735,0.5513,-67.6625,100.8386,28,0.7053,7670,3.8808,-166.146
rg,1625081302040381159,1,0.3789,0.8977,0.6958,588,-41.9922,-17.2119,-16.1133,89,1.0745,0.5533,-65.8542,96.4288,28,0.7063,13861,3.8841,-163.8171
rg,1625081302040428529,1,0.4009,0.8079,0.6333,589,-58.7158,-1.5869,-19.5923,89,1.0745,0.5543,-63.9923,90.633,28,0.7063,7699,3.8841,-160.6623
rg,1625081302040472992,1,0.4197,0.7781,0.6077,590,-63.4155,8.5449,-23.8037,89,1.0745,0.5543,-61.9177,84.6672,28,0.7073,7867,3.8841,-157.4346
rg,1625081302040519177,1,0.3579,0.7087,0.5679,591,-71.4722,30.5176,-30.5786,89,1.0745,0.5553,-59.332,77.6889,28,0.7073,7729,3.8841,-153.3119
rg,1625081302040565362,1,0.2085,0.6543,0.5425,592,-76.0498,43.9453,-38.208,89,1.0755,0.5573,-55.9631,70.8225,28,0.7073,8000,3.8841,-149.3689
rg,1625081302040612121,1,0.1616,0.6196,0.55,593,-76.355,42.7856,-39.0015,89,1.0745,0.5573,-52.3856,65.1746,28,0.7073,9076,3.8841,-146.7467
rg,1625081302040657084,1,0.1628,0.5791,0.5789,594,-71.5332,35.9497,-43.8232,89,1.0745,0.5583,-48.7847,60.5709,28,0.7073,7952,3.8841,-145.0754
rg,1625081302040702510,1,0.2107,0.5667,0.5874,595,-61.7065,32.2266,-45.0439,89,1.0745,0.5583,-45.367,57.0259,28,0.7073,7837,3.8841,-144.1541
rg,1625081302040786491,1,0.229,0.5674,0.5933,596,-56.3965,31.9824,-46.9971,89,1.0745,0.5593,-41.9512,54.32,28,0.7083,7976,3.8841,-143.6419
rg,1625081302040835361,1,0.2124,0.5442,0.6235,597,-41.2598,31.311,-49.8657,89,1.0755,0.5603,-38.5954,52.1772,28,0.7083,7888,3.8841,-143.4519
rg,1625081302040879676,1,0.1978,0.53,0.646,598,-22.9492,26.2451,-51.2085,89,1.0755,0.5603,-35.4061,50.9812,28,0.7083,8050,3.8841,-143.6258
rg,1625081302040943990,1,0.21,0.5242,0.6492,599,-12.5732,21.9116,-52.5513,89,1.0765,0.5613,-32.4525,50.3154,28,0.7083,7871,3.8841,-144.059
rg,1625081302041002694,1,0.2302,0.5266,0.6829,600,9.8877,14.5874,-53.1006,89,1.0755,0.5613,-29.7903,50.6771,28,0.7083,8119,3.8841,-144.7921
rg,1625081302041050342,1,0.2683,0.5493,0.6843,601,36.5601,8.9111,-55.2368,89,1.0765,0.5623,-27.3641,52.2068,28,0.7093,7911,3.8841,-145.7677
rg,1625081302041096305,1,0.2864,0.5728,0.6724,602,48.7061,5.3711,-53.6499,89,1.0765,0.5623,-25.2105,54.7532,28,0.7093,8094,3.8841,-146.8728
rg,1625081302041140490,1,0.332,0.6365,0.6465,603,71.228,2.4414,-53.1616,89,1.0765,0.5633,-23.2055,57.662,28,0.7093,7917,3.8841,-147.8862
rg,1625081302041185193,1,0.4026,0.7024,0.6021,604,87.2803,3.9062,-49.8657,89,1.0775,0.5633,-21.4342,61.1702,28,0.7093,8174,3.8841,-148.6983
rg,1625081302041228897,1,0.4478,0.7441,0.5854,605,92.7734,9.9487,-47.7295,89,1.0775,0.5633,-19.7144,64.8208,28,0.7093,8176,3.8841,-148.8078
rg,1625081302041270989,1,0.4719,0.811,0.5554,606,98.5107,28.0762,-41.626,89,1.0775,0.5633,-17.9933,68.2688,28,0.7103,8194,3.8841,-148.2968
rg,1625081302041316582,1,0.4851,0.8647,0.5264,607,97.5952,48.0957,-32.1045,89,1.0775,0.5633,-16.4463,71.3727,28,0.7103,8053,3.8841,-146.7559
rg,1625081302041359915,1,0.4778,0.9207,0.5198,608,92.2852,70.8008,-22.0947,89,1.0775,0.5643,-15.0952,73.9509,28,0.7113,8623,3.8841,-144.1027
rg,1625081302376596535,1,0.3499,1.0002,0.5234,609,67.0166,114.4409,-2.9907,89,1.0785,0.5653,-13.8001,74.9931,28,0.7123,25876,3.8841,-139.4471
rg,1625081302376680646,1,0.178,0.9707,0.5879,610,45.166,128.8452,10.2539,89,1.0785,0.5653,-12.7055,74.9376,28,0.7133,15418,3.8841,-134.0666
rg,1625081302376774905,1,0.0745,0.9536,0.6316,611,33.3862,126.4648,14.2822,89,1.0785,0.5663,-11.6087,74.435,28,0.7133,7462,3.8841,-128.7582
rg,1625081302376827386,1,-0.021,0.9128,0.6643,612,29.2358,123.0469,15.9912,89,1.0785,0.5663,-10.5806,73.6783,28,0.7143,7796,3.8841,-123.7335
rg,1625081302376876830,1,-0.0388,0.9016,0.6902,613,21.6675,112.6099,19.8364,89,1.0785,0.5663,-9.5939,72.8876,28,0.7143,7481,3.8841,-118.9688
rg,1625081302376924237,1,-0.1204,0.8618,0.7046,614,17.395,98.7549,22.0947,89,1.0785,0.5673,-8.6694,72.0547,28,0.7143,7630,3.8841,-114.7436
rg,1625081302376972237,1,-0.1375,0.8455,0.7373,615,16.3574,89.7827,22.644,89,1.0785,0.5673,-7.824,71.2608,28,0.7143,7509,3.8841,-110.8793
rg,1625081302377019404,1,-0.2273,0.8096,0.7363,616,17.8223,71.106,24.353,89,1.0785,0.5683,-7.0896,70.6672,28,0.7143,7856,3.8841,-107.7293
rg,1625081302377066755,1,-0.2219,0.8245,0.7104,617,19.9585,57.251,24.5972,89,1.0775,0.5683,-6.7769,70.412,28,0.7143,7538,3.8841,-105.5829
rg,1625081302377112218,1,-0.1646,0.8594,0.697,618,18.8599,30.4565,24.8413,89,1.0775,0.5683,-6.7219,70.2206,28,0.7133,7709,3.8841,-104.0041
rg,1625081302377155644,1,-0.1946,0.8347,0.7168,619,11.5356,20.5078,20.0195,89,1.0785,0.5693,-6.556,69.742,28,0.7133,7573,3.8841,-102.8621
rg,1625081302377197959,1,-0.1396,0.7937,0.7378,620,11.0474,14.1602,24.0479,89,1.0785,0.5703,-6.731,69.193,28,0.7133,7748,3.8841,-101.8928
rg,1625081302377240996,1,-0.0605,0.8276,0.6763,621,15.9912,8.1787,19.9585,89,1.0785,0.5703,-6.9788,69.0223,28,0.7133,7616,3.8841,-101.2149
rg,1625081302377284384,1,-0.0586,0.8157,0.6719,622,15.1367,8.4229,19.9585,89,1.0785,0.5703,-7.0928,68.756,28,0.7123,7778,3.8841,-100.5243
rg,1625081302377329532,1,-0.0557,0.8059,0.6687,623,13.1226,9.4604,15.8691,89,1.0785,0.5703,-7.1594,68.4686,28,0.7123,7621,3.8841,-99.8478
rg,1625081302377374199,1,-0.0269,0.8271,0.6448,624,12.207,8.1177,11.4746,89,1.0785,0.5713,-7.1361,68.2352,28,0.7123,7855,3.8841,-99.2926
rg,1625081302377416865,1,0.0034,0.8223,0.6467,625,10.8643,7.0801,7.4463,89,1.0785,0.5713,-7.0428,67.96,28,0.7123,7720,3.8841,-98.8351
rg,1625081302377501180,1,0.0095,0.8149,0.6282,626,9.8877,11.5967,-0.061,89,1.0785,0.5723,-6.6187,67.6738,28,0.7123,7828,3.8841,-98.3265
rg,1625081302377554809,1,-0.0107,0.8193,0.613,627,9.8267,11.9629,-5.249,89,1.0785,0.5713,-5.9661,67.44,28,0.7123,8422,3.8841,-97.8945
rg,1625081302377597976,1,-0.0115,0.8083,0.5994,628,9.2163,11.0474,-6.1035,89,1.0795,0.5713,-5.1557,67.18,28,0.7133,7708,3.8841,-97.5506
rg,1625081302377849846,1,-0.0034,0.8154,0.6023,629,8.7891,9.0942,-9.8877,89,1.0785,0.5713,-4.4452,66.9639,28,0.7133,7927,3.8841,-97.3186
rg,1625081302377902438,1,0.0081,0.8105,0.6077,630,9.7656,5.188,-12.9395,89,1.0795,0.5723,-3.7359,66.7961,28,0.7133,7832,3.8841,-97.2864
rg,1625081302377948401,1,0.021,0.8152,0.6028,631,10.8032,2.4414,-13.855,89,1.0795,0.5723,-3.1015,66.6891,28,0.7133,7943,3.8841,-97.4389
rg,1625081302377998956,1,0.0364,0.8042,0.6072,632,11.7188,-1.77,-14.5874,89,1.0795,0.5723,-2.5567,66.6174,28,0.7143,7816,3.8841,-97.7039
rg,1625081302378048845,1,0.054,0.8242,0.6033,633,15.0757,-6.4697,-13.2446,89,1.0785,0.5723,-2.1933,66.7197,28,0.7143,8203,3.8841,-98.1272
rg,1625081302378289140,1,0.071,0.823,0.6023,634,16.0522,-9.7046,-11.1084,89,1.0795,0.5723,-2.045,66.8778,28,0.7143,7884,3.8841,-98.6391
rg,1625081302378342177,1,0.0933,0.832,0.6006,635,18.3716,-10.7422,-11.8408,89,1.0795,0.5723,-1.9025,67.1191,28,0.7143,8136,3.8841,-99.2006
rg,1625081302378389214,1,0.1121,0.8447,0.5835,636,20.2026,-11.6577,-11.0474,89,1.0795,0.5723,-1.8464,67.4707,28,0.7143,7919,3.8841,-99.7851
rg,1625081302378435973,1,0.1245,0.8464,0.5764,637,20.813,-12.146,-9.0332,89,1.0795,0.5723,-1.9159,67.8746,28,0.7143,8058,3.8841,-100.3572
rg,1625081302378499603,1,0.1421,0.8672,0.5642,638,20.813,-11.7798,-7.2021,89,1.0795,0.5723,-2.058,68.2832,28,0.7153,7897,3.8841,-100.8872
rg,1625081302378542232,1,0.1577,0.8711,0.5525,639,20.5078,-8.667,-6.958,89,1.0795,0.5723,-2.1891,68.6872,28,0.7153,8108,3.8841,-101.2962
rg,1625081302378585584,1,0.1589,0.8748,0.5564,640,20.0806,-6.2256,-5.6152,89,1.0795,0.5723,-2.3285,69.0522,28,0.7153,7974,3.8841,-101.592
rg,1625081302732135569,1,0.1628,0.8794,0.55,641,14.7095,5.6763,-5.127,89,1.0805,0.5723,-2.3197,69.1874,28,0.7153,24701,3.8841,-101.4332
rg,1625081302732233014,1,0.1426,0.8765,0.5574,642,11.9629,13.916,-4.8218,89,1.0805,0.5723,-2.1635,69.1778,28,0.7163,14129,3.8841,-100.9601
rg,1625081302732286458,1,0.1343,0.8845,0.5615,643,11.5356,15.0757,-4.6997,89,1.0805,0.5733,-1.9813,69.1524,28,0.7163,7555,3.8841,-100.4433
rg,1625081302732337198,1,0.1003,0.8823,0.5635,644,9.8267,15.3198,-3.3569,89,1.0805,0.5733,-1.7799,69.0529,28,0.7163,7566,3.8841,-99.9003
rg,1625081302732386124,1,0.1162,0.8884,0.564,645,9.9487,14.7705,-3.0518,89,1.0805,0.5733,-1.6771,68.9627,28,0.7163,7948,3.8841,-99.3503
rg,1625081302732433069,1,0.1025,0.8884,0.5645,646,8.1177,18.0664,-2.9907,89,1.0805,0.5723,-1.4636,68.8075,28,0.7163,7609,3.8841,-98.7035
rg,1625081302732478309,1,0.0757,0.8879,0.5671,647,5.3101,16.8457,-0.9766,89,1.0805,0.5733,-1.2908,68.5425,28,0.7163,8791,3.8841,-98.0765
rg,1625081302732524087,1,0.082,0.8669,0.5789,648,4.1504,13.3057,-1.5259,89,1.0805,0.5723,-1.1684,68.2013,28,0.7153,7750,3.8841,-97.5913
rg,1625081302732569531,1,0.0947,0.8789,0.5718,649,3.8452,10.0708,0.2441,89,1.0805,0.5723,-1.1875,67.8905,28,0.7153,7586,3.8841,-97.2032
rg,1625081302732619660,1,0.1038,0.8687,0.5803,650,3.0518,6.7749,1.2207,89,1.0805,0.5723,-1.3094,67.5353,28,0.7153,7706,3.8841,-96.9228
rg,1625081302732667290,1,0.1169,0.8662,0.5798,651,3.7231,7.1411,0.2441,89,1.0805,0.5723,-1.4693,67.1748,28,0.7153,7572,3.8841,-96.6755
rg,1625081302732715160,1,0.1265,0.8547,0.5708,652,3.3569,6.0425,1.77,89,1.0805,0.5723,-1.6613,66.8602,28,0.7153,7773,3.8841,-96.4124
rg,1625081302732757345,1,0.1279,0.8447,0.5706,653,3.3569,6.2866,0.1831,89,1.0805,0.5723,-1.7879,66.5462,28,0.7153,7645,3.8841,-96.164
rg,1625081302732800104,1,0.1357,0.8438,0.5757,654,4.5166,4.3945,1.8311,89,1.0805,0.5713,-2.0151,66.2813,28,0.7153,7769,3.8841,-95.9585
rg,1625081302733986137,1,0.1458,0.8533,0.5583,655,5.8594,5.0049,2.0142,89,1.0805,0.5723,-2.2517,66.122,28,0.7163,7841,3.8841,-95.7279
rg,1625081302734135137,1,0.1479,0.854,0.5588,656,6.5918,5.9204,0.7324,89,1.0805,0.5723,-2.4214,65.9969,28,0.7163,7856,3.8841,-95.4832
rg,1625081302734192655,1,0.1499,0.8496,0.5566,657,6.7139,4.8828,0.5493,89,1.0805,0.5723,-2.5999,65.8815,28,0.7163,7704,3.8841,-95.2786
rg,1625081302734446117,1,0.1545,0.8491,0.5559,658,7.0801,6.6528,0.9766,89,1.0815,0.5723,-2.7682,65.7823,28,0.7163,7771,3.8841,-95.0015
rg,1625081302734518043,1,0.1479,0.8525,0.552,659,7.2021,8.2397,-1.6479,89,1.0815,0.5723,-2.7934,65.7015,28,0.7163,12005,3.8841,-94.709
rg,1625081302734712302,1,0.1504,0.8643,0.5408,660,7.1411,9.3994,-2.5635,89,1.0815,0.5723,-2.7691,65.6548,28,0.7163,7826,3.8841,-94.3912
rg,1625081302734762913,1,0.1509,0.8767,0.5381,661,6.897,10.8032,-2.5635,89,1.0815,0.5723,-2.7057,65.6354,28,0.7163,7934,3.8841,-94.0244
rg,1625081302734810838,1,0.1511,0.8713,0.5332,662,5.3711,11.5967,-4.5166,89,1.0815,0.5723,-2.5782,65.5414,28,0.7163,7834,3.8841,-93.6604
rg,1625081302734860523,1,0.1472,0.885,0.5386,663,3.0518,12.085,-3.7231,89,1.0815,0.5723,-2.4626,65.363,28,0.7163,8103,3.8841,-93.2673
rg,1625081302734907542,1,0.1455,0.8813,0.5571,664,2.2583,12.0239,-5.6152,89,1.0805,0.5723,-2.3,65.1059,28,0.7153,9075,3.8841,-92.9409
rg,1625081302734953857,1,0.144,0.885,0.5625,665,1.77,11.2305,-4.8218,89,1.0805,0.5723,-2.1565,64.8536,28,0.7153,8411,3.8841,-92.6003
rg,1625081302734998912,1,0.1467,0.8945,0.5645,666,1.1597,8.4229,-5.127,89,1.0805,0.5713,-2.0566,64.5989,28,0.7163,9443,3.8841,-92.3698
rg,1625081302735044153,1,0.1462,0.8821,0.5647,667,0,8.667,-6.3477,89,1.0805,0.5713,-1.9135,64.2942,28,0.7153,8137,3.8841,-92.1531
rg,1625081302735087356,1,0.1458,0.8855,0.5647,668,-0.4272,8.3008,-6.8359,89,1.0805,0.5723,-1.8513,63.9763,28,0.7163,7963,3.8841,-92.0077
rg,1625081302735130319,1,0.1506,0.8821,0.5618,669,-0.9766,6.1035,-6.0425,89,1.0805,0.5713,-1.7794,63.666,28,0.7163,8028,3.8841,-91.884
rg,1625081302735219356,1,0.1492,0.8777,0.5537,670,-0.9766,5.188,-4.0894,89,1.0815,0.5713,-1.795,63.3776,28,0.7163,8049,3.8841,-91.7613
rg,1625081302735283707,1,0.1392,0.8813,0.5515,671,-1.1597,5.4932,-3.54,89,1.0805,0.5713,-1.8222,63.1041,28,0.7163,8073,3.8841,-91.6612
rg,1625081302735325596,1,0.1316,0.8777,0.5486,672,-1.8921,3.3569,-2.9907,89,1.0805,0.5713,-1.8701,62.8115,28,0.7163,8090,3.8841,-91.5874
rg,1625081303064671007,1,0.136,0.8796,0.5415,673,-3.6011,-1.8921,-0.8545,89,1.0805,0.5713,-2.097,62.4826,28,0.7174,24902,3.8841,-91.6629
rg,1625081303064769285,1,0.1414,0.8857,0.5352,674,-3.9673,-2.9297,-1.77,89,1.0815,0.5713,-2.313,62.1732,28,0.7174,9754,3.8841,-91.7926
rg,1625081303064820618,1,0.1323,0.8792,0.5293,675,-5.9204,-4.8828,-0.9766,89,1.0815,0.5713,-2.5685,61.8042,28,0.7174,10016,3.8841,-91.9768
rg,1625081303064871155,1,0.1519,0.8713,0.5315,676,-7.3853,-5.9814,-2.4414,89,1.0815,0.5713,-2.8285,61.3826,28,0.7174,7465,3.8841,-92.2262
rg,1625081303064918654,1,0.167,0.8713,0.5229,677,-7.9346,-5.249,-3.9062,89,1.0815,0.5713,-3.0489,60.9733,28,0.7184,7429,3.8841,-92.4788
rg,1625081303064965562,1,0.1523,0.8643,0.5342,678,-8.9111,-2.1362,-6.2256,89,1.0815,0.5713,-3.0898,60.5086,28,0.7184,7658,3.8841,-92.6669
rg,1625081303065010450,1,0.1313,0.8611,0.5278,679,-9.2163,-0.4272,-6.0425,89,1.0815,0.5723,-3.0202,60.1238,28,0.7184,7540,3.8841,-92.7608
rg,1625081303065055061,1,0.1277,0.8589,0.5295,680,-7.6904,1.5259,-7.6904,89,1.0815,0.5713,-2.8895,59.7384,28,0.7184,7646,3.8841,-92.8559
rg,1625081303065118080,1,0.1233,0.8599,0.5378,681,-7.019,3.1738,-8.7891,89,1.0815,0.5713,-2.6827,59.3786,28,0.7184,7820,3.8841,-92.9184
rg,1625081303065168468,1,0.0999,0.8687,0.5337,682,-7.5073,3.9062,-9.2163,89,1.0815,0.5713,-2.402,59.0306,28,0.7184,7703,3.8841,-92.9687
rg,1625081303065215320,1,0.0811,0.8667,0.543,683,-8.0566,4.0894,-10.9863,89,1.0815,0.5713,-2.0411,58.6561,28,0.7184,7831,3.8841,-93.1286
rg,1625081303065261209,1,0.0767,0.8547,0.5476,684,-7.7515,-0.1831,-12.4512,89,1.0815,0.5713,-1.7109,58.2906,28,0.7194,8741,3.8841,-93.3913
rg,1625081303065361209,1,0.0759,0.8503,0.5547,685,-6.5918,-4.8218,-14.0991,89,1.0815,0.5713,-1.435,57.9713,28,0.7194,7692,3.8841,-93.8493
rg,1625081303065416301,1,0.0955,0.8491,0.5593,686,-4.6997,-10.0098,-15.686,89,1.0815,0.5713,-1.2713,57.7334,28,0.7194,7801,3.8841,-94.519
rg,1625081303065464560,1,0.1016,0.8545,0.5574,687,-4.1504,-12.3291,-14.2212,89,1.0815,0.5713,-1.2279,57.5369,28,0.7194,8484,3.8841,-95.2378
rg,1625081303065508782,1,0.1226,0.8652,0.5581,688,-2.6245,-14.4653,-16.5405,89,1.0815,0.5713,-1.1994,57.4228,28,0.7204,7874,3.8841,-96.0794
rg,1625081303065553264,1,0.1326,0.8652,0.5513,689,-2.9907,-18.1885,-15.9302,89,1.0815,0.5703,-1.2964,57.3143,28,0.7194,7743,3.8841,-97.0343
rg,1625081303065598245,1,0.1438,0.8599,0.5649,690,-3.7231,-20.1416,-16.5405,89,1.0815,0.5703,-1.4367,57.1531,28,0.7204,7918,3.8841,-98.0678
rg,1625081303065643097,1,0.1948,0.865,0.5708,691,-2.0752,-21.0571,-17.2119,89,1.0815,0.5703,-1.6767,57.0644,28,0.7204,7729,3.8841,-99.1468
rg,1625081303065688763,1,0.208,0.8633,0.5549,692,-1.0986,-19.7144,-16.9067,89,1.0815,0.5703,-1.9148,57.0142,28,0.7204,7923,3.8841,-100.1466
rg,1625081303065733300,1,0.2241,0.8567,0.5654,693,-1.2207,-16.5405,-17.2119,89,1.0815,0.5703,-2.1057,56.9683,28,0.7214,7825,3.8841,-101.0741
rg,1625081303065777559,1,0.2449,0.8501,0.574,694,0.9155,-13.1836,-16.2964,89,1.0815,0.5703,-2.2908,56.9844,28,0.7214,7972,3.8841,-101.8682
rg,1625081303065821985,1,0.2512,0.8506,0.5764,695,1.9531,-10.6201,-16.7236,89,1.0815,0.5693,-2.4036,57.0403,28,0.7224,7871,3.8841,-102.5853
rg,1625081303066144817,1,0.241,0.8528,0.5676,696,3.54,-4.6997,-16.5405,89,1.0815,0.5693,-2.3768,57.1639,28,0.7224,7910,3.8841,-103.0992
rg,1625081303066206354,1,0.2478,0.8472,0.5718,697,4.0894,-0.2441,-18.4326,89,1.0815,0.5703,-2.2059,57.2852,28,0.7224,8085,3.8841,-103.5019
rg,1625081303066256373,1,0.2461,0.8467,0.5713,698,4.2725,1.8921,-19.2261,89,1.0815,0.5693,-1.9652,57.4059,28,0.7224,7961,3.8841,-103.8481
rg,1625081303066309632,1,0.23,0.8423,0.5715,699,4.8828,6.4087,-19.165,89,1.0815,0.5693,-1.6071,57.5336,28,0.7224,8090,3.8841,-104.0388
rg,1625081303066440502,1,0.2107,0.8381,0.5735,700,5.127,8.9111,-19.5923,89,1.0815,0.5693,-1.1555,57.654,28,0.7234,7953,3.8841,-104.1523
rg,1625081303066498168,1,0.1995,0.8376,0.5728,701,5.4932,8.728,-19.165,89,1.0815,0.5693,-0.7121,57.7675,28,0.7234,8167,3.8841,-104.2614
rg,1625081303066543501,1,0.2,0.8328,0.5801,702,6.4087,7.5073,-19.7754,89,1.0815,0.5693,-0.2961,57.9098,28,0.7234,7989,3.8841,-104.4238
rg,1625081303066588779,1,0.2073,0.8293,0.5842,703,8.1177,8.606,-20.3857,89,1.0825,0.5703,0.1322,58.1018,28,0.7234,8064,3.8841,-104.5601
rg,1625081303066657594,1,0.1965,0.8335,0.5779,704,8.4229,7.8735,-18.8599,89,1.0825,0.5703,0.4998,58.3141,28,0.7244,10067,3.8841,-104.6874
rg,1625081303407648987,1,0.2251,0.8276,0.5825,705,9.8877,6.5308,-15.8081,89,1.0825,0.5703,0.6608,58.5613,28,0.7254,24925,3.8841,-104.7947
rg,1625081303407844208,1,0.2292,0.8489,0.5754,706,10.2539,7.2021,-15.8081,89,1.0835,0.5713,0.8274,58.8525,28,0.7254,14387,3.8841,-104.8762
rg,1625081303407866949,1,0.2366,0.8491,0.5723,707,10.2539,7.1411,-16.0522,89,1.0835,0.5713,0.9793,59.1382,28,0.7254,7431,3.8841,-104.9616
rg,1625081303407887931,1,0.2424,0.8474,0.561,708,9.6436,6.4087,-15.1978,89,1.0835,0.5703,1.066,59.4067,28,0.7254,7542,3.8841,-105.0517
rg,1625081303407909171,1,0.252,0.8479,0.5613,709,8.9111,6.5308,-15.8081,87,1.0825,0.5703,1.1539,59.6357,28,0.7264,7493,3.8841,-105.1471
rg,1625081303407928912,1,0.2473,0.8513,0.5559,710,8.2397,6.7749,-15.3809,87,1.0835,0.5713,1.1888,59.8376,28,0.7254,7638,3.8841,-105.2095
rg,1625081303407947875,1,0.2581,0.8538,0.5542,711,7.2021,7.019,-15.5029,87,1.0825,0.5703,1.26,60.002,28,0.7264,8670,3.8841,-105.2771
rg,1625081303408019078,1,0.2534,0.8501,0.5452,712,5.0049,8.4229,-15.0757,87,1.0825,0.5703,1.3469,60.0858,28,0.7254,7707,3.8841,-105.2855
rg,1625081303408045967,1,0.2485,0.8557,0.5449,713,4.1504,8.1177,-14.9536,87,1.0825,0.5713,1.4296,60.122,28,0.7264,7591,3.8841,-105.2967
rg,1625081303408065263,1,0.2437,0.8491,0.5496,714,3.54,8.1787,-14.5264,87,1.0825,0.5703,1.507,60.1332,28,0.7264,7688,3.8841,-105.302
rg,1625081303408084967,1,0.2451,0.8469,0.5527,715,2.1973,8.5449,-16.0522,87,1.0825,0.5713,1.6384,60.0814,28,0.7264,7588,3.8841,-105.3252
rg,1625081303408103967,1,0.2468,0.8457,0.5488,716,1.709,7.9346,-14.3433,87,1.0825,0.5713,1.6885,60.0183,28,0.7264,7742,3.8841,-105.3364
rg,1625081303408123541,1,0.2434,0.8401,0.561,717,1.3428,8.9722,-13.7329,87,1.0825,0.5713,1.7443,59.9152,29,0.7264,7664,3.8841,-105.3011
rg,1625081303408142930,1,0.2312,0.8374,0.5591,718,1.8921,7.9956,-13.1836,87,1.0835,0.5713,1.7831,59.8373,29,0.7264,7807,3.8841,-105.2899
rg,1625081303408161393,1,0.2271,0.8413,0.5537,719,2.6855,7.6904,-12.5122,87,1.0825,0.5713,1.8,59.8086,29,0.7264,7670,3.8841,-105.2763
rg,1625081303408180633,1,0.2358,0.832,0.554,720,3.3569,6.4697,-12.5122,87,1.0835,0.5713,1.77,59.7951,29,0.7274,7887,3.8841,-105.3056
rg,1625081303408198670,1,0.2283,0.8369,0.5559,721,3.54,5.7983,-11.7188,87,1.0835,0.5713,1.7208,59.7964,28,0.7274,7722,3.8841,-105.3421
rg,1625081303408217578,1,0.2317,0.8398,0.5471,722,4.1504,5.3711,-11.4746,87,1.0825,0.5713,1.6461,59.8365,28,0.7274,8474,3.8841,-105.3879
rg,1625081303408235189,1,0.2344,0.8411,0.5457,723,5.4321,6.1646,-10.9253,87,1.0825,0.5713,1.5656,59.9317,28,0.7274,9733,3.8841,-105.3947
rg,1625081303408253466,1,0.2378,0.8438,0.553,724,5.7983,6.6528,-11.2915,87,1.0825,0.5713,1.5065,60.0279,28,0.7274,7899,3.8841,-105.3913
rg,1625081303408271003,1,0.238,0.8428,0.5498,725,5.5542,6.8359,-10.8032,87,1.0835,0.5713,1.4561,60.1316,28,0.7274,7882,3.8841,-105.3703
rg,1625081303408289800,1,0.2168,0.8477,0.5481,726,6.4087,7.1411,-11.3525,87,1.0835,0.5713,1.4568,60.2579,28,0.7274,7939,3.8841,-105.3489
rg,1625081303408334781,1,0.2214,0.853,0.542,727,6.0425,6.7749,-11.6577,87,1.0825,0.5713,1.4517,60.382,28,0.7274,7801,3.8841,-105.3448
rg,1625081303408355929,1,0.2295,0.8577,0.551,728,6.2256,7.1411,-11.8408,87,1.0835,0.5713,1.4476,60.4978,28,0.7274,7994,3.8841,-105.3307
rg,1625081303408374707,1,0.2217,0.8577,0.5513,729,4.6387,7.0801,-12.6953,87,1.0835,0.5713,1.4882,60.5447,28,0.7284,12036,3.8841,-105.3344
rg,1625081303408392929,1,0.2195,0.8599,0.5488,730,4.8218,7.5073,-13.1226,87,1.0835,0.5723,1.5553,60.6041,28,0.7294,8012,3.8841,-105.3312
rg,1625081303408410818,1,0.2285,0.8569,0.5557,731,3.7231,6.7749,-12.0239,87,1.0835,0.5713,1.5492,60.6016,28,0.7294,7897,3.8841,-105.332
rg,1625081303408427929,1,0.2302,0.8606,0.5576,732,3.479,6.4087,-11.7188,87,1.0835,0.5723,1.524,60.5901,28,0.7294,9474,3.8841,-105.3396
rg,1625081303408446133,1,0.2351,0.8652,0.5505,733,3.54,7.2632,-12.8174,87,1.0835,0.5723,1.5974,60.5858,28,0.7294,8083,3.8841,-105.3288
rg,1625081303408464762,1,0.2295,0.8625,0.5461,734,2.7466,7.8735,-13.1226,87,1.0835,0.5723,1.6321,60.5455,28,0.7284,9051,3.8841,-105.313
rg,1625081303408482614,1,0.2295,0.8618,0.552,735,3.0518,8.728,-12.8784,87,1.0835,0.5723,1.6898,60.5324,28,0.7294,8551,3.8841,-105.2627
rg,1625081303408500892,1,0.2266,0.8582,0.5466,736,2.5024,9.0942,-13.6108,87,1.0835,0.5723,1.7812,60.5034,28,0.7284,8174,3.8841,-105.2141
rg,1625081303753413439,1,0.231,0.8511,0.5437,737,0.8545,8.728,-14.2212,87,1.0845,0.5723,1.8707,60.4062,28,0.7294,24480,3.8841,-105.1908
rg,1625081303753458347,1,0.2239,0.8491,0.5403,738,1.2817,8.1787,-13.7329,87,1.0835,0.5723,1.9422,60.3334,28,0.7294,14210,3.8841,-105.1782
rg,1625081303753479328,1,0.2285,0.8564,0.5386,739,1.6479,7.9346,-13.5498,87,1.0835,0.5723,1.9925,60.2898,28,0.7294,7345,3.8841,-105.1709
rg,1625081303753499421,1,0.2278,0.8486,0.543,740,1.77,8.4229,-14.3433,87,1.0845,0.5723,2.0776,60.2354,28,0.7294,8294,3.8841,-105.1634
rg,1625081303753517254,1,0.2271,0.8467,0.5378,741,2.4414,8.8501,-14.2212,87,1.0845,0.5723,2.1632,60.2178,28,0.7294,7421,3.8841,-105.139
rg,1625081303753535458,1,0.2217,0.8438,0.5417,742,2.6245,9.0332,-13.9771,87,1.0835,0.5723,2.2977,60.1817,28,0.7294,7557,3.8841,-105.1266
rg,1625081303753575328,1,0.2227,0.8445,0.5515,743,2.8076,9.0942,-14.4043,87,1.0835,0.5723,2.3977,60.153,28,0.7294,9265,3.8841,-105.0995
rg,1625081303753604476,1,0.2197,0.8486,0.5452,744,3.479,8.7891,-14.4653,87,1.0835,0.5713,2.496,60.1683,28,0.7294,7597,3.8841,-105.0841
rg,1625081303753625754,1,0.2217,0.8518,0.5454,745,3.418,8.4839,-14.3433,87,1.0835,0.5723,2.6103,60.1691,28,0.7304,7507,3.8841,-105.0731
rg,1625081303753644513,1,0.2236,0.845,0.552,746,2.9297,8.9111,-15.2588,87,1.0835,0.5723,2.7226,60.1445,28,0.7294,7660,3.8841,-105.0702
rg,1625081303753674142,1,0.2239,0.8491,0.5474,747,3.1738,7.2632,-13.855,87,1.0835,0.5713,2.7492,60.1427,28,0.7304,7518,3.8841,-105.0966
rg,1625081303753701050,1,0.229,0.8516,0.5461,748,3.7231,7.8125,-14.2212,87,1.0835,0.5723,2.7884,60.1687,28,0.7294,7695,3.8841,-105.111
rg,1625081303753718290,1,0.2253,0.8516,0.5491,749,2.5024,8.2397,-15.0146,87,1.0835,0.5723,2.8702,60.1394,28,0.7294,7567,3.8841,-105.1264
rg,1625081303753736327,1,0.2295,0.8496,0.5471,750,2.7466,8.728,-15.8691,87,1.0835,0.5723,2.9343,60.1336,28,0.7304,7695,3.8841,-105.1396
rg,1625081303753753105,1,0.2354,0.8542,0.5442,751,2.8076,7.6294,-14.2212,87,1.0835,0.5723,2.9502,60.13,28,0.7294,7589,3.8841,-105.1604
rg,1625081303753769772,1,0.2346,0.8525,0.5425,752,2.6245,7.8735,-13.6108,87,1.0845,0.5723,2.9497,60.1214,28,0.7304,11355,3.8841,-105.1607
rg,1625081303753786531,1,0.2312,0.8472,0.5476,753,2.0752,8.7891,-14.1602,87,1.0845,0.5723,2.9925,60.0764,28,0.7304,7696,3.8841,-105.1409
rg,1625081303753802994,1,0.2324,0.853,0.5432,754,1.77,8.5449,-13.855,87,1.0845,0.5723,3.0158,60.0308,28,0.7304,7902,3.8841,-105.1254
rg,1625081303753819753,1,0.2339,0.8506,0.5522,755,1.8921,8.2397,-13.6108,87,1.0845,0.5723,3.0232,59.9771,28,0.7304,7781,3.8841,-105.115
rg,1625081303753836123,1,0.2312,0.8433,0.5425,756,1.5869,8.606,-13.9771,87,1.0845,0.5723,3.0505,59.9229,28,0.7304,7907,3.8841,-105.0991
rg,1625081303753853031,1,0.2336,0.8479,0.5542,757,1.709,7.8735,-12.146,87,1.0845,0.5723,2.9987,59.86,28,0.7304,8643,3.8841,-105.0736
rg,1625081303753882382,1,0.2327,0.842,0.5503,758,1.1597,9.0332,-12.7563,87,1.0835,0.5723,2.9919,59.7793,28,0.7304,8485,3.8841,-105.0204
rg,1625081303753900253,1,0.2346,0.8481,0.5547,759,2.6245,8.4229,-12.207,87,1.0835,0.5713,2.9537,59.7589,28,0.7304,7861,3.8841,-104.9781
rg,1625081303753917493,1,0.2346,0.8413,0.5566,760,2.3193,8.4229,-11.0474,87,1.0835,0.5713,2.8749,59.7164,28,0.7304,8337,3.8841,-104.9132
rg,1625081303753934068,1,0.2341,0.8325,0.5623,761,3.479,9.3994,-11.6577,87,1.0845,0.5723,2.8388,59.7019,28,0.7304,7865,3.8841,-104.828
rg,1625081303753951049,1,0.238,0.8452,0.5591,762,2.8076,10.2539,-12.6343,87,1.0845,0.5713,2.8509,59.683,28,0.7304,8050,3.8841,-104.7317
rg,1625081303753987401,1,0.2393,0.8423,0.5649,763,3.418,10.0098,-12.5732,87,1.0845,0.5713,2.8535,59.6746,28,0.7314,7922,3.8841,-104.6436
rg,1625081303754019104,1,0.2449,0.8457,0.5542,764,3.418,11.0474,-11.4746,87,1.0845,0.5723,2.8259,59.6932,28,0.7304,8144,3.8841,-104.4963
rg,1625081303754054604,1,0.238,0.8433,0.5601,765,3.1738,10.8643,-12.3901,87,1.0835,0.5713,2.8418,59.6864,28,0.7304,8099,3.8841,-104.3743
rg,1625081303754099826,1,0.2356,0.8428,0.5549,766,2.8687,11.1694,-11.2915,87,1.0845,0.5713,2.8289,59.6779,28,0.7314,8150,3.8841,-104.2193
rg,1625081303754171733,1,0.2354,0.8398,0.5603,767,2.4414,11.2305,-10.9253,87,1.0835,0.5723,2.8058,59.6398,28,0.7304,8081,3.8841,-104.0555
rg,1625081303754193548,1,0.2358,0.8406,0.5583,768,2.2583,11.4746,-11.1694,87,1.0845,0.5723,2.7959,59.6004,28,0.7314,8263,3.8841,-103.8882
rg,1625081304099423595,1,0.2371,0.8362,0.5552,769,3.1128,10.2539,-10.376,87,1.0845,0.5723,2.7295,59.5958,28,0.7314,25142,3.8841,-103.7475
rg,1625081304099508669,1,0.2354,0.8433,0.5505,770,3.8452,10.0098,-9.5825,87,1.0845,0.5723,2.6384,59.6378,28,0.7314,10651,3.8841,-103.5983
rg,1625081304099561835,1,0.241,0.8523,0.5513,771,3.7231,9.6436,-9.6436,87,1.0845,0.5723,2.5376,59.682,28,0.7314,7412,3.8841,-103.4621
rg,1625081304099612483,1,0.2402,0.8452,0.543,772,5.5542,9.3384,-9.5825,87,1.0845,0.5723,2.4289,59.8039,28,0.7314,7551,3.8841,-103.3344
rg,1625081304099710427,1,0.2363,0.8513,0.5471,773,5.0659,10.6812,-10.3149,87,1.0845,0.5723,2.3876,59.9022,28,0.7324,7390,3.8841,-103.1739
rg,1625081304099764464,1,0.2307,0.8513,0.54,774,4.5776,9.8877,-8.7891,87,1.0845,0.5723,2.2889,59.9902,28,0.7314,7645,3.8841,-103.0089
rg,1625081304099810853,1,0.2329,0.8503,0.5415,775,3.7231,8.7891,-7.9346,87,1.0845,0.5723,2.138,60.0356,28,0.7314,10928,3.8841,-102.8645
rg,1625081304099856371,1,0.2439,0.8501,0.5464,776,3.54,9.6436,-8.728,87,1.0845,0.5723,2.0156,60.0631,28,0.7324,7609,3.8841,-102.7058
rg,1625081304099902612,1,0.2429,0.8511,0.5444,777,3.7231,9.0942,-7.2021,87,1.0845,0.5723,1.8361,60.1015,28,0.7314,7509,3.8841,-102.5354
rg,1625081304099947186,1,0.2434,0.8574,0.5454,778,4.3335,9.7046,-8.4229,87,1.0845,0.5723,1.7194,60.168,28,0.7324,7799,3.8841,-102.3672
rg,1625081304099991149,1,0.2395,0.8533,0.5432,779,4.3335,9.3994,-7.0801,87,1.0845,0.5723,1.5603,60.231,28,0.7324,7546,3.8841,-102.1824
rg,1625081304100033001,1,0.2402,0.8508,0.533,780,3.7842,10.2539,-8.2397,87,1.0845,0.5723,1.4594,60.268,28,0.7324,8127,3.8841,-101.9901
rg,1625081304100101982,1,0.2454,0.8479,0.542,781,4.4556,10.9863,-8.667,87,1.0845,0.5723,1.3816,60.328,28,0.7324,8245,3.8841,-101.7802
rg,1625081304100150352,1,0.2449,0.853,0.5427,782,4.4556,10.7422,-8.4839,87,1.0845,0.5723,1.2987,60.39,28,0.7324,7885,3.8841,-101.5746
rg,1625081304100194537,1,0.2451,0.8525,0.5464,783,4.8218,10.7422,-8.1177,87,1.0845,0.5723,1.2064,60.4567,28,0.7324,7676,3.8841,-101.3612
rg,1625081304100239444,1,0.2524,0.8513,0.5437,784,4.9438,11.3525,-8.1787,87,1.0845,0.5723,1.1151,60.5296,28,0.7324,7884,3.8841,-101.127
rg,1625081304100281389,1,0.2603,0.8455,0.5364,785,5.7373,11.1694,-8.3618,87,1.0845,0.5723,1.0092,60.6377,28,0.7324,7719,3.8841,-100.9017
rg,1625081304100323259,1,0.2595,0.8481,0.5356,786,6.1035,11.5356,-8.728,87,1.0845,0.5723,0.9293,60.7604,28,0.7324,7856,3.8841,-100.6697
rg,1625081304100367000,1,0.2551,0.8413,0.5339,787,6.4697,12.3291,-8.4839,87,1.0845,0.5723,0.8644,60.8884,28,0.7324,7762,3.8841,-100.404
rg,1625081304100445351,1,0.2625,0.8528,0.5317,788,6.958,12.146,-9.2773,87,1.0845,0.5723,0.8144,61.0476,28,0.7324,7747,3.8841,-100.1585
rg,1625081304100492592,1,0.2708,0.8535,0.5261,789,6.6528,13.1836,-9.3994,87,1.0845,0.5723,0.772,61.2007,28,0.7324,7785,3.8841,-99.8772
rg,1625081304100536184,1,0.2708,0.8523,0.5305,790,6.7139,14.5874,-9.5215,87,1.0845,0.5723,0.7623,61.3414,28,0.7324,7801,3.8841,-99.5474
rg,1625081304100580092,1,0.2644,0.8506,0.533,791,5.9204,14.9536,-9.0942,87,1.0845,0.5723,0.757,61.4385,28,0.7324,7828,3.8841,-99.1953
rg,1625081304100623758,1,0.2603,0.8611,0.5278,792,4.9438,15.1367,-8.3008,87,1.0845,0.5723,0.7388,61.5144,28,0.7324,7820,3.8841,-98.8204
rg,1625081304100668239,1,0.2668,0.8604,0.5366,793,3.418,16.1133,-7.6294,87,1.0845,0.5723,0.7046,61.5101,28,0.7324,7860,3.8841,-98.3978
rg,1625081304100711054,1,0.2637,0.8518,0.5337,794,3.1738,15.0757,-6.5918,87,1.0845,0.5723,0.6176,61.491,28,0.7324,7893,3.8841,-97.9921
rg,1625081304100753610,1,0.2554,0.8599,0.5327,795,2.1362,16.9067,-7.6904,87,1.0845,0.5723,0.6277,61.4422,28,0.7324,7916,3.8841,-97.5426
rg,1625081304100795480,1,0.262,0.8621,0.5386,796,1.6479,15.3809,-5.3711,87,1.0845,0.5723,0.5324,61.3496,28,0.7324,7938,3.8841,-97.1562
rg,1625081304100838424,1,0.2778,0.8606,0.5342,797,0.9766,14.2212,-5.0049,87,1.0845,0.5723,0.357,61.257,28,0.7334,7975,3.8841,-96.7509
rg,1625081304100880517,1,0.269,0.8562,0.5457,798,-0.1221,14.7705,-4.0894,87,1.0845,0.5723,0.1867,61.0967,28,0.7324,8002,3.8841,-96.3092
rg,1625081304100925202,1,0.2529,0.8572,0.5396,799,0.2441,15.564,-4.9438,87,1.0845,0.5723,0.1006,60.968,28,0.7324,10363,3.8841,-95.8571
rg,1625081304100969276,1,0.2654,0.854,0.5393,800,-0.7935,13.7939,-3.2349,87,1.0845,0.5723,-0.1016,60.7988,28,0.7324,9101,3.8841,-95.4345
rg,1625081304442992084,1,0.2656,0.8574,0.5359,801,-1.9531,12.6343,-2.3804,87,1.0845,0.5723,-0.3469,60.5986,28,0.7334,25329,3.8841,-95.0365
rg,1625081304443117139,1,0.2617,0.8574,0.5386,802,-2.3193,12.5732,-1.5869,87,1.0845,0.5723,-0.6013,60.3845,28,0.7334,14206,3.8841,-94.6258
rg,1625081304443170083,1,0.2622,0.8555,0.5349,803,-3.54,11.2915,-0.7324,87,1.0855,0.5723,-0.902,60.1328,28,0.7334,7376,3.8841,-94.2434
rg,1625081304443218564,1,0.2573,0.8479,0.5369,804,-3.7842,11.2305,-1.2207,87,1.0855,0.5723,-1.1664,59.867,28,0.7334,7419,3.8841,-93.8735
rg,1625081304443346657,1,0.2654,0.8433,0.53,805,-4.5166,11.1694,0.061,87,1.0855,0.5723,-1.4849,59.5872,28,0.7334,7394,3.8841,-93.4809
rg,1625081304443406268,1,0.2671,0.842,0.5359,806,-5.127,10.9863,-0.3052,87,1.0855,0.5723,-1.7826,59.2798,28,0.7334,7576,3.8841,-93.1025
rg,1625081304443454027,1,0.2578,0.8413,0.5403,807,-5.5542,10.7422,-0.5493,87,1.0855,0.5723,-2.0431,58.9566,28,0.7334,9088,3.8841,-92.7384
rg,1625081304443502397,1,0.2549,0.8223,0.543,808,-5.0659,10.6201,-0.4883,87,1.0845,0.5723,-2.2976,58.6359,28,0.7334,8075,3.8841,-92.3777
rg,1625081304443547563,1,0.26,0.8235,0.5369,809,-5.188,9.5215,0.9766,87,1.0845,0.5723,-2.6249,58.3343,28,0.7334,7472,3.8841,-92.0258
rg,1625081304443591526,1,0.2458,0.8235,0.5325,810,-5.0049,10.9253,-0.4272,87,1.0845,0.5723,-2.832,58.0571,28,0.7334,7592,3.8841,-91.6572
rg,1625081304443634378,1,0.2207,0.8184,0.5403,811,-5.8594,11.0474,-1.4648,87,1.0845,0.5723,-2.984,57.7307,28,0.7334,7541,3.8841,-91.3179
rg,1625081304443676341,1,0.2241,0.8147,0.5488,812,-6.0425,9.0942,-1.5259,87,1.0845,0.5723,-3.1274,57.3962,28,0.7334,7562,3.8841,-91.0362
rg,1625081304443721137,1,0.231,0.8086,0.5574,813,-4.5776,3.7842,-0.4272,87,1.0845,0.5723,-3.4294,57.1174,28,0.7334,7769,3.8841,-90.9106
rg,1625081304443765841,1,0.2493,0.8154,0.5552,814,-4.8828,3.8452,-1.1597,87,1.0845,0.5723,-3.7302,56.8505,28,0.7334,7634,3.8841,-90.8002
rg,1625081304443809229,1,0.2595,0.8147,0.5601,815,-3.9673,4.0894,-0.7935,87,1.0845,0.5733,-4.0463,56.619,28,0.7344,7658,3.8841,-90.6739
rg,1625081304443851488,1,0.2551,0.8113,0.5552,816,-2.6245,4.3335,-2.9907,87,1.0845,0.5723,-4.2647,56.4571,28,0.7344,7797,3.8841,-90.5891
rg,1625081304443894618,1,0.2595,0.8079,0.5588,817,-1.8311,3.1128,-2.3804,87,1.0845,0.5723,-4.5313,56.3239,28,0.7344,8123,3.8841,-90.5317
rg,1625081304443937136,1,0.2825,0.8076,0.5513,818,-0.7935,2.8076,-3.7231,87,1.0845,0.5723,-4.8005,56.2542,28,0.7344,7896,3.8841,-90.5158
rg,1625081304443983210,1,0.3064,0.8066,0.5337,819,1.0986,5.4321,-4.3945,87,1.0845,0.5723,-5.0358,56.2881,28,0.7344,7732,3.8841,-90.4302
rg,1625081304444070969,1,0.2905,0.8081,0.5374,820,0.7935,9.3994,-6.3477,87,1.0845,0.5723,-5.0743,56.2954,28,0.7344,7703,3.8841,-90.2544
rg,1625081304444118432,1,0.2478,0.8083,0.5349,821,1.1597,10.9253,-8.0566,87,1.0845,0.5723,-4.9302,56.3209,28,0.7344,7868,3.8841,-90.066
rg,1625081304444164413,1,0.2651,0.814,0.5342,822,2.3193,10.1929,-9.8267,87,1.0845,0.5723,-4.7842,56.406,28,0.7344,7791,3.8841,-89.9417
rg,1625081304444534635,1,0.2588,0.8164,0.5369,823,2.5024,11.9629,-12.2681,87,1.0855,0.5723,-4.5085,56.4931,28,0.7344,10795,3.8841,-89.8108
rg,1625081304444693949,1,0.2517,0.8152,0.5491,824,2.0752,12.0239,-12.2681,87,1.0855,0.5723,-4.1905,56.5326,28,0.7344,7872,3.8841,-89.6746
rg,1625081304444742801,1,0.2422,0.8157,0.5508,825,2.9297,10.9863,-13.3057,87,1.0855,0.5723,-3.8857,56.61,28,0.7344,8053,3.8841,-89.5956
rg,1625081304444787486,1,0.2488,0.8191,0.5632,826,4.1504,7.6904,-13.3057,87,1.0855,0.5723,-3.6739,56.722,28,0.7354,7918,3.8841,-89.6248
rg,1625081304444848263,1,0.2642,0.8228,0.5625,827,4.5776,7.6904,-14.9536,87,1.0855,0.5723,-3.469,56.8771,28,0.7344,8125,3.8841,-89.6904
rg,1625081304444989985,1,0.2756,0.8298,0.5576,828,4.9438,7.6294,-15.3809,87,1.0855,0.5723,-3.2584,57.0367,28,0.7354,8509,3.8841,-89.765
rg,1625081304445042985,1,0.2974,0.8423,0.5483,829,5.249,7.2632,-15.686,87,1.0855,0.5723,-3.0947,57.2352,28,0.7344,8683,3.8841,-89.8581
rg,1625081304445085855,1,0.3079,0.8494,0.5483,830,4.1504,7.6904,-15.0146,87,1.0845,0.5723,-2.9681,57.3888,28,0.7354,8043,3.8841,-89.9201
rg,1625081304445133688,1,0.3181,0.8464,0.5471,831,3.54,7.8735,-15.8081,87,1.0845,0.5723,-2.7988,57.4323,28,0.7354,8197,3.8841,-89.9309
rg,1625081304445176818,1,0.3137,0.8438,0.5503,832,2.0142,10.376,-15.0146,78,1.0845,0.5723,-2.6401,57.4782,28,0.7354,8097,3.8896,-89.899
rg,1625081304787001793,1,0.303,0.8271,0.5508,833,0.3052,11.2305,-13.5498,78,1.0855,0.5723,-2.5053,57.4306,28,0.7354,25098,3.8896,-89.8054
rg,1625081304787132256,1,0.2908,0.8132,0.5437,834,0.1831,10.376,-12.4512,78,1.0855,0.5723,-2.374,57.3541,28,0.7354,14355,3.8896,-89.7121
rg,1625081304787187552,1,0.2788,0.8091,0.5496,835,-0.061,10.7422,-12.9395,78,1.0855,0.5733,-2.2398,57.2769,28,0.7354,8595,3.8896,-89.6231
rg,1625081304787238126,1,0.2756,0.8018,0.5579,836,0.9155,10.2539,-12.6953,78,1.0855,0.5733,-2.1234,57.2177,28,0.7354,7445,3.8896,-89.5455
rg,1625081304787285903,1,0.2769,0.8044,0.5552,837,2.0752,8.3008,-12.5122,78,1.0855,0.5723,-2.0441,57.2164,28,0.7364,7407,3.8896,-89.5342
rg,1625081304787333088,1,0.2756,0.8081,0.5549,838,2.2583,8.1787,-13.5498,78,1.0855,0.5723,-1.9491,57.2299,28,0.7364,7469,3.8896,-89.5465
rg,1625081304787378310,1,0.2759,0.8032,0.5537,839,3.6621,7.6904,-14.0381,78,1.0855,0.5723,-1.8551,57.2959,28,0.7364,9306,3.8896,-89.5856
rg,1625081304787422125,1,0.2793,0.8096,0.5542,840,3.8452,6.2866,-13.4888,78,1.0855,0.5723,-1.7481,57.4101,28,0.7354,7523,3.8896,-89.6477
rg,1625081304787464995,1,0.2869,0.8113,0.5559,841,4.1504,6.8359,-14.4043,78,1.0855,0.5723,-1.6859,57.4959,28,0.7364,7697,3.8896,-89.7217
rg,1625081304787508940,1,0.2761,0.8162,0.5513,842,4.4556,7.3853,-15.7471,78,1.0855,0.5723,-1.5459,57.6051,28,0.7354,7541,3.8896,-89.8053
rg,1625081304787553403,1,0.2864,0.824,0.553,843,4.5776,5.5542,-14.5874,78,1.0855,0.5723,-1.5061,57.7225,28,0.7364,7726,3.8896,-89.9251
rg,1625081304787596828,1,0.3076,0.8235,0.5454,844,4.2725,6.0425,-15.2588,78,1.0855,0.5723,-1.4805,57.8367,28,0.7364,7572,3.8896,-90.0415
rg,1625081304787639217,1,0.3088,0.8267,0.5413,845,4.2725,7.5684,-15.9302,78,1.0845,0.5723,-1.3767,57.9002,28,0.7364,7836,3.8896,-90.0896
rg,1625081304787682958,1,0.3059,0.8223,0.5471,846,3.3569,11.1694,-17.0898,78,1.0855,0.5723,-1.1824,57.963,28,0.7364,11950,3.8896,-90.0684
rg,1625081304787727809,1,0.3027,0.8215,0.5437,847,3.54,10.8032,-17.334,78,1.0855,0.5723,-0.9795,58.0239,28,0.7364,7856,3.8896,-90.064
rg,1625081304787772272,1,0.2976,0.8123,0.554,848,3.1128,11.4136,-17.2729,78,1.0855,0.5723,-0.7749,58.0472,28,0.7364,7777,3.8896,-90.0367
rg,1625081304787855828,1,0.2964,0.8232,0.5544,849,4.2114,12.7563,-18.2495,78,1.0855,0.5723,-0.5089,58.1259,28,0.7364,7731,3.8896,-89.9843
rg,1625081304787904124,1,0.2971,0.8235,0.5503,850,4.3945,13.1836,-18.4326,78,1.0855,0.5723,-0.2408,58.217,28,0.7364,7703,3.8896,-89.9204
rg,1625081304787946309,1,0.2959,0.8203,0.5532,851,3.9673,12.5732,-17.9443,78,1.0855,0.5723,-0.0104,58.2786,28,0.7364,8026,3.8896,-89.866
rg,1625081304787988290,1,0.2834,0.8247,0.5527,852,4.9438,13.855,-18.4326,78,1.0845,0.5723,0.2816,58.3831,28,0.7364,7843,3.8896,-89.7775
rg,1625081304788030883,1,0.2866,0.8184,0.5505,853,5.0659,12.7563,-17.4561,78,1.0855,0.5723,0.4961,58.4851,28,0.7364,7826,3.8896,-89.705
rg,1625081304788072216,1,0.2937,0.8301,0.5422,854,5.6763,12.2681,-18.7988,78,1.0855,0.5723,0.7266,58.6371,28,0.7364,7855,3.8896,-89.6756
rg,1625081304788134382,1,0.293,0.8237,0.5515,855,5.0659,11.7798,-17.8833,78,1.0855,0.5723,0.9245,58.7173,28,0.7364,8373,3.8896,-89.6436
rg,1625081304788291475,1,0.2976,0.8289,0.5493,856,5.3101,10.9863,-17.9443,78,1.0855,0.5723,1.1019,58.8268,28,0.7364,9825,3.8896,-89.6102
rg,1625081304788369067,1,0.2991,0.8289,0.5496,857,4.7607,11.1084,-18.1885,78,1.0855,0.5723,1.2554,58.9142,28,0.7364,7912,3.8896,-89.604
rg,1625081304788419122,1,0.3079,0.8293,0.5466,858,4.7607,11.2915,-16.4795,78,1.0855,0.5723,1.3302,59.0055,28,0.7364,8079,3.8896,-89.5553
rg,1625081304788464493,1,0.3079,0.8352,0.5491,859,5.3711,12.207,-16.8457,78,1.0855,0.5723,1.5184,59.1108,28,0.7364,7963,3.8896,-89.444
rg,1625081304788510622,1,0.2957,0.8381,0.5508,860,5.0049,13.3667,-16.3574,78,1.0855,0.5723,1.6509,59.2092,28,0.7364,8181,3.8896,-89.3192
rg,1625081304788557881,1,0.2881,0.8369,0.5488,861,4.8828,12.8174,-16.8457,78,1.0855,0.5723,1.7978,59.3004,28,0.7364,7997,3.8896,-89.2222
rg,1625081304788599270,1,0.2974,0.8379,0.5437,862,4.6997,12.6343,-15.9302,78,1.0855,0.5723,1.8379,59.3866,28,0.7374,8197,3.8896,-89.1324
rg,1625081304788640696,1,0.2844,0.8354,0.5413,863,4.0283,12.3291,-15.1367,78,1.0855,0.5723,1.9131,59.4499,28,0.7364,8163,3.8896,-89.0152
rg,1625081304788750788,1,0.282,0.8342,0.5479,864,3.2959,11.8408,-15.1978,78,1.0855,0.5723,1.984,59.4674,28,0.7364,8240,3.8896,-88.916
rg,1625081305126683519,1,0.2839,0.8303,0.5461,865,4.0894,10.8032,-14.4653,78,1.0855,0.5733,2.0024,59.507,28,0.7374,24622,3.8896,-88.8379
rg,1625081305126772889,1,0.2847,0.8313,0.5435,866,3.7231,10.6201,-14.7705,78,1.0865,0.5733,2.0224,59.543,28,0.7374,14285,3.8896,-88.7715
