name,time,activity,ax,ay,az,batch_val,gx,gy,gz,ibat,index,middle,pitch,roll,temp,thumb,ts,vbat,yaw
lg,1625583151144181670,0,0.8423,-0.1897,0.7483,1,-28.1372,-70.4346,-19.165,62,0.9685,0.8794,-71.2445,-33.1094,24,0.072,19927,4.0414,93.531
lg,1625583151144319806,0,0.9316,-0.1897,0.748,2,-28.9917,-59.021,-21.2402,62,0.9625,0.8404,-72.1231,-32.9373,24,0.071,8257,4.0414,92.3685
lg,1625583151144374927,0,0.8572,-0.2161,0.8069,3,-24.7803,-9.0332,-23.1323,62,0.9585,0.8044,-71.9528,-30.4394,24,0.072,7850,4.0414,88.8413
lg,1625583151144427420,0,0.78,-0.1902,0.7834,4,-24.5972,12.6343,-24.5361,62,0.9555,0.7684,-70.9764,-26.5992,24,0.072,8040,4.0414,83.8684
lg,1625583151144476637,0,0.4766,-0.5881,0.7932,5,-9.3384,-51.6357,-17.6392,147,1.2136,0.9285,-71.3679,-29.6456,24,0.069,13319,3.9215,86.5413
lg,1625583151144526075,0,0.2224,-0.4688,0.6443,6,8.7891,-21.5454,-11.9629,147,1.2136,0.9315,-70.4932,-30.0678,24,0.069,8107,3.9215,87.2748
lg,1625583151144574940,0,0.5728,-0.5518,0.7544,7,5.9814,-48.8281,5.5542,147,1.2146,0.9345,-70.5699,-33.8447,24,0.069,8139,3.9215,91.493
lg,1625583151144624342,0,0.8154,-0.6106,0.8342,8,8.1787,-40.5884,13.0005,147,1.2166,0.9305,-69.5958,-36.2707,24,0.069,7957,3.9215,94.7051
lg,1625583151144671282,0,0.7737,-0.5662,0.8264,9,22.583,4.2725,15.0146,147,1.2176,0.9164,-67.7784,-36.2453,24,0.069,9197,3.9215,95.6367
lg,1625583151144719259,0,0.564,-0.5491,0.7849,10,34.4849,30.7617,10.9863,147,1.2166,0.8924,-65.1763,-33.9982,24,0.069,9175,3.9215,94.6687
lg,1625583151144768309,0,0.5266,-0.5647,0.8203,11,41.9312,26.4282,5.7373,147,1.2216,0.8674,-62.8084,-31.6324,24,0.07,8013,3.9215,93.8639
lg,1625583151144817581,0,0.4224,-0.5447,0.7615,12,54.1382,28.5034,1.6479,147,1.2246,0.8324,-60.4007,-28.8678,24,0.074,7996,3.9215,93.0824
lg,1625583151144863577,0,0.384,-0.4968,0.7534,13,57.312,28.9917,3.0518,147,1.2246,0.7874,-57.9621,-26.2329,24,0.073,8093,3.9215,92.5661
lg,1625583151144911035,0,0.2847,-0.4993,0.7622,14,53.4058,17.1509,6.5918,147,1.2246,0.7404,-55.775,-24.5325,24,0.072,8025,3.9215,92.9048
lg,1625583151144955477,0,0.3682,-0.4966,0.8225,15,45.3491,-7.2021,16.8457,147,1.2276,0.7043,-54.4683,-24.2084,24,0.071,8140,3.9215,94.5489
lg,1625583151145002380,0,0.4817,-0.491,0.8149,16,39.7949,-18.3716,20.813,147,1.2286,0.6863,-53.88,-24.4203,24,0.07,8180,3.9215,96.6346
lg,1625583151145049301,0,0.6501,-0.4834,0.8423,17,29.2969,-18.7988,22.644,147,1.2276,0.6803,-53.3939,-25.0924,24,0.068,8214,3.9215,98.796
lg,1625583151145098222,0,0.7693,-0.3433,0.7891,18,12.207,-2.6245,20.6299,147,1.2296,0.6813,-52.6676,-25.5703,24,0.069,8115,3.9215,100.042
lg,1625583151145143218,0,0.689,-0.4114,0.9185,19,-3.1738,7.8125,17.0898,147,1.2316,0.6953,-51.0513,-26.0067,24,0.069,8251,3.9215,100.1362
lg,1625583151147091561,0,0.5967,-0.4482,0.876,20,-17.7002,36.0718,11.5967,147,1.2306,0.7204,-48.785,-26.4903,24,0.072,8100,3.9215,99.816
lg,1625583151147175705,0,0.4243,-0.4299,0.7458,21,-26.4893,45.5322,6.6528,147,1.2366,0.7504,-46.1768,-27.0756,24,0.074,8254,3.9215,99.0687
lg,1625583151147237175,0,0.2644,-0.4438,0.7761,22,-36.9873,29.7241,-0.7324,147,1.2366,0.7834,-44.0135,-28.095,24,0.075,8218,3.9215,98.3309
lg,1625583151147290797,0,0.2007,-0.4395,0.7874,23,-40.9546,21.6064,-2.6245,147,1.2376,0.8264,-41.9207,-29.4222,24,0.072,8259,3.9215,97.7407
lg,1625583151147341328,0,0.0642,-0.4841,0.7659,24,-48.2178,-9.7046,-10.2539,147,1.2356,0.8714,-41.0616,-31.3269,24,0.072,8228,3.9215,97.5977
lg,1625583151147391100,0,0.2878,-0.5405,0.7336,25,-52.3071,-54.5044,-10.7422,147,1.2336,0.9054,-42.2002,-34.3669,24,0.069,8388,3.9215,98.8369
lg,1625583151147442686,0,0.3853,-0.6809,0.7573,26,-33.6914,-32.7148,-10.498,147,1.2336,0.9255,-42.6698,-36.4471,24,0.068,8234,3.9215,99.6374
lg,1625583151147495993,0,0.1875,-0.5159,0.6895,27,-2.7466,-13.9771,-19.7144,147,1.2356,0.9335,-42.4278,-36.287,24,0.068,8502,3.9215,99.2358
lg,1625583151148435108,0,-0.0623,-0.3809,0.5945,28,3.9673,-20.0806,-11.9629,147,1.2346,0.9365,-41.6793,-36.0093,24,0.068,8268,3.9215,99.2257
lg,1625583151148500594,0,0.6155,-0.5178,0.7148,29,-15.3198,-100.9521,2.9297,147,1.2366,0.9375,-44.5059,-38.9898,24,0.069,8786,3.9215,102.7194
lg,1625583151148553994,0,1.0327,-0.7295,0.9163,30,-3.3569,-64.9414,4.3335,147,1.2386,0.9355,-46.234,-40.9182,24,0.068,8392,3.9215,105.273
lg,1625583151148603896,0,0.6741,-0.6589,0.8767,31,29.9683,27.0386,-2.5024,147,1.2396,0.9255,-44.8933,-38.7413,24,0.07,8638,3.9215,104.032
lg,1625583151148651983,0,0.4412,-0.5706,0.8027,32,39.5508,45.7764,-2.5635,147,1.2426,0.9144,-42.4725,-35.8526,24,0.07,8394,3.9215,102.2713
lg,1625583151525209346,0,0.4265,-0.5723,0.7554,33,55.3589,3.418,-2.4414,147,1.2436,0.8744,-41.6981,-33.5684,24,0.075,25028,3.9215,102.1124
lg,1625583151525329454,0,0.3999,-0.542,0.7488,34,59.3262,6.4697,0.061,147,1.2436,0.8494,-40.7613,-31.1999,24,0.075,8940,3.9215,102.0185
lg,1625583151525384464,0,0.4072,-0.5142,0.7622,35,58.5327,1.2817,5.4321,147,1.2466,0.8214,-40.1414,-29.3496,24,0.073,13232,3.9215,102.4696
lg,1625583151525437790,0,0.4551,-0.4778,0.7476,36,50.0488,-15.0146,7.019,147,1.2476,0.8094,-40.0144,-27.9508,24,0.071,10953,3.9215,103.2699
lg,1625583151525488099,0,0.512,-0.4578,0.7749,37,41.9312,-22.522,5.3101,147,1.2486,0.8064,-40.2939,-26.9025,24,0.07,9473,3.9215,104.1392
lg,1625583151525535465,0,0.5251,-0.4338,0.8352,38,36.9263,-25.0244,2.5024,147,1.2496,0.8104,-40.6918,-25.9082,24,0.071,7911,3.9215,104.8621
lg,1625583151525587125,0,0.6514,-0.3206,0.866,39,11.6577,-24.1699,2.0142,147,1.2506,0.8254,-41.2995,-25.6244,24,0.071,7792,3.9215,105.3558
lg,1625583151525634305,0,0.7952,-0.2876,0.822,40,-5.127,-24.6582,-2.1362,147,1.2516,0.8454,-41.9336,-26.048,24,0.076,7905,3.9215,105.1673
lg,1625583151525682707,0,0.7739,-0.321,0.791,41,-27.1606,5.9814,-6.2866,147,1.2526,0.8684,-41.8343,-26.6667,24,0.076,8615,3.9215,104.609
lg,1625583151526258259,0,0.5093,-0.3044,0.7275,42,-41.4429,51.2695,-11.0474,147,1.2536,0.8934,-39.8547,-26.9901,24,0.077,8558,3.9215,102.7311
lg,1625583151526338905,0,0.1077,-0.3918,0.7224,43,-53.5889,56.6406,-12.5122,147,1.2536,0.9164,-36.8687,-28.0022,24,0.076,7874,3.9215,100.8534
lg,1625583151526390583,0,-0.0264,-0.4448,0.7939,44,-60.73,37.3535,-10.6812,147,1.2536,0.9385,-35.2795,-30.4358,24,0.074,8162,3.9215,100.3251
lg,1625583151526440855,0,-0.0754,-0.4692,0.7622,45,-65.1855,-24.353,-8.667,147,1.2446,0.9525,-34.8176,-33.2122,24,0.071,7973,3.9215,100.5823
lg,1625583151526488795,0,0.1465,-0.5271,0.8215,46,-53.4668,-72.876,-11.9629,147,1.2426,0.9595,-36.46,-36.199,24,0.072,8771,3.9215,102.0987
lg,1625583151526535013,0,0.2354,-0.5796,0.7383,47,-24.231,-98.4497,-23.6206,147,1.2456,0.9625,-39.2683,-38.5111,24,0.071,7998,3.9215,104.218
lg,1625583151526584563,0,0.5981,-0.5457,0.7793,48,-28.8086,-108.5205,2.3193,147,1.2476,0.9665,-42.209,-41.966,24,0.07,8235,3.9215,107.9136
lg,1625583151526629263,0,0.7634,-0.5417,0.7666,49,-27.0996,-106.3843,8.2397,147,1.2456,0.9655,-44.9007,-45.783,24,0.071,8068,3.9215,112.1271
lg,1625583151526675389,0,0.9893,-0.7131,0.8555,50,-15.3809,-60.5469,10.8643,147,1.2436,0.9625,-46.0867,-48.2365,24,0.072,8129,3.9215,114.8987
lg,1625583151526726771,0,0.9036,-0.7488,0.8867,51,16.6016,15.8081,7.6904,147,1.2486,0.9515,-45.1162,-46.9361,24,0.072,8099,3.9215,114.2551
lg,1625583151526778024,0,0.7678,-0.6912,0.8296,52,31.7993,45.2271,4.8828,147,1.2496,0.9295,-43.2353,-44.1405,24,0.073,8198,3.9215,112.355
lg,1625583151526822465,0,0.5156,-0.6069,0.7493,53,53.5278,73.4253,-0.3052,147,1.2506,0.8964,-40.4837,-39.9953,24,0.074,8219,3.9215,109.5393
lg,1625583151526868794,0,0.2192,-0.6011,0.7363,54,71.8994,67.5659,-14.2212,147,1.2556,0.8304,-38.1089,-35.5564,24,0.074,11835,3.9215,107.3574
lg,1625583151526915290,0,0.1797,-0.562,0.7446,55,75.0732,27.9541,-13.2446,147,1.2566,0.7894,-36.4366,-31.8447,24,0.073,8817,3.9215,106.1028
lg,1625583151526962026,0,0.3826,-0.5308,0.7373,56,64.9414,-13.3667,1.8921,147,1.2576,0.7694,-36.3174,-29.6812,24,0.073,9071,3.9215,106.6384
lg,1625583151527007782,0,0.7119,-0.4026,0.7268,57,52.3071,-28.7476,11.1084,147,1.2576,0.7664,-37.261,-28.2679,24,0.071,8280,3.9215,107.7994
lg,1625583151527054092,0,0.9453,-0.3071,0.7517,58,17.7002,-6.0425,8.2397,147,1.2586,0.7694,-37.7872,-27.6663,24,0.072,8337,3.9215,108.1815
lg,1625583151527098478,0,0.9001,-0.4521,0.8562,59,2.1362,16.8457,2.9907,147,1.2596,0.7754,-37.3305,-27.4199,24,0.073,8233,3.9215,107.9177
lg,1625583151527721210,0,0.6067,-0.4778,0.8591,60,-2.6245,59.1431,-6.897,147,1.2606,0.7884,-35.1289,-26.6174,24,0.075,8421,3.9215,106.3128
lg,1625583151527785198,0,0.3494,-0.4722,0.811,61,-3.7231,61.0962,-17.5171,147,1.2596,0.8064,-32.6769,-25.772,24,0.074,8432,3.9215,104.3431
lg,1625583151527833711,0,0.115,-0.3882,0.7629,62,-10.5591,49.0112,-21.4844,147,1.2636,0.8284,-30.3213,-25.2497,24,0.076,8438,3.9215,102.4707
lg,1625583151527886629,0,0.03,-0.3486,0.7288,63,-17.334,35.0342,-19.5312,147,1.2616,0.8604,-29.3906,-25.9322,24,0.076,8370,3.9215,101.7396
lg,1625583151527933273,0,0.1414,-0.3733,0.7437,64,-36.499,-34.2407,-13.855,147,1.2626,0.9024,-30.0838,-27.4751,24,0.076,8676,3.9215,101.8826
lg,1625583151887705069,0,0.5522,-0.5603,0.7983,65,-40.2222,-38.6963,-3.1128,147,1.2606,0.9645,-31.47,-29.7504,24,0.07,25473,3.9215,102.771
lg,1625583151887814127,0,0.3223,-0.4114,0.6934,66,1.1597,-13.916,-24.231,147,1.2596,0.9705,-32.0401,-29.3842,24,0.073,8693,3.9215,102.1225
lg,1625583151887872543,0,0.1206,-0.4539,0.6704,67,0.1831,-13.916,-9.8877,147,1.2616,0.9745,-31.8071,-29.5413,24,0.071,8087,3.9215,102.1522
lg,1625583151887927461,0,0.2944,-0.4268,0.6741,68,-5.3711,-39.7339,1.1597,147,1.2626,0.9745,-32.692,-30.3943,24,0.07,8018,3.9215,103.2001
lg,1625583151887975530,0,0.6145,-0.5283,0.7693,69,-11.5967,-46.5088,22.522,147,1.2636,0.9705,-33.8248,-32.1491,24,0.069,10202,3.9215,105.3648
lg,1625583151888023025,0,0.6711,-0.6414,0.8372,70,-1.1597,-23.9258,28.6255,147,1.2636,0.9595,-33.9468,-33.3946,24,0.07,10230,3.9215,107.2654
lg,1625583151888069262,0,0.7781,-0.5791,0.8494,71,15.2588,-14.8315,20.1416,147,1.2646,0.9425,-34.1121,-33.4859,24,0.071,7903,3.9215,108.4864
lg,1625583151888114073,0,0.6941,-0.6577,0.8933,72,33.1421,5.5542,8.728,147,1.2656,0.9194,-33.6481,-32.3874,24,0.074,8025,3.9215,108.7544
lg,1625583151888162031,0,0.5647,-0.6643,0.8503,73,46.0815,21.4233,2.9907,147,1.2676,0.8864,-32.3975,-30.5438,24,0.073,7930,3.9215,108.4687
lg,1625583151888215523,0,0.3547,-0.564,0.7874,74,58.8379,30.5786,4.9438,147,1.2686,0.8584,-30.7571,-28.1543,24,0.075,8088,3.9215,108.0914
lg,1625583151888261482,0,0.4236,-0.5398,0.792,75,52.7954,10.376,13.6108,147,1.2676,0.8434,-29.8676,-26.4725,24,0.073,9183,3.9215,108.5634
lg,1625583151888307497,0,0.5762,-0.4976,0.759,76,49.0112,6.2866,20.9961,147,1.2706,0.8354,-29.3089,-25.1249,24,0.072,12044,3.9215,109.3903
lg,1625583151888351531,0,0.575,-0.4639,0.7976,77,47.0581,10.9863,20.2026,147,1.2706,0.8354,-28.6774,-23.7428,24,0.073,7951,3.9215,110.1137
lg,1625583151888395639,0,0.5144,-0.3276,0.7012,78,32.8369,11.9629,10.9253,147,1.2716,0.8434,-28.2558,-22.5907,24,0.073,8182,3.9215,110.3736
lg,1625583151888438340,0,0.6047,-0.3528,0.7852,79,-2.5635,-3.6011,3.418,147,1.2726,0.8584,-28.5978,-22.8442,24,0.075,8039,3.9215,110.6062
lg,1625583151888484892,0,0.6494,-0.3552,0.7705,80,-13.5498,-1.2817,-0.9766,147,1.2726,0.8774,-29.0011,-23.4383,24,0.077,8168,3.9215,110.6198
lg,1625583151888536422,0,0.5559,-0.3237,0.7095,81,-32.8369,19.6533,-5.249,147,1.2736,0.8984,-28.6198,-24.5001,24,0.078,8136,3.9215,110.0533
lg,1625583151888580345,0,0.2332,-0.3743,0.7512,82,-48.2788,30.6396,-9.7046,147,1.2746,0.9275,-27.1622,-26.0362,24,0.075,8790,3.9215,109.0924
lg,1625583151888625526,0,0.0146,-0.5029,0.7854,83,-60.5469,0.7324,-6.2866,147,1.2726,0.9585,-26.2463,-28.6042,24,0.074,10201,3.9215,108.9344
lg,1625583151888671652,0,0.2043,-0.6663,0.8586,84,-59.9976,-55.542,-7.4463,147,1.2706,0.9735,-27.6971,-31.8182,24,0.073,8198,3.9215,110.0618
lg,1625583151888718000,0,0.1379,-0.5007,0.9106,85,-20.0806,-76.2939,-32.959,147,1.2726,0.9835,-30.2833,-33.333,24,0.074,8375,3.9215,110.8678
lg,1625583151888763792,0,0.1914,-0.5803,0.6863,86,3.418,-86.6699,-36.0718,147,1.2716,0.9875,-33.2386,-33.9443,24,0.075,8239,3.9215,111.8751
lg,1625583151888810047,0,0.5125,-0.4177,0.675,87,0.1831,-87.7686,-8.9722,147,1.2736,0.9905,-36.2928,-35.0135,24,0.074,8456,3.9215,113.8904
lg,1625583151888854174,0,0.7422,-0.4961,0.751,88,-5.8594,-60.4858,14.4043,147,1.2746,0.9925,-38.0232,-36.6069,24,0.074,8276,3.9215,116.2217
lg,1625583151888898430,0,0.7375,-0.5515,0.7991,89,-3.418,-40.3442,15.686,147,1.2736,0.9925,-38.8798,-37.8249,24,0.074,8348,3.9215,118.0552
lg,1625583151888946499,0,0.7292,-0.5991,0.7573,90,9.8877,-4.0894,19.8975,147,1.2746,0.9875,-38.4379,-38.0237,24,0.074,8486,3.9215,118.9943
lg,1625583151888997382,0,0.729,-0.5833,0.8391,91,20.874,15.625,15.9302,147,1.2766,0.9775,-37.4342,-37.1451,24,0.074,8413,3.9215,119.0597
lg,1625583151889044618,0,0.6343,-0.5789,0.8455,92,36.1328,41.0156,8.728,147,1.2766,0.9585,-35.6799,-35.0724,24,0.074,8529,3.9215,118.1288
lg,1625583151889092298,0,0.4756,-0.5779,0.8254,93,46.0205,50.9644,3.9062,147,1.2766,0.9335,-33.1737,-32.6609,24,0.074,8423,3.9215,116.9827
lg,1625583151889134999,0,0.136,-0.5769,0.7378,94,65.3687,38.7573,-16.8457,147,1.2766,0.8964,-31.2473,-29.4435,24,0.076,8766,3.9215,115.5166
lg,1625583151889181421,0,0.1733,-0.4236,0.7009,95,63.7207,-10.1318,-10.6201,147,1.2786,0.8664,-31.0482,-26.8721,24,0.074,8486,3.9215,115.3603
lg,1625583151889226566,0,0.4121,-0.4609,0.7229,96,45.2881,-43.9453,5.3101,147,1.2786,0.8454,-32.3052,-25.897,24,0.073,8652,3.9215,116.6275
lg,1625583152247299080,0,0.7852,-0.3481,0.782,97,15.625,-39.7339,9.9487,103,1.2786,0.8144,-33.9475,-25.8874,24,0.074,25222,3.993,117.8477
lg,1625583152247394259,0,0.7439,-0.3486,0.7993,98,-15.9912,-8.2397,7.3853,103,1.2806,0.8144,-34.2379,-26.7859,24,0.076,9923,3.993,118.336
lg,1625583152247448234,0,0.6067,-0.4106,0.8069,99,-33.9966,13.6719,-0.7935,103,1.2766,0.8284,-33.7443,-27.9509,24,0.075,8085,3.993,117.9964
lg,1625583152247500932,0,0.2937,-0.4592,0.7778,100,-51.0864,7.6904,-11.8408,103,1.2816,0.8674,-33.0822,-29.7179,24,0.075,13166,3.993,117.3709
lg,1625583152247553500,0,0.1719,-0.4385,0.7847,101,-52.8564,5.8594,-12.3901,103,1.2806,0.9034,-32.267,-31.4331,24,0.074,8160,3.993,116.6891
lg,1625583152247604181,0,0.1406,-0.7007,0.8787,102,-62.6831,-28.0151,-4.3335,103,1.2796,0.9475,-33.6848,-34.7973,24,0.075,11010,3.993,118.1682
lg,1625583152247656934,0,0.1956,-0.5437,0.8101,103,-23.3765,-101.4404,-34.6069,103,1.2796,0.9665,-36.8956,-36.546,24,0.076,7861,3.993,119.6576
lg,1625583152247709892,0,0.4661,-0.6055,0.6892,104,-2.4414,-100.8301,-30.1514,103,1.2796,0.9745,-40.4098,-38.0322,24,0.074,8438,3.993,121.6912
lg,1625583152247758221,0,0.6875,-0.436,0.647,105,0.4272,-67.5049,-10.376,103,1.2806,0.9795,-42.794,-39.05,24,0.075,7865,3.993,123.4069
lg,1625583152247804830,0,0.718,-0.4067,0.6663,106,-0.4883,-44.3726,0.3662,103,1.2806,0.9815,-44.1365,-39.8312,24,0.074,8026,3.993,124.7663
lg,1625583152247852900,0,0.6094,-0.5181,0.7239,107,-4.9438,-16.2964,9.2163,103,1.2796,0.9835,-44.0029,-40.5007,24,0.074,8169,3.993,125.5992
lg,1625583152247902600,0,0.6375,-0.5869,0.7471,108,-0.3662,-7.2021,13.9771,103,1.2816,0.9815,-43.4469,-40.9795,24,0.074,7955,3.993,126.3605
lg,1625583152247950207,0,0.7151,-0.5928,0.7837,109,2.6245,-5.9204,13.2446,103,1.2816,0.9765,-42.8658,-40.869,24,0.073,8100,3.993,126.6951
lg,1625583152247996427,0,0.6946,-0.5691,0.7869,110,12.146,9.0942,10.498,103,1.2806,0.9655,-42.0258,-40.2302,24,0.074,8034,3.993,126.6483
lg,1625583152248041184,0,0.5305,-0.5881,0.8064,111,23.3154,25.6348,5.127,103,1.2826,0.9525,-40.5533,-38.668,24,0.074,8172,3.993,125.8586
lg,1625583152248084942,0,0.3186,-0.6946,0.7712,112,45.6543,11.6577,-10.437,103,1.2836,0.9285,-39.5317,-36.4987,24,0.075,8016,3.993,125.1771
lg,1625583152248130995,0,0.2625,-0.6343,0.7144,113,57.1899,-1.6479,-16.3574,103,1.2836,0.8934,-39.0346,-34.0703,24,0.077,8222,3.993,124.7175
lg,1625583152248175567,0,0.3508,-0.4839,0.6873,114,60.791,-35.0952,-10.498,103,1.2866,0.8604,-39.7829,-32.0384,24,0.074,8058,3.993,125.2996
lg,1625583152248220380,0,0.5532,-0.4988,0.6948,115,48.1567,-52.8564,3.2349,103,1.2856,0.8394,-41.2219,-31.314,24,0.073,8308,3.993,127.0118
lg,1625583152248264323,0,0.6948,-0.3669,0.6685,116,38.5742,-54.6875,7.9346,103,1.2856,0.8334,-43.2104,-30.7325,24,0.073,8075,3.993,128.6994
lg,1625583152248308339,0,1.0457,-0.3184,0.7817,117,-2.4414,-44.9829,12.3291,103,1.2856,0.8364,-44.7914,-31.8385,24,0.074,8310,3.993,130.3865
lg,1625583152248354874,0,0.9761,-0.5259,0.8416,118,-18.9819,20.3247,7.9346,103,1.2876,0.8494,-43.9176,-32.4292,24,0.075,8224,3.993,130.1501
lg,1625583152248403611,0,0.636,-0.5022,0.7297,119,-19.043,72.3267,-4.7607,103,1.2866,0.8734,-41.2506,-31.7073,24,0.077,9602,3.993,127.8909
lg,1625583152248452755,0,0.23,-0.428,0.6379,120,-16.5405,80.1392,-14.0381,103,1.2886,0.9024,-37.8693,-30.6974,24,0.077,9952,3.993,125.1771
lg,1625583152248497419,0,-0.0232,-0.4524,0.6914,121,-28.5645,30.5786,-17.0288,103,1.2876,0.9385,-35.73,-31.0402,24,0.076,11040,3.993,123.7263
lg,1625583152248548526,0,0.2266,-0.5203,0.7539,122,-38.208,-42.7246,-12.7563,103,1.2866,0.9645,-36.5888,-33.0603,24,0.075,8348,3.993,124.3965
lg,1625583152248600890,0,0.5227,-0.5454,0.7515,123,-31.189,-65.6128,-19.8364,103,1.2876,0.9805,-39.5622,-34.0971,24,0.075,8486,3.993,125.2068
lg,1625583152248648961,0,0.5789,-0.6045,0.6646,124,-4.1504,-66.1011,-38.5742,103,1.2866,0.9885,-42.3299,-34.805,24,0.075,8316,3.993,125.7362
lg,1625583152248695921,0,0.5845,-0.3782,0.5793,125,6.8359,-31.4941,-33.02,103,1.2866,0.9925,-44.01,-34.0976,24,0.074,8465,3.993,125.1704
lg,1625583152248745731,0,0.4441,-0.3931,0.6118,126,0.6104,-1.8311,-18.7378,103,1.2866,0.9945,-43.9813,-33.4357,24,0.074,8390,3.993,124.3104
lg,1625583152248791433,0,0.4844,-0.5166,0.6833,127,-6.1035,8.5449,3.3569,103,1.2876,0.9945,-43.0497,-33.7662,24,0.076,9736,3.993,124.3139
lg,1625583152248862326,0,0.4614,-0.5381,0.7446,128,-4.0894,13.0005,10.8032,103,1.2876,0.9915,-41.6232,-34.1604,24,0.075,8424,3.993,124.6711
lg,1625583152593215382,0,0.7012,-0.6409,0.8149,129,23.1323,-23.7427,8.0566,103,1.2876,0.9685,-41.9174,-34.1202,24,0.075,24780,3.993,125.8596
lg,1625583152593296752,0,0.6042,-0.6641,0.7676,130,50.6592,-12.146,-3.6011,103,1.2896,0.9455,-41.9612,-32.5364,24,0.076,9745,3.993,126.2676
lg,1625583152593349302,0,0.5471,-0.5435,0.7329,131,63.3545,-7.0801,-2.5635,103,1.2906,0.9245,-41.8155,-30.2472,24,0.076,7922,3.993,126.4782
lg,1625583152593399853,0,0.5706,-0.5396,0.7625,132,62.561,-9.8877,-1.709,103,1.2866,0.9104,-41.7785,-28.0997,24,0.078,8219,3.993,126.8161
lg,1625583152593448756,0,0.8718,-0.239,0.6875,133,46.4478,-8.7891,9.3384,103,1.2916,0.9094,-42.0842,-27.3021,24,0.075,10827,3.993,127.5151
lg,1625583152593497456,0,1.1301,-0.4126,0.8298,134,-5.3711,18.4326,12.207,103,1.2916,0.9325,-41.5358,-27.5621,24,0.077,10708,3.993,127.6134
lg,1625583152593545767,0,0.9531,-0.4692,0.8179,135,-8.3618,59.2651,9.6436,103,1.2926,0.9485,-39.4077,-27.3279,24,0.077,7917,3.993,126.668
lg,1625583152593591931,0,0.6028,-0.4524,0.7148,136,-7.3853,111.6333,1.0986,103,1.2926,0.9615,-35.2684,-26.3079,24,0.083,8306,3.993,124.297
lg,1625583152593638725,0,0.1287,-0.4705,0.7173,137,-11.9629,115.9058,-8.7891,103,1.2926,0.9755,-30.2622,-25.5934,24,0.08,10299,3.993,121.6915
lg,1625583152593686406,0,-0.0615,-0.4143,0.6816,138,-19.4092,58.4106,-10.6812,103,1.2916,0.9875,-27.0652,-25.8497,24,0.079,8068,3.993,120.2176
lg,1625583152593731867,0,-0.0122,-0.4211,0.6885,139,-25.4517,17.6392,-8.606,103,1.2896,0.9965,-27.0173,-27.3144,24,0.08,7962,3.993,120.3872
lg,1625583152593782640,0,0.2441,-0.4885,0.7131,140,-29.48,-28.6865,-4.6997,103,1.2876,1.0015,-27.6688,-28.977,24,0.08,8028,3.993,120.9416
lg,1625583152593827453,0,0.2585,-0.4351,0.7129,141,-13.6108,-26.123,-5.8594,103,1.2866,1.0055,-28.2711,-29.7773,24,0.079,8164,3.993,121.3351
lg,1625583152593872340,0,0.2466,-0.4526,0.6831,142,-8.1787,-42.8467,-0.4883,103,1.2876,1.0085,-29.295,-30.7206,24,0.08,8608,3.993,122.3749
lg,1625583152593919207,0,0.6255,-0.512,0.7271,143,-14.4653,-65.979,14.2822,103,1.2866,1.0095,-31.4536,-32.5545,24,0.08,12544,3.993,124.6315
lg,1625583152593964464,0,0.8748,-0.6846,0.8738,144,-5.0049,-45.9595,17.5781,103,1.2866,1.0065,-32.8594,-33.9541,24,0.08,8259,3.993,126.6274
lg,1625583152594008666,0,0.6516,-0.6919,0.8787,145,23.9258,8.2397,3.7231,103,1.2866,1.0005,-32.3952,-33.1267,24,0.081,8317,3.993,126.6478
lg,1625583152594057199,0,0.3943,-0.6279,0.7881,146,45.5933,15.7471,-1.0376,103,1.2886,0.9855,-31.4524,-31.3081,24,0.08,10025,3.993,126.3399
lg,1625583152594104659,0,0.3892,-0.5732,0.7617,147,49.1943,1.8311,-1.5869,103,1.2916,0.9715,-31.0564,-29.5281,24,0.078,8147,3.993,126.3622
lg,1625583152594153174,0,0.5293,-0.5664,0.7998,148,48.4619,-14.9536,3.2959,103,1.2926,0.9605,-31.4062,-28.069,24,0.082,8680,3.993,126.9556
lg,1625583152594203429,0,0.7356,-0.3203,0.7361,149,33.9966,-6.1646,7.9956,103,1.2916,0.9565,-31.9069,-26.7917,24,0.083,8378,3.993,127.3306
lg,1625583152594261235,0,0.8674,-0.4387,0.8384,150,-2.9297,16.6626,6.4087,103,1.2916,0.9625,-31.6084,-26.8845,24,0.084,8355,3.993,127.255
lg,1625583152594322411,0,0.8293,-0.373,0.7483,151,-8.728,39.4897,8.728,103,1.2946,0.9805,-30.3495,-27.0678,24,0.081,8233,3.993,126.8203
lg,1625583152594367594,0,0.5518,-0.4287,0.718,152,-23.4375,69.1528,3.2959,103,1.2926,0.9965,-27.9591,-27.4944,24,0.081,8451,3.993,125.5656
lg,1625583152594412944,0,0.2112,-0.4939,0.8049,153,-26.2451,64.6973,-6.7749,103,1.2926,1.0075,-25.2026,-27.9826,24,0.082,8295,3.993,124.0222
lg,1625583152594462902,0,-0.1875,-0.3726,0.7512,154,12.6953,20.9961,-35.8276,103,1.2926,1.0125,-23.7232,-26.6543,24,0.082,8514,3.993,122.1864
lg,1625583152594508807,0,-0.2942,-0.6206,0.6589,155,8.7891,-16.7847,-42.4194,103,1.2926,1.0175,-23.7872,-25.9801,24,0.081,8921,3.993,120.9474
lg,1625583152594554990,0,0.1987,-0.312,0.575,156,-0.7324,-97.0459,-29.541,103,1.2936,1.0195,-28.42,-27.1498,24,0.081,8500,3.993,122.4831
lg,1625583152594599006,0,0.699,-0.3591,0.6575,157,-17.395,-98.3887,-6.1646,103,1.2916,1.0175,-32.5532,-28.8511,24,0.08,8459,3.993,124.4126
lg,1625583152594642283,0,0.8186,-0.4839,0.752,158,-17.2729,-42.7246,3.9673,103,1.2936,1.0235,-34.3351,-30.3203,24,0.08,8604,3.993,125.6693
lg,1625583152594686244,0,0.7334,-0.5842,0.8125,159,-8.728,-4.5166,5.3101,103,1.2946,1.0245,-34.4512,-31.0564,24,0.081,8733,3.993,126.117
lg,1625583152594730409,0,0.6321,-0.6462,0.8638,160,-3.2959,4.2114,3.418,103,1.2946,1.0235,-33.7241,-31.0051,24,0.081,8633,3.993,126.0306
lg,1625583152952810485,0,0.4539,-0.5667,0.7729,161,22.583,33.1421,4.0894,103,1.2926,1.0105,-32.172,-29.9761,24,0.082,25179,3.993,125.5172
lg,1625583152952858278,0,0.2903,-0.613,0.7332,162,35.1562,23.0103,-2.4414,103,1.2956,0.9915,-30.8367,-28.6803,24,0.08,8875,3.993,125.1259
lg,1625583152952879157,0,0.2925,-0.5249,0.677,163,46.936,-28.1982,-0.6104,103,1.2966,0.9515,-31.3743,-27.5095,24,0.078,12671,3.993,125.9315
lg,1625583152952900203,0,0.4768,-0.5264,0.7175,164,39.978,-50.9033,11.5356,103,1.2966,0.9114,-32.8397,-27.1119,24,0.075,12357,3.993,127.7088
lg,1625583152952918713,0,0.6357,-0.512,0.7043,165,35.7056,-51.6357,16.5405,103,1.2966,0.8884,-34.5006,-27.0417,24,0.074,7740,3.993,129.7342
lg,1625583152952936760,0,0.6462,-0.4897,0.7058,166,33.6914,-45.2271,17.334,103,1.2956,0.8644,-35.8843,-26.855,24,0.076,7907,3.993,131.5795
lg,1625583152952954604,0,0.6367,-0.3276,0.6685,167,23.4985,-31.189,16.9067,103,1.2966,0.8434,-36.8608,-26.7422,24,0.075,7769,3.993,133.0103
lg,1625583152952972799,0,0.7085,-0.3667,0.6885,168,-3.7842,-26.3062,17.1509,103,1.2966,0.8284,-37.6796,-27.7657,24,0.076,7952,3.993,134.4123
lg,1625583152952990180,0,0.6201,-0.3733,0.709,169,-9.2163,-14.0991,19.4092,103,1.2976,0.8124,-37.1843,-28.9954,24,0.075,8639,3.993,135.5054
lg,1625583152953006895,0,0.4702,-0.4487,0.8027,170,-15.1367,2.4414,20.874,103,1.2956,0.7954,-36.2817,-30.1027,24,0.076,8777,3.993,136.3472
lg,1625583152953025072,0,0.3865,-0.4834,0.8035,171,-12.5122,-5.249,20.0195,103,1.2976,0.7794,-35.5009,-31.2072,24,0.076,7954,3.993,137.3442
lg,1625583152953042397,0,0.4653,-0.5442,0.948,172,-16.0522,-29.7852,19.043,103,1.2926,0.7814,-35.6068,-32.6862,24,0.076,8531,3.993,138.8692
lg,1625583152953060555,0,0.6606,-0.4883,0.8918,173,-24.5361,-36.499,18.4326,103,1.2996,0.7994,-36.2997,-34.5223,24,0.079,7870,3.993,140.5271
lg,1625583152953079250,0,0.7219,-0.5024,0.8206,174,-29.2358,-29.6021,16.1133,103,1.2986,0.8304,-36.8999,-36.4587,24,0.081,8110,3.993,141.9636
lg,1625583152953102444,0,0.615,-0.458,0.7271,175,-26.3672,-3.9062,10.437,103,1.2936,0.8654,-36.7156,-37.6471,24,0.082,7929,3.993,142.3866
lg,1625583152953122064,0,0.4873,-0.3955,0.6836,176,-42.7246,0.8545,3.1738,103,1.2966,0.9034,-36.4144,-39.0764,24,0.078,8338,3.993,142.2818
lg,1625583152953140907,0,0.4368,-0.5491,0.8298,177,-50.0488,-7.1411,-1.2817,103,1.2936,0.9405,-36.1041,-41.0479,24,0.076,8006,3.993,142.3776
lg,1625583152953158677,0,0.2712,-0.8203,0.9744,178,-21.9116,-1.0986,-17.0898,103,1.2916,0.9615,-35.6552,-41.5105,24,0.077,8169,3.993,141.7423
lg,1625583152953176687,0,-0.0625,-0.6885,0.5537,179,29.1748,-5.9204,-42.7856,103,1.2916,0.9725,-35.5148,-40.002,24,0.076,8024,3.993,140.6356
lg,1625583152953195401,0,0.2444,-0.3333,0.5068,180,35.1562,-34.3628,-36.6821,103,1.2916,0.9765,-37.7034,-39.3069,24,0.076,8249,3.993,141.6454
lg,1625583152953212708,0,0.5381,-0.3687,0.5913,181,14.9536,-82.1533,-12.207,103,1.2906,0.9805,-40.5263,-39.7992,24,0.076,8253,3.993,143.6803
lg,1625583152953230459,0,0.9146,-0.4653,0.7158,182,6.6528,-44.6777,2.2583,103,1.2916,0.9815,-42.0757,-40.3529,24,0.077,8317,3.993,145.1462
lg,1625583152953248006,0,0.7168,-0.458,0.708,183,13.7329,11.9019,4.9438,103,1.2926,0.9835,-41.5175,-39.3533,24,0.078,8107,3.993,144.7258
lg,1625583152953266442,0,0.6274,-0.4768,0.729,184,12.2681,20.0195,5.249,103,1.2916,0.9815,-40.5223,-38.3475,24,0.076,8282,3.993,144.0676
lg,1625583152953284453,0,0.6326,-0.5244,0.8013,185,11.5967,22.0337,4.5776,103,1.2886,0.9765,-39.4345,-37.3201,25,0.077,8178,3.993,143.3966
lg,1625583152953301741,0,0.5271,-0.5637,0.8152,186,22.0337,31.9214,1.0986,103,1.2916,0.9665,-37.9317,-35.7345,25,0.078,8443,3.993,142.3875
lg,1625583152953319122,0,0.3931,-0.6152,0.8037,187,35.7056,23.9258,-5.4932,103,1.2926,0.9515,-36.6164,-33.8341,25,0.079,8225,3.993,141.5276
lg,1625583152953338558,0,0.3147,-0.6226,0.7747,188,46.1426,9.0942,-16.1743,103,1.2956,0.9235,-36.3265,-31.4375,24,0.079,9044,3.993,140.9183
lg,1625583152953357493,0,0.292,-0.5151,0.7126,189,59.5703,-13.0005,-18.0664,103,1.2946,0.8924,-36.4339,-29.0045,24,0.082,8296,3.993,140.6065
lg,1625583152953375615,0,0.3232,-0.4805,0.7253,190,52.7954,-38.8184,-6.1035,103,1.2976,0.8674,-37.2773,-27.4981,24,0.079,8454,3.993,141.3924
lg,1625583152953394180,0,0.5754,-0.4832,0.71,191,35.7666,-67.3828,8.1787,103,1.2986,0.8444,-39.3618,-27.5621,24,0.078,8337,3.993,143.5266
lg,1625583152953412690,0,0.814,-0.3523,0.6704,192,16.3574,-59.8145,12.4512,103,1.2976,0.8224,-41.522,-28.2402,25,0.078,10073,3.993,145.5856
lg,1625583153310578472,0,0.7231,-0.4937,0.8005,193,-24.4141,-1.9531,7.9956,103,1.2976,0.8184,-41.2689,-29.6254,25,0.081,24583,3.993,146.0968
lg,1625583153310628302,0,0.5364,-0.4546,0.7915,194,-22.8271,15.0757,5.4321,103,1.2986,0.8404,-40.2056,-30.4354,24,0.083,9751,3.993,145.9414
lg,1625583153310649886,0,0.4331,-0.4204,0.7312,195,-29.8462,10.498,3.479,103,1.2986,0.8674,-39.1599,-31.6062,24,0.084,8027,3.993,145.8496
lg,1625583153310669359,0,0.3325,-0.5212,0.7754,196,-41.5649,3.7842,8.9111,103,1.2976,0.8954,-38.1524,-33.8312,24,0.08,10133,3.993,146.5189
lg,1625583153310688332,0,0.3215,-0.5396,0.8098,197,-43.335,-12.085,16.0522,103,1.2976,0.9225,-37.3994,-36.152,24,0.08,7846,3.993,147.5065
lg,1625583153310706621,0,0.3206,-0.5298,0.78,198,-16.2354,-41.0156,-3.2349,103,1.2976,0.9425,-38.0511,-37.3696,24,0.08,7967,3.993,148.5503
lg,1625583153310725205,0,0.3027,-0.5935,0.6365,199,-6.897,-48.7671,-10.5591,103,1.2976,0.9525,-39.3188,-38.4831,24,0.08,7815,3.993,150.0989
lg,1625583153310744567,0,0.4683,-0.4866,0.6506,200,-0.1221,-63.3545,-1.0986,103,1.2976,0.9555,-41.1752,-39.7727,24,0.08,9641,3.993,152.1328
lg,1625583153310762689,0,0.8005,-0.4919,0.6575,201,-1.2817,-54.8096,14.3433,103,1.2976,0.9575,-42.5683,-41.3719,24,0.08,8906,3.993,154.5627
lg,1625583153310780829,0,0.885,-0.6018,0.7766,202,5.188,-18.1885,12.5732,103,1.2926,0.9615,-42.7446,-41.8007,24,0.08,8098,3.993,155.627
lg,1625583153310804356,0,0.6428,-0.6111,0.7512,203,19.4092,22.8271,12.0239,103,1.2986,0.9555,-41.3773,-40.68,24,0.081,8067,3.993,155.2125
lg,1625583153310824866,0,0.6165,-0.5984,0.7434,204,23.7427,24.5972,10.498,103,1.2986,0.9505,-40.0124,-39.3828,24,0.082,7976,3.993,154.7453
lg,1625583153310843636,0,0.5767,-0.5952,0.7241,205,38.6353,32.2876,6.7749,103,1.2986,0.9435,-38.4982,-37.3543,24,0.081,8160,3.993,153.9797
lg,1625583153310861721,0,0.4324,-0.5735,0.6855,206,53.0396,33.8135,-2.9297,103,1.3006,0.9295,-36.977,-34.6634,24,0.082,7982,3.993,152.9299
lg,1625583153310879935,0,0.3633,-0.5669,0.6453,207,55.6641,27.4048,-5.4321,103,1.3006,0.9134,-36.1683,-32.1407,24,0.082,8157,3.993,152.4151
lg,1625583153310898446,0,0.3726,-0.4956,0.6504,208,55.2368,-0.3662,-4.7607,103,1.3006,0.9054,-35.8179,-30.0528,24,0.083,8046,4.0007,152.3651
lg,1625583153310916919,0,0.5166,-0.4629,0.6575,209,48.5229,-18.7988,4.1504,92,1.3016,0.9034,-36.2612,-28.6948,24,0.082,9057,4.0007,153.123
lg,1625583153310934282,0,0.8735,-0.4375,0.7634,210,1.6479,-24.1699,7.5073,92,1.3016,0.9114,-37.2829,-29.2074,24,0.083,13171,4.0007,154.0585
lg,1625583153310952496,0,0.8633,-0.407,0.7761,211,-4.8218,-6.3477,2.6855,92,1.3026,0.9265,-37.7279,-29.5038,24,0.086,8231,4.0007,154.2959
lg,1625583153310969693,0,0.7207,-0.3459,0.6675,212,-18.6157,35.3394,2.9297,92,1.3026,0.9425,-36.6793,-29.7072,24,0.085,8139,4.0007,153.49
lg,1625583153310987037,0,0.4487,-0.3652,0.6863,213,-31.6162,51.3916,-4.6387,92,1.3026,0.9575,-34.7276,-30.0333,24,0.084,8315,4.0007,151.9751
lg,1625583153311006436,0,0.2849,-0.4163,0.7573,214,-35.2173,49.9878,-8.5449,92,1.3026,0.9685,-32.2468,-30.7092,24,0.084,8155,4.0007,150.479
lg,1625583153311023762,0,-0.0068,-0.5354,0.8799,215,-12.6953,8.4839,-32.5317,92,1.3026,0.9785,-31.3884,-30.4346,24,0.084,8862,4.0007,148.9723
lg,1625583153311042606,0,-0.0027,-0.6169,0.6924,216,5.9204,-50.5981,-44.6167,92,1.3046,0.9855,-32.8548,-30.3923,24,0.082,8648,4.0007,148.6439
lg,1625583153311060246,0,0.4829,-0.3162,0.5718,217,1.8311,-89.7827,-26.6113,92,1.3026,0.9925,-36.6002,-30.8887,24,0.082,8378,4.0007,149.7317
lg,1625583153311077239,0,0.6782,-0.3608,0.6541,218,-6.2866,-83.313,-15.9302,92,1.3036,0.9935,-39.2264,-31.944,24,0.083,8226,4.0007,150.9971
lg,1625583153311094102,0,0.8596,-0.4536,0.7437,219,-7.4463,-32.2876,-1.2817,92,1.3016,0.9955,-40.5395,-32.7531,24,0.082,8450,4.0007,151.8284
lg,1625583153311110984,0,0.6958,-0.5493,0.7778,220,-2.8076,11.9019,4.9438,92,1.3036,0.9965,-39.8526,-32.8801,24,0.083,8255,4.0007,151.7672
lg,1625583153311127921,0,0.6694,-0.5671,0.7678,221,5.3101,29.3579,8.3618,92,1.3046,0.9965,-38.493,-32.5196,24,0.082,8488,4.0007,151.3981
lg,1625583153311145173,0,0.6235,-0.5554,0.7749,222,9.2163,36.499,8.4229,92,1.3026,0.9955,-36.6778,-31.6527,24,0.081,8341,4.0007,150.7226
lg,1625583153311162314,0,0.5396,-0.6133,0.7961,223,20.1416,39.6729,5.127,92,1.3026,0.9895,-34.8875,-30.6326,24,0.083,8511,4.0007,150.0746
lg,1625583153311179547,0,0.3806,-0.6362,0.7703,224,36.377,32.959,-6.2866,92,1.3036,0.9845,-33.334,-28.9845,24,0.083,8362,4.0007,149.2501
lg,1625583153700662816,0,0.4536,-0.4783,0.7144,225,51.1475,-21.3013,-3.8452,92,1.3056,0.9445,-34.2477,-27.7922,24,0.081,24618,4.0007,150.2009
lg,1625583153700696764,0,0.6094,-0.4158,0.6787,226,39.7339,-43.7622,4.6387,92,1.3056,0.9325,-36.205,-27.4786,24,0.08,8850,4.0007,151.4935
lg,1625583153700717089,0,0.9556,-0.4258,0.77,227,-6.4697,-21.6064,7.5073,92,1.3066,0.9365,-37.2524,-28.2794,24,0.082,9993,4.0007,152.3595
lg,1625583153700736654,0,0.7622,-0.3774,0.7141,228,-14.7095,23.9868,2.1362,92,1.3066,0.9525,-36.6039,-28.5545,24,0.087,10344,4.0007,151.8648
lg,1625583153700754961,0,0.4646,-0.4629,0.7834,229,-25.5127,44.7998,-4.4556,92,1.3066,0.9655,-34.743,-28.9176,24,0.082,7730,4.0007,150.6526
lg,1625583153700772824,0,0.3281,-0.4109,0.7214,230,-26.5503,48.5229,-4.2114,92,1.3056,0.9795,-32.2843,-29.2116,24,0.084,7802,4.0007,149.3149
lg,1625583153700790242,0,0.1309,-0.4314,0.7954,231,-35.4004,23.6206,-2.9297,92,1.3046,0.9915,-30.4026,-30.3388,24,0.084,10132,4.0007,148.6704
lg,1625583153700807309,0,0.1001,-0.4736,0.844,232,-7.9346,-43.7622,-33.02,92,1.3046,0.9975,-31.6256,-30.446,24,0.083,7860,4.0007,148.3505
lg,1625583153700825968,0,0.3779,-0.4216,0.6755,233,3.3569,-83.6792,-31.4331,92,1.3046,1.0015,-34.8732,-30.7762,24,0.084,7871,4.0007,149.1331
lg,1625583153700843331,0,0.593,-0.3687,0.5942,234,-0.8545,-86.792,-24.231,92,1.3056,1.0045,-38.6564,-31.5143,24,0.084,8003,4.0007,150.3408
lg,1625583153700865136,0,0.8027,-0.4016,0.7019,235,-3.3569,-47.7295,-6.4697,92,1.3046,1.0065,-40.6349,-32.2299,24,0.084,7961,4.0007,151.3272
lg,1625583153700882684,0,0.6968,-0.49,0.7524,236,-1.4648,-0.3052,2.4414,92,1.3056,1.0075,-40.4708,-32.3885,24,0.084,10775,4.0007,151.4602
lg,1625583153700900177,0,0.7483,-0.6262,0.8538,237,3.9062,11.7798,6.6528,92,1.3046,1.0075,-39.7196,-32.3626,24,0.083,8657,4.0007,151.5228
lg,1625583153700917539,0,0.7034,-0.6321,0.8301,238,16.9067,28.7476,3.9062,92,1.3066,1.0025,-38.4366,-31.5011,24,0.082,8243,4.0007,151.0357
lg,1625583153700934828,0,0.6506,-0.5837,0.7876,239,23.9258,39.1235,4.3945,92,1.3056,1.0005,-36.7078,-30.2671,24,0.082,8224,4.0007,150.3493
lg,1625583153700951840,0,0.5088,-0.5437,0.686,240,31.25,42.3584,2.7466,92,1.3046,0.9995,-34.9352,-28.8222,24,0.084,8133,4.0007,149.6366
lg,1625583153700968277,0,0.4353,-0.5647,0.688,241,40.9546,25.3296,-7.2021,92,1.3066,0.9965,-33.8451,-27.1372,24,0.083,7971,4.0007,149.0122
lg,1625583153700985566,0,0.3953,-0.5757,0.6863,242,46.2036,17.6392,-12.6953,92,1.3066,0.9905,-33.3698,-25.0253,24,0.082,8178,4.0007,148.4364
lg,1625583153701002744,0,0.4326,-0.4353,0.6809,243,41.9312,-8.4839,-7.9346,92,1.3056,0.9865,-33.6043,-23.5656,24,0.083,8073,4.0007,148.4323
lg,1625583153701020106,0,0.7332,-0.4282,0.6858,244,4.1504,-25.1465,0.061,92,1.3086,0.9945,-34.858,-23.9694,24,0.083,8175,4.0007,149.0916
lg,1625583153701037044,0,0.8955,-0.342,0.6824,245,-6.7749,-6.1035,1.8921,92,1.3086,1.0055,-35.6147,-24.4367,24,0.086,8039,4.0007,149.3458
lg,1625583153701054036,0,0.5476,-0.4402,0.7473,246,-10.5591,42.1143,-8.9722,92,1.3086,1.0145,-34.102,-24.3836,24,0.085,10221,4.0007,148.2353
lg,1625583153701071196,0,0.2725,-0.4631,0.7761,247,-2.9297,51.7578,-15.8081,92,1.3066,1.0175,-31.8058,-23.8622,24,0.086,8303,4.0007,146.6987
lg,1625583153701088485,0,-0.0449,-0.4792,0.7085,248,11.0474,6.4697,-31.7993,92,1.3076,1.0195,-30.7963,-23.1188,24,0.085,8390,4.0007,145.4696
lg,1625583153701105662,0,0.2944,-0.3738,0.6877,249,7.0801,-64.1479,-27.1606,92,1.3096,1.0215,-33.1657,-23.07,24,0.086,8365,4.0007,145.602
lg,1625583153701122174,0,0.6326,-0.3599,0.6729,250,-0.3662,-68.7256,-18.1274,92,1.3096,1.0235,-36.2121,-23.5582,24,0.085,8404,4.0007,146.2223
lg,1625583153701139203,0,0.6936,-0.364,0.697,251,-1.0986,-54.1992,-14.3433,92,1.3066,1.0245,-38.6123,-24.0128,24,0.085,8356,4.0007,146.7538
lg,1625583153701156492,0,0.7542,-0.3979,0.7449,252,-0.4883,-23.3154,-7.5684,92,1.3076,1.0245,-39.698,-24.2666,24,0.085,8423,4.0007,146.9857
lg,1625583153701173263,0,0.739,-0.5085,0.7727,253,0.061,-3.1738,-5.4932,92,1.3086,1.0275,-39.8636,-24.4975,24,0.085,8384,4.0007,147.0234
lg,1625583153701190237,0,0.6086,-0.5151,0.7529,254,3.9673,8.3618,-5.3711,92,1.3076,1.0275,-39.0745,-24.2549,24,0.085,8388,4.0007,146.7288
lg,1625583153701207211,0,0.5559,-0.4541,0.7188,255,10.8032,18.3105,-2.0752,92,1.3066,1.0285,-38.2127,-23.8574,24,0.084,8547,4.0007,146.4595
lg,1625583153701261873,0,0.5774,-0.4878,0.7068,256,12.7563,9.6436,0.6104,92,1.3056,1.0285,-37.6924,-23.6839,24,0.084,8694,4.0007,146.5639
lg,1625583154053874120,0,0.4919,-0.5349,0.6726,257,35.5225,-5.9204,-3.7231,92,1.3086,1.0305,-37.688,-22.8657,25,0.085,24630,4.0007,146.9008
lg,1625583154053967416,0,0.5398,-0.5134,0.6367,258,44.1284,-15.2588,-4.5776,92,1.3096,1.0305,-38.1875,-21.8129,25,0.084,9938,4.0007,147.3879
lg,1625583154054022412,0,0.5254,-0.5293,0.6316,259,48.1567,-16.7236,-1.9531,92,1.3096,1.0305,-38.6632,-20.7851,25,0.082,8190,4.0007,148.0799
lg,1625583154054071651,0,0.5615,-0.459,0.6228,260,55.1758,-24.292,-2.3193,92,1.3096,1.0305,-39.5305,-19.4192,24,0.084,8034,4.0007,148.7993
lg,1625583154054118225,0,0.5793,-0.4556,0.6289,261,61.0962,-29.6631,-1.709,92,1.3106,1.0275,-40.5991,-17.9207,24,0.084,8013,4.0007,149.6452
lg,1625583154054162300,0,0.5496,-0.4153,0.6279,262,67.1997,-33.6304,-1.2207,92,1.3066,1.0305,-41.7514,-16.1996,24,0.083,11932,4.0007,150.5399
lg,1625583154054208041,0,0.5325,-0.3623,0.6062,263,67.0776,-43.9453,1.8311,92,1.3106,1.0315,-43.3049,-14.3884,24,0.084,11966,4.0007,151.519
lg,1625583154054254744,0,0.6006,-0.3181,0.6365,264,63.8428,-54.2603,2.5024,92,1.3106,1.0315,-45.2686,-12.9508,25,0.084,8057,4.0007,152.73
lg,1625583154054302836,0,0.6689,-0.3237,0.6697,265,61.0962,-60.2417,6.0425,92,1.3106,1.0335,-47.4416,-11.8513,25,0.085,8050,4.0007,154.2178
lg,1625583154054350798,0,0.689,-0.353,0.6729,266,61.2183,-57.8003,6.3477,92,1.3096,1.0345,-49.2777,-10.8514,25,0.085,8049,4.0007,155.788
lg,1625583154054396817,0,0.6853,-0.3682,0.698,267,63.9648,-49.4995,6.4697,92,1.3086,1.0355,-50.8813,-9.8174,24,0.083,8117,4.0007,157.3447
lg,1625583154054444427,0,0.6719,-0.3579,0.6885,268,68.3594,-43.396,5.0049,92,1.3086,1.0385,-52.2076,-8.5377,24,0.083,9134,4.0007,158.7751
lg,1625583154054489631,0,0.5886,-0.3606,0.6729,269,73.1812,-39.0015,5.249,92,1.3066,1.0375,-53.2149,-7.1872,24,0.083,8199,4.0007,160.2827
lg,1625583154054533706,0,0.5884,-0.3552,0.679,270,74.9512,-40.7715,6.897,92,1.3046,1.0385,-54.3556,-5.8643,24,0.084,8177,4.0007,162.0159
lg,1625583154054584611,0,0.5579,-0.3386,0.6599,271,80.3223,-49.3164,12.0239,92,1.3016,1.0395,-55.669,-4.7811,25,0.083,8198,4.0007,164.1364
lg,1625583154054634036,0,0.5852,-0.3098,0.6594,272,82.4585,-59.5093,16.7236,92,1.3026,1.0405,-57.3881,-3.9202,25,0.084,8282,4.0007,166.6313
lg,1625583154054678796,0,0.6338,-0.3337,0.6587,273,86.3037,-67.5659,18.0664,92,1.3006,1.0405,-59.4586,-3.24,25,0.084,8230,4.0007,169.4506
lg,1625583154054723481,0,0.6733,-0.2944,0.6536,274,88.2568,-69.0308,19.5923,92,1.2996,1.0405,-61.5874,-2.5967,25,0.084,8252,4.0007,-187.5898
lg,1625583154054769703,0,0.7402,-0.2336,0.6196,275,84.8389,-67.688,21.5454,92,1.2946,1.0415,-63.74,-2.1606,24,0.085,8345,4.0007,-184.522
lg,1625583154054814241,0,0.8044,-0.2383,0.6516,276,77.2705,-66.4062,22.644,92,1.2996,1.0425,-65.7898,-2.3398,24,0.085,8283,4.0007,-181.136
lg,1625583154054858242,0,0.8518,-0.2378,0.6821,277,75.7446,-50.354,22.9492,92,1.2996,1.0425,-67.1329,-2.7531,24,0.085,12646,4.0007,-177.5749
lg,1625583154054903335,0,0.8157,-0.2305,0.7139,278,75.0732,-29.6631,23.6816,92,1.2986,1.0435,-67.5121,-3.2721,25,0.086,8402,4.0007,-173.9303
lg,1625583154054946817,0,0.7754,-0.2358,0.7437,279,73.2422,-14.9536,23.6206,92,1.2976,1.0435,-67.1987,-3.7907,25,0.087,8387,4.0007,-170.3629
lg,1625583154054991577,0,0.7441,-0.2124,0.7451,280,73.1812,-9.5215,22.7051,92,1.2976,1.0445,-66.4555,-3.9367,25,0.087,8396,4.0007,-167.1591
lg,1625583154055036244,0,0.6917,-0.1924,0.7451,281,72.8149,-3.0518,21.5454,92,1.2966,1.0445,-65.595,-3.7955,25,0.087,8435,4.0007,-164.2705
lg,1625583154055081393,0,0.6226,-0.1809,0.7732,282,72.3877,-0.8545,20.2637,92,1.2966,1.0455,-64.5536,-3.53,24,0.087,9357,4.0007,-161.5589
lg,1625583154055126171,0,0.5532,-0.1382,0.7642,283,70.1904,-4.9438,21.9727,92,1.2946,1.0455,-63.6012,-3.0986,24,0.087,8541,4.0007,-159.0316
lg,1625583154055170209,0,0.4661,-0.1172,0.7732,284,65.0024,-18.9209,23.0713,92,1.2956,1.0455,-63.0715,-2.8759,24,0.088,8516,4.0007,-156.474
lg,1625583154055214450,0,0.5002,-0.0872,0.7515,285,57.1289,-41.9922,26.9775,92,1.2966,1.0465,-63.5407,-3.2201,24,0.088,8590,4.0007,-153.5988
lg,1625583154055258969,0,0.6147,-0.1274,0.8096,286,47.2412,-57.6782,26.3062,92,1.2956,1.0455,-64.7164,-4.2441,25,0.09,8593,4.0007,-150.4489
lg,1625583154055303932,0,0.6577,-0.1289,0.8145,287,43.9453,-59.6924,26.7944,92,1.2956,1.0475,-65.9559,-5.633,25,0.089,8592,4.0007,-147.0504
lg,1625583154055349229,0,0.6987,-0.1548,0.8394,288,36.1328,-59.2651,28.2593,92,1.2946,1.0465,-67.1101,-7.7939,25,0.089,8679,4.0007,-143.1723
lg,1625583154398440793,0,0.7717,-0.2195,0.8779,289,30.2734,-34.1187,24.292,92,1.2936,1.0475,-67.2659,-9.8558,24,0.09,25223,4.0007,-139.6892
lg,1625583154398522315,0,0.7217,-0.2239,0.9004,290,30.3955,-26.9775,20.4468,92,1.2936,1.0455,-67.0414,-11.3578,24,0.09,10695,4.0007,-136.7871
lg,1625583154398575313,0,0.687,-0.2068,0.863,291,28.9917,-22.2778,18.5547,92,1.2926,1.0485,-66.6298,-12.5024,24,0.091,8508,4.0007,-134.3054
lg,1625583154398624996,0,0.6506,-0.2056,0.845,292,25.6348,-19.4702,18.3105,92,1.2916,1.0455,-66.077,-13.6045,24,0.09,8306,4.0007,-131.9964
lg,1625583154398674106,0,0.6284,-0.2202,0.8193,293,22.2778,-22.0947,19.043,92,1.2906,1.0485,-65.6074,-14.9543,24,0.09,9895,4.0007,-129.5559
lg,1625583154398719495,0,0.6101,-0.2383,0.844,294,20.0195,-27.5879,19.8364,92,1.2896,1.0485,-65.2706,-16.534,24,0.089,7979,4.0007,-126.9438
lg,1625583154398763533,0,0.604,-0.23,0.8513,295,17.5781,-29.9683,20.2637,92,1.2886,1.0495,-65.0096,-18.2268,24,0.09,7966,4.0007,-124.289
lg,1625583154398810496,0,0.6243,-0.2354,0.8347,296,16.7236,-38.269,20.874,92,1.2886,1.0485,-65.045,-20.1263,24,0.09,8025,4.0007,-121.4084
lg,1625583154398853497,0,0.6692,-0.2371,0.8223,297,14.9536,-44.3115,22.2778,92,1.2886,1.0495,-65.3141,-22.3949,24,0.09,8051,4.0007,-118.1776
lg,1625583154398895850,0,0.7183,-0.2173,0.7913,298,13.4277,-43.0298,22.644,92,1.2876,1.0495,-65.5834,-24.6605,24,0.088,9655,4.0007,-114.9869
lg,1625583154398938277,0,0.749,-0.2249,0.7825,299,11.6577,-40.4663,22.3389,92,1.2866,1.0495,-65.6502,-26.768,24,0.088,8372,4.0007,-112.1137
lg,1625583154398980334,0,0.7439,-0.2219,0.7727,300,8.8501,-32.8979,20.5688,92,1.2866,1.0495,-65.5154,-28.6879,24,0.089,8282,4.0007,-109.4842
lg,1625583154399031610,0,0.6953,-0.2463,0.7693,301,7.5073,-28.1982,18.7988,92,1.2856,1.0495,-65.1858,-30.2213,24,0.089,8184,4.0007,-107.3131
lg,1625583154399077536,0,0.6787,-0.2661,0.7542,302,6.4697,-24.1089,17.395,92,1.2846,1.0495,-64.7141,-31.5143,24,0.088,8185,4.0007,-105.4476
lg,1625583154399123092,0,0.6729,-0.2827,0.7551,303,6.7749,-24.231,17.2119,92,1.2846,1.0495,-64.2561,-32.7103,24,0.089,8228,4.0007,-103.7001
lg,1625583154399168055,0,0.7109,-0.2822,0.7532,304,5.5542,-25.6348,14.8926,92,1.2866,1.0475,-63.9105,-33.8513,24,0.088,9762,4.0007,-102.0244
lg,1625583154399211482,0,0.762,-0.272,0.7368,305,6.958,-21.9116,15.3809,92,1.2796,1.0495,-63.5435,-34.7215,24,0.087,8253,4.0007,-100.5544
lg,1625583154399254335,0,0.7751,-0.2729,0.7229,306,8.728,-9.8267,12.7563,92,1.2796,1.0495,-62.8867,-34.7704,24,0.087,8287,4.0007,-99.9189
lg,1625583154399300650,0,0.7637,-0.2471,0.7158,307,8.9111,4.9438,14.7095,92,1.2786,1.0485,-61.7494,-34.1796,24,0.087,8291,4.0007,-99.9711
lg,1625583154399344558,0,0.7175,-0.2571,0.699,308,9.7656,12.7563,15.8081,92,1.2786,1.0495,-60.1964,-33.4255,24,0.088,8348,4.0007,-100.1917
lg,1625583154399390317,0,0.6128,-0.2571,0.7058,309,9.9487,21.3623,18.0054,92,1.2746,1.0505,-58.3188,-32.4587,24,0.087,8397,4.0007,-100.6314
lg,1625583154399433004,0,0.5723,-0.2568,0.6853,310,9.2163,16.2354,19.7754,92,1.2766,1.0505,-56.5919,-31.9025,24,0.088,8378,4.0007,-100.6329
lg,1625583154399490629,0,0.5808,-0.259,0.6792,311,8.4839,5.3101,21.0571,92,1.2746,1.0495,-55.2878,-31.8392,24,0.087,8374,4.0007,-100.0782
lg,1625583154399539646,0,0.6096,-0.2639,0.6826,312,8.1177,1.5259,21.5454,92,1.2726,1.0485,-54.2534,-31.9582,24,0.087,8378,4.0007,-99.3212
lg,1625583154399585831,0,0.6482,-0.2859,0.6833,313,9.6436,1.2207,21.3013,92,1.2706,1.0495,-53.2569,-32.0486,24,0.088,8423,4.0007,-98.533
lg,1625583154399630517,0,0.6592,-0.25,0.6626,314,12.5732,9.4604,20.6299,92,1.2706,1.0485,-52.1127,-31.6545,24,0.087,8467,4.0007,-98.1533
lg,1625583154399675776,0,0.6208,-0.2473,0.6531,315,15.8691,22.7051,19.8975,92,1.2696,1.0495,-50.5307,-30.7611,24,0.087,8479,4.0007,-98.2377
lg,1625583154399720925,0,0.5999,-0.27,0.6995,316,17.8833,26.8555,19.3481,92,1.2696,1.0495,-48.6186,-29.557,24,0.086,8523,4.0007,-98.5412
lg,1625583154399765537,0,0.5344,-0.2024,0.7888,317,20.9351,31.8604,20.2026,92,1.2686,1.0455,-46.5585,-28.0858,24,0.087,8532,4.0007,-98.9636
lg,1625583154399810704,0,0.4448,-0.2241,0.9658,318,17.8833,29.3579,18.7988,92,1.2686,1.0505,-44.3528,-26.7357,24,0.087,9844,4.0007,-99.3423
lg,1625583154399855463,0,0.3809,-0.2493,1.2441,319,14.7705,19.8975,18.9209,92,1.2696,1.0515,-42.3024,-25.6629,24,0.088,10358,4.0007,-99.4473
lg,1625583154399899427,0,0.2954,-0.1956,1.3013,320,9.7046,14.0381,15.9302,100,1.2706,1.0525,-40.4612,-24.7049,25,0.087,8603,4.0007,-99.582
lg,1625583154780655552,0,0.7896,-0.2231,0.8159,321,-32.2266,-56.4575,-4.4556,100,1.2756,1.0535,-42.6689,-26.3399,25,0.087,25687,4.0007,-98.7299
lg,1625583154780736649,0,0.9429,-0.3613,0.801,322,-34.6069,-33.1421,-7.9346,100,1.2736,1.0535,-44.1451,-27.94,24,0.089,10023,4.0007,-98.3369
lg,1625583154780787906,0,0.9204,-0.47,0.7961,323,-23.3765,15.5029,-10.9253,100,1.2706,1.0545,-43.8254,-28.3076,24,0.085,8488,4.0007,-99.218
lg,1625583154780836905,0,0.7017,-0.4556,0.7515,324,-9.0942,56.2134,-7.9956,100,1.2686,1.0545,-41.7869,-27.5448,24,0.086,8173,4.0007,-100.9676
lg,1625583154780885200,0,0.6228,-0.4299,0.6787,325,0.1221,62.439,-2.1362,100,1.2686,1.0545,-39.4536,-26.6863,24,0.085,8119,4.0007,-102.4482
lg,1625583154780931145,0,0.6277,-0.4211,0.6653,326,7.9346,63.9648,5.7373,100,1.2686,1.0545,-37.033,-25.8527,24,0.085,8813,4.0007,-103.4985
lg,1625583154780976645,0,0.5752,-0.376,0.6467,327,11.4136,67.1997,8.7891,100,1.2696,1.0555,-34.4835,-24.9541,24,0.084,8037,4.0007,-104.4389
lg,1625583154781023052,0,0.4656,-0.3206,0.6277,328,18.1885,58.4717,10.6812,100,1.2706,1.0555,-32.1408,-23.9241,24,0.083,8579,4.0007,-105.0933
lg,1625583154781115626,0,0.3259,-0.2666,0.6433,329,19.7144,28.5645,9.8267,100,1.2726,1.0565,-30.6555,-23.0154,24,0.082,8270,4.0007,-105.2393
lg,1625583154781164421,0,0.2913,-0.2307,0.6682,330,18.3105,9.2773,10.9253,100,1.2726,1.0555,-30.5157,-22.616,24,0.082,8164,4.0007,-104.5906
lg,1625583154781207015,0,0.3159,-0.2468,0.7539,331,10.7422,-36.9263,13.1226,100,1.2726,1.0525,-31.3192,-22.6197,24,0.082,8171,4.0007,-103.462
lg,1625583154781398586,0,0.5552,-0.2583,0.7732,332,4.5776,-74.585,16.1743,100,1.2756,1.0575,-33.9081,-23.3982,24,0.082,8183,4.0007,-101.4511
lg,1625583154781449491,0,0.7478,-0.2891,0.812,333,1.0986,-76.8433,20.874,100,1.2776,1.0565,-36.6311,-24.6356,24,0.082,8182,4.0007,-99.0555
lg,1625583154781495436,0,0.8101,-0.3149,0.822,334,2.3193,-65.3687,23.8647,100,1.2776,1.0555,-38.8027,-25.9355,24,0.082,8184,4.0007,-96.6267
lg,1625583154781541140,0,0.8518,-0.3411,0.8333,335,6.1035,-46.5698,20.6299,100,1.2796,1.0545,-40.2684,-26.8434,24,0.082,8234,4.0007,-94.6775
lg,1625583154781586344,0,0.7861,-0.3452,0.8176,336,13.0005,-20.6299,21.6064,100,1.2796,1.0525,-40.6492,-27.1403,25,0.081,9997,4.0007,-93.275
lg,1625583154781631936,0,0.6902,-0.3489,0.8042,337,16.0522,-7.7515,21.3013,100,1.2826,1.0505,-40.4308,-27.1112,25,0.081,8245,4.0007,-92.194
lg,1625583154781676678,0,0.6995,-0.3757,0.7732,338,17.7612,-9.2163,24.1699,100,1.2836,1.0485,-40.254,-27.2211,25,0.078,8318,4.0007,-90.8794
lg,1625583154781719771,0,0.7095,-0.3782,0.7646,339,18.8599,-9.5215,27.0996,100,1.2846,1.0475,-40.0577,-27.4019,25,0.077,8319,4.0007,-89.3463
lg,1625583154781763828,0,0.7612,-0.4189,0.7969,340,19.5312,-3.9673,29.48,100,1.2836,1.0445,-39.6497,-27.5636,24,0.077,8454,4.0007,-87.8834
lg,1625583154781806755,0,0.7,-0.4197,0.7529,341,25.8179,12.7563,33.5083,100,1.2856,1.0485,-38.55,-27.3647,24,0.077,8599,4.0007,-86.62
lg,1625583154781849164,0,0.6794,-0.3804,0.7627,342,30.7007,19.165,34.9731,100,1.2866,1.0495,-37.2262,-26.7975,24,0.078,8369,4.0007,-85.5119
lg,1625583154781891165,0,0.6672,-0.3608,0.7695,343,34.9731,18.2495,30.2734,100,1.2876,1.0535,-36.0658,-25.8969,24,0.079,11511,4.0007,-84.6097
lg,1625583154781936110,0,0.6418,-0.3394,0.7676,344,38.147,19.104,21.8506,100,1.2886,1.0575,-35.0501,-24.6214,25,0.079,8982,4.0007,-84.093
lg,1625583154781980203,0,0.5588,-0.2837,0.7808,345,42.2974,21.1792,13.9771,100,1.2886,1.0595,-34.0031,-22.8609,25,0.079,9240,4.0007,-83.9985
lg,1625583154782076591,0,0.5227,-0.2561,0.7764,346,40.1611,19.165,9.0332,100,1.2896,1.0615,-33.2106,-21.1022,25,0.079,8575,4.0007,-84.0703
lg,1625583154782136826,0,0.5559,-0.2637,0.7932,347,38.0859,12.5732,8.606,100,1.2896,1.0625,-32.63,-19.5672,24,0.079,8584,4.0007,-83.9575
lg,1625583154782186250,0,0.5381,-0.2227,0.761,348,36.7432,11.1084,2.9907,100,1.2896,1.0625,-32.2257,-17.9513,24,0.079,8537,4.0007,-84.0664
lg,1625583154782229992,0,0.4673,-0.1895,0.7615,349,33.2642,8.606,-0.061,100,1.2906,1.0635,-31.8346,-16.3959,24,0.079,8756,4.0007,-84.2777
lg,1625583154782278472,0,0.4688,-0.186,0.7395,350,25.9399,-8.3008,0.1831,100,1.2906,1.0635,-32.1321,-15.3278,24,0.08,8546,4.0007,-84.2126
lg,1625583154782322380,0,0.5198,-0.2185,0.7693,351,21.2402,-25.0244,0.4272,100,1.2886,1.0635,-33.1161,-14.674,24,0.08,9552,4.0007,-83.8753
lg,1625583154782369935,0,0.605,-0.2434,0.7927,352,19.4702,-28.6865,0.4883,100,1.2916,1.0635,-34.4579,-14.2095,24,0.08,9221,4.0007,-83.4845
lg,1625583155134440355,0,0.6689,-0.251,0.7869,353,18.9209,-21.7896,-6.7749,100,1.2916,1.0645,-35.5138,-13.557,25,0.079,26373,4.0007,-83.4706
lg,1625583155134522972,0,0.6763,-0.2573,0.8049,354,18.4326,-18.1885,-7.9956,100,1.2926,1.0655,-36.4093,-12.8718,25,0.08,8842,4.0007,-83.5591
lg,1625583155134575359,0,0.6538,-0.2778,0.7971,355,18.1885,-12.5122,-6.4087,100,1.2926,1.0665,-37.0011,-12.2851,25,0.081,8051,4.0007,-83.5894
lg,1625583155134629469,0,0.6201,-0.2515,0.7769,356,17.2729,-8.4229,-4.8828,100,1.2926,1.0665,-37.3733,-11.7247,25,0.08,11863,4.0007,-83.6077
lg,1625583155134680042,0,0.6423,-0.2402,0.7629,357,13.916,-9.5825,-0.9766,100,1.2936,1.0665,-37.7231,-11.6013,25,0.081,10729,4.0007,-83.2811
lg,1625583155134726821,0,0.6604,-0.2583,0.7705,358,10.2539,-5.188,3.6011,100,1.2936,1.0675,-37.948,-11.6007,25,0.081,7886,4.0007,-82.8848
lg,1625583155134773137,0,0.6213,-0.2615,0.7798,359,8.4839,-0.9155,6.1035,100,1.2946,1.0675,-37.8969,-11.7286,25,0.082,7968,4.0007,-82.4017
lg,1625583155134819693,0,0.6104,-0.2625,0.8005,360,6.958,-1.0986,7.2632,100,1.2946,1.0675,-37.8115,-11.9587,24,0.082,7899,4.0007,-81.8565
lg,1625583155134868249,0,0.6162,-0.2795,0.814,361,9.6436,-1.0986,5.249,100,1.2946,1.0675,-37.7211,-12.0216,24,0.082,8029,4.0007,-81.4107
lg,1625583155134914009,0,0.592,-0.282,0.79,362,13.4277,-2.8076,1.709,100,1.2946,1.0685,-37.7167,-11.8638,24,0.082,9847,4.0007,-81.1064
lg,1625583155134959696,0,0.6008,-0.2717,0.793,363,13.4277,-2.5024,-0.1221,100,1.2986,1.0675,-37.731,-11.6237,25,0.08,8640,4.0007,-80.9117
lg,1625583155135006049,0,0.6089,-0.2786,0.8032,364,14.3433,-3.6621,0.061,100,1.2956,1.0685,-37.7888,-11.3783,25,0.081,10754,4.0007,-80.685
lg,1625583155135050106,0,0.6184,-0.271,0.8103,365,13.4277,-0.7935,2.0752,100,1.2956,1.0695,-37.7269,-11.196,25,0.081,8261,4.0007,-80.3976
lg,1625583155135133834,0,0.6213,-0.2698,0.8123,366,14.4653,0.3662,2.9297,100,1.2966,1.0695,-37.6749,-11.0199,25,0.083,8105,4.0007,-80.0619
lg,1625583155135183148,0,0.6379,-0.2622,0.7805,367,13.4277,1.0986,5.9204,100,1.2966,1.0695,-37.5895,-10.9523,24,0.083,8098,4.0007,-79.5967
lg,1625583155135226854,0,0.6707,-0.2798,0.8008,368,11.9629,5.3101,10.1318,100,1.2976,1.0705,-37.3348,-11.0708,24,0.084,8174,4.0007,-78.9483
lg,1625583155135272170,0,0.6274,-0.2788,0.8093,369,11.7798,11.1084,12.7563,100,1.2986,1.0705,-36.7594,-11.2283,24,0.083,8651,4.0007,-78.2363
lg,1625583155135319171,0,0.6252,-0.2869,0.7954,370,11.9629,12.4512,14.3433,100,1.2986,1.0705,-36.1255,-11.4601,24,0.083,9293,4.0007,-77.3953
lg,1625583155135364302,0,0.6257,-0.2905,0.8372,371,14.5264,13.3667,15.5029,100,1.2986,1.0695,-35.411,-11.5252,24,0.083,8619,4.0007,-76.6091
lg,1625583155135408619,0,0.6116,-0.2869,0.8262,372,17.2729,15.4419,11.9019,100,1.2986,1.0695,-34.6965,-11.3767,24,0.083,8304,4.0007,-76.0144
lg,1625583155135452417,0,0.5789,-0.3064,0.8164,373,21.6064,17.2729,8.5449,100,1.2996,1.0705,-33.9163,-11.0158,24,0.084,8254,4.0007,-75.5627
lg,1625583155135496289,0,0.551,-0.2891,0.8076,374,23.3154,18.5547,6.8359,100,1.3016,1.0715,-33.0958,-10.5152,24,0.085,8316,4.0007,-75.2142
lg,1625583155135541106,0,0.5376,-0.2617,0.7988,375,24.292,17.7002,5.8594,100,1.3016,1.0715,-32.4117,-9.773,24,0.084,8308,4.0007,-75.0392
lg,1625583155135586089,0,0.4641,-0.2175,0.7749,376,23.2544,15.9302,4.3945,100,1.2996,1.0705,-31.6579,-9.1257,24,0.084,8319,4.0007,-74.8301
lg,1625583155135629757,0,0.4473,-0.2327,0.7812,377,20.3247,2.1973,5.0049,100,1.3006,1.0705,-31.4261,-8.7297,24,0.085,8389,4.0007,-74.4541
lg,1625583155135675333,0,0.491,-0.2085,0.7632,378,16.7236,-7.7515,4.4556,100,1.3016,1.0715,-31.7185,-8.4559,24,0.085,8603,4.0007,-74.0577
lg,1625583155135719150,0,0.5278,-0.1897,0.7759,379,14.8926,-10.437,4.2725,100,1.3016,1.0705,-32.2921,-8.3109,24,0.085,8437,4.0007,-73.6809
lg,1625583155135763355,0,0.5278,-0.2151,0.7991,380,12.6953,-13.7939,4.0283,100,1.3006,1.0665,-32.82,-8.2218,24,0.085,8421,4.0007,-73.2543
lg,1625583155135868815,0,0.5647,-0.2251,0.7988,381,10.376,-17.2729,4.0894,100,1.3026,1.0715,-33.5323,-8.2697,24,0.085,8508,4.0007,-72.7825
lg,1625583155135925275,0,0.6226,-0.2485,0.8079,382,10.2539,-19.5312,5.188,100,1.3026,1.0725,-34.3861,-8.4119,24,0.085,8474,4.0007,-72.2097
lg,1625583155135974849,0,0.6213,-0.2578,0.8083,383,10.9253,-18.6768,4.0283,100,1.3026,1.0725,-35.0661,-8.4682,24,0.085,8706,4.0007,-71.6793
lg,1625583155136017685,0,0.6184,-0.2412,0.8169,384,12.9395,-14.8926,4.9438,100,1.3016,1.0725,-35.6597,-8.4643,24,0.086,8570,4.0007,-71.1508
lg,1625583155485156720,0,0.6069,-0.2732,0.8445,385,15.2588,-8.4839,5.4321,100,1.3036,1.0735,-35.9155,-8.4249,25,0.083,24926,4.0007,-70.6013
lg,1625583155485264753,0,0.6089,-0.2703,0.8521,386,16.1133,-4.5776,5.0659,100,1.3036,1.0735,-36.005,-8.3152,25,0.084,9039,4.0007,-70.1024
lg,1625583155485320602,0,0.6118,-0.2471,0.8132,387,18.2495,-3.54,4.3945,100,1.3046,1.0745,-36.1116,-8.0675,25,0.083,11572,4.0007,-69.6611
lg,1625583155485368196,0,0.6184,-0.2312,0.8162,388,17.1509,-2.1973,3.9062,100,1.3036,1.0745,-36.1759,-7.8102,25,0.084,10383,4.0007,-69.2731
lg,1625583155485413216,0,0.5991,-0.2244,0.8127,389,17.8833,-0.1831,4.2114,100,1.3036,1.0745,-36.1297,-7.5223,25,0.084,9728,4.0007,-68.8848
lg,1625583155485457106,0,0.5471,-0.209,0.8074,390,16.4795,3.1128,5.5542,100,1.3046,1.0745,-35.8637,-7.2974,25,0.082,7889,4.0007,-68.4632
lg,1625583155485503478,0,0.5415,-0.209,0.8188,391,15.3198,1.8921,6.5308,100,1.3046,1.0745,-35.6856,-7.2834,25,0.078,8128,4.0007,-67.9169
lg,1625583155485548831,0,0.5308,-0.2075,0.8267,392,11.9629,-0.4272,7.5073,100,1.3046,1.0755,-35.5134,-7.3003,25,0.078,7953,4.0007,-67.3832
lg,1625583155485593647,0,0.5322,-0.2432,0.8086,393,11.4136,-4.3335,8.728,100,1.3046,1.0725,-35.5146,-7.4929,25,0.079,9260,4.0007,-66.7043
lg,1625583155485637057,0,0.5442,-0.2566,0.8169,394,10.9253,-6.4697,8.5449,100,1.3046,1.0785,-35.6094,-7.7288,25,0.079,8010,4.0007,-66.0078
lg,1625583155485681966,0,0.5369,-0.2524,0.8181,395,10.8032,-8.5449,7.2021,100,1.3096,1.0755,-35.773,-7.9219,25,0.078,8024,4.0007,-65.372
lg,1625583155485724968,0,0.5613,-0.2566,0.845,396,13.7939,-11.1694,4.8828,100,1.3056,1.0755,-36.0582,-7.9239,25,0.075,8058,4.0007,-64.8397
lg,1625583155485772506,0,0.5681,-0.2449,0.8281,397,13.9771,-12.0239,2.7466,100,1.3056,1.0775,-36.412,-7.8425,25,0.075,8268,4.0007,-64.4158
lg,1625583155485817970,0,0.5891,-0.2266,0.8494,398,14.6484,-12.8784,1.5869,100,1.3056,1.0775,-36.8191,-7.6528,24,0.074,8122,4.0007,-64.0857
lg,1625583155485861472,0,0.6213,-0.2312,0.8389,399,14.5874,-12.7563,1.2207,100,1.3046,1.0775,-37.2647,-7.4693,24,0.072,8156,4.0007,-63.7524
lg,1625583155485905826,0,0.6465,-0.2329,0.8306,400,14.5874,-10.2539,1.4038,100,1.3066,1.0785,-37.6466,-7.2955,24,0.071,8131,4.0007,-63.417
lg,1625583155485949235,0,0.6406,-0.2249,0.8103,401,14.2822,-6.897,1.8311,100,1.3066,1.0775,-37.8182,-7.1485,24,0.07,8173,4.0007,-63.053
lg,1625583155485993700,0,0.6162,-0.2236,0.8335,402,13.3667,-2.3804,2.5024,100,1.3066,1.0775,-37.8095,-7.0207,24,0.072,8235,4.0007,-62.7148
lg,1625583155486036443,0,0.5977,-0.2183,0.8235,403,13.1226,-0.7324,3.8452,100,1.3066,1.0785,-37.7108,-6.9372,24,0.071,8238,4.0007,-62.3198
lg,1625583155486078705,0,0.5945,-0.2207,0.8315,404,12.8174,-0.9766,2.0752,100,1.3066,1.0775,-37.6187,-6.8174,24,0.072,8171,4.0007,-62.0095
lg,1625583155486122170,0,0.6104,-0.2317,0.8462,405,13.5498,-0.5493,1.5869,100,1.3076,1.0785,-37.4779,-6.6536,24,0.072,8187,4.0007,-61.7257
lg,1625583155486165505,0,0.5801,-0.2183,0.8352,406,13.7329,0.6104,-0.5493,100,1.3066,1.0785,-37.3159,-6.4158,24,0.07,8249,4.0007,-61.5548
lg,1625583155486212969,0,0.5598,-0.2283,0.8269,407,14.8926,-0.6104,-2.1973,100,1.3076,1.0785,-37.1885,-6.1308,24,0.071,8247,4.0007,-61.4329
lg,1625583155486259618,0,0.5811,-0.2432,0.8408,408,15.8081,-1.8921,-2.2583,100,1.3066,1.0775,-37.1375,-5.8496,24,0.07,8908,4.0007,-61.2847
lg,1625583155486303287,0,0.5667,-0.2332,0.8342,409,16.4795,-1.6479,-1.1597,100,1.3086,1.0815,-37.0582,-5.5658,24,0.068,8363,4.0007,-61.0886
lg,1625583155486392827,0,0.5366,-0.2302,0.8416,410,16.3574,0.3052,1.3428,100,1.3086,1.0785,-36.8321,-5.3613,24,0.065,12525,4.0007,-60.7745
lg,1625583155486442938,0,0.5574,-0.1995,0.8169,411,14.7095,-3.7842,3.7842,100,1.3086,1.0785,-36.8399,-5.2409,24,0.065,8425,4.0007,-60.361
lg,1625583155486487828,0,0.5808,-0.2319,0.8667,412,12.4512,-3.54,1.9531,100,1.3096,1.0785,-36.8242,-5.2145,24,0.067,8414,4.0007,-60.0041
lg,1625583155486531312,0,0.5874,-0.2383,0.8699,413,14.3433,-2.3804,1.5259,100,1.3096,1.0785,-36.7725,-5.1108,24,0.067,8462,4.0007,-59.6654
lg,1625583155486573925,0,0.5916,-0.2244,0.8538,414,15.2588,-0.061,1.2817,100,1.3096,1.0785,-36.6598,-4.933,24,0.066,8496,4.0007,-59.3643
lg,1625583155486616928,0,0.5737,-0.2102,0.8489,415,17.8223,2.1973,0.5493,100,1.3096,1.0775,-36.4409,-4.6015,24,0.062,8663,4.0007,-59.1241
lg,1625583155486659967,0,0.5698,-0.1902,0.8159,416,16.9067,3.6011,1.4038,100,1.3086,1.0765,-36.2085,-4.3048,24,0.059,9065,4.0007,-58.8619
lg,1625583155870442469,0,0.55,-0.2083,0.8286,417,15.0757,3.479,3.3569,100,1.3096,1.0765,-35.9314,-4.1951,24,0.06,24779,4.0007,-58.4695
lg,1625583155870537784,0,0.541,-0.2075,0.8315,418,13.6108,2.9907,4.0894,100,1.3096,1.0755,-35.6624,-4.1665,24,0.058,12263,4.0007,-58.0404
lg,1625583155870593152,0,0.5417,-0.21,0.8347,419,13.3057,2.1362,5.127,100,1.3096,1.0755,-35.4323,-4.1851,24,0.06,9954,4.0007,-57.5567
lg,1625583155870645447,0,0.5469,-0.21,0.8477,420,13.2446,1.4648,4.8828,100,1.3096,1.0745,-35.3076,-4.2306,24,0.061,7931,4.0007,-57.0689
lg,1625583155870695484,0,0.5388,-0.2014,0.8386,421,11.7798,0.3052,5.4321,100,1.3096,1.0745,-35.1531,-4.2923,24,0.059,7879,4.0007,-56.5834
lg,1625583155870743373,0,0.5278,-0.2068,0.8386,422,11.3525,0.3662,4.1504,100,1.3106,1.0745,-34.9847,-4.3471,24,0.057,7890,4.0007,-56.1544
lg,1625583155870789264,0,0.5271,-0.2114,0.8306,423,11.7188,-0.7935,3.479,100,1.3106,1.0745,-34.8601,-4.3712,24,0.055,7929,4.0007,-55.7547
lg,1625583155870837579,0,0.5317,-0.1919,0.8506,424,10.7422,-4.8828,3.9673,100,1.3086,1.0735,-34.9061,-4.4055,24,0.055,8710,4.0007,-55.3461
lg,1625583155870885838,0,0.5793,-0.2073,0.8472,425,10.6201,-7.8125,3.0518,100,1.3086,1.0725,-35.1593,-4.4585,24,0.055,8668,4.0007,-54.9515
lg,1625583155870972528,0,0.5508,-0.2173,0.8552,426,11.4746,-7.6904,2.1362,100,1.3116,1.0735,-35.3382,-4.4786,24,0.054,8000,4.0007,-54.5848
lg,1625583155871024693,0,0.5564,-0.1946,0.8418,427,11.9629,-8.0566,2.5635,100,1.3116,1.0725,-35.5512,-4.4392,24,0.052,8096,4.0007,-54.2257
lg,1625583155871068880,0,0.5513,-0.1875,0.8281,428,11.6577,-7.2021,2.1362,100,1.3096,1.0715,-35.7035,-4.4059,24,0.046,8090,4.0007,-53.8852
lg,1625583155871112771,0,0.542,-0.1831,0.8447,429,10.376,-7.5073,2.5024,88,1.3116,1.0725,-35.8514,-4.4026,24,0.044,8091,4.0018,-53.5439
lg,1625583155871162382,0,0.5569,-0.2068,0.8408,430,9.1553,-7.9346,2.8687,88,1.3126,1.0725,-36.0395,-4.5232,24,0.042,8147,4.0018,-53.1443
lg,1625583155871214325,0,0.5623,-0.1936,0.8469,431,8.606,-8.606,2.1973,88,1.3106,1.0725,-36.2519,-4.606,24,0.043,11212,4.0018,-52.7985
lg,1625583155871513656,0,0.5598,-0.2114,0.8486,432,9.3994,-8.7891,0.6714,88,1.3116,1.0725,-36.4598,-4.658,24,0.042,8312,4.0018,-52.4993
lg,1625583155871577521,0,0.5662,-0.2192,0.8577,433,8.9111,-9.3994,0.7324,88,1.3116,1.0725,-36.56,-4.6442,24,0.042,8191,4.0018,-52.2427
lg,1625583155871627521,0,0.5493,-0.196,0.8525,434,10.498,-8.4229,-0.6104,88,1.3116,1.0725,-36.7228,-4.5729,24,0.041,8187,4.0018,-52.0315
lg,1625583155871683111,0,0.5405,-0.1831,0.844,435,10.1318,-8.606,-1.3428,88,1.3116,1.0725,-36.8838,-4.4689,24,0.041,8870,4.0018,-51.8713
lg,1625583155871735202,0,0.5525,-0.1851,0.8411,436,9.4604,-10.437,-1.4038,88,1.3126,1.0725,-37.137,-4.4034,24,0.041,8240,4.0018,-51.7011
lg,1625583155871783795,0,0.5574,-0.1877,0.8535,437,7.9956,-9.4604,-0.3052,88,1.3116,1.0725,-37.332,-4.4313,24,0.04,9816,4.0018,-51.4763
lg,1625583155871829130,0,0.5613,-0.1758,0.8501,438,7.6904,-8.9111,-0.3662,88,1.3156,1.0705,-37.5915,-4.5691,24,0.042,8309,4.0018,-51.2115
lg,1625583155871879481,0,0.6028,-0.1912,0.8726,439,5.3101,-9.8267,-0.3052,88,1.3106,1.0725,-37.8405,-4.6938,24,0.042,8286,4.0018,-50.9888
lg,1625583155871923650,0,0.5872,-0.187,0.8518,440,5.6152,-5.3101,0.1221,88,1.3126,1.0725,-37.8966,-4.8055,24,0.041,8306,4.0018,-50.7633
lg,1625583155872013856,0,0.5652,-0.187,0.8372,441,4.8828,-2.5024,-0.4883,88,1.3146,1.0725,-37.819,-4.9262,24,0.042,8391,4.0018,-50.5764
lg,1625583155872062079,0,0.5508,-0.2144,0.8374,442,4.6387,-2.8076,0.061,88,1.3126,1.0725,-37.7072,-5.0913,24,0.043,8404,4.0018,-50.3502
lg,1625583155872106932,0,0.5232,-0.1824,0.832,443,3.6011,-3.2349,0.1221,88,1.3116,1.0735,-37.5914,-5.2678,24,0.045,8378,4.0018,-50.1397
lg,1625583155872149342,0,0.512,-0.1917,0.8328,444,2.1973,-6.1035,0.1221,88,1.3116,1.0745,-37.57,-5.5282,24,0.044,9269,4.0018,-49.9035
lg,1625583155872191937,0,0.5325,-0.1953,0.8508,445,0.6104,-8.728,-0.7935,88,1.3116,1.0755,-37.6735,-5.8191,24,0.042,9960,4.0018,-49.7073
lg,1625583155872240197,0,0.5383,-0.2019,0.8257,446,0.7935,-9.8877,-2.3193,88,1.3126,1.0745,-37.8645,-6.0798,24,0.043,8572,4.0018,-49.5675
lg,1625583155872287679,0,0.5288,-0.21,0.8384,447,-0.6104,-12.146,-2.3804,88,1.3136,1.0765,-38.1032,-6.4099,24,0.044,8486,4.0018,-49.4109
lg,1625583155872342158,0,0.5254,-0.2175,0.8408,448,-0.4272,-13.4277,-2.6855,88,1.3136,1.0765,-38.3737,-6.7368,24,0.045,8540,4.0018,-49.2534
lg,1625583156226253488,0,0.5291,-0.2004,0.8462,449,-0.5493,-16.1133,-2.0752,88,1.3106,1.0785,-38.7386,-7.0364,24,0.045,24983,4.0018,-49.0833
lg,1625583156226413357,0,0.5671,-0.207,0.8501,450,-0.6714,-18.7988,-0.8545,88,1.3146,1.0785,-39.253,-7.3934,24,0.048,9846,4.0018,-48.8275
lg,1625583156226469338,0,0.6067,-0.2046,0.8564,451,-1.5259,-18.4326,-1.2817,88,1.3146,1.0785,-39.7964,-7.7448,24,0.045,7906,4.0018,-48.6058
lg,1625583156226520319,0,0.5881,-0.2056,0.8391,452,-1.4038,-14.5874,-1.5259,88,1.3146,1.0795,-40.1365,-8.0256,24,0.046,13520,4.0018,-48.4454
lg,1625583156226569876,0,0.5947,-0.2253,0.8494,453,-1.5259,-12.085,0.2441,88,1.3146,1.0805,-40.3689,-8.4433,24,0.045,8561,4.0018,-48.1531
lg,1625583156226618748,0,0.6108,-0.2124,0.8599,454,-1.0376,-11.1694,-0.4272,88,1.3146,1.0805,-40.5763,-8.7567,24,0.046,8115,4.0018,-47.9373
lg,1625583156226664491,0,0.6047,-0.2317,0.8667,455,0.2441,-9.7656,0.2441,88,1.3146,1.0815,-40.6936,-9.0724,24,0.048,7978,4.0018,-47.6705
lg,1625583156226761975,0,0.6035,-0.2285,0.8552,456,0.8545,-6.7749,0.3052,88,1.3146,1.0815,-40.6994,-9.3365,24,0.047,8402,4.0018,-47.4324
lg,1625583156226815345,0,0.603,-0.2141,0.8486,457,2.3193,-5.0049,0.7324,88,1.3146,1.0815,-40.5557,-9.4743,24,0.048,8033,4.0018,-47.2474
lg,1625583156226866012,0,0.5815,-0.2031,0.8313,458,2.1973,-3.54,1.1597,88,1.3146,1.0815,-40.4279,-9.6259,24,0.05,8010,4.0018,-47.038
lg,1625583156226911829,0,0.5984,-0.1829,0.8459,459,1.8311,-3.1128,0.3052,88,1.3156,1.0825,-40.31,-9.6876,24,0.05,8397,4.0018,-46.9248
lg,1625583156226956998,0,0.5513,-0.2073,0.8289,460,2.2583,-2.0752,-0.061,88,1.3166,1.0825,-40.0893,-9.7936,24,0.049,8254,4.0018,-46.788
lg,1625583156227003352,0,0.5378,-0.1858,0.854,461,1.709,-1.2207,0.1831,88,1.3176,1.0835,-39.8568,-9.8795,24,0.05,8625,4.0018,-46.676
lg,1625583156227049243,0,0.5747,-0.1895,0.833,462,1.1597,-4.1504,-0.061,88,1.3176,1.0835,-39.746,-10.0263,24,0.049,8176,4.0018,-46.5311
lg,1625583156227098559,0,0.551,-0.2019,0.8354,463,1.8921,-4.5776,0.9766,88,1.3146,1.0835,-39.6304,-10.1601,24,0.05,8132,4.0018,-46.3419
lg,1625583156227158816,0,0.5662,-0.1846,0.8269,464,1.2817,-6.0425,0.061,88,1.3166,1.0825,-39.6245,-10.2465,24,0.05,8138,4.0018,-46.2185
lg,1625583156227209335,0,0.5652,-0.2004,0.8108,465,1.1597,-7.2632,0.6104,88,1.3176,1.0845,-39.63,-10.4546,24,0.048,8165,4.0018,-46.0204
lg,1625583156227256318,0,0.542,-0.1997,0.835,466,0.3052,-6.4087,1.2817,88,1.3156,1.0835,-39.5715,-10.6494,24,0.05,8210,4.0018,-45.8124
lg,1625583156227302820,0,0.5469,-0.2175,0.8372,467,-0.1831,-8.7891,1.2817,88,1.3166,1.0835,-39.6104,-10.9188,24,0.051,8288,4.0018,-45.5547
lg,1625583156227352210,0,0.5464,-0.2141,0.8254,468,-0.4272,-8.0566,1.2207,88,1.3166,1.0845,-39.6324,-11.1794,24,0.051,8222,4.0018,-45.3138
lg,1625583156227400526,0,0.5417,-0.2097,0.8413,469,-0.1831,-9.3994,1.8921,88,1.3176,1.0845,-39.7475,-11.5911,24,0.051,8335,4.0018,-44.9316
lg,1625583156227450953,0,0.575,-0.2424,0.8469,470,-0.6714,-13.0005,2.2583,88,1.3156,1.0805,-39.9662,-11.9653,24,0.053,8342,4.0018,-44.5582
lg,1625583156227547678,0,0.5862,-0.2402,0.8357,471,1.709,-9.7046,2.1362,88,1.3166,1.0845,-40.0813,-12.2061,25,0.052,8352,4.0018,-44.2318
lg,1625583156227606046,0,0.5713,-0.2412,0.8428,472,2.5635,-8.3008,1.77,88,1.3176,1.0855,-40.1045,-12.3809,25,0.052,8499,4.0018,-43.9451
lg,1625583156227652048,0,0.5781,-0.2407,0.8433,473,2.5635,-9.4604,2.1362,88,1.3166,1.0835,-40.2096,-12.5751,25,0.053,8433,4.0018,-43.624
lg,1625583156227696625,0,0.6077,-0.2468,0.8445,474,3.7231,-9.8877,1.4038,88,1.3166,1.0825,-40.3519,-12.7012,25,0.054,8423,4.0018,-43.3372
lg,1625583156227740998,0,0.5879,-0.2202,0.8577,475,4.7607,-6.1646,2.3193,88,1.3176,1.0845,-40.2927,-12.7039,25,0.055,8475,4.0018,-43.1013
lg,1625583156227785279,0,0.5845,-0.2212,0.833,476,5.249,-4.5166,2.9297,88,1.3176,1.0855,-40.1891,-12.7142,25,0.056,8502,4.0018,-42.8408
lg,1625583156227829337,0,0.5576,-0.2253,0.8496,477,4.4556,-3.1128,2.6245,88,1.3186,1.0865,-39.9792,-12.7238,25,0.056,8504,4.0018,-42.5699
lg,1625583156227876321,0,0.5691,-0.2361,0.843,478,5.3711,-4.6997,3.479,88,1.3156,1.0845,-39.847,-12.7804,25,0.056,8493,4.0018,-42.2589
lg,1625583156227921027,0,0.5581,-0.2302,0.825,479,6.897,-4.2725,3.3569,88,1.3156,1.0855,-39.707,-12.7636,24,0.057,8542,4.0018,-41.9627
lg,1625583156227969140,0,0.5308,-0.2114,0.8071,480,6.6528,-5.4932,2.9297,88,1.3176,1.0855,-39.5986,-12.7125,24,0.058,8548,4.0018,-41.6995
lg,1625583156572524323,0,0.5889,-0.1958,0.8215,481,5.9204,-13.0005,-0.3052,88,1.3176,1.0865,-39.9087,-12.5868,25,0.06,25669,4.0018,-41.5496
lg,1625583156572599519,0,0.595,-0.1804,0.822,482,4.5166,-11.3525,0.3052,88,1.3176,1.0865,-40.152,-12.4868,25,0.06,9796,4.0018,-41.4126
lg,1625583156572649353,0,0.6162,-0.2036,0.8289,483,2.5635,-11.3525,-1.2207,88,1.3176,1.0865,-40.4215,-12.4787,25,0.061,10868,4.0018,-41.3124
lg,1625583156572697336,0,0.6072,-0.2124,0.8359,484,1.8921,-6.6528,-0.9155,88,1.3186,1.0865,-40.4685,-12.4933,25,0.061,10762,4.0018,-41.2365
lg,1625583156572781973,0,0.5796,-0.229,0.8325,485,1.2207,-5.9204,-0.7935,88,1.3186,1.0865,-40.4354,-12.6055,25,0.061,7855,4.0018,-41.0876
lg,1625583156572830159,0,0.5823,-0.2139,0.8547,486,1.9531,-5.6763,0.061,88,1.3186,1.0865,-40.369,-12.6303,25,0.061,7835,4.0018,-40.9807
lg,1625583156572877513,0,0.5674,-0.2214,0.8398,487,2.6245,-3.7231,-0.9766,88,1.3186,1.0865,-40.2272,-12.6099,25,0.062,7902,4.0018,-40.9296
lg,1625583156572922590,0,0.5745,-0.2168,0.8367,488,2.1362,-4.1504,-0.3662,88,1.3186,1.0865,-40.085,-12.6392,25,0.062,7893,4.0018,-40.8401
lg,1625583156572965556,0,0.5632,-0.2207,0.8198,489,2.9297,-4.6997,-0.6104,88,1.3186,1.0865,-40.0054,-12.6374,25,0.063,10960,4.0018,-40.7519
lg,1625583156573007485,0,0.5735,-0.2119,0.8167,490,2.1973,-4.7607,-0.1831,88,1.3226,1.0855,-39.9001,-12.7076,25,0.063,8476,4.0018,-40.6229
lg,1625583156573048934,0,0.5537,-0.2407,0.8503,491,2.5024,-5.4321,-0.1831,88,1.3166,1.0845,-39.7944,-12.7731,24,0.062,7969,4.0018,-40.4845
lg,1625583156573091197,0,0.571,-0.2356,0.8433,492,2.8687,-6.1646,-0.4272,88,1.3176,1.0855,-39.764,-12.8086,24,0.062,8002,4.0018,-40.3583
lg,1625583156573132238,0,0.5774,-0.2234,0.8347,493,3.7231,-6.6528,-0.3052,88,1.3196,1.0875,-39.7704,-12.8066,24,0.063,8040,4.0018,-40.2274
lg,1625583156573173797,0,0.5596,-0.2485,0.843,494,3.6011,-5.6763,-0.061,88,1.3186,1.0875,-39.695,-12.8561,24,0.063,8120,4.0018,-40.0657
lg,1625583156573214357,0,0.5576,-0.2375,0.8423,495,4.6387,-7.3853,0,88,1.3196,1.0875,-39.6883,-12.8473,25,0.063,8081,4.0018,-39.9013
lg,1625583156573256971,0,0.5544,-0.2515,0.8425,496,5.188,-7.4463,0.5493,88,1.3186,1.0875,-39.6945,-12.8669,25,0.063,8132,4.0018,-39.6886
lg,1625583156573298179,0,0.5657,-0.2366,0.8264,497,5.9814,-7.8125,0.3052,88,1.3186,1.0865,-39.7351,-12.8257,25,0.063,8102,4.0018,-39.4986
lg,1625583156573339405,0,0.5688,-0.2312,0.833,498,7.2021,-9.2773,0.7324,88,1.3196,1.0875,-39.8266,-12.7427,25,0.064,12240,4.0018,-39.2815
lg,1625583156573382001,0,0.5835,-0.2246,0.8232,499,6.2256,-8.1787,0.8545,88,1.3186,1.0875,-39.8815,-12.6387,24,0.064,8230,4.0018,-39.1073
lg,1625583156573448163,0,0.5784,-0.2173,0.8372,500,6.958,-8.2397,1.2817,88,1.3186,1.0875,-39.9386,-12.5416,24,0.064,8468,4.0018,-38.8969
lg,1625583156573492406,0,0.594,-0.2122,0.8254,501,6.7749,-7.9346,-0.3052,88,1.3196,1.0875,-40.0389,-12.3948,24,0.064,8268,4.0018,-38.7733
lg,1625583156573534651,0,0.5828,-0.2092,0.8247,502,5.6152,-6.4697,-1.0986,88,1.3196,1.0875,-40.0669,-12.2561,24,0.064,8393,4.0018,-38.7081
lg,1625583156573576414,0,0.5635,-0.1997,0.8298,503,6.0425,-5.3711,-0.6104,88,1.3196,1.0875,-40.0083,-12.0847,24,0.064,8395,4.0018,-38.6461
lg,1625583156573617399,0,0.5793,-0.2151,0.8186,504,5.4932,-7.9346,-0.1221,88,1.3196,1.0875,-40.0864,-12.0263,24,0.064,8309,4.0018,-38.4945
lg,1625583156573657922,0,0.5752,-0.2236,0.8162,505,4.4556,-8.7891,-0.3662,88,1.3236,1.0875,-40.19,-12.0358,24,0.064,9371,4.0018,-38.3275
lg,1625583156573698870,0,0.5591,-0.2234,0.8315,506,2.5635,-8.1177,0.4272,88,1.3196,1.0855,-40.2089,-12.1317,24,0.063,8362,4.0018,-38.1338
lg,1625583156573741337,0,0.55,-0.2141,0.8298,507,2.5635,-8.728,0.4272,88,1.3206,1.0885,-40.2938,-12.2327,24,0.063,8372,4.0018,-37.8787
lg,1625583156573782729,0,0.5701,-0.2141,0.8267,508,2.8076,-9.3994,0.1221,88,1.3186,1.0855,-40.3887,-12.2875,24,0.062,8397,4.0018,-37.7052
lg,1625583156573824233,0,0.5696,-0.2324,0.8384,509,3.3569,-10.437,0.061,88,1.3196,1.0875,-40.5012,-12.3673,24,0.064,8399,4.0018,-37.4956
lg,1625583156573865108,0,0.5571,-0.2354,0.8301,510,2.9907,-10.376,-0.4272,88,1.3206,1.0875,-40.5973,-12.4576,25,0.064,8463,4.0018,-37.3029
lg,1625583156573912424,0,0.5522,-0.2351,0.8269,511,2.6855,-11.1084,-0.6714,88,1.3206,1.0875,-40.8473,-12.5229,25,0.063,8500,4.0018,-37.1319
lg,1625583156573960981,0,0.5557,-0.2317,0.804,512,3.3569,-13.7329,-1.3428,88,1.3206,1.0845,-41.097,-12.5982,25,0.064,8513,4.0018,-36.9427
lg,1625583156943620254,0,0.6045,-0.238,0.8208,513,5.127,-15.5029,-2.6245,88,1.3196,1.0865,-41.4823,-12.5724,25,0.064,25049,4.0018,-36.7988
lg,1625583156943711852,0,0.6143,-0.2283,0.8281,514,4.8828,-16.4185,-3.3569,88,1.3196,1.0885,-41.9049,-12.5066,25,0.064,9011,4.0018,-36.7031
lg,1625583156943795156,0,0.6235,-0.2288,0.8308,515,5.7373,-11.5967,-2.7466,88,1.3206,1.0875,-42.131,-12.3922,24,0.064,12340,4.0018,-36.6307
lg,1625583156943848229,0,0.624,-0.2322,0.8269,516,4.9438,-10.9253,-2.4414,88,1.3206,1.0875,-42.3243,-12.3321,24,0.064,7924,4.0018,-36.5386
lg,1625583156943900563,0,0.6057,-0.2373,0.8376,517,6.6528,-9.5215,-1.0376,88,1.3206,1.0875,-42.3978,-12.2536,24,0.064,7934,4.0018,-36.3813
lg,1625583156943947305,0,0.6077,-0.2441,0.845,518,6.0425,-7.9956,0.1221,88,1.3206,1.0875,-42.3925,-12.2457,24,0.064,7957,4.0018,-36.1689
lg,1625583156943994770,0,0.6108,-0.2244,0.823,519,7.019,-7.1411,0.7935,88,1.3206,1.0885,-42.3854,-12.1767,24,0.065,7932,4.0018,-35.9578
lg,1625583156944040643,0,0.6196,-0.2134,0.8201,520,6.5308,-4.8828,0.9155,88,1.3206,1.0885,-42.3116,-12.087,24,0.065,9641,4.0018,-35.7848
lg,1625583156944084331,0,0.5891,-0.2275,0.8254,521,5.9204,-3.1128,1.2817,88,1.3196,1.0875,-42.1055,-12.0629,24,0.065,7989,4.0018,-35.5846
lg,1625583156944129093,0,0.584,-0.2297,0.8147,522,5.8594,-4.5776,1.0986,88,1.3206,1.0885,-41.9694,-12.0605,24,0.064,8034,4.0018,-35.3679
lg,1625583156944172374,0,0.5886,-0.2249,0.8203,523,6.958,-5.0659,-0.061,88,1.3206,1.0885,-41.8609,-11.951,24,0.065,8047,4.0018,-35.2247
lg,1625583156944216895,0,0.5808,-0.2288,0.8232,524,7.8125,-5.0049,-0.2441,88,1.3206,1.0875,-41.7468,-11.8218,24,0.066,8029,4.0018,-35.0781
lg,1625583156944260472,0,0.5671,-0.2329,0.8174,525,7.6904,-6.1646,-0.1221,88,1.3206,1.0885,-41.663,-11.7325,24,0.065,10468,4.0018,-34.8977
lg,1625583156944305623,0,0.5781,-0.2341,0.8069,526,7.4463,-7.6904,-0.2441,88,1.3216,1.0875,-41.6754,-11.6734,24,0.064,8716,4.0018,-34.6984
lg,1625583156944351199,0,0.5723,-0.2319,0.8069,527,8.3008,-7.9956,-0.1831,88,1.3216,1.0875,-41.6888,-11.5813,24,0.065,8136,4.0018,-34.4951
lg,1625583156944403033,0,0.5449,-0.2373,0.8306,528,8.4229,-8.0566,-1.0376,88,1.3216,1.0875,-41.6317,-11.459,24,0.065,8166,4.0018,-34.3335
lg,1625583156944450090,0,0.5847,-0.2136,0.8081,529,8.1177,-10.5591,-0.7935,88,1.3206,1.0885,-41.7775,-11.3244,24,0.064,8216,4.0018,-34.1672
lg,1625583156944531709,0,0.5493,-0.1899,0.7996,530,7.2632,-9.5215,-0.7324,88,1.3206,1.0885,-41.8281,-11.1624,25,0.063,8171,4.0018,-34.0469
lg,1625583156944580859,0,0.5686,-0.217,0.8108,531,6.8359,-11.9019,-1.0986,88,1.3226,1.0885,-42.0805,-11.1399,25,0.064,8221,4.0018,-33.814
lg,1625583156944624084,0,0.572,-0.2114,0.782,532,5.6152,-13.2446,-0.2441,88,1.3196,1.0855,-42.3202,-11.1709,25,0.065,8278,4.0018,-33.5724
lg,1625583156944667976,0,0.5835,-0.1956,0.8103,533,4.3945,-16.6016,-0.3052,88,1.3216,1.0885,-42.6703,-11.2047,25,0.065,8232,4.0018,-33.3436
lg,1625583156944711997,0,0.6018,-0.2156,0.8223,534,4.9438,-18.6768,-1.2207,88,1.3216,1.0885,-43.1076,-11.2485,25,0.064,8331,4.0018,-33.1066
lg,1625583156944756315,0,0.6243,-0.2214,0.8308,535,5.0659,-18.3716,-0.8545,88,1.3216,1.0885,-43.5396,-11.3088,25,0.063,10187,4.0018,-32.8448
lg,1625583156944800577,0,0.6331,-0.229,0.8145,536,5.0049,-13.1836,-0.5493,88,1.3226,1.0895,-43.7832,-11.3768,25,0.064,8335,4.0018,-32.5989
lg,1625583156944845043,0,0.6423,-0.2117,0.8125,537,4.9438,-10.7422,-0.2441,88,1.3226,1.0885,-43.942,-11.3892,25,0.064,8366,4.0018,-32.3981
lg,1625583156944889268,0,0.6233,-0.2163,0.8076,538,6.0425,-8.9111,0.3662,88,1.3206,1.0885,-43.991,-11.3856,25,0.064,8391,4.0018,-32.1708
lg,1625583156944935770,0,0.6301,-0.2119,0.8245,539,6.2256,-9.1553,0.4883,88,1.3236,1.0885,-44.0382,-11.3564,25,0.064,8529,4.0018,-31.9514
lg,1625583156944979014,0,0.6047,-0.2297,0.8315,540,7.2632,-6.4697,-0.6714,88,1.3226,1.0885,-43.9319,-11.2715,25,0.064,8375,4.0029,-31.7899
lg,1625583156945023276,0,0.5957,-0.2087,0.8328,541,7.9346,-6.958,0,89,1.3226,1.0885,-43.8313,-11.1307,24,0.063,8479,4.0029,-31.6277
lg,1625583156945066131,0,0.5862,-0.2183,0.8201,542,7.9956,-5.7373,-0.1831,89,1.3216,1.0885,-43.6852,-11.0145,24,0.064,8451,4.0029,-31.4592
lg,1625583156945110097,0,0.5803,-0.2312,0.8081,543,6.2256,-5.6763,0.6104,89,1.3226,1.0885,-43.5379,-11.0498,24,0.063,9138,4.0029,-31.2129
lg,1625583156945154063,0,0.5852,-0.2249,0.8,544,6.2256,-6.4087,1.3428,89,1.3226,1.0885,-43.4395,-11.1022,24,0.064,8551,4.0029,-30.9301
lg,1625583157351176763,0,0.5732,-0.22,0.7998,545,5.9814,-10.0098,1.709,89,1.3216,1.0885,-43.5356,-11.1559,24,0.065,25318,4.0029,-30.6125
lg,1625583157351219137,0,0.561,-0.2139,0.7971,546,4.8218,-11.8408,1.9531,89,1.3186,1.0875,-43.606,-11.295,24,0.064,8828,4.0029,-30.26
lg,1625583157351292483,0,0.5557,-0.2168,0.7815,547,5.0049,-13.855,2.0142,89,1.3216,1.0885,-43.6616,-11.5133,24,0.064,10652,4.0029,-29.8536
lg,1625583157351313236,0,0.5347,-0.2107,0.7776,548,3.6011,-18.1885,2.6245,89,1.3226,1.0885,-43.9496,-11.7717,24,0.064,9878,4.0029,-29.3934
lg,1625583157351332859,0,0.5569,-0.2119,0.791,549,3.1738,-23.1934,3.2349,89,1.3226,1.0885,-44.4317,-12.0976,24,0.065,7935,4.0029,-28.8478
lg,1625583157351354500,0,0.5283,-0.2126,0.7976,550,2.4414,-24.353,4.2114,89,1.3226,1.0895,-44.8674,-12.4954,25,0.065,7910,4.0029,-28.2333
lg,1625583157351372660,0,0.5735,-0.2117,0.8198,551,2.0142,-29.7852,3.9062,89,1.3226,1.0885,-45.6701,-12.9784,25,0.064,7939,4.0029,-27.5386
lg,1625583157351392191,0,0.657,-0.2285,0.8054,552,2.7466,-31.4941,2.0142,89,1.3226,1.0885,-46.5605,-13.3729,25,0.064,9718,4.0029,-26.9193
lg,1625583157351413128,0,0.6716,-0.2334,0.8184,553,4.0283,-27.4048,0.4883,89,1.3226,1.0885,-47.2758,-13.6174,25,0.065,9032,4.0029,-26.4333
lg,1625583157351431400,0,0.6719,-0.2527,0.8162,554,5.188,-23.3765,0.7935,89,1.3226,1.0895,-47.8007,-13.8475,25,0.065,8750,4.0029,-25.9377
lg,1625583157351450005,0,0.6948,-0.2222,0.8076,555,5.9814,-17.8833,0.9155,89,1.3236,1.0925,-48.1479,-13.9043,25,0.065,8017,4.0029,-25.5777
lg,1625583157351470924,0,0.6831,-0.2158,0.8118,556,6.2866,-15.1367,1.0986,89,1.3216,1.0885,-48.3517,-13.9055,25,0.065,8054,4.0029,-25.2628
lg,1625583157351487085,0,0.6704,-0.2153,0.7844,557,6.7139,-11.2915,1.0376,89,1.3236,1.0895,-48.4149,-13.8675,24,0.066,8101,4.0029,-24.9909
lg,1625583157351503339,0,0.6487,-0.2175,0.7903,558,6.3477,-7.9956,1.5259,89,1.3226,1.0885,-48.3,-13.834,24,0.065,8082,4.0029,-24.7351
lg,1625583157351589385,0,0.6379,-0.2249,0.7908,559,6.7749,-6.5918,1.8921,89,1.3236,1.0885,-48.1112,-13.8081,24,0.065,8093,4.0029,-24.4606
lg,1625583157351617468,0,0.6255,-0.2129,0.8015,560,6.1646,-6.3477,1.3428,89,1.3206,1.0895,-47.8948,-13.7337,24,0.065,8161,4.0029,-24.2569
lg,1625583157351635777,0,0.6042,-0.2324,0.7927,561,5.6763,-5.249,1.2817,89,1.3236,1.0895,-47.6139,-13.7367,24,0.069,8144,4.0029,-24.0186
lg,1625583157351654141,0,0.6133,-0.2061,0.7844,562,6.6528,-7.3853,1.5259,89,1.3236,1.0895,-47.471,-13.68,24,0.07,8167,4.0029,-23.7784
lg,1625583157351673246,0,0.5847,-0.2061,0.7639,563,6.2866,-9.6436,1.5259,89,1.3216,1.0895,-47.3842,-13.6555,24,0.068,8258,4.0029,-23.5087
lg,1625583157351692017,0,0.5833,-0.2063,0.772,564,5.6763,-13.2446,0.6714,89,1.3236,1.0895,-47.4346,-13.651,24,0.069,8238,4.0029,-23.2415
lg,1625583157351710844,0,0.5574,-0.2183,0.7708,565,5.8594,-15.686,0.9766,89,1.3226,1.0885,-47.5249,-13.72,24,0.068,8270,4.0029,-22.8905
lg,1625583157351729709,0,0.5996,-0.2202,0.7803,566,5.5542,-21.0571,0.6104,89,1.3236,1.0885,-47.8853,-13.8371,24,0.069,8743,4.0029,-22.487
lg,1625583157351750035,0,0.6289,-0.217,0.7871,567,4.6997,-22.4609,0.1831,89,1.3236,1.0885,-48.3321,-13.9677,24,0.069,8268,4.0029,-22.0991
lg,1625583157351771380,0,0.6526,-0.209,0.7981,568,5.0049,-23.2544,-0.6714,89,1.3236,1.0885,-48.8278,-14.0221,24,0.069,8331,4.0029,-21.7749
lg,1625583157351792206,0,0.6775,-0.2307,0.8145,569,5.0659,-20.6299,-0.7935,89,1.3236,1.0885,-49.2172,-14.0953,24,0.068,8345,4.0029,-21.4537
lg,1625583157351810774,0,0.7119,-0.2051,0.8042,570,5.5542,-17.395,-1.4038,89,1.3236,1.0885,-49.5479,-14.0125,24,0.069,8361,4.0029,-21.2722
lg,1625583157351828083,0,0.718,-0.2185,0.801,571,6.8359,-11.6577,-0.2441,89,1.3236,1.0885,-49.643,-13.9144,24,0.068,8989,4.0029,-21.0712
lg,1625583157351845078,0,0.6919,-0.2317,0.7947,572,7.3242,-4.8828,0.3052,89,1.3216,1.0905,-49.4317,-13.7966,25,0.067,10498,4.0029,-20.8992
lg,1625583157351862091,0,0.6807,-0.2329,0.8003,573,7.9346,-2.8076,0.4883,89,1.3236,1.0885,-49.1437,-13.63,25,0.068,8429,4.0029,-20.7548
lg,1625583157351891340,0,0.665,-0.2283,0.7817,574,7.9346,-0.5493,1.0986,89,1.3226,1.0895,-48.7527,-13.4886,25,0.069,8413,4.0029,-20.5902
lg,1625583157351910297,0,0.6355,-0.2266,0.7913,575,7.8735,1.709,0.6104,89,1.3236,1.0885,-48.2339,-13.2978,25,0.069,8606,4.0029,-20.4916
lg,1625583157351928309,0,0.6111,-0.2202,0.7891,576,8.5449,0.4883,0.4883,89,1.3236,1.0885,-47.7467,-13.0789,24,0.069,8485,4.0029,-20.3902
lg,1625583157679236887,0,0.5908,-0.2009,0.7761,577,7.6294,-3.2349,-0.3662,89,1.3236,1.0885,-47.4171,-12.8553,24,0.071,25217,4.0029,-20.3197
lg,1625583157679353774,0,0.6169,-0.2109,0.7834,578,7.6904,-5.3101,-0.9155,89,1.3236,1.0885,-47.2192,-12.6603,25,0.071,9149,4.0029,-20.2287
lg,1625583157679406201,0,0.6162,-0.2166,0.7627,579,6.8359,-6.4087,-0.9766,89,1.3236,1.0885,-47.0969,-12.5499,25,0.075,8153,4.0029,-20.0961
lg,1625583157679456036,0,0.6382,-0.2197,0.7878,580,6.7139,-8.3618,-1.2207,89,1.3236,1.0885,-47.0608,-12.4442,25,0.073,9113,4.0029,-19.9591
lg,1625583157679503446,0,0.6423,-0.2261,0.7908,581,7.5073,-7.1411,-1.4038,89,1.3236,1.0875,-47.0411,-12.2919,25,0.073,7954,4.0029,-19.8457
lg,1625583157679548968,0,0.6267,-0.2207,0.7878,582,7.1411,-5.7983,-1.0376,89,1.3236,1.0885,-46.8869,-12.1675,24,0.074,8152,4.0029,-19.721
lg,1625583157679593305,0,0.6409,-0.2229,0.7954,583,5.6152,-7.1411,-0.9155,89,1.3216,1.0885,-46.8036,-12.1254,24,0.074,8408,4.0029,-19.5702
lg,1625583157679637939,0,0.6313,-0.2036,0.7739,584,5.5542,-5.188,-0.6714,89,1.3236,1.0885,-46.6631,-12.037,24,0.073,11473,4.0029,-19.4603
lg,1625583157679682701,0,0.614,-0.2246,0.7742,585,5.4321,-5.7373,0.7935,89,1.3236,1.0875,-46.5013,-12.0898,24,0.074,10165,4.0029,-19.2085
lg,1625583157679727594,0,0.6133,-0.2314,0.7964,586,5.5542,-7.1411,0.9155,89,1.3236,1.0875,-46.3674,-12.1552,24,0.074,8071,4.0029,-18.9327
lg,1625583157679772468,0,0.6316,-0.2322,0.7771,587,5.5542,-8.4839,-0.061,89,1.3236,1.0875,-46.3551,-12.2052,24,0.073,9441,4.0029,-18.6866
lg,1625583157679814898,0,0.6233,-0.2292,0.7805,588,5.9204,-7.4463,-0.1831,89,1.3246,1.0875,-46.2949,-12.1682,24,0.075,8447,4.0029,-18.4939
lg,1625583157679857440,0,0.6558,-0.2097,0.7795,589,5.6763,-8.1177,0.061,89,1.3246,1.0875,-46.2662,-12.1633,24,0.075,9832,4.0029,-18.2749
lg,1625583157679969643,0,0.6387,-0.2109,0.7874,590,5.249,-7.2021,0.7324,89,1.3246,1.0875,-46.2058,-12.1712,24,0.075,8367,4.0029,-18.0548
lg,1625583157680020330,0,0.6509,-0.2158,0.7886,591,5.7373,-7.1411,1.3428,89,1.3246,1.0875,-46.1578,-12.1965,24,0.075,8206,4.0029,-17.7918
lg,1625583157680062224,0,0.6289,-0.2122,0.7893,592,5.127,-5.4932,0.8545,89,1.3246,1.0875,-46.0146,-12.2001,25,0.073,8226,4.0029,-17.5852
lg,1625583157680104950,0,0.6484,-0.2168,0.7766,593,6.1035,-5.3101,0.9766,89,1.3236,1.0865,-45.9176,-12.1897,25,0.075,9932,4.0029,-17.3585
lg,1625583157680147103,0,0.6367,-0.2168,0.7966,594,6.4087,-4.7607,1.0986,89,1.3236,1.0865,-45.7561,-12.1527,25,0.075,8268,4.0029,-17.1424
lg,1625583157680189663,0,0.6189,-0.2129,0.7742,595,6.1646,-3.9673,0.4883,89,1.3216,1.0875,-45.5752,-12.1015,25,0.074,8284,4.0029,-16.9651
lg,1625583157680231427,0,0.6235,-0.2131,0.769,596,6.5918,-5.7983,0.8545,89,1.3246,1.0865,-45.4845,-12.0695,24,0.075,8399,4.0029,-16.7414
lg,1625583157680273894,0,0.6028,-0.2083,0.7664,597,5.8594,-5.9814,0.6104,89,1.3256,1.0875,-45.3863,-12.0771,24,0.075,8318,4.0029,-16.53
lg,1625583157680315936,0,0.6194,-0.1995,0.7751,598,5.3711,-6.7139,0.8545,89,1.3236,1.0865,-45.327,-12.0548,24,0.075,8360,4.0029,-16.3294
lg,1625583157680358625,0,0.6125,-0.2104,0.7812,599,4.4556,-8.3008,1.0986,89,1.3246,1.0875,-45.3065,-12.1225,24,0.075,8405,4.0029,-16.0743
lg,1625583157680408423,0,0.6123,-0.2253,0.7925,600,4.3335,-9.0942,1.0376,89,1.3266,1.0885,-45.2989,-12.2337,24,0.075,8617,4.0029,-15.7883
lg,1625583157680452853,0,0.6248,-0.2341,0.7803,601,4.6997,-9.2773,1.1597,89,1.3256,1.0875,-45.3212,-12.3149,24,0.074,8474,4.0029,-15.5275
lg,1625583157680495432,0,0.6272,-0.2288,0.7769,602,5.6763,-9.1553,0.3052,89,1.3246,1.0875,-45.3663,-12.3583,24,0.075,8483,4.0029,-15.2706
lg,1625583157680538843,0,0.6448,-0.2148,0.7871,603,6.2866,-9.8267,0.8545,89,1.3246,1.0875,-45.4512,-12.3518,25,0.075,8461,4.0029,-15.0126
lg,1625583157680582532,0,0.6389,-0.2188,0.7964,604,5.3101,-8.667,0.6104,89,1.3266,1.0885,-45.4668,-12.3702,25,0.074,8469,4.0029,-14.7783
lg,1625583157680672428,0,0.6489,-0.2202,0.7778,605,5.5542,-9.3384,0.1831,89,1.3256,1.0875,-45.5522,-12.3851,25,0.074,8669,4.0029,-14.547
lg,1625583157680725429,0,0.6479,-0.2126,0.7727,606,5.7373,-8.8501,0.9155,89,1.3266,1.0875,-45.5766,-12.4269,25,0.074,8564,4.0029,-14.2738
lg,1625583157680771581,0,0.6016,-0.2117,0.7732,607,4.4556,-7.9956,1.3428,89,1.3256,1.0885,-45.5221,-12.4993,25,0.073,8542,4.0029,-14.0088
lg,1625583157680816862,0,0.6265,-0.2209,0.7717,608,4.3945,-11.4746,0.9766,89,1.3246,1.0865,-45.6504,-12.6158,25,0.074,10673,4.0029,-13.7022
lg,1625583158047703925,0,0.6475,-0.229,0.7771,609,4.7607,-11.9629,1.0986,89,1.3256,1.0875,-45.8174,-12.7421,25,0.075,25331,4.0029,-13.3707
lg,1625583158047790657,0,0.6526,-0.2305,0.7864,610,3.2959,-8.9722,0.6714,89,1.3246,1.0885,-45.8612,-12.875,25,0.074,9272,4.0029,-13.1058
lg,1625583158047844529,0,0.6423,-0.2229,0.7959,611,4.3335,-9.0942,1.0986,89,1.3246,1.0885,-45.9123,-12.9402,25,0.075,8059,4.0029,-12.8349
lg,1625583158047896050,0,0.6497,-0.231,0.7869,612,4.9438,-8.606,0.7935,89,1.3256,1.0885,-45.9309,-13.0031,25,0.075,11129,4.0029,-12.5712
lg,1625583158047944480,0,0.6436,-0.2197,0.7744,613,6.0425,-8.606,0.4272,89,1.3256,1.0885,-45.9442,-12.9599,25,0.075,8200,4.0029,-12.3633
lg,1625583158047991317,0,0.6306,-0.2168,0.7732,614,5.7373,-6.4087,0.5493,89,1.3256,1.0885,-45.9375,-12.9278,25,0.075,8120,4.0029,-12.1476
lg,1625583158048036432,0,0.6411,-0.2092,0.7688,615,6.0425,-7.7515,0.3052,89,1.3256,1.0885,-45.9426,-12.8686,25,0.075,7934,4.0029,-11.9593
lg,1625583158048081604,0,0.6431,-0.22,0.7761,616,6.1035,-8.728,0.1221,89,1.3256,1.0885,-45.9773,-12.8381,25,0.075,9547,4.0029,-11.7475
lg,1625583158048125053,0,0.6323,-0.2395,0.783,617,7.1411,-9.0942,-0.1221,89,1.3256,1.0885,-45.9942,-12.8163,25,0.075,7996,4.0029,-11.5036
lg,1625583158048170854,0,0.6675,-0.2095,0.7759,618,6.3477,-8.7891,-1.0376,89,1.3256,1.0885,-46.0823,-12.7011,25,0.075,8536,4.0029,-11.3689
lg,1625583158048215932,0,0.6458,-0.2212,0.7854,619,6.8359,-9.0332,-0.5493,89,1.3236,1.0865,-46.1216,-12.6204,25,0.075,8257,4.0029,-11.1891
lg,1625583158048311791,0,0.6648,-0.2043,0.7773,620,6.897,-7.9956,-0.3662,89,1.3256,1.0865,-46.1651,-12.492,25,0.075,8061,4.0029,-11.0438
lg,1625583158050138334,0,0.6575,-0.2136,0.7808,621,6.4697,-5.7373,0.3052,89,1.3266,1.0895,-46.0943,-12.4189,25,0.077,8120,4.0029,-10.8667
lg,1625583158050236636,0,0.6538,-0.21,0.7678,622,6.3477,-4.9438,0.5493,89,1.3236,1.0875,-46.0059,-12.3551,25,0.076,8101,4.0029,-10.6848
lg,1625583158050291175,0,0.6338,-0.2039,0.7686,623,5.6763,-4.7607,0.4883,89,1.3266,1.0875,-45.8814,-12.298,25,0.076,8157,4.0029,-10.5204
lg,1625583158050346528,0,0.6357,-0.2053,0.7849,624,5.7983,-6.2866,0.6104,89,1.3266,1.0895,-45.8011,-12.2483,25,0.076,8173,4.0029,-10.3351
lg,1625583158050416710,0,0.6328,-0.1785,0.7573,625,4.6997,-5.0659,0.4883,89,1.3266,1.0915,-45.7441,-12.269,25,0.076,8708,4.0029,-10.1418
lg,1625583158050464066,0,0.6367,-0.2065,0.7744,626,4.5776,-7.1411,1.1597,89,1.3266,1.0885,-45.7145,-12.3413,25,0.075,8182,4.0029,-9.8836
lg,1625583158050510829,0,0.6238,-0.1965,0.7839,627,4.7607,-8.728,1.2207,89,1.3246,1.0885,-45.7134,-12.3507,25,0.076,8362,4.0029,-9.6543
lg,1625583158050558758,0,0.6558,-0.2356,0.7673,628,4.7607,-8.7891,0,89,1.3256,1.0885,-45.7905,-12.4416,25,0.076,8293,4.0029,-9.3988
lg,1625583158050606873,0,0.6409,-0.2188,0.7751,629,5.127,-7.3853,-1.1597,89,1.3276,1.0885,-45.7892,-12.3994,25,0.076,8229,4.0029,-9.2683
lg,1625583158050657357,0,0.6292,-0.2205,0.7808,630,5.9204,-8.0566,-0.6104,89,1.3276,1.0885,-45.7814,-12.3572,25,0.075,8554,4.0029,-9.0963
lg,1625583158050707953,0,0.6375,-0.2129,0.7739,631,5.6763,-8.8501,-0.6104,89,1.3246,1.0885,-45.8302,-12.3147,25,0.075,8323,4.0029,-8.9269
lg,1625583158050755364,0,0.634,-0.2163,0.7515,632,5.9204,-9.9487,-0.4272,89,1.3256,1.0895,-45.938,-12.4114,25,0.075,11984,4.0029,-8.6158
lg,1625583158050801183,0,0.6274,-0.2158,0.7627,633,4.8218,-10.8643,-0.5493,89,1.3266,1.0885,-46.0551,-12.4411,25,0.075,8793,4.0029,-8.4045
lg,1625583158050853481,0,0.627,-0.2166,0.7649,634,5.0659,-12.146,0.3662,89,1.3266,1.0885,-46.2052,-12.5101,24,0.075,8361,4.0029,-8.1248
lg,1625583158051004990,0,0.6492,-0.2073,0.7834,635,4.8828,-13.6719,-0.061,89,1.3266,1.0885,-46.4278,-12.5364,24,0.075,10693,4.0029,-7.8831
lg,1625583158051061787,0,0.6667,-0.2217,0.762,636,4.4556,-13.3667,0.6714,89,1.3266,1.0885,-46.6772,-12.6679,24,0.075,8408,4.0029,-7.5586
lg,1625583158051109753,0,0.6838,-0.2395,0.7766,637,5.8594,-10.6201,0.5493,89,1.3266,1.0885,-46.8139,-12.7501,24,0.076,8546,4.0029,-7.2478
lg,1625583158051155924,0,0.6887,-0.2444,0.7861,638,4.5166,-7.6904,0.061,89,1.3306,1.0895,-46.8296,-12.8415,24,0.075,8903,4.0029,-6.9998
lg,1625583158051200225,0,0.6685,-0.2178,0.769,639,5.8594,-7.5073,0.6104,89,1.3266,1.0895,-46.8302,-12.8323,24,0.075,8507,4.0029,-6.7727
lg,1625583158051374430,0,0.6692,-0.2192,0.7883,640,5.249,-3.479,0.5493,89,1.3256,1.0905,-46.6506,-12.7957,24,0.076,8568,4.0029,-6.6099
lg,1625583158390579673,0,0.6587,-0.2014,0.7607,641,6.8359,-2.6855,0.1831,89,1.3266,1.0895,-46.4757,-12.6417,24,0.076,24904,4.0029,-6.5017
lg,1625583158390654872,0,0.6433,-0.2231,0.7678,642,6.8359,-4.3335,0.3662,89,1.3266,1.0885,-46.3282,-12.5795,24,0.075,9569,4.0029,-6.3118
lg,1625583158390705726,0,0.6191,-0.2068,0.7642,643,5.9814,-4.6997,0.2441,89,1.3266,1.0895,-46.1701,-12.5053,24,0.076,9688,4.0029,-6.1571
lg,1625583158390754045,0,0.6228,-0.228,0.7729,644,5.4321,-5.6152,-0.1221,89,1.3266,1.0895,-46.0454,-12.5079,24,0.076,8320,4.0029,-5.967
lg,1625583158390801289,0,0.6448,-0.2246,0.7795,645,6.5308,-7.1411,0.2441,89,1.3276,1.0895,-46.0115,-12.4769,24,0.076,8340,4.0029,-5.7508
lg,1625583158390847886,0,0.658,-0.2095,0.7881,646,5.9204,-7.3853,-0.1221,89,1.3266,1.0895,-46.0066,-12.4049,24,0.075,10235,4.0029,-5.5906
lg,1625583158390894075,0,0.644,-0.2058,0.7708,647,6.4697,-8.1787,-0.061,89,1.3276,1.0895,-46.0701,-12.3837,25,0.075,7921,4.0029,-5.3715
lg,1625583158390938895,0,0.6465,-0.2112,0.7786,648,6.2866,-7.9346,0,89,1.3276,1.0895,-46.0764,-12.3242,25,0.076,8002,4.0029,-5.1853
lg,1625583158390983658,0,0.6643,-0.2048,0.7705,649,5.7983,-6.0425,-0.061,89,1.3276,1.0885,-46.0521,-12.2525,25,0.076,8019,4.0029,-5.0352
lg,1625583158391076704,0,0.6475,-0.2063,0.7756,650,5.5542,-6.5918,0.4272,94,1.3276,1.0895,-46.0221,-12.2354,25,0.076,8032,3.9941,-4.8259
lg,1625583158395603165,0,0.6489,-0.2192,0.7771,651,5.3101,-6.5918,-0.3052,94,1.3306,1.0895,-45.9848,-12.2217,25,0.076,8849,3.9941,-4.6514
lg,1625583158395747139,0,0.6165,-0.2124,0.7708,652,6.6528,-7.3853,-1.0376,94,1.3246,1.0885,-45.9408,-12.119,25,0.075,8066,3.9941,-4.518
lg,1625583158395803843,0,0.6521,-0.2222,0.7874,653,6.0425,-8.1177,-1.0376,94,1.3276,1.0905,-45.9633,-12.0648,25,0.076,8171,3.9941,-4.3631
lg,1625583158395857475,0,0.6565,-0.2087,0.7585,654,6.5918,-7.6904,0.1221,94,1.3276,1.0895,-46.0087,-12.015,25,0.076,11433,3.9941,-4.1605
lg,1625583158395916123,0,0.6348,-0.2102,0.7642,655,6.7139,-7.2021,-0.3662,94,1.3276,1.0885,-45.9926,-11.9405,25,0.076,8129,3.9941,-3.9884
lg,1625583158395964738,0,0.6389,-0.2161,0.7688,656,6.2866,-6.7749,0,94,1.3276,1.0895,-45.9462,-11.8991,25,0.076,8132,3.9941,-3.7976
lg,1625583158396357726,0,0.6536,-0.2156,0.7632,657,6.7749,-7.5684,0.2441,94,1.3266,1.0885,-45.9737,-11.87,25,0.076,8223,3.9941,-3.5726
lg,1625583158396419281,0,0.6372,-0.2329,0.7769,658,6.2866,-8.0566,0.4272,94,1.3276,1.0895,-45.9669,-11.9175,24,0.076,8172,3.9941,-3.2985
lg,1625583158396470599,0,0.6494,-0.1948,0.7561,659,5.7983,-7.9346,0.6104,94,1.3276,1.0885,-46.0409,-11.8917,24,0.075,8256,3.9941,-3.0937
lg,1625583158396517177,0,0.655,-0.2163,0.783,660,5.0659,-8.0566,1.0986,94,1.3256,1.0885,-46.0521,-11.9574,24,0.075,8336,3.9941,-2.8234
lg,1625583158396568901,0,0.6328,-0.2146,0.7693,661,4.8218,-9.0942,0.7324,94,1.3306,1.0885,-46.1368,-12.0168,25,0.075,8581,3.9941,-2.5682
lg,1625583158396619275,0,0.6548,-0.2148,0.7871,662,4.2114,-10.0098,0.1831,94,1.3256,1.0885,-46.2217,-12.0845,25,0.075,8322,3.9941,-2.3338
lg,1625583158396673702,0,0.6526,-0.2158,0.7751,663,5.188,-9.2163,0.2441,94,1.3286,1.0895,-46.2838,-12.119,25,0.075,8357,3.9941,-2.0978
lg,1625583158396725353,0,0.6243,-0.2253,0.7612,664,5.9204,-7.9956,0.6104,94,1.3286,1.0885,-46.2608,-12.1711,25,0.075,8340,3.9941,-1.8247
lg,1625583158396845334,0,0.6182,-0.2205,0.7627,665,5.5542,-9.0942,0.7324,94,1.3276,1.0895,-46.2689,-12.2345,25,0.075,8394,3.9941,-1.5441
lg,1625583158396903297,0,0.666,-0.2139,0.7905,666,5.7983,-12.6953,0.6104,94,1.3266,1.0915,-46.463,-12.2669,25,0.075,8365,3.9941,-1.2608
lg,1625583158396956744,0,0.6753,-0.2097,0.7808,667,5.7373,-9.9487,0.1831,94,1.3286,1.0895,-46.5758,-12.2533,25,0.075,8408,3.9941,-1.0402
lg,1625583158397002044,0,0.6772,-0.2007,0.7554,668,5.3101,-7.8125,-0.2441,94,1.3276,1.0895,-46.6455,-12.212,25,0.075,8465,3.9941,-0.8761
lg,1625583158397047086,0,0.6738,-0.199,0.7617,669,5.4932,-8.667,0,94,1.3286,1.0905,-46.7297,-12.1733,25,0.074,8375,3.9941,-0.6934
lg,1625583158397096274,0,0.6755,-0.2207,0.7725,670,5.4321,-7.0801,0.6104,94,1.3266,1.0895,-46.7257,-12.2085,25,0.075,8432,3.9941,-0.451
lg,1625583158397146907,0,0.6582,-0.2012,0.7615,671,5.188,-6.7139,0.9155,94,1.3276,1.0895,-46.6969,-12.2109,25,0.074,8470,3.9941,-0.2339
lg,1625583158397192337,0,0.6514,-0.2051,0.7444,672,4.5776,-5.3711,0.3052,94,1.3286,1.0895,-46.6336,-12.2259,25,0.075,8577,3.9941,-0.0495
lg,1625583158764281178,0,0.6514,-0.2175,0.7566,673,3.9062,-7.3853,0.1221,94,1.3276,1.0895,-46.6316,-12.3069,25,0.075,24668,3.9941,0.1706
lg,1625583158764387348,0,0.6624,-0.2192,0.7629,674,5.188,-7.4463,0.3662,94,1.3246,1.0885,-46.639,-12.3436,25,0.076,9172,3.9941,0.4027
lg,1625583158764438258,0,0.6829,-0.2344,0.7786,675,5.9814,-8.2397,0.4272,94,1.3276,1.0895,-46.6845,-12.3886,24,0.075,8102,3.9941,0.6707
lg,1625583158764488502,0,0.6584,-0.2271,0.7673,676,5.3711,-6.897,0.2441,94,1.3276,1.0905,-46.6546,-12.4259,24,0.075,10227,3.9941,0.9025
lg,1625583158764538468,0,0.6609,-0.2229,0.7625,677,5.4321,-5.7983,0.4883,94,1.3276,1.0895,-46.5931,-12.4499,24,0.075,7903,3.9941,1.1264
lg,1625583158764650766,0,0.6558,-0.2083,0.7664,678,5.127,-4.7607,0.8545,94,1.3286,1.0905,-46.4809,-12.4422,25,0.075,8324,3.9941,1.3217
lg,1625583158764700418,0,0.6562,-0.2056,0.7566,679,4.8218,-4.3945,0.4272,94,1.3276,1.0905,-46.3777,-12.4248,25,0.075,9542,3.9941,1.4872
lg,1625583158764745848,0,0.6592,-0.2185,0.7603,680,5.7983,-5.6152,0.1831,94,1.3286,1.0905,-46.3241,-12.4069,25,0.075,8164,3.9941,1.6813
lg,1625583158764812105,0,0.6426,-0.2058,0.762,681,4.6387,-5.6152,0.4272,94,1.3266,1.0915,-46.2439,-12.4062,25,0.075,9191,3.9941,1.8606
lg,1625583158764860571,0,0.6414,-0.2278,0.7607,682,4.3335,-5.6763,1.0376,94,1.3276,1.0935,-46.1571,-12.5122,24,0.075,8422,3.9941,2.1255
lg,1625583158764906057,0,0.6758,-0.2031,0.7561,683,4.5776,-7.7515,0.2441,94,1.3317,1.0895,-46.2321,-12.515,24,0.075,8091,3.9941,2.3136
lg,1625583158764949840,0,0.6655,-0.2075,0.7598,684,4.8218,-7.8125,-0.1221,94,1.3266,1.0895,-46.2864,-12.5053,24,0.075,8031,3.9941,2.4903
lg,1625583158765000843,0,0.6741,-0.209,0.7593,685,4.8828,-6.897,0.1831,94,1.3286,1.0905,-46.3147,-12.5021,24,0.075,8048,3.9941,2.6763
lg,1625583158765044644,0,0.6741,-0.207,0.762,686,4.0894,-6.0425,0.6714,94,1.3296,1.0905,-46.3014,-12.5349,25,0.076,8103,3.9941,2.8735
lg,1625583158765085964,0,0.6833,-0.2007,0.7595,687,4.6997,-5.188,0.6104,94,1.3286,1.0895,-46.2405,-12.5622,25,0.075,8130,3.9941,3.0777
lg,1625583158765129488,0,0.6699,-0.2034,0.7703,688,4.3335,-3.1738,1.6479,94,1.3286,1.0905,-46.0932,-12.5786,25,0.075,8091,3.9941,3.2789
lg,1625583158765173826,0,0.6792,-0.2234,0.7817,689,4.2725,-2.6855,2.7466,94,1.3286,1.0915,-45.9169,-12.6869,25,0.075,8191,3.9941,3.5716
lg,1625583158765217146,0,0.6555,-0.2285,0.7532,690,4.0894,-0.9155,2.1973,94,1.3276,1.0895,-45.6922,-12.7992,25,0.075,8193,3.9941,3.8246
lg,1625583158765263539,0,0.6746,-0.2222,0.772,691,3.2959,-1.709,2.7466,94,1.3276,1.0875,-45.4991,-12.9295,25,0.075,8224,3.9941,4.0985
lg,1625583158765306488,0,0.6309,-0.2192,0.7722,692,3.1738,0.4272,2.4414,94,1.3286,1.0915,-45.1604,-13.0202,25,0.076,8232,3.9941,4.3183
lg,1625583158765387111,0,0.6504,-0.2212,0.761,693,4.9438,-2.0142,1.8311,94,1.3286,1.0925,-44.9828,-13.0467,24,0.075,8239,3.9941,4.5412
lg,1625583158765431745,0,0.6704,-0.2327,0.7812,694,4.3335,-0.6104,2.1362,94,1.3286,1.0905,-44.7577,-13.1107,24,0.076,8337,3.9941,4.7725
lg,1625583158765474639,0,0.6282,-0.2163,0.7783,695,5.5542,-0.9155,1.3428,94,1.3276,1.0915,-44.498,-13.0513,24,0.076,8439,3.9941,4.9305
lg,1625583158765516515,0,0.6504,-0.2336,0.772,696,5.127,0.1221,0.9766,94,1.3286,1.0915,-44.253,-13.0422,24,0.076,8326,3.9941,5.0948
lg,1625583158765573516,0,0.6506,-0.2192,0.7666,697,6.2866,-1.2207,0.6104,94,1.3296,1.0925,-44.085,-12.9461,24,0.077,8343,3.9941,5.2285
lg,1625583158765619391,0,0.6309,-0.2236,0.7612,698,5.5542,-0.4883,0.6714,94,1.3276,1.0915,-43.8739,-12.8291,24,0.076,8857,3.9941,5.3237
lg,1625583158765662433,0,0.626,-0.218,0.7734,699,5.3101,-1.9531,1.1597,94,1.3286,1.0915,-43.6937,-12.7993,24,0.076,13623,3.9941,5.4959
lg,1625583158765710548,0,0.6389,-0.2175,0.7754,700,5.127,-2.1362,1.1597,94,1.3276,1.0915,-43.5476,-12.775,25,0.076,8661,3.9941,5.6678
lg,1625583158765754015,0,0.6284,-0.2273,0.7769,701,4.6387,-1.8311,2.0142,94,1.3286,1.0915,-43.365,-12.828,25,0.076,8453,3.9941,5.9016
lg,1625583158765798224,0,0.6282,-0.2241,0.7852,702,4.0894,-2.9297,2.4414,94,1.3276,1.0925,-43.2178,-12.9089,25,0.076,8473,3.9941,6.1584
lg,1625583158765838730,0,0.6313,-0.2273,0.7859,703,3.418,-3.2959,2.6855,94,1.3286,1.0925,-43.0916,-13.0327,25,0.076,8498,3.9941,6.4355
lg,1625583158765885789,0,0.6294,-0.251,0.7822,704,4.2114,-2.9297,1.8311,94,1.3286,1.0925,-42.9581,-13.1563,25,0.076,8523,3.9941,6.7077
lg,1625583159115215015,0,0.6414,-0.2297,0.7798,705,5.6763,-5.7373,-0.2441,94,1.3286,1.0925,-43.0073,-13.0567,25,0.076,24694,3.9941,6.8311
lg,1625583159115310950,0,0.6394,-0.2288,0.7742,706,5.3101,-5.7983,0.1831,94,1.3286,1.0915,-43.0226,-13.0404,25,0.075,10402,3.9941,6.9946
lg,1625583159115362620,0,0.6375,-0.2065,0.7935,707,5.0049,-5.249,0.5493,94,1.3286,1.0885,-43.0056,-12.9671,25,0.076,7881,3.9941,7.1317
lg,1625583159115409792,0,0.6458,-0.2129,0.7817,708,5.5542,-5.7983,1.2207,94,1.3286,1.0925,-42.9921,-12.9891,25,0.076,8637,3.9941,7.3366
lg,1625583159115515724,0,0.6519,-0.2419,0.7625,709,3.7842,-3.9062,1.5259,94,1.3286,1.0925,-42.9512,-13.1088,25,0.075,10302,3.9941,7.6078
lg,1625583159115563932,0,0.6484,-0.2363,0.7839,710,4.1504,-3.418,2.0142,94,1.3286,1.0925,-42.8748,-13.1964,25,0.076,8230,3.9941,7.8617
lg,1625583159115608734,0,0.6406,-0.2361,0.801,711,4.0894,-2.3193,1.5259,94,1.3286,1.0925,-42.7279,-13.2419,25,0.076,7995,3.9941,8.0638
lg,1625583159115652202,0,0.6624,-0.2173,0.7778,712,5.249,-2.7466,0.7935,94,1.3286,1.0925,-42.6827,-13.1787,25,0.075,8000,3.9941,8.2049
lg,1625583159115695079,0,0.6475,-0.241,0.7739,713,6.3477,-2.0142,0.3052,94,1.3286,1.0925,-42.5883,-13.1224,25,0.076,7950,3.9941,8.3618
lg,1625583159115736511,0,0.6299,-0.2195,0.7683,714,5.5542,-2.6245,-0.2441,94,1.3286,1.0925,-42.5103,-13.029,25,0.076,9251,3.9941,8.4598
lg,1625583159115780165,0,0.6267,-0.2112,0.7815,715,6.2866,-2.9297,0.2441,94,1.3286,1.0935,-42.4428,-12.9184,25,0.077,12058,3.9941,8.5822
lg,1625583159115821486,0,0.634,-0.2275,0.7847,716,6.2256,-3.9062,0.1831,94,1.3276,1.0915,-42.3997,-12.8424,25,0.076,8032,3.9941,8.7306
lg,1625583159115862289,0,0.6575,-0.2402,0.78,717,5.9204,-3.2959,0.3662,94,1.3296,1.0925,-42.3754,-12.8206,25,0.076,8197,3.9941,8.9086
lg,1625583159115903148,0,0.6787,-0.2354,0.7876,718,5.8594,-2.9297,0.6104,94,1.3296,1.0925,-42.3448,-12.7422,25,0.076,8135,3.9941,9.0516
lg,1625583159115943821,0,0.6753,-0.2212,0.7942,719,6.4697,-0.1221,1.4038,94,1.3276,1.0925,-42.2072,-12.648,25,0.076,8132,3.9941,9.2039
lg,1625583159115984161,0,0.6748,-0.2346,0.771,720,6.3477,2.0752,1.8921,94,1.3286,1.0935,-42.0118,-12.6165,25,0.076,8139,3.9941,9.3951
lg,1625583159116027426,0,0.6521,-0.2188,0.7832,721,6.7749,3.9673,2.6245,94,1.3286,1.0925,-41.7437,-12.5742,25,0.077,12666,3.9941,9.5989
lg,1625583159116070784,0,0.6311,-0.2075,0.7915,722,6.958,5.9204,1.4648,94,1.3286,1.0925,-41.3285,-12.3871,25,0.077,8480,3.9941,9.6638
lg,1625583159116112846,0,0.6118,-0.2168,0.7854,723,7.2632,3.418,1.2207,94,1.3286,1.0925,-41.0008,-12.2381,25,0.076,8343,3.9941,9.7713
lg,1625583159116181418,0,0.6108,-0.2119,0.7754,724,7.2632,3.418,1.0986,94,1.3296,1.0925,-40.7001,-12.0841,25,0.078,8286,3.9941,9.8716
lg,1625583159116223702,0,0.5857,-0.2053,0.7656,725,7.1411,2.2583,0.5493,94,1.3296,1.0925,-40.4307,-11.9208,25,0.077,9963,3.9941,9.9535
lg,1625583159116264487,0,0.5725,-0.2178,0.7632,726,7.6904,-0.6104,0,94,1.3296,1.0925,-40.3057,-11.8257,25,0.077,9350,3.9941,10.0997
lg,1625583159116307437,0,0.5803,-0.2102,0.7717,727,6.1646,-1.8311,0.3662,94,1.3276,1.0915,-40.1935,-11.7443,25,0.077,8473,3.9941,10.2294
lg,1625583159116348795,0,0.5916,-0.1951,0.7615,728,5.9204,-5.7373,0.1221,94,1.3296,1.0915,-40.2784,-11.6568,25,0.077,8465,3.9941,10.3655
lg,1625583159116389654,0,0.6023,-0.1975,0.7729,729,4.2725,-8.9722,0.3052,94,1.3296,1.0925,-40.4879,-11.6656,25,0.076,8402,3.9941,10.547
lg,1625583159116430290,0,0.634,-0.2043,0.7634,730,4.2114,-9.9487,0.9155,94,1.3296,1.0925,-40.7483,-11.757,25,0.077,8394,3.9941,10.7756
lg,1625583159116470741,0,0.6375,-0.2158,0.79,731,2.6245,-9.4604,0.8545,94,1.3286,1.0905,-40.9873,-11.8902,25,0.077,8457,3.9941,11.0164
lg,1625583159116511452,0,0.6509,-0.2073,0.7903,732,2.1973,-8.4839,1.2817,94,1.3296,1.0925,-41.1998,-12.0191,25,0.077,8444,3.9941,11.2506
lg,1625583159116551644,0,0.6206,-0.2292,0.8076,733,1.3428,-5.7983,1.8921,94,1.3286,1.0925,-41.2135,-12.2309,25,0.077,8570,3.9941,11.5191
lg,1625583159116591613,0,0.6409,-0.2307,0.7844,734,1.4648,-4.5166,2.2583,94,1.3296,1.0925,-41.2375,-12.4519,25,0.077,10439,3.9941,11.8001
lg,1625583159116632361,0,0.6282,-0.2517,0.7888,735,1.709,-5.7373,1.2207,94,1.3296,1.0935,-41.2826,-12.6851,25,0.077,8633,3.9941,12.0739
lg,1625583159116674052,0,0.6311,-0.2305,0.7734,736,2.5635,-6.0425,1.5869,94,1.3296,1.0925,-41.3188,-12.8657,25,0.077,8580,3.9941,12.3487
lg,1625583159485820214,0,0.6147,-0.2449,0.7769,737,4.8218,-7.0801,0.4883,94,1.3286,1.0915,-41.4122,-12.9367,24,0.077,24895,3.9941,12.5859
lg,1625583159485904412,0,0.6152,-0.2305,0.7808,738,3.9062,-6.3477,0.5493,94,1.3276,1.0905,-41.4727,-12.9938,24,0.078,10007,3.9941,12.7869
lg,1625583159485956304,0,0.6265,-0.2363,0.7932,739,4.3945,-7.9346,0.7324,94,1.3286,1.0935,-41.5922,-13.0548,24,0.078,10270,3.9941,13.0198
lg,1625583159486005734,0,0.6157,-0.217,0.7715,740,4.2114,-7.8125,0.6714,94,1.3296,1.0945,-41.718,-13.0805,24,0.078,10368,3.9941,13.222
lg,1625583159486053276,0,0.6191,-0.2295,0.7646,741,4.0283,-7.5073,0.9766,94,1.3286,1.0945,-41.8355,-13.1626,24,0.078,7861,3.9941,13.4643
lg,1625583159486099392,0,0.6094,-0.2351,0.8015,742,3.479,-8.728,0.6714,94,1.3296,1.0945,-41.9314,-13.2514,24,0.077,11555,3.9941,13.6964
lg,1625583159486594322,0,0.6387,-0.2344,0.7854,743,3.9673,-9.2163,0.9766,94,1.3296,1.0945,-42.1109,-13.3411,25,0.078,7946,3.9941,13.9549
lg,1625583159486660229,0,0.6594,-0.2493,0.7974,744,4.1504,-7.7515,0.9766,94,1.3296,1.0945,-42.2413,-13.4394,25,0.078,7942,3.9941,14.2149
lg,1625583159486713880,0,0.6367,-0.2349,0.8027,745,6.3477,-5.8594,0.4272,94,1.3296,1.0945,-42.2577,-13.3688,25,0.078,8082,3.9941,14.3914
lg,1625583159486764309,0,0.6433,-0.2188,0.7944,746,6.3477,-5.0659,0.8545,94,1.3296,1.0945,-42.2656,-13.2698,25,0.078,7995,3.9941,14.5551
lg,1625583159486812980,0,0.6155,-0.2271,0.7891,747,6.1646,-4.7607,1.0376,94,1.3296,1.0945,-42.2371,-13.2506,24,0.079,8226,3.9941,14.7771
lg,1625583159486855912,0,0.6282,-0.2268,0.7864,748,5.7983,-4.0283,1.1597,94,1.3276,1.0935,-42.1853,-13.2101,24,0.079,8283,3.9941,14.9672
lg,1625583159486899751,0,0.605,-0.228,0.7812,749,5.3711,-4.5776,1.77,94,1.3306,1.0975,-42.1168,-13.2232,24,0.079,8079,3.9941,15.2031
lg,1625583159486943053,0,0.6008,-0.2214,0.7864,750,5.0049,-6.3477,1.0376,94,1.3296,1.0935,-42.1142,-13.2162,24,0.078,8371,3.9941,15.4065
lg,1625583159486991410,0,0.6191,-0.2053,0.7749,751,4.9438,-9.4604,0.7935,94,1.3296,1.0985,-42.2867,-13.19,24,0.078,11270,3.9941,15.6093
lg,1625583159487038988,0,0.6172,-0.2156,0.7783,752,3.9062,-9.8267,0.4883,94,1.3306,1.0945,-42.4582,-13.2268,24,0.078,8158,3.9941,15.8207
lg,1625583159487084160,0,0.6248,-0.2119,0.7756,753,4.3945,-10.9863,-0.061,94,1.3276,1.0945,-42.6906,-13.2247,24,0.078,8271,3.9941,16.0114
lg,1625583159487715291,0,0.6506,-0.2322,0.7864,754,4.3945,-10.376,0,94,1.3246,1.0945,-42.9136,-13.2697,25,0.079,8272,3.9941,16.2322
lg,1625583159487783975,0,0.6411,-0.2253,0.7878,755,4.0894,-9.2773,1.0986,94,1.3306,1.0955,-43.059,-13.3366,25,0.078,8220,3.9941,16.484
lg,1625583159487833516,0,0.6558,-0.2332,0.79,756,3.0518,-8.7891,0.8545,94,1.3296,1.0945,-43.1079,-13.4254,25,0.078,8278,3.9941,16.7167
lg,1625583159487885167,0,0.6401,-0.2195,0.7888,757,2.6245,-6.2256,1.3428,94,1.3286,1.0955,-43.1237,-13.5102,25,0.078,8238,3.9941,16.9277
lg,1625583159487935542,0,0.6187,-0.2615,0.8022,758,2.5635,-6.7139,1.0986,94,1.3296,1.0945,-43.0932,-13.7011,25,0.078,8299,3.9941,17.207
lg,1625583159487981602,0,0.646,-0.2505,0.7957,759,3.2349,-6.2256,1.5259,94,1.3296,1.0955,-43.0986,-13.8403,25,0.078,8364,3.9941,17.4783
lg,1625583159488029514,0,0.6448,-0.2529,0.8008,760,2.9907,-5.7373,0.6104,94,1.3296,1.0945,-43.084,-13.9488,25,0.078,8375,3.9941,17.6929
lg,1625583159488080333,0,0.6177,-0.2502,0.8005,761,3.9062,-5.3711,0.4883,94,1.3286,1.0955,-43.0117,-14.0034,25,0.078,8376,3.9941,17.8896
lg,1625583159488127152,0,0.615,-0.2234,0.7808,762,4.0894,-6.0425,-0.3662,101,1.3296,1.0965,-43.0052,-13.9618,25,0.078,8482,3.9974,18.0058
lg,1625583159488177008,0,0.6575,-0.2175,0.7747,763,2.5635,-7.0801,-1.3428,101,1.3306,1.0955,-43.1313,-13.9423,25,0.078,8425,3.9974,18.0749
lg,1625583159488222217,0,0.6362,-0.228,0.7874,764,2.3804,-7.6294,-1.8921,101,1.3306,1.0955,-43.2228,-13.9375,25,0.079,8431,3.9974,18.1376
lg,1625583159488270555,0,0.6807,-0.249,0.7966,765,1.0376,-9.4604,-2.0752,101,1.3296,1.0965,-43.4383,-14.0459,25,0.079,8497,3.9974,18.2497
lg,1625583159488314394,0,0.7583,-0.2263,0.8252,766,-0.1831,-5.4321,-0.5493,101,1.3296,1.0955,-43.5662,-14.1309,25,0.079,9098,3.9974,18.3267
lg,1625583159488363787,0,0.814,-0.2456,0.8325,767,-2.6855,5.4932,1.0376,101,1.3306,1.0965,-43.3168,-14.3114,25,0.079,8464,3.9974,18.3677
lg,1625583159488411403,0,0.8311,-0.2568,0.8389,768,-4.9438,12.8174,3.0518,101,1.3296,1.0955,-42.5381,-14.5905,25,0.081,8573,3.9974,18.301
lg,1625583159837875364,0,0.8367,-0.2979,0.8713,769,-8.7891,47.6685,-0.6714,101,1.3296,1.0965,-40.6916,-14.6517,25,0.079,25782,3.9974,17.7289
lg,1625583159837955656,0,0.8235,-0.3132,0.907,770,-8.667,60.9741,-6.1035,101,1.3296,1.0955,-38.3963,-14.4611,25,0.078,8713,3.9974,16.7316
lg,1625583159838007844,0,0.7832,-0.3013,0.8555,771,-8.3008,73.7915,-5.4321,101,1.3296,1.0965,-35.6958,-14.2598,25,0.075,8199,3.9974,15.658
lg,1625583159838057367,0,0.6716,-0.3381,0.8552,772,-9.8877,82.6416,-9.7656,101,1.3296,1.0965,-32.6205,-14.1236,25,0.072,10708,3.9974,14.379
lg,1625583159838108629,0,0.5725,-0.3125,0.7825,773,-9.2163,87.3413,-11.7798,101,1.3296,1.0955,-29.4254,-13.992,25,0.072,8116,3.9974,13.0067
lg,1625583159838155893,0,0.4902,-0.3232,0.7786,774,-11.0474,77.6978,-12.5732,101,1.3296,1.0945,-26.5791,-14.0973,25,0.073,7947,3.9974,11.7577
lg,1625583159838203454,0,0.4619,-0.3442,0.7996,775,-10.9863,68.9697,-13.7329,101,1.3296,1.0925,-24.1097,-14.312,24,0.073,7959,3.9974,10.5744
lg,1625583159838250458,0,0.4373,-0.3545,0.7986,776,-11.1084,53.4058,-13.7329,101,1.3286,1.0905,-22.2902,-14.6622,24,0.074,7987,3.9974,9.5626
lg,1625583159838299129,0,0.3396,-0.3169,0.7747,777,-5.188,47.1802,-11.7188,101,1.3286,1.0885,-20.5845,-14.7966,24,0.071,9276,3.9974,8.6706
lg,1625583159838347578,0,0.228,-0.3015,0.7441,778,-3.2959,26.001,-8.9111,101,1.3286,1.0885,-19.4889,-14.9939,24,0.069,8757,3.9974,8.1207
lg,1625583159838396120,0,0.2332,-0.2793,0.7422,779,-4.2725,8.728,-8.3008,101,1.3266,1.0815,-19.1152,-15.2416,24,0.068,8030,3.9974,7.7587
lg,1625583159838443976,0,0.3254,-0.2744,0.7776,780,-6.958,-23.9868,-5.0049,101,1.3276,1.0825,-20.1818,-15.7014,24,0.069,8018,3.9974,7.8798
lg,1625583159838490759,0,0.416,-0.2852,0.8167,781,-5.3101,-41.9922,-2.9907,101,1.3276,1.0805,-22.0359,-16.1781,24,0.068,8103,3.9974,8.2993
lg,1625583159838535227,0,0.4741,-0.3015,0.812,782,-4.8828,-47.4243,-3.1128,101,1.3266,1.0775,-24.1409,-16.7047,24,0.068,8061,3.9974,8.8147
lg,1625583159838578215,0,0.5349,-0.3018,0.8469,783,-0.8545,-44.9219,-2.8687,101,1.3276,1.0795,-26.1413,-17.0368,25,0.069,8090,3.9974,9.3155
lg,1625583159838621517,0,0.5452,-0.28,0.856,784,4.1504,-35.5835,-2.6855,101,1.3276,1.0775,-27.7198,-17.0673,25,0.068,8094,3.9974,9.6864
lg,1625583159838664634,0,0.5593,-0.2583,0.8423,785,6.1646,-31.25,-3.1738,101,1.3266,1.0795,-29.1245,-16.948,25,0.067,8154,3.9974,9.9629
lg,1625583159838713453,0,0.6011,-0.2402,0.824,786,2.2583,-21.1792,-4.3335,101,1.3276,1.0795,-30.206,-16.8728,25,0.066,8161,3.9974,10.0412
lg,1625583159838762068,0,0.623,-0.2166,0.8381,787,-1.0986,-6.8359,-5.6763,101,1.3276,1.0805,-30.7435,-16.7408,25,0.063,8262,3.9974,9.8327
lg,1625583159838807037,0,0.5811,-0.1902,0.8616,788,-8.3618,6.2866,-6.958,101,1.3266,1.0815,-30.6821,-16.7021,25,0.065,13779,3.9974,9.3498
lg,1625583159838853727,0,0.5547,-0.2329,0.8972,789,-14.6484,13.0005,-7.7515,101,1.3266,1.0815,-30.2774,-16.9324,25,0.062,8556,3.9974,8.7833
lg,1625583159838899769,0,0.519,-0.2444,0.8655,790,-14.8926,20.1416,-9.2163,101,1.3266,1.0815,-29.5995,-17.1354,25,0.067,8437,3.9974,8.0765
lg,1625583159838945052,0,0.3921,-0.2573,0.8091,791,-15.4419,23.6816,-9.5825,101,1.3256,1.0805,-28.6176,-17.4602,25,0.062,8323,3.9974,7.3036
lg,1625583159838993390,0,0.3279,-0.2629,0.7764,792,-18.4937,18.5547,-10.9863,101,1.3236,1.0805,-27.7707,-17.8982,25,0.066,8348,3.9974,6.593
lg,1625583159839047115,0,0.2751,-0.2773,0.7607,793,-22.3999,-6.7749,-11.5967,101,1.3226,1.0795,-27.8109,-18.6872,25,0.067,8345,3.9974,6.229
lg,1625583159839089843,0,0.3481,-0.293,0.751,794,-27.1606,-38.3911,-11.4136,101,1.3216,1.0755,-29.221,-19.9133,25,0.067,9530,3.9974,6.3651
lg,1625583159839141902,0,0.4534,-0.3147,0.7256,795,-26.3062,-57.0068,-11.3525,101,1.3206,1.0775,-31.5208,-21.3181,25,0.066,8456,3.9974,6.8738
lg,1625583159839185223,0,0.5012,-0.3369,0.7307,796,-25.5737,-61.4014,-12.146,101,1.3186,1.0755,-34.0677,-22.768,25,0.066,8499,3.9974,7.5076
lg,1625583159839229617,0,0.5569,-0.3108,0.7366,797,-19.7754,-64.0869,-12.8174,101,1.3156,1.0745,-36.6322,-23.9407,24,0.063,8485,3.9974,8.1812
lg,1625583159839271716,0,0.6001,-0.3279,0.7358,798,-13.7329,-61.5234,-14.5874,101,1.3156,1.0745,-39.0918,-24.8608,24,0.067,8533,3.9974,8.7995
lg,1625583159839313722,0,0.5986,-0.3186,0.7673,799,-7.2632,-57.5562,-16.0522,101,1.3136,1.0745,-41.2938,-25.3789,24,0.066,8564,3.9974,9.2567
lg,1625583159839356265,0,0.6597,-0.2915,0.783,800,-4.6387,-56.3965,-15.8691,101,1.3116,1.0725,-43.3821,-25.5536,24,0.063,8652,3.9974,9.603
lg,1625583160196281536,0,0.7297,-0.2678,0.8901,801,5.4932,-39.1846,-15.2588,101,1.3076,1.0745,-44.8439,-25.0598,25,0.062,24792,3.9974,9.5032
lg,1625583160196356405,0,0.7532,-0.2078,0.8289,802,10.3149,-16.4795,-10.437,101,1.3046,1.0745,-45.4837,-24.0729,25,0.062,8667,3.9974,9.0214
lg,1625583160196407021,0,0.6267,-0.2141,0.7742,803,6.0425,1.8921,-6.897,101,1.3046,1.0755,-45.2297,-23.1563,25,0.063,11872,3.9974,8.339
lg,1625583160196454656,0,0.5293,-0.2227,0.8091,804,1.0376,2.8076,-2.9297,101,1.3016,1.0745,-44.6641,-22.5903,25,0.065,9863,3.9974,7.8582
lg,1625583160196499903,0,0.5703,-0.1831,0.7632,805,-2.1362,-4.6997,-0.6714,101,1.3006,1.0755,-44.5102,-22.3062,25,0.065,8087,3.9974,7.6304
lg,1625583160196545372,0,0.6042,-0.2327,0.7791,806,-1.1597,-10.5591,1.0376,101,1.2986,1.0755,-44.566,-22.2869,25,0.064,7864,3.9974,7.7259
lg,1625583160196590322,0,0.5801,-0.2263,0.7571,807,1.0376,-3.479,3.1128,101,1.2966,1.0755,-44.1974,-22.2128,25,0.064,7988,3.9974,7.8099
lg,1625583160196634088,0,0.5686,-0.2593,0.717,808,-1.4038,-7.9346,3.6011,101,1.2946,1.0755,-44.1286,-22.4037,25,0.066,7955,3.9974,8.0861
lg,1625583160196678835,0,0.5933,-0.2642,0.7595,809,4.6387,-4.5776,7.8735,101,1.2916,1.0765,-43.8635,-22.4171,25,0.065,12812,3.9974,8.4833
lg,1625583160196722545,0,0.582,-0.2732,0.7532,810,5.3101,-6.6528,7.8125,101,1.2906,1.0755,-43.7502,-22.5137,25,0.064,9006,3.9974,9.0099
lg,1625583160196765293,0,0.6738,-0.2705,0.8069,811,6.4087,-13.1836,6.897,101,1.2886,1.0755,-43.9071,-22.5181,25,0.064,8062,3.9974,9.5204
lg,1625583160196809188,0,0.7427,-0.2549,0.8552,812,10.376,-2.1973,6.6528,101,1.2866,1.0755,-43.7176,-22.116,25,0.064,8151,3.9974,9.729
lg,1625583160196851917,0,0.6619,-0.2268,0.7961,813,12.085,11.5356,9.6436,101,1.2856,1.0755,-42.7138,-21.5288,25,0.066,8132,3.9974,9.7586
lg,1625583160196893721,0,0.5964,-0.2236,0.7781,814,8.3618,17.6392,11.0474,101,1.2826,1.0755,-41.6448,-21.0937,25,0.066,8144,3.9974,9.8011
lg,1625583160196935432,0,0.5591,-0.2278,0.7795,815,2.9907,12.6953,12.5122,101,1.2786,1.0755,-40.708,-21.0087,25,0.064,9659,3.9974,10.0347
lg,1625583160196977864,0,0.5562,-0.2375,0.7966,816,-1.5869,9.5215,13.1226,101,1.2756,1.0775,-39.8864,-21.1739,25,0.062,8817,3.9974,10.3667
lg,1625583160197020020,0,0.498,-0.249,0.7952,817,-3.6011,4.5166,11.4746,101,1.2716,1.0745,-39.1903,-21.442,25,0.063,8268,3.9974,10.7228
lg,1625583160197062027,0,0.4895,-0.249,0.8411,818,-4.5166,-0.6714,10.376,101,1.2676,1.0745,-38.9213,-21.7409,25,0.062,8293,3.9974,11.1488
lg,1625583160197105256,0,0.5271,-0.2566,0.8179,819,-5.188,-12.085,9.6436,101,1.2636,1.0745,-38.9274,-22.1875,25,0.062,8272,3.9974,11.7183
lg,1625583160197147818,0,0.5393,-0.2542,0.7827,820,-6.7139,-12.8784,9.2773,101,1.2626,1.0745,-39.028,-22.7052,25,0.063,8316,3.9974,12.2953
lg,1625583160197190695,0,0.5737,-0.2502,0.855,821,-9.2163,-19.165,7.3853,101,1.2606,1.0755,-39.3654,-23.2558,25,0.061,8371,3.9974,12.8544
lg,1625583160197234054,0,0.616,-0.2537,0.8398,822,-7.9346,-18.3716,7.9346,101,1.2576,1.0745,-39.7932,-23.7833,25,0.062,8375,3.9974,13.4407
lg,1625583160197279263,0,0.5894,-0.2578,0.8113,823,-4.7607,-9.8267,7.1411,101,1.2536,1.0745,-39.83,-24.0547,25,0.062,8435,3.9974,13.8156
lg,1625583160197325232,0,0.5356,-0.2214,0.8125,824,-4.8828,-9.0332,5.6763,101,1.2496,1.0765,-39.7791,-24.1551,24,0.06,9014,3.9974,14.0266
lg,1625583160197370775,0,0.5208,-0.2314,0.8005,825,-6.7749,-12.6343,5.127,101,1.2516,1.0745,-39.8485,-24.3958,24,0.059,9683,3.9974,14.3103
lg,1625583160197415689,0,0.5347,-0.2566,0.8118,826,-9.0942,-19.9585,4.5776,101,1.2466,1.0745,-40.1883,-24.8689,24,0.058,8498,3.9974,14.7644
lg,1625583160197462991,0,0.5583,-0.2581,0.7915,827,-9.0942,-21.7285,5.188,101,1.2436,1.0745,-40.7431,-25.5103,24,0.054,8534,3.9974,15.3488
lg,1625583160197508404,0,0.5847,-0.282,0.7998,828,-10.1929,-27.0996,3.1128,101,1.2396,1.0745,-41.4119,-26.1533,25,0.052,8509,3.9974,15.9473
lg,1625583160197564611,0,0.623,-0.3237,0.7871,829,-8.2397,-24.4751,1.5869,101,1.2356,1.0745,-42.0405,-26.7491,25,0.054,8547,3.9974,16.4956
lg,1625583160197608044,0,0.6233,-0.321,0.7808,830,-5.5542,-22.3999,0.4883,101,1.2366,1.0745,-42.5963,-27.1569,25,0.054,8606,3.9974,16.9365
lg,1625583160197656568,0,0.6299,-0.332,0.7561,831,-2.5635,-21.1182,0,101,1.2346,1.0725,-43.1247,-27.4609,25,0.053,8645,3.9974,17.3601
lg,1625583160197701222,0,0.6406,-0.3159,0.7493,832,-1.0376,-20.752,-0.6104,101,1.2336,1.0745,-43.6254,-27.6305,25,0.053,8562,3.9974,17.7138
lg,1625583160592338682,0,0.6682,-0.2878,0.7478,833,4.5166,-18.5547,-1.8311,101,1.2306,1.0735,-44.1583,-27.4313,25,0.053,25082,3.9974,17.9029
lg,1625583160592508136,0,0.6943,-0.2981,0.7659,834,3.2349,-12.3901,-0.4272,101,1.2286,1.0735,-44.4413,-27.2397,25,0.052,8872,3.9974,18.0119
lg,1625583160592566064,0,0.6582,-0.2747,0.7627,835,3.479,-5.6152,1.0376,101,1.2296,1.0745,-44.4073,-26.9085,25,0.055,10351,3.9974,17.9756
lg,1625583160592621160,0,0.5845,-0.2761,0.75,836,1.6479,-5.127,2.5635,101,1.2276,1.0735,-44.2159,-26.7148,25,0.054,10648,3.9974,18.0167
lg,1625583160592672054,0,0.5857,-0.291,0.7659,837,-0.8545,-11.1084,3.6011,101,1.2276,1.0745,-44.1998,-26.7939,25,0.055,7955,3.9974,18.2836
lg,1625583160592720540,0,0.5918,-0.3003,0.7651,838,-1.3428,-14.3433,3.54,101,1.2266,1.0745,-44.3589,-27.0386,25,0.055,8103,3.9974,18.703
lg,1625583160592768379,0,0.6047,-0.3147,0.7654,839,-1.8921,-15.1367,3.7231,101,1.2266,1.0745,-44.4955,-27.2952,25,0.055,8014,3.9974,19.1227
lg,1625583160592815848,0,0.6189,-0.3408,0.7615,840,-0.9155,-16.6626,3.6011,101,1.2256,1.0745,-44.6941,-27.6084,25,0.055,8032,3.9974,19.6282
lg,1625583160592862557,0,0.6162,-0.3384,0.7639,841,0.5493,-17.4561,2.6245,101,1.2256,1.0745,-44.9235,-27.8245,25,0.057,10762,3.9974,20.0939
lg,1625583160592910470,0,0.6367,-0.3323,0.7656,842,2.0752,-17.9443,2.8076,101,1.2236,1.0745,-45.1933,-27.9734,25,0.055,11053,3.9974,20.567
lg,1625583160592957198,0,0.6284,-0.3604,0.7432,843,2.8076,-17.2119,2.5635,101,1.2236,1.0715,-45.4244,-28.1763,25,0.055,8123,3.9974,21.0842
lg,1625583160593002297,0,0.6377,-0.3479,0.7515,844,3.6621,-16.7236,3.2349,101,1.2236,1.0735,-45.6122,-28.191,25,0.055,8095,3.9974,21.5092
lg,1625583160593046599,0,0.6245,-0.3408,0.7703,845,5.0049,-15.4419,2.6855,101,1.2226,1.0735,-45.7367,-28.1808,25,0.055,8177,3.9974,21.916
lg,1625583160593090069,0,0.6411,-0.3247,0.7551,846,4.2114,-15.0757,3.1738,101,1.2236,1.0745,-45.89,-28.1913,25,0.057,8173,3.9974,22.3218
lg,1625583160593131965,0,0.6326,-0.3167,0.7278,847,3.9062,-12.4512,3.54,101,1.2236,1.0735,-45.9618,-28.1896,25,0.057,8149,3.9974,22.6837
lg,1625583160593180026,0,0.6201,-0.313,0.7542,848,3.3569,-12.5122,3.7231,101,1.2236,1.0735,-45.9793,-28.1702,25,0.057,8337,3.9974,23.022
lg,1625583160593221533,0,0.6257,-0.3306,0.7458,849,2.9907,-15.0146,2.9907,101,1.2236,1.0745,-46.105,-28.2518,25,0.058,8276,3.9974,23.438
lg,1625583160593267983,0,0.6453,-0.335,0.75,850,3.9062,-13.5498,2.8076,101,1.2246,1.0745,-46.2033,-28.2682,25,0.058,8249,3.9974,23.8095
lg,1625583160593312730,0,0.6511,-0.3445,0.7441,851,4.3945,-13.0005,2.2583,101,1.2236,1.0735,-46.2728,-28.2347,25,0.057,8399,3.9974,24.1387
lg,1625583160593360754,0,0.6531,-0.335,0.7324,852,5.6152,-10.5591,2.6855,101,1.2226,1.0735,-46.2964,-28.1461,25,0.057,8358,3.9974,24.4406
lg,1625583160593405890,0,0.6565,-0.3374,0.7507,853,6.4087,-8.9722,0.6714,101,1.2236,1.0735,-46.2843,-27.9056,25,0.057,8308,3.9974,24.5848
lg,1625583160593457450,0,0.6531,-0.332,0.7388,854,7.2021,-5.9814,1.2817,101,1.2226,1.0745,-46.1687,-27.6078,25,0.057,8275,3.9974,24.6857
lg,1625583160593507862,0,0.6589,-0.323,0.7451,855,7.1411,-4.3335,0.7935,101,1.2216,1.0745,-46.017,-27.2411,25,0.058,9362,3.9974,24.7012
lg,1625583160593554127,0,0.6382,-0.3325,0.7434,856,7.6904,-2.8076,0.4883,101,1.2216,1.0745,-45.7842,-26.8556,25,0.058,8393,3.9974,24.6919
lg,1625583160593601151,0,0.6216,-0.3376,0.7302,857,7.019,-1.8921,2.0142,101,1.2216,1.0745,-45.4849,-26.584,25,0.057,8465,3.9974,24.7717
lg,1625583160593648712,0,0.5952,-0.3186,0.7659,858,6.3477,-2.6855,2.4414,101,1.2216,1.0745,-45.1745,-26.2654,25,0.058,8434,3.9974,24.8195
lg,1625583160593693385,0,0.5955,-0.3386,0.7524,859,5.249,-5.4321,1.9531,101,1.2216,1.0745,-44.9542,-26.1213,25,0.058,8474,3.9974,24.9832
lg,1625583160593734615,0,0.5923,-0.3506,0.74,860,5.0659,-8.2397,0.9766,101,1.2216,1.0745,-44.862,-26.0552,25,0.058,9089,3.9974,25.2077
lg,1625583160593776029,0,0.6094,-0.3159,0.7422,861,6.6528,-8.9111,0.4272,101,1.2206,1.0725,-44.8554,-25.8184,25,0.058,10879,3.9974,25.3499
lg,1625583160593817314,0,0.6274,-0.3279,0.7417,862,7.019,-10.9863,-0.2441,101,1.2226,1.0735,-44.9602,-25.6244,25,0.058,8523,3.9974,25.5406
lg,1625583160593864801,0,0.6396,-0.3333,0.7549,863,7.9956,-10.498,-0.7324,101,1.2226,1.0745,-45.0542,-25.3718,25,0.057,8547,3.9974,25.6978
lg,1625583160593908327,0,0.6335,-0.3235,0.75,864,7.5684,-8.9111,0.6714,101,1.2216,1.0745,-45.0415,-25.1726,25,0.058,8631,3.9974,25.8855
lg,1625583160913008526,0,0.6267,-0.3501,0.7439,865,2.3193,-8.8501,3.2349,101,1.2216,1.0745,-44.9875,-25.3408,24,0.057,25271,3.9974,26.2605
lg,1625583160913052644,0,0.627,-0.3513,0.749,866,3.9062,-7.6294,2.5635,101,1.2206,1.0755,-44.8965,-25.3898,24,0.057,8799,3.9974,26.5643
