name,time,activity,ax,ay,az,batch_val,gx,gy,gz,ibat,index,middle,pitch,roll,temp,thumb,ts,vbat,yaw
lg,1625579811056700361,0,0.8047,-0.1467,0.7007,1,-1.3428,-22.2778,-3.2959,118,1.3677,1.0995,-48.356,-1.0208,27,0.066,19673,3.9369,131.6526
lg,1625579811056740297,0,0.6633,-0.0991,0.6858,2,-5.0049,-14.6484,-1.5259,118,1.3667,1.1005,-48.752,-1.4752,27,0.066,8484,3.9369,131.8132
lg,1625579811056760746,0,0.5967,-0.0854,0.7051,3,-10.8032,-24.5361,-1.4038,118,1.3677,1.1005,-49.3751,-2.125,27,0.066,7926,3.9369,131.9626
lg,1625579811056779955,0,0.564,-0.0713,0.7075,4,-13.6108,-31.6162,-0.8545,118,1.3677,1.1005,-50.4449,-3.1265,27,0.066,7899,3.9369,132.2437
lg,1625579811056798626,0,0.5527,-0.1243,0.73,5,-19.2261,-47.4854,-0.7935,118,1.3677,1.1005,-51.7832,-4.3282,27,0.067,7904,3.9369,132.6395
lg,1625579811056815816,0,0.554,-0.1116,0.7183,6,-25.1465,-67.5049,-2.4414,118,1.3687,1.1005,-53.8795,-5.7374,27,0.067,7930,3.9369,133.0477
lg,1625579811056832561,0,0.5728,-0.0974,0.7024,7,-27.832,-76.5991,-3.1738,118,1.3687,1.1005,-56.5931,-7.4285,27,0.067,7934,3.9369,133.5474
lg,1625579811056850176,0,0.6167,-0.1335,0.6951,8,-34.8511,-90.8813,-3.418,118,1.3687,1.1005,-59.5442,-9.6386,27,0.068,8130,3.9369,134.4634
lg,1625579811056867088,0,0.6641,-0.1135,0.688,9,-37.2925,-101.9287,-4.5166,118,1.3687,1.1005,-62.8861,-12.1614,27,0.068,8008,3.9369,135.6717
lg,1625579811056885370,0,0.7639,-0.1655,0.7031,10,-39.4287,-104.4922,-3.9062,118,1.3687,1.1005,-66.3626,-15.5202,27,0.068,8012,3.9369,137.5937
lg,1625579811056903171,0,0.7507,-0.1655,0.7324,11,-34.729,-69.7021,-11.9019,118,1.3697,1.1005,-68.1973,-16.9911,27,0.069,33401,3.9369,137.8289
lg,1625579811056920601,0,0.8164,-0.1567,0.7297,12,-31.9214,-58.96,-16.4185,118,1.3697,1.0995,-69.7787,-18.0775,27,0.07,8156,3.9369,137.7035
lg,1625579811056937717,0,0.8362,-0.0891,0.6758,13,-28.0151,-32.8369,-25.0244,118,1.3707,1.0995,-70.5627,-16.8161,27,0.07,8619,3.9369,135.2712
lg,1625579811056954314,0,0.7441,-0.092,0.6553,14,-28.9917,-0.7324,-31.4331,118,1.3707,1.0995,-70.0664,-13.8763,27,0.069,8073,3.9369,130.9789
lg,1625579811056971318,0,0.6768,-0.0989,0.6384,15,-30.5786,7.8735,-35.4614,118,1.3717,1.0995,-69.1486,-10.7582,27,0.07,8160,3.9369,126.3767
lg,1625579811056988693,0,0.6084,-0.1274,0.6069,16,-32.7759,20.2637,-44.1284,118,1.3717,1.0985,-67.6901,-7.4005,27,0.07,8147,3.9369,121.325
lg,1625579811057005697,0,0.5017,-0.1399,0.5601,17,-33.9355,26.4893,-51.1475,118,1.3717,1.0985,-65.8548,-4.2546,27,0.07,8161,3.9369,116.3304
lg,1625579811057023294,0,0.4746,-0.1567,0.561,18,-35.6445,22.2778,-54.3213,118,1.3717,1.0975,-64.3857,-1.6472,27,0.069,8168,3.9369,111.6054
lg,1625579811057039613,0,0.5105,-0.2014,0.5437,19,-37.2925,7.9346,-61.9507,118,1.3717,1.0965,-63.2881,0.6895,27,0.07,8232,3.9259,107.0779
lg,1625579811057056691,0,0.5376,-0.2058,0.5388,20,-36.1938,-2.8076,-67.8101,118,1.3727,1.0965,-62.6241,3.2325,27,0.071,8152,3.9259,102.2897
lg,1625579811057073436,0,0.6206,-0.2212,0.5371,21,-31.5552,-17.4561,-72.7539,118,1.3727,1.0965,-62.5926,6.2416,27,0.071,8265,3.9259,97.1296
lg,1625579811057089718,0,0.6753,-0.2153,0.5308,22,-30.5176,-23.8647,-74.4019,118,1.3737,1.0955,-62.771,9.4878,27,0.071,8260,3.9259,91.7368
lg,1625579811057106463,0,0.8247,-0.2185,0.5022,23,-28.6865,-23.6206,-75.5005,118,1.3737,1.0955,-63.027,13.0298,27,0.071,8310,3.9259,86.1115
lg,1625579811057123801,0,0.865,-0.2302,0.5432,24,-26.1841,-4.6997,-73.8525,118,1.3737,1.0945,-62.3991,16.0093,27,0.071,8339,3.9259,81.1964
lg,1625579811057139916,0,0.8972,-0.2517,0.5659,25,-23.6206,3.6011,-71.8384,118,1.3737,1.0935,-61.3066,18.2135,27,0.072,8473,3.9259,77.3301
lg,1625579811057156939,0,0.3196,-0.4651,0.8516,26,-93.689,-15.5029,0.9766,170,1.3927,1.0915,-60.8768,11.537,28,0.067,13676,3.8258,79.8683
lg,1625579811057173758,0,0.2756,-0.6223,0.967,27,-82.1533,-44.4946,-1.5869,170,1.3917,1.0955,-61.4148,5.7651,27,0.068,8624,3.8258,81.8981
lg,1625579811057190336,0,0.3901,-1.0256,1.134,28,-38.147,-70.0073,-16.2354,170,1.3917,1.0955,-63.0533,2.401,27,0.066,8366,3.8258,83.1266
lg,1625579811057207210,0,0.1848,-0.748,0.8142,29,16.0522,-73.4253,-40.4663,170,1.3917,1.0965,-64.4442,3.9689,27,0.066,8504,3.8258,81.5025
lg,1625579811057223863,0,0.2498,-0.3201,0.5605,30,30.3345,-79.3457,-26.6724,170,1.3927,1.0975,-66.2418,5.1937,28,0.066,9370,3.8258,80.9291
lg,1625579811057240200,0,0.7764,-0.2654,0.5479,31,15.4419,-85.3271,3.3569,170,1.3927,1.0985,-69.1741,4.2426,28,0.065,8455,3.8258,82.3142
lg,1625579811057256630,0,1.0603,-0.248,0.5967,32,-2.3804,-34.2407,15.625,170,1.3927,1.0995,-70.2043,1.061,28,0.063,8487,3.8258,85.4301
lg,1625579811427572568,0,0.6165,-0.4421,0.7542,33,-8.667,59.9976,5.127,170,1.3917,1.1015,-66.7906,-2.3465,27,0.066,23387,3.8258,88.4004
lg,1625579811427610299,0,0.4724,-0.5063,0.8491,34,-0.5493,56.3965,3.7842,170,1.3937,1.1015,-63.1572,-4.7192,27,0.065,11342,3.8258,90.5783
lg,1625579811427630916,0,0.3586,-0.5979,0.9268,35,16.9678,42.4805,0.1831,170,1.3947,1.1015,-60.1002,-5.895,27,0.065,7986,3.8258,92.1724
lg,1625579811427650106,0,0.2422,-0.5989,0.958,36,42.6636,15.5029,-5.249,170,1.3947,1.0935,-58.0242,-5.6605,28,0.067,10966,3.8258,93.3202
lg,1625579811427668925,0,0.3457,-0.5061,0.8706,37,59.5093,-20.1416,1.5869,170,1.3957,1.0835,-57.5424,-5.2056,28,0.068,7892,3.8258,95.0351
lg,1625579811427687467,0,0.5757,-0.4585,0.7961,38,62.6221,-45.166,7.6904,170,1.3957,1.0735,-58.4568,-4.9976,28,0.069,7926,3.8258,97.2315
lg,1625579811427705434,0,0.6775,-0.4053,0.7683,39,63.2324,-46.6309,9.2163,184,1.3967,1.0635,-59.5742,-4.7237,28,0.069,7911,3.8258,99.4351
lg,1625579811427722976,0,0.8044,-0.3179,0.7288,40,53.4668,-28.4424,7.4463,184,1.3977,1.0565,-60.1725,-4.3055,27,0.07,7950,3.8258,101.1181
lg,1625579811427741184,0,0.8035,-0.1196,0.6333,41,27.771,-4.6387,3.1128,184,1.3977,1.0515,-59.9868,-3.7624,27,0.069,7992,3.8258,101.678
lg,1625579811427759559,0,0.8174,-0.1562,0.666,42,5.0049,4.1504,2.1973,184,1.3977,1.0525,-58.6498,-5.2179,27,0.069,7981,3.8258,102.4065
lg,1625579811427778045,0,0.6992,-0.3384,0.8191,43,-24.1089,26.7944,-2.8687,184,1.3977,1.0595,-56.8684,-6.7922,27,0.071,8217,3.8258,102.8156
lg,1625579811427796217,0,0.5488,-0.4014,0.8137,44,-45.166,29.3579,-9.2163,184,1.3977,1.0705,-54.8566,-8.9396,27,0.073,8065,3.8258,102.8181
lg,1625579811427813480,0,0.4287,-0.3362,0.6934,45,-52.9785,21.2402,-11.4746,184,1.3977,1.0825,-53.1733,-11.1746,27,0.074,8082,3.8258,102.5699
lg,1625579811427831188,0,0.3342,-0.3662,0.7363,46,-60.9131,17.6392,-9.5825,184,1.3977,1.0945,-51.6397,-14.2842,27,0.069,8171,3.8258,102.6707
lg,1625579811427848711,0,0.2073,-0.5242,0.8271,47,-66.8335,-10.0098,-9.8877,184,1.3967,1.0985,-50.7472,-17.6529,27,0.068,8287,3.8258,103.0422
lg,1625579811427866771,0,0.3254,-0.748,1.0161,48,-52.1851,-43.6401,-5.7373,184,1.3957,1.0995,-51.1792,-21.2478,27,0.07,8240,3.8258,104.438
lg,1625579811427883757,0,0.1553,-0.5564,0.7087,49,35.2173,-65.2466,-40.9546,184,1.3957,1.0995,-52.7474,-20.134,27,0.07,8213,3.8258,104.3023
lg,1625579811427900409,0,0.2681,-0.2612,0.5508,50,30.3955,-84.2896,-24.7803,184,1.3957,1.1005,-55.1203,-19.5406,27,0.069,8191,3.8258,104.9388
lg,1625579811427917043,0,0.5298,-0.2375,0.5894,51,25.0854,-95.7031,-7.3853,184,1.3957,1.1015,-58.167,-20.2268,28,0.068,8223,3.8258,106.9259
lg,1625579811427934177,0,1.0259,-0.2383,0.5542,52,8.3618,-75.1343,11.1694,184,1.3957,1.1015,-60.7996,-22.5913,28,0.068,9306,3.8258,110.0436
lg,1625579811427951218,0,1.0046,-0.5232,0.793,53,-2.5024,-2.3193,3.9673,184,1.3937,1.1025,-60.2729,-23.5963,28,0.069,8959,3.8258,110.9267
lg,1625579811427968427,0,0.6509,-0.5139,0.8311,54,11.1084,45.8374,2.5635,184,1.3947,1.1035,-57.5632,-22.6349,28,0.068,8277,3.8258,110.1579
lg,1625579811427985968,0,0.5557,-0.5098,0.8813,55,16.4795,45.105,0.6714,184,1.3957,1.1045,-55.0267,-21.2635,28,0.068,8301,3.8258,109.5474
lg,1625579811428003176,0,0.5129,-0.4839,0.8762,56,32.8979,33.5083,-0.3052,184,1.3967,1.1035,-52.7355,-19.7615,28,0.068,8277,3.8258,109.1171
lg,1625579811428019828,0,0.429,-0.533,0.8364,57,49.9268,26.001,-6.2866,184,1.3967,1.1015,-50.7666,-17.8073,28,0.068,8365,3.8258,108.8074
lg,1625579811428036258,0,0.3787,-0.4458,0.8269,58,66.9556,8.728,-2.6245,184,1.3977,1.0945,-49.397,-15.5226,27,0.068,8395,3.8258,108.991
lg,1625579811428052577,0,0.4209,-0.4146,0.7778,59,68.5425,-3.7231,1.4648,184,1.3977,1.0815,-48.6926,-13.5965,27,0.068,8438,3.8258,109.676
lg,1625579811428069952,0,0.4973,-0.4006,0.8052,60,67.1997,-20.2637,7.6904,184,1.3987,1.0685,-48.6722,-12.1472,27,0.068,8410,3.8258,110.9279
lg,1625579811428086530,0,0.6265,-0.291,0.761,61,60.6079,-33.7524,11.5967,184,1.3987,1.0585,-49.4593,-10.9945,27,0.069,8448,3.8258,112.3636
lg,1625579811428103738,0,0.9136,0.0156,0.6345,62,24.6582,-43.2739,12.085,184,1.3997,1.0535,-51.2893,-10.5368,28,0.07,8438,3.8258,113.2825
lg,1625579811428121150,0,1.1262,-0.0837,0.6965,63,-6.4697,-36.8652,8.3008,184,1.3987,1.0565,-52.8326,-11.6974,28,0.069,8540,3.8258,114.3768
lg,1625579811428155066,0,1.0925,-0.2246,0.7173,64,-41.9922,28.8696,-6.1035,184,1.3987,1.0665,-51.8587,-12.9428,28,0.071,8538,3.8258,113.7428
lg,1625579811791311962,0,0.0044,-0.5308,0.8962,65,-56.7017,51.6357,-24.9023,184,1.3997,1.0985,-48.402,-14.4965,27,0.07,24514,3.8258,112.2741
lg,1625579811791358381,0,-0.0073,-0.5234,0.9058,66,-42.8467,-26.001,-20.813,184,1.3987,1.1015,-47.9613,-16.492,27,0.068,11077,3.8258,112.1305
lg,1625579811791379498,0,0.4067,-0.7886,0.9163,67,-16.2354,-83.8623,-27.2827,184,1.3987,1.0995,-50.4699,-18.427,27,0.07,8124,3.8258,113.0716
lg,1625579811791399039,0,0.3904,-0.407,0.5813,68,25.6348,-57.1899,-33.5693,184,1.3987,1.1005,-52.2588,-17.6028,27,0.072,12843,3.8258,112.8748
lg,1625579811791417674,0,0.4148,-0.1643,0.5288,69,20.0806,-46.6919,-14.4653,184,1.3977,1.1015,-53.5805,-16.7834,27,0.07,10314,3.8258,112.8657
lg,1625579811791435382,0,0.6436,-0.3047,0.6279,70,-0.6104,-45.8984,5.7373,184,1.3977,1.1015,-54.8149,-18.3212,27,0.071,8109,3.8258,114.5521
lg,1625579811791453498,0,0.7759,-0.438,0.7483,71,-6.6528,-24.9023,10.498,184,1.3987,1.1025,-55.1088,-20.2216,28,0.072,7979,3.8258,116.3142
lg,1625579811791472614,0,0.7449,-0.4805,0.7961,72,-3.9062,-8.2397,9.8267,184,1.3977,1.1035,-54.6426,-21.634,28,0.072,8028,3.8258,117.6261
lg,1625579811791490877,0,0.7019,-0.4792,0.8362,73,9.2163,7.8735,7.6294,184,1.3977,1.1055,-53.5206,-21.9336,28,0.071,8424,3.8258,118.2672
lg,1625579811791510179,0,0.6633,-0.5151,0.8745,74,23.3154,18.0664,0.7324,184,1.3977,1.1055,-52.063,-21.1589,28,0.072,8324,3.8258,118.2514
lg,1625579811791528980,0,0.4382,-0.5547,0.8833,75,32.0435,25.9399,-2.9297,184,1.3987,1.1055,-50.0678,-19.3155,28,0.072,8070,3.8258,117.693
lg,1625579811791547243,0,0.3545,-0.5354,0.897,76,52.3071,21.0571,-7.4463,184,1.3997,1.1035,-48.219,-17.2749,28,0.073,8123,3.8258,117.3876
lg,1625579811791565359,0,0.3984,-0.4155,0.8047,77,64.5142,-11.2305,0.2441,184,1.3997,1.0995,-47.7236,-15.4105,28,0.072,8194,3.8258,118.0181
lg,1625579811791582993,0,0.6028,-0.2927,0.77,78,59.9365,-33.5693,7.6904,184,1.3997,1.0945,-48.4762,-13.9977,27,0.072,8184,3.8258,119.1778
lg,1625579811791600868,0,0.7349,-0.1633,0.6702,79,50.5981,-40.6494,9.6436,184,1.3997,1.0915,-49.8755,-12.8404,27,0.074,8222,3.8258,120.3242
lg,1625579811791618669,0,1.095,0.0115,0.6731,80,5.3101,-37.4756,10.5591,184,1.3997,1.0925,-51.5765,-13.0928,27,0.075,8192,3.8258,121.164
lg,1625579811791637081,0,1.0815,-0.2109,0.7117,81,-41.8091,26.3672,-2.8076,184,1.3997,1.0985,-50.7294,-14.4268,27,0.076,8288,3.8258,120.6805
lg,1625579811791655271,0,0.5352,-0.4097,0.7893,82,-58.7158,68.2983,-1.8921,184,1.4007,1.1055,-46.6789,-16.3672,27,0.077,8364,3.8258,119.4757
lg,1625579811791673386,0,0.3042,-0.3904,0.7646,83,-62.0117,79.3457,-7.6904,184,1.3997,1.1105,-42.7399,-18.1483,27,0.076,8335,3.8258,118.1114
lg,1625579811791690928,0,0.1057,-0.4558,0.8062,84,-62.8662,32.2876,-13.9771,184,1.3977,1.1115,-40.3897,-20.3701,27,0.075,8353,3.8258,117.2007
lg,1625579811791708728,0,0.0146,-0.553,0.8528,85,-51.6968,-16.2354,-11.7188,184,1.3977,1.1085,-39.7405,-22.8792,27,0.074,11094,3.8258,117.3246
lg,1625579811791726566,0,0.2039,-0.6108,0.8071,86,-12.5122,-74.2188,-17.6392,184,1.3977,1.1095,-41.6769,-24.5534,27,0.075,8520,3.8258,118.499
lg,1625579811791744423,0,0.4768,-0.3979,0.6343,87,1.5259,-88.3789,-13.7939,184,1.3977,1.1095,-44.723,-25.7708,27,0.074,8599,3.8258,120.11
lg,1625579811791763390,0,0.7539,-0.3381,0.6067,88,0.8545,-86.0596,-6.0425,184,1.3977,1.1095,-47.6859,-27.4706,27,0.073,8470,3.8258,122.3703
lg,1625579811791780839,0,0.864,-0.3577,0.637,89,-4.8218,-68.6035,5.0049,184,1.3977,1.1095,-50.0508,-29.4293,28,0.073,8502,3.8258,124.6911
lg,1625579811791801548,0,0.8896,-0.5232,0.7573,90,-7.2632,-24.1699,7.6294,184,1.3967,1.1115,-50.4786,-30.8404,28,0.073,8508,3.8258,126.0378
lg,1625579811791820608,0,0.8137,-0.6199,0.8145,91,6.958,10.2539,7.6294,184,1.3987,1.1125,-49.4989,-30.923,28,0.073,8483,3.8258,126.3476
lg,1625579811791838965,0,0.7278,-0.5964,0.8508,92,31.4331,29.6631,3.6011,184,1.3997,1.1135,-47.8364,-29.3337,28,0.074,8880,3.8258,125.7854
lg,1625579811791856877,0,0.5417,-0.625,0.8281,93,56.9458,42.8467,-3.9062,184,1.4007,1.1145,-45.6303,-26.4699,28,0.072,8714,3.8258,124.7205
lg,1625579811791874770,0,0.3655,-0.5708,0.8167,94,81.7871,31.9824,-2.9297,184,1.4017,1.1145,-43.5649,-23.0414,28,0.074,10232,3.8258,124.1674
lg,1625579811791892997,0,0.4539,-0.4324,0.7307,95,90.0269,1.8921,4.8828,184,1.4017,1.1125,-42.827,-19.9711,28,0.075,8657,3.8258,124.6478
lg,1625579811791911539,0,0.6504,-0.2104,0.6189,96,82.5195,-18.4937,10.1318,184,1.4017,1.1095,-43.4618,-17.213,27,0.074,8620,3.8258,125.462
lg,1625579812139255876,0,1.0903,-0.1741,0.7031,97,-14.7705,19.8975,-1.8311,184,1.4017,1.1125,-43.2249,-17.4061,27,0.075,25279,3.8258,124.9651
lg,1625579812139291903,0,0.6431,-0.3154,0.7075,98,-39.3677,79.7729,-8.9111,184,1.4007,1.1165,-40.1702,-18.0664,27,0.075,8821,3.8258,123.3805
lg,1625579812139312408,0,0.1509,-0.4297,0.823,99,-42.6636,78.2471,-15.8691,184,1.4017,1.1185,-36.2667,-18.9662,27,0.076,10677,3.8258,121.634
lg,1625579812139332042,0,-0.1279,-0.4185,0.8291,100,-36.0718,25.1465,-12.6343,184,1.4017,1.1175,-34.0086,-20.1727,27,0.077,8248,3.8258,120.8296
lg,1625579812139350750,0,0.1079,-0.385,0.7915,101,-29.9072,-54.3823,-3.6621,184,1.3997,1.1155,-35.0459,-22.0677,27,0.077,8513,3.8258,121.7519
lg,1625579812139369792,0,0.48,-0.3774,0.77,102,-23.5596,-82.3975,0.7935,184,1.3977,1.1135,-37.8093,-24.1471,27,0.076,9600,3.8258,123.4957
lg,1625579812139387815,0,0.5994,-0.4646,0.7859,103,-6.8359,-67.0166,-4.7607,184,1.3977,1.1135,-40.1233,-25.455,27,0.076,7961,3.8258,124.8902
lg,1625579812139405245,0,0.5891,-0.3887,0.7148,104,2.0142,-55.7251,-4.7607,184,1.3977,1.1135,-41.9865,-26.0885,27,0.076,7991,3.8258,125.9666
lg,1625579812139423490,0,0.5979,-0.385,0.752,105,-2.5635,-47.4854,1.4038,184,1.3977,1.1135,-43.3724,-27.0561,28,0.075,8627,3.8258,127.22
lg,1625579812139440679,0,0.7271,-0.4453,0.7583,106,-0.1221,-44.0674,6.7139,184,1.3967,1.1135,-44.6375,-28.2148,28,0.074,8495,3.8258,128.7868
lg,1625579812139457072,0,0.8545,-0.5037,0.8044,107,9.4604,-22.4609,7.3242,184,1.3967,1.1145,-45.1678,-28.6718,28,0.075,8041,3.8258,129.8653
lg,1625579812139476632,0,0.8452,-0.5559,0.8518,108,15.3198,-1.8311,5.8594,184,1.3977,1.1155,-44.8966,-28.4857,28,0.075,8095,3.8258,130.3379
lg,1625579812139494599,0,0.7007,-0.5637,0.8357,109,36.6211,28.3203,1.1597,184,1.3967,1.1165,-43.4787,-26.8009,28,0.075,8124,3.8258,129.8365
lg,1625579812139512122,0,0.519,-0.5281,0.8525,110,57.0679,34.668,-5.3101,184,1.3987,1.1175,-41.6946,-24.0459,28,0.074,8182,3.8258,128.9416
lg,1625579812139529292,0,0.4888,-0.51,0.822,111,67.4438,32.0435,-2.1973,184,1.4007,1.1185,-40.0365,-21.0858,28,0.076,8201,3.8258,128.3394
lg,1625579812139546333,0,0.5291,-0.4016,0.7671,112,76.7822,17.1509,3.9673,184,1.3997,1.1155,-39.0032,-18.247,28,0.076,8221,3.8258,128.425
lg,1625579812139562634,0,0.5728,-0.3711,0.7725,113,74.4019,10.7422,8.667,184,1.4017,1.1095,-38.289,-15.7582,27,0.077,10695,3.8258,128.8886
lg,1625579812139578860,0,0.6567,-0.2915,0.7234,114,63.6597,7.3853,13.3667,184,1.4027,1.1025,-37.9379,-13.8014,27,0.076,8685,3.8258,129.5945
lg,1625579812139594975,0,0.7029,-0.2468,0.6948,115,47.0581,8.4839,13.6719,184,1.4027,1.0975,-37.7052,-12.4831,27,0.076,8435,3.8258,130.295
lg,1625579812139611145,0,0.6038,-0.2693,0.7363,116,32.5928,15.9912,9.3994,184,1.4027,1.0945,-37.0006,-11.6588,27,0.075,8343,3.8258,130.7714
lg,1625579812139627371,0,0.5476,-0.1934,0.7297,117,23.3154,16.0522,8.7891,184,1.4027,1.0935,-36.2188,-11.0002,27,0.075,8357,3.8258,131.1094
lg,1625579812139643393,0,0.5667,-0.228,0.8394,118,-2.2583,1.77,6.2866,184,1.4027,1.0955,-35.9695,-11.4286,27,0.075,8352,3.8258,131.4982
lg,1625579812139660509,0,0.5801,-0.1792,0.7979,119,-19.3481,-4.6997,2.5635,184,1.4027,1.0995,-36.0971,-12.3458,27,0.077,8740,3.8258,131.6972
lg,1625579812139677290,0,0.6016,-0.1709,0.7268,120,-50.7812,-5.6763,0.6104,184,1.4027,1.1045,-36.4099,-14.4558,28,0.078,8919,3.9259,131.8123
lg,1625579812139693590,0,0.5125,-0.2092,0.6914,121,-75.7446,1.8921,0.1831,184,1.4007,1.1125,-36.2833,-17.5522,28,0.076,10313,3.9259,131.8477
lg,1625579812139709872,0,0.3264,-0.3789,0.8525,122,-88.2568,7.9956,2.4414,184,1.4007,1.1145,-35.4483,-21.7636,28,0.075,8426,3.9259,132.1594
lg,1625579812140559869,0,0.2205,-0.5674,0.9539,123,-96.9238,-10.0708,2.9297,184,1.3987,1.1125,-34.8374,-26.2086,28,0.075,8465,3.9259,132.6932
lg,1625579812140589468,0,0.1709,-1.178,1.2715,124,-40.4663,-51.2085,-26.1841,184,1.3987,1.1115,-36.0585,-28.6007,27,0.076,8524,3.9259,133.1412
lg,1625579812140692344,0,0.0403,-0.4124,0.7361,125,36.8652,-74.2798,-41.0767,184,1.3987,1.1125,-38.1836,-27.1204,27,0.076,8564,3.9259,133.1053
lg,1625579812140713646,0,0.5896,-0.2419,0.637,126,27.71,-119.812,-12.3291,184,1.3977,1.1125,-42.7423,-27.2547,27,0.075,8633,3.9259,135.2616
lg,1625579812140734039,0,0.9277,-0.2607,0.5618,127,17.2729,-114.2578,0.6714,184,1.3987,1.1135,-47.4142,-28.5423,28,0.074,8510,3.9259,138.2141
lg,1625579812140759916,0,1.1997,-0.283,0.6458,128,-0.061,-34.2407,6.6528,184,1.3987,1.1145,-48.94,-29.3955,28,0.073,8537,3.9259,139.4556
lg,1625579812501008808,0,0.5278,-0.4368,0.8118,129,6.958,49.0112,4.2114,184,1.4007,1.1175,-46.4013,-28.1824,28,0.073,25061,3.9259,138.2219
lg,1625579812501052485,0,0.5054,-0.4753,0.8447,130,11.3525,43.8232,6.8359,184,1.4007,1.1175,-43.9915,-27.208,27,0.075,8891,3.9259,137.4465
lg,1625579812501073415,0,0.4402,-0.4824,0.8508,131,23.3154,31.25,0.4883,184,1.4017,1.1165,-42.0197,-25.955,27,0.076,14344,3.9259,136.835
lg,1625579812501092698,0,0.3352,-0.5083,0.8176,132,38.8794,9.3384,-5.127,184,1.4017,1.1125,-40.8921,-24.3989,27,0.075,8174,3.9259,136.5839
lg,1625579812501111221,0,0.3992,-0.4319,0.8044,133,50.354,-18.9819,2.3193,184,1.4027,1.1025,-40.8675,-22.9145,27,0.076,8018,3.9259,137.2303
lg,1625579812501129095,0,0.4883,-0.3662,0.7502,134,50.0488,-29.4189,7.9956,184,1.4017,1.0875,-41.5432,-22.0052,27,0.077,8104,3.9259,138.5694
lg,1625579812501147118,0,0.5923,-0.3909,0.7612,135,43.335,-29.4189,16.0522,184,1.4027,1.0725,-42.1902,-21.5318,27,0.075,8513,3.9259,140.2171
lg,1625579812501179181,0,0.7217,-0.3535,0.7407,136,37.9639,-26.001,20.5078,184,1.4027,1.0585,-42.8104,-21.2225,27,0.075,8087,3.9259,141.8773
lg,1625579812501201594,0,0.7722,-0.2656,0.7305,137,24.9023,-9.7046,18.9819,184,1.4037,1.0465,-42.9648,-20.9646,27,0.075,8084,3.9259,143.0002
lg,1625579812501220043,0,0.844,-0.2295,0.7285,138,-7.1411,2.7466,17.7612,184,1.4037,1.0395,-42.7887,-21.6947,27,0.076,9652,3.9259,143.7598
lg,1625579812501237621,0,0.7607,-0.3291,0.7781,139,-20.0806,9.2773,12.146,184,1.4007,1.0395,-41.6657,-22.7539,27,0.076,8126,3.9259,143.7337
lg,1625579812501254958,0,0.6411,-0.3113,0.7883,140,-34.8511,36.9263,7.3242,184,1.4017,1.0485,-39.9439,-24.1034,27,0.078,9336,3.9259,143.1222
lg,1625579812501271870,0,0.4509,-0.406,0.7788,141,-48.8892,29.1748,-0.3052,184,1.4027,1.0625,-38.3886,-25.7823,27,0.078,8185,3.9259,142.5558
lg,1625579812501288948,0,0.2488,-0.3716,0.7212,142,-51.0254,21.9116,3.1738,184,1.4007,1.0765,-36.7207,-27.6514,27,0.076,8165,3.9259,142.2216
lg,1625579812501309860,0,0.0305,-0.3894,0.7639,143,-58.5938,-6.8359,10.437,184,1.4007,1.0895,-35.4611,-30.2889,27,0.075,8223,3.9259,142.7787
lg,1625579812501327475,0,0.074,-0.4624,0.8418,144,-60.4858,-36.1938,14.4043,184,1.4017,1.0985,-35.205,-33.485,28,0.077,8474,3.9259,144.2335
lg,1625579812501347239,0,0.3496,-0.9021,0.9939,145,-3.6011,-105.957,-17.9443,184,1.4007,1.1015,-38.2866,-35.3758,28,0.078,8311,3.9259,146.7214
lg,1625579812501366911,0,0.6235,-0.5798,0.7129,146,33.0811,-101.1353,-26.9775,184,1.4007,1.1035,-42.0104,-35.4447,28,0.078,8261,3.9259,148.7474
lg,1625579812501384304,0,0.8438,-0.3809,0.6101,147,44.1895,-95.0928,-26.4893,184,1.4007,1.1035,-45.4302,-34.5878,28,0.077,8351,3.9259,150.0698
lg,1625579812501402308,0,0.9233,-0.2664,0.5376,148,39.978,-51.2695,-20.1416,184,1.4007,1.1035,-48.0133,-33.2242,27,0.079,8503,3.9259,150.571
lg,1625579812501419997,0,0.8823,-0.199,0.5544,149,23.2544,16.9678,-12.6953,184,1.3997,1.1055,-48.0463,-30.955,27,0.078,8401,3.9259,149.032
lg,1625579812501445540,0,0.7112,-0.3271,0.6597,150,11.2305,63.1714,-5.3101,184,1.4007,1.1055,-45.8087,-28.761,27,0.078,8407,3.9259,146.7572
lg,1625579812501473269,0,0.5322,-0.3818,0.7415,151,8.1177,74.2798,-2.4414,99,1.4007,1.1065,-42.4584,-26.8747,28,0.078,8378,3.9259,144.5573
lg,1625579812501493200,0,0.4275,-0.4238,0.8188,152,8.606,81.543,1.3428,99,1.4007,1.1075,-38.8325,-25.3606,28,0.078,8409,3.9259,142.7396
lg,1625579812501511204,0,0.3672,-0.4429,0.8633,153,20.2026,58.0444,4.2725,99,1.4017,1.1085,-35.9525,-24.0147,28,0.078,8385,3.9259,141.767
lg,1625579812501528226,0,0.3767,-0.4724,0.8757,154,33.9966,26.7334,-0.2441,99,1.4017,1.1095,-34.3803,-22.5499,28,0.079,8440,3.9259,141.3581
lg,1625579812501545286,0,0.3474,-0.5283,0.856,155,42.6636,12.207,-3.0518,99,1.4027,1.1095,-33.7853,-20.8854,28,0.078,8467,3.9259,141.5117
lg,1625579812501570051,0,0.4099,-0.4678,0.8184,156,57.5562,-12.146,0.9155,99,1.4027,1.1085,-33.8299,-19.1107,28,0.078,8466,3.9259,141.9752
lg,1625579812501589093,0,0.6042,-0.3542,0.7698,157,57.4951,-27.5269,6.5308,99,1.4037,1.1095,-34.8506,-17.4377,28,0.077,9252,3.9259,142.8146
lg,1625579812501606745,0,0.7659,-0.2747,0.7747,158,47.9736,-24.9634,8.1787,99,1.4037,1.1075,-36.0193,-16.0202,28,0.077,10430,3.9259,143.5889
lg,1625579812501636141,0,0.918,-0.1311,0.7371,159,22.8271,-9.7046,6.4087,99,1.4027,1.1095,-36.8942,-15.178,28,0.079,8571,3.9259,143.9088
lg,1625579812501662443,0,0.9028,-0.2966,0.7712,160,-10.5591,27.2827,-0.6104,99,1.4037,1.1125,-36.2665,-15.5572,28,0.08,8601,3.9259,143.6338
lg,1625579812875572334,0,0.3213,-0.3416,0.7537,161,-45.6543,65.8569,-9.0332,99,1.4047,1.1135,-33.268,-17.007,27,0.081,24565,3.9259,142.5321
lg,1625579812875612658,0,0.1445,-0.4768,0.8279,162,-51.2695,15.5029,-1.5259,99,1.4017,1.1085,-31.7742,-19.4665,27,0.081,13472,3.9259,142.5358
lg,1625579812875632941,0,0.1934,-0.7834,1.0281,163,-17.8223,-30.0293,-16.1133,99,1.4007,1.1055,-32.268,-20.8563,27,0.079,10500,3.9259,142.7292
lg,1625579812875652557,0,0.1479,-0.4683,0.7607,164,24.353,-51.3306,-25.3296,99,1.4007,1.1055,-33.6687,-20.2336,28,0.079,7977,3.9259,142.7327
lg,1625579812875671209,0,0.5134,-0.2407,0.6504,165,31.0059,-82.3975,-5.5542,99,1.4007,1.1065,-36.9276,-19.6429,28,0.079,9585,3.9259,143.8581
lg,1625579812875689658,0,0.769,-0.1904,0.5955,166,22.0337,-82.3364,2.5635,99,1.4007,1.1065,-40.5112,-19.6646,28,0.079,7910,3.9259,145.3688
lg,1625579812875707625,0,1.0825,-0.272,0.6948,167,3.1738,-32.7759,6.4087,99,1.4007,1.1075,-42.2198,-20.1919,27,0.079,8331,3.9259,146.3227
lg,1625579812875725815,0,0.8376,-0.4131,0.7854,168,1.2817,43.7012,2.3193,99,1.3997,1.1085,-40.5995,-19.9699,27,0.079,8164,3.9259,145.8249
lg,1625579812875744004,0,0.5615,-0.4929,0.9336,169,5.127,61.7065,-0.1831,99,1.4007,1.1095,-37.5853,-19.0502,27,0.08,7976,3.9259,144.718
lg,1625579812875761268,0,0.4717,-0.572,0.9746,170,21.7896,65.3687,-7.4463,99,1.4017,1.1105,-34.6482,-17.8796,27,0.082,7973,3.9259,143.6556
lg,1625579812875778512,0,0.2117,-0.6531,0.9961,171,54.0161,48.8281,-19.165,99,1.4017,1.1115,-32.1106,-15.5885,27,0.08,7999,3.9259,142.5255
lg,1625579812875795553,0,0.2454,-0.4707,0.8816,172,69.1528,31.311,-15.9302,99,1.4027,1.1115,-31.246,-12.7579,27,0.078,8023,3.9259,142.2641
lg,1625579812875812131,0,0.335,-0.4141,0.8203,173,79.0405,-14.2822,-7.019,99,1.4027,1.1075,-31.4493,-10.117,27,0.077,8056,3.9259,142.401
lg,1625579812875828783,0,0.5549,-0.3401,0.7695,174,75.1953,-31.8604,2.1973,99,1.4047,1.1035,-32.7896,-7.8269,27,0.077,9383,3.9259,143.015
lg,1625579812875847140,0,0.7561,-0.2688,0.7366,175,63.7207,-30.2124,6.4087,99,1.4037,1.0975,-34.4055,-5.9625,28,0.077,9844,3.9259,143.7129
lg,1625579812875864533,0,0.8208,-0.0979,0.7029,176,43.396,-8.3618,1.4038,99,1.4037,1.0945,-35.3002,-4.3485,28,0.077,8211,3.9259,143.8424
lg,1625579812875881259,0,0.8662,-0.0305,0.7815,177,23.0713,2.8687,0,99,1.4047,1.0965,-35.317,-4.404,28,0.077,8156,3.9259,143.7452
lg,1625579812875898022,0,0.8413,-0.1414,0.7898,178,-26.6113,22.583,-6.2866,99,1.4037,1.0995,-34.8708,-5.4264,28,0.078,8100,3.9259,143.4591
lg,1625579812875915026,0,0.5815,-0.1716,0.7363,179,-54.9927,52.4902,-8.9111,99,1.4047,1.1055,-32.9391,-7.5093,28,0.079,8229,3.9259,142.9144
lg,1625579812875931363,0,0.3042,-0.1487,0.7002,180,-81.7261,56.4575,-2.1973,99,1.4047,1.1135,-30.3376,-10.6734,28,0.077,12292,3.9259,142.4823
lg,1625579812875947886,0,0.03,-0.3328,0.8804,181,-97.9614,30.8838,1.5259,99,1.4037,1.1145,-28.0484,-14.8834,28,0.078,8237,3.9259,142.4205
lg,1625579812875964927,0,-0.0806,-0.6025,1.0391,182,-88.6841,-26.062,6.8359,99,1.4027,1.1135,-27.7841,-19.3618,28,0.078,8147,3.9259,143.331
lg,1625579812875981986,0,0.0544,-0.8059,1.2217,183,-67.3828,-58.7769,3.9673,99,1.4017,1.1125,-28.8346,-23.3184,28,0.077,8326,3.9259,144.7867
lg,1625579812875998842,0,0.1016,-0.4114,0.8286,184,9.7046,-110.0464,-14.9536,99,1.4017,1.1135,-32.2106,-23.7784,28,0.077,9651,3.9259,146.2627
lg,1625579812876015550,0,0.5027,-0.3547,0.751,185,5.249,-139.7705,1.6479,99,1.4017,1.1135,-37.1882,-25.2738,28,0.077,9146,3.9259,149.1993
lg,1625579812876032109,0,1.0918,-0.2876,0.6375,186,-1.709,-131.5918,17.8833,99,1.4007,1.1135,-42.3149,-27.8138,28,0.078,8529,3.9259,153.1075
lg,1625579812876048595,0,1.2834,-0.4915,0.7993,187,-10.1318,-39.3066,11.8408,99,1.3997,1.1135,-43.8995,-29.4314,28,0.077,8449,3.9259,154.8008
lg,1625579812876064839,0,1.0786,-0.5149,0.8257,188,-3.6011,14.0991,6.2256,99,1.4007,1.1155,-42.1116,-28.681,28,0.078,8484,3.9259,153.8215
lg,1625579812876081436,0,0.7322,-0.457,0.8188,189,8.4229,61.5234,2.0142,99,1.4017,1.1155,-39.7431,-27.4139,28,0.079,8512,3.9259,152.3842
lg,1625579812876097902,0,0.491,-0.5066,0.8691,190,16.8457,77.5757,2.9297,99,1.4027,1.1165,-36.3897,-25.8583,28,0.079,8442,3.9259,150.8273
lg,1625579812876114240,0,0.2412,-0.5688,0.8394,191,35.0342,67.3218,1.8311,99,1.4037,1.1175,-33.0546,-24.1076,28,0.08,8516,3.9259,149.7619
lg,1625579812876144247,0,0.2024,-0.4697,0.824,192,46.2036,46.6919,3.2349,99,1.4037,1.1155,-31.4285,-22.294,28,0.08,8496,3.9259,149.913
lg,1625579813232371093,0,0.6082,-0.3606,0.7173,193,52.1851,-41.9922,18.4937,99,1.4057,1.1045,-32.9269,-21.1947,28,0.077,25594,3.9259,151.5438
lg,1625579813232410602,0,0.7725,-0.1858,0.6421,194,34.4849,-39.1846,15.5029,99,1.4027,1.1005,-34.79,-20.4168,28,0.078,9713,3.9259,152.8205
lg,1625579813232431570,0,0.8215,-0.2349,0.7114,195,-0.4272,-17.7612,9.3994,99,1.4057,1.1005,-35.0068,-20.9829,27,0.078,11821,3.9259,153.0971
lg,1625579813232450759,0,0.5449,-0.1797,0.7043,196,-29.6631,4.0283,0.1221,99,1.4057,1.1055,-34.9278,-21.8626,27,0.08,10647,3.9259,152.8778
lg,1625579813232468911,0,0.5166,-0.2361,0.8013,197,-45.2271,-2.3193,-2.1362,99,1.4057,1.1105,-34.9169,-23.4029,27,0.08,7854,3.9259,152.69
lg,1625579813232487304,0,0.4507,-0.2019,0.6597,198,-64.4531,-9.3994,-2.6855,99,1.4057,1.1155,-35.2319,-25.7456,27,0.081,7965,3.9259,152.6074
lg,1625579813232505308,0,0.4026,-0.3245,0.8093,199,-77.1484,-5.9814,2.1362,99,1.4047,1.1175,-35.1263,-29.1197,27,0.081,7926,3.9259,152.8009
lg,1625579813232523331,0,0.3347,-0.4395,0.8743,200,-84.1675,-16.6626,-1.1597,99,1.4027,1.1155,-35.0793,-32.552,27,0.082,7984,3.9259,153.0787
lg,1625579813232541464,0,0.0647,-0.7144,0.9255,201,-7.5684,-55.2368,-30.3345,99,1.4017,1.1135,-36.3793,-33.2193,27,0.081,12714,3.9259,153.4406
lg,1625579813232558894,0,0.0964,-0.4692,0.7756,202,12.2681,-72.7539,-29.1748,99,1.4007,1.1135,-39.2778,-33.6218,28,0.081,8639,3.9259,155.0061
lg,1625579813232577546,0,0.4915,-0.3247,0.6499,203,12.6953,-112.854,-13.4277,99,1.4017,1.1135,-43.0808,-34.6253,28,0.08,8012,3.9259,157.5926
lg,1625579813232595384,0,0.9714,-0.3574,0.6096,204,1.709,-91.8579,4.0894,99,1.4007,1.1145,-46.365,-36.6723,28,0.079,8100,3.9259,160.7204
lg,1625579813232612073,0,1.0369,-0.4155,0.6724,205,-0.3662,-60.3027,5.127,99,1.4007,1.1145,-47.1089,-37.1631,28,0.079,8067,3.9259,161.3704
lg,1625579813232629132,0,0.8188,-0.5168,0.7578,206,-1.5259,19.7754,0.4272,99,1.4017,1.1155,-46.2497,-36.5972,27,0.078,8129,3.9259,160.593
lg,1625579813232645543,0,0.5344,-0.5266,0.7539,207,13.3667,37.2314,-1.3428,99,1.4007,1.1175,-44.4451,-35.0504,27,0.079,8676,3.9259,159.2256
lg,1625579813232662195,0,0.6135,-0.4636,0.7881,208,24.231,28.8696,2.5024,99,1.4007,1.1165,-43.017,-33.3269,27,0.078,8689,3.9259,158.2889
lg,1625579813232678995,0,0.595,-0.5046,0.8369,209,30.0293,31.189,1.5259,99,1.4017,1.1175,-41.2124,-31.0295,27,0.079,8142,3.9259,157.2007
lg,1625579813232695313,0,0.3618,-0.6084,0.8518,210,51.0864,32.8979,-7.8125,99,1.4037,1.1175,-39.3754,-28.4376,27,0.079,8174,3.9259,156.1508
lg,1625579813232712243,0,0.262,-0.4929,0.8171,211,71.8994,-1.1597,-2.5635,99,1.4037,1.1125,-38.7004,-25.6024,27,0.08,10206,3.9259,156.1307
lg,1625579813232728672,0,0.4575,-0.4309,0.7307,212,73.7305,-51.5747,6.3477,99,1.4037,1.1045,-40.0452,-23.7822,27,0.079,8221,3.9259,157.6944
lg,1625579813232745269,0,0.7549,-0.3081,0.6965,213,68.2983,-67.749,13.2446,99,1.4037,1.0965,-42.4873,-22.4177,28,0.078,8281,3.9259,159.7606
lg,1625579813232762532,0,0.9993,-0.0771,0.5554,214,57.8003,-64.1479,15.0146,99,1.4037,1.0895,-44.8989,-21.7929,28,0.08,8276,3.9259,161.3582
lg,1625579813232779202,0,1.0637,-0.0864,0.6123,215,15.0146,-31.7383,12.3901,99,1.4037,1.0865,-46.4788,-21.7541,28,0.08,8342,3.9259,162.4152
lg,1625579813232796206,0,0.928,-0.2307,0.7578,216,-14.2212,14.2212,1.3428,99,1.4047,1.0905,-46.0457,-21.9632,28,0.081,8351,3.9259,162.0414
lg,1625579813232812635,0,0.6492,-0.3376,0.7349,217,-43.5791,40.5273,-2.6245,99,1.4037,1.0985,-44.3006,-23.0826,27,0.082,8338,3.9259,161.0924
lg,1625579813232828954,0,0.5254,-0.3899,0.7886,218,-49.6216,42.7856,-4.3335,99,1.4037,1.1075,-42.2988,-24.2419,27,0.081,8378,3.9259,160.0356
lg,1625579813232845309,0,0.3069,-0.2844,0.7383,219,-48.584,32.4707,-5.6152,99,1.4027,1.1115,-40.4001,-25.3461,27,0.082,8408,3.9259,158.9114
lg,1625579813232861757,0,0.116,-0.4165,0.8372,220,-54.8096,1.5259,-5.9204,99,1.4027,1.1145,-39.1973,-27.3608,27,0.082,8440,3.9259,158.6032
lg,1625579813232878465,0,0.1665,-0.6685,1.0278,221,-41.0767,-46.814,-3.1738,99,1.4027,1.1135,-39.7043,-29.9041,27,0.083,8429,3.9259,159.773
lg,1625579813232895654,0,0.1086,-0.7188,0.9192,222,-9.1553,-77.0264,-18.0054,99,1.4017,1.1135,-42.4412,-30.386,27,0.083,8498,3.9259,161.559
lg,1625579813232912120,0,0.377,-0.4004,0.6653,223,18.3716,-105.3467,-15.1367,99,1.4017,1.1135,-45.6844,-31.262,27,0.082,8737,3.9259,163.8679
lg,1625579813232947813,0,0.803,-0.2991,0.5859,224,14.2212,-106.3843,-1.2817,99,1.4017,1.1145,-49.4706,-32.9651,27,0.081,8558,3.9259,167.0648
lg,1625579813598043672,0,0.8909,-0.4746,0.7493,225,3.7842,6.4697,4.9438,99,1.4037,1.1165,-48.2251,-32.1529,27,0.082,24551,3.9259,166.4669
lg,1625579813598082533,0,0.7712,-0.5312,0.8179,226,14.9536,33.3862,2.6245,99,1.4037,1.1185,-46.6415,-30.9241,28,0.083,8950,3.9259,165.5853
lg,1625579813598102908,0,0.5774,-0.6177,0.8872,227,34.729,50.5371,-0.9155,99,1.4047,1.1185,-44.1191,-28.0335,28,0.082,11018,3.9259,164.0369
lg,1625579813598122782,0,0.3574,-0.5452,0.8369,228,70.1294,44.7388,-11.2915,99,1.4047,1.1175,-41.7877,-24.4014,28,0.083,12460,3.9259,162.6112
lg,1625579813598142176,0,0.3579,-0.3977,0.7336,229,80.0171,9.1553,-1.6479,99,1.4057,1.1145,-40.7522,-21.2432,28,0.081,7934,3.9523,162.4944
lg,1625579813598160717,0,0.467,-0.3142,0.7097,230,76.7212,-9.8877,3.6011,99,1.4057,1.1095,-40.6821,-18.5396,28,0.082,7886,3.9523,162.9377
lg,1625579813598178295,0,0.7935,-0.0332,0.6067,231,52.3071,-40.3442,9.7046,99,1.4047,1.1055,-42.5751,-16.7171,28,0.083,7892,3.9523,163.754
lg,1625579813598196410,0,1.2305,-0.054,0.637,232,24.7192,-45.5322,10.5591,99,1.4057,1.1075,-44.372,-17.1262,28,0.083,8044,3.9523,164.2559
lg,1625579813598214895,0,1.1621,-0.2354,0.7561,233,-26.9165,10.8643,-1.77,99,1.4047,1.1125,-44.4151,-18.0053,28,0.083,8207,3.9523,163.9801
lg,1625579813598233362,0,0.7014,-0.2354,0.6582,234,-45.2271,72.3267,-7.2021,99,1.4047,1.1195,-41.7942,-18.7521,27,0.085,8032,3.9523,162.3876
lg,1625579813598256367,0,0.2471,-0.3276,0.7642,235,-62.6831,70.5566,-16.9067,99,1.4037,1.1215,-38.4028,-20.1241,27,0.084,8020,3.9523,160.4476
lg,1625579813598394731,0,0.0132,-0.4463,0.8372,236,-61.9507,59.082,-18.7988,99,1.4037,1.1205,-35.0993,-21.8057,27,0.083,8054,3.9523,158.7274
lg,1625579813598415866,0,-0.2825,-0.769,0.9783,237,-9.9487,-11.4746,-42.4194,99,1.4027,1.1205,-34.5203,-21.9787,27,0.083,8067,3.9523,157.454
lg,1625579813598435815,0,-0.0125,-0.3872,0.7163,238,16.9067,-95.7642,-31.311,99,1.4037,1.1195,-37.2098,-21.8063,28,0.082,8186,3.9523,157.9697
lg,1625579813598455023,0,0.3352,-0.1733,0.5808,239,23.8647,-128.418,-19.165,99,1.4027,1.1195,-42.7664,-21.7122,28,0.08,8107,3.9523,159.4494
lg,1625579813598474193,0,1.02,-0.26,0.5864,240,-0.8545,-130.3711,2.0142,99,1.4027,1.1195,-48.0776,-23.9501,28,0.08,8100,3.9523,162.5143
lg,1625579813598492142,0,1.1582,-0.3528,0.6609,241,-9.9487,-44.9829,0.4272,99,1.4037,1.1205,-50.0339,-25.3642,28,0.081,8181,3.9523,163.7961
lg,1625579813598509738,0,0.915,-0.4133,0.7659,242,-12.6953,1.5259,-2.5635,99,1.4037,1.1205,-48.8036,-25.5466,28,0.081,8204,3.9523,163.236
lg,1625579813598529409,0,0.5999,-0.5461,0.8064,243,-5.6152,19.043,-4.4556,99,1.4037,1.1205,-47.534,-25.644,28,0.08,8239,3.9523,162.8171
lg,1625579813598548488,0,0.6621,-0.4763,0.7371,244,7.8735,7.8735,-0.061,99,1.4037,1.1205,-46.8382,-25.5085,28,0.081,8247,3.9523,162.8564
lg,1625579813598566121,0,0.7412,-0.417,0.6599,245,11.7188,16.8457,3.7842,99,1.4037,1.1215,-46.0337,-25.1559,28,0.081,8208,3.9523,162.8356
lg,1625579813598584033,0,0.7612,-0.384,0.6499,246,12.6953,24.7803,2.9907,99,1.4047,1.1215,-45.0524,-24.5429,28,0.081,8529,3.9523,162.5424
lg,1625579813598601166,0,0.6709,-0.5115,0.7844,247,21.6675,52.6123,-2.4414,99,1.4057,1.1215,-42.8145,-23.15,28,0.081,11762,3.9523,161.5014
lg,1625579813598619022,0,0.4172,-0.5981,0.814,248,52.2461,58.6548,-11.6577,99,1.4057,1.1235,-40.0703,-20.56,28,0.081,11135,3.9523,160.207
lg,1625579813598638304,0,0.2605,-0.5347,0.812,249,81.604,37.5366,-12.8174,99,1.4057,1.1245,-37.9001,-17.1647,28,0.078,8342,3.9523,159.3925
lg,1625579813598657197,0,0.2617,-0.4407,0.7573,250,91.1865,17.2119,-8.667,99,1.4067,1.1245,-36.7963,-13.5572,28,0.077,8379,3.9523,159.0141
lg,1625579813598675219,0,0.4653,-0.3511,0.7334,251,88.8062,-25.2686,-1.4648,99,1.4067,1.1245,-37.5364,-10.654,28,0.077,8460,3.9523,159.5272
lg,1625579813598693779,0,0.7207,-0.1704,0.6243,252,79.834,-39.978,5.249,99,1.4067,1.1235,-39.4786,-7.9909,28,0.077,8407,3.9523,160.2067
lg,1625579813598711098,0,0.9006,-0.1213,0.6321,253,53.2227,-25.4517,5.3101,99,1.4067,1.1225,-41.0322,-6.2338,28,0.076,9132,3.9523,160.692
lg,1625579813598727824,0,0.8083,-0.2234,0.6851,254,42.9077,-7.5684,1.2817,99,1.4057,1.1215,-40.7662,-5.1428,28,0.076,8699,3.9523,160.7958
lg,1625579813598747513,0,0.6821,-0.2837,0.7322,255,31.311,29.6631,-4.0283,99,1.4067,1.1225,-39.6466,-4.2959,28,0.077,8506,3.9523,160.8643
lg,1625579813598765999,0,0.4509,-0.3335,0.8032,256,30.5176,31.4331,-7.4463,99,1.4047,1.1235,-37.9966,-3.5821,28,0.077,8539,3.9523,160.8952
lg,1625579813953131448,0,0.5193,-0.1982,0.7234,257,27.1606,-12.5122,-8.606,99,1.4087,1.1276,-38.6532,-2.893,28,0.078,24710,3.9523,160.7604
lg,1625579813953194221,0,0.6328,-0.1875,0.7708,258,15.9912,-17.334,-9.9487,99,1.4087,1.1286,-39.4355,-2.5561,28,0.078,9725,3.9523,160.4995
lg,1625579813953226080,0,0.7339,-0.1929,0.7556,259,5.3101,-10.7422,-13.1836,99,1.4077,1.1286,-40.0473,-2.3592,28,0.079,8237,3.9523,160.1177
lg,1625579813953255087,0,0.6992,-0.2703,0.762,260,-1.8921,18.0664,-25.3906,99,1.4077,1.1286,-39.4402,-2.2248,28,0.08,13467,3.9523,159.1855
lg,1625579813953283260,0,0.6006,-0.2747,0.7615,261,-0.9766,29.8462,-27.8931,92,1.4077,1.1266,-37.5953,-1.9885,28,0.08,7931,3.9523,158.1341
lg,1625579813953310488,0,0.3408,-0.3074,0.8118,262,3.9673,42.6636,-26.7334,92,1.4077,1.1255,-35.363,-1.8425,28,0.08,7920,3.9523,157.253
lg,1625579813953337753,0,0.1736,-0.2866,0.8542,263,9.3994,23.1934,-17.2729,92,1.4077,1.1245,-33.5697,-1.7514,28,0.08,7920,3.9523,156.8341
lg,1625579813953365593,0,0.2029,-0.2834,0.8215,264,8.667,-0.6714,-11.1084,92,1.4077,1.1235,-33.1287,-1.9355,28,0.081,8000,3.9523,156.761
lg,1625579813953393080,0,0.5305,-0.3743,0.8513,265,17.0288,-46.5698,-2.0142,92,1.4067,1.1215,-34.9159,-2.1307,28,0.082,11852,3.9523,157.2315
lg,1625579813955182161,0,0.6565,-0.3542,0.8184,266,23.0713,-49.3774,-1.0376,92,1.4047,1.1195,-37.0845,-1.8374,28,0.081,8658,3.9523,157.6941
lg,1625579813955218447,0,0.7424,-0.3577,0.822,267,31.7383,-51.5137,-4.7607,92,1.4047,1.1175,-39.3046,-1.2885,28,0.081,8085,3.9523,158.0228
lg,1625579813955248546,0,0.7932,-0.3267,0.804,268,43.5791,-40.9546,-13.1836,92,1.4057,1.1175,-41.2302,0.3265,27,0.082,8153,3.9523,157.701
lg,1625579813955277108,0,0.8376,-0.1399,0.7129,269,40.4053,-28.8696,-21.5454,92,1.4037,1.1165,-42.6773,2.3433,27,0.081,8590,3.9523,156.7598
lg,1625579813955306077,0,0.8069,-0.0938,0.615,270,18.3105,-9.3384,-27.1606,92,1.4027,1.1155,-43.3786,3.7463,27,0.083,8171,3.9523,155.4864
lg,1625579813955338658,0,0.7388,-0.0923,0.644,271,-6.8359,12.5122,-21.6064,92,1.3997,1.1145,-43.0422,3.8287,27,0.082,8398,3.9523,154.6409
lg,1625579813955367109,0,0.6985,-0.1626,0.6653,272,-16.2354,21.4233,-16.6626,92,1.3967,1.1125,-42.2877,3.0942,27,0.081,8246,3.9523,154.2565
lg,1625579813955394004,0,0.5483,-0.2556,0.7756,273,-22.4609,45.2271,-3.6011,92,1.3917,1.1125,-40.2231,1.3551,27,0.081,8303,3.9523,154.7741
lg,1625579813955421510,0,0.2759,-0.4819,0.9021,274,4.3945,52.9785,-9.8267,92,1.3897,1.1105,-37.3165,0.44,27,0.082,8507,3.9523,155.207
lg,1625579813955449739,0,0.1016,-0.2161,0.8052,275,29.1748,23.6206,-0.5493,92,1.3897,1.1115,-35.2744,0.8623,27,0.083,8273,3.9523,155.6546
lg,1625579813955477930,0,0.3608,-0.271,0.8491,276,26.062,-37.4146,18.3105,92,1.3897,1.1115,-36.3071,0.5605,27,0.082,8256,3.9523,157.0162
lg,1625579813955522014,0,0.5383,-0.1804,0.76,277,28.0762,-55.1758,24.9634,92,1.3907,1.1125,-38.4634,0.3625,27,0.081,8287,3.9523,158.5911
lg,1625579813955551002,0,0.7285,-0.1665,0.7937,278,20.6299,-52.7344,33.2031,92,1.3917,1.1135,-40.709,-0.3808,27,0.081,8360,3.9523,160.6114
lg,1625579813955579656,0,0.8621,-0.1328,0.7629,279,18.0664,-39.4287,36.8652,92,1.3927,1.1135,-42.5449,-1.3319,27,0.08,8405,3.9523,162.8447
lg,1625579813955611849,0,0.9231,-0.1619,0.8491,280,13.6108,-26.9165,35.8887,92,1.3927,1.1145,-43.0144,-2.5705,28,0.08,8444,3.9523,164.9476
lg,1625579813955638892,0,0.9136,-0.23,0.9546,281,8.1787,8.5449,30.0293,92,1.3937,1.1155,-42.6119,-3.7711,28,0.081,8451,3.9523,166.8583
lg,1625579813955665712,0,0.8113,-0.4358,1.0476,282,18.0664,35.2783,19.8364,92,1.3947,1.1175,-40.9307,-4.466,28,0.082,8485,3.9523,168.3295
lg,1625579813955693126,0,0.5774,-0.4341,1.0459,283,39.0625,50.9644,7.4463,92,1.3977,1.1185,-38.4004,-3.8498,27,0.083,8590,3.9523,169.0648
lg,1625579813955721891,0,0.4016,-0.3662,0.9949,284,52.4902,44.9219,8.728,92,1.3967,1.1175,-35.9568,-2.7005,27,0.084,10274,3.9523,169.8521
lg,1625579813955749120,0,0.4087,-0.2842,0.8936,285,57.7393,19.165,14.7095,92,1.3977,1.1175,-34.722,-1.4586,27,0.086,8582,3.9523,170.9355
lg,1625579813955786869,0,0.4343,-0.1985,0.823,286,57.312,4.2114,16.4795,92,1.3987,1.1185,-35.1263,-0.1069,27,0.085,8599,3.9523,-188.1635
lg,1625579813955821969,0,0.6392,0.0249,0.7458,287,32.1655,-19.6533,19.104,92,1.3987,1.1155,-36.1179,0.705,27,0.085,8527,3.9523,-187.2722
lg,1625579813955851253,0,0.7349,-0.0486,0.7646,288,-9.3994,-9.4604,19.2871,92,1.3997,1.1175,-36.7915,-0.3958,27,0.086,8589,3.9523,-186.217
lg,1625579814333119249,0,0.4194,-0.2334,0.8828,289,-49.2554,-10.8643,20.874,92,1.3987,1.1215,-37.3055,-3.6534,27,0.087,24649,3.9523,-184.8148
lg,1625579814333149533,0,0.4253,-0.3984,0.9805,290,-51.0254,-34.9731,16.9067,92,1.4007,1.1245,-38.1624,-6.9449,27,0.087,9594,3.9523,-183.3902
lg,1625579814333169500,0,0.3108,-0.5925,1.0493,291,-12.9395,-49.4385,-1.8921,92,1.4007,1.1245,-39.5532,-8.3614,27,0.087,13648,3.9523,-182.6841
lg,1625579814333188541,0,0.499,-0.3555,0.7871,292,11.2915,-70.4346,-2.4414,92,1.4007,1.1245,-41.9971,-8.9021,27,0.086,8018,3.9523,-181.795
lg,1625579814333206989,0,0.7048,-0.2222,0.6663,293,15.8691,-63.5986,2.1973,92,1.4007,1.1245,-44.6042,-9.0896,27,0.085,7913,3.9523,-180.88
lg,1625579814333224567,0,0.7759,-0.26,0.6533,294,11.7798,-47.6074,6.8359,92,1.4007,1.1245,-46.5626,-9.6419,27,0.086,7956,3.9523,-179.7424
lg,1625579814333241700,0,0.7654,-0.2266,0.6582,295,7.019,-14.2212,11.7188,92,1.4007,1.1245,-47.0831,-10.3212,27,0.084,7977,3.9523,-178.6554
lg,1625579814333258685,0,0.6672,-0.2825,0.728,296,1.0376,1.8921,9.3994,92,1.3997,1.1245,-46.688,-11.1323,27,0.085,9698,3.9523,-177.7856
lg,1625579814333275578,0,0.5793,-0.3831,0.7544,297,3.1738,3.9062,7.8125,92,1.3997,1.1245,-46.0272,-12.0268,27,0.084,8016,3.9523,-176.8505
lg,1625579814333292211,0,0.5693,-0.3677,0.7554,298,6.2256,3.54,8.7891,92,1.3997,1.1245,-45.3729,-12.7419,27,0.084,8121,3.9523,-175.9366
lg,1625579814333308751,0,0.5122,-0.3513,0.7644,299,12.5732,-1.5869,10.9863,92,1.3987,1.1245,-44.8032,-13.2478,27,0.085,8082,3.9523,-174.9055
lg,1625579814333325292,0,0.4966,-0.3899,0.7937,300,21.5454,-11.1084,12.6953,92,1.3997,1.1245,-44.5327,-13.5978,27,0.085,8226,3.9523,-173.625
lg,1625579814333342258,0,0.478,-0.3938,0.8008,301,34.1187,-26.001,14.2212,92,1.3997,1.1245,-44.7872,-13.6383,27,0.085,10821,3.9523,-172.0671
lg,1625579814333358910,0,0.5537,-0.3892,0.7808,302,48.2178,-44.3726,15.564,92,1.4007,1.1255,-45.8924,-13.3567,27,0.086,8143,3.9523,-170.1784
lg,1625579814333375172,0,0.541,-0.3804,0.7612,303,56.0303,-49.2554,15.5029,92,1.3997,1.1245,-47.1555,-12.871,28,0.086,8124,3.9523,-168.1814
lg,1625579814333391972,0,0.5613,-0.3706,0.7363,304,65.6738,-55.1147,18.1274,92,1.4007,1.1255,-48.6569,-12.2434,28,0.085,8140,3.9523,-165.9033
lg,1625579814333407827,0,0.5974,-0.3398,0.7136,305,72.3877,-62.0728,22.3999,92,1.4007,1.1266,-50.4512,-11.6359,28,0.086,8203,3.9523,-163.2622
lg,1625579814333423719,0,0.6328,-0.3269,0.7024,306,75.1953,-65.1855,25.2686,92,1.4007,1.1266,-52.4281,-11.1487,28,0.087,8237,3.9523,-160.355
lg,1625579814333440204,0,0.6704,-0.3164,0.6968,307,78.3691,-64.3921,27.4048,92,1.4007,1.1255,-54.3066,-10.803,27,0.086,8237,3.9523,-157.1839
lg,1625579814333456059,0,0.6782,-0.3022,0.6978,308,80.9937,-61.6455,26.6724,92,1.4007,1.1266,-56.0358,-10.3998,27,0.085,8247,3.9523,-153.9988
lg,1625579814333471841,0,0.6758,-0.2847,0.6885,309,83.9233,-58.2886,25.8789,92,1.4017,1.1266,-57.5992,-9.9053,27,0.084,8342,3.9523,-150.8214
lg,1625579814333488103,0,0.6919,-0.2695,0.686,310,84.7168,-56.5186,25.2686,92,1.4007,1.1266,-59.0827,-9.4165,27,0.083,8281,3.9523,-147.6316
lg,1625579814333507070,0,0.6936,-0.2517,0.688,311,85.9375,-50.293,24.1699,92,1.4007,1.1266,-60.2909,-8.8041,27,0.083,8353,3.9523,-144.5507
lg,1625579814333524444,0,0.6626,-0.229,0.6775,312,86.792,-42.2363,24.9634,92,1.4017,1.1266,-61.121,-8.1671,27,0.083,8395,3.9523,-141.4736
lg,1625579814333542003,0,0.6067,-0.2166,0.6868,313,87.4634,-38.8184,25.3296,92,1.4017,1.1266,-61.6605,-7.5212,27,0.083,8383,3.9523,-138.3524
lg,1625579814333559044,0,0.6201,-0.2061,0.7004,314,90.3931,-44.4946,26.3672,92,1.4027,1.1266,-62.4515,-6.9244,28,0.082,12176,3.9523,-135.0905
lg,1625579814333575844,0,0.7019,-0.1753,0.7031,315,90.8203,-48.4009,25.5737,92,1.4027,1.1266,-63.5125,-6.2195,28,0.082,8445,3.9523,-131.9213
lg,1625579814333592069,0,0.7332,-0.1877,0.7141,316,91.1255,-48.0347,24.7192,92,1.4027,1.1255,-64.5828,-5.5275,28,0.082,8460,3.9523,-128.7513
lg,1625579814333608109,0,0.7759,-0.157,0.7095,317,92.8955,-39.0625,20.752,92,1.4027,1.1266,-65.3482,-4.3855,28,0.082,8474,3.9523,-126.0166
lg,1625579814333637264,0,0.7402,-0.23,0.7676,318,87.2192,-25.8789,13.855,92,1.4017,1.1255,-65.4807,-3.1813,28,0.081,8516,3.9523,-123.683
lg,1625579814333655582,0,0.6912,-0.0408,0.7119,319,91.3696,-19.043,10.2539,92,1.4027,1.1255,-65.3785,-0.5672,28,0.081,9105,3.9523,-122.5682
lg,1625579814333671697,0,0.6997,-0.1697,0.7656,320,92.2852,-20.3857,8.667,92,1.4007,1.1245,-65.3013,1.4591,28,0.081,8820,3.9523,-120.9187
lg,1625579814701984086,0,0.6821,-0.0464,0.7183,321,93.1396,-8.3618,0,92,1.3977,1.1235,-64.7889,4.9087,28,0.081,25218,3.9523,-120.6902
lg,1625579814702013481,0,0.7002,0.0029,0.7048,322,89.1724,-2.5635,-4.5166,92,1.4017,1.1245,-64.092,8.4886,28,0.082,9337,3.9523,-120.797
lg,1625579814702033559,0,0.7053,0.0781,0.6509,323,82.8857,10.3149,-7.9346,92,1.4027,1.1245,-62.9639,12.1123,28,0.082,8024,3.9523,-121.1911
lg,1625579814702052823,0,0.6326,0.1345,0.6541,324,69.8242,28.6865,-9.6436,92,1.4017,1.1205,-61.0074,15.0114,28,0.082,11898,3.9523,-121.3372
lg,1625579814702070604,0,0.4949,0.0767,0.7175,325,55.8472,39.4287,-8.4229,92,1.4017,1.1245,-58.4624,16.3254,28,0.082,10532,3.9523,-120.6157
lg,1625579814702088219,0,0.4539,0.0522,0.7507,326,47.4243,31.25,-7.3242,92,1.4017,1.1245,-56.1865,17.2889,28,0.082,8005,3.9523,-119.769
lg,1625579814702140045,0,0.4688,0.0051,0.7717,327,42.6025,16.7236,-7.5073,92,1.4017,1.1245,-54.5734,18.0887,28,0.082,7966,3.9523,-119.0562
lg,1625579814702158215,0,0.5066,-0.0425,0.7556,328,43.0298,6.0425,-8.5449,92,1.4017,1.1235,-53.5326,18.9543,28,0.082,9898,3.9523,-118.4964
lg,1625579814702182757,0,0.5718,-0.0605,0.7568,329,45.8984,2.5024,-9.3994,92,1.4017,1.1235,-52.7865,20.0949,28,0.081,8170,3.9523,-118.1301
lg,1625579814702200057,0,0.5876,-0.0156,0.7312,330,50.5981,3.1738,-12.3291,92,1.3997,1.1225,-51.9036,21.9764,28,0.082,8786,3.9523,-118.2652
lg,1625579814702217894,0,0.6853,0.3711,0.7603,331,55.3589,6.8359,5.7373,92,1.3997,1.1235,-51.226,23.9576,28,0.082,8061,3.9523,-117.8878
lg,1625579814702235638,0,0.2656,0.5137,0.8262,332,11.7798,25.3906,2.2583,92,1.3997,1.1245,-49.022,24.2879,28,0.082,8096,3.9523,-117.4634
lg,1625579814702253031,0,-0.0127,0.407,1.0359,333,-18.7988,20.1416,8.606,92,1.3997,1.1255,-48.0621,21.3226,28,0.081,8088,3.9523,-116.0687
lg,1625579814702270516,0,-0.127,0.2751,1.1328,334,-55.7251,-70.6177,17.395,92,1.3987,1.1245,-49.0987,19.0505,27,0.082,8198,3.9523,-116.2731
lg,1625579814702287871,0,0.7397,-0.3818,1.2351,335,-88.0737,-184.3262,27.5269,92,1.4007,1.1245,-56.5451,15.3869,27,0.082,12065,3.9523,-117.0125
lg,1625579814702306542,0,1.033,-0.3962,1.175,336,-66.8945,-184.5093,29.6021,92,1.4007,1.1245,-63.4398,11.8023,27,0.081,8438,3.9523,-116.5798
lg,1625579814702352940,0,1.1892,-0.3428,1.0813,337,-40.3442,-94.2993,25.7568,92,1.4007,1.1245,-66.7279,7.5607,28,0.08,9930,3.9523,-114.0416
lg,1625579814702375001,0,0.8857,-0.2532,0.9497,338,-16.4185,-38.6353,10.437,92,1.3997,1.1245,-67.4235,4.6775,28,0.081,8363,3.9523,-111.8778
lg,1625579814702393375,0,0.7407,-0.1824,0.8416,339,-4.6997,-40.3442,5.7373,92,1.3997,1.1245,-68.0477,2.8801,28,0.081,8300,3.9523,-110.3312
lg,1625579814702411286,0,0.8455,-0.1226,0.749,340,-2.3193,-53.3447,11.5967,92,1.3997,1.1245,-69.3837,0.8976,28,0.081,8316,3.9523,-108.4164
lg,1625579814702440273,0,0.9348,-0.1279,0.7256,341,-3.2349,-53.4668,14.3433,92,1.3987,1.1235,-70.5874,-1.8999,27,0.081,8488,3.9501,-105.7125
lg,1625579814702458611,0,0.9968,-0.1233,0.7012,342,-5.6152,-35.3394,17.2729,92,1.3987,1.1235,-71.2809,-4.9392,27,0.081,8350,3.9501,-102.7715
lg,1625579814702475614,0,0.9441,-0.0867,0.6902,343,-6.7139,-7.1411,17.7002,92,1.3987,1.1235,-70.7832,-7.5035,27,0.081,8371,3.9501,-100.3415
lg,1625579814702492488,0,0.813,-0.0701,0.7012,344,-7.6904,9.0942,16.2354,92,1.3987,1.1235,-69.4972,-9.2885,27,0.081,8399,3.9501,-98.7458
lg,1625579814702509473,0,0.7605,-0.061,0.6948,345,-8.5449,11.7798,15.3198,92,1.3987,1.1235,-68.0305,-10.6747,28,0.081,8420,3.9501,-97.5969
lg,1625579814702526236,0,0.6704,-0.0803,0.6963,346,-9.6436,10.9253,14.2212,92,1.3987,1.1235,-66.5683,-11.8642,28,0.08,8452,3.9501,-96.6759
lg,1625579814702543295,0,0.5984,-0.0764,0.6995,347,-8.9111,2.6855,13.5498,92,1.3987,1.1225,-65.3521,-12.9166,28,0.081,8475,3.9501,-95.838
lg,1625579814702559872,0,0.5942,-0.1025,0.6968,348,-8.8501,-12.3291,12.6343,92,1.3987,1.1225,-64.738,-14.2251,28,0.08,8592,3.9501,-94.7154
lg,1625579814702577357,0,0.6189,-0.1228,0.7012,349,-8.7891,-20.813,11.4746,92,1.3977,1.1225,-64.7918,-15.6529,27,0.08,8522,3.9501,-93.4117
lg,1625579814702594046,0,0.647,-0.105,0.6858,350,-6.7139,-33.3252,8.7891,92,1.3977,1.1225,-65.1107,-16.9491,27,0.08,8545,3.9501,-92.1726
lg,1625579814702610679,0,0.6892,-0.1138,0.6777,351,-5.3101,-39.917,6.2866,92,1.3977,1.1225,-65.7551,-18.2253,27,0.079,8531,3.9501,-90.8947
lg,1625579814702627257,0,0.7063,-0.1099,0.6917,352,-3.8452,-45.8984,5.7373,92,1.3977,1.1225,-66.5997,-19.5669,27,0.079,8586,3.9501,-89.4673
lg,1625579815059371637,0,0.7935,-0.126,0.6909,353,-4.7607,-48.5229,5.8594,92,1.3977,1.1215,-67.6009,-21.2407,27,0.08,24685,3.9501,-87.7339
lg,1625579815059553524,0,0.8425,-0.1414,0.7202,354,-3.9673,-44.9219,6.6528,92,1.3987,1.1225,-68.4146,-22.9647,28,0.08,9943,3.9501,-85.9188
lg,1625579815059583882,0,0.8706,-0.1677,0.7288,355,-2.9907,-36.8042,5.7373,92,1.3947,1.1225,-68.8999,-24.3445,28,0.08,10078,3.9501,-84.4404
lg,1625579815059611646,0,0.873,-0.1638,0.7366,356,-1.2207,-26.6113,5.0659,92,1.3987,1.1225,-68.9712,-25.0837,28,0.08,10029,3.9501,-83.5665
lg,1625579815059631020,0,0.8572,-0.1719,0.7373,357,1.8311,-15.1367,5.6763,92,1.3987,1.1225,-68.6409,-25.3278,28,0.08,10849,3.9501,-83.1081
lg,1625579815059649820,0,0.8591,-0.1611,0.7278,358,2.5635,-10.0708,5.6763,92,1.3977,1.1215,-68.1655,-25.2648,28,0.08,7948,3.9501,-82.9413
lg,1625579815059669657,0,0.8542,-0.1675,0.6909,359,3.54,-2.3804,4.8218,92,1.3977,1.1215,-67.4868,-24.86,28,0.08,7898,3.9501,-83.1166
lg,1625579815059709221,0,0.7981,-0.1511,0.6724,360,4.0894,4.6997,4.1504,92,1.3977,1.1215,-66.558,-24.0536,28,0.08,7928,3.9501,-83.697
lg,1625579815059729891,0,0.7849,-0.1545,0.6519,361,3.54,6.1646,4.0894,92,1.3977,1.1215,-65.6178,-23.3379,28,0.08,7988,3.9501,-84.2165
lg,1625579815059748395,0,0.7668,-0.1448,0.658,362,4.2725,7.5684,4.7607,92,1.3977,1.1215,-64.6224,-22.6047,28,0.08,8555,3.9501,-84.7173
lg,1625579815059766973,0,0.7349,-0.1362,0.6506,363,2.9297,7.3853,5.6763,92,1.3967,1.1205,-63.6263,-22.0267,28,0.08,8553,3.9501,-85.1024
lg,1625579815059784735,0,0.7168,-0.1414,0.6421,364,2.4414,6.7749,6.0425,92,1.3967,1.1205,-62.6682,-21.568,28,0.08,8021,3.9501,-85.3826
lg,1625579815059802776,0,0.6921,-0.1265,0.6624,365,2.3193,3.0518,6.1035,92,1.3967,1.1205,-61.8202,-21.1787,27,0.08,8035,3.9501,-85.5696
lg,1625579815059821002,0,0.6929,-0.1323,0.6775,366,2.2583,-3.3569,5.7373,92,1.3967,1.1205,-61.2191,-20.9723,27,0.08,8074,3.9501,-85.553
lg,1625579815059841450,0,0.7346,-0.1453,0.6743,367,1.8311,-6.2866,5.7983,92,1.3967,1.1195,-60.8174,-20.9678,27,0.081,8100,3.9501,-85.3413
lg,1625579815059861843,0,0.7561,-0.1633,0.6755,368,2.3193,-6.1035,4.6387,92,1.3957,1.1195,-60.4473,-20.9262,27,0.081,8158,3.9501,-85.1722
lg,1625579815059915705,0,0.782,-0.1458,0.655,369,2.0752,-4.5776,4.3335,92,1.3967,1.1195,-60.1172,-20.7964,27,0.08,8135,3.9501,-85.1038
lg,1625579815059936172,0,0.8013,-0.137,0.6411,370,0.5493,-2.7466,5.3711,92,1.3957,1.1195,-59.7708,-20.7421,27,0.08,8170,3.9501,-85.0153
lg,1625579815059955546,0,0.7856,-0.1538,0.6711,371,1.1597,-0.3052,5.9204,92,1.3957,1.1185,-59.2629,-20.6671,27,0.08,8201,3.9501,-84.9298
lg,1625579815059974569,0,0.7319,-0.1682,0.697,372,0.6104,6.2256,7.0801,92,1.3957,1.1185,-58.3943,-20.5468,27,0.08,8138,3.9501,-84.9263
lg,1625579815059992516,0,0.7029,-0.1741,0.7148,373,0.6714,3.6621,7.5684,90,1.3957,1.1175,-57.5746,-20.5119,27,0.08,8179,3.9501,-84.8154
lg,1625579815060010668,0,0.7322,-0.1941,0.7007,374,2.5635,-3.1738,6.3477,90,1.3947,1.1185,-57.1086,-20.5812,27,0.079,10926,3.9501,-84.5207
lg,1625579815060028672,0,0.7727,-0.1584,0.6689,375,3.6621,-2.7466,5.3101,90,1.3947,1.1175,-56.7854,-20.4418,27,0.079,8339,3.9501,-84.3883
lg,1625579815060047009,0,0.7522,-0.1482,0.6582,376,3.54,-0.4272,5.127,90,1.3947,1.1175,-56.3848,-20.2212,27,0.08,8315,3.9501,-84.349
lg,1625579815060063345,0,0.7419,-0.1506,0.6548,377,1.9531,1.1597,5.188,90,1.3947,1.1175,-55.929,-20.0553,28,0.079,8277,3.9501,-84.326
lg,1625579815060081349,0,0.7449,-0.1577,0.6772,378,1.9531,-1.8311,6.5918,90,1.3957,1.1175,-55.5488,-20.0365,28,0.078,8398,3.9501,-84.1262
lg,1625579815060097759,0,0.7417,-0.1687,0.7053,379,1.8311,-3.7231,6.2866,90,1.3947,1.1175,-55.2236,-20.0034,28,0.078,8387,3.9501,-83.9182
lg,1625579815060126561,0,0.7556,-0.1614,0.7075,380,3.0518,-2.9907,5.249,90,1.3937,1.1185,-54.9015,-19.8723,27,0.078,8403,3.9501,-83.7921
lg,1625579815060150047,0,0.7344,-0.1492,0.6626,381,2.9907,-2.3804,4.6387,90,1.3957,1.1175,-54.6205,-19.7037,27,0.077,13184,3.9501,-83.7155
lg,1625579815060166902,0,0.7007,-0.1667,0.6807,382,2.9297,-1.2817,4.0894,90,1.3957,1.1175,-54.2275,-19.5331,27,0.077,8475,3.9501,-83.6619
lg,1625579815060183220,0,0.6868,-0.1438,0.6538,383,2.6245,-1.1597,4.5776,90,1.3957,1.1175,-53.9066,-19.3594,28,0.076,8551,3.9501,-83.622
lg,1625579815060219746,0,0.6772,-0.1362,0.6812,384,2.0142,-3.2959,4.7607,90,1.3947,1.1175,-53.5869,-19.1911,28,0.076,8528,3.9501,-83.5636
lg,1625579815433032666,0,0.7061,-0.2004,0.7205,385,2.4414,-15.1978,6.0425,90,1.3947,1.1165,-53.724,-19.4468,28,0.076,23261,3.9501,-82.9796
lg,1625579815433082546,0,0.7429,-0.1863,0.7227,386,5.5542,-18.2495,5.4321,90,1.3937,1.1165,-53.9796,-19.6151,28,0.075,9403,3.9501,-82.3593
lg,1625579815433103883,0,0.7664,-0.1987,0.7197,387,7.8735,-17.9443,4.7607,90,1.3897,1.1165,-54.2489,-19.6788,28,0.076,8200,3.9501,-81.8046
lg,1625579815433122591,0,0.7947,-0.1714,0.7004,388,8.1177,-14.4653,4.8218,90,1.3927,1.1165,-54.4596,-19.6023,28,0.076,10614,3.9501,-81.3836
lg,1625579815433140853,0,0.8105,-0.176,0.6726,389,7.5684,-9.1553,5.3711,90,1.3947,1.1165,-54.5175,-19.53,28,0.075,9755,3.9501,-81.0076
lg,1625579815433159839,0,0.8081,-0.1814,0.6465,390,6.2256,-3.1738,6.2256,90,1.3937,1.1165,-54.3724,-19.4944,28,0.076,8154,3.9501,-80.674
lg,1625579815433177916,0,0.7749,-0.1765,0.6816,391,4.4556,2.3193,5.9204,90,1.3937,1.1165,-53.9351,-19.3492,28,0.075,9870,3.9501,-80.5373
lg,1625579815433196012,0,0.7346,-0.1936,0.6982,392,4.4556,2.9907,4.8828,90,1.3937,1.1165,-53.4107,-19.1804,28,0.075,8034,3.9501,-80.4465
lg,1625579815433214386,0,0.7292,-0.2017,0.7107,393,4.0894,2.1362,4.1504,90,1.3937,1.1165,-52.9184,-19.0251,27,0.075,8056,3.9501,-80.3648
lg,1625579815433232130,0,0.7341,-0.1948,0.7168,394,6.3477,-1.709,3.1738,90,1.3927,1.1155,-52.6043,-18.7747,27,0.074,10045,3.9501,-80.278
lg,1625579815433249986,0,0.7678,-0.1719,0.6921,395,6.1646,-3.1128,2.4414,90,1.3927,1.1155,-52.4626,-18.4806,27,0.074,8101,3.9501,-80.2371
lg,1625579815433267397,0,0.7671,-0.177,0.6802,396,7.1411,-2.0752,1.8311,90,1.3927,1.1155,-52.3095,-18.1425,27,0.073,8083,3.9501,-80.2222
lg,1625579815433285252,0,0.7581,-0.1633,0.6807,397,7.5684,-0.8545,1.6479,90,1.3927,1.1155,-52.105,-17.7401,28,0.074,8139,3.9501,-80.2885
lg,1625579815433303774,0,0.7246,-0.1787,0.678,398,7.2632,-0.1831,0.8545,90,1.3917,1.1155,-51.8455,-17.3559,28,0.073,8082,3.9501,-80.3429
lg,1625579815433322148,0,0.7192,-0.1733,0.688,399,6.958,-1.4648,0.1221,90,1.3927,1.1155,-51.6323,-16.956,28,0.072,8124,3.9501,-80.4267
lg,1625579815433372324,0,0.7097,-0.1831,0.6921,400,7.8125,-2.6245,-0.1831,90,1.3927,1.1155,-51.4881,-16.5776,28,0.073,8139,3.9501,-80.4218
lg,1625579815433394403,0,0.7251,-0.165,0.6843,401,8.4229,-4.8218,0.3052,90,1.3917,1.1155,-51.4325,-16.1856,28,0.073,8174,3.9501,-80.4251
lg,1625579815433411721,0,0.7092,-0.175,0.6665,402,7.5073,-6.0425,0.1831,90,1.3927,1.1155,-51.4253,-15.9084,28,0.073,8164,3.9501,-80.3616
lg,1625579815433429836,0,0.7166,-0.1677,0.6536,403,6.7749,-7.5073,0.9155,90,1.3927,1.1165,-51.5018,-15.7138,28,0.072,11900,3.9501,-80.2293
lg,1625579815433447061,0,0.7019,-0.1785,0.6643,404,4.8828,-7.0801,0.1831,90,1.3937,1.1135,-51.522,-15.5883,27,0.073,8557,3.9501,-80.1227
lg,1625579815433464379,0,0.7178,-0.177,0.6777,405,4.8828,-9.0332,0.1221,90,1.3927,1.1155,-51.6216,-15.4735,27,0.072,8522,3.9501,-79.9963
lg,1625579815433481457,0,0.7192,-0.116,0.6089,406,5.8594,-10.8032,0.3662,90,1.3927,1.1165,-51.9513,-15.2012,27,0.073,8303,3.9501,-79.8327
lg,1625579815433504369,0,0.74,-0.2817,0.7454,407,-1.0376,-13.6108,1.0986,90,1.3927,1.1155,-52.0932,-15.7353,27,0.072,8384,3.9501,-79.3258
lg,1625579815433525058,0,0.7732,-0.1704,0.6833,408,6.2256,-13.0005,-0.1221,90,1.3927,1.1155,-52.4013,-15.5812,28,0.072,8355,3.9501,-79.1674
lg,1625579815433544098,0,0.7756,-0.1946,0.6997,409,5.6152,-8.3618,-0.6104,90,1.3927,1.1155,-52.494,-15.4356,28,0.072,8369,3.9501,-79.0644
lg,1625579815433562435,0,0.7727,-0.1731,0.7124,410,6.4697,-6.4697,-0.7935,90,1.3907,1.1155,-52.4988,-15.1415,28,0.071,8636,3.9501,-79.0702
lg,1625579815433579994,0,0.7705,-0.1729,0.6787,411,6.1646,-3.3569,-0.1831,90,1.3917,1.1155,-52.4257,-14.889,27,0.072,8395,3.9501,-79.0589
lg,1625579815433597720,0,0.7395,-0.1768,0.6912,412,6.958,-2.5635,-0.061,90,1.3917,1.1145,-52.228,-14.6836,27,0.072,8490,3.9501,-78.9975
lg,1625579815433615353,0,0.7388,-0.1797,0.6919,413,6.2256,-1.5869,0.7324,90,1.3917,1.1145,-52.0187,-14.4818,27,0.072,8450,3.9501,-78.9338
lg,1625579815433633690,0,0.7224,-0.1724,0.6802,414,7.0801,-1.8311,1.0986,90,1.3917,1.1155,-51.8195,-14.2606,27,0.072,8514,3.9501,-78.8482
lg,1625579815433676902,0,0.7036,-0.1934,0.6926,415,6.6528,-2.7466,1.5259,90,1.3917,1.1155,-51.6028,-14.1609,27,0.072,8517,3.9501,-78.6641
lg,1625579815433700814,0,0.7034,-0.1753,0.6663,416,6.5918,-3.2349,1.77,90,1.3917,1.1155,-51.5335,-14.0696,27,0.072,8631,3.9501,-78.4548
lg,1625579815767583262,0,0.7456,-0.1704,0.6641,417,5.7373,-8.3618,1.709,90,1.3907,1.1155,-51.6604,-14.0361,28,0.072,24842,3.9501,-78.2091
lg,1625579815767618973,0,0.7476,-0.1741,0.6682,418,4.6997,-9.2163,1.4038,90,1.3917,1.1145,-51.8131,-14.0508,28,0.072,11240,3.9501,-77.96
lg,1625579815767639051,0,0.7461,-0.1812,0.6763,419,4.5166,-8.1177,1.3428,90,1.3927,1.1155,-51.9003,-14.074,28,0.072,8117,3.9501,-77.718
lg,1625579815767657666,0,0.7559,-0.1785,0.7036,420,4.5166,-7.3242,1.3428,90,1.3887,1.1145,-51.9274,-14.0533,27,0.072,7935,3.9501,-77.5157
lg,1625579815767674502,0,0.761,-0.1841,0.6978,421,5.0659,-5.5542,0.9766,90,1.3887,1.1145,-51.9032,-13.9955,27,0.072,10348,3.9501,-77.3448
lg,1625579815767691209,0,0.7439,-0.1709,0.668,422,3.9062,-3.7842,1.2207,90,1.3917,1.1155,-51.8353,-13.9571,27,0.072,10008,3.9501,-77.2002
lg,1625579815767707453,0,0.7361,-0.1658,0.6719,423,2.6855,-2.8076,1.2817,90,1.3927,1.1155,-51.7162,-13.9379,27,0.072,8078,3.9501,-77.0834
lg,1625579815767723697,0,0.7188,-0.1667,0.6658,424,2.9297,-4.1504,1.5869,90,1.3927,1.1155,-51.633,-13.9497,28,0.072,9903,3.9501,-76.9189
lg,1625579815767740274,0,0.7112,-0.1941,0.6824,425,1.77,-6.0425,0.8545,90,1.3927,1.1155,-51.5845,-14.0762,28,0.071,8152,3.9501,-76.7063
lg,1625579815767756222,0,0.6992,-0.187,0.6787,426,2.5635,-9.2163,0.7935,90,1.3927,1.1155,-51.6497,-14.1812,28,0.072,8097,3.9501,-76.4675
lg,1625579815767773318,0,0.729,-0.1804,0.6697,427,2.6855,-10.6201,1.6479,90,1.3917,1.1155,-51.8651,-14.3429,28,0.071,8003,3.9501,-76.1504
lg,1625579815767791155,0,0.7278,-0.1721,0.6643,428,0.4272,-9.7046,1.6479,90,1.3917,1.1145,-52.0019,-14.5332,28,0.072,9615,3.9501,-75.8868
lg,1625579815767808047,0,0.7109,-0.1833,0.6873,429,0,-9.7046,2.7466,90,1.3927,1.1145,-52.0552,-14.8076,28,0.071,7958,3.9501,-75.5432
lg,1625579815767824606,0,0.7332,-0.186,0.6838,430,-0.061,-13.0615,3.479,90,1.3917,1.1145,-52.2645,-15.1694,28,0.071,7994,3.9501,-75.092
lg,1625579815767863224,0,0.7791,-0.1843,0.6743,431,0.3662,-14.4043,2.8687,90,1.3927,1.1145,-52.5803,-15.5058,28,0.071,9050,3.9501,-74.7079
lg,1625579815767881709,0,0.772,-0.1912,0.6785,432,-0.4272,-11.4746,2.4414,90,1.3907,1.1135,-52.78,-15.8124,28,0.071,8653,3.9501,-74.3437
lg,1625579815767899194,0,0.7773,-0.1929,0.6663,433,-0.9766,-7.019,1.8921,90,1.3907,1.1135,-52.8327,-16.0566,28,0.071,8099,3.9501,-74.0884
lg,1625579815767916049,0,0.7622,-0.2092,0.6807,434,-0.9766,-4.3945,1.2207,90,1.3907,1.1145,-52.7391,-16.2608,28,0.071,8094,3.9501,-73.8979
lg,1625579815767932608,0,0.7556,-0.2056,0.7036,435,-1.5869,-5.0049,1.3428,90,1.3907,1.1145,-52.6283,-16.4594,27,0.071,8120,3.9501,-73.7242
lg,1625579815767948852,0,0.7661,-0.1875,0.6987,436,-0.5493,-6.4697,1.2207,90,1.3887,1.1145,-52.6093,-16.5672,27,0.071,8168,3.9501,-73.5825
lg,1625579815767965059,0,0.7795,-0.1802,0.6841,437,0.061,-4.6997,0.8545,90,1.3907,1.1145,-52.5727,-16.5912,27,0.071,8148,3.9501,-73.509
lg,1625579815767981710,0,0.772,-0.1841,0.6968,438,0.1221,-3.6011,0.2441,90,1.3907,1.1135,-52.4152,-16.5815,27,0.07,8139,3.9501,-73.4859
lg,1625579815767998491,0,0.783,-0.1948,0.6826,439,1.5259,-0.7935,-0.6714,90,1.3907,1.1145,-52.2556,-16.4635,27,0.071,8162,3.9501,-73.5417
lg,1625579815768015495,0,0.7688,-0.197,0.6777,440,1.9531,0.5493,-0.9155,90,1.3907,1.1135,-52.04,-16.3145,27,0.071,8141,3.9501,-73.6237
lg,1625579815768032331,0,0.7598,-0.197,0.6946,441,2.1362,0.7935,-0.6104,90,1.3917,1.1135,-51.7347,-16.0828,27,0.071,8190,3.9501,-73.8036
lg,1625579815768048408,0,0.7568,-0.1978,0.7087,442,1.9531,2.6245,-1.709,90,1.3907,1.1135,-51.4047,-15.8572,27,0.071,8215,3.9501,-73.9791
lg,1625579815768064800,0,0.7441,-0.1936,0.7017,443,2.8076,2.9297,-2.7466,90,1.3907,1.1135,-51.0801,-15.5486,28,0.071,8383,3.9501,-74.2196
lg,1625579815768081118,0,0.7622,-0.1904,0.7017,444,4.0894,3.8452,-3.9062,90,1.3917,1.1135,-50.7729,-15.1279,28,0.071,8363,3.9501,-74.5415
lg,1625579815768097622,0,0.7542,-0.2019,0.6782,445,3.7231,3.9062,-4.3335,90,1.3917,1.1135,-50.4758,-14.662,28,0.071,8492,3.9501,-74.9239
lg,1625579815768125460,0,0.7495,-0.1858,0.6553,446,4.2725,5.7983,-5.0659,90,1.3907,1.1125,-50.181,-14.2279,28,0.071,8533,3.9501,-75.2903
lg,1625579815768142149,0,0.7112,-0.1658,0.6379,447,2.0142,8.9722,-5.0659,90,1.3907,1.1135,-49.7515,-13.8181,27,0.071,8945,3.9501,-75.7267
lg,1625579815768158541,0,0.6973,-0.1494,0.6289,448,0.6714,5.6152,-3.54,90,1.3907,1.1125,-49.4519,-13.5423,27,0.071,8523,3.9501,-76.0412
lg,1625579816151469039,0,0.6831,-0.2056,0.6997,449,-0.7935,-5.4321,-2.0142,90,1.3927,1.1135,-49.4997,-13.713,28,0.071,24477,3.9501,-75.9366
lg,1625579816151509731,0,0.7478,-0.1912,0.6892,450,-0.9155,-9.0942,-2.1973,90,1.3937,1.1135,-49.7885,-13.8722,28,0.072,9550,3.9501,-75.8574
lg,1625579816151530124,0,0.7615,-0.199,0.6863,451,-3.418,-6.7139,-1.4038,90,1.3897,1.1135,-49.9295,-14.1115,28,0.072,11522,3.9512,-75.7707
lg,1625579816151548794,0,0.7534,-0.2163,0.7002,452,-4.8828,-1.0376,0.6104,90,1.3937,1.1135,-49.787,-14.471,27,0.071,10003,3.9512,-75.6217
lg,1625579816151567168,0,0.7336,-0.2283,0.7324,453,-4.2725,1.0986,1.2207,90,1.3937,1.1135,-49.4165,-14.7254,27,0.072,7901,3.9512,-75.4609
lg,1625579816151584819,0,0.7097,-0.2302,0.7346,454,-1.3428,0.061,1.1597,90,1.3937,1.1135,-49.1236,-14.9435,27,0.072,7960,3.9512,-75.3064
lg,1625579816151602433,0,0.7129,-0.2239,0.7173,455,2.5635,-3.2349,1.2207,90,1.3937,1.1125,-48.9998,-15.0336,27,0.072,8742,3.9512,-75.1072
lg,1625579816151619881,0,0.7407,-0.1995,0.7031,456,4.3945,-1.5259,2.6245,90,1.3937,1.1125,-48.8742,-15.0217,28,0.072,8003,3.9512,-74.9065
lg,1625579816151636477,0,0.7244,-0.1785,0.6792,457,3.479,1.709,3.7842,90,1.3917,1.1115,-48.6377,-15.0116,28,0.072,10009,3.9512,-74.7251
lg,1625579816151653572,0,0.7202,-0.2061,0.6777,458,3.0518,2.2583,4.5776,90,1.3917,1.1125,-48.3654,-15.1375,28,0.072,8030,3.9512,-74.4373
lg,1625579816151670446,0,0.707,-0.177,0.6953,459,3.1128,0.6104,4.6387,90,1.3917,1.1125,-48.1305,-15.1653,27,0.072,8041,3.9512,-74.2091
lg,1625579816151699822,0,0.7214,-0.1997,0.6887,460,2.6245,-1.0376,4.2114,90,1.3927,1.1125,-47.9956,-15.2903,27,0.072,8174,3.9512,-73.9216
lg,1625579816151717473,0,0.7329,-0.198,0.6865,461,3.1128,-1.5259,4.5776,90,1.3927,1.1115,-47.9024,-15.4074,27,0.072,8097,3.9512,-73.6126
lg,1625579816151733568,0,0.7236,-0.1809,0.6658,462,2.1362,0.2441,5.249,90,1.3917,1.1125,-47.7627,-15.529,27,0.072,8185,3.9512,-73.3249
lg,1625579816151750312,0,0.6809,-0.2178,0.6814,463,0.6104,0,6.0425,90,1.3927,1.1125,-47.5199,-15.8475,28,0.072,8116,3.9512,-72.9136
lg,1625579816151768945,0,0.6868,-0.1997,0.6877,464,0.3662,-0.8545,6.4087,90,1.3937,1.1125,-47.3257,-16.1676,28,0.072,8102,3.9512,-72.4767
lg,1625579816151785578,0,0.6787,-0.199,0.6826,465,0.061,-4.5776,6.7139,90,1.3927,1.1125,-47.322,-16.5463,28,0.072,9754,3.9512,-71.9556
lg,1625579816151801951,0,0.6775,-0.1865,0.6885,466,-1.2207,-8.1787,7.4463,90,1.3927,1.1115,-47.3845,-16.9419,28,0.072,8200,3.9512,-71.4422
lg,1625579816151818880,0,0.7151,-0.2061,0.699,467,-1.8921,-11.4746,7.5684,90,1.3927,1.1115,-47.6013,-17.4531,27,0.071,8245,3.9512,-70.8319
lg,1625579816151835328,0,0.7246,-0.1875,0.6863,468,-1.2817,-10.9253,6.958,90,1.3927,1.1125,-47.8358,-17.8457,27,0.072,8258,3.9512,-70.3102
lg,1625579816151852646,0,0.7231,-0.1934,0.6912,469,-1.3428,-11.4136,6.8359,90,1.3927,1.1115,-48.087,-18.2432,27,0.072,8445,3.9512,-69.7919
lg,1625579816151869649,0,0.7073,-0.2136,0.698,470,-1.5259,-12.146,7.0801,90,1.3927,1.1125,-48.2837,-18.7172,27,0.072,11321,3.9512,-69.2004
lg,1625579816151886356,0,0.7136,-0.2239,0.7014,471,-1.2817,-12.9395,6.8359,90,1.3927,1.1125,-48.4976,-19.1684,27,0.072,8418,3.9512,-68.6162
lg,1625579816151902507,0,0.7219,-0.2375,0.7178,472,-0.6714,-13.0615,5.4932,90,1.3937,1.1125,-48.7099,-19.5825,27,0.072,8445,3.9512,-68.0722
lg,1625579816151918917,0,0.7561,-0.2305,0.7073,473,1.2817,-14.5874,3.7842,90,1.3937,1.1125,-49.0621,-19.8481,27,0.072,8355,3.9512,-67.6084
lg,1625579816151936013,0,0.7639,-0.2312,0.6753,474,1.0376,-10.7422,3.54,90,1.3937,1.1125,-49.3167,-20.0842,27,0.072,10046,3.9512,-67.2139
lg,1625579816151963833,0,0.7512,-0.2358,0.6794,475,1.1597,-9.2773,2.4414,90,1.3937,1.1125,-49.4933,-20.247,27,0.071,8458,3.9512,-66.9111
lg,1625579816152063666,0,0.7559,-0.2329,0.6694,476,1.4648,-8.9722,2.8687,90,1.3927,1.1125,-49.633,-20.4481,27,0.071,8651,3.9512,-66.5649
lg,1625579816152088689,0,0.7449,-0.2458,0.6838,477,0.7935,-7.6294,3.1128,90,1.3917,1.1115,-49.7037,-20.6433,27,0.071,8698,3.9512,-66.2461
lg,1625579816152191985,0,0.7224,-0.2383,0.6865,478,-0.3052,-4.7607,4.0894,90,1.3917,1.1115,-49.6166,-20.8416,28,0.071,8518,3.9512,-65.9612
lg,1625579816152212804,0,0.7097,-0.251,0.6875,479,0.5493,-7.5684,4.1504,90,1.3917,1.1115,-49.607,-21.0866,28,0.071,8559,3.9512,-65.5862
lg,1625579816152231418,0,0.7219,-0.2441,0.6978,480,2.1362,-8.667,4.1504,90,1.3927,1.1125,-49.6459,-21.2439,28,0.071,8738,3.9512,-65.2192
lg,1625579816516082957,0,0.7317,-0.2446,0.6792,481,3.9062,-9.2163,3.2959,90,1.3937,1.1125,-49.7568,-21.3213,27,0.07,24620,3.9512,-64.8743
lg,1625579816516136708,0,0.7461,-0.2366,0.6899,482,3.9673,-8.8501,3.1738,90,1.3927,1.1125,-49.8624,-21.3449,27,0.07,11008,3.9512,-64.5752
lg,1625579816516167510,0,0.7449,-0.2429,0.6711,483,4.3945,-7.6294,2.8687,99,1.3897,1.1115,-49.9449,-21.3592,27,0.071,7953,3.9512,-64.289
lg,1625579816516196441,0,0.7256,-0.2288,0.6543,484,4.5776,-6.7139,2.4414,99,1.3897,1.1115,-50.0007,-21.3047,27,0.071,8273,3.9512,-64.0692
lg,1625579816516223223,0,0.7236,-0.2253,0.6812,485,4.0894,-7.2632,2.5024,99,1.3937,1.1125,-50.0328,-21.2405,27,0.07,10306,3.9512,-63.8655
lg,1625579816516249524,0,0.7095,-0.218,0.6729,486,4.0283,-8.4839,2.1362,99,1.3937,1.1125,-50.1085,-21.1708,27,0.071,10007,3.9512,-63.6655
lg,1625579816516276400,0,0.7039,-0.2339,0.6714,487,4.1504,-8.9111,1.4648,99,1.3927,1.1125,-50.2251,-21.04,28,0.071,7861,3.9512,-63.5213
lg,1625579816516303164,0,0.7021,-0.2346,0.6704,488,4.2725,-10.3149,1.9531,99,1.3927,1.1125,-50.3463,-21.0509,28,0.071,8093,3.9512,-63.2395
lg,1625579816516330391,0,0.7156,-0.2356,0.6743,489,3.418,-13.2446,2.6245,99,1.3927,1.1125,-50.5761,-21.1779,28,0.071,8107,3.9512,-62.851
lg,1625579816516358989,0,0.7095,-0.2432,0.6721,490,3.9673,-14.0381,1.8921,99,1.3927,1.1125,-50.8162,-21.2803,28,0.071,7925,3.9512,-62.4741
lg,1625579816516385179,0,0.7302,-0.2461,0.6855,491,4.7607,-14.8926,1.4648,99,1.3927,1.1125,-51.1044,-21.3489,28,0.071,8964,3.9512,-62.1006
lg,1625579816516411776,0,0.7456,-0.2422,0.6792,492,4.9438,-16.1133,1.2817,99,1.3927,1.1125,-51.4632,-21.4209,28,0.071,14233,3.9512,-61.7117
lg,1625579816516437170,0,0.7598,-0.2441,0.6975,493,5.0049,-14.5264,1.9531,99,1.3927,1.1125,-51.7331,-21.4785,28,0.071,8056,3.9512,-61.3311
lg,1625579816516463415,0,0.7703,-0.2454,0.6914,494,5.6152,-13.855,1.5869,99,1.3927,1.1125,-51.9959,-21.4947,27,0.071,8028,3.9512,-60.9786
lg,1625579816516489031,0,0.7788,-0.2463,0.6965,495,5.9814,-9.7046,2.1973,99,1.3927,1.1125,-52.0911,-21.4459,27,0.071,8057,3.9512,-60.6904
lg,1625579816516515406,0,0.7742,-0.2568,0.6917,496,6.5918,-5.127,2.0142,99,1.3927,1.1125,-52.0109,-21.3196,27,0.07,8045,3.9512,-60.4902
lg,1625579816516542078,0,0.7729,-0.2458,0.6868,497,7.019,-4.3335,2.3193,99,1.3927,1.1125,-51.9118,-21.1512,27,0.071,8073,3.9512,-60.3104
lg,1625579816516568416,0,0.7583,-0.2395,0.6682,498,7.2632,-1.0986,2.4414,99,1.3917,1.1125,-51.7048,-20.9272,27,0.07,8443,3.9512,-60.1932
lg,1625579816516594680,0,0.7419,-0.2444,0.6611,499,7.2021,0.6714,2.0752,99,1.3917,1.1115,-51.4293,-20.6901,27,0.07,8658,3.9512,-60.1121
lg,1625579816516621889,0,0.7268,-0.2358,0.6663,500,6.7139,0.7324,2.8687,99,1.3927,1.1125,-51.1515,-20.4802,27,0.07,8137,3.9512,-59.9928
lg,1625579816516648634,0,0.7021,-0.2356,0.667,501,6.5308,-0.3662,2.7466,99,1.3907,1.1125,-50.894,-20.3031,28,0.07,10089,3.9512,-59.8558
lg,1625579816516675306,0,0.7009,-0.2295,0.6853,502,7.019,-2.7466,2.0142,99,1.3907,1.1115,-50.6881,-20.075,28,0.07,8182,3.9512,-59.7442
lg,1625579816516715665,0,0.7175,-0.2468,0.6785,503,7.5684,-5.8594,2.3804,99,1.3917,1.1125,-50.6282,-19.9698,28,0.07,8241,3.9512,-59.4838
lg,1625579816516749393,0,0.7236,-0.2419,0.6824,504,8.3008,-6.4697,2.0142,99,1.3907,1.1125,-50.6052,-19.8119,28,0.07,8246,3.9512,-59.2452
lg,1625579816516775157,0,0.7344,-0.2319,0.6816,505,7.8125,-6.3477,1.5259,99,1.3907,1.1125,-50.6396,-19.6532,27,0.07,8430,3.9512,-59.0356
lg,1625579816516801014,0,0.7515,-0.229,0.6831,506,7.9346,-5.7983,1.6479,99,1.3907,1.1125,-50.6449,-19.452,27,0.07,8346,3.9512,-58.8575
lg,1625579816516826055,0,0.7534,-0.2366,0.667,507,7.6904,-5.4321,0.6714,99,1.3907,1.1115,-50.6724,-19.2606,27,0.07,8316,3.9512,-58.706
lg,1625579816516851745,0,0.7224,-0.241,0.6797,508,7.0801,-3.54,0.4272,99,1.3917,1.1125,-50.5633,-19.0594,27,0.07,8323,3.9512,-58.6031
lg,1625579816516876713,0,0.7146,-0.2446,0.6963,509,7.0801,-4.3945,1.0376,99,1.3907,1.1115,-50.4446,-18.901,28,0.07,8351,3.9512,-58.4456
lg,1625579816516902458,0,0.7332,-0.2468,0.6768,510,7.5073,-5.6152,0.6104,99,1.3907,1.1125,-50.4383,-18.7606,28,0.07,8378,3.9512,-58.2612
lg,1625579816516927648,0,0.7373,-0.2456,0.6934,511,8.2397,-4.7607,-0.3052,99,1.3907,1.1125,-50.3948,-18.5181,28,0.07,8403,3.9512,-58.1628
lg,1625579816516954412,0,0.7551,-0.228,0.6775,512,9.0332,-3.9673,-0.7324,99,1.3907,1.1125,-50.3747,-18.1833,28,0.071,8442,3.9512,-58.1409
lg,1625579816869621543,0,0.7188,-0.2429,0.6572,513,6.2866,0,-0.1831,99,1.3917,1.1135,-50.1801,-18.0087,27,0.07,24703,3.9512,-58.0864
lg,1625579816869670941,0,0.6919,-0.2432,0.6697,514,6.4087,-1.8311,-0.061,99,1.3917,1.1125,-49.9993,-17.8574,27,0.07,9804,3.9512,-57.9927
lg,1625579816869692352,0,0.6914,-0.2354,0.6699,515,6.4087,-6.3477,-0.3662,99,1.3917,1.1095,-50.0026,-17.7378,28,0.07,8229,3.9512,-57.8466
lg,1625579816869712134,0,0.6902,-0.2424,0.6685,516,6.5308,-9.8267,-0.5493,99,1.3917,1.1135,-50.1364,-17.6864,28,0.07,11683,3.9512,-57.6213
lg,1625579816869731082,0,0.707,-0.2229,0.6584,517,6.4697,-10.498,-0.4272,99,1.3927,1.1135,-50.3406,-17.5999,28,0.069,7901,3.9512,-57.4171
lg,1625579816869749622,0,0.7356,-0.2256,0.6731,518,5.0049,-10.9253,-0.7324,99,1.3927,1.1125,-50.5775,-17.5602,28,0.07,10807,3.9512,-57.2261
lg,1625579816869767848,0,0.7368,-0.2473,0.688,519,5.0659,-11.5356,-0.5493,99,1.3927,1.1135,-50.7952,-17.594,28,0.07,7962,3.9512,-56.9667
lg,1625579816869786462,0,0.7498,-0.2368,0.6858,520,5.0659,-10.7422,-0.7324,99,1.3927,1.1135,-51.004,-17.5748,28,0.07,7989,3.9512,-56.7591
lg,1625579816869804947,0,0.7729,-0.2134,0.6929,521,4.8828,-9.9487,-0.7935,99,1.3917,1.1125,-51.2102,-17.4648,28,0.069,7987,3.9512,-56.6359
lg,1625579816869822432,0,0.7427,-0.2312,0.6875,522,5.9814,-7.6294,-0.3662,99,1.3927,1.1125,-51.2703,-17.3662,27,0.07,8178,3.9512,-56.4773
lg,1625579816869839361,0,0.7354,-0.2344,0.6707,523,5.4321,-4.8828,-0.3052,99,1.3907,1.1125,-51.2363,-17.2847,27,0.069,9153,3.9512,-56.3418
lg,1625579816869857290,0,0.7261,-0.2322,0.6714,524,5.5542,-5.0049,0.6714,99,1.3907,1.1125,-51.1824,-17.2422,27,0.069,8073,3.9512,-56.1479
lg,1625579816869875200,0,0.7117,-0.22,0.666,525,4.9438,-4.7607,0.6104,99,1.3907,1.1125,-51.1138,-17.1836,27,0.069,8129,3.9512,-55.9892
lg,1625579816869893074,0,0.6917,-0.2334,0.6804,526,4.1504,-5.6152,1.0376,99,1.3887,1.1125,-51.0154,-17.2226,28,0.069,8169,3.9512,-55.7623
lg,1625579816869911337,0,0.7021,-0.2354,0.6643,527,4.8828,-8.8501,0.9155,99,1.3907,1.1125,-51.0848,-17.297,28,0.069,8191,3.9512,-55.4633
lg,1625579816869932618,0,0.7031,-0.2319,0.6758,528,5.3101,-9.7046,1.1597,99,1.3907,1.1125,-51.1938,-17.35,28,0.069,8192,3.9512,-55.1734
lg,1625579816869950677,0,0.7341,-0.2371,0.6804,529,5.0659,-10.9253,0.1221,99,1.3907,1.1125,-51.3684,-17.3929,27,0.069,8253,3.9512,-54.896
lg,1625579816869968736,0,0.7366,-0.2305,0.667,530,4.8828,-10.8643,0.3662,99,1.3907,1.1125,-51.5577,-17.4463,27,0.069,8219,3.9512,-54.6104
lg,1625579816869985665,0,0.7546,-0.2373,0.675,531,4.6387,-10.2539,0.2441,99,1.3907,1.1125,-51.7294,-17.5069,27,0.069,8265,3.9512,-54.3338
lg,1625579816870002483,0,0.7583,-0.2419,0.6809,532,5.0659,-8.8501,0.6104,99,1.3897,1.1125,-51.8313,-17.5544,27,0.069,8292,3.9512,-54.0557
lg,1625579816870019430,0,0.7515,-0.2351,0.676,533,5.0049,-7.2632,0.4883,99,1.3907,1.1125,-51.8708,-17.5556,28,0.069,8323,3.9512,-53.8309
lg,1625579816870035841,0,0.7341,-0.228,0.6609,534,4.6997,-5.3711,1.0376,99,1.3907,1.1125,-51.831,-17.5601,28,0.069,8326,3.9512,-53.6143
lg,1625579816870052214,0,0.7295,-0.2476,0.6621,535,4.1504,-4.1504,0.9155,99,1.3907,1.1125,-51.7291,-17.6012,28,0.069,8330,3.9512,-53.3612
lg,1625579816870069328,0,0.7056,-0.2368,0.6877,536,5.0049,-5.249,1.4648,99,1.3907,1.1125,-51.5962,-17.6104,28,0.068,8338,3.9512,-53.1224
lg,1625579816870086202,0,0.6951,-0.2314,0.6687,537,4.2725,-6.958,1.2207,99,1.3907,1.1135,-51.5873,-17.6594,27,0.069,8398,3.9512,-52.8495
lg,1625579816870103223,0,0.7021,-0.2288,0.6663,538,5.0659,-11.6577,1.2817,99,1.3917,1.1135,-51.7344,-17.7505,27,0.069,10786,3.9512,-52.4995
lg,1625579816870120356,0,0.7388,-0.2246,0.6536,539,5.6152,-13.4888,1.0376,99,1.3917,1.1135,-52.0257,-17.8342,27,0.068,8471,3.9512,-52.1292
lg,1625579816870136915,0,0.7446,-0.217,0.6941,540,5.4932,-12.8784,1.5259,99,1.3917,1.1135,-52.2276,-17.8654,27,0.068,8553,3.9512,-51.7974
lg,1625579816870153825,0,0.752,-0.29,0.6748,541,2.0752,-12.3291,3.418,99,1.3917,1.1135,-52.3809,-18.3865,27,0.068,8540,3.9512,-51.1428
lg,1625579816870170032,0,0.8049,-0.2173,0.6482,542,6.5308,-11.2305,1.6479,99,1.3917,1.1135,-52.6593,-18.3923,27,0.068,8530,3.9512,-50.8056
lg,1625579816870186535,0,0.7542,-0.2668,0.6794,543,4.6387,-4.8828,1.0376,99,1.3917,1.1135,-52.5512,-18.4712,27,0.068,8944,3.9512,-50.5329
lg,1625579816870203631,0,0.7239,-0.2388,0.6863,544,5.6152,-4.7607,0.6714,99,1.3897,1.1125,-52.4052,-18.3851,27,0.068,9026,3.9512,-50.3707
lg,1625579817227686979,0,0.7432,-0.2354,0.6606,545,5.9814,-5.6763,-0.3662,99,1.3917,1.1135,-52.3819,-18.2691,27,0.069,24598,3.9512,-50.2376
lg,1625579817227729189,0,0.7183,-0.2415,0.6406,546,5.4321,-5.7983,-0.1221,99,1.3917,1.1135,-52.3509,-18.2407,27,0.069,10994,3.9512,-50.0457
lg,1625579817227750026,0,0.7156,-0.2275,0.6504,547,4.9438,-8.1787,-0.9766,99,1.3917,1.1135,-52.4092,-18.1682,27,0.068,7975,3.9512,-49.9061
lg,1625579817227770104,0,0.7158,-0.2268,0.6465,548,4.6387,-9.8877,-0.9155,99,1.3917,1.1135,-52.5356,-18.1439,27,0.068,7987,3.9512,-49.7233
lg,1625579817227788551,0,0.7053,-0.2292,0.6726,549,4.2725,-11.6577,-0.6714,99,1.3917,1.1135,-52.6832,-18.2229,27,0.069,10651,3.9512,-49.4503
lg,1625579817227807018,0,0.7195,-0.2468,0.6636,550,3.6621,-14.2822,-0.7324,99,1.3917,1.1135,-52.9309,-18.3698,27,0.069,7908,3.9512,-49.123
lg,1625579817227825187,0,0.718,-0.2429,0.6555,551,2.9907,-14.6484,-1.0986,99,1.3917,1.1135,-53.1986,-18.5248,27,0.069,7852,3.9512,-48.815
lg,1625579817227842709,0,0.7393,-0.2239,0.6514,552,3.2349,-15.0146,-0.6714,99,1.3917,1.1135,-53.5122,-18.6316,27,0.069,7923,3.9512,-48.5245
lg,1625579817227859786,0,0.6895,-0.1482,0.5566,553,5.4321,-11.1084,3.418,99,1.3917,1.1135,-53.7384,-18.6172,27,0.069,7900,3.9512,-48.1998
lg,1625579817227876789,0,0.7803,-0.2634,0.6782,554,2.5635,-23.5596,1.0376,99,1.3917,1.1135,-54.3275,-19.1018,27,0.068,8860,3.9512,-47.5184
lg,1625579817227893532,0,0.8047,-0.2754,0.6855,555,1.1597,-14.6484,0.1221,99,1.3907,1.1125,-54.5873,-19.4533,27,0.069,10187,3.9512,-47.0766
lg,1625579817227909980,0,0.7712,-0.2295,0.6777,556,3.2959,-12.3291,-1.0986,99,1.3907,1.1125,-54.6427,-19.416,28,0.068,7990,3.9512,-46.9219
lg,1625579817227926927,0,0.7766,-0.2476,0.6729,557,2.9297,-7.9956,-0.3662,99,1.3907,1.1115,-54.6406,-19.4582,28,0.068,8134,3.9512,-46.7373
lg,1625579817227943430,0,0.7876,-0.2502,0.6606,558,3.0518,-7.019,-0.7935,99,1.3917,1.1125,-54.6399,-19.4772,28,0.068,8001,3.9512,-46.5845
lg,1625579817227959544,0,0.7515,-0.239,0.6626,559,3.2349,-3.54,-0.061,99,1.3917,1.1135,-54.4507,-19.42,28,0.068,11820,3.9512,-46.4997
lg,1625579817227976213,0,0.7268,-0.2466,0.6389,560,2.8076,-3.418,0.1221,99,1.3917,1.1135,-54.2569,-19.4484,27,0.068,8724,3.9512,-46.3557
lg,1625579817227993309,0,0.7097,-0.2283,0.6333,561,2.6855,-5.3101,0.3662,99,1.3917,1.1135,-54.1302,-19.468,27,0.068,8555,3.9512,-46.2028
lg,1625579817228010830,0,0.6973,-0.239,0.6382,562,1.6479,-6.6528,0.4272,99,1.3917,1.1135,-54.0579,-19.6487,27,0.068,8156,3.9512,-45.9092
lg,1625579817228027926,0,0.6958,-0.2271,0.6504,563,1.9531,-9.8267,1.2817,99,1.3917,1.1135,-54.047,-19.7929,27,0.068,8169,3.9424,-45.622
lg,1625579817228044910,0,0.6931,-0.1575,0.6921,564,1.5869,-11.4746,2.1362,99,1.3917,1.1135,-54.0586,-19.7105,27,0.067,9899,3.9424,-45.4998
lg,1625579817228061969,0,0.7136,-0.3535,0.7219,565,-4.7607,-19.4702,3.0518,99,1.3917,1.1135,-54.2434,-20.7423,27,0.067,8271,3.9424,-44.5882
lg,1625579817228079379,0,0.7815,-0.2412,0.6824,566,2.1973,-18.0054,3.2959,99,1.3927,1.1135,-54.5693,-21.1189,27,0.067,9185,3.9424,-43.9863
lg,1625579817228096197,0,0.7791,-0.2537,0.6577,567,2.6245,-14.4653,1.4648,99,1.3907,1.1135,-54.8014,-21.3775,28,0.067,9150,3.9424,-43.5345
lg,1625579817228113199,0,0.7725,-0.251,0.6687,568,3.1128,-12.7563,1.8921,99,1.3907,1.1125,-54.9303,-21.5727,28,0.067,8552,3.9424,-43.1234
lg,1625579817228129499,0,0.7566,-0.252,0.6589,569,3.2349,-12.146,1.709,99,1.3907,1.1125,-55.0242,-21.751,28,0.067,8392,3.9424,-42.7304
lg,1625579817228145649,0,0.7493,-0.2637,0.6558,570,3.54,-9.5825,2.3193,99,1.3907,1.1125,-54.9974,-21.9352,28,0.068,8371,3.9424,-42.3311
lg,1625579817228162263,0,0.7573,-0.2515,0.6353,571,4.0283,-9.2773,2.5024,99,1.3907,1.1125,-55.0069,-22.0814,27,0.067,8403,3.9424,-41.9452
lg,1625579817228178785,0,0.7522,-0.2451,0.6523,572,4.4556,-9.5215,3.1738,99,1.3907,1.1125,-54.9853,-22.1982,27,0.067,8409,3.9424,-41.5531
lg,1625579817228195510,0,0.7302,-0.2766,0.6311,573,2.8687,-8.3618,5.127,99,1.3907,1.1135,-54.8708,-22.5959,27,0.067,9517,3.9424,-40.9497
lg,1625579817228212142,0,0.7803,-0.2502,0.634,574,5.4321,-12.085,2.9907,99,1.3907,1.1125,-55.0135,-22.7457,28,0.067,10300,3.9424,-40.4772
lg,1625579817228229016,0,0.7532,-0.259,0.6448,575,4.0283,-8.3008,1.9531,99,1.3907,1.1135,-54.9673,-22.8222,28,0.067,8498,3.9424,-40.1669
lg,1625579817228289915,0,0.7583,-0.252,0.6426,576,5.4321,-7.9956,2.3193,99,1.3907,1.1125,-54.9213,-22.8299,28,0.067,8508,3.9424,-39.862
lg,1625579817606312713,0,0.7546,-0.2639,0.635,577,5.249,-9.7656,2.6855,99,1.3917,1.1135,-54.934,-22.9572,28,0.067,24387,3.9424,-39.4407
lg,1625579817606376558,0,0.7637,-0.2585,0.6406,578,5.6152,-8.2397,2.1973,99,1.3897,1.1135,-54.9061,-22.9776,28,0.066,9472,3.9424,-39.1192
lg,1625579817606396580,0,0.7686,-0.2324,0.6592,579,6.4087,-7.2021,1.9531,99,1.3917,1.1135,-54.833,-22.783,28,0.066,11393,3.9424,-38.948
lg,1625579817606415787,0,0.7488,-0.1992,0.5833,580,9.7046,-4.6997,3.2959,99,1.3917,1.1135,-54.7716,-22.4916,28,0.066,8074,3.9424,-38.7586
lg,1625579817606434123,0,0.7903,-0.292,0.6694,581,7.5073,-10.2539,1.4038,99,1.3917,1.1135,-54.7593,-22.2291,28,0.066,9228,3.9424,-38.584
lg,1625579817606451700,0,0.7776,-0.2673,0.6643,582,6.897,-2.7466,0.8545,99,1.3917,1.1135,-54.54,-22.0345,28,0.066,7965,3.9424,-38.4762
lg,1625579817606469444,0,0.752,-0.2512,0.6536,583,8.606,-3.0518,-0.061,99,1.3917,1.1135,-54.3424,-21.6972,28,0.066,7978,3.9424,-38.4466
lg,1625579817606486651,0,0.7515,-0.2578,0.6499,584,8.0566,-2.8076,0.4272,99,1.3927,1.1135,-54.1994,-21.4089,27,0.066,7962,3.9424,-38.3729
lg,1625579817606503690,0,0.7632,-0.2361,0.6514,585,8.5449,-4.1504,-0.6104,99,1.3917,1.1135,-54.0926,-21.0446,27,0.066,8850,3.9424,-38.3704
lg,1625579817606521249,0,0.741,-0.2419,0.614,586,8.4229,-2.4414,-0.6104,99,1.3907,1.1125,-53.9482,-20.7385,27,0.066,8234,3.9424,-38.3393
lg,1625579817606599837,0,0.7356,-0.2471,0.6194,587,7.1411,-2.5635,-0.8545,99,1.3897,1.1125,-53.798,-20.4972,28,0.065,8014,3.9424,-38.3015
lg,1625579817606622785,0,0.7222,-0.261,0.6274,588,6.2866,-4.9438,-0.9766,99,1.3907,1.1125,-53.7021,-20.3867,28,0.066,8041,3.9424,-38.1681
lg,1625579817606642955,0,0.7271,-0.2476,0.635,589,6.958,-8.3618,-1.0376,99,1.3907,1.1135,-53.742,-20.2489,28,0.066,8059,3.9424,-38.0086
lg,1625579817606661051,0,0.7344,-0.271,0.6414,590,7.5073,-11.2305,-1.709,99,1.3917,1.1135,-53.8846,-20.1897,28,0.066,8151,3.9424,-37.7588
lg,1625579817606680202,0,0.7751,-0.2517,0.6521,591,7.1411,-11.2915,-2.0142,99,1.3907,1.1125,-54.0827,-20.0487,27,0.066,9881,3.9424,-37.594
lg,1625579817606699483,0,0.7644,-0.2637,0.6401,592,6.5918,-10.376,-1.77,99,1.3907,1.1135,-54.1857,-19.9463,27,0.066,8155,3.9424,-37.4212
lg,1625579817606717671,0,0.7639,-0.2568,0.6675,593,6.8359,-8.4839,-1.8311,99,1.3907,1.1135,-54.2235,-19.7818,27,0.066,8237,3.9424,-37.3051
lg,1625579817606737304,0,0.7529,-0.26,0.644,594,6.5308,-6.958,-1.3428,99,1.3907,1.1135,-54.2137,-19.6757,27,0.066,8225,3.9424,-37.1532
lg,1625579817606755104,0,0.7615,-0.2507,0.6475,595,7.6294,-7.019,-1.0986,99,1.3907,1.1125,-54.216,-19.5059,27,0.066,8265,3.9424,-37.0121
lg,1625579817606773329,0,0.7346,-0.2383,0.6445,596,7.019,-6.4697,-1.4038,99,1.3907,1.1135,-54.1871,-19.3855,27,0.065,8286,3.9424,-36.8619
lg,1625579817606790721,0,0.7278,-0.2532,0.6516,597,7.6294,-6.5308,-1.2817,99,1.3897,1.1135,-54.1172,-19.2137,27,0.066,8315,3.9424,-36.7312
lg,1625579817606807242,0,0.7532,-0.2534,0.6274,598,7.1411,-7.0801,-0.1831,99,1.3907,1.1135,-54.1314,-19.1669,27,0.065,8307,3.9424,-36.4862
lg,1625579817606824319,0,0.749,-0.2549,0.6438,599,6.2866,-6.8359,-0.6104,99,1.3907,1.1135,-54.1095,-19.113,27,0.065,8340,3.9424,-36.2863
lg,1625579817606857973,0,0.7505,-0.2517,0.6458,600,7.5073,-7.5073,-0.061,99,1.3897,1.1125,-54.1073,-19.0395,27,0.066,8374,3.9424,-36.0455
lg,1625579817606879569,0,0.7422,-0.2451,0.6372,601,6.958,-7.6904,0.3662,99,1.3897,1.1135,-54.1109,-19.0046,27,0.065,8376,3.9424,-35.7805
lg,1625579817606898795,0,0.7285,-0.252,0.584,602,8.2397,-5.4321,3.7842,99,1.3907,1.1135,-54.0462,-19.1576,28,0.066,8416,3.9424,-35.2625
lg,1625579817606917206,0,0.7847,-0.2397,0.6301,603,1.77,-10.8032,1.2207,99,1.3907,1.1125,-54.2533,-19.1082,28,0.065,8472,3.9424,-34.8725
lg,1625579817606934949,0,0.7649,-0.2839,0.6753,604,5.9814,-5.127,0.4883,99,1.3917,1.1135,-54.11,-19.1546,28,0.066,10358,3.9424,-34.5895
lg,1625579817606953175,0,0.76,-0.2488,0.6658,605,7.6904,-4.4556,0.6714,99,1.3917,1.1135,-53.9675,-19.0818,28,0.065,8683,3.9424,-34.3579
lg,1625579817606970307,0,0.7742,-0.2593,0.6455,606,7.9346,-5.7983,1.0376,99,1.3917,1.1135,-53.9237,-19.043,27,0.066,8433,3.9424,-34.0642
lg,1625579817606987310,0,0.7854,-0.2573,0.6367,607,6.897,-2.7466,1.8311,99,1.3917,1.1135,-53.7876,-19.0362,27,0.065,8559,3.9424,-33.7843
lg,1625579817607004832,0,0.7295,-0.2542,0.6414,608,6.8359,0.5493,1.709,99,1.3917,1.1135,-53.4478,-18.9533,27,0.066,8538,3.9424,-33.5968
lg,1625579817960464824,0,0.7471,-0.2397,0.6335,609,7.9956,-5.6152,1.9531,99,1.3917,1.1145,-53.3996,-18.945,27,0.066,25677,3.9424,-33.2583
lg,1625579817960499886,0,0.7393,-0.2373,0.6509,610,7.2632,-4.5776,1.9531,99,1.3907,1.1135,-53.273,-18.8772,27,0.065,9290,3.9424,-32.9999
lg,1625579817960520537,0,0.7139,-0.3008,0.6538,611,3.418,-3.7842,4.8218,99,1.3917,1.1135,-53.0082,-19.3154,27,0.065,7908,3.9424,-32.3982
lg,1625579817960539837,0,0.782,-0.2146,0.6162,612,10.2539,-8.8501,2.8687,99,1.3917,1.1135,-53.1732,-19.1952,28,0.065,7943,3.9424,-32.0309
lg,1625579817960558303,0,0.7441,-0.2578,0.6641,613,5.9204,-4.5166,2.3804,99,1.3877,1.1105,-53.0237,-19.2435,28,0.065,7954,3.9424,-31.7125
lg,1625579817960575899,0,0.7302,-0.2458,0.647,614,6.897,-8.3008,0.9155,99,1.3917,1.1135,-53.0517,-19.2239,28,0.065,11948,3.9424,-31.4202
lg,1625579817960594217,0,0.7756,-0.2546,0.6438,615,7.2632,-10.0098,1.2207,99,1.3917,1.1135,-53.2059,-19.2689,28,0.066,9858,3.9424,-31.0436
lg,1625579817960613183,0,0.7705,-0.2556,0.6438,616,7.0801,-8.4229,1.1597,99,1.3917,1.1145,-53.2873,-19.2931,28,0.066,7893,3.9424,-30.7033
lg,1625579817960631223,0,0.7271,-0.2786,0.6299,617,6.7139,-4.2725,4.4556,99,1.3917,1.1135,-53.1111,-19.5268,28,0.064,7968,3.9424,-30.1647
lg,1625579817960648485,0,0.7839,-0.2483,0.6479,618,10.0708,-9.9487,2.1973,99,1.3917,1.1135,-53.2556,-19.4703,28,0.065,9503,3.9424,-29.7572
lg,1625579817960666414,0,0.77,-0.2554,0.6509,619,7.019,-4.4556,1.3428,99,1.3917,1.1145,-53.1726,-19.4175,28,0.065,9186,3.9424,-29.5083
lg,1625579817960683399,0,0.7554,-0.2375,0.6428,620,7.9346,-3.2349,1.0986,99,1.3907,1.1135,-53.0244,-19.3622,28,0.065,8219,3.9424,-29.2712
lg,1625579817960700402,0,0.7349,-0.2563,0.6487,621,6.958,-3.54,1.5259,99,1.3897,1.1135,-52.865,-19.316,28,0.065,8060,3.9424,-29.0226
lg,1625579817960716756,0,0.7485,-0.2434,0.6438,622,6.4087,-4.1504,1.6479,99,1.3907,1.1135,-52.7682,-19.2698,28,0.065,8089,3.9424,-28.7841
lg,1625579817960733370,0,0.7029,-0.1572,0.5498,623,6.7749,-5.0659,1.8311,99,1.3907,1.1135,-52.7372,-18.9407,28,0.065,8067,3.9424,-28.5879
lg,1625579817960749688,0,0.7134,-0.3269,0.6609,624,1.6479,-4.8218,4.2114,99,1.3897,1.1125,-52.5155,-19.5038,28,0.065,8087,3.9424,-27.9497
lg,1625579817960795862,0,0.7634,-0.2246,0.5967,625,8.9722,-9.8267,2.5635,99,1.3907,1.1135,-52.7391,-19.485,28,0.065,8200,3.9424,-27.5401
lg,1625579817960814569,0,0.7324,-0.2661,0.6274,626,5.188,-7.5684,1.5259,99,1.3917,1.1135,-52.7644,-19.6359,27,0.065,10282,3.9424,-27.157
lg,1625579817960831294,0,0.7004,-0.1548,0.6482,627,7.3242,-7.5684,3.418,99,1.3907,1.1145,-52.7441,-19.3601,27,0.065,8868,3.9424,-27.0057
lg,1625579817960848297,0,0.7493,-0.3352,0.6836,628,0.8545,-14.0991,3.2959,99,1.3907,1.1135,-52.8954,-20.0478,27,0.063,9910,3.9424,-26.2366
lg,1625579817960865356,0,0.7861,-0.2441,0.6177,629,6.7749,-13.4277,3.6011,99,1.3917,1.1135,-52.9974,-20.2421,27,0.064,8329,3.9424,-25.7348
lg,1625579817960882062,0,0.7512,-0.2346,0.6562,630,4.5776,-8.0566,3.1128,99,1.3907,1.1135,-53.0079,-20.3298,27,0.063,8283,3.9424,-25.3803
lg,1625579817960899176,0,0.7598,-0.2791,0.6487,631,4.9438,-10.6812,3.2349,99,1.3907,1.1135,-53.112,-20.6177,27,0.064,8590,3.9424,-24.8273
lg,1625579817960915809,0,0.7932,-0.2476,0.6489,632,5.4932,-9.5215,3.418,99,1.3897,1.1135,-53.2307,-20.7532,27,0.063,9965,3.9424,-24.3843
lg,1625579817960932515,0,0.7644,-0.2415,0.6221,633,5.8594,-5.5542,3.479,99,1.3897,1.1135,-53.2001,-20.8115,28,0.063,8347,3.9424,-24.0242
lg,1625579817960948796,0,0.7529,-0.2822,0.6511,634,4.5776,-4.9438,3.3569,99,1.3897,1.1135,-53.0701,-20.9915,28,0.063,8410,3.9424,-23.6149
lg,1625579817960965447,0,0.7561,-0.2578,0.6445,635,6.1646,-6.2866,2.3804,99,1.3897,1.1135,-53.0315,-21.0123,28,0.063,8472,3.9424,-23.293
lg,1625579817960981542,0,0.7476,-0.2595,0.6355,636,5.6152,-5.4321,1.6479,99,1.3897,1.1135,-52.9734,-21.0192,28,0.063,8403,3.9424,-23.0236
lg,1625579817960998508,0,0.7314,-0.239,0.637,637,5.9204,-6.2866,1.6479,99,1.3917,1.1135,-52.9348,-20.9561,28,0.063,8468,3.9424,-22.7934
lg,1625579817961015159,0,0.7273,-0.1858,0.6646,638,7.0801,-6.8359,1.709,99,1.3907,1.1135,-52.9929,-20.9275,28,0.063,8480,3.9424,-22.4922
lg,1625579817961031254,0,0.7581,-0.3574,0.6777,639,1.2207,-11.6577,1.8921,99,1.3897,1.1135,-53.0625,-21.5098,28,0.063,8529,3.9424,-21.8403
lg,1625579817961112009,0,0.78,-0.2529,0.6384,640,6.2866,-9.4604,1.4038,99,1.3897,1.1135,-53.2005,-21.5105,28,0.063,8521,3.9424,-21.5231
lg,1625579818302538185,0,0.7517,-0.2473,0.6472,641,5.0049,-8.9111,0.6104,99,1.3907,1.1135,-53.2734,-21.4812,28,0.064,24307,3.9424,-21.2937
lg,1625579818302623254,0,0.7803,-0.2676,0.6304,642,5.4932,-8.9111,0,99,1.3907,1.1135,-53.4072,-21.4961,28,0.064,8737,3.9424,-21.0263
lg,1625579818302646035,0,0.7231,-0.1809,0.6038,643,7.9956,-4.6997,1.5869,99,1.3877,1.1105,-53.3694,-21.1308,27,0.063,7930,3.9424,-20.9886
lg,1625579818302669076,0,0.738,-0.3364,0.6692,644,3.0518,-11.6577,0.4883,99,1.3897,1.1135,-53.4368,-21.5166,27,0.063,11883,3.9424,-20.466
lg,1625579818302690079,0,0.7612,-0.2532,0.6533,645,4.8218,-9.5215,1.1597,99,1.3867,1.1145,-53.5161,-21.5481,27,0.063,10102,3.9424,-20.1758
lg,1625579818302710749,0,0.7441,-0.2583,0.6179,646,5.4321,-8.8501,0.2441,99,1.3907,1.1145,-53.5885,-21.601,27,0.063,10813,3.9424,-19.8744
lg,1625579818302731179,0,0.7661,-0.2576,0.6472,647,5.7373,-10.1929,0,99,1.3907,1.1145,-53.74,-21.596,27,0.063,7919,3.9424,-19.6034
lg,1625579818302751497,0,0.7878,-0.2607,0.6477,648,4.8828,-8.3618,0.3052,99,1.3907,1.1135,-53.819,-21.5914,27,0.063,8359,3.9424,-19.3693
lg,1625579818302772037,0,0.7651,-0.2808,0.6243,649,6.0425,-6.3477,1.2207,99,1.3907,1.1135,-53.7981,-21.6499,27,0.064,7953,3.9424,-19.0438
lg,1625579818302791503,0,0.7458,-0.2686,0.637,650,5.5542,-6.1646,1.4648,99,1.3907,1.1145,-53.7635,-21.6925,27,0.063,8024,3.9424,-18.7416
lg,1625579818302812692,0,0.7517,-0.2703,0.6492,651,5.8594,-7.4463,1.4648,99,1.3907,1.1145,-53.7305,-21.717,27,0.063,8022,3.9424,-18.4346
lg,1625579818302833973,0,0.782,-0.269,0.6274,652,4.9438,-5.6152,1.5259,99,1.3897,1.1145,-53.7078,-21.768,27,0.063,8056,3.9424,-18.1505
lg,1625579818302854995,0,0.7771,-0.2488,0.635,653,5.188,-5.6763,1.3428,99,1.3907,1.1145,-53.6026,-21.7153,27,0.063,8068,3.9424,-17.96
lg,1625579818302871960,0,0.7778,-0.2612,0.6272,654,4.4556,-2.5635,2.0142,99,1.3887,1.1135,-53.4327,-21.6638,28,0.063,8845,3.9424,-17.7776
lg,1625579818302935619,0,0.7515,-0.2622,0.6284,655,4.6387,-2.6245,1.9531,99,1.3887,1.1135,-53.2641,-21.6641,28,0.063,8224,3.9424,-17.5618
lg,1625579818302957770,0,0.7434,-0.252,0.6304,656,4.7607,-3.9062,1.9531,99,1.3887,1.1135,-53.1406,-21.6456,28,0.064,8395,3.9424,-17.346
lg,1625579818302974532,0,0.7327,-0.2556,0.6436,657,4.7607,-5.9204,1.8921,99,1.3887,1.1135,-53.0586,-21.6584,28,0.063,8381,3.9424,-17.0884
lg,1625579818302991665,0,0.7449,-0.2527,0.6292,658,4.5166,-6.1646,1.5259,99,1.3897,1.1135,-53.0362,-21.6764,28,0.064,8229,3.9424,-16.8403
lg,1625579818303008130,0,0.7505,-0.2544,0.645,659,4.5776,-6.2256,1.4038,99,1.3877,1.1135,-53.0019,-21.6702,28,0.063,8266,3.9424,-16.6118
lg,1625579818303025374,0,0.7239,-0.2893,0.6123,660,3.7842,-4.6997,3.9673,99,1.3887,1.1135,-52.8629,-21.9611,28,0.063,8303,3.9424,-16.1263
lg,1625579818303042654,0,0.7805,-0.2522,0.6069,661,0.4272,-10.498,1.3428,99,1.3887,1.1135,-52.9972,-21.967,28,0.063,8306,3.9424,-15.7685
lg,1625579818303060065,0,0.7671,-0.261,0.6345,662,4.8218,-4.0283,2.0142,99,1.3887,1.1135,-52.9102,-21.9624,28,0.063,8268,3.9424,-15.5367
lg,1625579818303077086,0,0.7312,-0.2622,0.635,663,4.7607,-4.7607,1.5869,99,1.3887,1.1135,-52.8051,-21.9573,28,0.063,8380,3.9424,-15.3101
lg,1625579818303094163,0,0.7534,-0.2676,0.6479,664,4.4556,-8.5449,1.5259,99,1.3887,1.1135,-52.8545,-22.0363,28,0.064,8882,3.9424,-14.9925
lg,1625579818303109961,0,0.7788,-0.2827,0.6482,665,3.6011,-5.8594,1.77,99,1.3887,1.1135,-52.8271,-22.1546,27,0.063,8414,3.9424,-14.6895
lg,1625579818303125834,0,0.7573,-0.2649,0.6377,666,4.4556,-3.6621,1.4648,99,1.3887,1.1145,-52.7197,-22.1303,27,0.064,8415,3.9424,-14.5005
lg,1625579818303141837,0,0.7598,-0.2576,0.6313,667,4.5166,-3.2959,1.0376,99,1.3887,1.1135,-52.6274,-22.0599,27,0.064,8434,3.9424,-14.3596
lg,1625579818303158025,0,0.7485,-0.259,0.6365,668,4.6997,-3.2349,1.6479,99,1.3887,1.1135,-52.5022,-22.0111,27,0.063,8479,3.9424,-14.1824
lg,1625579818303174361,0,0.7275,-0.2532,0.6245,669,4.4556,-3.9062,1.3428,99,1.3887,1.1135,-52.4014,-21.9684,28,0.063,8473,3.9424,-14.0089
lg,1625579818303204310,0,0.7324,-0.2632,0.6367,670,4.7607,-6.0425,1.709,99,1.3887,1.1135,-52.3602,-21.9917,28,0.064,8666,3.9424,-13.7451
lg,1625579818303223072,0,0.7559,-0.261,0.647,671,4.4556,-7.2632,1.1597,99,1.3887,1.1135,-52.4047,-22.0251,28,0.064,8620,3.9424,-13.4765
lg,1625579818303239630,0,0.7642,-0.2705,0.6553,672,4.4556,-6.958,1.2207,99,1.3877,1.1135,-52.4194,-22.0515,27,0.064,8608,3.9424,-13.2223
lg,1625579818678967490,0,0.7595,-0.261,0.6377,673,5.0049,-5.7373,1.5869,99,1.3887,1.1145,-52.4084,-22.041,27,0.064,24724,3.9424,-12.9831
lg,1625579818679004922,0,0.7561,-0.2681,0.6462,674,5.127,-4.2114,2.0142,99,1.3857,1.1105,-52.3133,-22.0287,27,0.065,8782,3.9446,-12.746
lg,1625579818679025555,0,0.7544,-0.252,0.6404,675,5.6763,-4.1504,1.4038,99,1.3897,1.1145,-52.2451,-21.9176,27,0.064,12035,3.9446,-12.5846
lg,1625579818679044928,0,0.7607,-0.271,0.6399,676,5.8594,-4.2725,1.0376,99,1.3897,1.1145,-52.1881,-21.8529,27,0.064,9922,3.9446,-12.3876
lg,1625579818679063191,0,0.7585,-0.2568,0.6262,677,5.4932,-2.6855,1.2207,99,1.3897,1.1145,-52.0987,-21.7546,27,0.064,7848,3.9446,-12.2396
lg,1625579818679080675,0,0.7483,-0.2668,0.6279,678,5.249,-2.4414,0.7324,99,1.3897,1.1145,-51.9872,-21.6734,28,0.063,7825,3.9446,-12.099
lg,1625579818679098252,0,0.7468,-0.2766,0.6489,679,5.0659,-3.54,0.8545,99,1.3897,1.1145,-51.8793,-21.633,28,0.063,7799,3.9446,-11.9192
lg,1625579818679115662,0,0.7537,-0.282,0.6499,680,4.8828,-5.249,0.8545,99,1.3897,1.1145,-51.8442,-21.6494,28,0.063,7817,3.9446,-11.6844
lg,1625579818679134795,0,0.7627,-0.2737,0.646,681,5.3101,-5.249,0.7324,99,1.3897,1.1145,-51.8362,-21.6198,27,0.063,8348,3.9446,-11.4754
lg,1625579818679152964,0,0.7666,-0.2698,0.6445,682,5.0659,-4.6387,1.4648,99,1.3887,1.1135,-51.8057,-21.6132,27,0.063,9617,3.9446,-11.2449
lg,1625579818679170208,0,0.7451,-0.2649,0.6418,683,5.249,-3.418,0.9155,99,1.3887,1.1135,-51.7146,-21.5383,27,0.063,8629,3.9446,-11.0865
lg,1625579818679187081,0,0.7375,-0.2805,0.645,684,5.188,-3.1128,0.9155,99,1.3887,1.1135,-51.5907,-21.5109,27,0.063,7946,3.9446,-10.8953
lg,1625579818679203861,0,0.7422,-0.2773,0.657,685,5.6152,-4.0283,0.6714,99,1.3887,1.1135,-51.5132,-21.4435,27,0.062,7938,3.9446,-10.7196
lg,1625579818679220605,0,0.7668,-0.2756,0.6704,686,6.5918,-5.3101,0.2441,99,1.3877,1.1135,-51.4975,-21.3215,27,0.063,7943,3.9446,-10.5547
lg,1625579818679259741,0,0.7942,-0.2712,0.6404,687,6.4697,-3.418,-0.061,99,1.3897,1.1135,-51.5032,-21.1836,27,0.063,8004,3.9446,-10.4305
lg,1625579818679280688,0,0.8032,-0.2625,0.6433,688,7.5073,-1.9531,-0.1831,99,1.3887,1.1135,-51.4446,-20.9897,27,0.064,8030,3.9446,-10.3341
lg,1625579818679298673,0,0.7917,-0.2744,0.6558,689,5.4321,4.0283,0.6104,99,1.3887,1.1135,-51.1396,-20.7947,27,0.063,8090,3.9446,-10.3393
lg,1625579818679324955,0,0.7568,-0.2905,0.6873,690,6.1035,4.7607,0.3662,99,1.3897,1.1135,-50.718,-20.5714,27,0.063,8053,3.9446,-10.3575
lg,1625579818679343902,0,0.7581,-0.291,0.6819,691,6.7139,4.8218,0.061,99,1.3897,1.1135,-50.3646,-20.2461,27,0.063,8209,3.9446,-10.4044
lg,1625579818679361868,0,0.7861,-0.2747,0.7007,692,9.2773,3.7842,-0.7324,99,1.3887,1.1135,-50.0569,-19.8234,27,0.063,8089,3.9446,-10.4962
lg,1625579818679379186,0,0.8267,-0.2959,0.73,693,9.8877,4.7607,-0.7324,99,1.3907,1.1125,-49.7279,-19.428,27,0.063,8155,3.9446,-10.5562
lg,1625579818679396670,0,0.8774,-0.312,0.7585,694,12.146,11.4136,-0.6714,99,1.3907,1.1145,-49.1861,-18.8543,27,0.065,9196,3.9446,-10.7388
lg,1625579818679415303,0,0.886,-0.3169,0.7424,695,15.1367,22.9492,-1.2817,99,1.3907,1.1145,-48.2679,-18.03,27,0.065,8201,3.9446,-11.1302
lg,1625579818679433824,0,0.8943,-0.302,0.7532,696,18.6157,32.6538,-1.9531,99,1.3917,1.1145,-47.0252,-16.92,27,0.065,8238,3.9446,-11.7195
lg,1625579818679450605,0,0.8865,-0.2939,0.759,697,20.6299,40.8325,-2.0752,99,1.3917,1.1135,-45.4304,-15.6569,28,0.065,8255,3.9446,-12.4129
lg,1625579818679467366,0,0.803,-0.2617,0.7874,698,22.3389,52.6733,-4.3335,99,1.3917,1.1135,-43.3881,-14.1746,28,0.065,8303,3.9446,-13.3376
lg,1625579818679485184,0,0.7834,-0.3113,0.8301,699,27.4048,49.4385,-7.7515,99,1.3887,1.1125,-41.4696,-12.6396,28,0.064,9408,3.9446,-14.197
lg,1625579818679501965,0,0.8411,-0.2954,0.8301,700,33.8745,50.2319,-10.437,99,1.3897,1.1135,-39.6843,-10.8454,28,0.064,8358,3.9446,-15.1079
lg,1625579818679518893,0,0.8027,-0.2776,0.8125,701,40.5273,56.9458,-13.4888,99,1.3907,1.1135,-37.6802,-8.7847,28,0.063,11146,3.9446,-16.105
lg,1625579818679552121,0,0.7805,-0.2371,0.8025,702,43.5181,60.791,-15.2588,99,1.3907,1.1135,-35.5768,-6.629,28,0.064,8395,3.9446,-17.1047
lg,1625579818679574254,0,0.7976,-0.2986,0.8716,703,43.0908,59.8145,-17.1509,99,1.3917,1.1135,-33.6741,-4.6706,28,0.064,8619,3.9446,-17.9896
lg,1625579818679590886,0,0.8242,-0.3164,0.8264,704,44.6167,53.1616,-19.2261,99,1.3907,1.1125,-32.0104,-2.8557,28,0.064,8409,3.9446,-18.7692
lg,1625579819016115144,0,0.6521,-0.2273,0.7124,705,40.9546,69.7021,-32.4097,99,1.3927,1.1135,-29.6621,-0.9003,28,0.067,24402,3.9446,-20.1217
lg,1625579819016152909,0,0.4788,-0.2219,0.708,706,37.8418,66.4062,-33.2642,100,1.3887,1.1105,-27.6142,0.5127,27,0.068,9208,3.9446,-21.2634
lg,1625579819016173245,0,0.4475,-0.2087,0.7078,707,29.1138,38.4521,-29.7241,100,1.3927,1.1135,-26.2382,1.629,27,0.069,8261,3.9446,-22.2704
lg,1625579819016192248,0,0.5049,-0.178,0.6582,708,21.3013,1.2207,-25.2075,100,1.3927,1.1135,-26.5873,2.3919,27,0.067,8121,3.9446,-23.1354
lg,1625579819016210918,0,0.5767,-0.1189,0.6426,709,10.498,-14.2212,-18.7988,100,1.3877,1.1105,-27.7123,2.7832,28,0.067,8974,3.9446,-23.8186
lg,1625579819016229143,0,0.5483,-0.0576,0.6018,710,-3.8452,-18.0054,-9.4604,100,1.3927,1.1135,-29.0996,2.1042,28,0.068,10754,3.9446,-23.9091
lg,1625579819016247145,0,0.5801,-0.041,0.5801,711,-21.1792,-23.2544,2.3804,100,1.3927,1.1135,-30.6411,1.018,28,0.071,7926,3.9446,-23.7241
lg,1625579819016265463,0,0.7041,-0.1533,0.5706,712,-34.8511,-22.1558,12.6953,100,1.3927,1.1135,-32.2907,-1.1648,28,0.07,7987,3.9446,-22.8655
lg,1625579819016284707,0,0.7666,-0.2183,0.571,713,-36.5601,-18.4937,14.2822,100,1.3917,1.1135,-33.4591,-3.5206,28,0.071,8005,3.9446,-21.8906
lg,1625579819016303098,0,0.8054,-0.2542,0.6089,714,-32.5317,3.8452,10.376,100,1.3887,1.1135,-33.974,-5.6595,28,0.07,8006,3.9446,-21.0763
lg,1625579819016320601,0,0.6714,-0.3093,0.6401,715,-23.1934,26.3062,2.8687,100,1.3907,1.1135,-33.3323,-7.2644,28,0.066,9961,3.9446,-20.6913
lg,1625579819016337381,0,0.5449,-0.2952,0.646,716,-10.9253,25.6958,-2.1973,100,1.3907,1.1135,-32.5284,-8.1906,28,0.065,8268,3.9446,-20.6059
lg,1625579819016354902,0,0.5256,-0.2305,0.6687,717,-6.2866,20.3247,-2.6245,100,1.3897,1.1135,-32.254,-8.5758,28,0.065,8140,3.9446,-20.611
lg,1625579819016372535,0,0.5642,-0.2178,0.6677,718,-0.1831,2.4414,-3.0518,100,1.3897,1.1135,-32.4376,-8.8405,28,0.065,8195,3.9446,-20.5861
lg,1625579819016419301,0,0.6626,-0.1768,0.6733,719,0.061,-1.2817,-3.2349,100,1.3897,1.1135,-32.9413,-8.9582,28,0.065,9467,3.9446,-20.6217
lg,1625579819016440897,0,0.657,-0.1592,0.6936,720,-4.5166,4.2725,-2.6855,100,1.3887,1.1135,-33.1674,-9.1867,27,0.065,8129,3.9446,-20.7059
lg,1625579819016458510,0,0.6868,-0.1436,0.6863,721,-8.8501,9.9487,-2.9297,100,1.3877,1.1115,-33.2286,-9.508,27,0.064,9022,3.9446,-20.8731
lg,1625579819016475105,0,0.687,-0.1467,0.708,722,-10.376,12.8784,-2.8076,100,1.3857,1.1125,-32.944,-9.964,27,0.065,8697,3.9446,-21.0694
lg,1625579819016492719,0,0.6677,-0.1726,0.7056,723,-11.9019,23.7427,-1.77,100,1.3857,1.1125,-32.3984,-10.4143,27,0.064,8265,3.9446,-21.2812
lg,1625579819016510129,0,0.6428,-0.2083,0.7415,724,-12.5122,35.1562,0.6104,100,1.3847,1.1135,-31.3069,-10.9517,28,0.064,8264,3.9446,-21.4596
lg,1625579819016527669,0,0.5835,-0.2441,0.7952,725,-9.3384,38.208,2.6245,100,1.3827,1.1125,-29.9387,-11.436,28,0.065,8466,3.9446,-21.5667
lg,1625579819016545060,0,0.5547,-0.2463,0.7964,726,-8.4229,38.4521,4.1504,100,1.3827,1.1125,-28.5068,-11.893,28,0.063,8301,3.9446,-21.635
lg,1625579819016562767,0,0.5581,-0.2249,0.8257,727,-5.0659,35.3394,8.728,100,1.3817,1.1135,-27.2333,-12.2412,28,0.062,8299,3.9446,-21.5251
lg,1625579819016579584,0,0.5488,-0.2207,0.8022,728,-4.8218,32.7148,11.1084,100,1.3807,1.1135,-26.1027,-12.6226,28,0.063,8321,3.9446,-21.3032
lg,1625579819016596642,0,0.5737,-0.2344,0.7932,729,-5.0659,32.1045,13.3057,100,1.3807,1.1135,-24.9985,-13.0752,28,0.062,8375,3.9446,-20.9869
lg,1625579819016613756,0,0.5798,-0.218,0.8022,730,-4.8828,36.0107,14.4653,100,1.3787,1.1115,-23.853,-13.4483,28,0.063,8341,3.9446,-20.7006
lg,1625579819016630944,0,0.5581,-0.1938,0.7708,731,-4.2114,42.2363,14.8926,100,1.3787,1.1135,-22.5124,-13.7144,28,0.063,8440,3.9446,-20.4949
lg,1625579819016647854,0,0.5127,-0.1836,0.7454,732,-4.1504,48.8281,13.3667,100,1.3787,1.1135,-20.9317,-13.9018,28,0.062,8399,3.9446,-20.439
lg,1625579819016664467,0,0.4653,-0.1746,0.7495,733,-4.1504,50.7812,13.0615,100,1.3777,1.1135,-19.1931,-14.0243,28,0.062,8443,3.9446,-20.4406
lg,1625579819016681507,0,0.4185,-0.1501,0.7458,734,-6.0425,46.875,13.4277,100,1.3767,1.1135,-17.6255,-14.1862,28,0.061,8633,3.9446,-20.408
lg,1625579819016714104,0,0.3821,-0.1445,0.7656,735,-9.8267,42.2974,13.2446,100,1.3767,1.1135,-16.1932,-14.4733,28,0.061,8460,3.9446,-20.351
lg,1625579819016733848,0,0.3257,-0.1843,0.8318,736,-13.9771,32.1655,13.9771,100,1.3767,1.1135,-14.9947,-15.0103,28,0.06,8520,3.9446,-20.1526
lg,1625579819371681348,0,0.3823,-0.2505,0.9382,737,-15.9912,-7.9346,10.437,100,1.3757,1.1145,-15.4413,-15.7742,27,0.059,25448,3.9446,-19.648
lg,1625579819371731596,0,0.4241,-0.2935,0.9712,738,-12.5732,-16.1743,6.897,100,1.3767,1.1135,-16.2659,-16.4373,27,0.06,9458,3.9446,-19.1743
lg,1625579819371753359,0,0.4492,-0.2927,0.9307,739,-9.8267,-24.6582,3.8452,100,1.3757,1.1145,-17.4919,-16.9943,27,0.06,9422,3.9446,-18.7119
lg,1625579819371773732,0,0.5151,-0.3049,0.8992,740,-8.9111,-31.189,2.9907,100,1.3757,1.1135,-19.0708,-17.5696,27,0.06,10957,3.9446,-18.18
lg,1625579819371792698,0,0.6104,-0.2991,0.8604,741,-6.3477,-29.1748,3.6621,100,1.3747,1.1145,-20.7053,-18.0543,28,0.06,7880,3.9446,-17.6317
lg,1625579819371810775,0,0.6433,-0.2866,0.8235,742,-5.4321,-24.9023,3.6621,100,1.3757,1.1145,-21.9474,-18.3983,28,0.06,7816,3.9446,-17.2351
lg,1625579819371828703,0,0.6052,-0.3044,0.822,743,-3.1128,-11.1694,4.1504,100,1.3757,1.1145,-22.8086,-18.709,28,0.059,7863,3.9446,-16.8858
lg,1625579819371845632,0,0.5742,-0.2761,0.8245,744,-3.418,-6.8359,4.8828,100,1.3757,1.1145,-23.4157,-18.95,28,0.06,7929,3.9446,-16.5926
lg,1625579819371863320,0,0.572,-0.2834,0.8074,745,-3.8452,-10.1318,5.4932,100,1.3757,1.1145,-24.1261,-19.2626,28,0.059,9070,3.9446,-16.2158
lg,1625579819371883712,0,0.585,-0.2739,0.8203,746,-3.54,-10.5591,5.6763,100,1.3747,1.1135,-24.8328,-19.5313,28,0.059,8446,3.9446,-15.8391
lg,1625579819371902437,0,0.5918,-0.2898,0.8203,747,-4.0283,-8.728,4.6997,100,1.3737,1.1135,-25.4603,-19.8224,28,0.059,7973,3.9446,-15.5159
lg,1625579819371921254,0,0.5874,-0.2852,0.8401,748,-3.7842,-8.4839,3.7842,100,1.3737,1.1135,-26.0373,-20.0529,28,0.059,7996,3.9446,-15.248
lg,1625579819371938942,0,0.582,-0.2864,0.8496,749,-3.54,-8.7891,2.4414,100,1.3737,1.1135,-26.6002,-20.2408,27,0.06,8019,3.9446,-15.0358
lg,1625579819371956537,0,0.5708,-0.3003,0.8523,750,-2.8687,-8.7891,1.4648,100,1.3747,1.1135,-27.1254,-20.4078,27,0.06,7996,3.9446,-14.8534
lg,1625579819371974151,0,0.5366,-0.3096,0.8552,751,-2.8687,-8.4839,0.9766,100,1.3747,1.1135,-27.5561,-20.5771,27,0.059,8042,3.9446,-14.6895
lg,1625579819371991357,0,0.5823,-0.2766,0.8379,752,-1.5259,-9.3994,0.3052,100,1.3737,1.1125,-28.1272,-20.6215,27,0.06,8014,3.9446,-14.5696
lg,1625579819372041402,0,0.5725,-0.2996,0.8606,753,-1.8311,-8.8501,-0.3662,100,1.3747,1.1135,-28.6135,-20.6939,27,0.059,8053,3.9446,-14.4715
lg,1625579819372062905,0,0.5979,-0.2832,0.8323,754,-1.9531,-9.8267,-0.6714,100,1.3747,1.1135,-29.1995,-20.7545,27,0.059,8061,3.9446,-14.3588
lg,1625579819372080815,0,0.5999,-0.292,0.834,755,-2.0752,-8.8501,-0.3052,100,1.3737,1.1135,-29.7222,-20.8407,27,0.059,8086,3.9446,-14.257
lg,1625579819372144640,0,0.6338,-0.3086,0.8306,756,-1.4038,-6.4697,0.1831,100,1.3727,1.1135,-30.1836,-20.9306,28,0.059,8744,3.9446,-14.1538
lg,1625579819372164717,0,0.6113,-0.3071,0.8262,757,-2.0142,0.7935,1.77,100,1.3737,1.1135,-30.3011,-21.0162,28,0.059,8170,3.9446,-14.1039
lg,1625579819372183201,0,0.5828,-0.2874,0.7878,758,-2.1362,3.9062,2.5024,100,1.3737,1.1135,-30.2897,-21.08,28,0.059,8162,3.9446,-14.083
lg,1625579819372202686,0,0.5835,-0.3154,0.792,759,-2.3804,6.5308,3.54,100,1.3737,1.1145,-30.0598,-21.1824,28,0.059,8470,3.9446,-14.047
lg,1625579819372221892,0,0.522,-0.3113,0.8169,760,-2.8076,7.6904,4.6997,100,1.3737,1.1145,-29.7293,-21.3119,28,0.059,8282,3.9446,-13.9837
lg,1625579819372239747,0,0.4998,-0.3044,0.8176,761,-3.1738,5.4321,5.127,100,1.3727,1.1145,-29.4485,-21.4603,28,0.058,8257,3.9446,-13.8763
lg,1625579819372257731,0,0.4729,-0.3071,0.8152,762,-2.9297,0.5493,5.0049,100,1.3737,1.1145,-29.3094,-21.6383,28,0.058,12222,3.9446,-13.6912
lg,1625579819372274807,0,0.47,-0.3169,0.8191,763,-2.4414,-5.0659,3.479,100,1.3727,1.1145,-29.3917,-21.8245,28,0.057,8290,3.9446,-13.4693
lg,1625579819372292940,0,0.4866,-0.3137,0.8101,764,-1.0376,-12.207,3.2959,100,1.3737,1.1145,-29.7801,-22.0064,27,0.058,8284,3.9446,-13.1342
lg,1625579819372310294,0,0.5039,-0.3091,0.8152,765,-1.5869,-13.7329,2.5024,100,1.3727,1.1145,-30.251,-22.1869,27,0.059,8330,3.9446,-12.8152
lg,1625579819372329297,0,0.5295,-0.3083,0.8145,766,-1.77,-17.2729,2.5024,100,1.3727,1.1145,-30.8829,-22.4034,27,0.058,9069,3.9446,-12.4341
lg,1625579819372347115,0,0.5503,-0.3115,0.8164,767,-1.5259,-19.5312,2.0142,100,1.3727,1.1145,-31.6143,-22.6248,27,0.058,8421,3.9446,-12.0298
lg,1625579819372388750,0,0.6123,-0.3142,0.8328,768,-0.9155,-19.5312,1.77,100,1.3707,1.1135,-32.4112,-22.8088,27,0.058,10282,3.9446,-11.6385
lg,1625579819727283317,0,0.5977,-0.3323,0.8174,769,0.1831,-9.4604,3.1128,100,1.3717,1.1145,-32.7024,-22.9277,28,0.058,24644,3.9446,-11.3806
lg,1625579819727332639,0,0.6013,-0.3308,0.8279,770,-0.2441,-4.2725,3.2959,100,1.3717,1.1135,-32.8503,-23.0067,28,0.059,8952,3.9446,-11.1848
lg,1625579819727363051,0,0.5686,-0.3428,0.8242,771,0.4272,-1.0986,3.9062,100,1.3717,1.1145,-32.8067,-23.0695,28,0.059,12049,3.9446,-11.0062
lg,1625579819727392277,0,0.5698,-0.3203,0.8149,772,1.3428,-0.7935,3.54,100,1.3717,1.1145,-32.7818,-23.0372,28,0.059,9799,3.9446,-10.875
lg,1625579819727422319,0,0.5615,-0.3237,0.8276,773,1.9531,-1.2817,3.6011,100,1.3717,1.1145,-32.7446,-22.9837,27,0.058,9824,3.9446,-10.7336
lg,1625579819727449712,0,0.5591,-0.3389,0.8196,774,2.1973,-0.8545,3.1738,100,1.3717,1.1145,-32.6972,-22.952,27,0.059,7841,3.9446,-10.5939
lg,1625579819727475420,0,0.5417,-0.3457,0.824,775,2.5024,-1.5869,2.9907,100,1.3717,1.1145,-32.6419,-22.9241,27,0.059,7826,3.9446,-10.4414
lg,1625579819727501683,0,0.5671,-0.3611,0.8257,776,4.0283,-1.2817,2.5635,100,1.3717,1.1145,-32.6222,-22.8575,28,0.06,7882,3.9446,-10.2941
lg,1625579819727527224,0,0.5576,-0.3455,0.8291,777,4.7607,-1.709,2.1362,100,1.3697,1.1135,-32.6183,-22.7678,28,0.061,9131,3.9446,-10.1511
lg,1625579819727551764,0,0.5789,-0.3354,0.843,778,7.6294,-0.3662,1.8311,100,1.3707,1.1135,-32.5919,-22.4611,28,0.06,7912,3.9446,-10.091
lg,1625579819727576509,0,0.5735,-0.3354,0.8264,779,7.6904,1.3428,1.8921,100,1.3687,1.1135,-32.5109,-22.1648,28,0.061,7954,3.9446,-10.0439
lg,1625579819727603031,0,0.5762,-0.312,0.7983,780,8.1787,1.6479,2.0752,100,1.3697,1.1135,-32.4358,-21.8584,28,0.061,8128,3.9446,-9.9927
lg,1625579819727629035,0,0.5713,-0.3228,0.7983,781,7.9346,3.6621,3.3569,100,1.3697,1.1135,-32.2866,-21.5862,28,0.062,8007,3.9446,-9.9099
lg,1625579819727654502,0,0.5557,-0.3088,0.7896,782,6.0425,5.9814,3.1738,100,1.3697,1.1135,-32.0478,-21.3491,28,0.062,8043,3.9446,-9.8826
lg,1625579819727679969,0,0.5295,-0.3108,0.7947,783,6.4087,5.3101,3.1128,100,1.3707,1.1145,-31.8078,-21.116,28,0.062,8228,3.9446,-9.828
lg,1625579819727732069,0,0.5229,-0.3015,0.8232,784,6.1646,2.0142,3.2959,100,1.3707,1.1145,-31.6381,-20.8821,27,0.063,8531,3.9446,-9.742
lg,1625579819727760481,0,0.5217,-0.3247,0.842,785,5.9814,0.4272,3.0518,100,1.3707,1.1145,-31.5121,-20.728,27,0.063,8120,3.9446,-9.63
lg,1625579819727785966,0,0.5291,-0.3237,0.8582,786,5.8594,1.1597,2.9907,100,1.3697,1.1145,-31.3576,-20.5442,27,0.063,8160,3.9446,-9.5224
lg,1625579819727811433,0,0.5383,-0.3252,0.8281,787,5.3101,-0.6714,2.9907,100,1.3697,1.1145,-31.3254,-20.4359,27,0.063,8179,3.9435,-9.3647
lg,1625579819727837511,0,0.5562,-0.3413,0.8318,788,4.2725,0.9155,2.6855,100,1.3697,1.1145,-31.2623,-20.3868,27,0.062,8162,3.9435,-9.2263
lg,1625579819727862570,0,0.5535,-0.3457,0.8379,789,5.5542,0.3052,3.1128,100,1.3697,1.1145,-31.1418,-20.2779,27,0.061,8748,3.9435,-9.0974
lg,1625579819727887481,0,0.561,-0.3516,0.8406,790,6.3477,3.54,2.9907,100,1.3687,1.1135,-30.9799,-20.1522,27,0.062,8390,3.9435,-8.9771
lg,1625579819727913263,0,0.5493,-0.3623,0.8506,791,8.8501,6.1035,2.9297,100,1.3677,1.1135,-30.6941,-19.925,27,0.061,8283,3.9435,-8.8897
lg,1625579819727939452,0,0.5583,-0.3359,0.8411,792,10.3149,7.5684,3.1128,100,1.3687,1.1145,-30.3989,-19.589,27,0.061,8411,3.9435,-8.8388
lg,1625579819727965345,0,0.5537,-0.3345,0.8486,793,10.6201,7.9346,3.479,100,1.3677,1.1145,-30.0813,-19.2501,27,0.061,10305,3.9435,-8.7742
lg,1625579819727991460,0,0.5767,-0.3235,0.8486,794,10.376,9.0332,3.6011,100,1.3677,1.1135,-29.7424,-18.8527,27,0.06,8364,3.9435,-8.7492
lg,1625579819728016482,0,0.5911,-0.334,0.8545,795,11.2915,11.0474,3.479,100,1.3677,1.1135,-29.3949,-18.487,27,0.06,8313,3.9435,-8.7164
lg,1625579819728042079,0,0.6038,-0.3477,0.8752,796,12.5122,16.4795,3.2959,100,1.3677,1.1135,-28.8536,-18.0583,27,0.061,8364,3.9435,-8.754
lg,1625579819728067545,0,0.5879,-0.3652,0.855,797,13.916,20.874,2.1362,100,1.3677,1.1145,-28.1691,-17.5965,27,0.061,8416,3.9435,-8.8628
lg,1625579819728093235,0,0.5818,-0.3438,0.843,798,14.4043,22.8271,2.2583,100,1.3677,1.1135,-27.4411,-17.0487,27,0.061,8389,3.9435,-9.0157
lg,1625579819728136241,0,0.5486,-0.3325,0.8308,799,14.8315,27.3438,3.2349,100,1.3677,1.1145,-26.5183,-16.5347,28,0.062,8747,3.9435,-9.152
lg,1625579819728162838,0,0.5208,-0.3149,0.8284,800,14.7095,30.2734,3.54,100,1.3677,1.1135,-25.472,-16.0066,28,0.061,8622,3.9435,-9.3096
lg,1625579820088167568,0,0.4392,-0.304,0.8362,801,12.8784,28.9307,3.7231,100,1.3687,1.1145,-24.3499,-15.564,27,0.061,24504,3.9435,-9.4349
lg,1625579820088261193,0,0.4163,-0.2939,0.854,802,12.5732,21.0571,2.7466,100,1.3677,1.1145,-23.5229,-15.1411,27,0.062,9147,3.9435,-9.5098
lg,1625579820088282659,0,0.3953,-0.2966,0.8352,803,11.0474,15.8691,1.8921,100,1.3687,1.1145,-22.9093,-14.8306,27,0.062,10052,3.9435,-9.5415
lg,1625579820088301995,0,0.4153,-0.2861,0.8293,804,9.3994,9.6436,0.4883,100,1.3687,1.1145,-22.6245,-14.5813,27,0.062,10150,3.9435,-9.5656
lg,1625579820088320368,0,0.4265,-0.2764,0.8381,805,8.3618,4.3945,0.1221,100,1.3687,1.1145,-22.5746,-14.3689,27,0.062,9176,3.9435,-9.5553
lg,1625579820088338518,0,0.4275,-0.2859,0.8223,806,6.958,0,-0.2441,100,1.3687,1.1145,-22.7151,-14.268,27,0.061,7848,3.9435,-9.4958
lg,1625579820088355595,0,0.4087,-0.29,0.8391,807,6.7749,-1.77,-0.4272,100,1.3687,1.1145,-22.8968,-14.2032,27,0.061,8071,3.9435,-9.415
lg,1625579820088373412,0,0.3982,-0.2979,0.8401,808,4.6997,-7.2021,0.1221,100,1.3687,1.1145,-23.2174,-14.2525,27,0.06,7898,3.9435,-9.2523
lg,1625579820088390507,0,0.4319,-0.2983,0.8457,809,3.7842,-10.376,0.3662,100,1.3687,1.1145,-23.7099,-14.3492,27,0.061,7903,3.9435,-9.0462
lg,1625579820088409010,0,0.4231,-0.313,0.8667,810,3.8452,-11.9629,0,100,1.3687,1.1145,-24.2063,-14.4612,27,0.061,8015,3.9435,-8.8291
lg,1625579820088425679,0,0.4385,-0.3098,0.8735,811,3.54,-15.1367,-0.4272,100,1.3677,1.1145,-24.8348,-14.5767,27,0.061,9613,3.9435,-8.599
lg,1625579820088442422,0,0.4561,-0.3062,0.8794,812,3.6011,-18.9209,-0.4883,100,1.3677,1.1135,-25.6146,-14.6916,27,0.061,9121,3.9435,-8.3325
lg,1625579820088459387,0,0.4961,-0.3081,0.8718,813,3.7231,-18.4326,-0.2441,100,1.3667,1.1135,-26.4257,-14.8112,27,0.061,7978,3.9435,-8.0541
lg,1625579820088529156,0,0.5081,-0.3206,0.873,814,3.418,-17.6392,0.3052,100,1.3667,1.1145,-27.2038,-14.9857,27,0.061,8013,3.9435,-7.7409
lg,1625579820088546955,0,0.5242,-0.321,0.8726,815,3.54,-14.7705,-0.1831,100,1.3677,1.1145,-27.8573,-15.1193,27,0.061,7979,3.9435,-7.4835
lg,1625579820088565106,0,0.5354,-0.3218,0.8696,816,3.6621,-10.1929,0.8545,100,1.3667,1.1135,-28.321,-15.245,27,0.061,8083,3.9435,-7.2314
lg,1625579820088581756,0,0.53,-0.3274,0.8503,817,3.9062,-8.4229,0.4883,100,1.3667,1.1145,-28.71,-15.3696,27,0.062,8122,3.9435,-7.002
lg,1625579820088599129,0,0.5334,-0.3245,0.8535,818,3.2959,-5.4321,2.4414,100,1.3667,1.1145,-28.9514,-15.5298,27,0.062,8231,3.9435,-6.7273
lg,1625579820088615483,0,0.5308,-0.334,0.8572,819,3.1128,-0.4272,3.1738,100,1.3677,1.1145,-28.9712,-15.6969,27,0.062,8177,3.9435,-6.4741
lg,1625579820088632782,0,0.5288,-0.3242,0.8662,820,2.4414,1.5259,2.6245,103,1.3667,1.1145,-28.8503,-15.8552,27,0.062,8144,3.9435,-6.2755
lg,1625579820088650859,0,0.5049,-0.3494,0.8835,821,2.9907,2.5635,2.7466,103,1.3647,1.1145,-28.6847,-16.0019,27,0.062,8204,3.9435,-6.0783
lg,1625579820088668380,0,0.5146,-0.3428,0.8618,822,3.9062,2.1973,2.3804,103,1.3667,1.1145,-28.5845,-16.1023,27,0.063,8169,3.9435,-5.8955
lg,1625579820088685752,0,0.5325,-0.343,0.8921,823,4.2114,2.7466,2.7466,103,1.3667,1.1145,-28.391,-16.121,27,0.062,8305,3.9435,-5.7767
lg,1625579820088702959,0,0.5176,-0.3362,0.8958,824,5.0659,6.1646,1.9531,103,1.3657,1.1145,-28.1295,-16.0939,28,0.062,8279,3.9435,-5.6872
lg,1625579820088720424,0,0.5342,-0.3337,0.8738,825,6.2256,8.667,1.3428,103,1.3667,1.1145,-27.8421,-16.0047,28,0.062,8294,3.9435,-5.651
lg,1625579820088737334,0,0.5066,-0.3193,0.8564,826,6.4697,10.7422,1.709,103,1.3667,1.1145,-27.3623,-15.8694,28,0.063,8294,3.9435,-5.672
lg,1625579820088756022,0,0.4985,-0.3135,0.8687,827,6.8359,14.8315,1.1597,103,1.3657,1.1145,-26.8158,-15.6881,28,0.063,8310,3.9435,-5.7339
lg,1625579820088773302,0,0.4836,-0.324,0.8752,828,6.8359,14.4653,0.4272,103,1.3657,1.1145,-26.2751,-15.523,28,0.061,8343,3.9435,-5.8096
lg,1625579820088824309,0,0.4961,-0.3125,0.8582,829,7.0801,16.4185,0.3662,103,1.3657,1.1145,-25.725,-15.3315,28,0.062,8320,3.9435,-5.9138
lg,1625579820088847979,0,0.4792,-0.3086,0.8699,830,6.1646,17.5781,-0.3662,103,1.3647,1.1155,-25.1168,-15.15,28,0.06,10019,3.9435,-6.0655
lg,1625579820088865907,0,0.4548,-0.3196,0.8813,831,7.5073,15.7471,-1.3428,103,1.3657,1.1145,-24.5517,-14.9342,28,0.06,9790,3.9435,-6.2252
lg,1625579820088884780,0,0.469,-0.3169,0.885,832,6.897,14.8926,-1.1597,103,1.3647,1.1145,-24.0643,-14.7509,28,0.061,8465,3.9435,-6.3668
lg,1625579820431176837,0,0.5073,-0.3062,0.8923,833,8.3618,17.2119,-3.0518,103,1.3637,1.1145,-23.5938,-14.4439,28,0.063,24473,3.9435,-6.6231
lg,1625579820431212731,0,0.4895,-0.3088,0.897,834,8.3008,21.4233,-2.8076,103,1.3657,1.1145,-22.9373,-14.1453,28,0.063,12255,3.9435,-6.9046
lg,1625579820431233271,0,0.4731,-0.3254,0.8967,835,8.667,26.123,-2.0142,103,1.3657,1.1145,-22.0815,-13.8809,28,0.063,8222,3.9435,-7.1787
lg,1625579820431252662,0,0.5015,-0.3237,0.9297,836,9.0332,30.0293,-1.2207,103,1.3607,1.1145,-21.1228,-13.5866,28,0.062,7920,3.9435,-7.4632
lg,1625579820431271017,0,0.5151,-0.3213,0.9141,837,9.1553,35.4614,0.3052,103,1.3647,1.1145,-20.0157,-13.3138,28,0.063,9796,3.9435,-7.7281
lg,1625579820431289482,0,0.5076,-0.3232,0.9104,838,8.9722,40.3442,0.7324,103,1.3647,1.1145,-18.5117,-13.0147,28,0.062,9521,3.9435,-8.0365
lg,1625579820431307614,0,0.4949,-0.3025,0.9211,839,8.2397,49.5605,2.5635,103,1.3647,1.1145,-16.8982,-12.7641,28,0.064,7836,3.9435,-8.3384
lg,1625579820431324895,0,0.4814,-0.303,0.9106,840,6.5918,57.373,4.2114,103,1.3657,1.1145,-15.0134,-12.6079,28,0.064,7929,3.9435,-8.6345
lg,1625579820431341916,0,0.4646,-0.3091,0.9155,841,5.7983,59.9365,3.7231,103,1.3647,1.1145,-13.0687,-12.5013,28,0.065,7951,3.9435,-8.9672
lg,1625579820431358566,0,0.4297,-0.3098,0.9202,842,5.9814,64.4531,2.5635,103,1.3627,1.1155,-10.9631,-12.3882,28,0.065,9254,3.9435,-9.3847
lg,1625579820431375013,0,0.3889,-0.3164,0.8945,843,4.9438,68.4204,1.8311,103,1.3627,1.1145,-8.7295,-12.3612,28,0.064,8196,3.9435,-9.8599
lg,1625579820431413666,0,0.321,-0.3169,0.8984,844,3.9673,70.8618,1.8921,103,1.3627,1.1145,-6.3444,-12.3957,28,0.065,8063,3.9435,-10.36
lg,1625579820431432188,0,0.2839,-0.3186,0.918,845,3.0518,70.1294,2.6855,103,1.3627,1.1135,-3.9834,-12.4822,28,0.065,8050,3.9435,-10.835
lg,1625579820431449320,0,0.2556,-0.3503,0.9194,846,4.0894,64.9414,2.0752,103,1.3607,1.1135,-1.8557,-12.6112,28,0.065,8060,3.9435,-11.2984
lg,1625579820431465563,0,0.2725,-0.3389,0.9194,847,6.2256,53.772,2.3193,103,1.3607,1.1135,-0.2804,-12.6424,28,0.065,8128,3.9435,-11.6705
lg,1625579820431483658,0,0.2734,-0.3325,0.926,848,7.9346,52.3682,3.3569,103,1.3597,1.1135,1.1895,-12.5958,27,0.065,11140,3.9435,-11.998
lg,1625579820431501697,0,0.2407,-0.3398,0.9329,849,8.2397,51.9409,4.2114,103,1.3597,1.1135,2.6612,-12.5239,27,0.064,8185,3.9435,-12.293
lg,1625579820431519792,0,0.2434,-0.3181,0.9272,850,8.667,46.6919,5.9204,103,1.3607,1.1145,3.8818,-12.431,27,0.065,8183,3.9435,-12.4793
lg,1625579820431537665,0,0.2625,-0.3362,0.9399,851,8.7891,41.9312,6.4697,103,1.3607,1.1145,4.8461,-12.3633,28,0.065,8189,3.9435,-12.6079
lg,1625579820431554649,0,0.2708,-0.3286,0.9417,852,9.6436,40.3442,5.3101,103,1.3617,1.1145,5.6858,-12.2515,28,0.065,11708,3.9435,-12.7697
lg,1625579820431571429,0,0.2454,-0.3433,0.959,853,10.8032,38.9404,3.7842,103,1.3617,1.1145,6.4882,-12.1244,28,0.065,8213,3.9435,-12.9825
lg,1625579820431588691,0,0.2571,-0.3428,0.9626,854,11.8408,37.1704,3.7231,103,1.3617,1.1145,7.154,-11.9473,28,0.064,8221,3.9435,-13.1824
lg,1625579820431606286,0,0.2371,-0.3232,0.9492,855,12.5732,36.438,2.3804,103,1.3617,1.1145,7.8028,-11.7361,28,0.064,8278,3.9435,-13.4262
lg,1625579820431623326,0,0.2183,-0.2993,0.9675,856,11.9629,36.438,3.2349,103,1.3617,1.1145,8.4766,-11.4932,28,0.063,8277,3.9435,-13.6266
lg,1625579820431639902,0,0.2327,-0.3286,0.9834,857,11.0474,35.9497,3.1128,103,1.3617,1.1145,9.0185,-11.3306,28,0.063,8319,3.9435,-13.7867
lg,1625579820431656293,0,0.219,-0.3076,0.9795,858,12.6953,31.8604,4.6387,103,1.3617,1.1145,9.4849,-11.0716,28,0.063,10227,3.9435,-13.8938
lg,1625579820431685631,0,0.2402,-0.302,0.988,859,12.207,30.8838,5.0659,103,1.3607,1.1145,9.8152,-10.8403,27,0.063,8549,3.9435,-13.9748
lg,1625579820431788534,0,0.2512,-0.3093,0.97,860,12.146,33.3862,4.1504,103,1.3607,1.1145,10.243,-10.6355,27,0.063,8364,3.9435,-14.1105
lg,1625579820431813019,0,0.2283,-0.3,0.978,861,11.9019,34.4849,3.7842,103,1.3617,1.1145,10.7422,-10.4296,27,0.062,8455,3.9435,-14.2633
lg,1625579820431831392,0,0.2075,-0.3005,0.9692,862,11.1694,35.4004,4.1504,103,1.3617,1.1145,11.2442,-10.2276,27,0.062,8493,3.9435,-14.4158
lg,1625579820431849728,0,0.1731,-0.3003,0.9658,863,12.3291,34.729,3.1738,103,1.3617,1.1145,11.8188,-10.0379,28,0.061,8437,3.9435,-14.595
lg,1625579820431925646,0,0.1694,-0.282,0.9731,864,11.7798,33.5083,3.0518,103,1.3627,1.1145,12.3311,-9.8338,28,0.062,8503,3.9435,-14.7613
lg,1625579820780359252,0,0.1619,-0.2891,0.9631,865,10.5591,27.832,3.1738,103,1.3637,1.1155,12.6201,-9.706,28,0.063,24697,3.9435,-14.9033
lg,1625579820780403017,0,0.134,-0.2983,0.9558,866,8.667,26.1841,2.0752,103,1.3647,1.1155,12.8799,-9.6853,28,0.063,10879,3.9435,-15.0684
lg,1625579820780424335,0,0.1189,-0.2949,0.9771,867,8.4839,23.8037,1.4038,103,1.3647,1.1155,13.1281,-9.6466,28,0.063,8558,3.9435,-15.2388
