name,time,activity,ax,ay,az,batch_val,gx,gy,gz,ibat,index,middle,pitch,roll,temp,thumb,ts,vbat,yaw
rg,1625579828201412651,1,0.1182,0.7439,0.7131,1,3.6621,10.5591,-11.1084,60,1.1846,0,10.4526,49.0813,25,0.7774,19438,4.0557,110.875
rg,1625579828201504122,1,0.1245,0.7505,0.7068,2,3.3569,10.3149,-10.9253,60,1.1856,0,10.3725,49.114,25,0.7784,8468,4.0557,110.8848
rg,1625579828201524864,1,0.1208,0.7522,0.7078,3,3.1128,11.2305,-11.9629,60,1.1836,0,10.3849,49.1484,25,0.7794,7850,4.0557,110.9251
rg,1625579828201610538,1,0.113,0.76,0.7126,4,3.6621,11.7188,-11.9629,60,1.1836,0,10.4014,49.1984,25,0.7774,7901,4.0557,110.9519
rg,1625579828201634466,1,0.1108,0.769,0.708,5,1.8921,11.6577,-11.8408,60,1.1836,-0.001,10.4171,49.197,25,0.7794,8048,4.0557,110.984
rg,1625579828201654968,1,0.1084,0.7693,0.7078,6,1.4038,11.0474,-11.1084,60,1.1856,0,10.4105,49.178,25,0.7794,7808,4.0557,111.017
rg,1625579828201674655,1,0.1003,0.7627,0.7109,7,-0.8545,8.1177,-10.7422,60,1.1836,-0.001,10.3219,49.0391,25,0.7774,33279,4.0557,110.9664
rg,1625579828201694786,1,0.1038,0.7639,0.7119,8,-2.0142,6.0425,-10.0708,60,1.1856,0,10.1553,48.8516,25,0.7774,7929,4.0557,110.8699
rg,1625579828201714084,1,0.1133,0.7629,0.7207,9,-2.9907,4.8828,-9.0942,60,1.1866,0,9.9166,48.6157,25,0.7794,8002,4.0557,110.7615
rg,1625579828201736327,1,0.114,0.7668,0.7222,10,-3.2349,4.0894,-8.5449,60,1.1836,0,9.6485,48.3816,25,0.7774,7970,4.0557,110.6446
rg,1625579828201754550,1,0.1113,0.7683,0.7141,11,-4.3945,3.2959,-8.606,60,1.1846,0,9.3756,48.1218,25,0.7784,8392,4.0557,110.5052
rg,1625579828201772515,1,0.2839,-0.2571,0.9077,12,-13.916,22.522,-6.7749,99,1.1666,0,9.2858,45.4222,25,0.7434,8250,3.9908,110.4925
rg,1625579828201790257,1,0.1628,-0.1758,0.8374,13,-30.4565,5.4932,-6.8359,99,1.1576,0,9.0112,42.2961,25,0.7404,8256,3.9908,110.1563
rg,1625579828201808129,1,0.1497,-0.1414,0.8154,14,-60.73,-18.0054,-6.2866,99,1.1486,0,8.0026,37.9919,25,0.7324,8056,3.9908,109.2347
rg,1625579828201827575,1,0.2866,-0.1753,1.0215,15,-79.4067,-33.5083,-2.9907,99,1.1386,0,6.1747,33.0841,25,0.7274,8088,3.9908,108.1573
rg,1625579828201847929,1,0.5662,-0.4414,1.1772,16,-55.1758,-23.0103,8.667,99,1.1436,0,3.6293,29.3656,25,0.7334,9207,3.9908,107.8655
rg,1625579828201866078,1,0.6367,0.1709,0.8806,17,-6.4087,-0.7324,0.2441,99,1.1406,0,2.5086,27.7097,25,0.7344,9735,3.9908,107.7882
rg,1625579828201886061,1,0.2283,-0.571,1.0283,18,-19.7144,31.311,-5.3711,99,1.1376,0,3.2343,25.0748,25,0.7334,8136,3.9908,108.0841
rg,1625579828201906748,1,0.624,-0.2112,0.8877,19,-3.2959,-18.9209,-9.8267,99,1.1406,-0.001,1.3478,23.7471,25,0.7364,8233,3.9908,107.3635
rg,1625579828201962957,1,0.5232,-0.2981,0.9709,20,-11.2915,11.2915,-9.6436,99,1.1396,0,1.1566,21.7899,25,0.7364,8035,3.9908,107.1617
rg,1625579828201986699,1,0.29,-0.385,0.9978,21,-12.5732,26.001,-6.6528,99,1.1366,0,1.5928,19.7968,25,0.7354,8213,3.9908,107.2647
rg,1625579828202003460,1,0.3186,-0.2751,0.9255,22,-13.1226,15.5029,-2.4414,99,1.1386,0,1.45,17.9962,25,0.7374,8227,3.9908,107.3508
rg,1625579828202022740,1,0.2693,-0.2915,0.9172,23,-17.0288,17.334,-1.77,99,1.1386,0,1.4875,15.942,25,0.7374,8325,3.9908,107.3855
rg,1625579828202045167,1,0.2639,-0.3425,0.9517,24,-23.8037,12.5732,-3.54,99,1.1366,0,1.3886,13.7075,25,0.7364,8305,3.9908,107.3567
rg,1625579828202061539,1,0.3396,-0.4849,1.0449,25,-22.1558,4.6997,-5.127,99,1.1396,0,0.9336,11.4623,26,0.7374,8300,3.9908,107.1785
rg,1625579828202079485,1,0.4011,-0.6626,1.0977,26,-1.3428,12.4512,-5.5542,99,1.1406,0,0.7596,9.9414,26,0.7404,8304,3.9908,107.0387
rg,1625579828202233757,1,0.4373,-0.6907,1.1221,27,16.0522,17.8223,-2.0142,99,1.1426,0,0.585,9.1755,26,0.7404,8328,3.9908,107.0657
rg,1625579828202266149,1,0.5994,-0.6553,1.0381,28,46.875,40.1611,1.5259,99,1.1456,0,1.1441,9.6991,26,0.7434,8335,3.9908,107.3722
rg,1625579828202287854,1,0.4941,-0.5701,0.9907,29,62.2559,66.1621,-12.5122,99,1.1516,0,2.8975,10.8516,26,0.7424,8766,3.9908,107.3178
rg,1625579828202305726,1,0.2173,-0.386,0.9048,30,69.458,78.0029,-17.7612,99,1.1526,0,5.5047,12.3739,26,0.7454,8715,3.9908,107.1812
rg,1625579828202323765,1,0.1052,-0.334,0.8821,31,64.0259,72.7539,-19.5923,99,1.1546,0,7.8076,13.5189,26,0.7444,8836,3.9908,106.863
rg,1625579828202345304,1,-0.0088,-0.2129,0.855,32,54.2603,47.4243,-17.334,99,1.1556,0,9.558,14.5869,26,0.7434,8499,3.9908,106.5023
rg,1625579828550233721,1,0.2107,-0.1326,0.8865,33,-1.77,-25.2075,-5.249,99,1.1606,0,7.7823,13.5693,25,0.7484,25512,3.9908,105.9083
rg,1625579828550275355,1,0.5608,-0.2231,0.9812,34,-25.2686,-29.2969,-5.249,99,1.1616,0,5.3519,11.6232,26,0.7514,18165,3.9908,105.3467
rg,1625579828550319192,1,0.5154,-0.3179,1.0229,35,-43.5181,-10.7422,-8.9111,99,1.1616,0,3.8464,8.8645,26,0.7534,7913,3.9908,104.8533
rg,1625579828550340230,1,0.4246,-0.314,0.9351,36,-56.0913,-2.9297,-11.4136,99,1.1576,0,2.7674,5.6406,26,0.7524,7925,3.9908,104.3493
rg,1625579828550359047,1,0.4014,-0.2878,0.894,37,-65.4297,-3.2959,-11.3525,99,1.1466,0,1.6845,2.1839,26,0.7474,7882,3.9908,103.8767
rg,1625579828550377622,1,0.3467,-0.2166,0.8662,38,-83.7402,-2.3193,-8.5449,99,1.1366,0,0.714,-1.7501,25,0.7384,7963,3.9908,103.5477
rg,1625579828550395957,1,0.6287,-0.6472,0.9177,39,-38.5132,22.3389,0.3662,99,1.1376,0,0.477,-4.374,25,0.7434,8105,3.9908,103.5266
rg,1625579828550414070,1,0.4902,-0.019,0.6714,40,-7.9346,27.3438,-4.2725,99,1.1376,0,0.8161,-4.415,25,0.7444,7869,3.9908,103.2745
rg,1625579828550433034,1,0.0317,-0.6589,0.9648,41,-49.9878,42.5415,-15.3809,99,1.1356,0,2.3478,-7.5582,25,0.7424,8142,3.9908,102.4708
rg,1625579828550451740,1,0.3635,-0.3901,0.8965,42,-4.4556,-40.2222,-15.8081,99,1.1376,0,-0.2013,-8.326,25,0.7444,7954,3.9908,102.0491
rg,1625579828550469241,1,0.4998,-0.2693,0.7756,43,5.7983,-38.3301,-16.4795,99,1.1376,0,-2.9475,-8.5351,25,0.7454,7916,3.9908,101.6257
rg,1625579828550487465,1,0.4651,-0.3108,0.8086,44,0.9766,-15.2588,-24.7192,99,1.1386,0,-4.6672,-8.8679,25,0.7444,7981,3.9908,100.7639
rg,1625579828550504411,1,0.3252,-0.2832,0.7681,45,-2.6245,-4.6387,-27.771,99,1.1376,0,-5.69,-9.291,25,0.7464,8012,3.9908,99.7284
rg,1625579828550521486,1,0.3479,-0.3442,0.783,46,-4.0283,-6.1646,-26.6724,99,1.1376,0,-6.7569,-9.8667,25,0.7474,8016,3.9908,98.7672
rg,1625579828550538543,1,0.4124,-0.3782,0.8298,47,-0.2441,-4.2114,-27.6489,99,1.1396,0,-7.8052,-10.2645,25,0.7494,8076,3.9908,97.7636
rg,1625579828550557304,1,0.3364,-0.3738,0.8237,48,5.6763,8.3618,-30.3955,99,1.1406,0,-8.1958,-10.383,25,0.7534,8133,3.9908,96.5668
rg,1625579828550574694,1,0.27,-0.3689,0.8228,49,7.6904,12.2681,-31.4941,99,1.1436,0,-8.2831,-10.4039,25,0.7574,8120,3.9908,95.2998
rg,1625579828550605716,1,0.1831,-0.4644,0.9026,50,19.043,9.5825,-27.832,99,1.1446,0,-8.1943,-10.1261,25,0.7574,8427,3.9908,94.218
rg,1625579828550625495,1,0.4106,-0.6179,0.9768,51,45.9595,-2.8687,-17.0898,99,1.1486,0,-8.8886,-9.0078,25,0.7604,8184,3.9908,93.6679
rg,1625579828550643385,1,0.6094,-0.6389,0.9731,52,62.6831,-0.9155,-15.1978,99,1.1506,0,-9.4761,-6.5737,25,0.7594,8229,3.9908,92.9139
rg,1625579828550660202,1,0.4338,-0.3235,0.855,53,82.1533,47.2412,-29.6021,99,1.1536,0,-8.3367,-3.5906,25,0.7574,12850,3.9908,91.6175
rg,1625579828550676573,1,0.1064,-0.1309,0.8362,54,64.4531,47.1191,-28.1982,99,1.1556,0,-6.4601,-1.0741,26,0.7564,9844,3.9908,90.4354
rg,1625579828550693278,1,-0.0671,0.0305,0.7598,55,25.3296,5.7373,-25.0854,99,1.1576,0,-5.786,0.1768,26,0.7574,8306,3.9908,89.4143
rg,1625579828550712187,1,0.0544,-0.0645,0.8208,56,1.4038,-26.7334,-21.0571,99,1.1586,0,-6.7694,0.1407,26,0.7604,8267,3.9908,88.5828
rg,1625579828550729319,1,0.2361,-0.1914,0.9036,57,-31.311,-52.7954,-17.2729,99,1.1586,0,-9.183,-1.4794,26,0.7654,8160,3.9908,87.9701
rg,1625579828550746764,1,0.5122,-0.4023,1.0225,58,-43.8843,-65.1245,-8.0566,99,1.1576,0,-12.4217,-3.9074,26,0.7674,9398,3.9908,87.8964
rg,1625579828550764636,1,0.8589,-0.5083,0.9907,59,-42.8467,-56.5186,-7.9346,99,1.1496,0,-15.6833,-6.3213,26,0.7634,9277,3.9908,87.9591
rg,1625579828550782119,1,0.7925,-0.3577,0.9707,60,-40.5884,-12.4512,-8.4839,99,1.1416,0,-17.0667,-8.312,26,0.7564,8979,3.9908,87.8123
rg,1625579828550798806,1,0.8376,-0.4568,1.135,61,-23.4375,9.4604,-8.667,117,1.1416,0,-17.1413,-7.9875,26,0.7584,9012,3.9941,87.5415
rg,1625579828550815678,1,0.7024,0.2222,0.7278,62,20.0806,46.5088,-15.686,117,1.1396,0,-16.3967,-6.189,25,0.7564,9086,3.9941,86.4139
rg,1625579828550832864,1,0.1121,-0.405,0.8809,63,-0.3662,75.3174,-23.8647,117,1.1386,0,-13.1632,-6.6011,25,0.7564,9083,3.9941,85.2937
rg,1625579828550850495,1,0.3787,-0.1785,0.7363,64,12.4512,11.5356,-17.7612,117,1.1406,0,-13.3103,-6.1791,25,0.7574,9054,3.9941,84.5714
rg,1625579828921025785,1,0.4189,-0.4275,0.8921,65,3.0518,42.1143,-18.1885,117,1.1446,0,-11.8803,-6.4269,25,0.7674,28225,3.9941,83.6315
rg,1625579828921063492,1,0.2371,-0.3188,0.8564,66,10.1929,42.2363,-28.7476,117,1.1466,0,-10.4504,-6.2974,25,0.7704,9278,3.9941,82.3871
rg,1625579828921083771,1,0.1133,-0.2986,0.8877,67,10.9863,39.1846,-31.7993,117,1.1486,0,-9.2109,-6.1386,26,0.7734,8452,3.9941,81.057
rg,1625579828921102995,1,0.1379,-0.3848,0.9648,68,12.9395,22.2168,-30.7007,117,1.1506,0,-8.4063,-6.0293,26,0.7744,8473,3.9941,79.8244
rg,1625579828921121459,1,0.3369,-0.4702,1.0071,69,34.2407,7.8125,-18.8599,117,1.1536,0,-8.5198,-5.2604,26,0.7744,8483,3.9941,79.137
rg,1625579828921139739,1,0.666,-0.5134,1.0039,70,57.5562,16.1743,-18.2495,117,1.1536,0,-8.8038,-3.578,25,0.7714,11021,3.9941,78.4465
rg,1625579828921157759,1,0.5542,-0.3845,0.9541,71,64.8193,49.2554,-30.7617,117,1.1546,0,-7.6685,-1.4366,25,0.7674,9250,3.9941,77.2006
rg,1625579828921176316,1,0.26,-0.2705,0.9321,72,55.9082,60.9131,-32.7759,117,1.1576,0,-5.5506,0.3868,25,0.7644,8593,3.9941,75.9294
rg,1625579828921193299,1,0.1272,-0.1953,0.9417,73,42.7856,35.1562,-30.7617,117,1.1576,0,-4.2092,1.7227,25,0.7634,8647,3.9941,74.7661
rg,1625579828921211393,1,0.1333,-0.0642,0.8816,74,22.0337,4.8828,-25.8789,117,1.1596,0,-4.1495,2.445,25,0.7624,13339,3.9941,73.7521
rg,1625579828921228746,1,0.3008,-0.1479,0.915,75,-4.2725,-22.4609,-16.6016,117,1.1606,0,-5.5623,1.8973,25,0.7644,8640,3.9941,73.0865
rg,1625579828921246655,1,0.4009,-0.1201,0.9641,76,-21.0571,-25.4517,-9.7656,117,1.1616,0,-7.2259,0.7732,25,0.7674,8744,3.9941,72.7086
rg,1625579828921263564,1,0.4265,-0.332,1.0291,77,-32.3486,-21.9727,-6.1035,117,1.1626,0,-8.7163,-1.4796,25,0.7714,8799,3.9941,72.6891
rg,1625579828921280547,1,0.5486,-0.417,1.0476,78,-40.2832,-29.541,1.6479,117,1.1616,0,-10.5744,-3.8218,26,0.7744,8759,3.9941,72.9351
rg,1625579828921297215,1,0.6929,-0.3528,0.9592,79,-40.7104,-20.2637,3.6621,117,1.1566,0,-12.2808,-6.0298,26,0.7744,9028,3.9941,73.2729
rg,1625579828921438486,1,0.6111,-0.2844,0.8611,80,-50.7812,4.3945,0.4883,117,1.1516,0,-12.9471,-8.4647,26,0.7694,8134,3.9941,73.3757
rg,1625579828921475563,1,0.4397,-0.1936,0.8247,81,-66.2842,15.8081,-2.1362,117,1.1416,0,-12.9049,-11.2341,26,0.7604,8327,3.9941,73.2299
rg,1625579828921497621,1,0.439,-0.1707,1.1287,82,-63.0493,18.7988,-0.7935,117,1.1416,0,-12.4981,-13.6025,25,0.7634,8248,3.9941,73.0153
rg,1625579828921517474,1,0.5261,0.1318,0.6497,83,-3.1738,36.0718,-1.5869,117,1.1396,0,-12.1369,-12.8688,25,0.7624,8277,3.9941,72.4362
rg,1625579828921538698,1,0.0823,-0.4858,0.8743,84,-34.0576,51.6357,-9.5825,117,1.1436,0,-9.9507,-14.695,25,0.7654,8275,3.9941,71.6853
rg,1625579828921557792,1,0.1436,-0.4629,0.9661,85,-20.2637,21.7285,-4.6387,117,1.1436,0,-11.2637,-15.1945,25,0.7664,8268,3.9941,71.7977
rg,1625579828921576479,1,0.6262,-0.2979,0.8301,86,-7.7515,-10.0098,-1.77,117,1.1426,0,-12.5922,-15.6584,25,0.7674,8313,3.9941,71.869
rg,1625579828921594425,1,0.481,-0.4067,0.8953,87,-12.5122,31.4331,-5.6152,117,1.1456,0,-11.9802,-16.3496,25,0.7684,8322,3.9941,71.3641
rg,1625579828921616056,1,0.3064,-0.3901,0.866,88,-12.146,39.917,-6.3477,117,1.1446,0,-10.7628,-16.9911,25,0.7724,8345,3.9941,70.7109
rg,1625579828921634354,1,0.3242,-0.387,0.8674,89,-8.8501,31.7383,-9.0942,117,1.1466,0,-9.9812,-17.4749,25,0.7734,9844,3.9941,70.0248
rg,1625579828922721705,1,0.3196,-0.334,0.8459,90,-5.9814,31.25,-12.0239,117,1.1446,0,-9.3071,-17.7206,25,0.7744,8388,3.9941,69.2019
rg,1625579828922752004,1,0.2192,-0.2922,0.8254,91,-4.1504,32.2876,-17.6392,117,1.1476,0,-8.4824,-17.7836,25,0.7764,8649,3.9941,68.1325
rg,1625579828922772913,1,0.1736,-0.4177,0.9136,92,1.0376,25.1465,-16.4795,117,1.1496,0,-7.7825,-17.8706,25,0.7784,8457,3.9941,67.2257
rg,1625579828922794137,1,0.3345,-0.584,1.0056,93,29.2358,18.4326,-5.4321,117,1.1536,0,-7.4781,-17.1098,25,0.7804,8475,3.9941,66.8531
rg,1625579828922814342,1,0.4817,-0.5784,0.9841,94,45.105,22.644,-2.8687,117,1.1536,0,-7.2527,-15.7445,25,0.7784,8565,3.9941,66.5383
rg,1625579828922989709,1,0.5305,-0.4683,0.9246,95,61.6455,41.1377,-13.9771,117,1.1546,0,-6.5819,-13.5572,25,0.7754,8501,3.9941,65.6069
rg,1625579828923015304,1,0.313,-0.3589,0.9165,96,59.8145,56.5796,-20.4468,117,1.1596,0,-4.9925,-11.3339,25,0.7724,8552,3.9941,64.3377
rg,1625579829286969091,1,0.0803,-0.1194,0.8564,97,36.377,15.3809,-21.7285,117,1.1616,0,-5.1947,-10.1421,25,0.7684,26070,3.9941,63.6036
rg,1625579829287040245,1,0.3635,-0.1284,0.907,98,-0.7935,-33.9355,-10.7422,117,1.1626,-0.001,-7.3379,-10.546,25,0.7724,11159,3.9941,63.4791
rg,1625579829287091193,1,0.3425,-0.2146,0.9299,99,-29.2358,-31.25,-10.8032,117,1.1636,0,-9.1283,-11.7752,26,0.7764,7764,3.9941,63.3127
rg,1625579829287139104,1,0.46,-0.4458,1.001,100,-36.8652,-33.2642,-7.2021,117,1.1636,0,-11.0229,-13.6952,26,0.7794,7929,3.9941,63.4066
rg,1625579829287185386,1,0.6648,-0.3938,0.9443,101,-34.9731,-33.8745,-4.8828,117,1.1616,0,-12.8546,-15.4899,26,0.7804,8037,3.9941,63.488
rg,1625579829287266818,1,0.6909,-0.4126,0.9526,102,-38.7573,-10.0098,-7.019,117,1.1576,0,-14.1201,-17.264,26,0.7774,7990,3.9941,63.3989
rg,1625579829287313840,1,0.6047,-0.2642,0.8708,103,-35.6445,18.0664,-11.1694,117,1.1526,0,-14.3254,-18.5053,26,0.7714,8231,3.9941,62.7341
rg,1625579829287359048,1,0.6111,-0.4324,0.8892,104,-7.2021,49.5605,-5.9204,117,1.1526,0,-13.2085,-18.8344,26,0.7744,8058,3.9941,61.9118
rg,1625579829287402903,1,0.4189,-0.1506,0.7351,105,14.4043,55.8472,-14.1602,117,1.1526,0,-11.8966,-17.722,26,0.7744,8062,3.9941,60.5737
rg,1625579829287445851,1,0.1326,-0.4409,0.9678,106,-5.127,52.063,-16.2354,117,1.1536,0,-10.2515,-17.8397,25,0.7764,11121,3.9941,59.4888
rg,1625579829287487261,1,0.2412,-0.2991,0.8967,107,2.8687,24.5361,-12.3901,117,1.1536,0,-9.6289,-17.6089,25,0.7764,8069,3.9941,58.7082
rg,1625579829287530950,1,0.3574,-0.3584,0.9119,108,-3.479,25.3296,-14.4043,117,1.1556,0,-9.2504,-17.7456,25,0.7774,8146,3.9941,57.8627
rg,1625579829287575028,1,0.2786,-0.3032,0.8855,109,-3.7231,32.4097,-15.4419,117,1.1556,0,-8.4148,-17.6956,25,0.7814,8087,3.9941,56.7612
rg,1625579829287616938,1,0.29,-0.269,0.8853,110,-3.1738,32.4097,-17.0898,117,1.1546,0,-7.7435,-17.639,25,0.7824,8154,3.9941,55.6992
rg,1625579829287658608,1,0.3301,-0.2534,0.8933,111,-6.3477,34.668,-17.5171,117,1.1576,0,-7.102,-17.678,25,0.7844,8164,3.9941,54.5904
rg,1625579829287700223,1,0.3396,-0.4387,1.0308,112,-0.9766,40.2832,-14.0991,117,1.1606,0,-6.1286,-17.7979,25,0.7884,8138,3.9941,53.579
rg,1625579829287741004,1,0.3931,-0.5195,1.0938,113,8.8501,45.4712,-10.1318,117,1.1606,0,-4.9917,-17.6357,25,0.7874,8212,3.9941,52.6627
rg,1625579829287785285,1,0.4036,-0.5295,1.1011,114,26.6724,57.5562,-8.728,117,1.1586,0,-3.4256,-16.7948,25,0.7874,8431,3.9941,51.6648
rg,1625579829287828566,1,0.2375,-0.4443,1.0613,115,32.7148,62.561,-12.3901,117,1.1656,0,-1.4952,-15.6648,25,0.7864,8289,3.9941,50.4966
rg,1625579829287896090,1,0.1562,-0.4175,1.0312,116,33.2642,56.7627,-11.2915,117,1.1666,0,-0.0216,-14.6098,25,0.7864,8297,3.9941,49.5607
rg,1625579829287940260,1,0.1301,-0.3474,0.9968,117,28.8696,31.6772,-10.5591,117,1.1646,0,0.823,-13.6408,25,0.7834,8450,3.9941,48.8385
rg,1625579829287982171,1,0.1829,-0.2361,0.9368,118,17.2119,9.6436,-12.5122,117,1.1676,0,0.6284,-12.9779,26,0.7834,8317,3.9941,48.2591
rg,1625579829288025211,1,0.2795,-0.2585,0.9312,119,-0.7324,-3.2959,-14.0381,117,1.1676,0,-0.2798,-13.1019,26,0.7834,8289,3.9941,47.7412
rg,1625579829288069178,1,0.3921,-0.3308,0.9771,120,-11.8408,-3.0518,-11.4136,117,1.1676,0,-1.2998,-13.7721,26,0.7844,8333,3.9941,47.3308
rg,1625579829288111329,1,0.3926,-0.4143,1.009,121,-16.2964,10.6812,-10.8643,117,1.1686,0,-1.7135,-14.722,26,0.7864,8426,3.9941,46.8166
rg,1625579829288153536,1,0.3193,-0.4453,1.0029,122,-14.9536,16.6626,-10.8032,117,1.1696,0,-1.6151,-15.5852,25,0.7884,8471,3.9941,46.2212
rg,1625579829288194669,1,0.2969,-0.4546,1.0142,123,-11.9629,22.0947,-11.7188,117,1.1696,-0.001,-1.421,-16.3661,25,0.7904,8498,3.9941,45.5387
rg,1625579829288237728,1,0.2371,-0.4272,0.9778,124,-12.085,14.2822,-10.6201,117,1.1706,-0.001,-1.4353,-17.1086,25,0.7914,9169,3.9941,44.9761
rg,1625579829288281620,1,0.2573,-0.345,0.8611,125,-20.3857,-0.1831,-10.437,117,1.1656,0,-2.1189,-18.0848,25,0.7904,9162,3.9941,44.589
rg,1625579829288323531,1,0.21,-0.1909,0.7717,126,-44.5557,-4.7607,-13.4277,117,1.1526,-0.001,-2.9689,-19.6768,25,0.7814,8471,3.9941,44.1427
rg,1625579829288364627,1,0.0972,-0.1589,1.1145,127,-58.1055,-2.2583,-7.6904,117,1.1536,0.001,-3.2411,-21.5209,25,0.7814,8607,3.9941,43.8636
rg,1625579829288414482,1,0.333,0.2117,0.6665,128,0.9766,3.418,-6.2256,117,1.1546,0,-4.0837,-20.1651,25,0.7824,8581,3.9941,43.4959
rg,1625579829646186019,1,0.6399,-0.3357,0.8689,129,-12.7563,-34.729,-9.4604,117,1.1536,0,-6.6592,-20.7133,25,0.7844,25050,3.9941,43.6348
rg,1625579829646331938,1,0.2273,-0.4478,0.925,130,-17.2729,37.3535,-12.085,117,1.1536,0,-5.6735,-21.4886,25,0.7854,14606,3.9941,42.6626
rg,1625579829646383479,1,0.2039,-0.3,0.8179,131,-9.2773,21.1182,-7.6294,117,1.1536,0,-5.2983,-21.7438,26,0.7854,7898,3.9941,42.0587
rg,1625579829646434168,1,0.2588,-0.3254,0.8159,132,-11.2915,14.8315,-7.6294,117,1.1536,0,-5.3003,-22.1418,26,0.7864,7922,3.9941,41.5517
rg,1625579829646482320,1,0.2554,-0.3032,0.8066,133,-13.1226,13.0615,-14.4653,117,1.1546,0,-5.4785,-22.5315,26,0.7864,8880,3.9941,40.8092
rg,1625579829646529268,1,0.1575,-0.3782,0.8699,134,-12.0239,10.498,-20.0806,117,1.1556,0,-5.5578,-22.9557,26,0.7874,8099,3.9941,39.9053
rg,1625579829646575624,1,0.1499,-0.4692,0.9199,135,-1.4648,-1.8311,-20.2637,117,1.1576,0,-6.0479,-23.0953,25,0.7894,9193,3.9941,39.1998
rg,1625579829646708820,1,0.2349,-0.5327,0.9592,136,10.0708,-10.6812,-16.1133,117,1.1566,0,-6.9295,-22.8707,25,0.7884,8002,3.9941,38.7946
rg,1625579829646769139,1,0.4495,-0.532,0.9443,137,36.499,-7.7515,-7.5073,117,1.1596,0,-7.9385,-21.6278,25,0.7894,8286,3.9941,38.6542
rg,1625579829646814698,1,0.6465,-0.4758,0.8757,138,52.8564,18.0054,-8.3008,117,1.1626,-0.001,-8.3437,-19.6627,25,0.7924,8063,3.9941,38.0967
rg,1625579829646862443,1,0.5784,-0.4172,0.8523,139,54.7485,37.3535,-15.4419,117,1.1616,0,-8.0173,-17.5391,26,0.7884,7927,3.9941,37.0362
rg,1625579829646909021,1,0.2769,-0.2964,0.824,140,48.645,63.0493,-20.874,117,1.1656,0,-6.2199,-15.4903,26,0.7864,8104,3.9941,35.5095
rg,1625579829646952913,1,0.106,-0.2783,0.8381,141,37.0483,53.3447,-17.9443,117,1.1646,0,-4.3703,-14.0081,26,0.7844,11932,3.9941,34.2772
rg,1625579829646997787,1,0.1436,-0.2449,0.8521,142,25.1465,29.9072,-15.0146,117,1.1656,0,-3.5416,-13.0214,26,0.7824,8310,3.9941,33.4148
rg,1625579829647042827,1,0.2268,-0.2798,0.8748,143,9.0942,18.6157,-12.6953,117,1.1666,0,-3.338,-12.7969,25,0.7824,9737,3.9941,32.7618
rg,1625579829647090035,1,0.2859,-0.3149,0.9187,144,4.4556,18.5547,-9.7046,117,1.1676,0,-3.2151,-12.8172,25,0.7824,8208,3.9941,32.2306
rg,1625579829647134557,1,0.2996,-0.3489,0.947,145,1.6479,20.1416,-8.9722,117,1.1676,0,-3.0354,-13.0001,25,0.7834,8238,3.9941,31.7156
rg,1625579829647178394,1,0.3079,-0.387,0.9758,146,-2.0752,18.1885,-6.7139,117,1.1666,0,-2.9136,-13.3846,25,0.7844,8631,3.9941,31.3057
rg,1625579829647221879,1,0.2642,-0.4163,0.9822,147,-12.3291,11.4136,-10.8643,117,1.1696,0,-3.0088,-14.2125,26,0.7894,8441,3.9941,30.7953
rg,1625579829647265938,1,0.2771,-0.417,0.9375,148,-17.0288,5.5542,-11.1694,117,1.1686,0,-3.6053,-15.4378,26,0.7924,8246,3.9941,30.2697
rg,1625579829647308848,1,0.271,-0.4253,0.9214,149,-29.7241,-1.4648,-14.5264,117,1.1636,0,-4.2701,-16.9385,26,0.7894,8280,3.9941,29.7549
rg,1625579829647366427,1,0.2522,-0.3977,0.9624,150,-39.3677,-3.3569,-13.1836,117,1.1606,0,-4.9264,-18.6795,26,0.7884,8304,3.9941,29.3137
rg,1625579829647473509,1,0.6189,-0.5066,0.7,151,31.9214,18.6157,-0.061,117,1.1616,0,-5.387,-17.9289,26,0.7904,8331,3.9941,29.114
rg,1625579829647536385,1,0.3376,0.2361,0.7498,152,37.7808,28.0762,-9.0942,117,1.1616,0,-4.7711,-16.1226,26,0.7904,8316,3.9941,28.4052
rg,1625579829647585852,1,0.0078,-0.5188,0.9944,153,20.0195,37.5366,-12.146,117,1.1606,0,-3.2955,-15.7089,26,0.7904,8406,3.9941,27.5612
rg,1625579829647631189,1,0.446,-0.2251,0.8181,154,33.8135,-22.7051,-14.2212,117,1.1626,0,-5.2531,-14.3213,26,0.7914,8381,3.9941,27.234
rg,1625579829647677600,1,0.2744,-0.3833,0.9475,155,20.4468,18.3716,-19.9585,117,1.1626,0,-5.1217,-13.7107,26,0.7944,8436,3.9941,26.3016
rg,1625579829647720918,1,0.1738,-0.3589,0.9038,156,22.7051,20.5688,-19.104,117,1.1616,0,-4.6995,-13.031,26,0.7944,8419,3.9941,25.3902
rg,1625579829647764421,1,0.3472,-0.3296,0.8975,157,22.3999,6.8359,-15.0757,117,1.1596,0,-5.1628,-12.344,26,0.7954,8350,3.9941,24.757
rg,1625579829647807943,1,0.3728,-0.301,0.8967,158,23.0713,23.6206,-20.0195,117,1.1656,0,-5.0455,-11.5623,25,0.7994,8416,3.9941,23.7892
rg,1625579829647851373,1,0.1277,-0.2334,0.8914,159,20.6299,33.7524,-23.0103,117,1.1666,0,-3.9355,-10.9294,25,0.8004,8452,3.9941,22.6149
rg,1625579829647893913,1,0.0713,-0.2146,0.8955,160,11.4746,30.0903,-22.0947,117,1.1646,0,-2.9399,-10.5041,25,0.8004,8433,3.9941,21.5268
rg,1625579830003220146,1,0.2756,-0.5449,1.1082,161,9.2773,17.0898,-15.9912,117,1.1706,0,-2.8525,-10.7243,26,0.8024,26615,3.9941,20.8041
rg,1625579830003388289,1,0.3987,-0.5205,1.0664,162,45.6543,36.0107,-11.6577,117,1.1706,0,-2.1379,-9.4372,26,0.8004,10875,3.9941,20.1124
rg,1625579830003447090,1,0.2727,-0.4021,1.009,163,52.2461,44.3726,-18.2495,117,1.1716,0,-0.97,-7.7935,26,0.7984,9246,3.9941,19.1343
rg,1625579830003495371,1,0.1626,-0.3379,0.9739,164,49.4385,43.8232,-21.7285,117,1.1726,0,0.5149,-6.2131,26,0.7964,7971,3.9941,18.0621
rg,1625579830003545468,1,0.0664,-0.2642,0.9573,165,37.3535,20.813,-21.3013,117,1.1726,0,1.0853,-5.0973,26,0.7954,7965,3.9941,17.1269
rg,1625579830003712592,1,0.0803,-0.1519,0.8879,166,12.7563,-10.376,-21.8506,117,1.1726,0,0.3536,-4.7794,26,0.7954,7966,3.9941,16.2878
rg,1625579830003764578,1,0.1992,-0.2864,0.9524,167,0.6104,-23.2544,-20.874,117,1.1736,0,-1.2172,-5.2822,26,0.7974,7904,3.9941,15.537
rg,1625579830003807952,1,0.2979,-0.3442,1.0198,168,-3.479,-21.4844,-17.2729,117,1.1726,0,-2.6961,-5.9049,25,0.7974,8309,3.9941,14.9469
rg,1625579830003852344,1,0.3264,-0.3865,1.0271,169,-4.1504,-17.7002,-11.6577,117,1.1756,0,-3.9942,-6.5995,25,0.8004,8551,3.9941,14.5894
rg,1625579830003898348,1,0.3792,-0.3733,0.9954,170,-5.7373,-19.043,-10.0098,117,1.1756,0,-5.4725,-7.4776,25,0.8004,8094,3.9941,14.3628
rg,1625579830003941721,1,0.3657,-0.3701,0.9817,171,-15.0146,-19.8975,-11.7188,117,1.1696,0,-6.8656,-8.5278,25,0.7974,8129,3.9941,14.0597
rg,1625579830003988244,1,0.2483,-0.29,0.8699,172,-28.6865,-16.4795,-13.7329,117,1.1646,0,-7.9303,-9.9929,25,0.7924,8365,3.9941,13.6701
rg,1625579830004032303,1,0.5474,-0.4802,0.9988,173,-11.5967,-13.4888,-2.5024,117,1.1656,0,-9.1982,-11.0091,25,0.7954,8150,3.9941,13.7535
rg,1625579830004075102,1,0.5701,-0.1299,0.6299,174,22.2778,-6.7749,-6.1646,117,1.1626,0,-10.7195,-10.1022,25,0.7934,8150,3.9941,13.5502
rg,1625579830004146386,1,0.1252,-0.2568,0.8877,175,-16.4185,27.0996,-14.0381,117,1.1646,0,-9.64,-10.8594,25,0.7934,8224,3.9941,12.8321
rg,1625579830004200019,1,0.261,-0.2524,0.8953,176,7.019,-27.2827,-7.6904,82,1.1636,0,-11.0025,-10.7477,26,0.7964,8198,4.0293,12.7647
rg,1625579830004243671,1,0.5542,-0.1633,0.8425,177,6.4087,-46.3867,-10.8643,82,1.1626,0,-13.7399,-10.4779,26,0.7974,8253,4.0293,12.6769
rg,1625579830004286008,1,0.4302,-0.3206,0.957,178,-6.5918,9.0332,-13.4888,82,1.1606,0,-13.8555,-10.8922,26,0.7964,8271,4.0293,12.1343
rg,1625579830004329289,1,0.3042,-0.3123,0.9238,179,-8.606,18.9819,-11.5356,82,1.1636,0,-13.3404,-11.389,26,0.7974,8290,4.0293,11.5898
rg,1625579830004372644,1,0.3101,-0.3042,0.8713,180,-7.5073,24.231,-12.085,82,1.1656,0,-12.699,-11.832,25,0.7994,10410,4.0293,10.973
rg,1625579830004452650,1,0.2598,-0.2866,0.8833,181,-9.0332,26.9775,-14.8926,82,1.1656,-0.001,-11.9426,-12.3599,25,0.8004,8345,4.0293,10.1125
rg,1625579830004503080,1,0.2373,-0.3105,0.9153,182,-14.2822,26.001,-20.2637,82,1.1636,0,-11.1818,-12.9671,25,0.7984,8218,4.0293,9.1236
rg,1625579830004546621,1,0.1777,-0.3796,0.9592,183,-11.0474,19.8364,-21.7896,82,1.1646,0,-10.5581,-13.5476,25,0.8014,8438,4.0293,8.1399
rg,1625579830004591161,1,0.239,-0.458,0.9861,184,-1.709,7.8125,-21.3623,82,1.1656,-0.001,-10.536,-13.888,25,0.8044,8457,4.0293,7.3017
rg,1625579830004634850,1,0.2971,-0.5229,1.0334,185,7.3853,5.3711,-20.5078,82,1.1676,-0.001,-10.8207,-13.9418,25,0.8054,8266,4.0293,6.5325
rg,1625579830004678890,1,0.4436,-0.5229,1.0107,186,35.0342,14.9536,-17.6392,82,1.1676,-0.001,-10.8254,-12.8818,25,0.8054,8481,4.0293,5.7817
rg,1625579830004722764,1,0.4236,-0.4185,0.9524,187,50.354,38.0249,-21.3623,82,1.1716,0,-9.9711,-11.0602,25,0.8054,8337,4.0293,4.678
rg,1625579830004766360,1,0.2229,-0.3433,0.9172,188,49.5605,45.4712,-27.2217,82,1.1716,0,-8.4952,-9.2227,25,0.8024,8460,4.0293,3.3287
rg,1625579830004808771,1,0.1631,-0.2903,0.9019,189,46.6919,38.208,-27.0386,82,1.1706,0,-7.1985,-7.5186,25,0.7984,8474,4.0293,2.0727
rg,1625579830004850163,1,0.105,-0.2009,0.8923,190,36.2549,19.4702,-25.0854,82,1.1686,0,-6.5211,-6.1449,25,0.7964,8482,4.0293,1.0017
rg,1625579830004891185,1,0.1572,-0.1682,0.9077,191,18.0054,-0.9766,-21.8506,82,1.1736,0,-6.772,-5.4955,25,0.7964,8489,4.0293,0.1489
rg,1625579830004932781,1,0.2756,-0.2036,0.9102,192,9.3994,-9.7046,-20.3247,82,1.1746,0,-7.8996,-5.6473,26,0.7974,8467,4.0293,-0.4569
rg,1625579830358947334,1,0.3481,-0.3599,1.0042,193,-25.8179,-8.606,-12.6953,82,1.1756,0,-8.7036,-7.1374,26,0.8054,25562,4.0293,-0.8494
rg,1625579830359034729,1,0.4546,-0.3359,0.928,194,-27.832,-7.7515,-6.3477,82,1.1736,0,-9.6753,-8.6738,26,0.8044,14765,4.0293,-0.9822
rg,1625579830359085863,1,0.375,-0.2583,0.8562,195,-46.6309,1.2207,-9.0332,82,1.1656,0,-10.2005,-10.7674,26,0.7974,7816,4.0293,-1.2924
rg,1625579830359180481,1,0.2915,-0.2192,0.9739,196,-54.6265,4.5776,-10.6812,82,1.1626,0,-10.347,-12.9342,26,0.7964,7860,4.0293,-1.7384
rg,1625579830359232651,1,0.5486,-0.4351,0.696,197,8.0566,24.231,-0.6104,82,1.1616,0,-10.3275,-13.1917,25,0.7964,8023,4.0293,-1.8717
rg,1625579830359278562,1,0.1646,-0.2588,0.8994,198,-8.7891,37.2925,-3.2349,82,1.1606,0,-8.8953,-13.5718,25,0.7964,9544,4.0293,-2.3309
rg,1625579830359322880,1,0.2766,-0.3101,0.8887,199,10.2539,-10.5591,-3.418,82,1.1616,0,-9.6306,-13.371,25,0.7974,8150,4.0293,-2.3329
rg,1625579830359367976,1,0.4626,-0.2244,0.8481,200,11.0474,-23.6206,-8.8501,82,1.1606,0,-11.2065,-13.0777,25,0.7974,7971,4.0293,-2.4358
rg,1625579830359412424,1,0.324,-0.3296,0.9365,201,0.6714,12.146,-10.376,82,1.1576,0,-11.1001,-13.1876,26,0.7964,7949,4.0293,-2.9138
rg,1625579830359454427,1,0.3423,-0.2725,0.8752,202,2.1973,12.5732,-9.0332,82,1.1606,0,-11.0616,-13.1599,26,0.7974,7886,4.0293,-3.3605
rg,1625579830359501486,1,0.3894,-0.3071,0.8696,203,0.6104,16.9067,-7.1411,82,1.1616,0,-10.9348,-13.2811,26,0.7984,7954,4.0293,-3.7572
rg,1625579830359544804,1,0.3364,-0.3647,0.9189,204,0.9155,30.0903,-13.2446,82,1.1616,0,-10.2017,-13.411,26,0.7984,8062,4.0293,-4.5047
rg,1625579830359587788,1,0.27,-0.3264,0.9001,205,5.0659,32.4707,-20.9961,82,1.1606,0,-9.355,-13.2642,25,0.7994,8030,4.0293,-5.5951
rg,1625579830359629143,1,0.2593,-0.3149,0.9031,206,4.7607,31.311,-22.7661,82,1.1596,0,-8.5767,-13.1157,25,0.8004,8036,4.0293,-6.7461
rg,1625579830359669980,1,0.1519,-0.3276,0.9397,207,3.479,34.1797,-22.8882,82,1.1616,0,-7.4606,-13.0449,25,0.8014,8071,4.0293,-7.9243
rg,1625579830359711742,1,0.0974,-0.4731,1.0288,208,11.8408,25.8179,-20.2637,82,1.1646,0,-6.5433,-12.9038,25,0.8034,8100,4.0293,-8.8943
rg,1625579830359753615,1,0.1499,-0.5073,1.0652,209,23.6206,16.3574,-16.5405,82,1.1646,0,-6.0841,-12.3636,26,0.8024,8195,4.0293,-9.6321
rg,1625579830359796045,1,0.4668,-0.499,1.0488,210,59.8755,20.752,-10.6201,82,1.1666,0,-5.9792,-10.3896,26,0.8024,12268,4.0293,-10.1764
rg,1625579830359866346,1,0.4482,-0.4375,1.0125,211,64.5752,30.8228,-14.9536,82,1.1686,0,-5.0036,-8.0993,26,0.8004,8268,4.0293,-11.2126
rg,1625579830359911127,1,0.2183,-0.2976,0.9531,212,62.5,42.1753,-23.9258,82,1.1696,0,-3.7424,-5.8737,26,0.7984,8216,4.0293,-12.3461
rg,1625579830359951315,1,0.136,-0.2051,0.9326,213,48.0347,23.1934,-22.583,82,1.1706,0,-3.0729,-4.1542,25,0.7964,8228,4.0293,-13.3148
rg,1625579830359991726,1,0.1289,-0.0647,0.9197,214,39.2456,11.6577,-20.752,82,1.1716,0,-3.217,-3.0786,25,0.7954,8246,4.0293,-14.1359
rg,1625579830360033099,1,0.1394,-0.134,0.9365,215,7.3853,-7.6904,-18.1274,82,1.1716,0,-3.8222,-3.083,25,0.7964,8369,4.0293,-14.8253
rg,1625579830360076806,1,0.1909,-0.1799,1.0085,216,-15.686,-24.6582,-15.7471,82,1.1736,0,-5.1077,-3.937,25,0.8004,8295,4.0293,-15.3748
rg,1625579830360121661,1,0.2605,-0.3354,1.0322,217,-35.4614,-33.9355,-8.1787,82,1.1706,0,-6.8177,-5.8671,26,0.8014,10338,4.0293,-15.5314
rg,1625579830360163979,1,0.4568,-0.4299,1.0369,218,-36.0718,-38.5742,-3.6011,82,1.1716,0,-8.9671,-7.9179,26,0.8024,8396,4.0293,-15.4047
rg,1625579830360207334,1,0.5271,-0.4211,0.9963,219,-36.5601,-23.6816,-3.1738,82,1.1646,0,-10.5889,-9.9138,26,0.7994,8412,4.0293,-15.287
rg,1625579830360252634,1,0.5408,-0.3599,0.9968,220,-34.9731,-15.9302,-4.2114,82,1.1606,0,-11.8873,-11.6532,26,0.7964,8359,4.0293,-15.2586
rg,1625579830360295952,1,0.7969,-0.4673,0.7456,221,17.9443,21.5454,3.2349,82,1.1606,0,-12.182,-11.5247,26,0.7974,8446,4.0293,-15.1846
rg,1625579830360342677,1,0.2107,-0.0747,0.7964,222,3.1128,59.7534,-9.0332,82,1.1636,0,-10.0182,-10.9965,26,0.7974,8390,4.0293,-16.0751
rg,1625579830360382273,1,0.0593,-0.2449,0.8918,223,1.0376,57.8003,-11.2305,82,1.1626,0,-8.9307,-10.7878,26,0.7994,8605,4.0293,-16.448
rg,1625579830360423146,1,0.3296,-0.1411,0.8083,224,10.6201,-6.7139,-7.3853,82,1.1596,0,-9.7538,-10.2885,26,0.7984,8499,4.0293,-16.7005
rg,1625579830712834046,1,0.2441,-0.3259,0.9424,225,-8.2397,40.9546,-10.6812,82,1.1606,0,-8.3873,-10.8402,26,0.8034,25259,4.0293,-17.3724
rg,1625579830712947147,1,0.1445,-0.2676,0.9302,226,-8.9722,34.4238,-14.1602,82,1.1636,0,-7.1527,-11.2883,25,0.8054,14562,4.0293,-18.1711
rg,1625579830713044024,1,0.1116,-0.2949,0.9692,227,-10.1318,31.3721,-15.2588,82,1.1646,0,-6.0148,-11.8139,25,0.8074,7798,4.0293,-18.9993
rg,1625579830713094583,1,0.1465,-0.5076,1.0896,228,0.4272,14.9536,-14.0991,82,1.1666,0,-5.5907,-12.24,25,0.8074,7880,4.0293,-19.625
rg,1625579830713141365,1,0.3447,-0.5762,1.0964,229,15.0757,9.6436,-13.0005,82,1.1676,0,-5.668,-11.5031,25,0.8084,7840,4.0293,-20.0677
rg,1625579830713186850,1,0.4326,-0.5479,1.0583,230,46.936,14.8926,-11.2915,82,1.1696,0,-5.7359,-10.158,26,0.8074,7911,4.0293,-20.5753
rg,1625579830713230316,1,0.2461,-0.3215,0.9404,231,58.0444,33.3862,-19.8975,82,1.1706,0,-4.7971,-8.2068,26,0.8034,9878,4.0293,-21.7224
rg,1625579830713274115,1,0.1338,-0.2668,0.9287,232,49.8657,32.2876,-23.6206,82,1.1716,0,-3.7639,-6.4405,26,0.8004,7958,4.0293,-22.8038
rg,1625579830713318674,1,0.0693,-0.1807,0.9116,233,34.2407,5.6152,-25.5127,82,1.1716,0,-3.6642,-5.1949,26,0.7984,8009,4.0293,-23.8318
rg,1625579830713363622,1,0.1509,-0.1816,0.9092,234,9.4604,-23.8037,-22.2168,82,1.1726,0,-4.9086,-4.995,25,0.7984,8053,4.0293,-24.6195
rg,1625579830713411755,1,0.2688,-0.2041,0.9893,235,1.709,-32.5317,-18.7378,82,1.1736,0,-6.7427,-5.4042,25,0.8004,7997,4.0293,-25.1559
rg,1625579830713455536,1,0.2056,-0.1804,0.9714,236,-15.0146,-32.7759,-15.3809,82,1.1746,0,-8.3012,-6.1376,25,0.8064,8919,4.0293,-25.6151
rg,1625579830713499336,1,0.262,-0.3608,0.9893,237,-31.3721,-43.5181,-6.6528,82,1.1736,0,-10.2849,-7.9147,25,0.8074,8492,4.0293,-25.5847
rg,1625579830713543524,1,0.4985,-0.3843,0.9604,238,-38.3911,-50.4761,-3.8452,82,1.1716,-0.001,-12.9055,-9.979,25,0.8054,8115,4.0293,-25.3173
rg,1625579830713590046,1,0.5308,-0.3909,0.9583,239,-40.5273,-37.4756,-4.5776,82,1.1616,0,-14.9981,-11.9788,25,0.7954,7946,4.0293,-25.1167
rg,1625579830713636531,1,0.4932,-0.1855,1.126,240,-34.4238,-16.8457,-2.6855,82,1.1576,0,-16.0033,-13.2618,25,0.7904,8190,4.0293,-25.0952
rg,1625579830713678701,1,0.6516,0.0093,0.6912,241,16.0522,19.6533,-7.1411,82,1.1586,0,-16.3505,-12.068,25,0.7914,8203,4.0293,-25.6947
rg,1625579830713721759,1,0.4641,0.1331,0.7671,242,0.1831,44.6167,-6.958,82,1.1596,0,-14.1038,-12.4636,26,0.7904,8206,4.0293,-26.6348
rg,1625579830713764392,1,0.0469,-0.3433,0.9475,243,-5.4321,46.875,-9.6436,82,1.1556,0,-11.9169,-12.796,26,0.7884,8171,4.0293,-27.3709
rg,1625579830713808710,1,0.3591,-0.2007,0.856,244,0.8545,6.5918,-7.9956,82,1.1576,0,-12.1336,-12.6946,26,0.7904,8226,4.0293,-27.7478
rg,1625579830713884179,1,0.3218,-0.3105,0.9285,245,-5.6763,19.6533,-6.4087,82,1.1576,0,-11.2693,-13.1694,26,0.7904,8175,4.0293,-28.204
rg,1625579830713934090,1,0.3025,-0.3162,0.9155,246,-10.6812,34.4849,-5.3711,82,1.1546,0,-10.2214,-13.7171,25,0.7894,8251,4.0293,-28.6993
rg,1625579830713977037,1,0.2861,-0.3264,0.915,247,-7.4463,35.5225,-7.9956,82,1.1556,-0.001,-9.1679,-14.1263,25,0.7894,8237,4.0293,-29.3214
rg,1625579830714025022,1,0.2078,-0.3306,0.9287,248,-4.8218,39.3066,-14.1602,82,1.1576,0,-7.8963,-14.3879,25,0.7934,8129,4.0293,-30.2353
rg,1625579830714072822,1,0.1836,-0.3342,0.949,249,-2.1362,34.2407,-14.5264,82,1.1566,0,-6.8159,-14.549,25,0.7944,8321,4.0293,-31.1218
rg,1625579830714113603,1,0.1558,-0.3262,0.9314,250,5.188,29.48,-16.6016,82,1.1616,0,-5.9286,-14.42,25,0.7974,8326,4.0293,-32.0447
rg,1625579830714162903,1,0.1555,-0.4377,1.0046,251,20.4468,21.9727,-13.4888,82,1.1626,0,-5.298,-13.8864,25,0.8004,8336,4.0293,-32.7505
rg,1625579830714211777,1,0.228,-0.4993,1.0437,252,33.1421,19.7144,-9.7656,82,1.1646,0,-5.1239,-12.9913,25,0.8014,8326,4.0293,-33.2763
rg,1625579830714256132,1,0.4871,-0.4873,1.0176,253,59.4482,19.6533,-10.437,82,1.1636,0,-5.1569,-11.0213,25,0.7994,8396,4.0293,-33.823
rg,1625579830714303580,1,0.3994,-0.3601,0.9255,254,63.2935,40.1611,-22.0947,82,1.1646,0,-4.3881,-8.7741,25,0.7954,8846,4.0293,-34.954
rg,1625579830714345342,1,0.2026,-0.304,0.927,255,56.3965,48.8892,-25.3296,82,1.1666,0,-2.886,-6.8048,25,0.7914,8395,4.0293,-36.2033
rg,1625579830714396494,1,0.1353,-0.2556,0.939,256,45.0439,33.4473,-27.0386,82,1.1696,0,-1.8732,-5.2857,25,0.7894,9084,4.0293,-37.4071
rg,1625579831070806807,1,0.1555,-0.1379,0.9302,257,26.1841,11.7188,-22.3389,82,1.1706,0,-1.7788,-4.3337,25,0.7854,25512,4.0293,-38.3359
rg,1625579831070882497,1,0.1941,-0.1318,0.9512,258,-6.5308,-10.376,-8.9111,82,1.1706,0,-2.5985,-4.7184,25,0.7884,14972,4.0293,-38.6532
rg,1625579831070933686,1,0.229,-0.2146,1.0337,259,-34.2407,-20.3857,-5.188,82,1.1726,0,-3.807,-6.3462,25,0.7924,7800,4.0293,-38.7633
rg,1625579831071027378,1,0.2256,-0.3374,1.0291,260,-43.457,-23.9868,-4.3335,82,1.1726,0,-5.3148,-8.7512,25,0.7954,7904,4.0293,-38.6884
rg,1625579831071075807,1,0.3096,-0.3669,1.0137,261,-45.4102,-33.6914,-1.0986,82,1.1726,0,-7.0679,-11.0043,25,0.7964,7880,4.0293,-38.4511
rg,1625579831071120995,1,0.4873,-0.3271,0.9404,262,-51.8188,-32.1045,2.6245,82,1.1676,0,-9.0345,-13.4149,25,0.7924,8682,4.0293,-38.021
rg,1625579831071164628,1,0.5723,-0.2617,0.9067,263,-55.2368,-13.1836,-0.9155,82,1.1626,-0.001,-10.4066,-15.7252,26,0.7844,9286,4.0293,-37.8909
rg,1625579831071209724,1,0.5569,-0.2056,0.9863,264,-54.0771,0.7935,-2.1362,82,1.1566,0,-11.1198,-17.7227,26,0.7834,7774,4.0293,-37.9974
rg,1625579831071252486,1,0.678,-0.4067,0.7126,265,6.5308,42.4194,-2.2583,82,1.1566,0,-10.6226,-17.7127,26,0.7834,7946,4.0293,-38.5425
rg,1625579831071296600,1,0.1396,-0.2317,0.8667,266,-5.0049,66.1011,-11.8408,82,1.1576,0,-8.184,-17.591,26,0.7844,7977,4.0293,-39.8359
rg,1625579831071340714,1,-0.0537,-0.4697,0.9385,267,-3.2959,61.0962,-14.1602,82,1.1546,0,-5.6028,-17.9193,25,0.7844,8057,4.0293,-41.0821
rg,1625579831071383606,1,0.2471,-0.2683,0.8745,268,6.958,12.3901,-11.4746,82,1.1566,0,-5.6456,-17.546,25,0.7844,8046,4.0293,-41.6788
rg,1625579831071425146,1,0.2495,-0.3967,0.9666,269,0.061,30.0293,-10.9863,82,1.1556,0,-4.9444,-17.6508,25,0.7874,8098,4.0293,-42.4474
rg,1625579831071465408,1,0.2654,-0.3923,0.9556,270,1.5259,29.1138,-13.1226,82,1.1546,0,-4.3707,-17.6954,25,0.7874,8081,4.0293,-43.2898
rg,1625579831071513171,1,0.3193,-0.2998,0.9172,271,8.2397,32.7759,-17.0898,82,1.1566,0,-3.8754,-17.302,26,0.7904,8141,4.0293,-44.3414
rg,1625579831071558489,1,0.178,-0.1531,0.8635,272,6.1646,41.8091,-23.0103,82,1.1586,0,-2.851,-16.6901,26,0.7924,9895,4.0293,-45.7354
rg,1625579831071601510,1,-0.0371,-0.177,0.9143,273,-7.1411,38.0249,-25.3906,82,1.1596,0,-1.488,-16.6904,26,0.7964,8180,4.0293,-47.1585
rg,1625579831071647513,1,-0.0623,-0.3022,0.9907,274,-11.0474,26.1841,-22.583,82,1.1606,-0.001,-0.557,-17.1164,26,0.7974,8230,4.0293,-48.3285
rg,1625579831071691831,1,0.1084,-0.4458,1.0901,275,4.3335,-4.2114,-15.0757,82,1.1596,-0.001,-1.0807,-17.1334,25,0.7974,8053,4.0293,-48.8531
rg,1625579831071738483,1,0.3892,-0.5237,1.1133,276,27.5879,-4.0894,-9.5825,82,1.1646,-0.001,-1.9896,-16.3234,25,0.8004,8075,4.0293,-49.1725
rg,1625579831071817581,1,0.4351,-0.5251,1.093,277,36.9873,6.2256,-12.5122,82,1.1666,-0.001,-2.5685,-15.1253,25,0.8004,8091,4.0293,-49.7196
rg,1625579831071866602,1,0.2969,-0.3694,0.9814,278,48.8281,23.7427,-21.5454,82,1.1676,0,-2.3826,-13.3377,25,0.7984,12118,4.0293,-50.7892
rg,1625579831071934403,1,0.304,-0.3196,0.9846,279,44.8608,22.0947,-22.583,82,1.1686,0,-2.3225,-11.7164,26,0.7954,8308,4.0293,-51.9345
rg,1625579831071979629,1,0.2505,-0.2397,0.9534,280,36.377,17.7612,-27.3438,82,1.1696,0,-2.3061,-10.3061,26,0.7934,8355,4.0293,-53.1475
rg,1625579831072021780,1,0.2456,-0.2378,0.9395,281,23.1323,12.207,-28.9307,82,1.1696,0,-2.4929,-9.4791,26,0.7924,8484,4.0293,-54.3703
rg,1625579831072063746,1,0.2124,-0.1865,0.9241,282,10.6201,9.7046,-25.3296,82,1.1706,0,-2.6751,-9.0798,26,0.7914,9797,4.0293,-55.4324
rg,1625579831072375323,1,0.2051,-0.2378,0.9905,283,-4.0283,5.127,-19.2871,82,1.1716,0,-2.94,-9.3707,25,0.7914,9474,4.0293,-56.2192
rg,1625579831072436327,1,0.2507,-0.2871,0.9963,284,-8.1787,0.9155,-16.6626,82,1.1726,0,-3.642,-10.1086,25,0.7944,8299,4.0293,-56.7872
rg,1625579831072483090,1,0.2981,-0.3079,1.0066,285,-17.2119,-8.728,-13.3667,82,1.1716,0,-4.5602,-11.0221,25,0.7964,8361,4.0293,-57.2294
rg,1625579831072535427,1,0.324,-0.3481,1.0144,286,-19.3481,-2.5024,-11.3525,82,1.1726,0,-5.2302,-12.0549,25,0.8004,8448,4.0293,-57.6278
rg,1625579831072582096,1,0.2439,-0.3179,0.9995,287,-20.4468,0.9766,-5.9204,82,1.1736,0,-5.5533,-13.0606,26,0.8034,8454,4.0293,-57.8464
rg,1625579831072635230,1,0.2041,-0.2639,0.929,288,-25.3906,-6.7749,-4.5166,82,1.1706,0,-6.1683,-14.1659,26,0.8024,8431,4.0293,-57.9455
rg,1625579831436072507,1,0.7393,-0.5977,0.8379,289,-17.334,-8.7891,7.5073,82,1.1546,0,-7.557,-15.5755,26,0.7894,25675,4.0293,-57.4762
rg,1625579831436148216,1,0.0569,-0.5259,0.99,290,-18.3105,23.3154,-12.2681,82,1.1536,0,-6.6212,-16.7007,26,0.7894,14065,4.0293,-58.1501
rg,1625579831436235630,1,0.49,-0.2029,0.8521,291,4.4556,-40.2222,-6.5308,82,1.1546,0,-9.1011,-16.4322,26,0.7894,7920,4.0293,-57.955
rg,1625579831436285466,1,0.4897,-0.2686,0.9238,292,-0.7324,-27.71,-12.146,93,1.1546,0,-9.5523,-16.6103,25,0.7904,7884,4.0238,-58.6007
rg,1625579831436358194,1,0.2563,-0.2551,0.9021,293,-11.4136,30.8228,-13.916,93,1.1546,0,-8.7607,-16.8862,25,0.7904,7845,4.0238,-59.5072
rg,1625579831436405252,1,0.2148,-0.2502,0.8623,294,-11.5356,16.9678,-11.9019,93,1.1546,0,-8.4373,-17.2153,25,0.7924,7949,4.0238,-60.1739
rg,1625579831436448237,1,0.2891,-0.2625,0.8816,295,-16.0522,14.3433,-13.1836,93,1.1556,0,-8.4029,-17.7268,25,0.7944,9321,4.0238,-60.86
rg,1625579831436490203,1,0.2639,-0.3391,0.9299,296,-18.1885,16.1743,-15.625,93,1.1556,-0.001,-8.1427,-18.5586,25,0.7974,8006,4.0238,-61.6304
rg,1625579831436533965,1,0.2258,-0.4893,1.0317,297,-11.7188,12.3901,-16.2354,93,1.1566,0,-8.0058,-19.1776,25,0.7974,7842,4.0238,-62.3753
rg,1625579831436575783,1,0.3037,-0.5684,1.0247,298,10.5591,7.9346,-16.6626,93,1.1606,0,-8.1851,-19.0259,25,0.8014,8243,4.0238,-63.0646
rg,1625579831436618267,1,0.3906,-0.5735,1.0168,299,25.8789,10.437,-16.0522,93,1.1616,0,-8.1655,-17.7225,25,0.8004,8055,4.0238,-63.7236
rg,1625579831436660918,1,0.4775,-0.4702,0.9363,300,56.6406,47.9736,-11.8408,93,1.1636,0,-7.1105,-15.6474,25,0.8004,8219,4.0238,-64.7054
rg,1625579831436703236,1,0.3574,-0.4592,0.9285,301,58.0444,60.8521,-17.8223,93,1.1656,0,-5.1033,-13.5034,25,0.7994,8134,4.0238,-66.1745
rg,1625579831436744276,1,0.1011,-0.3118,0.8691,302,58.6548,59.2651,-24.4141,93,1.1676,0,-3.052,-11.3026,25,0.7974,8078,4.0238,-67.6213
rg,1625579831436785131,1,-0.0144,-0.2307,0.8635,303,47.2412,36.6211,-21.5454,93,1.1676,0,-1.6146,-9.5159,25,0.7964,8112,4.0238,-68.7249
rg,1625579831436840357,1,0.0356,-0.1899,0.8567,304,42.4805,19.6533,-17.7002,93,1.1686,0,-1.507,-8.2414,26,0.7964,8220,4.0238,-69.3686
rg,1625579831436895009,1,0.1035,-0.1541,0.8958,305,25.6958,-5.6763,-13.5498,93,1.1676,0,-2.0013,-7.259,26,0.7954,8276,4.0238,-69.8754
rg,1625579831436963439,1,0.2209,-0.1797,0.9299,306,8.5449,-18.1274,-11.1084,93,1.1706,0,-3.2103,-7.042,26,0.7964,8183,4.0238,-70.2221
rg,1625579831437033944,1,0.2422,-0.2209,0.9897,307,-13.4888,-23.9258,-5.3711,93,1.1716,0,-4.5858,-7.7855,26,0.8004,8168,4.0238,-70.297
rg,1625579831437076484,1,0.2881,-0.2595,0.9744,308,-20.874,-28.7476,-5.5542,93,1.1716,0,-6.3284,-8.9827,25,0.8044,8583,4.0238,-70.3131
rg,1625579831437150934,1,0.438,-0.3586,1.0115,309,-31.1279,-26.6113,-3.54,93,1.1736,0,-8.1255,-10.5641,25,0.8034,8266,4.0238,-70.224
rg,1625579831437226198,1,0.4822,-0.241,0.9094,310,-32.8979,-7.5684,-1.1597,93,1.1686,0,-9.1676,-12.0287,25,0.7994,8304,4.0238,-70.1794
rg,1625579831437305630,1,0.3975,-0.2673,0.8994,311,-47.9126,11.7188,-2.9297,93,1.1626,0,-9.2774,-14.0681,25,0.7974,8279,4.0238,-70.3668
rg,1625579831437390117,1,0.5764,-0.5742,1.1372,312,-49.1333,16.5405,-0.3052,93,1.1606,0,-8.5697,-15.4148,26,0.7984,8484,4.0238,-70.3002
rg,1625579831437437453,1,0.5579,-0.3535,0.7378,313,17.4561,44.8608,5.188,93,1.1566,0,-7.7756,-15.0103,26,0.7974,8363,4.0238,-70.5298
rg,1625579831437506884,1,0.0132,-0.4573,0.9534,314,-7.8125,71.2891,-5.6152,93,1.1596,0,-4.8195,-15.6309,26,0.7984,8337,4.0238,-71.4523
rg,1625579831437568648,1,0.0908,-0.3796,0.9224,315,19.7144,8.4229,-1.4648,93,1.1586,0,-4.5266,-15.0946,26,0.8004,8422,4.0238,-71.5767
rg,1625579831437647487,1,0.3259,-0.259,0.8423,316,26.123,-13.7939,-2.6245,93,1.1616,0,-5.8327,-14.2302,25,0.8014,8302,4.0238,-71.5304
rg,1625579831437716399,1,0.3823,-0.3022,0.8567,317,23.8647,17.8223,-11.4746,93,1.1586,0,-5.914,-13.4016,25,0.8034,12059,4.0238,-72.1363
rg,1625579831437803460,1,0.3396,-0.3511,0.9009,318,25.1465,30.1514,-16.2964,93,1.1596,0,-5.4173,-12.6004,25,0.8044,9018,4.0238,-73.0218
rg,1625579831437875595,1,0.2837,-0.3323,0.886,319,26.5503,35.2173,-18.9819,93,1.1606,0,-4.6489,-11.7484,26,0.8064,8537,4.0238,-74.0412
rg,1625579831437944489,1,0.2104,-0.2847,0.8862,320,28.7476,35.8276,-23.0103,93,1.1616,0,-3.7467,-10.7462,26,0.8074,8409,4.0238,-75.2115
rg,1625579831797299354,1,0.0283,-0.1282,0.8862,321,13.3057,22.0947,-24.7803,93,1.1656,0,-2.9819,-10.0465,25,0.8104,25736,4.0238,-76.3544
rg,1625579831797441567,1,0.0405,-0.2024,0.968,322,0.7324,5.9204,-20.9351,93,1.1686,0,-2.8697,-10.0401,25,0.8124,11448,4.0238,-77.2179
rg,1625579831797494979,1,0.1794,-0.3354,1.0435,323,1.8311,-8.8501,-13.2446,93,1.1696,0,-3.5644,-10.2423,25,0.8124,10195,4.0238,-77.662
rg,1625579831797627488,1,0.3679,-0.4062,1.0903,324,11.8408,-5.9814,-7.0801,93,1.1706,0,-4.3979,-10.1343,25,0.8134,7924,4.0238,-77.8758
rg,1625579831797678343,1,0.428,-0.3901,1.0708,325,17.9443,1.1597,-8.4839,93,1.1716,0,-5.0488,-9.694,26,0.8144,8389,4.0238,-78.1986
rg,1625579831797727476,1,0.3521,-0.3113,1.032,326,25.2686,21.0571,-11.9629,93,1.1726,0,-4.8098,-8.8985,26,0.8134,9652,4.0238,-78.7899
rg,1625579831797773979,1,0.2168,-0.3003,0.9902,327,25.9399,23.2544,-15.4419,93,1.1736,0,-4.2624,-8.1114,26,0.8124,7985,4.0238,-79.5172
rg,1625579831797820964,1,0.272,-0.293,0.9814,328,25.6348,10.498,-18.0054,93,1.1736,0,-4.3631,-7.3544,26,0.8124,8196,4.0238,-80.2685
rg,1625579831797865856,1,0.3091,-0.2791,0.9968,329,23.2544,8.1177,-18.9819,93,1.1746,0,-4.6789,-6.7051,25,0.8094,8016,4.0238,-81.085
rg,1625579831797915526,1,0.2725,-0.2595,0.9827,330,20.5688,10.1318,-20.6299,93,1.1726,0,-4.7771,-6.1209,25,0.8074,7986,4.0238,-81.9303
rg,1625579831797958751,1,0.2249,-0.2412,0.9629,331,8.728,7.0801,-20.2026,93,1.1756,0,-4.8972,-6.0074,25,0.8094,8035,4.0238,-82.7416
rg,1625579831798003588,1,0.2544,-0.3132,1.012,332,3.3569,3.7842,-20.2637,93,1.1756,0,-5.2747,-6.3221,25,0.8094,8089,4.0238,-83.4913
rg,1625579831798049498,1,0.2566,-0.2932,1.0288,333,-0.6714,0,-17.8833,93,1.1746,0,-5.6809,-6.6482,26,0.8084,8129,4.0238,-84.1704
rg,1625579831798093113,1,0.2119,-0.291,1.0203,334,-8.4839,-4.8828,-15.5029,93,1.1776,0,-6.1724,-7.2838,26,0.8124,8023,4.0238,-84.7283
rg,1625579831798134060,1,0.2156,-0.314,1.0159,335,-14.8926,-11.9019,-12.8784,93,1.1786,0,-7.2182,-8.4468,26,0.8164,8158,4.0238,-85.1508
rg,1625579831798178507,1,0.2598,-0.3462,1.0083,336,-26.5503,-28.3813,-13.916,93,1.1736,0,-8.6813,-9.8575,26,0.8144,8136,4.0238,-85.4684
rg,1625579831798220936,1,0.3025,-0.3611,0.9534,337,-40.2222,-32.2876,-16.1133,93,1.1676,0,-10.3781,-11.8101,25,0.8084,8219,4.0238,-85.7948
rg,1625579831798264550,1,0.332,-0.27,1.2212,338,-48.1567,-29.0527,-13.4277,93,1.1606,0,-11.8002,-13.7003,25,0.8034,8200,4.0238,-86.0593
rg,1625579831798307016,1,0.7415,-0.6377,1.0525,339,-9.4604,-11.5356,-0.3662,93,1.1576,0,-13.0121,-14.6959,25,0.8014,8252,4.0238,-85.8283
rg,1625579831798350445,1,0.4116,0.2041,0.8647,340,4.5166,28.1982,-10.9863,93,1.1556,0,-12.542,-13.3634,25,0.7994,8213,4.0238,-86.7791
rg,1625579831798432303,1,-0.0447,-0.4517,1.0115,341,7.5684,29.8462,-13.1226,93,1.1576,0,-10.9298,-13.3248,25,0.8014,8262,4.0238,-87.4888
rg,1625579831798484640,1,0.2632,-0.1409,0.8582,342,18.7378,-18.2495,-11.9629,93,1.1546,0,-12.8276,-12.5583,25,0.8004,8393,4.0238,-87.9148
rg,1625579831798531717,1,0.4456,-0.2473,0.9451,343,5.0049,-4.7607,-17.334,93,1.1526,0,-13.6186,-12.2836,25,0.7994,8350,4.0238,-88.5529
rg,1625579831798579313,1,0.2849,-0.2681,0.926,344,-0.6714,10.6201,-16.4185,93,1.1536,0,-13.4548,-12.2813,25,0.7994,8323,4.0238,-89.2713
rg,1625579831798624742,1,0.3306,-0.2966,0.9304,345,-3.9673,14.4043,-13.0615,93,1.1526,0,-12.8987,-12.5072,26,0.8014,9405,4.0238,-90.0049
rg,1625579831798669264,1,0.2444,-0.3081,0.9534,346,-5.3101,28.6255,-19.104,93,1.1526,0,-11.9829,-12.7082,26,0.8024,8521,4.0238,-90.9781
rg,1625579831798711026,1,0.1611,-0.2761,0.9507,347,-4.2725,23.1323,-17.8223,93,1.1536,0,-11.1307,-12.8299,26,0.8044,8420,4.0238,-91.8688
rg,1625579831798752454,1,0.2168,-0.3303,0.9719,348,-2.6245,13.5498,-15.3809,93,1.1546,0,-10.7728,-13.0256,26,0.8064,8414,4.0238,-92.5585
rg,1625579831798794717,1,0.2725,-0.4749,1.0454,349,2.0142,12.6953,-16.1743,93,1.1566,0,-10.5193,-12.8369,26,0.8084,8411,4.0238,-93.1673
rg,1625579831798837997,1,0.3157,-0.4753,1.0449,350,26.123,15.9302,-11.4746,93,1.1596,0,-10.3262,-12.1488,26,0.8104,9158,4.0238,-93.6807
rg,1625579831798880500,1,0.4092,-0.4792,1.0215,351,49.0112,28.3813,-11.1084,93,1.1606,0,-9.6911,-10.5608,26,0.8094,9075,4.0238,-94.269
rg,1625579831798928300,1,0.334,-0.3831,0.9541,352,58.1665,35.6445,-19.104,93,1.1656,0,-8.7502,-8.5067,25,0.8064,8524,4.0238,-95.2062
rg,1625579832153553597,1,0.0425,-0.062,0.9104,353,37.0483,20.9961,-21.9727,93,1.1666,0,-8.2405,-7.1833,25,0.7994,25259,4.0238,-96.0793
rg,1625579832153635787,1,0.1235,-0.1453,0.9556,354,-5.188,-21.4233,-13.7329,93,1.1676,0,-9.1172,-7.3795,25,0.8014,14160,4.0238,-96.5122
rg,1625579832153687365,1,0.2314,-0.1157,0.9666,355,-20.3247,-35.5225,-10.9863,93,1.1686,0,-10.745,-8.1236,25,0.8044,7919,4.0238,-96.7618
rg,1625579832153739664,1,0.3521,-0.2788,1.0364,356,-34.1187,-37.2314,-4.6387,93,1.1696,0,-12.5315,-9.7579,25,0.8074,7945,4.0238,-96.658
rg,1625579832153787760,1,0.47,-0.3359,1.0359,357,-34.3018,-39.917,-2.0752,93,1.1696,0,-14.5353,-11.4809,25,0.8094,7925,4.0238,-96.3654
rg,1625579832153834245,1,0.6248,-0.3499,1.0269,358,-33.2031,-23.8037,-2.1362,93,1.1706,0,-16.081,-13.0962,25,0.8104,7959,4.0238,-96.1676
rg,1625579832153880377,1,0.4714,-0.3091,0.9343,359,-38.3911,5.7373,-2.8687,93,1.1696,0,-16.259,-14.7696,25,0.8104,9277,4.0238,-96.2827
rg,1625579832153927380,1,0.3772,-0.3181,0.9363,360,-42.1143,11.4746,-4.2114,93,1.1646,0,-15.9249,-16.5706,25,0.8064,7923,4.0238,-96.578
rg,1625579832153976939,1,0.2844,-0.2795,0.9939,361,-43.1519,11.1084,-4.7607,93,1.1596,0,-15.5347,-18.1634,25,0.8024,7974,4.0238,-96.9162
rg,1625579832154022923,1,0.4661,-0.2417,0.718,362,7.5684,23.5596,-0.4272,93,1.1576,0,-15.2708,-17.7871,26,0.8024,9368,4.0238,-97.2356
rg,1625579832154070723,1,0.1296,-0.2197,0.8574,363,-11.7188,41.8091,-3.479,93,1.1576,0,-13.4513,-17.9461,26,0.8004,9808,4.0238,-97.9419
rg,1625579832154118244,1,0.2012,-0.1904,0.8481,364,-1.8311,7.8735,1.3428,93,1.1576,0,-13.1183,-17.794,26,0.8024,8233,4.0238,-98.0393
rg,1625579832154166692,1,0.4126,-0.1816,0.8232,365,-1.5869,-3.2349,0.2441,93,1.1556,0,-13.7454,-17.6686,26,0.8034,8159,4.0238,-98.036
rg,1625579832154213973,1,0.3987,-0.2932,0.9021,366,-9.0332,26.1841,-4.6997,93,1.1536,0,-13.1626,-17.9174,26,0.8014,8046,4.0238,-98.5479
rg,1625579832154263032,1,0.2603,-0.324,0.9138,367,-12.085,37.9028,-6.3477,93,1.1536,-0.001,-11.8765,-18.2989,26,0.8034,11991,4.0238,-99.2659
rg,1625579832154312646,1,0.2378,-0.2954,0.9221,368,-11.4136,38.3911,-9.0942,93,1.1536,0,-10.6131,-18.5629,26,0.8044,8044,4.0238,-100.1196
rg,1625579832154360556,1,0.1692,-0.3176,0.9285,369,-9.9487,42.0532,-12.4512,93,1.1546,0,-9.1496,-18.7913,25,0.8064,8185,4.0238,-101.1455
rg,1625579832154407689,1,0.1172,-0.4146,0.9915,370,-6.0425,43.2739,-12.7563,93,1.1566,0,-7.5732,-19.1327,25,0.8084,8195,4.0238,-102.1627
rg,1625579832154455526,1,0.2114,-0.53,1.0574,371,21.4233,31.7993,-6.8359,93,1.1596,0,-6.5639,-18.4836,25,0.8104,8173,4.0238,-102.8004
rg,1625579832154503269,1,0.3911,-0.5317,1.0171,372,50.8423,38.0249,-8.9722,93,1.1626,0,-5.711,-16.7068,25,0.8104,10368,4.0238,-103.5773
rg,1625579832154549606,1,0.3367,-0.4202,0.9578,373,63.2935,51.5137,-16.7236,93,1.1646,0,-4.3895,-14.3362,25,0.8074,8728,4.0238,-104.7637
rg,1625579832154593516,1,0.0938,-0.3,0.916,374,57.312,48.7671,-26.3062,93,1.1646,0,-2.7838,-12.1052,25,0.8044,8246,4.0238,-106.2275
rg,1625579832154638223,1,0.0081,-0.2598,0.9082,375,50.354,35.5835,-27.4658,93,1.1666,0,-1.4042,-10.0612,25,0.8024,8452,4.0238,-107.5763
rg,1625579832154682096,1,-0.0474,-0.1375,0.8896,376,33.9966,3.2349,-26.8555,93,1.1656,0,-1.2763,-8.6275,25,0.7994,8335,4.0238,-108.6564
rg,1625579832154812049,1,0.0894,-0.1538,0.9067,377,11.5356,-27.5269,-23.6816,93,1.1696,0,-2.6689,-8.1779,26,0.8014,8315,4.0238,-109.4323
rg,1625579832154870034,1,0.2183,-0.198,1.001,378,2.6855,-36.1938,-20.3247,93,1.1696,0,-4.6082,-8.3534,26,0.8034,8410,4.0238,-109.9232
rg,1625579832154916259,1,0.1919,-0.1799,0.9851,379,-9.8877,-35.1562,-14.5874,93,1.1686,0,-6.3259,-8.7882,26,0.8054,8424,4.0238,-110.2846
rg,1625579832154962540,1,0.2249,-0.3323,0.9956,380,-28.8696,-44.8608,-12.4512,93,1.1666,0,-8.4006,-10.2877,26,0.8094,8515,4.0238,-110.4344
rg,1625579832155009136,1,0.4866,-0.3755,0.9702,381,-33.0811,-55.481,-8.606,93,1.1716,0,-11.2883,-12.0144,26,0.8114,8539,4.0238,-110.2729
rg,1625579832155278190,1,0.5862,-0.2959,0.9236,382,-39.917,-32.1045,-10.0708,93,1.1676,0,-13.3937,-13.7809,26,0.8044,10013,4.0238,-110.3299
rg,1625579832155337342,1,0.4341,-0.2273,0.8755,383,-50.354,-3.418,-15.0757,93,1.1566,0,-14.1554,-15.6803,26,0.7954,8518,4.0238,-110.8807
rg,1625579832155391568,1,0.3386,-0.1716,1.0828,384,-51.1475,3.2349,-15.0146,93,1.1556,0,-14.774,-17.9532,26,0.7944,8563,4.0238,-111.4056
rg,1625579832508562348,1,0.0283,-0.4539,0.9824,385,-6.3477,30.9448,-17.4561,93,1.1526,0,-13.298,-18.2178,26,0.7954,25362,4.0238,-112.4173
rg,1625579832508625741,1,0.5442,-0.3118,0.9062,386,-2.1362,11.7188,-13.916,93,1.1536,0,-13.6612,-18.1634,25,0.7964,14325,4.0238,-113.1077
rg,1625579832508648224,1,0.4211,-0.3628,0.9333,387,-2.9907,32.1655,-17.1509,93,1.1536,0,-12.4204,-18.012,25,0.7974,8129,4.0238,-114.3929
rg,1625579832508667448,1,0.2129,-0.3179,0.9163,388,-1.1597,43.8843,-21.1792,93,1.1536,0,-11.0125,-17.8184,25,0.7994,8020,4.0238,-115.7606
rg,1625579832508686060,1,0.1709,-0.2834,0.9197,389,1.9531,33.3862,-21.4233,93,1.1566,-0.001,-9.9644,-17.4823,25,0.8024,11305,4.0238,-117.01
rg,1625579832508704691,1,0.1772,-0.4236,1.0129,390,5.9204,25.5737,-22.1558,93,1.1586,0,-9.2239,-17.2533,26,0.8054,7856,4.0238,-118.143
rg,1625579832508723285,1,0.2405,-0.5659,1.0789,391,31.1279,19.7144,-16.7236,93,1.1606,0,-8.7454,-16.2777,26,0.8074,8105,4.0238,-118.9579
rg,1625579832508741323,1,0.3386,-0.551,1.0715,392,49.0112,18.4937,-13.855,93,1.1626,0,-8.4614,-14.6268,26,0.8084,8081,4.0238,-119.6387
rg,1625579832508758676,1,0.5005,-0.4175,0.9717,393,67.0776,26.5503,-17.5171,93,1.1646,0,-8.2538,-12.1215,26,0.8064,8085,4.0238,-120.5462
rg,1625579832508775121,1,0.3501,-0.3137,0.9299,394,62.6221,44.6167,-27.0386,93,1.1666,0,-7.1602,-9.6763,26,0.8024,9325,4.0238,-121.9341
rg,1625579832508793363,1,0.0588,-0.1804,0.9077,395,56.7017,48.584,-29.7852,93,1.1656,0,-5.5282,-7.7079,26,0.8024,8032,4.0238,-123.2382
rg,1625579832508810809,1,-0.0122,-0.144,0.9241,396,36.8042,28.4424,-25.0854,93,1.1656,0,-4.2749,-6.1875,26,0.7994,8070,4.0238,-124.3686
rg,1625579832508828199,1,0.0088,-0.0679,0.9241,397,9.0942,-10.6812,-18.2495,93,1.1686,0,-4.6252,-5.6914,26,0.7994,8098,4.0238,-125.0577
rg,1625579832508846496,1,0.2271,-0.0947,0.9561,398,-17.1509,-40.8936,-13.1226,93,1.1686,0,-6.6414,-6.3379,25,0.8034,8082,4.0238,-125.4078
rg,1625579832508863812,1,0.3042,-0.2695,1.0327,399,-47.6074,-44.0063,-13.6108,93,1.1706,0,-8.8158,-8.5098,25,0.8084,10114,4.0238,-125.6784
rg,1625579832508880702,1,0.3875,-0.3862,1.0491,400,-52.7344,-45.166,-13.1226,93,1.1686,0,-11.0863,-11.0149,25,0.8084,8239,4.0238,-125.8146
rg,1625579832508897185,1,0.5498,-0.4265,1.0242,401,-54.2603,-33.9966,-7.3853,93,1.1676,-0.001,-13.0722,-13.5951,25,0.8064,8344,4.0238,-125.7183
rg,1625579832508914964,1,0.6047,-0.415,0.9775,402,-47.9736,-10.5591,-4.4556,93,1.1626,0,-14.1721,-15.8224,25,0.8034,8141,4.0238,-125.6974
rg,1625579832508932872,1,0.5837,-0.3784,0.9717,403,-42.9077,2.3804,-5.7983,93,1.1596,-0.001,-14.6523,-17.7056,25,0.8024,8253,4.0238,-125.8889
rg,1625579832508950485,1,0.6819,-0.4875,0.8066,404,4.8828,37.9028,-4.2725,93,1.1576,0,-14.0962,-17.7876,25,0.7994,8113,4.0238,-126.4243
rg,1625579832508967652,1,0.1711,-0.175,0.8098,405,1.77,62.5,-12.207,93,1.1586,-0.001,-11.771,-17.2108,25,0.8004,8312,4.0238,-127.7308
rg,1625579832508984931,1,0.0498,-0.2773,0.8523,406,3.0518,57.8003,-15.7471,93,1.1576,0,-10.424,-16.6802,25,0.8004,8560,4.0238,-128.5812
rg,1625579832509004618,1,0.2764,-0.2344,0.8025,407,13.1836,6.1646,-14.8926,93,1.1536,0,-10.6636,-16.0152,25,0.7994,8360,4.0238,-129.2391
rg,1625579832509023286,1,0.3547,-0.249,0.8574,408,8.8501,22.3999,-19.4702,93,1.1556,0,-10.4455,-15.4795,25,0.8004,8372,4.0238,-130.2516
rg,1625579832509055380,1,0.2036,-0.1997,0.8462,409,4.5776,35.0342,-21.7285,87,1.1556,0,-9.4326,-14.9951,25,0.8034,8432,4.0249,-131.495
rg,1625579832509074270,1,0.2075,-0.2683,0.908,410,0.9766,30.8838,-18.9209,87,1.1566,-0.001,-8.6138,-14.9393,25,0.8064,8408,4.0249,-132.505
rg,1625579832509091679,1,0.2346,-0.4082,1.0161,411,7.5073,28.5645,-19.043,87,1.1556,0,-7.8465,-14.7583,25,0.8084,8224,4.0249,-133.5055
rg,1625579832509109180,1,0.334,-0.5244,1.0625,412,33.2031,31.4331,-11.8408,87,1.1596,0,-7.0647,-13.7687,25,0.8114,8386,4.0249,-134.2249
rg,1625579832509126237,1,0.4861,-0.4744,1.0022,413,60.6079,47.9736,-12.6343,87,1.1646,0,-5.9628,-11.6619,25,0.8134,8493,4.0249,-135.1084
rg,1625579832509143386,1,0.4072,-0.4028,0.9812,414,64.5752,59.8755,-15.9912,87,1.1666,0,-4.0904,-9.21,25,0.8124,8456,4.0249,-136.1617
rg,1625579832509162850,1,0.073,-0.1912,0.8933,415,55.6641,66.3452,-19.5923,87,1.1646,0,-1.6021,-7.0447,25,0.8084,8463,4.0249,-137.3072
rg,1625579832509181240,1,-0.1658,-0.0542,0.9109,416,28.4424,30.8838,-20.6299,87,1.1686,0,-0.0028,-5.754,25,0.8094,8464,4.0249,-138.2639
rg,1625579832871611992,1,0.2073,-0.3191,0.9922,417,-39.3066,-60.0586,-20.6909,87,1.1686,0,-2.9189,-7.7712,25,0.8164,23607,4.0249,-138.7941
rg,1625579832871662717,1,0.5891,-0.4431,1.0066,418,-43.396,-45.4102,-12.5732,87,1.1586,0,-5.0399,-9.886,25,0.8094,17759,4.0249,-139.0426
rg,1625579832871683497,1,0.6045,-0.3354,1.1392,419,-32.7148,-10.1318,-9.7656,87,1.1576,0,-6.3549,-11.3885,25,0.8074,7968,4.0249,-139.322
rg,1625579832871737167,1,0.6248,-0.1418,0.7053,420,24.7192,30.9448,-11.7188,87,1.1556,-0.001,-6.5181,-10.3204,25,0.8064,7980,4.0249,-140.0339
rg,1625579832871759001,1,0.3984,0.0334,0.7812,421,12.8784,53.5889,-13.6719,87,1.1546,0,-4.2211,-9.9994,25,0.8064,8021,4.0249,-141.1954
rg,1625579832871778836,1,0.0176,-0.2002,0.8137,422,15.7471,46.3867,-15.564,87,1.1536,0,-2.3841,-9.4667,25,0.8064,8085,4.0249,-142.1134
rg,1625579832871799745,1,0.3787,-0.2078,0.8174,423,12.146,8.0566,-14.5264,87,1.1496,0,-3.0031,-9.1238,25,0.8064,9761,4.0249,-142.7355
rg,1625579832871819505,1,0.3745,-0.3311,0.9102,424,9.1553,31.9214,-16.1743,87,1.1546,0,-2.5565,-9.1148,25,0.8084,8007,4.0249,-143.5577
rg,1625579832871838136,1,0.3079,-0.3325,0.9102,425,10.6812,40.8936,-14.7095,87,1.1556,0,-1.5779,-9.06,25,0.8104,7982,4.0249,-144.3808
rg,1625579832871856786,1,0.3047,-0.3003,0.8896,426,14.7705,42.7856,-15.564,87,1.1516,0,-0.6297,-8.8109,25,0.8094,8064,4.0249,-145.2544
rg,1625579832871875102,1,0.2832,-0.1641,0.8357,427,18.3716,46.1426,-18.0054,87,1.1596,0,0.3912,-8.1605,25,0.8134,8011,4.0249,-146.2433
rg,1625579832871913197,1,0.2405,-0.1284,0.8328,428,15.4419,49.2554,-19.3481,87,1.1576,0,1.7356,-7.497,25,0.8154,8021,4.0249,-147.282
rg,1625579832871934328,1,0.0977,-0.0957,0.8474,429,5.6152,50.7202,-19.6533,87,1.1546,0,3.3131,-7.2756,25,0.8164,8097,4.0249,-148.3236
rg,1625579832871954162,1,0.0466,-0.2646,0.9668,430,-3.479,38.208,-16.4795,87,1.1616,0,4.501,-7.7876,25,0.8194,8093,4.0249,-149.1974
rg,1625579832871971719,1,0.0913,-0.3521,1.021,431,-1.0376,30.5786,-12.6953,87,1.1626,0,5.1409,-8.3933,25,0.8204,8116,4.0249,-149.913
rg,1625579832871990387,1,0.2598,-0.4143,1.0681,432,17.2119,24.7803,-5.6152,87,1.1626,0,5.3922,-8.231,25,0.8194,8164,4.0249,-150.3263
rg,1625579832872008981,1,0.3406,-0.3855,1.0134,433,36.8042,39.7339,-2.5635,87,1.1656,0,6.0717,-7.2685,25,0.8214,8210,4.0249,-150.6972
rg,1625579832872026945,1,0.3137,-0.3416,0.9954,434,43.0298,46.1426,-5.9204,87,1.1666,0,7.1358,-5.9625,25,0.8204,8175,4.0249,-151.3783
rg,1625579832872045279,1,0.168,-0.2925,0.9441,435,44.9829,38.0249,-13.6108,87,1.1666,0,7.9445,-4.6987,26,0.8174,11015,4.0249,-152.1305
rg,1625579832872063188,1,0.1692,-0.2385,0.9185,436,44.9219,23.1934,-17.5171,87,1.1676,0,8.1185,-3.4015,26,0.8164,10077,4.0249,-152.9646
rg,1625579832872081967,1,0.1628,-0.2119,0.9075,437,44.9219,16.5405,-20.6299,87,1.1676,0,8.0386,-2.1144,26,0.8154,8239,4.0249,-153.8918
rg,1625579832872194289,1,0.1858,-0.1802,0.8821,438,43.8232,2.3193,-23.1323,87,1.1686,0,7.3452,-0.8607,26,0.8144,8212,4.0249,-154.888
rg,1625579832872218087,1,0.25,-0.1418,0.8477,439,41.8701,-7.6294,-22.7661,87,1.1696,0,6.1324,0.3706,25,0.8134,8183,4.0249,-155.856
rg,1625579832872238366,1,0.2883,-0.1223,0.8362,440,41.0767,-9.7656,-21.4844,87,1.1706,0,4.7074,1.5742,25,0.8164,8639,4.0249,-156.774
rg,1625579832872257700,1,0.343,-0.1064,0.8369,441,40.2832,-7.5073,-20.874,87,1.1686,0,3.4175,2.7957,25,0.8124,8304,4.0249,-157.6596
rg,1625579832872276554,1,0.3745,-0.1267,0.8442,442,38.5132,-0.9155,-20.2026,87,1.1716,0,2.3966,3.8801,25,0.8114,8314,4.0249,-158.5038
rg,1625579832872316982,1,0.3728,-0.1274,0.8511,443,41.8701,5.249,-17.2119,87,1.1696,0,1.6729,5.077,25,0.8134,8287,4.0249,-159.2031
rg,1625579832872339132,1,0.3652,-0.1292,0.8567,444,44.6777,8.1787,-15.4419,87,1.1716,0,1.1226,6.3421,25,0.8134,8323,4.0249,-159.8101
rg,1625579832872358318,1,0.3623,-0.1345,0.8721,445,46.9971,12.146,-11.7188,87,1.1696,0,0.7598,7.6605,25,0.8124,8389,4.0249,-160.2369
rg,1625579832872376801,1,0.3477,-0.1467,0.8796,446,53.1006,16.0522,-7.5684,87,1.1716,0,0.5873,9.151,25,0.8124,8497,4.0249,-160.4612
rg,1625579832872395432,1,0.3152,-0.1328,0.8704,447,60.9741,16.6626,-5.3711,87,1.1726,0,0.4934,10.9246,26,0.8144,8515,4.0249,-160.5748
rg,1625579832872414137,1,0.3113,-0.1233,0.8665,448,65.6128,16.0522,-3.2959,87,1.1716,0,0.3692,12.8408,26,0.8154,8431,4.0249,-160.5898
rg,1625579833226549536,1,0.323,-0.0557,0.8391,449,80.3833,22.644,2.0752,87,1.1716,0,0.3978,15.4377,25,0.8154,24985,4.0249,-160.3096
rg,1625579833226642653,1,0.3152,0.0029,0.792,450,86.1206,24.231,2.1362,87,1.1726,0,0.4571,18.5165,25,0.8154,13279,4.0249,-159.9396
rg,1625579833226680896,1,0.3276,0.0603,0.7988,451,84.7778,24.8413,3.1128,87,1.1736,0,0.518,21.2593,25,0.8164,10394,4.0249,-159.4936
rg,1625579833226710287,1,0.3052,0.0378,0.8447,452,80.1392,28.6865,3.6011,87,1.1736,0,0.7304,23.7713,25,0.8164,7902,4.0249,-158.9426
rg,1625579833226738029,1,0.2554,0.0012,0.8953,453,79.2847,30.5786,5.249,87,1.1736,0,1.0991,26.0611,25,0.8174,8388,4.0249,-158.259
rg,1625579833226767549,1,0.209,-0.0317,0.9336,454,82.7026,26.9165,11.5356,87,1.1736,-0.001,1.3098,28.3324,25,0.8174,9636,4.0249,-157.3854
rg,1625579833226796514,1,0.2236,-0.0498,0.9539,455,89.2334,17.2119,16.5405,87,1.1736,0,1.0211,30.7557,25,0.8174,9168,4.0249,-156.5075
rg,1625579833226825627,1,0.2573,-0.0625,0.9736,456,89.5386,13.5498,19.8364,87,1.1746,0,0.2552,33.2936,25,0.8174,8544,4.0249,-155.5172
rg,1625579833226854036,1,0.3401,-0.1458,1.0383,457,107.1167,16.5405,27.5879,87,1.1746,0,-0.5385,36.1312,25,0.8184,11997,4.0249,-154.2567
rg,1625579833226927504,1,0.3545,-0.1602,1.0374,458,112.854,22.3389,31.1279,87,1.1746,0,-1.077,39.3941,25,0.8194,8077,4.0249,-152.4911
rg,1625579833226966784,1,0.3105,-0.1926,1.0576,459,132.3242,37.3535,34.79,87,1.1746,0,-1.4776,42.9559,25,0.8194,8138,4.0249,-150.4462
rg,1625579833226993785,1,0.2708,-0.1567,1.0183,460,145.3247,48.0347,41.3208,87,1.1756,0,-1.835,46.9483,25,0.8214,8134,4.0249,-147.8922
rg,1625579833227026084,1,0.2417,-0.073,0.9446,461,156.6162,50.9644,40.2832,87,1.1756,0,-2.1879,51.836,25,0.8224,8189,4.0249,-145.3622
rg,1625579833227055623,1,0.2356,-0.012,0.9355,462,177.063,45.8984,35.5225,87,1.1766,0,-2.7863,57.0432,25,0.8234,8933,4.0249,-142.9974
rg,1625579833227084013,1,0.2639,0.1111,0.9219,463,188.2324,40.7715,31.311,87,1.1746,0,-3.6107,62.753,25,0.8234,8219,4.0249,-140.9024
rg,1625579833227123016,1,0.2815,0.196,0.886,464,196.8994,46.6919,24.1699,87,1.1776,0,-4.3199,68.784,25,0.8264,8246,4.0249,-138.7238
rg,1625579833227155277,1,0.2444,0.2385,0.8608,465,197.5098,53.3447,21.4233,87,1.1776,0,-4.5801,74.5772,25,0.8264,8254,4.0249,-136.1519
rg,1625579833227184667,1,0.1099,0.3242,0.8286,466,185.4858,60.8521,14.7705,87,1.1756,0,-4.8042,79.9544,25,0.8254,8255,4.0249,-133.5038
rg,1625579833227216688,1,0.0142,0.3672,0.8384,467,176.2085,53.772,12.8784,87,1.1776,0,-4.9741,84.8938,25,0.8244,8295,4.0249,-131.1355
rg,1625579833227246153,1,0.0303,0.4431,0.8096,468,159.8511,36.6821,12.6953,87,1.1776,0,-5.3805,89.2365,25,0.8284,8332,4.0249,-129.4733
rg,1625579833227274821,1,0.0625,0.4785,0.7952,469,151.6113,29.4189,12.0239,87,1.1756,0,-5.9351,93.2295,25,0.8264,8307,4.0249,-128.1216
rg,1625579833227301952,1,0.073,0.5171,0.7925,470,132.8125,22.644,10.2539,87,1.1756,0,-6.4845,96.4546,25,0.8274,8317,4.0249,-127.0455
rg,1625579833227329380,1,0.0911,0.5046,0.8477,471,116.5161,19.8364,9.0942,87,1.1796,0,-7.0599,98.9373,25,0.8294,8385,4.0249,-126.0697
rg,1625579833227357382,1,0.1125,0.5061,0.8743,472,111.3892,18.3105,9.7046,87,1.1776,0,-7.8229,100.8883,26,0.8294,8383,4.0249,-125.1153
rg,1625579833227410978,1,0.1711,0.4575,0.98,473,99.7925,23.1934,12.5732,87,1.1786,0,-8.8647,102.36,26,0.8314,10300,4.0249,-123.7971
rg,1625579833227442257,1,0.1846,0.4443,1.0049,474,95.459,33.0811,15.1978,87,1.1766,0,-10.0652,103.7447,26,0.8304,8425,4.0249,-122.2889
rg,1625579833227471444,1,0.1416,0.4934,0.9797,475,96.6187,45.3491,16.4795,87,1.1796,0,-11.3599,105.0564,25,0.8304,8489,4.0249,-120.2788
rg,1625579833227496260,1,0.0806,0.5625,0.9275,476,92.7124,49.8657,12.8784,87,1.1776,0,-12.4406,106.1468,25,0.8324,8458,4.0249,-118.0184
rg,1625579833227521725,1,0.0208,0.6355,0.8774,477,89.7827,48.7671,10.498,87,1.1796,0,-13.151,107.1216,25,0.8324,8543,4.0249,-115.8705
rg,1625579833227548467,1,0.0359,0.6592,0.8625,478,83.1909,38.6353,6.958,87,1.1766,0,-13.7818,107.906,25,0.8314,8507,4.0249,-113.9394
rg,1625579833227575895,1,0.1099,0.667,0.8625,479,65.6128,33.2031,1.709,87,1.1776,0,-14.2992,108.007,26,0.8314,8539,4.0249,-112.132
rg,1625579833227636343,1,0.1016,0.6013,0.9385,480,50.9644,41.2598,-0.8545,87,1.1806,0,-14.8284,107.3517,26,0.8334,8593,4.0249,-109.9331
rg,1625579833584924794,1,-0.0181,0.4976,1.1357,481,45.2881,49.8657,2.4414,87,1.1796,0,-15.5332,106.5557,26,0.8334,26052,4.0249,-107.4301
rg,1625579833584971908,1,-0.0056,0.3977,1.4739,482,69.1528,55.9082,7.1411,87,1.1786,0,-16.4527,106.3535,26,0.8334,14547,4.0249,-104.6489
rg,1625579833584993409,1,0.0364,0.28,1.8391,483,91.7969,65.1245,13.1226,87,1.1786,0,-17.8395,106.9308,26,0.8334,7995,4.0249,-101.5267
rg,1625579833585013429,1,-0.0833,0.4067,1.7898,484,132.5073,87.7075,16.4795,87,1.1786,0,-19.5113,108.7639,26,0.8344,7958,4.0249,-97.4843
rg,1625579833585032745,1,-0.2222,0.6086,1.6094,485,141.7847,95.6421,16.2354,87,1.1786,0,-21.1348,110.763,25,0.8344,7959,4.0249,-93.0754
rg,1625579833585051450,1,-0.4426,0.9226,1.3196,486,131.5918,79.4678,15.2588,87,1.1786,0,-22.1382,112.6387,25,0.8344,7978,4.0249,-89.3064
rg,1625579833585070284,1,-0.4473,1.0122,1.1777,487,90.0269,34.5459,14.8315,87,1.1776,0,-22.3959,113.5538,25,0.8344,9608,4.0249,-87.3303
rg,1625579833585116769,1,-0.3235,1.0286,1.0134,488,48.9502,0.061,13.0005,87,1.1766,0,-22.0969,113.3556,25,0.8344,8025,4.0249,-86.7013
rg,1625579833585138474,1,-0.2793,1.0098,0.9412,489,31.6162,-7.6904,10.0098,87,1.1746,0,-21.5845,112.5813,26,0.8334,8024,4.0249,-86.3477
rg,1625579833585157567,1,-0.1958,0.9192,0.8225,490,-1.4038,-18.3716,5.0659,87,1.1746,0,-20.8009,110.6347,26,0.8344,8593,4.0249,-86.3686
rg,1625579833585175976,1,-0.1089,0.7979,0.7539,491,-23.2544,-27.771,-1.0376,87,1.1766,0,-19.8152,107.9037,26,0.8354,7974,4.0249,-86.7085
rg,1625579833585195440,1,-0.0076,0.6848,0.7168,492,-36.6821,-38.0859,-8.7891,87,1.1786,0,-18.6793,104.7315,26,0.8384,8046,4.0249,-87.4194
rg,1625579833585214886,1,0.0249,0.6367,0.7134,493,-40.5273,-39.856,-13.5498,87,1.1766,0,-17.4975,101.4334,26,0.8374,8079,4.0249,-88.2408
rg,1625579833585234794,1,0.0713,0.5603,0.7114,494,-46.0205,-37.2314,-25.3906,87,1.1776,0,-16.0926,97.8543,26,0.8384,8106,4.0249,-88.9544
rg,1625579833585254296,1,0.0737,0.4934,0.7217,495,-46.1426,-36.5601,-33.8745,87,1.1786,0,-14.4795,94.2505,26,0.8404,8472,4.0249,-89.7229
rg,1625579833585272945,1,0.0806,0.4653,0.7454,496,-43.0908,-37.1094,-38.3301,87,1.1806,0,-12.8529,90.7464,26,0.8414,8150,4.0249,-90.6416
rg,1625579833585290779,1,0.0955,0.4216,0.793,497,-29.541,-36.6821,-42.2363,87,1.1786,0,-11.1768,87.8119,25,0.8404,8149,4.0249,-91.6947
rg,1625579833585309540,1,0.1152,0.4207,0.8125,498,-10.6201,-36.499,-42.7856,87,1.1806,0,-9.6084,85.662,25,0.8434,8174,4.0249,-92.877
rg,1625579833585328763,1,0.1309,0.4312,0.8232,499,-0.3052,-36.7432,-42.9688,87,1.1806,0,-8.2034,84.3333,25,0.8434,8234,4.0249,-94.2146
rg,1625579833585347431,1,0.1848,0.4624,0.8374,500,17.5781,-39.1846,-40.8936,87,1.1786,0,-6.9876,83.4004,25,0.8424,8331,4.0249,-95.6875
rg,1625579833585366358,1,0.2378,0.5078,0.8352,501,32.3486,-38.6353,-39.7339,87,1.1816,0,-5.9573,83.1215,26,0.8434,8245,4.0249,-97.1968
rg,1625579833585383915,1,0.2749,0.6042,0.8157,502,43.7012,-38.3911,-38.269,87,1.1806,0,-5.0512,83.4157,26,0.8444,8315,4.0249,-98.7356
rg,1625579833585402045,1,0.3293,0.7302,0.7717,503,44.6777,-38.5132,-32.2876,87,1.1806,0.001,-4.4604,83.9244,26,0.8464,12619,4.0249,-100.2863
rg,1625579833585428454,1,0.4197,0.792,0.7771,504,31.0669,-32.5928,-25.6348,87,1.1806,0,-4.249,83.9343,26,0.8464,8180,4.0249,-101.5854
rg,1625579833585447696,1,0.4536,0.7947,0.7959,505,23.9868,-24.353,-23.5596,87,1.1806,0,-4.2684,83.2766,26,0.8464,8319,4.0249,-102.1751
rg,1625579833585493532,1,0.4639,0.7764,0.8301,506,9.1553,-4.4556,-17.6392,87,1.1806,0,-4.3278,82.2854,26,0.8464,8397,4.0249,-102.3272
rg,1625579833585521830,1,0.376,0.7329,0.8391,507,-1.2817,12.8784,-15.1367,87,1.1816,0,-4.2575,80.7651,26,0.8474,8317,4.0249,-101.7846
rg,1625579833585540331,1,0.2893,0.6848,0.8269,508,-8.1787,21.6064,-12.0239,87,1.1806,0,-4.1018,78.9173,26,0.8474,8479,4.0249,-100.8964
rg,1625579833585558573,1,0.2493,0.6487,0.8245,509,-10.9253,25.3296,-10.6201,87,1.1806,0,-3.7907,76.8581,26,0.8474,8430,4.0249,-99.8233
rg,1625579833585578963,1,0.1433,0.5767,0.824,510,-10.5591,28.2593,-10.0708,87,1.1816,0,-3.3366,74.8543,26,0.8474,10395,4.0249,-98.7164
rg,1625579833585597409,1,0.1206,0.5637,0.8254,511,-9.4604,27.0386,-9.5215,87,1.1796,0,-2.8463,72.9435,26,0.8464,8423,4.0249,-97.6893
rg,1625579833585617244,1,0.084,0.5435,0.8223,512,-3.9673,24.9023,-10.9863,87,1.1776,0,-2.232,71.2944,25,0.8464,8439,4.0249,-96.7988
rg,1625579833943910459,1,0.0615,0.5532,0.8257,513,11.1694,12.3291,-13.3057,87,1.1816,0,-1.64,70.337,25,0.8484,25288,4.0249,-96.4502
rg,1625579833944006854,1,0.1084,0.5894,0.8384,514,15.0146,7.1411,-13.1226,87,1.1816,0,-1.189,69.7024,25,0.8484,14922,4.0249,-96.3656
rg,1625579833944028096,1,0.1335,0.6077,0.8445,515,18.8599,5.9814,-14.4653,87,1.1816,0,-0.8157,69.181,25,0.8484,7920,4.0249,-96.3143
rg,1625579833944047283,1,0.1609,0.627,0.844,516,16.4795,7.019,-16.9067,87,1.1816,0,-0.403,68.6145,25,0.8494,7893,4.0249,-96.2734
rg,1625579833944065617,1,0.1716,0.637,0.8418,517,14.8315,7.2632,-16.9067,87,1.1816,0,-0.0211,68.0198,26,0.8494,9550,4.0249,-96.2396
rg,1625579833944083303,1,0.1765,0.6438,0.8408,518,12.7563,7.6294,-16.6016,87,1.1816,0,0.3436,67.3746,26,0.8494,7868,4.0249,-96.2034
rg,1625579833944103360,1,0.1743,0.6484,0.8403,519,10.7422,7.6294,-16.0522,87,1.1806,0,0.6713,66.6774,26,0.8484,8103,4.0249,-96.1741
rg,1625579833944182698,1,0.1758,0.6401,0.8318,520,7.5073,8.4839,-15.9302,87,1.1816,0,0.99,65.8734,26,0.8484,7897,4.0249,-96.1265
rg,1625579833944203959,1,0.1736,0.6323,0.8213,521,4.4556,8.0566,-14.8315,87,1.1816,0,1.2514,64.9759,26,0.8504,7914,4.0249,-96.0923
rg,1625579833944222238,1,0.1724,0.6277,0.8318,522,3.6011,8.4839,-14.4043,87,1.1806,0,1.5007,64.0562,26,0.8484,8007,4.0249,-96.0506
rg,1625579833944239516,1,0.1699,0.6118,0.8247,523,2.6245,9.7656,-14.9536,87,1.1826,0,1.7843,63.1145,26,0.8474,7980,4.0249,-95.9875
rg,1625579833944257258,1,0.1538,0.6096,0.8091,524,2.8076,10.6201,-14.6484,87,1.1816,0,2.0931,62.2275,26,0.8494,12392,4.0249,-95.904
rg,1625579833944274833,1,0.1453,0.6074,0.8042,525,2.6855,9.8267,-14.4043,88,1.1816,0,2.3856,61.3676,26,0.8494,8067,4.026,-95.8592
rg,1625579833944292427,1,0.1438,0.5984,0.8127,526,2.1973,9.7656,-13.7939,88,1.1816,0,2.6497,60.4939,26,0.8504,8156,4.026,-95.8199
rg,1625579833944309410,1,0.1431,0.6113,0.8184,527,4.2114,8.9111,-14.8926,88,1.1816,0,2.9309,59.7428,26,0.8504,9833,4.026,-95.8445
rg,1625579833944329559,1,0.1511,0.6133,0.8218,528,4.5166,7.6294,-14.3433,88,1.1816,0,3.1408,59.0287,26,0.8504,8154,4.026,-95.9141
rg,1625579833944347375,1,0.1724,0.6072,0.8232,529,4.8828,7.8125,-14.7095,88,1.1806,0,3.3129,58.3455,25,0.8494,8737,4.026,-95.995
rg,1625579833944364080,1,0.1792,0.6108,0.821,530,5.127,9.0332,-15.7471,88,1.1826,0,3.5242,57.707,25,0.8464,8666,4.026,-96.0646
rg,1625579833944381377,1,0.1753,0.613,0.8264,531,6.2866,9.1553,-15.0757,88,1.1826,0,3.7173,57.1348,25,0.8504,8212,4.026,-96.1257
rg,1625579833944398341,1,0.1692,0.6162,0.8259,532,6.0425,10.1318,-14.5874,88,1.1806,0,3.9207,56.5812,25,0.8494,8165,4.026,-96.1514
rg,1625579833944415972,1,0.1699,0.6155,0.823,533,5.7983,10.5591,-14.2212,88,1.1826,0,4.1111,56.0419,26,0.8494,8273,4.026,-96.1627
rg,1625579833944433250,1,0.1641,0.6184,0.8152,534,5.188,11.3525,-13.7939,88,1.1836,0,4.3085,55.5143,26,0.8514,8271,4.026,-96.145
rg,1625579833944466623,1,0.1628,0.615,0.812,535,4.8828,11.2915,-14.5874,88,1.1846,0,4.5331,54.9782,26,0.8514,8271,4.026,-96.1561
rg,1625579833944486346,1,0.1633,0.6199,0.8213,536,5.3711,10.3149,-13.3667,88,1.1816,0,4.6809,54.4895,26,0.8494,8328,4.026,-96.1784
rg,1625579833944503662,1,0.1648,0.6165,0.8135,537,4.2725,9.8267,-12.6343,88,1.1816,0,4.7821,53.9794,26,0.8514,8322,4.026,-96.2052
rg,1625579833944520515,1,0.1628,0.6218,0.8137,538,4.3335,10.0708,-13.0005,88,1.1816,0,4.9465,53.5269,26,0.8514,8335,4.026,-96.2216
rg,1625579833944537386,1,0.1653,0.6294,0.8071,539,4.4556,10.3149,-12.5122,88,1.1796,0,5.0441,53.0909,26,0.8494,8385,4.026,-96.2379
rg,1625579833944554739,1,0.1592,0.6255,0.8108,540,3.2349,10.6201,-12.5122,88,1.1826,0,5.1586,52.6112,26,0.8494,8311,4.026,-96.2501
rg,1625579833944572055,1,0.1562,0.6255,0.8198,541,3.6011,10.376,-13.7329,88,1.1826,0,5.31,52.1485,25,0.8514,8402,4.026,-96.3061
rg,1625579833944588760,1,0.1548,0.6306,0.8191,542,3.0518,10.2539,-12.6953,88,1.1836,0,5.332,51.722,25,0.8514,8537,4.026,-96.3521
rg,1625579833944606854,1,0.1558,0.6399,0.8186,543,2.9907,9.3384,-12.5732,88,1.1806,0,5.4169,51.2929,25,0.8504,8434,4.026,-96.419
rg,1625579833944626207,1,0.1582,0.6279,0.8196,544,0.7935,7.6904,-11.7188,88,1.1826,0,5.4237,50.7682,25,0.8484,8433,4.026,-96.5218
rg,1625579834297428819,1,0.1636,0.6174,0.8159,545,0.6104,5.7373,-12.0239,88,1.1816,0,5.3755,50.2372,25,0.8514,27557,4.026,-96.6975
rg,1625579834297468266,1,0.168,0.6045,0.8169,546,0.7324,5.9204,-13.3057,88,1.1816,0,5.3603,49.7055,26,0.8514,15530,4.026,-96.9051
rg,1625579834297513916,1,0.167,0.6055,0.8198,547,1.2817,4.9438,-12.3291,88,1.1826,0,5.3277,49.2411,26,0.8514,7864,4.026,-97.135
rg,1625579834297534140,1,0.1738,0.6028,0.8235,548,1.8311,5.4321,-13.6108,88,1.1826,0,5.2966,48.7777,26,0.8514,7939,4.026,-97.3722
rg,1625579834297552956,1,0.1743,0.606,0.8191,549,3.0518,6.0425,-14.5874,88,1.1826,0,5.3084,48.391,26,0.8514,7895,4.026,-97.6184
rg,1625579834297570642,1,0.1775,0.6108,0.821,550,3.479,6.5918,-15.2588,88,1.1826,0,5.3185,48.0827,25,0.8514,7914,4.026,-97.8415
rg,1625579834297587661,1,0.1799,0.6184,0.8213,551,3.9673,7.2632,-15.0146,88,1.1826,0,5.363,47.7797,25,0.8514,8320,4.026,-98.0658
rg,1625579834297605347,1,0.1807,0.6221,0.8115,552,3.1128,7.9346,-14.5874,88,1.1826,0,5.4062,47.476,25,0.8504,8562,4.026,-98.2595
rg,1625579834297622385,1,0.1785,0.623,0.8193,553,2.4414,8.0566,-13.4277,88,1.1836,0,5.423,47.1513,25,0.8534,8038,4.026,-98.4216
rg,1625579834297639183,1,0.1687,0.6211,0.823,554,1.8311,7.8125,-13.0005,88,1.1806,0,5.4401,46.8062,26,0.8514,7997,4.026,-98.5825
rg,1625579834297657480,1,0.1746,0.6157,0.8206,555,2.4414,6.897,-13.4888,88,1.1836,0,5.4309,46.489,26,0.8514,8046,4.026,-98.7866
rg,1625579834297674611,1,0.176,0.6155,0.8247,556,1.8311,7.5073,-12.8784,88,1.1836,0,5.4183,46.1571,26,0.8524,8084,4.026,-98.9586
rg,1625579834297692519,1,0.179,0.6104,0.8262,557,2.0752,7.8735,-14.1602,88,1.1806,0,5.4455,45.8346,26,0.8514,8092,4.026,-99.1587
rg,1625579834297710094,1,0.1797,0.6104,0.821,558,2.1362,7.5073,-12.7563,88,1.1836,0,5.4172,45.5362,26,0.8514,8096,4.026,-99.3319
rg,1625579834297728058,1,0.1736,0.6145,0.8157,559,2.3193,8.1177,-13.2446,88,1.1836,0,5.432,45.2706,26,0.8534,8080,4.026,-99.5019
rg,1625579834297745967,1,0.1748,0.6194,0.8198,560,1.9531,8.4229,-13.855,88,1.1836,0,5.4707,45.0027,26,0.8534,8118,4.026,-99.682
rg,1625579834297762245,1,0.1738,0.6204,0.8206,561,3.0518,8.3618,-12.7563,88,1.1786,-0.001,5.477,44.7922,26,0.8514,8198,4.026,-99.8348
rg,1625579834297798414,1,0.1738,0.615,0.8164,562,2.6855,7.9956,-13.4277,88,1.1836,0,5.4888,44.5685,26,0.8534,8052,4.026,-100.0189
rg,1625579834297819693,1,0.1743,0.6216,0.8242,563,2.0752,7.8125,-13.9771,88,1.1826,0,5.4975,44.3221,26,0.8524,8239,4.026,-100.2259
rg,1625579834297837694,1,0.1812,0.6101,0.8223,564,2.1973,8.1787,-13.5498,88,1.1836,0,5.5011,44.0811,26,0.8534,11128,4.026,-100.4132
rg,1625579834297856399,1,0.1787,0.6084,0.8225,565,2.6855,8.9722,-13.9771,88,1.1806,0,5.5433,43.8662,26,0.8514,8358,4.026,-100.5927
rg,1625579834297873826,1,0.1851,0.6089,0.8245,566,2.4414,8.9111,-14.0381,88,1.1796,0,5.5706,43.6479,26,0.8514,8282,4.026,-100.7776
rg,1625579834297891012,1,0.1804,0.6123,0.8174,567,2.9907,10.0098,-13.5498,88,1.1836,0,5.6227,43.479,26,0.8514,8283,4.026,-100.9182
rg,1625579834297909680,1,0.1772,0.6184,0.8184,568,2.3804,8.8501,-13.4277,88,1.1826,0,5.6721,43.2995,26,0.8534,8383,4.026,-101.0748
rg,1625579834297927125,1,0.178,0.6194,0.8215,569,2.1973,9.6436,-13.4888,88,1.1806,0,5.7147,43.1179,26,0.8514,8370,4.026,-101.2262
rg,1625579834297945274,1,0.1758,0.6165,0.8225,570,1.8311,8.9722,-13.3667,88,1.1826,0,5.7366,42.9206,25,0.8514,8419,4.026,-101.3948
rg,1625579834297962312,1,0.176,0.6082,0.821,571,0.8545,8.4839,-13.4277,88,1.1826,-0.001,5.742,42.6777,25,0.8534,8513,4.026,-101.5813
rg,1625579834297980517,1,0.1797,0.6162,0.8264,572,1.0986,8.4839,-12.7563,88,1.1826,0,5.706,42.4607,25,0.8524,8264,4.026,-101.7448
rg,1625579834297997648,1,0.1785,0.6111,0.8252,573,0.7324,8.7891,-13.6719,88,1.1806,-0.001,5.7233,42.2305,25,0.8514,8454,4.026,-101.9333
rg,1625579834298015408,1,0.1802,0.6067,0.8215,574,1.4648,8.2397,-12.7563,88,1.1836,0,5.693,42.0367,25,0.8524,8304,4.026,-102.1114
rg,1625579834298033631,1,0.1792,0.605,0.8169,575,1.77,8.8501,-13.0615,88,1.1836,0,5.6898,41.8663,25,0.8534,8484,4.026,-102.2829
rg,1625579834298051669,1,0.1746,0.604,0.8267,576,0.9766,8.667,-13.1836,88,1.1836,0,5.6963,41.6431,25,0.8534,8524,4.026,-102.4669
rg,1625579834656896851,1,0.1865,0.604,0.8201,577,2.9297,7.9346,-13.1836,88,1.1826,0,5.6535,41.5257,26,0.8524,25222,4.026,-102.6699
rg,1625579834656941113,1,0.1846,0.6062,0.8188,578,2.5024,8.7891,-13.4277,88,1.1826,0,5.6478,41.4027,26,0.8524,14848,4.026,-102.8574
rg,1625579834656961244,1,0.1831,0.6084,0.8218,579,2.9907,9.1553,-14.0381,88,1.1826,0,5.6735,41.303,26,0.8524,8073,4.026,-103.0545
rg,1625579834656980078,1,0.1838,0.6079,0.8264,580,2.6245,9.4604,-13.4888,88,1.1826,0,5.6922,41.1879,26,0.8524,7934,4.026,-103.2283
rg,1625579834656997931,1,0.1855,0.6062,0.8247,581,2.4414,9.1553,-13.0615,88,1.1826,0,5.6851,41.0697,26,0.8534,8073,4.026,-103.3984
rg,1625579834657015450,1,0.1926,0.6011,0.8203,582,3.2349,9.6436,-13.4277,88,1.1826,0,5.6852,40.9848,26,0.8534,9264,4.026,-103.5676
rg,1625579834657032840,1,0.1836,0.6082,0.824,583,3.2349,9.5825,-12.7563,88,1.1836,0,5.6869,40.9123,25,0.8534,8185,4.026,-103.7181
rg,1625579834657050286,1,0.1833,0.6077,0.8267,584,3.1738,9.8267,-13.7939,88,1.1806,0,5.724,40.8333,25,0.8524,8061,4.026,-103.8946
rg,1625579834657067657,1,0.1799,0.6116,0.8147,585,2.8687,10.9253,-14.6484,88,1.1836,0,5.8192,40.7677,25,0.8514,7976,4.026,-104.0666
rg,1625579834657085621,1,0.1826,0.6079,0.8215,586,2.6855,9.7656,-12.8784,88,1.1836,0,5.8252,40.6841,25,0.8534,8026,4.026,-104.2177
rg,1625579834657102344,1,0.1807,0.6116,0.8252,587,2.1362,8.3618,-11.2915,88,1.1806,0,5.7528,40.5846,26,0.8524,8036,4.026,-104.3578
rg,1625579834657118845,1,0.1838,0.6121,0.825,588,2.9907,9.2163,-12.8174,88,1.1836,0,5.7419,40.522,26,0.8524,8033,4.026,-104.5222
rg,1625579834657135439,1,0.1882,0.6069,0.8215,589,1.77,8.3008,-13.1836,88,1.1836,0,5.7019,40.4052,26,0.8534,8054,4.026,-104.7225
rg,1625579834657151717,1,0.1863,0.6064,0.8279,590,2.0142,8.9722,-13.0615,88,1.1816,0,5.686,40.2957,26,0.8524,8070,4.026,-104.9032
rg,1625579834657167940,1,0.1855,0.6021,0.8235,591,2.8076,9.0942,-12.5732,88,1.1836,0,5.6608,40.2218,26,0.8524,8083,4.026,-105.0667
rg,1625579834657205665,1,0.1877,0.6001,0.8184,592,2.1973,8.8501,-13.1226,88,1.1826,0,5.6366,40.1275,26,0.8524,8096,4.026,-105.2534
rg,1625579834657224888,1,0.1899,0.6006,0.8201,593,3.1738,8.728,-13.3667,88,1.1826,0,5.6117,40.0735,26,0.8534,8162,4.026,-105.4514
rg,1625579834657242482,1,0.1873,0.5972,0.8145,594,3.0518,9.2163,-13.6108,88,1.1826,0,5.6119,40.0184,26,0.8534,8114,4.026,-105.6445
rg,1625579834657259631,1,0.1858,0.606,0.821,595,3.7842,9.0332,-14.2212,88,1.1826,0,5.6255,40.0094,25,0.8534,8199,4.026,-105.8598
rg,1625579834657276447,1,0.1897,0.6116,0.8232,596,2.9297,8.728,-12.8174,88,1.1826,0,5.5903,39.967,25,0.8534,8155,4.026,-106.0403
rg,1625579834657292670,1,0.1912,0.6096,0.8247,597,2.5635,8.9111,-14.2822,88,1.1826,0,5.5965,39.9025,25,0.8534,8229,4.026,-106.2618
rg,1625579834657309245,1,0.1948,0.6091,0.8235,598,3.1738,9.2773,-12.8784,88,1.1826,0,5.5695,39.8707,25,0.8534,8376,4.026,-106.431
rg,1625579834657325838,1,0.1953,0.5991,0.8284,599,2.8687,8.1177,-12.8784,88,1.1816,0,5.5063,39.8014,25,0.8524,8269,4.026,-106.6326
rg,1625579834657344191,1,0.1995,0.6021,0.8262,600,3.2959,8.7891,-13.4888,88,1.1796,0,5.4728,39.7599,25,0.8534,8330,4.026,-106.8352
rg,1625579834657361026,1,0.1987,0.6064,0.8223,601,2.6245,11.4136,-14.5874,88,1.1816,0,5.5501,39.7091,25,0.8524,10741,4.026,-107.003
rg,1625579834657378490,1,0.1887,0.5984,0.8164,602,3.2349,11.3525,-14.0991,88,1.1836,0,5.6271,39.6788,25,0.8524,8375,4.026,-107.1587
rg,1625579834657395379,1,0.1868,0.6033,0.8201,603,3.1128,9.7046,-13.3057,88,1.1826,0,5.6366,39.6468,25,0.8544,8360,4.026,-107.3324
rg,1625579834657411899,1,0.1875,0.605,0.8281,604,2.6855,10.498,-13.7939,88,1.1816,0,5.6836,39.592,25,0.8524,8398,4.026,-107.5018
rg,1625579834657428844,1,0.1868,0.6096,0.8203,605,3.54,9.5825,-13.6108,88,1.1806,0,5.6961,39.5897,25,0.8524,8449,4.026,-107.6878
rg,1625579834657445438,1,0.1843,0.6072,0.8245,606,3.3569,8.8501,-11.9629,88,1.1836,0,5.6494,39.5738,25,0.8544,8452,4.026,-107.8426
rg,1625579834657475291,1,0.1887,0.605,0.8259,607,2.4414,9.2163,-13.6108,88,1.1836,0,5.5869,39.5123,25,0.8544,8489,4.026,-108.0146
rg,1625579834657494700,1,0.1836,0.6082,0.8306,608,2.3193,8.8501,-13.2446,88,1.1806,0,5.5802,39.4481,25,0.8524,8478,4.026,-108.21
rg,1625579835013466250,1,0.1914,0.6084,0.8164,609,2.5024,7.4463,-12.7563,88,1.1836,0,5.4978,39.4109,26,0.8544,25357,4.026,-108.4246
rg,1625579835013503437,1,0.188,0.6055,0.8181,610,2.3193,6.6528,-12.146,88,1.1826,0.001,5.3854,39.3605,26,0.8534,15096,4.026,-108.6413
rg,1625579835013523234,1,0.1919,0.604,0.8254,611,1.6479,6.1035,-12.146,88,1.1826,0,5.2548,39.2903,26,0.8544,7886,4.026,-108.8618
rg,1625579835013541698,1,0.1841,0.5996,0.8311,612,1.4648,6.4697,-12.3901,88,1.1826,0,5.1625,39.183,25,0.8544,7937,4.026,-109.0934
rg,1625579835013559477,1,0.1846,0.6033,0.8237,613,2.2583,5.0659,-12.3901,88,1.1836,0,5.0276,39.1248,25,0.8544,7942,4.026,-109.3596
rg,1625579835013576163,1,0.1985,0.6016,0.8218,614,3.2349,3.7231,-11.7798,88,1.1826,-0.001,4.8111,39.1071,25,0.8544,10474,4.026,-109.6408
rg,1625579835013594035,1,0.2043,0.6091,0.8176,615,2.1973,5.7373,-12.6343,88,1.1826,0,4.7108,39.0757,25,0.8544,7852,4.026,-109.9044
rg,1625579835013611498,1,0.2043,0.6069,0.823,616,2.2583,6.6528,-13.4277,88,1.1826,0,4.6277,39.0321,26,0.8544,7965,4.026,-110.1613
rg,1625579835013628166,1,0.1985,0.6018,0.8181,617,1.9531,7.8125,-14.2822,88,1.1826,0,4.6142,38.9755,26,0.8544,8003,4.026,-110.4158
rg,1625579835013644408,1,0.1973,0.6125,0.8171,618,1.4648,7.5684,-13.0005,88,1.1836,0,4.5432,38.8931,26,0.8544,8135,4.026,-110.6361
rg,1625579835013660538,1,0.1973,0.6057,0.8303,619,0.9766,6.7749,-12.4512,88,1.1826,0,4.4614,38.7969,26,0.8544,9105,4.026,-110.8612
rg,1625579835013676687,1,0.1951,0.6023,0.8269,620,0.8545,6.6528,-13.0005,88,1.1836,0,4.3951,38.6967,26,0.8544,8648,4.026,-111.1071
rg,1625579835013693244,1,0.1943,0.603,0.8337,621,0.4883,5.4932,-11.7188,88,1.1806,0,4.2666,38.5794,26,0.8534,8039,4.026,-111.3431
rg,1625579835013729190,1,0.1943,0.5989,0.8335,622,0.6104,6.3477,-13.3667,88,1.1826,0,4.2093,38.4627,26,0.8544,8258,4.026,-111.6102
rg,1625579835013748321,1,0.1885,0.5989,0.8315,623,1.2817,5.5542,-13.2446,88,1.1846,0,4.1351,38.3714,26,0.8554,8069,4.026,-111.8943
rg,1625579835013766099,1,0.1865,0.5969,0.8254,624,2.6245,3.7231,-11.7798,88,1.1816,0,3.9741,38.3495,26,0.8534,8172,4.026,-112.1776
rg,1625579835013782748,1,0.2043,0.6038,0.8218,625,2.5024,2.6245,-12.207,88,1.1836,0,3.7588,38.339,26,0.8554,8170,4.026,-112.5002
rg,1625579835013799212,1,0.2131,0.6028,0.822,626,0.9766,3.8452,-12.6343,88,1.1846,0,3.6443,38.2954,26,0.8554,8225,4.026,-112.8053
rg,1625579835013815528,1,0.2109,0.6008,0.825,627,1.77,5.0049,-12.6343,88,1.1816,0,3.513,38.253,26,0.8534,8161,4.026,-113.0822
rg,1625579835013831714,1,0.2012,0.6018,0.8186,628,1.6479,5.7983,-13.5498,88,1.1846,0,3.4524,38.2172,25,0.8514,8228,4.026,-113.3677
rg,1625579835013848252,1,0.2112,0.5933,0.821,629,1.2817,5.6763,-13.9771,88,1.1826,0,3.3786,38.1493,25,0.8544,8260,4.026,-113.6707
rg,1625579835013864827,1,0.209,0.5972,0.8237,630,1.0376,4.7607,-12.5122,88,1.1806,0,3.2489,38.0796,25,0.8534,8282,4.026,-113.9505
rg,1625579835013881365,1,0.2148,0.5938,0.8215,631,1.709,4.3335,-12.3901,88,1.1836,0,3.0938,38.0366,25,0.8534,8330,4.026,-114.2374
rg,1625579835013897699,1,0.2173,0.5945,0.8237,632,1.5259,4.1504,-12.2681,88,1.1846,0,2.9315,37.9872,26,0.8554,8429,4.026,-114.525
rg,1625579835013913644,1,0.2195,0.5962,0.8201,633,2.3804,4.8828,-13.4888,88,1.1846,0,2.7254,37.9788,26,0.8564,8339,4.026,-114.8026
rg,1625579835013929645,1,0.2244,0.5957,0.8206,634,2.4414,5.6152,-13.3057,88,1.1806,0,2.6332,37.9764,26,0.8534,8395,4.026,-115.086
rg,1625579835013945553,1,0.2192,0.5906,0.8218,635,2.1362,4.5166,-11.8408,88,1.1826,0,2.4837,37.9526,26,0.8534,8421,4.026,-115.3508
rg,1625579835013961758,1,0.2239,0.5908,0.8218,636,1.9531,4.8218,-10.5591,88,1.1846,0,2.3084,37.9257,26,0.8544,8311,4.026,-115.5675
rg,1625579835013993334,1,0.2239,0.5938,0.8193,637,1.709,5.7373,-11.1694,88,1.1836,0,2.1834,37.8992,26,0.8514,8382,4.026,-115.7804
rg,1625579835014011057,1,0.2229,0.5898,0.8206,638,1.8311,6.0425,-11.7188,88,1.1836,0,2.0875,37.87,26,0.8554,11429,4.026,-116.0033
rg,1625579835014027539,1,0.2205,0.5872,0.8186,639,2.1973,7.019,-12.6343,88,1.1816,0,2.0522,37.8544,26,0.8534,8504,4.026,-116.2313
rg,1625579835014044151,1,0.218,0.5901,0.8174,640,2.4414,7.3853,-13.2446,88,1.1796,0,2.05,37.8555,26,0.8524,8442,4.026,-116.4693
rg,1625579835377933731,1,0.2217,0.584,0.8125,641,3.6011,7.0801,-12.9395,83,1.1836,0,2.0199,37.8985,26,0.8544,25237,4.0315,-116.7053
rg,1625579835377973437,1,0.2283,0.5911,0.8218,642,2.6245,7.6294,-11.7798,83,1.1826,0,1.9849,37.9005,26,0.8544,14919,4.0315,-116.9081
rg,1625579835377993753,1,0.2312,0.5872,0.8247,643,2.9297,7.2021,-11.5967,83,1.1826,0,1.9139,37.9071,26,0.8544,7808,4.0315,-117.0986
rg,1625579835378012884,1,0.2246,0.5889,0.8225,644,2.9907,8.4229,-12.3291,83,1.1836,0,1.9152,37.9218,26,0.8554,7897,4.0315,-117.2818
rg,1625579835378031311,1,0.2263,0.5906,0.8196,645,3.0518,9.0332,-13.1226,83,1.1836,0,1.8934,37.9389,26,0.8554,7904,4.0315,-117.4136
rg,1625579835378050534,1,0.228,0.593,0.8257,646,3.6621,9.7656,-12.7563,83,1.1836,0,1.9529,37.9868,26,0.8554,9611,4.0315,-117.5765
rg,1625579835378067016,1,0.2261,0.5918,0.8257,647,3.418,10.1929,-12.7563,83,1.1816,0,2.0179,38.0176,26,0.8544,8183,4.0315,-117.7288
rg,1625579835378086777,1,0.2217,0.5972,0.8208,648,3.0518,9.3994,-12.146,83,1.1826,0,2.0493,38.048,26,0.8524,7915,4.0315,-117.8807
rg,1625579835378104000,1,0.219,0.5952,0.822,649,3.1738,10.0708,-13.0005,83,1.1836,0,2.0773,38.0681,25,0.8564,7990,4.0315,-118.0107
rg,1625579835378122649,1,0.218,0.5972,0.8291,650,3.1738,9.3994,-11.9019,83,1.1816,0,2.111,38.0909,25,0.8544,7972,4.0315,-118.155
rg,1625579835378140594,1,0.2173,0.6006,0.8237,651,2.8076,9.2773,-11.5967,83,1.1826,0,2.1326,38.1113,25,0.8564,7992,4.0315,-118.2921
rg,1625579835378227303,1,0.2271,0.5994,0.8186,652,2.9907,8.8501,-11.9629,83,1.1826,0,2.0775,38.1477,25,0.8564,8053,4.0315,-118.4276
rg,1625579835378246748,1,0.2273,0.6023,0.822,653,1.8921,9.5215,-11.4746,83,1.1826,0,2.0843,38.1352,25,0.8544,8074,4.0315,-118.5541
rg,1625579835378263953,1,0.2227,0.5974,0.8264,654,2.9297,9.0942,-12.3291,83,1.1846,0,2.1085,38.1489,25,0.8544,8090,4.0315,-118.7186
rg,1625579835378281213,1,0.2244,0.5981,0.8232,655,3.2349,8.3618,-12.5122,83,1.1816,0,2.1089,38.1786,25,0.8544,9506,4.0315,-118.9067
rg,1625579835378298881,1,0.2229,0.6016,0.823,656,3.2959,8.4229,-11.4746,83,1.1836,0,2.0894,38.2173,25,0.8554,9882,4.0315,-119.0603
rg,1625579835378318456,1,0.2246,0.6038,0.8176,657,2.5024,9.3994,-10.8643,83,1.1846,0,2.0844,38.2176,26,0.8554,8120,4.0315,-119.1703
rg,1625579835378334475,1,0.2178,0.5996,0.8232,658,1.77,8.606,-12.146,83,1.1826,0,2.0984,38.1895,26,0.8544,8138,4.0315,-119.3402
rg,1625579835378351661,1,0.2231,0.5938,0.8218,659,2.3193,7.6904,-12.0239,83,1.1846,0,2.0671,38.1753,26,0.8564,8205,4.0315,-119.5295
rg,1625579835378368866,1,0.2327,0.5957,0.8184,660,3.2349,7.9346,-12.085,83,1.1836,0,2.0257,38.2065,25,0.8554,12731,4.0315,-119.7144
rg,1625579835378386663,1,0.2253,0.603,0.8152,661,2.2583,8.4229,-12.7563,83,1.1836,0,2.0337,38.2142,25,0.8554,8292,4.0315,-119.9074
rg,1625579835378403645,1,0.2229,0.5984,0.8206,662,1.709,8.3008,-12.085,83,1.1836,0,2.0268,38.1851,25,0.8554,8291,4.0315,-120.0828
rg,1625579835378420646,1,0.2224,0.5984,0.8264,663,0.9155,7.5684,-11.5356,83,1.1836,0,1.9821,38.1188,25,0.8564,8320,4.0315,-120.2596
rg,1625579835378437832,1,0.2234,0.5989,0.8281,664,1.5869,6.958,-11.2915,83,1.1836,0,1.917,38.0797,25,0.8554,8312,4.0315,-120.4443
rg,1625579835378454537,1,0.2334,0.593,0.8232,665,0.2441,6.2866,-11.4136,83,1.1836,0.001,1.8123,37.9842,25,0.8554,10273,4.0315,-120.6497
rg,1625579835378471223,1,0.2314,0.5862,0.8257,666,0.5493,6.3477,-12.0239,83,1.1836,0,1.7313,37.8891,25,0.8544,8782,4.0315,-120.8738
rg,1625579835378500836,1,0.2302,0.5852,0.822,667,0.9766,6.2256,-12.4512,83,1.1836,0,1.6606,37.8174,25,0.8574,8385,4.0315,-121.1149
rg,1625579835378518114,1,0.23,0.5911,0.8259,668,1.0986,7.019,-12.8174,83,1.1826,0,1.634,37.7413,25,0.8564,8425,4.0315,-121.3489
rg,1625579835378534708,1,0.2295,0.5874,0.8267,669,1.2207,6.3477,-13.855,83,1.1816,0,1.6085,37.6822,25,0.8544,8465,4.0315,-121.6324
rg,1625579835378551487,1,0.2295,0.5813,0.8184,670,2.3804,5.127,-12.6343,83,1.1836,0,1.5108,37.6719,25,0.8534,8557,4.0315,-121.9077
rg,1625579835378568228,1,0.231,0.5854,0.8274,671,1.8311,4.6997,-12.2681,83,1.1846,0,1.3958,37.6365,25,0.8564,8536,4.0315,-122.1819
rg,1625579835378585803,1,0.2288,0.5869,0.8247,672,1.9531,4.5166,-12.9395,83,1.1846,0,1.3012,37.6148,25,0.8554,8504,4.0315,-122.4817
rg,1625579835736517009,1,0.2505,0.5872,0.812,673,2.9297,2.9297,-12.9395,83,1.1826,0,1.1528,37.6125,25,0.8554,28181,4.0315,-122.8127
rg,1625579835736656369,1,0.2539,0.5864,0.8179,674,2.1973,4.8828,-12.8784,83,1.1836,0,1.0543,37.6386,25,0.8564,15278,4.0315,-123.0971
rg,1625579835736679259,1,0.2463,0.5913,0.8179,675,2.8076,5.127,-13.1226,83,1.1836,0,0.9575,37.6682,25,0.8564,7894,4.0315,-123.3868
rg,1625579835736700741,1,0.2446,0.5903,0.8164,676,1.5869,5.7983,-12.207,83,1.1836,0,0.8659,37.6492,25,0.8564,7821,4.0315,-123.6307
rg,1625579835736719854,1,0.2454,0.5894,0.8193,677,2.2583,5.188,-12.3901,83,1.1836,0,0.7624,37.6524,26,0.8564,7874,4.0315,-123.8955
rg,1625579835736738003,1,0.2488,0.5881,0.8164,678,2.5024,5.5542,-12.3291,83,1.1836,0,0.6644,37.6675,26,0.8564,7914,4.0315,-124.1492
rg,1625579835736756596,1,0.2539,0.5869,0.8171,679,1.77,4.8828,-12.2681,83,1.1836,0,0.5369,37.6501,26,0.8554,9367,4.0315,-124.4171
rg,1625579835736775894,1,0.2561,0.5811,0.8171,680,2.7466,5.249,-12.5732,83,1.1846,0,0.396,37.6531,26,0.8564,7951,4.0315,-124.6575
rg,1625579835736817599,1,0.2571,0.5847,0.8225,681,2.5024,5.249,-12.0239,83,1.1836,0,0.2795,37.6562,25,0.8564,7963,4.0315,-124.9085
rg,1625579835736844212,1,0.2549,0.5818,0.814,682,2.6245,6.2256,-12.146,83,1.1836,0,0.2014,37.6702,25,0.8564,13866,4.0315,-125.1393
rg,1625579835736864917,1,0.2473,0.5823,0.8157,683,1.8921,6.4697,-12.0239,83,1.1836,0,0.1067,37.6651,25,0.8564,7931,4.0315,-125.3546
rg,1625579835736958533,1,0.2554,0.5806,0.8164,684,2.0752,7.2021,-12.146,83,1.1836,-0.001,0.0656,37.6522,25,0.8564,7925,4.0315,-125.561
rg,1625579835736982164,1,0.261,0.5847,0.8125,685,2.3193,6.6528,-12.085,83,1.1836,0,-0.0047,37.6622,26,0.8564,7859,4.0315,-125.779
rg,1625579835737000794,1,0.2566,0.5803,0.8164,686,2.2583,6.1035,-11.4136,83,1.1836,0,-0.099,37.6442,26,0.8564,7967,4.0315,-125.9891
rg,1625579835737020296,1,0.2568,0.5796,0.823,687,2.3193,6.2866,-12.085,83,1.1816,0,-0.1631,37.6326,26,0.8554,8375,4.0315,-126.2159
rg,1625579835737040241,1,0.2639,0.5811,0.8137,688,2.0752,5.8594,-11.9629,83,1.1836,0,-0.2593,37.6265,26,0.8564,8256,4.0315,-126.4493
rg,1625579835737058742,1,0.2642,0.5833,0.814,689,2.3804,7.0801,-12.085,83,1.1836,0,-0.3502,37.6321,25,0.8564,8056,4.0315,-126.6516
rg,1625579835737079169,1,0.2654,0.5742,0.8201,690,2.0142,7.8735,-11.8408,83,1.1816,0,-0.3811,37.6037,25,0.8554,8162,4.0315,-126.8314
rg,1625579835737100226,1,0.271,0.5703,0.8132,691,2.8076,9.0332,-12.4512,83,1.1836,0,-0.3751,37.6099,25,0.8554,9417,4.0315,-127.0023
rg,1625579835737121449,1,0.2678,0.5659,0.8157,692,3.2349,8.7891,-11.2305,83,1.1836,0,-0.4005,37.6216,25,0.8554,9846,4.0315,-127.1405
rg,1625579835737140339,1,0.2673,0.5671,0.8145,693,4.0283,9.4604,-12.2681,83,1.1846,0,-0.3775,37.6683,26,0.8574,8153,4.0315,-127.2949
rg,1625579835737162062,1,0.2617,0.5647,0.8169,694,4.3335,10.1929,-11.8408,83,1.1846,0,-0.3251,37.7317,26,0.8574,8203,4.0315,-127.4175
rg,1625579835737182878,1,0.2627,0.5708,0.8232,695,4.0283,11.0474,-13.1226,83,1.1826,0,-0.2193,37.7692,26,0.8554,8210,4.0315,-127.5589
rg,1625579835737206528,1,0.2612,0.5813,0.8164,696,4.6387,10.6201,-11.8408,83,1.1846,0,-0.1591,37.8566,26,0.8574,8253,4.0315,-127.6702
rg,1625579835737227751,1,0.2698,0.5767,0.8125,697,4.3335,10.5591,-12.9395,83,1.1826,0,-0.1903,37.9352,25,0.8574,8268,4.0315,-127.7879
rg,1625579835737247419,1,0.2676,0.5764,0.8232,698,4.1504,10.8643,-12.085,83,1.1816,0,-0.1288,37.9795,25,0.8554,8294,4.0315,-127.899
rg,1625579835737334831,1,0.2666,0.5737,0.814,699,4.9438,10.0098,-10.6812,83,1.1836,0,-0.1338,38.0606,25,0.8554,8320,4.0315,-127.9867
rg,1625579835737372055,1,0.2732,0.5767,0.8203,700,5.0049,9.7656,-11.3525,83,1.1846,0,-0.1394,38.1384,25,0.8574,8294,4.0315,-128.1007
rg,1625579835737391630,1,0.2771,0.5833,0.8169,701,4.6997,10.9253,-11.5356,83,1.1836,0,-0.1112,38.2172,25,0.8564,8342,4.0315,-128.1908
rg,1625579835737410965,1,0.2686,0.573,0.823,702,4.6997,11.4136,-11.7188,83,1.1836,0,-0.0472,38.2666,25,0.8554,8338,4.0315,-128.2738
rg,1625579835737428595,1,0.2659,0.575,0.8174,703,4.7607,11.4136,-10.5591,83,1.1846,0,-0.0108,38.327,25,0.8574,8583,4.0315,-128.32
rg,1625579835737449911,1,0.2737,0.5779,0.8132,704,4.8218,11.4136,-11.5967,83,1.1836,0,0.0332,38.3982,25,0.8574,8410,4.0315,-128.3981
rg,1625579836090182097,1,0.2634,0.5784,0.8135,705,5.0049,11.1084,-10.6812,83,1.1836,0,0.0646,38.4743,26,0.8564,25578,4.0315,-128.4545
rg,1625579836090238081,1,0.2568,0.5825,0.8157,706,4.0894,11.3525,-10.5591,83,1.1836,0,0.1151,38.5152,25,0.8574,14762,4.0315,-128.5002
rg,1625579836090258212,1,0.2561,0.584,0.8196,707,3.2959,11.4136,-11.0474,83,1.1836,0,0.1814,38.5203,25,0.8574,7989,4.0315,-128.5594
rg,1625579836090277287,1,0.26,0.5879,0.8201,708,3.1738,11.2305,-10.5591,83,1.1836,0,0.2121,38.5416,25,0.8574,7835,4.0315,-128.6079
rg,1625579836090295158,1,0.2634,0.5901,0.8247,709,2.3804,10.498,-10.7422,83,1.1836,0,0.2276,38.5136,25,0.8574,9709,4.0315,-128.6803
rg,1625579836090312733,1,0.2659,0.5818,0.8232,710,0.9766,10.437,-10.3149,83,1.1836,0,0.2217,38.418,25,0.8574,7880,4.0315,-128.7413
rg,1625579836090330271,1,0.2666,0.575,0.824,711,1.8311,11.2915,-10.2539,83,1.1876,0,0.2379,38.3472,25,0.8574,8123,4.0315,-128.78
rg,1625579836090347216,1,0.2588,0.5774,0.8213,712,1.8311,11.4136,-10.3149,83,1.1846,0,0.3224,38.2991,25,0.8584,7902,4.0315,-128.8647
rg,1625579836090385941,1,0.2529,0.572,0.821,713,2.6855,11.2305,-11.3525,83,1.1826,0,0.386,38.2646,25,0.8564,7932,4.0315,-128.9409
rg,1625579836090405849,1,0.2571,0.5691,0.8152,714,4.8218,10.5591,-12.207,83,1.1836,0,0.4353,38.3186,26,0.8564,7973,4.0315,-129.0611
rg,1625579836090422961,1,0.2678,0.5786,0.8086,715,4.1504,9.2163,-11.9019,83,1.1846,0,0.4067,38.3563,26,0.8584,7975,4.0315,-129.2045
rg,1625579836090440777,1,0.27,0.5833,0.8186,716,4.8218,9.8267,-11.8408,83,1.1816,0,0.4027,38.4281,26,0.8564,8039,4.0315,-129.3303
rg,1625579836090458037,1,0.2681,0.5913,0.8098,717,5.188,10.437,-14.0991,83,1.1856,0,0.477,38.5367,26,0.8584,8055,4.0315,-129.5106
rg,1625579836090475241,1,0.2744,0.5967,0.801,718,6.1646,11.1694,-15.1367,83,1.1856,0,0.5722,38.6852,26,0.8584,8069,4.0315,-129.7036
rg,1625579836090492001,1,0.28,0.5945,0.8196,719,4.1504,11.2915,-13.1836,83,1.1826,0,0.6253,38.7359,26,0.8564,8115,4.0315,-129.8313
rg,1625579836090508669,1,0.2681,0.5901,0.8208,720,3.0518,12.2681,-13.7329,83,1.1856,0,0.7439,38.7312,26,0.8574,8106,4.0315,-129.9513
rg,1625579836090524744,1,0.2588,0.5869,0.8188,721,3.2959,11.8408,-12.146,83,1.1856,0,0.8427,38.6935,26,0.8584,8121,4.0315,-130.0258
rg,1625579836090540689,1,0.2512,0.5901,0.8252,722,3.54,11.9019,-12.6343,83,1.1826,0,0.95,38.7037,25,0.8574,8187,4.0315,-130.1218
rg,1625579836090556894,1,0.2649,0.5918,0.8196,723,3.0518,11.3525,-12.0239,83,1.1846,0,0.9913,38.7045,25,0.8574,8167,4.0315,-130.2125
rg,1625579836090573468,1,0.2703,0.5845,0.8206,724,2.9907,10.8643,-11.5356,83,1.1846,0,1.0518,38.6886,25,0.8584,8207,4.0315,-130.3141
rg,1625579836090590080,1,0.2617,0.582,0.822,725,3.1128,11.4136,-12.4512,83,1.1826,0,1.1062,38.6717,25,0.8574,8291,4.0315,-130.4174
rg,1625579836090606822,1,0.252,0.5728,0.8206,726,3.7231,12.2681,-12.9395,83,1.1836,0,1.214,38.6647,26,0.8564,8247,4.0315,-130.5151
rg,1625579836090623249,1,0.252,0.5771,0.8174,727,3.418,11.8408,-13.855,83,1.1846,0,1.3272,38.6566,26,0.8584,8288,4.0315,-130.6522
rg,1625579836090651713,1,0.2566,0.5742,0.8123,728,4.1504,11.4136,-13.6108,83,1.1846,0,1.4041,38.6792,26,0.8584,11148,4.0315,-130.7926
rg,1625579836090670047,1,0.2563,0.5757,0.8171,729,5.4321,11.2915,-14.2212,83,1.1846,0,1.4927,38.7477,26,0.8584,9489,4.0315,-130.9552
rg,1625579836090686067,1,0.2607,0.5845,0.8145,730,5.7373,12.2681,-15.2588,83,1.1846,0,1.5666,38.8261,26,0.8584,8406,4.0315,-131.0884
rg,1625579836090702253,1,0.2681,0.5837,0.813,731,5.7373,12.2681,-14.6484,83,1.1836,0,1.6671,38.921,26,0.8584,8464,4.0315,-131.2378
rg,1625579836090718642,1,0.2632,0.5784,0.8188,732,5.6763,12.2681,-14.5874,83,1.1836,0,1.7732,38.9925,26,0.8584,8453,4.0315,-131.3849
rg,1625579836090735440,1,0.2683,0.5786,0.8167,733,5.7983,11.3525,-13.6719,83,1.1846,0,1.8129,39.0696,26,0.8574,8947,4.0315,-131.5261
rg,1625579836090751774,1,0.2734,0.5815,0.8206,734,5.3711,11.1694,-13.855,83,1.1856,0,1.8424,39.1267,26,0.8584,8517,4.0315,-131.6768
rg,1625579836090767849,1,0.2715,0.574,0.8235,735,4.8828,13.3057,-15.9912,83,1.1856,0,1.9992,39.1653,26,0.8584,8498,4.0315,-131.8389
rg,1625579836090783886,1,0.2651,0.5818,0.8247,736,4.6387,12.0239,-13.1226,83,1.1826,0,2.0483,39.1854,26,0.8574,8564,4.0315,-131.945
rg,1625579836453537175,1,0.2612,0.5747,0.8164,737,4.6387,11.4136,-14.8315,83,1.1836,0,2.1222,39.2,26,0.8584,25332,4.0315,-132.1194
rg,1625579836453594789,1,0.2661,0.5776,0.8196,738,5.127,11.2305,-14.5874,83,1.1846,0,2.1739,39.2348,26,0.8584,11079,4.0315,-132.2909
rg,1625579836453627699,1,0.2651,0.5815,0.8186,739,5.0049,11.4746,-14.3433,83,1.1846,0,2.2277,39.2719,26,0.8584,7933,4.0315,-132.4481
rg,1625579836453655774,1,0.2698,0.5818,0.8162,740,4.6387,11.3525,-14.5264,83,1.1846,0,2.2702,39.2962,26,0.8584,7934,4.0315,-132.6136
rg,1625579836453682146,1,0.2683,0.5762,0.8208,741,4.1504,11.3525,-14.1602,83,1.1846,0,2.305,39.2845,26,0.8594,7867,4.0315,-132.7684
rg,1625579836453710147,1,0.2678,0.5854,0.8169,742,5.188,11.5356,-13.916,83,1.1846,0,2.3418,39.3345,26,0.8594,7893,4.0315,-132.9103
rg,1625579836453788651,1,0.2734,0.5854,0.8218,743,4.8828,11.4746,-14.0381,83,1.1836,0,2.3676,39.3661,26,0.8574,8221,4.0315,-133.0573
rg,1625579836453816819,1,0.2688,0.5789,0.8184,744,4.6387,11.2915,-14.5874,83,1.1846,0,2.4067,39.3783,26,0.8594,7983,4.0315,-133.226
rg,1625579836453842839,1,0.2668,0.5796,0.8184,745,4.8218,11.5356,-13.0005,83,1.1856,0,2.4224,39.4078,26,0.8594,7947,4.0315,-133.3391
rg,1625579836453869562,1,0.2617,0.5798,0.8164,746,4.8218,12.146,-13.2446,83,1.1846,0,2.4753,39.4318,26,0.8594,8436,4.0315,-133.4441
rg,1625579836453896342,1,0.2554,0.5869,0.823,747,4.9438,12.3901,-14.1602,83,1.1826,0,2.5649,39.4629,26,0.8574,7977,4.0315,-133.5709
rg,1625579836453921065,1,0.2573,0.5923,0.8105,748,5.0049,11.4136,-13.4888,83,1.1856,0,2.5965,39.5205,26,0.8594,8048,4.0315,-133.7006
rg,1625579836453948474,1,0.2546,0.6038,0.8086,749,4.7607,11.1694,-14.2822,83,1.1846,-0.001,2.6336,39.5969,26,0.8594,8063,4.0315,-133.8783
rg,1625579836453977790,1,0.2681,0.6155,0.8066,750,1.3428,10.437,-13.7939,83,1.1846,0,2.6244,39.5474,26,0.8594,12902,4.0315,-134.0391
rg,1625579836454003717,1,0.2742,0.5972,0.8247,751,-0.6104,11.4746,-14.4653,83,1.1846,0,2.654,39.3672,25,0.8594,8134,4.0315,-134.197
rg,1625579836454031571,1,0.2639,0.5889,0.8313,752,-1.5869,11.7188,-14.5264,83,1.1846,0,2.7117,39.1318,25,0.8584,8104,4.0315,-134.3539
rg,1625579836454059665,1,0.239,0.5715,0.8328,753,-0.8545,12.146,-14.8315,83,1.1846,-0.001,2.8337,38.9008,25,0.8584,8348,4.0315,-134.514
rg,1625579836454087685,1,0.2395,0.5696,0.8257,754,0.6714,8.667,-13.2446,83,1.1846,0,2.7985,38.7428,25,0.8594,8090,4.0315,-134.7148
rg,1625579836454114982,1,0.2556,0.5701,0.8115,755,1.8311,7.9346,-13.1226,83,1.1856,0,2.6997,38.6562,25,0.8594,9416,4.0315,-134.9305
rg,1625579836454142021,1,0.2639,0.573,0.8137,756,3.1128,7.5684,-13.0005,83,1.1826,0,2.5748,38.6269,25,0.8574,8220,4.0315,-135.1519
rg,1625579836454167411,1,0.2642,0.5781,0.7996,757,4.3335,7.5684,-13.4277,83,1.1836,0,2.4603,38.6749,25,0.8574,8198,4.0315,-135.3853
rg,1625579836454220043,1,0.27,0.5957,0.7969,758,5.4932,8.728,-14.4043,83,1.1846,0,2.4032,38.8025,25,0.8594,8250,4.0249,-135.618
rg,1625579836454247970,1,0.2742,0.5964,0.7922,759,5.127,8.0566,-14.0381,86,1.1846,0,2.2957,38.9188,26,0.8584,8316,4.0249,-135.8545
rg,1625579836454273101,1,0.2778,0.5989,0.8162,760,3.418,11.4746,-13.7939,86,1.1836,0,2.309,38.9389,26,0.8574,8307,4.0249,-135.997
rg,1625579836454299417,1,0.2698,0.5923,0.8215,761,2.5635,12.2681,-13.916,86,1.1856,0,2.3658,38.9062,26,0.8584,8307,4.0249,-136.124
rg,1625579836454326715,1,0.2532,0.5742,0.8342,762,2.5024,14.9536,-15.2588,86,1.1856,-0.001,2.535,38.8273,26,0.8584,8382,4.0249,-136.2222
rg,1625579836454354994,1,0.2441,0.5747,0.8389,763,3.3569,14.2212,-15.2588,86,1.1836,0,2.7309,38.7763,25,0.8564,8208,4.0249,-136.3461
rg,1625579836454381570,1,0.25,0.5774,0.8264,764,5.6152,13.0005,-13.3057,86,1.1846,0,2.8165,38.8392,25,0.8564,8320,4.0249,-136.44
rg,1625579836454405793,1,0.2463,0.5813,0.8218,765,6.0425,12.207,-13.1836,86,1.1846,0,2.8779,38.9285,25,0.8584,8373,4.0249,-136.549
rg,1625579836454431776,1,0.251,0.5847,0.8079,766,6.4697,11.5967,-13.3057,86,1.1846,0,2.9072,39.0545,25,0.8564,10412,4.0249,-136.6751
rg,1625579836454457018,1,0.2573,0.5903,0.8047,767,5.188,11.4136,-13.1226,86,1.1846,0,2.9128,39.1389,25,0.8594,8447,4.0249,-136.7983
rg,1625579836454484927,1,0.2598,0.5925,0.811,768,5.5542,11.3525,-13.3057,86,1.1866,0,2.9193,39.2301,25,0.8594,8437,4.0249,-136.928
rg,1625579836810788911,1,0.2715,0.5845,0.8162,769,1.9531,11.4746,-13.916,86,1.1856,0,2.921,39.1528,25,0.8574,25373,4.0249,-137.0737
rg,1625579836810844969,1,0.2603,0.5645,0.8225,770,0.8545,13.7939,-13.5498,86,1.1856,0,3.0043,38.9939,25,0.8584,15076,4.0249,-137.1525
rg,1625579836810867508,1,0.2383,0.5522,0.8323,771,1.9531,11.2915,-13.9771,86,1.1856,0,3.0633,38.8454,25,0.8584,7870,4.0249,-137.3117
rg,1625579836810885879,1,0.2554,0.5518,0.8286,772,3.2349,11.1084,-14.4653,86,1.1856,-0.001,3.058,38.7641,26,0.8584,7912,4.0249,-137.4958
rg,1625579836810923751,1,0.2637,0.5518,0.8269,773,5.0049,10.0708,-14.0991,86,1.1856,0,3.0253,38.7511,26,0.8584,8900,4.0249,-137.6916
rg,1625579836811018515,1,0.2749,0.5569,0.8145,774,5.7983,10.1929,-13.6108,86,1.1856,0,2.9585,38.7969,26,0.8584,7968,4.0249,-137.8677
rg,1625579836811042979,1,0.2751,0.5564,0.8101,775,6.4697,10.8643,-14.4653,86,1.1856,0,2.934,38.872,26,0.8584,7916,4.0249,-138.0527
rg,1625579836811062517,1,0.2747,0.5608,0.8127,776,7.019,11.3525,-15.4419,86,1.1856,0,2.9639,38.9767,26,0.8584,8067,4.0249,-138.2213
rg,1625579836811081203,1,0.2708,0.5723,0.8157,777,7.1411,11.6577,-15.2588,86,1.1846,0,3.0005,39.0928,26,0.8574,8188,4.0249,-138.4079
rg,1625579836811099056,1,0.2712,0.5781,0.8157,778,6.8359,12.2681,-14.7705,86,1.1866,0,3.0434,39.2043,26,0.8594,7962,4.0249,-138.5622
rg,1625579836811116650,1,0.2688,0.5818,0.812,779,6.958,11.6577,-14.0991,86,1.1866,0,3.068,39.3295,26,0.8594,8085,4.0249,-138.7054
rg,1625579836811134614,1,0.2744,0.584,0.8269,780,6.958,11.4746,-14.4043,86,1.1846,-0.001,3.0756,39.4326,25,0.8584,8003,4.0249,-138.8663
rg,1625579836811155003,1,0.2676,0.5872,0.8191,781,6.897,12.3901,-13.9771,86,1.1856,-0.001,3.1116,39.5465,25,0.8594,7935,4.0249,-138.9887
rg,1625579836811172653,1,0.2698,0.5979,0.8191,782,7.2021,11.4136,-12.146,86,1.1866,0,3.0721,39.6716,25,0.8594,8093,4.0249,-139.0785
rg,1625579836811192154,1,0.2717,0.5933,0.8164,783,7.1411,11.2305,-13.3057,86,1.1846,0,3.1264,39.7989,25,0.8594,10327,4.0249,-139.2004
rg,1625579836811210914,1,0.2671,0.5896,0.8169,784,7.0801,12.6953,-14.1602,86,1.1846,0,3.1761,39.9133,25,0.8584,8122,4.0249,-139.3164
rg,1625579836811230618,1,0.2556,0.5852,0.8098,785,7.6294,13.7939,-13.916,86,1.1876,0,3.2703,40.0482,25,0.8594,8162,4.0249,-139.3954
rg,1625579836811248842,1,0.2485,0.5918,0.8081,786,7.1411,13.2446,-13.3057,86,1.1866,0,3.3526,40.1854,25,0.8604,8212,4.0249,-139.4928
rg,1625579836811267213,1,0.2478,0.5933,0.814,787,7.2021,12.3291,-12.7563,86,1.1846,0,3.3859,40.3011,25,0.8584,8222,4.0249,-139.5714
rg,1625579836811286417,1,0.2439,0.5957,0.8083,788,6.5918,12.146,-13.6108,86,1.1866,0,3.4411,40.3977,25,0.8594,8237,4.0249,-139.679
rg,1625579836811335957,1,0.2466,0.6008,0.8147,789,6.958,11.6577,-12.3901,86,1.1856,0,3.4464,40.5074,25,0.8604,8300,4.0249,-139.7613
rg,1625579836811360625,1,0.249,0.6038,0.8157,790,6.5918,12.146,-14.4653,86,1.1856,-0.001,3.5165,40.5991,25,0.8594,8266,4.0249,-139.8926
rg,1625579836811380737,1,0.2441,0.6011,0.812,791,6.4697,11.3525,-13.0615,86,1.1876,-0.001,3.5315,40.6837,25,0.8594,8144,4.0249,-140.0013
rg,1625579836811402164,1,0.2405,0.6082,0.8127,792,6.5918,11.3525,-13.7329,86,1.1866,0,3.5731,40.7799,26,0.8604,8300,4.0249,-140.129
rg,1625579836811420369,1,0.2415,0.6116,0.813,793,5.188,12.3901,-14.5874,86,1.1876,0,3.603,40.8351,26,0.8614,8322,4.0249,-140.2447
rg,1625579836811438203,1,0.2461,0.6145,0.8169,794,4.8218,11.6577,-13.6108,86,1.1846,-0.001,3.6402,40.8612,26,0.8594,8404,4.0249,-140.3589
rg,1625579836811456556,1,0.2471,0.6094,0.8091,795,4.6387,11.2915,-12.085,86,1.1866,0,3.6187,40.8827,26,0.8604,8211,4.0249,-140.4364
rg,1625579836811474705,1,0.2444,0.6062,0.8108,796,4.3945,11.6577,-13.4888,86,1.1876,0,3.651,40.8838,26,0.8614,8865,4.0249,-140.547
rg,1625579836811493187,1,0.2485,0.6069,0.8105,797,3.9673,11.9629,-13.6108,86,1.1876,0,3.6864,40.8505,26,0.8614,8357,4.0249,-140.6544
rg,1625579836811513262,1,0.2446,0.5938,0.8098,798,4.1504,12.3291,-13.1226,86,1.1846,0,3.7224,40.8242,26,0.8594,8511,4.0249,-140.738
rg,1625579836811531874,1,0.248,0.5898,0.811,799,4.7607,12.3901,-13.3667,86,1.1866,0,3.7576,40.8145,26,0.8594,8602,4.0249,-140.8284
rg,1625579836811551171,1,0.2502,0.5891,0.8188,800,5.0049,12.3901,-13.3057,86,1.1866,0,3.7884,40.8037,26,0.8614,8465,4.0249,-140.9179
rg,1625579837164313576,1,0.2573,0.5928,0.8066,801,5.7373,12.3291,-13.3667,86,1.1866,0,3.7995,40.8449,26,0.8614,24955,4.0249,-141.0095
rg,1625579837164362411,1,0.2534,0.5964,0.8098,802,6.1646,13.3057,-13.7329,86,1.1866,0,3.8595,40.9046,26,0.8614,15146,4.0249,-141.0859
rg,1625579837164415229,1,0.2434,0.6018,0.8132,803,5.188,12.3291,-13.1836,86,1.1866,0,3.8966,40.9269,26,0.8614,7986,4.0249,-141.1708
rg,1625579837164436063,1,0.2444,0.6042,0.8137,804,5.0049,12.6953,-14.0381,86,1.1866,0,3.9646,40.9435,26,0.8624,7953,4.0249,-141.2716
rg,1625579837164454027,1,0.241,0.6021,0.8215,805,4.6997,12.3901,-13.6108,86,1.1866,0,4.019,40.9335,26,0.8614,7981,4.0249,-141.3685
rg,1625579837164471231,1,0.2351,0.6113,0.8154,806,4.3945,11.4136,-13.4277,86,1.1866,0,4.0492,40.9339,26,0.8614,8003,4.0249,-141.4842
rg,1625579837164489417,1,0.2402,0.6079,0.812,807,3.479,11.4136,-13.916,86,1.1866,-0.001,4.0784,40.8955,26,0.8614,9359,4.0249,-141.6148
rg,1625579837164508344,1,0.2429,0.6082,0.8232,808,2.7466,10.8032,-14.6484,86,1.1876,-0.001,4.0168,40.7789,26,0.8624,7871,4.0249,-141.7788
rg,1625579837164527327,1,0.2449,0.6104,0.8198,809,2.3193,8.9111,-13.2446,86,1.1856,-0.001,3.9481,40.6913,26,0.8604,8052,4.0249,-141.9566
rg,1625579837164548346,1,0.2468,0.604,0.8167,810,1.2207,8.4839,-14.1602,86,1.1876,0,3.8858,40.5539,26,0.8614,7852,4.0249,-142.1742
rg,1625579837164566810,1,0.2546,0.5913,0.812,811,0.7324,7.8125,-14.2822,86,1.1876,0,3.718,40.389,26,0.8624,8060,4.0249,-142.4357
rg,1625579837164585107,1,0.2581,0.5889,0.821,812,0.8545,6.7139,-14.4653,86,1.1856,-0.001,3.5923,40.2143,26,0.8604,8143,4.0249,-142.7125
rg,1625579837164604478,1,0.2544,0.573,0.8091,813,0.3662,6.2866,-14.2212,86,1.1876,0,3.4491,40.0142,25,0.8594,7974,4.0249,-142.9945
rg,1625579837164623683,1,0.2661,0.5701,0.8069,814,0.061,6.7139,-15.2588,86,1.1886,0,3.3179,39.8051,25,0.8634,8074,4.0249,-143.2909
rg,1625579837164642239,1,0.2642,0.5637,0.8142,815,0.061,7.0801,-15.7471,86,1.1856,0,3.2259,39.5853,25,0.8604,8088,4.0249,-143.6028
rg,1625579837164660703,1,0.2676,0.5598,0.8066,816,1.1597,7.1411,-14.4653,86,1.1876,0,3.094,39.4232,25,0.8614,8171,4.0249,-143.8751
rg,1625579837164678278,1,0.2793,0.5581,0.8096,817,2.0142,7.1411,-13.855,86,1.1876,0,2.928,39.2968,26,0.8624,8198,4.0249,-144.1297
rg,1625579837164717650,1,0.2837,0.5613,0.8081,818,2.2583,8.606,-14.5874,86,1.1866,0,2.8227,39.194,26,0.8624,12149,4.0249,-144.3698
rg,1625579837164739355,1,0.2842,0.5645,0.8132,819,3.3569,10.0708,-15.4419,86,1.1876,0,2.7902,39.139,26,0.8624,8267,4.0249,-144.6
rg,1625579837164756837,1,0.2781,0.5684,0.8154,820,4.0283,9.7656,-14.8315,86,1.1866,0,2.7655,39.1394,26,0.8624,8641,4.0249,-144.7929
rg,1625579837164773820,1,0.2749,0.5859,0.8193,821,4.8828,11.4746,-13.916,86,1.1866,0,2.765,39.2345,25,0.8624,10101,4.0249,-144.9537
rg,1625579837164792913,1,0.2698,0.5894,0.8152,822,5.7373,11.5356,-14.4653,86,1.1866,0,2.7929,39.3174,25,0.8624,8365,4.0249,-145.1139
rg,1625579837164811155,1,0.2671,0.5994,0.8125,823,4.3945,11.7188,-14.5264,86,1.1856,0,2.8345,39.3646,25,0.8614,9466,4.0249,-145.2694
rg,1625579837164829822,1,0.2573,0.5955,0.8086,824,5.7373,12.3901,-15.4419,86,1.1876,0,2.9355,39.4608,26,0.8624,8540,4.0249,-145.4359
rg,1625579837164847212,1,0.2612,0.6038,0.804,825,5.6763,10.8643,-11.7798,86,1.1866,0,2.8856,39.5754,26,0.8634,8377,4.0249,-145.5263
rg,1625579837164864917,1,0.2576,0.6116,0.8159,826,4.0894,10.9863,-13.4888,86,1.1856,0,2.8995,39.6175,26,0.8614,8444,4.0249,-145.6653
rg,1625579837164882140,1,0.2568,0.6074,0.8047,827,4.0894,11.4136,-12.0239,86,1.1826,0,2.8845,39.6684,26,0.8604,8419,4.0249,-145.7474
rg,1625579837164901011,1,0.262,0.6072,0.812,828,3.479,11.2305,-13.2446,86,1.1866,0,2.8883,39.681,26,0.8624,8332,4.0249,-145.8717
rg,1625579837164919586,1,0.2607,0.603,0.8159,829,3.0518,11.4136,-13.6108,86,1.1876,0,2.9049,39.6814,26,0.8624,8387,4.0249,-146.0015
rg,1625579837164937957,1,0.2612,0.5974,0.8176,830,3.6011,10.2539,-11.5356,86,1.1856,0,2.8352,39.6755,26,0.8614,8389,4.0249,-146.0995
rg,1625579837164954939,1,0.2546,0.5972,0.8193,831,2.5635,11.2305,-13.0615,86,1.1876,0,2.8509,39.6245,26,0.8614,8429,4.0249,-146.2194
rg,1625579837164972440,1,0.2476,0.6042,0.8193,832,2.4414,11.4746,-12.8174,86,1.1886,0,2.8835,39.5834,26,0.8634,8486,4.0249,-146.3255
rg,1625579837523918896,1,0.2385,0.5906,0.8123,833,1.77,9.9487,-12.7563,86,1.1866,0,2.8782,39.5001,26,0.8624,25670,4.0249,-146.4701
rg,1625579837523963435,1,0.2446,0.5867,0.8145,834,0.9155,8.4839,-14.2822,86,1.1866,0.001,2.8538,39.3721,26,0.8624,10839,4.0249,-146.7003
rg,1625579837523984028,1,0.25,0.5776,0.8125,835,1.1597,7.9346,-14.5264,86,1.1866,0,2.8047,39.2444,26,0.8624,7788,4.0249,-146.9538
rg,1625579837524002603,1,0.2522,0.5808,0.8142,836,0.9766,7.6294,-14.6484,86,1.1866,0,2.7396,39.1165,26,0.8634,7936,4.0249,-147.2196
rg,1625579837524020049,1,0.2539,0.5776,0.8132,837,1.4648,6.8359,-14.0381,86,1.1866,0,2.6398,39.01,26,0.8634,8048,4.0249,-147.4877
rg,1625579837524037142,1,0.2651,0.5752,0.813,838,1.9531,8.1787,-15.3809,86,1.1866,0,2.595,38.9233,26,0.8634,10677,4.0249,-147.7643
rg,1625579837524053846,1,0.2798,0.5715,0.8027,839,3.0518,8.728,-14.7705,86,1.1876,0,2.5179,38.8927,26,0.8634,13043,4.0249,-148.0084
rg,1625579837524071477,1,0.2759,0.5767,0.8101,840,3.6621,8.4839,-14.6484,86,1.1866,0,2.4402,38.8967,26,0.8634,7979,4.0249,-148.2546
rg,1625579837524088385,1,0.2688,0.5798,0.8127,841,4.9438,11.2305,-15.3809,86,1.1866,0,2.4911,38.9464,26,0.8634,8010,4.0249,-148.4544
rg,1625579837524105867,1,0.2705,0.5879,0.8071,842,5.188,11.4136,-14.4653,86,1.1866,0,2.5195,39.0269,26,0.8634,7999,4.0249,-148.6198
rg,1625579837524123498,1,0.2705,0.5962,0.8115,843,5.127,11.2915,-14.4043,86,1.1866,0,2.5461,39.1106,26,0.8634,8060,4.0249,-148.7852
rg,1625579837524140351,1,0.2654,0.6064,0.8093,844,4.8218,11.5967,-15.0146,86,1.1866,0,2.6094,39.199,26,0.8634,8756,4.0249,-148.96
rg,1625579837524156703,1,0.2664,0.6113,0.7993,845,6.1035,11.5967,-14.4043,86,1.1916,0,2.6506,39.3575,26,0.8614,8514,4.0249,-149.114
rg,1625579837524173019,1,0.2676,0.6062,0.8008,846,3.8452,11.9019,-13.6108,86,1.1886,-0.001,2.6762,39.4105,26,0.8644,8081,4.0249,-149.2346
rg,1625579837524191353,1,0.271,0.6082,0.8101,847,4.2725,13.0615,-13.7939,86,1.1846,0,2.739,39.4708,26,0.8624,7948,4.0249,-149.3311
rg,1625579837524219428,1,0.2656,0.5999,0.8059,848,4.1504,12.3291,-12.3901,86,1.1876,0,2.7478,39.516,26,0.8624,8277,4.0249,-149.4029
rg,1625579837524236874,1,0.2698,0.5898,0.8108,849,3.7231,13.4277,-13.4277,86,1.1886,0,2.8071,39.5183,26,0.8634,8183,4.0249,-149.4794
rg,1625579837524253448,1,0.2666,0.5898,0.8176,850,3.1738,12.5732,-12.9395,86,1.1856,0,2.8347,39.4894,26,0.8624,8214,4.0249,-149.5632
rg,1625579837524269708,1,0.2622,0.5801,0.8127,851,3.0518,13.1836,-12.6343,86,1.1866,0,2.8762,39.4467,26,0.8624,8174,4.0249,-149.6229
rg,1625579837524286135,1,0.2578,0.5759,0.8169,852,3.54,12.5732,-12.3291,86,1.1876,0,2.899,39.4119,26,0.8634,8349,4.0249,-149.6901
rg,1625579837524302673,1,0.2551,0.5842,0.8254,853,4.1504,11.4746,-12.0239,86,1.1876,0,2.8847,39.3968,25,0.8634,8244,4.0249,-149.7765
rg,1625579837524318711,1,0.2529,0.5867,0.8257,854,3.6011,11.0474,-11.8408,86,1.1856,0,2.8644,39.3728,25,0.8624,8343,4.0249,-149.8676
rg,1625579837524334989,1,0.2476,0.5806,0.8235,855,2.8076,11.3525,-13.3667,86,1.1866,0,2.9011,39.3079,25,0.8624,8274,4.0249,-149.9988
rg,1625579837524351453,1,0.2424,0.5884,0.8174,856,2.8687,10.0098,-12.8784,86,1.1866,0,2.8929,39.2683,25,0.8634,8302,4.0249,-150.1486
rg,1625579837524367417,1,0.2451,0.5952,0.8142,857,1.6479,8.9722,-13.916,86,1.1866,0,2.8742,39.1949,26,0.8644,10014,4.0249,-150.3565
rg,1625579837524384177,1,0.2522,0.6006,0.8142,858,0.9155,8.5449,-14.2822,86,1.1856,0,2.8391,39.1037,26,0.8634,8393,4.0249,-150.5866
rg,1625579837524400548,1,0.2524,0.5952,0.8147,859,0.6104,7.2632,-14.6484,86,1.1856,0,2.7727,38.9919,26,0.8624,8364,4.0249,-150.8618
rg,1625579837524416826,1,0.2615,0.5869,0.8037,860,0.7324,5.8594,-13.4888,86,1.1886,0,2.6104,38.8896,26,0.8644,8359,4.0249,-151.137
rg,1625579837524433327,1,0.2693,0.583,0.8054,861,0.4272,6.897,-15.7471,86,1.1886,0,2.4707,38.7665,25,0.8644,8434,4.0249,-151.4373
rg,1625579837524449661,1,0.2803,0.5723,0.8123,862,1.0986,7.3242,-15.2588,86,1.1856,0,2.3696,38.6515,25,0.8624,8405,4.0249,-151.7335
rg,1625579837524479015,1,0.2861,0.5549,0.8059,863,0.9766,8.7891,-14.6484,86,1.1876,0,2.2817,38.5157,25,0.8624,8456,4.0249,-151.9755
rg,1625579837524496941,1,0.2839,0.5508,0.8101,864,2.3804,10.5591,-15.2588,86,1.1886,0,2.2722,38.4294,25,0.8644,8525,4.0249,-152.1942
rg,1625579837883321558,1,0.2805,0.553,0.8069,865,5.3101,12.9395,-16.1743,86,1.1876,0,2.3696,38.4955,26,0.8634,25395,4.0249,-152.3817
rg,1625579837883357356,1,0.2732,0.5745,0.8062,866,7.019,14.2822,-14.7095,86,1.1866,0,2.4867,38.6465,26,0.8634,14615,4.0249,-152.4885
rg,1625579837883377209,1,0.2637,0.5945,0.8057,867,7.2632,14.0991,-14.7095,86,1.1866,0,2.6192,38.837,26,0.8644,7886,4.0249,-152.5967
rg,1625579837883395821,1,0.2622,0.6079,0.8025,868,6.7749,14.7705,-15.1978,86,1.1876,0,2.7743,39.0265,26,0.8644,7914,4.0249,-152.7184
rg,1625579837883413266,1,0.2551,0.6133,0.8191,869,6.897,13.3667,-13.916,86,1.1876,0,2.8822,39.2028,26,0.8644,7889,4.0249,-152.8157
rg,1625579837883430267,1,0.2563,0.6228,0.8132,870,5.7983,13.855,-14.7095,86,1.1876,0,3.0195,39.3517,26,0.8644,7922,4.0249,-152.9221
rg,1625579837883447175,1,0.2603,0.6199,0.821,871,4.8828,13.0615,-13.5498,86,1.1876,0,3.0924,39.444,25,0.8644,9483,4.0249,-153.0121
rg,1625579837883463546,1,0.2568,0.6138,0.8137,872,3.54,13.1836,-14.1602,86,1.1856,0,3.1839,39.4772,25,0.8624,7991,4.0249,-153.1171
rg,1625579837883479769,1,0.2505,0.6147,0.8186,873,3.3569,12.9395,-12.9395,86,1.1886,0,3.2485,39.4986,25,0.8624,7962,4.0249,-153.1907
rg,1625579837883496066,1,0.2542,0.6082,0.8162,874,3.479,11.3525,-12.2681,81,1.1886,0,3.2346,39.5148,25,0.8634,8461,4.0293,-153.2845
rg,1625579837883512697,1,0.2517,0.5911,0.8235,875,2.3804,11.5356,-12.207,81,1.1866,0,3.2282,39.4476,26,0.8644,9807,4.0293,-153.3738
rg,1625579837883531383,1,0.2473,0.5945,0.8218,876,1.8921,10.8643,-11.5356,81,1.1856,0,3.1935,39.3718,26,0.8634,8011,4.0293,-153.4596
rg,1625579837883549254,1,0.2471,0.593,0.8103,877,2.8687,11.1694,-13.1836,81,1.1876,0,3.2067,39.3477,26,0.8624,8029,4.0293,-153.5886
rg,1625579837883587959,1,0.2505,0.5867,0.8152,878,1.4038,9.8267,-13.6719,81,1.1886,0,3.1835,39.2459,26,0.8634,8059,4.0293,-153.768
rg,1625579837883608757,1,0.2529,0.5845,0.8127,879,2.3193,9.7046,-13.7939,81,1.1856,0,3.1536,39.1834,25,0.8624,8070,4.0293,-153.9553
rg,1625579837883626443,1,0.2532,0.5752,0.812,880,0.8545,9.2163,-15.3198,81,1.1886,0,3.1445,39.0461,25,0.8634,8095,4.0293,-154.2036
rg,1625579837883642851,1,0.2578,0.5632,0.8123,881,0.9155,8.5449,-14.4653,81,1.1886,0,3.0801,38.8955,25,0.8644,8088,4.0293,-154.4447
rg,1625579837883659537,1,0.2668,0.5652,0.8162,882,1.1597,9.1553,-15.2588,81,1.1886,0,3.0401,38.7589,25,0.8644,8126,4.0293,-154.6964
rg,1625579837883676723,1,0.2749,0.5664,0.8213,883,2.5635,7.8735,-13.855,81,1.1836,0,2.9126,38.6805,26,0.8634,8172,4.0293,-154.9378
rg,1625579837883694075,1,0.2783,0.5613,0.8135,884,3.7231,9.8267,-15.1978,81,1.1876,0,2.872,38.6528,26,0.8644,8202,4.0293,-155.1724
rg,1625579837883710743,1,0.2773,0.5671,0.8198,885,3.9673,10.8643,-15.564,81,1.1886,0,2.8311,38.6569,26,0.8644,8200,4.0293,-155.35
rg,1625579837883727484,1,0.2717,0.5815,0.8081,886,5.3711,11.1694,-13.7329,81,1.1876,0,2.8159,38.743,26,0.8644,12760,4.0293,-155.5031
rg,1625579837883744522,1,0.2705,0.5889,0.8101,887,4.9438,11.0474,-14.5264,81,1.1876,0,2.8231,38.8179,26,0.8644,8272,4.0293,-155.6826
rg,1625579837883763505,1,0.2683,0.5984,0.8076,888,5.0049,11.4136,-14.4653,81,1.1876,0,2.8464,38.9127,26,0.8644,8326,4.0293,-155.8492
rg,1625579837883780154,1,0.2686,0.6052,0.8037,889,5.9204,11.4746,-13.5498,81,1.1876,0,2.8481,39.059,26,0.8644,8327,4.0293,-155.984
rg,1625579837883797562,1,0.2644,0.6079,0.8054,890,5.4932,11.9629,-14.5874,81,1.1876,0,2.9011,39.1839,25,0.8644,8296,4.0293,-156.137
rg,1625579837883815100,1,0.2671,0.605,0.8103,891,4.2114,12.8174,-14.2822,81,1.1866,0,2.9288,39.2611,25,0.8644,8735,4.0293,-156.2387
rg,1625579837883832971,1,0.2622,0.6077,0.8154,892,5.0049,12.0239,-13.0005,81,1.1856,0,2.9494,39.3477,25,0.8634,8372,4.0293,-156.3397
rg,1625579837883875862,1,0.2605,0.6052,0.8125,893,3.8452,13.6108,-14.3433,81,1.1876,0,3.0536,39.3842,25,0.8644,8383,4.0293,-156.4409
rg,1625579837883897770,1,0.2571,0.5981,0.8225,894,3.7231,13.0615,-13.3057,81,1.1836,0,3.1196,39.3898,26,0.8634,10207,4.0293,-156.5253
rg,1625579837883914752,1,0.2488,0.5979,0.8198,895,2.8076,13.0615,-12.146,81,1.1886,0,3.1692,39.3634,26,0.8654,8476,4.0293,-156.5738
rg,1625579837883933105,1,0.2446,0.6003,0.8181,896,2.7466,11.7798,-11.5967,81,1.1886,0,3.1628,39.3276,26,0.8654,8544,4.0293,-156.6615
rg,1625579838239667723,1,0.2463,0.584,0.8152,897,1.5259,9.1553,-13.4277,81,1.1876,0,3.1221,39.2261,26,0.8644,25458,4.0293,-156.8508
rg,1625579838239698039,1,0.259,0.5686,0.8105,898,1.4038,7.2021,-13.6719,81,1.1876,0,2.9961,39.0998,26,0.8644,14381,4.0293,-157.099
rg,1625579838239717633,1,0.2693,0.5635,0.8127,899,1.4648,7.6904,-15.1978,81,1.1876,0,2.9064,38.9677,26,0.8654,7883,4.0293,-157.3835
