name,time,activity,ax,ay,az,batch_val,gx,gy,gz,ibat,index,middle,pitch,roll,temp,thumb,ts,vbat,yaw
rg,1625583165419149566,1,0.0774,-0.1064,1.0164,1,7.6904,17.0288,-15.4419,62,1.1065,0,7.9118,-1.7741,25,0.6833,19313,4.0788,-68.0822
rg,1625583165419247287,1,0.0657,-0.1106,1.0325,2,4.4556,17.334,-16.0522,62,1.1065,0,8.1276,-1.8624,25,0.6843,8408,4.0788,-68.7763
rg,1625583165419269820,1,0.0498,-0.1204,1.043,3,2.9907,18.2495,-15.0146,62,1.1055,0,8.4065,-2.0219,25,0.6833,7884,4.0788,-69.4342
rg,1625583165419289501,1,0.0322,-0.1428,1.0566,4,1.4648,15.2588,-12.4512,62,1.1065,0,8.5957,-2.2674,25,0.6843,7923,4.0788,-69.9933
rg,1625583165419310145,1,0.0742,-0.1497,1.0603,5,3.1738,9.6436,-12.2681,62,1.1065,0,8.4657,-2.446,25,0.6833,7939,4.0788,-70.5391
rg,1625583165419329271,1,0.1003,-0.1462,1.0591,6,3.54,8.0566,-12.4512,62,1.1055,0,8.2217,-2.5947,25,0.6843,7936,4.0788,-71.0877
rg,1625583165419346823,1,0.1079,-0.1409,1.0491,7,3.9062,10.498,-14.3433,62,1.1065,0,8.0617,-2.7238,25,0.6843,7929,4.0788,-71.7148
rg,1625583165419365356,1,0.0801,-0.1506,1.042,8,4.2725,11.1084,-14.7705,62,1.1075,0,7.993,-2.8427,25,0.6843,8022,4.0788,-72.3931
rg,1625583165419381983,1,0.0823,-0.1428,1.0444,9,5.3101,10.1318,-14.2822,62,1.1065,0,7.8775,-2.9094,25,0.6843,8362,4.0788,-73.0171
rg,1625583165419400312,1,0.1074,-0.1409,1.0298,10,7.1411,8.8501,-12.8174,62,1.1065,0,7.6628,-2.89,25,0.6823,8023,4.0788,-73.5789
rg,1625583165419417920,1,0.1169,-0.1287,1.03,11,7.5073,9.9487,-13.2446,62,1.1075,0,7.4792,-2.8307,25,0.6853,8036,4.0788,-74.1557
rg,1625583165419436824,1,0.1194,-0.1167,1.0266,12,7.5073,10.498,-14.3433,62,1.1075,0,7.3443,-2.7609,25,0.6853,8436,4.0788,-74.801
rg,1625583165419455042,1,0.1238,-0.1121,1.0281,13,6.6528,11.4136,-15.9912,62,1.1055,0,7.2117,-2.7164,25,0.6843,8097,4.0788,-75.4851
rg,1625583165419540340,1,0.1023,-0.1074,1.0317,14,4.8218,13.1836,-15.1367,62,1.1075,0,7.2023,-2.7312,25,0.6853,8100,4.0788,-76.1363
rg,1625583165419564169,1,0.0974,-0.1118,1.0391,15,4.0283,13.3057,-15.1367,62,1.1065,0,7.2049,-2.8386,25,0.6833,8162,4.0788,-76.8279
rg,1625583165419581295,1,0.103,-0.1008,1.0493,16,2.4414,12.3901,-15.625,62,1.1065,0,7.1631,-2.9275,25,0.6843,8113,4.0788,-77.4952
rg,1625583165419598736,1,0.1111,-0.1143,1.0642,17,1.6479,12.146,-15.2588,62,1.1075,0,7.0995,-3.0674,25,0.6813,8177,4.0788,-78.1505
rg,1625583165419617047,1,0.0725,-0.1199,1.0588,18,0.9766,14.5264,-13.855,62,1.1075,0,7.2133,-3.236,25,0.6833,8183,4.0788,-78.7567
rg,1625583165419634229,1,0.0518,-0.1167,1.0681,19,0.9155,14.1602,-13.3057,62,1.1055,0,7.3517,-3.3902,25,0.6833,8149,4.0788,-79.3401
rg,1625583165419652355,1,0.0735,-0.1177,1.0627,20,0.1221,9.2773,-11.9629,62,1.1075,0,7.2463,-3.565,25,0.6843,8140,4.0788,-79.8588
rg,1625583165419670722,1,0.1238,-0.1213,1.0596,21,-1.5869,7.8125,-12.3901,62,1.1065,0,6.98,-3.809,25,0.6853,8196,4.0788,-80.3914
rg,1625583165419688348,1,0.1179,-0.1277,1.0671,22,-1.8311,9.0942,-11.7798,62,1.1055,0,6.7882,-4.0601,25,0.6843,8292,4.0788,-80.9036
rg,1625583165419707252,1,0.0791,-0.135,1.0647,23,-3.3569,11.4746,-12.146,62,1.1045,0,6.7742,-4.3802,25,0.6853,8306,4.0788,-81.4394
rg,1625583165419726174,1,0.0784,-0.1345,1.0605,24,-2.6245,9.8267,-11.0474,62,1.1055,0,6.6968,-4.6524,25,0.6853,8316,4.0788,-81.9267
rg,1625583165419744837,1,0.0952,-0.1211,1.0596,25,-3.418,9.8267,-11.5356,62,1.1075,0,6.598,-4.9539,25,0.6853,8346,4.0788,-82.4507
rg,1625583165419761982,1,0.0852,-0.1233,1.0649,26,-4.3335,11.4136,-12.6953,62,1.1065,0,6.566,-5.2538,25,0.6863,8339,4.0788,-83.0073
rg,1625583165419782552,1,0.0566,-0.1245,1.0693,27,-6.1646,11.1084,-12.3291,62,1.1075,0,6.5809,-5.6147,25,0.6833,8383,4.0788,-83.5492
rg,1625583165419802251,1,0.0537,-0.1128,1.0642,28,-8.3008,9.0942,-11.8408,62,1.1075,0,6.5192,-6.0196,25,0.6863,8419,4.0788,-84.0613
rg,1625583165419843539,1,0.0588,-0.1121,1.0679,29,-9.3994,7.5684,-11.4746,62,1.1065,0,6.387,-6.4467,25,0.6883,8484,4.0788,-84.552
rg,1625583165419863961,1,0.0837,-0.1062,1.0781,30,-12.8174,7.3242,-9.7656,62,1.1065,0,6.2043,-6.9697,26,0.6893,8532,4.0788,-84.9712
rg,1625583165419884272,1,0.0344,-0.1138,1.0696,31,-18.2495,10.3149,-9.1553,62,1.1075,0,6.2466,-7.7048,26,0.6893,8519,4.0788,-85.3837
rg,1625583165419902454,1,0.0344,-0.1306,1.0713,32,-19.5312,5.127,-8.667,62,1.1065,0,5.8196,-8.5852,26,0.6923,8897,4.0788,-85.7318
rg,1625583167147510791,1,-0.178,-0.5859,0.8813,33,-2.3804,61.1572,-11.7798,75,1.0575,0,8.317,-9.7379,25,0.7274,23447,4.0414,-86.6931
rg,1625583167147593610,1,-0.1768,-0.6721,0.9399,34,20.813,32.7759,-12.146,75,1.0595,0,9.5657,-10.005,25,0.7314,8708,4.0414,-87.5501
rg,1625583167147617569,1,-0.0583,-0.678,0.9441,35,36.3159,17.0898,-9.2773,75,1.0615,0,9.5172,-9.6796,25,0.7334,7849,4.0414,-88.2167
rg,1625583167147640657,1,0.3904,-0.7185,0.9028,36,66.8335,16.9678,-10.1929,75,1.0625,-0.001,9.0956,-8.1479,25,0.7354,8529,4.0414,-88.9212
rg,1625583167147662913,1,0.3171,-0.6516,0.8843,37,80.6885,66.8335,-30.2124,75,1.0665,0,10.6631,-6.246,25,0.7354,7679,4.0414,-90.6618
rg,1625583167147682743,1,0.146,-0.6221,0.8792,38,82.3364,87.0361,-37.1094,75,1.0665,0,13.6013,-4.4377,25,0.7334,7845,4.0414,-92.7142
rg,1625583167147706238,1,-0.0833,-0.5684,0.8882,39,79.4067,93.8721,-41.8091,75,1.0625,0,16.9313,-2.9006,25,0.7304,7859,4.0414,-94.9601
rg,1625583167147726031,1,-0.282,-0.4636,0.8916,40,71.3501,77.2705,-43.8843,75,1.0685,0,19.944,-1.639,25,0.7294,8071,4.0414,-97.2192
rg,1625583167147745602,1,-0.3535,-0.4324,0.8892,41,65.918,62.7441,-41.748,75,1.0695,0,22.4615,-0.621,25,0.7264,7927,4.0414,-99.3876
rg,1625583167147764451,1,-0.4436,-0.2578,0.8574,42,50.415,19.4092,-31.6162,75,1.0705,0,23.4105,0.2406,25,0.7254,7905,4.0414,-100.9988
rg,1625583167147782836,1,-0.4277,-0.2209,0.9199,43,19.9585,-30.5176,-17.0898,75,1.0715,0,22.2509,0.213,25,0.7264,7944,4.0414,-101.9601
rg,1625583167147801277,1,-0.3086,-0.3325,1.0061,44,4.6387,-61.4624,-9.1553,75,1.0705,0,19.5992,-0.4798,25,0.7284,8000,4.0414,-102.628
rg,1625583167147819941,1,-0.0522,-0.4011,1.0654,45,-18.5547,-102.7222,-1.6479,75,1.0725,0,14.8844,-2.0258,26,0.7314,8044,4.0414,-102.8705
rg,1625583167147839400,1,0.3567,-0.5623,1.0908,46,-34.0576,-118.8965,1.4648,75,1.0735,0,9.0381,-4.2574,26,0.7364,8095,4.0414,-102.767
rg,1625583167147914387,1,0.4783,-0.5598,1.0847,47,-40.3442,-100.5859,0.8545,75,1.0705,0,3.929,-6.6445,26,0.7364,8089,4.0414,-102.4554
rg,1625583167147942290,1,0.4902,-0.45,0.97,48,-52.7954,-54.3823,-7.3242,75,1.0675,0,0.6652,-9.3909,26,0.7294,8071,4.0414,-102.46
rg,1625583167147962768,1,0.2996,-0.2351,1.0906,49,-67.1997,-21.2402,-16.4795,75,1.0595,0,-0.9027,-12.172,25,0.7254,8059,4.0414,-102.9344
rg,1625583167147981690,1,0.3093,-0.3354,1.1797,50,-37.7197,-5.7373,-15.9912,75,1.0615,0,-1.7882,-13.8012,25,0.7304,8157,4.0414,-103.4967
rg,1625583167148002076,1,0.1746,0.0347,1.0159,51,15.7471,13.3057,-26.1841,75,1.0575,0,-1.8261,-12.5266,25,0.7304,8238,4.0414,-104.6615
rg,1625583167148020480,1,0.1165,-0.4536,0.9722,52,7.0801,0.9766,-30.3955,75,1.0625,0,-2.2275,-12.6868,25,0.7334,8808,4.0414,-105.8413
rg,1625583167148038162,1,0.2688,-0.3752,0.9167,53,8.1787,-11.4136,-25.0244,122,1.0635,0,-2.4289,-13.0766,25,0.7344,8179,3.9919,-106.6763
rg,1625583167148056937,1,0.3015,-0.5513,1.0447,54,-11.4746,23.6206,-13.4888,122,1.0625,0,-2.1094,-14.0606,25,0.7344,8250,3.9919,-107.3961
rg,1625583167148075545,1,0.2622,-0.3848,0.8674,55,-4.0894,48.4619,-11.0474,122,1.0655,0,-0.8703,-14.5705,25,0.7354,8297,3.9919,-108.2896
rg,1625583167148094930,1,0.1292,-0.5225,0.9453,56,-9.9487,63.9038,-15.8081,122,1.0655,0,1.189,-15.5256,25,0.7374,10928,3.9919,-109.5553
rg,1625583167148112631,1,0.0508,-0.5701,0.9565,57,-6.2866,62.7441,-22.2168,122,1.0665,0,3.1991,-16.4287,25,0.7404,8305,3.9919,-111.1147
rg,1625583167148132312,1,-0.167,-0.5906,0.9758,58,-2.0142,62.8662,-23.9868,122,1.0665,0,5.3427,-17.0602,25,0.7404,8304,3.9919,-112.9047
rg,1625583167148149495,1,-0.22,-0.625,1.001,59,10.437,46.9971,-25.3296,122,1.0675,0,7.043,-17.3822,25,0.7404,8356,3.9919,-114.4936
rg,1625583167148167473,1,-0.0874,-0.7368,1.0044,60,35.5835,10.437,-20.1416,122,1.0715,0,7.0976,-16.8071,25,0.7414,8415,3.9919,-115.4847
rg,1625583167148187451,1,0.4004,-0.7061,0.9419,61,72.7539,-3.1128,-17.0288,122,1.0725,0,5.8208,-14.7154,25,0.7424,8456,3.9919,-116.2208
rg,1625583167148204800,1,0.5029,-0.6157,0.9136,62,81.665,14.0381,-25.6958,122,1.0725,0,6.1239,-12.2399,25,0.7404,8432,3.9919,-118.1496
rg,1625583167148222315,1,0.2515,-0.5251,0.8914,63,79.5898,67.8101,-44.0674,122,1.0715,0,7.6789,-10.0348,25,0.7364,8414,3.9919,-120.5101
rg,1625583167148258550,1,-0.1077,-0.4592,0.8682,64,70.1904,81.8481,-46.5088,122,1.0735,0,10.5594,-8.3115,25,0.7324,8481,3.9919,-122.9936
rg,1625583167509291169,1,-0.5688,-0.2146,0.9285,65,15.625,-4.7607,-21.0571,122,1.0745,0,9.3075,-8.8212,25,0.7344,25457,3.9919,-123.1866
rg,1625583167509370414,1,-0.2,-0.366,0.988,66,-40.9546,-121.6431,7.0801,122,1.0755,0,4.6415,-10.7635,25,0.7434,13287,3.9919,-122.1438
rg,1625583167509422961,1,0.446,-0.5935,1.0564,67,-55.2979,-154.6631,15.3198,122,1.0745,0,-2.19,-13.6001,25,0.7454,8062,3.9919,-120.271
rg,1625583167509471878,1,0.8169,-0.5503,1.0205,68,-61.7676,-109.0088,10.6201,122,1.0705,0,-7.5029,-16.6654,25,0.7424,7875,3.9919,-118.6652
rg,1625583167509519592,1,0.8181,-0.4993,0.9573,69,-62.0728,-73.0591,4.1504,122,1.0655,0,-9.8512,-19.0947,25,0.7384,7878,3.9919,-118.2974
rg,1625583167509566880,1,0.7795,-0.4458,1.0215,70,-29.1138,-4.0894,-0.4272,122,1.0645,0,-10.9708,-20.4077,25,0.7414,7875,3.9919,-118.2224
rg,1625583167509613538,1,0.4395,-0.0596,0.8784,71,8.9111,51.0864,-20.5688,122,1.0635,0,-9.9539,-19.1888,25,0.7414,7916,3.9919,-119.8365
rg,1625583167509660808,1,-0.0256,-0.3396,0.8853,72,7.0801,61.1572,-25.8179,122,1.0625,0,-7.53,-18.7013,25,0.7424,8447,3.9919,-121.616
rg,1625583167509708115,1,-0.0364,-0.2617,0.8472,73,7.2632,36.0107,-24.9023,122,1.0615,0,-6.5754,-18.5785,25,0.7434,8700,3.9919,-122.5756
rg,1625583167509755347,1,0.2949,-0.4507,0.9202,74,-2.4414,30.8838,-7.0801,122,1.0605,0,-5.875,-18.8855,25,0.7444,14111,3.9919,-123.2124
rg,1625583167509802487,1,0.2214,-0.438,0.8962,75,-2.0142,57.1899,-8.8501,122,1.0615,0,-4.0982,-19.1436,25,0.7444,7892,3.9919,-124.2702
rg,1625583167509847979,1,0.135,-0.4719,0.9187,76,-1.1597,63.2935,-10.9863,122,1.0615,0,-1.8819,-19.4944,25,0.7454,7957,3.9919,-125.4997
rg,1625583167509893101,1,0.0381,-0.52,0.9421,77,4.7607,58.3496,-10.498,122,1.0625,0,0.1618,-19.6523,25,0.7474,7989,3.9919,-126.6674
rg,1625583167509939056,1,-0.064,-0.437,0.9028,78,13.3667,46.936,-14.4653,122,1.0635,0,1.8691,-19.3784,25,0.7494,7983,3.9919,-127.8419
rg,1625583167509985307,1,-0.0642,-0.4758,0.9343,79,16.0522,37.1704,-12.3901,122,1.0675,0,3.0746,-19.2364,25,0.7514,8290,3.9919,-128.8186
rg,1625583167510031558,1,0.1238,-0.6042,0.9688,80,35.5225,20.6299,-7.7515,122,1.0675,0,3.3904,-18.3442,25,0.7524,8064,3.9919,-129.4095
rg,1625583167510076569,1,0.4717,-0.676,0.9595,81,59.3262,30.4565,-8.7891,122,1.0715,0,3.48,-16.6273,25,0.7554,8390,3.9919,-130.1648
rg,1625583167510121080,1,0.3135,-0.5981,0.937,82,65.3687,52.2461,-19.2871,122,1.0725,0,5.3978,-14.6041,25,0.7534,8148,3.9919,-132.1938
rg,1625583167510203306,1,0.1426,-0.5444,0.9133,83,70.1294,93.6279,-33.4473,122,1.0725,0,8.2035,-12.6978,25,0.7504,8141,3.9919,-134.4633
rg,1625583167510252261,1,-0.1772,-0.4368,0.8774,84,66.4062,96.9849,-35.8276,122,1.0745,0,11.78,-10.9727,25,0.7454,8141,3.9919,-136.7721
rg,1625583167510297919,1,-0.4661,-0.2576,0.863,85,51.3916,67.9321,-30.4565,122,1.0745,0,14.8344,-9.5208,25,0.7464,8302,3.9919,-138.5346
rg,1625583167510342486,1,-0.6169,-0.0989,0.8657,86,38.5742,40.4663,-23.9868,122,1.0735,0,17.069,-8.2196,25,0.7454,8198,3.9919,-139.7444
rg,1625583167510386571,1,-0.6829,-0.1248,0.863,87,-11.5356,-44.3726,-2.9907,122,1.0735,0,16.1107,-8.6361,25,0.7494,8193,3.9919,-139.5976
rg,1625583167510431674,1,-0.2153,-0.4302,0.9932,88,-42.6025,-130.7983,15.5029,122,1.0745,0,10.9002,-10.5581,25,0.7544,8243,3.9919,-138.2301
rg,1625583167510476425,1,0.1277,-0.4138,0.9822,89,-48.4009,-157.2266,20.5688,122,1.0715,0,4.2515,-12.6905,25,0.7564,8276,3.9919,-136.218
rg,1625583167510523232,1,0.7427,-0.5679,1.0432,90,-64.5142,-146.2402,14.8926,122,1.0655,0,-2.5794,-15.7548,25,0.7514,8274,3.9919,-134.2073
rg,1625583167510568372,1,0.8271,-0.4524,0.9766,91,-69.0918,-65.4907,5.127,122,1.0605,0,-6.3061,-18.8681,25,0.7434,8390,3.9919,-133.1802
rg,1625583167510639915,1,0.7349,-0.4631,0.9302,92,-65.979,-27.4658,-0.5493,122,1.0595,0,-7.1144,-20.2759,25,0.7454,8319,3.9919,-133.2162
rg,1625583167510716809,1,0.3481,-0.1904,0.9312,93,-6.5308,56.8237,-10.5591,122,1.0575,0,-5.646,-20.0744,25,0.7454,11014,3.9919,-134.449
rg,1625583167510762857,1,0.0369,-0.4172,0.8684,94,0.5493,78.3081,-9.5215,122,1.0565,0,-2.4743,-20.0613,25,0.7464,8348,3.9919,-135.8763
rg,1625583167510811719,1,0.0696,-0.1719,0.7605,95,11.9019,30.8228,-7.6294,122,1.0545,0,-1.5242,-19.2691,25,0.7454,8395,3.9919,-136.5938
rg,1625583167510859970,1,0.1211,-0.386,0.9243,96,-7.7515,38.5742,0.4272,122,1.0555,0,-0.2812,-19.6986,25,0.7464,8437,3.9919,-137.09
rg,1625583167872087203,1,0.271,-0.3635,0.8486,97,-12.0239,59.021,-1.2817,122,1.0565,0,1.9736,-20.4338,25,0.7474,25324,3.9919,-138.3701
rg,1625583167872213329,1,-0.1526,-0.3862,0.8904,98,-21.7896,80.3223,-14.9536,122,1.0605,0,5.0212,-21.5198,25,0.7524,14115,3.9919,-140.0908
rg,1625583167872268319,1,-0.2932,-0.6028,1.0198,99,-18.3105,53.2837,-9.7046,122,1.0625,0,7.192,-22.7178,25,0.7544,10939,3.9919,-141.2953
rg,1625583167872320884,1,-0.051,-0.7268,1.0791,100,7.8125,12.7563,-4.2114,122,1.0645,0,7.4034,-22.8908,25,0.7554,7901,3.9919,-141.7073
rg,1625583167872369283,1,0.3359,-0.7576,1.0466,101,46.5698,14.7095,-0.061,122,1.0665,0,7.1031,-21.5562,25,0.7574,7908,3.9919,-142.0097
rg,1625583167872417442,1,0.469,-0.728,1.0085,102,61.4014,31.4941,-4.0894,122,1.0675,0,7.8829,-19.4165,25,0.7554,7884,3.9919,-143.4915
rg,1625583167872463582,1,0.3008,-0.5845,0.9402,103,70.0684,79.9561,-26.3062,122,1.0685,0,9.6903,-17.4089,25,0.7524,8159,3.9919,-145.6083
rg,1625583167872512110,1,-0.0566,-0.5007,0.8958,104,68.6646,100.708,-37.9639,122,1.0695,0,12.8527,-15.6584,25,0.7474,8098,3.9919,-148.347
rg,1625583167872564583,1,-0.3499,-0.4023,0.8911,105,57.1899,83.313,-42.2974,122,1.0695,0,15.893,-14.3448,25,0.7444,7947,3.9919,-150.9959
rg,1625583167872613222,1,-0.502,-0.2844,0.8577,106,49.3164,63.9038,-39.3066,122,1.0685,0,18.5051,-13.1794,25,0.7424,7939,3.9919,-153.2656
rg,1625583167872658252,1,-0.7356,-0.0613,0.8508,107,20.0806,-2.8687,-21.5454,122,1.0715,0,19.0642,-12.365,25,0.7424,7984,3.9919,-154.0268
rg,1625583167872712113,1,-0.5984,-0.3147,1.0046,108,-7.1411,-49.6826,-10.5591,122,1.0735,0,15.709,-13.4867,25,0.7504,8005,3.9919,-153.2528
rg,1625583167872760697,1,-0.3999,-0.4514,0.9905,109,-41.5649,-133.8501,7.4463,122,1.0715,0,10.7999,-15.1778,25,0.7534,8112,3.9919,-151.7075
rg,1625583167872809929,1,0.2742,-0.6064,1.0393,110,-54.6875,-182.4341,17.334,122,1.0695,0,3.1359,-17.5985,25,0.7544,8665,3.9919,-149.0543
rg,1625583167872858846,1,0.7471,-0.4846,0.9558,111,-56.1523,-148.7427,13.0615,122,1.0655,0,-3.6897,-20.144,26,0.7484,8240,3.9919,-146.6215
rg,1625583167872905634,1,0.7783,-0.1084,1.2444,112,-52.4902,-71.5332,0.2441,122,1.0615,0,-7.4222,-21.8277,26,0.7484,8163,3.9919,-145.5985
rg,1625583167872955570,1,1.0125,-0.4968,0.6897,113,-11.2915,-30.1514,4.5166,122,1.0605,0,-10.0012,-22.7264,26,0.7484,8173,3.9919,-144.9095
rg,1625583167873001932,1,0.3726,-0.1289,0.854,114,-8.4839,49.4385,-18.1274,122,1.0565,0,-8.9907,-22.3037,26,0.7484,8213,3.9919,-146.4527
rg,1625583167873049239,1,-0.0303,-0.3271,0.8735,115,1.4038,46.0205,-11.3525,122,1.0595,0,-7.0348,-22.0143,25,0.7504,8199,3.9919,-147.5909
rg,1625583167873095157,1,0.1604,-0.218,0.8157,116,-1.5259,16.8457,-8.2397,122,1.0585,0,-6.4562,-22.389,25,0.7494,8204,3.9919,-148.0267
rg,1625583167873140668,1,0.2798,-0.4502,0.9634,117,-18.0054,42.3584,2.5635,122,1.0575,0,-5.186,-23.1465,25,0.7504,8181,3.9919,-148.5802
rg,1625583167873189067,1,0.241,-0.4597,0.9053,118,-18.0664,65.0024,6.6528,122,1.0595,0,-3.0271,-23.9497,25,0.7504,8235,3.9919,-149.3657
rg,1625583167873333708,1,0.2029,-0.4487,0.8821,119,-17.6392,72.2046,7.2021,122,1.0605,0,-0.263,-24.6418,25,0.7524,8268,3.9919,-150.5592
rg,1625583167873394716,1,-0.0256,-0.4482,0.8904,120,-10.8032,96.0693,-4.6387,122,1.0605,0,3.1974,-25.1941,25,0.7544,10875,3.9919,-152.3509
rg,1625583167873481590,1,-0.1741,-0.4763,0.8987,121,-8.606,91.4307,-7.9346,122,1.0615,0,6.7574,-25.8432,25,0.7564,8338,3.9919,-154.2333
rg,1625583167873529674,1,-0.2378,-0.5916,0.9912,122,-0.1221,52.4292,-8.4839,122,1.0635,0,8.6773,-26.2023,25,0.7594,8324,3.9919,-155.4947
rg,1625583167877388761,1,0.1189,-0.6838,0.9976,123,29.0527,18.4937,-6.3477,122,1.0665,0,8.672,-25.4486,25,0.7614,8327,3.9919,-156.1061
rg,1625583167877505167,1,0.4021,-0.7087,0.957,124,59.6313,38.9404,-11.5356,122,1.0685,0,8.8562,-23.6495,25,0.7624,8366,3.9919,-157.2678
rg,1625583167877576210,1,0.3364,-0.6414,0.9346,125,69.0308,62.8662,-20.2026,122,1.0695,0,9.8903,-21.5907,25,0.7614,8691,3.9919,-159.0888
rg,1625583167877634496,1,-0.0588,-0.5159,0.9075,126,68.6646,91.4917,-32.1655,122,1.0685,0,12.5863,-19.6665,25,0.7574,8924,3.9919,-161.6931
rg,1625583167877693801,1,-0.4548,-0.2659,0.8335,127,53.7109,75.4395,-27.5879,122,1.0715,0,15.6529,-17.9542,25,0.7544,8453,3.9919,-163.749
rg,1625583167877772787,1,-0.7878,-0.0981,0.7883,128,11.7798,13.916,-16.1743,122,1.0715,0,17.0921,-17.3932,25,0.7584,8489,3.9919,-164.474
rg,1625583168224945312,1,-0.0249,-0.4766,0.9768,129,-52.002,-154.1138,10.437,122,1.0725,0,10.7864,-19.2298,25,0.7654,25563,3.9919,-162.1604
rg,1625583168225052628,1,0.6953,-0.5425,0.9746,130,-62.1338,-121.3989,8.9111,122,1.0655,0,4.8519,-21.751,25,0.7564,13152,3.9919,-160.1353
rg,1625583168225104990,1,0.8801,-0.5239,1.0562,131,-31.8604,-46.814,3.3569,122,1.0635,0,1.6744,-23.1151,25,0.7594,10702,3.9919,-159.2895
rg,1625583168225155926,1,0.5859,-0.1909,0.8999,132,-4.2725,33.3862,-12.3291,122,1.0635,0,1.432,-22.9372,26,0.7594,7855,3.9919,-160.26
rg,1625583168225204381,1,0.1997,-0.324,0.8198,133,-2.3804,69.519,-13.3057,122,1.0615,0,3.2171,-23.0371,26,0.7594,7876,3.9919,-161.8388
rg,1625583168225253632,1,-0.0386,-0.2598,0.7913,134,5.0049,46.0815,-10.5591,122,1.0615,0,4.7217,-22.7159,26,0.7594,7925,3.9919,-162.938
rg,1625583168225298828,1,0.0933,-0.3945,0.8882,135,-3.2959,33.4473,-8.9722,122,1.0615,0,5.5525,-23.3336,26,0.7604,7934,3.9919,-163.763
rg,1625583168225345265,1,0.1069,-0.4438,0.9006,136,-16.9067,42.1753,-3.7842,122,1.0635,0,6.4556,-24.2193,25,0.7614,9580,3.9919,-164.5968
rg,1625583168225388832,1,0.2354,-0.4556,0.8882,137,-18.1274,46.2646,-2.0752,122,1.0605,0,7.3289,-25.1519,25,0.7614,7939,3.9919,-165.4606
rg,1625583168225433603,1,0.2471,-0.4414,0.8464,138,-17.0898,69.0308,-8.667,122,1.0675,0,8.8134,-26.1325,25,0.7644,7938,3.9919,-166.9914
rg,1625583168225476411,1,0.1064,-0.4141,0.8196,139,-18.1885,83.1299,-15.0146,122,1.0665,0,10.8963,-27.2297,25,0.7654,8009,3.9919,-169.0535
rg,1625583168225520829,1,-0.2043,-0.4915,0.8911,140,-22.4609,89.9048,-19.7144,122,1.0695,0,13.7037,-28.7034,25,0.7664,8033,3.9919,-171.5076
rg,1625583168225567933,1,-0.2932,-0.6968,1.0171,141,-12.2681,61.5845,-18.0054,122,1.0715,0,15.4755,-29.8893,25,0.7694,8025,3.9919,-173.4576
rg,1625583168225614888,1,-0.072,-0.7856,1.0283,142,24.1699,28.9307,-10.3149,122,1.0715,0,15.7911,-29.4856,25,0.7694,12162,3.9919,-174.5096
rg,1625583168225658733,1,0.3157,-0.7537,0.9919,143,59.4482,30.8228,-13.2446,122,1.0725,0,15.4853,-27.7164,25,0.7684,8174,3.9919,-175.7097
rg,1625583168225702429,1,0.3345,-0.7078,0.9736,144,68.4204,46.6309,-22.2778,122,1.0725,0,15.7122,-25.725,25,0.7654,8129,3.9919,-177.5031
rg,1625583168225745959,1,0.085,-0.5715,0.8997,145,73.3032,77.0264,-39.0625,122,1.0715,0,17.057,-23.8724,25,0.7614,8158,3.9919,-180.4191
rg,1625583168225787119,1,-0.2661,-0.397,0.8479,146,65.5518,76.8433,-42.6636,122,1.0725,0,19.1538,-22.2087,25,0.7584,8128,3.9919,-183.3527
rg,1625583168225884973,1,-0.4595,-0.2866,0.8474,147,54.5044,63.5986,-40.2832,122,1.0745,0,20.7579,-20.8786,25,0.7574,8498,3.9919,-185.2277
rg,1625583168225934114,1,-0.6875,-0.2808,0.9653,148,-10.1318,-53.3447,-19.5312,122,1.0755,0,19.0249,-21.1029,25,0.7594,8404,3.9919,-185.1281
rg,1625583168225977866,1,-0.5486,-0.3989,0.9678,149,-23.1323,-100.1587,-15.0757,122,1.0755,0,15.4278,-21.7874,25,0.7644,8425,3.9919,-184.1926
rg,1625583168226026302,1,-0.0776,-0.5486,1.0076,150,-39.3677,-160.1562,-3.6011,122,1.0765,0,9.0291,-23.1217,25,0.7674,8232,3.9919,-181.8878
rg,1625583168226070813,1,0.4714,-0.6123,0.9675,151,-44.8608,-166.4429,3.8452,122,1.0715,0,1.8675,-24.9685,25,0.7654,8421,3.9919,-179.0549
rg,1625583168226113510,1,0.6509,-0.5015,0.9224,152,-46.2036,-146.4844,0.3052,122,1.0655,0,-4.6752,-26.5204,25,0.7594,8291,3.9919,-176.4677
rg,1625583168226155929,1,1.0071,-0.4563,0.8894,153,-7.6904,-77.9419,1.2207,122,1.0635,0,-8.8968,-27.0121,25,0.7604,8317,3.9919,-175.0014
rg,1625583168226199144,1,0.6633,-0.0798,0.8633,154,5.249,17.395,-19.8975,122,1.0645,0,-9.7321,-25.9511,25,0.7624,8371,3.9919,-176.1567
rg,1625583168226270262,1,0.0146,-0.2727,0.7922,155,10.1929,58.5938,-22.0337,122,1.0645,0,-7.8446,-24.7481,26,0.7634,8333,3.9919,-177.7423
rg,1625583168226314163,1,0.0925,-0.1333,0.7612,156,10.0708,23.0713,-21.6675,122,1.0615,0,-7.3283,-23.604,26,0.7624,8528,3.9919,-179.0024
rg,1625583168226356082,1,0.1575,-0.3433,0.9026,157,-10.0098,37.1094,-7.5684,122,1.0625,0,-6.1711,-23.7843,26,0.7634,8849,3.9919,-179.8988
rg,1625583168226398186,1,0.2285,-0.3342,0.8479,158,-20.0195,47.4854,-0.6714,122,1.0655,0,-4.766,-24.4123,26,0.7644,8452,3.9919,-180.7137
rg,1625583168229857621,1,0.2808,-0.4077,0.8689,159,-24.1699,53.894,0.4272,122,1.0655,0,-2.8363,-25.4635,25,0.7654,8355,3.9919,-181.8126
rg,1625583168230047350,1,0.2153,-0.4685,0.8887,160,-30.6396,79.4067,-2.4414,122,1.0645,0,-0.4033,-26.7272,25,0.7654,8443,3.9919,-183.294
rg,1625583168576617074,1,-0.2864,-0.7122,0.9951,161,-16.8457,75.6836,-10.1318,122,1.0685,0,2.6224,-27.7662,25,0.7704,25915,3.9919,-185.0453
rg,1625583168576818985,1,-0.0974,-0.7871,1.0398,162,13.9771,35.4614,-9.4604,122,1.0715,0,3.1607,-26.8496,25,0.7734,12699,3.9919,-185.8415
rg,1625583168576878013,1,0.2427,-0.7192,0.9478,163,50.354,30.4565,-9.7656,122,1.0725,0,3.6865,-24.8368,25,0.7734,10257,3.9919,-187.3026
rg,1625583168576932170,1,0.2356,-0.6438,0.9021,164,69.0308,58.6548,-26.8555,122,1.0725,0,4.7818,-22.6343,25,0.7714,8822,3.9919,170.7237
rg,1625583168576979940,1,-0.1667,-0.4836,0.8523,165,69.5801,73.6084,-38.3301,122,1.0735,0,7.1405,-20.3869,25,0.7674,9615,3.9919,168.1845
rg,1625583168577028599,1,-0.5422,-0.2185,0.803,166,49.6826,42.2974,-31.6162,122,1.0735,0,9.2985,-18.48,25,0.7664,7877,3.9919,166.4502
rg,1625583168577076814,1,-0.6873,-0.1252,0.8059,167,29.2969,9.8267,-26.001,122,1.0745,0,9.081,-18.3578,25,0.7674,7827,3.9919,166.1341
rg,1625583168577126324,1,-0.6934,-0.408,0.9561,168,-22.7051,-80.4443,-16.0522,122,1.0755,0,6.783,-19.3571,25,0.7714,7911,4.0436,166.5424
rg,1625583168577172298,1,-0.1365,-0.5032,0.9336,169,-33.0811,-163.5742,-3.6011,89,1.0805,0,0.6425,-20.8846,25,0.7724,8450,4.0436,168.6246
rg,1625583168577220123,1,0.6135,-0.6272,0.9963,170,-38.6353,-185.9741,0.2441,89,1.0745,0,-7.0574,-23.0684,25,0.7744,8527,4.0436,171.4361
rg,1625583168577269152,1,0.8293,-0.6079,0.9805,171,-40.7715,-149.4751,2.9297,89,1.0685,0,-13.5182,-25.4405,25,0.7674,7924,4.0436,-185.8999
rg,1625583168577535091,1,0.8875,-0.5161,1.2004,172,-22.0337,-55.0537,-2.0142,89,1.0675,0,-16.3205,-26.478,25,0.7724,7998,4.0436,-184.9866
rg,1625583168580716793,1,0.6846,-0.1609,0.8538,173,17.6392,-14.5874,-0.1831,89,1.0685,0,-16.2643,-24.8341,25,0.7714,8134,4.0436,-186.1224
rg,1625583168580799058,1,0.3115,-0.3264,0.8032,174,13.4888,74.4629,-13.1836,89,1.0665,0,-13.9126,-23.7243,25,0.7704,8039,4.0436,-187.9254
rg,1625583168580878378,1,-0.0916,-0.1992,0.7693,175,21.9727,66.2842,-9.7046,89,1.0675,0,-10.8432,-22.1707,25,0.7724,8110,4.0436,170.5687
rg,1625583168580936535,1,0.1331,-0.3184,0.8562,176,18.1274,44.4336,-10.376,89,1.0685,0,-9.635,-21.5733,25,0.7734,8137,4.0436,169.7453
rg,1625583168580996248,1,0.2485,-0.363,0.874,177,3.9062,35.6445,-5.188,89,1.0675,0,-8.5873,-21.3353,25,0.7734,8156,4.0436,169.0247
rg,1625583168581048369,1,0.2969,-0.4597,0.9167,178,-0.3052,60.2417,-5.5542,89,1.0705,0,-6.7307,-21.399,25,0.7724,8342,4.0436,167.9571
rg,1625583168581099453,1,0.1182,-0.3958,0.8477,179,-0.6104,88.501,-9.7656,89,1.0715,0,-3.6082,-21.4108,25,0.7764,8166,4.0436,166.3077
rg,1625583168581147149,1,0.0093,-0.4272,0.894,180,-3.479,94.4214,-13.1226,89,1.0715,0,-0.1801,-21.6452,25,0.7774,8157,4.0436,164.4392
rg,1625583168581194030,1,-0.1982,-0.4658,0.908,181,-3.3569,84.4727,-16.6626,89,1.0745,0,3.1349,-22.0359,25,0.7804,8178,4.0436,162.56
rg,1625583168581374057,1,-0.2673,-0.5962,1.0129,182,1.2817,54.6875,-16.3574,89,1.0755,0,5.2858,-22.4102,25,0.7814,8255,4.0436,161.1026
rg,1625583168581496592,1,-0.1729,-0.7139,1.0615,183,13.3057,37.7197,-15.686,89,1.0765,0,6.5336,-22.4441,25,0.7814,8285,4.0436,159.8981
rg,1625583168581550731,1,0.2039,-0.7144,1.0183,184,47.1191,18.3716,-8.5449,89,1.0755,0,6.4733,-21.1191,25,0.7794,8315,4.0436,159.2398
rg,1625583168581600149,1,0.3093,-0.5999,0.9465,185,61.3403,46.1426,-24.1699,89,1.0735,0,7.023,-19.2822,25,0.7754,9500,4.0436,157.62
rg,1625583168581646049,1,-0.0972,-0.449,0.9036,186,56.8237,73.3032,-35.7666,89,1.0745,0,9.281,-17.6225,25,0.7704,8346,4.0436,155.2746
rg,1625583168581694560,1,-0.5413,-0.2156,0.845,187,39.4897,49.3164,-29.6631,89,1.0765,0,11.6821,-16.245,25,0.7714,8376,4.0436,153.5656
rg,1625583168581741756,1,-0.6934,-0.0981,0.8411,188,19.043,16.7236,-22.7661,89,1.0765,0,13.1018,-15.627,25,0.7724,8367,4.0436,152.5057
rg,1625583168581786119,1,-0.6426,-0.4111,1.0049,189,-28.6255,-78.4912,-14.4043,89,1.0765,0,10.6194,-16.9269,25,0.7744,8479,4.0436,152.7838
rg,1625583168581836055,1,-0.1194,-0.4873,0.9856,190,-44.3115,-153.9917,-2.2583,89,1.0785,0,4.5847,-18.8181,25,0.7754,8451,4.0436,154.5422
rg,1625583168581886158,1,0.5376,-0.6865,1.0503,191,-53.7109,-164.7949,-0.3052,89,1.0735,0,-2.627,-21.433,25,0.7764,8399,4.0436,156.7826
rg,1625583168581935872,1,0.6963,-0.6084,0.9785,192,-49.6216,-135.7422,-1.5869,89,1.0715,0,-8.7162,-23.9627,25,0.7744,8463,4.0436,158.8712
rg,1625583168941988840,1,0.1213,-0.3914,0.835,193,14.4043,71.6553,-22.4609,89,1.0685,0,-6.4085,-23.166,25,0.7744,25340,4.0436,156.8884
rg,1625583168942068531,1,0,-0.144,0.6992,194,22.1558,31.7993,-20.0806,89,1.0675,0,-5.6019,-21.9636,25,0.7764,9566,4.0436,155.6287
rg,1625583168942120670,1,0.2131,-0.4353,0.9353,195,-0.4883,30.8228,-13.9771,89,1.0685,0,-4.5542,-22.0924,25,0.7774,10433,4.0436,154.6067
rg,1625583168942171792,1,0.2693,-0.4478,0.9062,196,0.061,52.4292,-9.8877,89,1.0695,0,-3.1755,-22.1671,25,0.7784,7802,4.0436,153.4577
rg,1625583168942220784,1,0.2539,-0.4575,0.886,197,1.2817,76.7212,-11.1694,89,1.0725,0,-0.9512,-22.2508,25,0.7804,7989,4.0436,151.8905
rg,1625583168942268017,1,0.1738,-0.4255,0.8706,198,1.9531,88.4399,-13.1836,89,1.0735,0,1.7461,-22.3276,25,0.7814,7841,4.0436,150.0596
rg,1625583168942312898,1,-0.1145,-0.3525,0.8555,199,0,101.9897,-19.9585,89,1.0755,0,5.4072,-22.4677,25,0.7834,7846,4.0436,147.7596
rg,1625583168942358650,1,-0.3623,-0.5022,0.9622,200,-6.958,80.3223,-20.0806,89,1.0755,0,8.5561,-23.1756,25,0.7844,9681,4.0436,145.7353
rg,1625583168942402717,1,-0.2959,-0.5496,1.012,201,3.2349,33.5693,-14.8315,89,1.0785,0,9.7801,-23.421,25,0.7864,8101,4.0436,144.6137
rg,1625583168942516846,1,-0.1096,-0.6438,1.0369,202,13.1226,14.6484,-14.7705,89,1.0785,0,9.1711,-22.8406,25,0.7844,8544,4.0436,144.0128
rg,1625583168942573744,1,0.3005,-0.6665,1.0303,203,41.8701,10.376,-13.3057,89,1.0765,-0.001,8.4734,-21.657,25,0.7814,8016,4.0436,143.283
rg,1625583168942619404,1,0.1462,-0.5508,0.9714,204,48.8892,44.4336,-28.1982,89,1.0775,-0.001,9.1017,-20.2774,25,0.7784,7853,4.0436,141.5182
rg,1625583168942662248,1,-0.2312,-0.3484,0.8916,205,45.4712,47.3633,-31.189,89,1.0775,-0.001,10.6371,-18.8152,25,0.7764,7875,4.0436,139.677
rg,1625583168942708463,1,-0.4004,-0.2473,0.8765,206,34.9731,32.959,-29.2969,89,1.0765,0,12.0291,-17.6078,25,0.7744,8081,4.0436,138.1486
rg,1625583168942752345,1,-0.5452,-0.2661,0.9092,207,4.0283,-32.959,-19.8364,89,1.0795,0,11.2319,-17.4712,25,0.7744,8176,4.0436,137.7954
rg,1625583168942798597,1,-0.3113,-0.4021,0.9868,208,-31.311,-105.4077,-7.1411,89,1.0805,0,7.3504,-18.7259,25,0.7804,8102,4.0436,138.8147
rg,1625583168942842904,1,-0.1028,-0.5107,0.9609,209,-41.3208,-129.0283,-2.9907,89,1.0775,0,2.3959,-20.5945,25,0.7814,8098,4.0436,140.4028
rg,1625583168942884990,1,0.3279,-0.6201,1.0117,210,-50.354,-142.395,2.6855,89,1.0695,0,-3.5184,-23.0317,25,0.7744,8136,4.0436,142.6187
rg,1625583168942927057,1,0.6331,-0.5176,1.1038,211,-44.4336,-113.7695,2.9297,89,1.0665,0,-8.5241,-25.0802,25,0.7744,12339,4.0436,144.6147
rg,1625583168942969680,1,1.1328,-0.6042,0.6672,212,21.9727,-59.3262,3.9673,89,1.0655,0,-12.153,-24.829,25,0.7744,9268,4.0436,145.8379
rg,1625583168943011580,1,0.436,-0.2644,0.7725,213,20.2637,57.8003,-15.2588,89,1.0645,0,-10.9246,-23.495,25,0.7754,8248,4.0436,144.2464
rg,1625583168943053796,1,-0.021,-0.1418,0.7188,214,24.9023,52.6123,-17.0288,89,1.0645,0,-8.7649,-21.7564,25,0.7754,8237,4.0436,142.6977
rg,1625583168943097215,1,0.0427,-0.1729,0.7617,215,13.4888,35.4614,-15.564,89,1.0645,0,-7.6452,-21.0157,25,0.7764,8405,4.0436,141.5814
rg,1625583168943141300,1,0.1958,-0.3677,0.8943,216,-0.1831,39.0625,-6.4087,89,1.0645,0,-6.4322,-20.9708,25,0.7764,8437,4.0436,140.7806
rg,1625583168943482911,1,0.2092,-0.3896,0.8821,217,-5.9204,58.8379,-5.5542,89,1.0675,0,-4.5529,-21.2111,25,0.7794,8259,4.0436,139.7312
rg,1625583168943532329,1,0.0903,-0.4128,0.9072,218,-9.0332,74.5239,-4.8828,89,1.0685,0,-1.8841,-21.6226,25,0.7814,8326,4.0436,138.4659
rg,1625583168943574840,1,0.0305,-0.4792,0.9448,219,-9.0942,77.0264,-5.7373,89,1.0695,0,0.8868,-22.1762,25,0.7844,8339,4.0436,137.1074
rg,1625583168943617741,1,-0.075,-0.5532,0.9993,220,-2.2583,67.9932,-7.2021,89,1.0685,0,3.3953,-22.5771,25,0.7844,8327,4.0436,135.7976
rg,1625583168943689544,1,-0.0776,-0.6228,1.0317,221,15.4419,46.3257,-11.1084,89,1.0725,0,4.9431,-22.3739,25,0.7864,8429,4.0436,134.654
rg,1625583168943734314,1,0.1765,-0.6638,0.998,222,45.2881,29.6631,-8.0566,89,1.0745,0,5.4026,-21.0695,25,0.7854,10338,4.0436,133.8669
rg,1625583168943776900,1,0.3418,-0.605,0.957,223,60.3027,50.2319,-20.0195,89,1.0755,0,6.1524,-19.2326,25,0.7844,8413,4.0436,132.3592
rg,1625583168943819560,1,-0.0173,-0.5054,0.9194,224,60.1807,67.9932,-31.9214,89,1.0735,0,8.4117,-17.486,25,0.7814,8505,4.0436,129.9143
rg,1625583169293532762,1,-0.7698,-0.123,0.8228,225,1.6479,-0.9155,-16.9678,89,1.0765,0,9.4558,-17.2531,25,0.7774,25264,4.0436,129.3132
rg,1625583169293612213,1,-0.1865,-0.4558,0.9324,226,-36.438,-104.8584,-6.897,89,1.0775,-0.001,4.2472,-18.9758,25,0.7834,9405,4.0436,131.0018
rg,1625583169293664409,1,0.3828,-0.5942,1.021,227,-51.4526,-151.2451,8.9722,89,1.0755,0,-2.132,-21.3968,25,0.7834,10388,4.0436,133.4146
rg,1625583169293714234,1,0.5964,-0.5571,0.9709,228,-51.8188,-137.2681,8.0566,89,1.0715,0,-8.0373,-23.9688,25,0.7804,7868,4.0436,135.8734
rg,1625583169293763357,1,1.041,-0.6069,0.8752,229,-9.3384,-73.4863,9.0942,89,1.0705,0,-11.8944,-24.9174,25,0.7814,9612,4.0436,137.4996
rg,1625583169293810886,1,0.6997,-0.1934,0.8672,230,5.4321,29.0527,-11.2915,89,1.0695,0,-12.0403,-24.1144,25,0.7814,7894,4.0436,136.4942
rg,1625583169293857805,1,0.25,-0.2825,0.8208,231,15.0757,74.2188,-13.3057,89,1.0675,0,-9.197,-22.8717,25,0.7814,7863,4.0436,134.7256
rg,1625583169293902576,1,-0.0161,-0.2959,0.8494,232,-2.8687,53.5889,-15.9912,89,1.0665,0,-7.0714,-22.6309,25,0.7814,11137,4.0436,133.267
rg,1625583169293985841,1,-0.0442,-0.3157,0.8853,233,-8.5449,52.9175,-11.9629,89,1.0665,0,-4.9246,-22.7141,25,0.7824,8015,4.0436,131.9852
rg,1625583169294032575,1,0.0923,-0.313,0.8684,234,-20.1416,42.5415,-10.2539,89,1.0675,0,-3.5551,-23.3196,25,0.7834,7961,4.0436,130.9274
rg,1625583169294081845,1,0.145,-0.5088,0.9663,235,-24.231,48.4009,-10.9863,89,1.0685,0,-2.1275,-24.3957,25,0.7854,8030,4.0436,129.7508
rg,1625583169294126764,1,0.1084,-0.606,1.0137,236,-19.8364,56.2744,-12.6953,89,1.0695,0,-0.4311,-25.4037,25,0.7874,8016,4.0436,128.35
rg,1625583169294168461,1,0.0435,-0.6921,1.051,237,-0.6104,53.2837,-14.2212,89,1.0715,0,1.1769,-25.7446,25,0.7884,8596,4.0436,126.917
rg,1625583169294212454,1,0.0315,-0.7039,1.0208,238,27.2827,45.5933,-19.2261,89,1.0745,0,2.3841,-25.0445,25,0.7904,8795,4.0436,125.4299
rg,1625583169294294201,1,0.2083,-0.6055,0.9399,239,58.2886,40.9546,-18.4326,89,1.0765,0,3.0661,-23.0792,25,0.7904,9861,4.0436,124.064
rg,1625583169294344175,1,0.1702,-0.46,0.8738,240,62.8662,49.0112,-22.7051,89,1.0775,0,4.7216,-20.8726,25,0.7884,8118,4.0436,122.0725
rg,1625583169294389613,1,-0.3184,-0.1838,0.793,241,41.4429,54.0771,-32.5317,89,1.0755,0,6.9502,-19.1259,25,0.7864,8186,4.0436,120.1339
rg,1625583169294433106,1,-0.6958,-0.3501,0.9082,242,-17.0288,1.5259,-22.3999,89,1.0815,0,7.7914,-19.9768,25,0.7894,8165,4.0436,119.248
rg,1625583169294481802,1,-0.4473,-0.6025,1.0085,243,-31.6772,-48.7671,-18.7378,89,1.0795,0,4.4994,-21.6694,25,0.7904,8236,4.0436,120.0956
rg,1625583169294525388,1,-0.1121,-0.5474,0.9712,244,-34.668,-135.1929,-8.4229,89,1.0765,0,-0.5536,-23.2893,25,0.7904,8225,4.0436,121.8334
rg,1625583169294572825,1,0.5085,-0.646,1.0405,245,-28.9307,-145.2637,-1.8921,89,1.0765,0,-6.7099,-24.8953,25,0.7884,8187,4.0436,124.1582
rg,1625583169294617485,1,1.0322,-0.6599,0.7769,246,26.7334,-86.9751,8.7891,89,1.0745,0,-11.13,-24.5316,25,0.7904,8430,4.0436,126.0003
rg,1625583169294665996,1,0.9512,-0.3521,0.8359,247,33.0811,-39.7339,-2.4414,89,1.0735,0,-13.9204,-23.28,25,0.7904,8317,4.0436,126.5439
rg,1625583169294710471,1,0.1741,-0.2932,0.7473,248,42.9077,49.1333,-11.6577,89,1.0685,0,-12.2154,-21.2168,25,0.7894,8321,4.0436,125.3168
rg,1625583169294756593,1,-0.0149,-0.1392,0.6758,249,39.4897,19.8364,-9.0332,89,1.0715,0,-11.0732,-19.1273,25,0.7904,8345,4.0436,124.6174
rg,1625583169294798939,1,0.2466,-0.231,0.7427,250,32.7759,2.9907,-8.4839,89,1.0715,0,-11.547,-17.8621,25,0.7904,8336,4.0436,124.4463
rg,1625583169294842839,1,0.3774,-0.2429,0.7637,251,23.6816,2.3193,-3.418,89,1.0705,0,-12.0327,-16.8714,25,0.7894,8398,4.0436,124.2768
rg,1625583169294885796,1,0.3555,-0.2776,0.7744,252,16.8457,37.0483,-3.479,89,1.0715,0,-11.1005,-16.1868,25,0.7904,8349,4.0436,123.727
rg,1625583169294929567,1,0.1199,-0.2725,0.7808,253,9.6436,58.6548,-4.9438,89,1.0725,0,-8.7931,-15.7726,25,0.7914,8446,4.0436,122.8995
rg,1625583169295473169,1,0.071,-0.3174,0.832,254,6.1646,56.2744,-3.3569,89,1.0725,0,-6.4777,-15.6551,25,0.7934,8407,4.0436,122.1876
rg,1625583169295539363,1,0.0447,-0.3518,0.8545,255,4.7607,47.1191,-2.8687,89,1.0735,0,-4.554,-15.6679,25,0.7944,8420,4.0436,121.5939
rg,1625583169295587874,1,0.0076,-0.4556,0.9014,256,6.5918,38.8794,-1.0986,89,1.0765,0,-2.9138,-15.8096,25,0.7924,8486,4.0436,121.1622
rg,1625583169650506449,1,0.269,-0.5449,0.917,257,40.7715,21.9727,-3.2349,89,1.0775,0,-2.4955,-14.2354,25,0.7954,23565,4.0436,120.8167
rg,1625583169650624301,1,0.2883,-0.5002,0.8892,258,70.0073,37.9028,-16.1743,89,1.0775,0,-1.6954,-11.9751,25,0.7904,12291,4.0436,119.8554
rg,1625583169650681441,1,0.0908,-0.4067,0.8401,259,78.6133,45.5322,-27.771,89,1.0775,0,-0.2724,-9.3547,25,0.7864,10239,4.0436,118.4385
rg,1625583169650734359,1,-0.051,-0.3401,0.7837,260,80.4443,29.2358,-31.1279,89,1.0765,0,0.8528,-6.704,25,0.7814,7792,4.0436,117.0484
rg,1625583169650782388,1,-0.0786,-0.2896,0.7798,261,80.0781,14.8315,-30.7007,89,1.0765,0,1.5064,-4.0696,25,0.7774,7774,4.0436,115.7663
rg,1625583169650831307,1,-0.0625,-0.2314,0.7517,262,76.4771,-15.8691,-24.4141,89,1.0765,0,0.9482,-1.55,25,0.7744,7821,4.0436,114.8114
rg,1625583169650878725,1,0.0249,-0.2373,0.7661,263,73.6084,-29.1748,-21.7285,89,1.0765,0,-0.8238,0.7874,25,0.7724,7805,4.0436,114.1536
rg,1625583169650927940,1,0.0896,-0.2251,0.7747,264,74.3408,-51.3916,-13.1226,89,1.0755,0,-3.0717,3.1128,25,0.7694,8757,4.0436,113.5639
rg,1625583169650972915,1,0.2239,-0.2209,0.7781,265,78.9795,-62.7441,-6.7749,89,1.0785,0,-6.0366,5.5861,25,0.7694,7955,4.0436,113.1294
rg,1625583169651019037,1,0.343,-0.2085,0.7717,266,85.5103,-63.4155,-1.2207,89,1.0785,0,-9.2224,8.2999,25,0.7694,7874,4.0436,112.8331
rg,1625583169651064086,1,0.385,-0.1873,0.7644,267,89.9658,-59.5093,1.3428,89,1.0775,0,-12.2492,11.1747,25,0.7694,7868,4.0436,112.5852
rg,1625583169651113227,1,0.4148,-0.136,0.7322,268,95.7031,-45.5933,4.9438,89,1.0795,0,-14.7521,14.2883,25,0.7694,7912,4.0436,112.5118
rg,1625583169651157535,1,0.4084,-0.095,0.7175,269,97.7173,-38.5742,7.5684,89,1.0805,0,-16.6445,17.5052,25,0.7704,7945,4.0436,112.742
rg,1625583169651203528,1,0.4041,-0.061,0.7051,270,100.5249,-23.7427,11.9629,89,1.0795,0,-18.2512,20.68,25,0.7704,7968,4.0436,113.1024
rg,1625583169652760049,1,0.3691,-0.0488,0.6968,271,101.8677,-13.7329,17.4561,89,1.0815,0,-19.4588,23.7046,25,0.7724,8028,4.0436,113.8347
rg,1625583169652880752,1,0.3718,-0.0288,0.707,272,101.6235,-8.667,20.9351,89,1.0815,0,-20.3513,26.6965,25,0.7734,8035,4.0436,114.9134
rg,1625583169652943965,1,0.3594,0.0264,0.6736,273,104.3091,0.9155,22.4609,89,1.0805,0,-21.1123,29.6591,25,0.7724,8077,4.0436,116.0815
rg,1625583169652999938,1,0.3325,0.0579,0.6738,274,103.5156,8.4229,26.4282,89,1.0825,0,-21.6404,32.4427,25,0.7734,8054,4.0436,117.569
rg,1625583169653052948,1,0.2896,0.0396,0.6985,275,102.7832,10.8643,27.0386,89,1.0835,0,-22.0342,34.9062,25,0.7724,8196,4.0436,119.267
rg,1625583169653105366,1,0.2839,0.0261,0.7141,276,102.9663,11.2305,29.9683,89,1.0815,0,-22.4951,37.2646,25,0.7734,8126,4.0436,121.067
rg,1625583169653152415,1,0.2771,0.0027,0.7336,277,104.9194,7.9346,32.7759,89,1.0815,0,-23.1599,39.5373,25,0.7734,10360,4.0436,122.9314
rg,1625583169653330832,1,0.2749,-0.0359,0.772,278,112.0605,3.2349,35.6445,89,1.0845,0,-24.0763,41.9213,25,0.7734,8180,4.0436,124.824
rg,1625583169653388286,1,0.2847,-0.0645,0.8169,279,125.2441,-0.061,39.3677,89,1.0835,0,-25.2457,44.6175,25,0.7734,13084,4.0436,126.8082
rg,1625583169653442259,1,0.3181,-0.1187,0.8909,280,134.6436,-0.5493,47.2412,89,1.0835,0,-26.7597,47.4649,25,0.7734,8214,4.0436,129.0554
rg,1625583169653491733,1,0.3438,-0.1133,0.9077,281,162.1094,3.9062,53.833,89,1.0835,0,-28.4687,51.1722,25,0.7734,8220,4.0436,131.6523
rg,1625583169653542114,1,0.3411,-0.0559,0.8733,282,183.6548,7.6904,57.6172,89,1.0835,0,-30.3044,55.5875,25,0.7744,8511,4.0436,134.4583
rg,1625583169653590514,1,0.3352,-0.0139,0.8547,283,196.8384,8.4839,60.6079,89,1.0845,0,-32.3382,60.4057,25,0.7744,8365,4.0436,137.3392
rg,1625583169653638877,1,0.3137,0.1333,0.7751,284,219.7876,7.5684,61.8286,89,1.0825,0,-34.4442,66.2956,25,0.7734,9575,4.0436,140.0387
rg,1625583169653687277,1,0.3342,0.2537,0.7441,285,221.1304,6.6528,64.5142,89,1.0855,0,-36.7317,72.3729,25,0.7734,8372,4.0436,142.5418
rg,1625583169653790835,1,0.3789,0.3591,0.7373,286,220.8862,12.3291,67.8101,89,1.0855,0,-39.1766,78.3603,25,0.7754,8406,4.0436,145.157
rg,1625583169653842920,1,0.3899,0.4216,0.7451,287,214.9658,16.4185,68.3594,94,1.0855,0,-41.5649,83.4615,25,0.7754,8412,4.0458,148.0899
rg,1625583169653978270,1,0.3904,0.4468,0.7585,288,199.8291,23.9868,65.918,94,1.0845,0,-44.0124,88.0836,25,0.7744,8513,4.0458,151.1707
rg,1625583170005746975,1,0.3452,0.4724,0.7935,289,171.2646,31.3721,54.4434,94,1.0855,0,-45.9764,91.0808,25,0.7754,24980,4.0458,154.7492
rg,1625583170005838387,1,0.3813,0.4185,0.9385,290,169.1895,32.2266,52.5513,94,1.0855,0,-48.2239,93.6089,25,0.7764,11773,4.0458,158.6176
rg,1625583170005889694,1,0.4683,0.3979,1.0222,291,178.4668,43.8843,52.063,94,1.0855,0,-50.5857,95.7963,25,0.7754,7978,4.0458,163.3441
rg,1625583170005939835,1,0.4663,0.4829,1.0112,292,192.688,66.1621,49.3774,94,1.0865,0,-52.8723,97.2018,25,0.7754,7870,4.0458,169.7216
rg,1625583170005987050,1,0.47,0.4998,1.0198,293,195.3125,77.8809,46.9971,94,1.0855,0,-55.1516,97.3084,26,0.7754,7924,4.0458,-182.0097
rg,1625583170006032635,1,0.4646,0.5994,0.9773,294,204.3457,101.6846,47.0581,94,1.0865,0,-57.2701,96.2151,26,0.7754,9052,4.0458,-172.255
rg,1625583170006078499,1,0.3164,0.7925,0.8433,295,198.8525,130.4321,44.8608,94,1.0865,0,-58.6528,92.6678,26,0.7754,9081,4.0458,-159.8885
rg,1625583170006125565,1,0.1277,0.9497,0.7532,296,173.8281,144.6533,45.6543,94,1.0885,0,-59.1025,87.0896,26,0.7754,8474,4.0458,-146.2376
rg,1625583170006169892,1,-0.0029,1.0327,0.7227,297,133.2397,137.6343,45.166,94,1.0875,0,-58.6297,80.6899,25,0.7764,7956,4.0458,-133.3275
rg,1625583170006216274,1,-0.0574,1.0557,0.7156,298,113.4033,131.1035,45.0439,94,1.0865,0,-57.4487,74.6115,25,0.7764,8021,4.0458,-121.4479
rg,1625583170006262748,1,-0.1184,1.0574,0.7461,299,67.2607,111.6943,48.2788,94,1.0865,0,-55.9617,68.5685,25,0.7774,8019,4.0458,-111.5238
rg,1625583170006307482,1,-0.1328,0.947,0.8518,300,32.1655,92.6514,53.833,94,1.0865,0,-54.4923,62.393,25,0.7784,8056,4.0458,-102.9941
rg,1625583170006354290,1,-0.1604,0.8743,0.9055,301,12.4512,77.0874,54.3823,94,1.0875,0,-52.8919,56.6477,25,0.7784,12044,4.0458,-95.7661
rg,1625583170006402393,1,-0.1443,0.748,1.0303,302,1.8311,63.1104,57.4341,94,1.0875,0,-51.4112,51.128,25,0.7784,8053,4.0458,-89.295
rg,1625583170006485955,1,-0.1204,0.6814,1.1062,303,2.9297,59.021,59.3872,94,1.0875,0,-49.8252,46.0467,25,0.7784,8133,4.0458,-83.1803
rg,1625583170006536836,1,-0.1182,0.6379,1.2229,304,15.8691,55.8472,58.96,94,1.0875,0,-48.0841,41.8991,25,0.7784,9764,4.0458,-77.4571
rg,1625583170006582940,1,0.1235,0.6094,1.3145,305,31.5552,57.6782,56.0303,94,1.0865,0,-46.2912,38.7433,25,0.7784,8185,4.0458,-72.0453
rg,1625583170006628600,1,0.1052,0.6765,1.3835,306,42.7856,99.8535,52.9785,94,1.0875,0,-42.9148,35.7176,25,0.7774,8345,4.0458,-65.7977
rg,1625583170006671778,1,-0.1663,0.6833,1.1968,307,57.4341,125.4883,38.4521,94,1.0885,0,-37.9823,34.1752,25,0.7784,8216,4.0458,-60.1596
rg,1625583170006716049,1,-0.3252,0.7566,1.1067,308,58.96,132.019,31.189,94,1.0865,0,-32.5476,33.7113,25,0.7784,8234,4.0458,-55.2817
rg,1625583170006759913,1,-0.5945,0.8567,0.9768,309,50.0488,109.0088,21.5454,94,1.0845,0,-27.5352,34.1848,25,0.7794,8299,4.0458,-51.7958
rg,1625583170006802721,1,-0.8105,0.9304,0.9045,310,29.1138,75.2563,22.8882,94,1.0885,0,-23.6443,34.5901,25,0.7814,8205,4.0458,-49.2618
rg,1625583170006873155,1,-0.8555,0.9099,0.8652,311,17.8223,35.0342,21.1182,94,1.0885,0,-22.1221,34.8572,25,0.7804,8230,4.0458,-48.4316
rg,1625583170007046425,1,-0.8323,0.8511,0.8735,312,-7.5684,-24.8413,28.4424,94,1.0875,0,-21.6995,34.7333,26,0.7804,8245,4.0458,-48.1676
rg,1625583170007116340,1,-0.4407,0.6943,1.0271,313,-18.1274,-95.8252,30.0293,94,1.0875,0,-24.0199,34.4789,26,0.7794,8742,4.0458,-49.4594
rg,1625583170007171720,1,-0.1172,0.5901,1.1931,314,-10.498,-104.9805,30.8838,94,1.0895,0,-27.0654,34.3446,26,0.7814,8326,4.0458,-50.824
rg,1625583170007224342,1,-0.241,0.4641,1.3604,315,12.6343,-72.1436,23.6206,94,1.0895,0,-28.6465,34.6141,26,0.7814,8473,4.0458,-51.4826
rg,1625583170007272594,1,-0.4243,0.4092,1.4246,316,30.7007,-59.6924,20.1416,94,1.0875,0,-29.5137,35.425,25,0.7804,8409,4.0458,-51.9036
rg,1625583170007316902,1,-0.7571,0.3826,1.4385,317,74.585,-59.7534,20.6909,94,1.0845,0,-30.0922,37.9909,25,0.7804,8445,4.0458,-52.3386
rg,1625583170007360321,1,-0.8464,0.5364,1.2534,318,111.5112,-94.1772,26.2451,94,1.0885,0,-31.6636,42.7895,25,0.7814,8485,4.0458,-53.8757
rg,1625583170007480728,1,-0.4731,0.6921,1.0605,319,130.0659,-141.9678,20.813,94,1.0905,0,-34.3927,49.7672,25,0.7804,8568,4.0458,-57.744
rg,1625583170007526647,1,-0.2524,0.8005,0.9558,320,132.0801,-157.4097,12.2681,94,1.0895,0,-36.8744,57.919,25,0.7804,8580,4.0458,-63.2501
rg,1625583170362810178,1,0.1052,0.9753,0.7502,321,60.2417,-116.272,-47.3633,94,1.0895,0,-36.2742,63.7031,25,0.7794,24979,4.0458,-69.2213
rg,1625583170362895518,1,0.1692,0.8623,0.7659,322,29.0527,-105.7739,-57.1899,94,1.0895,0,-35.1109,67.2589,25,0.7804,16917,4.0458,-74.7168
rg,1625583170362949306,1,0.3604,0.812,0.7678,323,13.0615,-104.7363,-59.5703,94,1.0895,0,-33.813,70.1111,25,0.7804,8543,4.0458,-79.9414
rg,1625583170362998540,1,0.5264,0.7563,0.752,324,2.8076,-83.4351,-59.5093,94,1.0895,0,-32.4545,71.7516,25,0.7804,8506,4.0458,-84.0488
rg,1625583170363046311,1,0.6001,0.7278,0.7249,325,-3.0518,-53.3447,-61.7676,94,1.0905,0,-30.7847,72.3026,25,0.7794,8157,4.0458,-86.7559
rg,1625583170363092915,1,0.6079,0.7224,0.7092,326,-4.1504,-39.856,-63.1714,94,1.0905,0,-29.0146,72.4568,25,0.7794,8179,4.0458,-88.8714
rg,1625583170363138853,1,0.6594,0.7366,0.6772,327,-5.127,-20.4468,-65.2466,94,1.0895,0,-27.0359,72.163,25,0.7784,8973,4.0458,-90.1906
rg,1625583170363184680,1,0.7034,0.7454,0.6462,328,-5.9814,0.061,-63.9648,94,1.0915,0,-25.0072,71.488,25,0.7784,9036,4.0458,-90.6865
rg,1625583170363231951,1,0.5823,0.7212,0.645,329,-8.606,33.0811,-61.7065,94,1.0915,0,-22.5528,70.0903,25,0.7794,8164,4.0458,-89.8279
rg,1625583170363278889,1,0.3984,0.6938,0.6382,330,-7.6294,47.3022,-56.6406,94,1.0915,0,-19.8486,68.5254,25,0.7774,10809,4.0458,-88.436
rg,1625583170363323382,1,0.335,0.6907,0.6367,331,-6.6528,46.2036,-52.5513,94,1.0925,0,-17.5956,67.2026,25,0.7794,8245,4.0458,-87.2855
rg,1625583170363367468,1,0.3374,0.6941,0.6484,332,-3.9062,35.6445,-41.9922,94,1.0905,0,-15.6112,66.0656,25,0.7784,8282,4.0458,-86.3663
rg,1625583170363410536,1,0.3384,0.6841,0.6467,333,-0.061,33.1421,-32.6538,94,1.0905,0,-14.0762,65.1341,25,0.7754,8131,4.0458,-85.4641
rg,1625583170363452938,1,0.2832,0.6753,0.6543,334,2.3193,32.1655,-28.8086,94,1.0915,0,-12.7167,64.4317,25,0.7794,7914,4.0458,-84.4857
rg,1625583170363496857,1,0.2468,0.6719,0.6626,335,7.9346,32.7148,-21.7285,94,1.0905,0,-11.4716,63.8299,25,0.7774,8786,4.0458,-83.4987
rg,1625583170363540444,1,0.2158,0.6675,0.6643,336,14.7095,26.7334,-16.2964,94,1.0915,0,-10.4972,63.5503,25,0.7784,8742,4.0458,-82.6652
rg,1625583170363584845,1,0.1951,0.6614,0.6731,337,23.1934,21.9727,-13.5498,94,1.0925,0,-9.6931,63.6276,25,0.7794,8036,4.0458,-81.9698
rg,1625583170363626913,1,0.1824,0.6765,0.6709,338,26.8555,19.104,-11.8408,94,1.0925,0,-9.0483,64.052,25,0.7784,8426,4.0458,-81.4022
rg,1625583170363669203,1,0.1636,0.6895,0.6799,339,34.2407,17.5781,-10.498,94,1.0905,0,-8.4081,64.6113,25,0.7784,8816,4.0458,-80.8261
rg,1625583170363711364,1,0.1836,0.7097,0.6763,340,40.3442,12.8174,-10.498,94,1.0935,0,-7.917,65.4619,25,0.7784,8080,4.0458,-80.4282
rg,1625583170363752765,1,0.1943,0.7295,0.6787,341,45.3491,13.2446,-10.7422,94,1.0925,0,-7.451,66.507,26,0.7784,8123,4.0458,-80.0149
rg,1625583170363936961,1,0.1892,0.7485,0.6772,342,48.0347,12.4512,-12.2681,94,1.0925,0,-6.9245,67.7627,26,0.7784,8856,4.0458,-79.6505
rg,1625583170363985546,1,0.2075,0.7612,0.6768,343,49.9878,11.7188,-14.1602,94,1.0915,0,-6.4255,68.9734,26,0.7774,8168,4.0458,-79.3291
rg,1625583170364030355,1,0.1965,0.8018,0.6577,344,52.2461,13.9771,-14.6484,94,1.0935,0,-5.8687,70.3043,26,0.7784,8329,4.0458,-78.9249
rg,1625583170364072256,1,0.199,0.8289,0.6375,345,49.1333,15.686,-14.7095,94,1.0925,0,-5.3168,71.5244,25,0.7784,8611,4.0458,-78.4492
rg,1625583170364114361,1,0.197,0.8423,0.6418,346,46.3867,16.7236,-14.2212,94,1.0925,0,-4.7811,72.522,25,0.7784,9112,4.0458,-77.9455
rg,1625583170364157151,1,0.2036,0.8569,0.6438,347,40.6494,14.6484,-14.5874,94,1.0925,0,-4.3024,73.354,25,0.7774,8317,4.0458,-77.4902
rg,1625583170364199164,1,0.2346,0.8701,0.6372,348,33.5083,13.9771,-13.855,94,1.0935,0,-3.9414,73.9038,25,0.7744,8413,4.0458,-77.0498
rg,1625583170364240991,1,0.2449,0.865,0.646,349,25.9399,17.0898,-13.2446,94,1.0925,0,-3.6066,74.107,26,0.7754,9353,4.0458,-76.4794
rg,1625583170364282689,1,0.2336,0.8408,0.668,350,19.2261,18.7988,-12.7563,94,1.0935,0,-3.2665,73.97,26,0.7764,9872,4.0458,-75.8369
rg,1625583170364324887,1,0.2266,0.8259,0.6697,351,16.4795,18.4937,-12.6343,94,1.0935,0,-2.9848,73.6245,26,0.7774,8570,4.0458,-75.2352
rg,1625583170364380416,1,0.2217,0.8149,0.6765,352,11.7798,17.2729,-10.8643,94,1.0915,0,-2.7331,73.1703,25,0.7764,8489,4.0458,-74.645
rg,1625583170721721890,1,0.2,0.7893,0.6687,353,8.667,15.1367,-8.3008,94,1.0925,0,-2.5736,72.5896,25,0.7764,25453,4.0458,-74.1158
rg,1625583170721786696,1,0.189,0.7671,0.6614,354,6.7139,11.2305,-7.5684,94,1.0925,0,-2.4747,71.9409,26,0.7764,14970,4.0458,-73.7349
rg,1625583170721810859,1,0.1904,0.7739,0.6589,355,7.1411,11.2305,-7.4463,94,1.0925,0,-2.3574,71.3446,26,0.7764,7859,4.0458,-73.4165
rg,1625583170721855168,1,0.1875,0.762,0.6543,356,7.0801,9.0332,-9.4604,94,1.0925,0,-2.2155,70.7662,26,0.7764,7885,4.0458,-73.1579
rg,1625583170721878238,1,0.1892,0.7629,0.6499,357,7.6294,6.8359,-9.5215,94,1.0925,0,-2.1074,70.2432,26,0.7764,9547,4.0458,-72.991
rg,1625583170721900846,1,0.1985,0.7686,0.6499,358,6.897,7.1411,-11.1694,94,1.0925,0,-1.9541,69.7196,25,0.7764,7933,4.0458,-72.8416
rg,1625583170721923139,1,0.1943,0.7646,0.6533,359,8.1177,6.5308,-11.5356,94,1.0935,0,-1.7822,69.2746,25,0.7774,8100,4.0458,-72.7516
rg,1625583170721944821,1,0.1968,0.7661,0.6389,360,9.4604,4.4556,-12.5122,94,1.0915,0,-1.6264,68.9083,25,0.7754,7904,4.0458,-72.7364
rg,1625583170721963634,1,0.2058,0.762,0.6384,361,10.5591,5.127,-13.9771,94,1.0925,0,-1.4333,68.596,25,0.7764,7932,4.0458,-72.7226
rg,1625583170721983390,1,0.207,0.7712,0.6331,362,10.8643,4.1504,-14.0991,94,1.0925,0,-1.2891,68.3148,25,0.7774,7938,4.0458,-72.7684
rg,1625583170722002072,1,0.2224,0.7861,0.6367,363,11.1694,5.0659,-13.5498,94,1.0925,0,-1.1525,68.0856,25,0.7754,8003,4.0458,-72.7622
rg,1625583170722020736,1,0.2192,0.7891,0.6323,364,11.1694,6.2866,-15.5029,94,1.0945,0,-0.924,67.8753,25,0.7764,7985,4.0458,-72.7439
rg,1625583170722038456,1,0.229,0.8005,0.647,365,12.085,5.9204,-14.5874,94,1.0935,0,-0.7242,67.7354,25,0.7764,8001,4.0458,-72.6975
rg,1625583170722055917,1,0.2236,0.8013,0.6257,366,10.6812,6.2866,-14.4653,94,1.0935,0,-0.5567,67.5457,26,0.7754,7950,4.0458,-72.673
rg,1625583170722095004,1,0.2261,0.7991,0.6155,367,11.3525,8.3008,-15.686,94,1.0925,0,-0.3286,67.4046,26,0.7754,10755,4.0458,-72.5966
rg,1625583170722115556,1,0.2268,0.8086,0.605,368,9.5825,7.2632,-14.0381,94,1.0935,0,-0.1863,67.2283,26,0.7754,12439,4.0458,-72.5376
rg,1625583170722134220,1,0.2461,0.8176,0.6311,369,8.0566,7.6904,-13.4277,94,1.0925,0,-0.094,66.9671,25,0.7754,8088,4.0458,-72.4566
rg,1625583170722152403,1,0.2334,0.8149,0.5986,370,7.1411,9.5215,-12.2681,94,1.0925,0,-0.0031,66.7296,25,0.7764,8101,4.0458,-72.294
rg,1625583170722170122,1,0.2317,0.8052,0.614,371,5.5542,9.3994,-12.207,94,1.0935,0,0.0852,66.399,25,0.7754,8080,4.0458,-72.1383
rg,1625583170722187657,1,0.2212,0.8098,0.6069,372,5.5542,9.7656,-12.146,94,1.0935,0,0.1963,66.0981,25,0.7764,8131,4.0458,-71.9725
rg,1625583170722205006,1,0.2356,0.8035,0.6206,373,4.6997,10.1318,-11.7798,94,1.0915,0,0.2682,65.7448,25,0.7744,8455,4.0458,-71.7916
rg,1625583170722222208,1,0.2583,0.7935,0.6306,374,3.6621,10.1929,-10.3149,94,1.0925,0,0.2389,65.3367,25,0.7744,8147,4.0458,-71.5884
rg,1625583170722239538,1,0.2344,0.8069,0.6196,375,4.8218,13.1226,-11.2915,94,1.0945,0,0.3433,65.0139,25,0.7764,8244,4.0458,-71.3185
rg,1625583170722257517,1,0.2183,0.792,0.6042,376,4.8218,12.7563,-11.4136,94,1.0925,0,0.4713,64.7194,25,0.7754,8260,4.0458,-71.0487
rg,1625583170722275441,1,0.2195,0.7803,0.603,377,6.8359,12.4512,-10.6812,94,1.0925,0,0.5569,64.5042,25,0.7754,8290,4.0458,-70.7816
rg,1625583170722292716,1,0.22,0.792,0.6013,378,6.2256,13.0005,-11.1084,94,1.0945,0,0.6677,64.2915,25,0.7764,8307,4.0458,-70.5047
rg,1625583170722310158,1,0.2153,0.7927,0.6143,379,6.5918,12.6953,-11.2305,94,1.0945,0,0.792,64.0743,25,0.7764,8306,4.0458,-70.2445
rg,1625583170722327081,1,0.239,0.8018,0.655,380,6.0425,11.6577,-11.5356,94,1.0925,0,0.8675,63.7943,25,0.7754,8319,4.0458,-70.0308
rg,1625583170722344079,1,0.2173,0.7947,0.6125,381,7.5684,11.3525,-10.376,94,1.0945,0,0.9243,63.6465,26,0.7754,8361,4.0458,-69.8103
rg,1625583170722371816,1,0.2158,0.7966,0.6101,382,8.7891,11.7798,-11.5356,94,1.0945,0,1.0315,63.5599,26,0.7764,8359,4.0458,-69.5966
rg,1625583170722390332,1,0.2288,0.7781,0.6038,383,8.8501,10.498,-11.1084,94,1.0925,0,1.0612,63.4667,26,0.7754,8481,4.0458,-69.4232
rg,1625583170722407144,1,0.2397,0.7988,0.6152,384,8.9722,11.6577,-11.4136,94,1.0895,0,1.1096,63.3907,26,0.7754,8467,4.0458,-69.2145
rg,1625583171070865203,1,0.2202,0.7996,0.604,385,10.2539,12.0239,-12.9395,94,1.0935,0,1.255,63.3877,25,0.7754,27564,4.0458,-69.0208
rg,1625583171070910604,1,0.2209,0.8025,0.6094,386,9.2773,11.4136,-13.1226,94,1.0935,0,1.3917,63.34,25,0.7754,14582,4.0458,-68.8533
rg,1625583171070931546,1,0.2346,0.814,0.6416,387,8.4839,10.8643,-11.7798,94,1.0935,0,1.4943,63.202,25,0.7754,7827,4.0458,-68.6895
rg,1625583171070950951,1,0.2336,0.8135,0.5989,388,7.9346,12.6343,-12.2681,94,1.0935,0,1.5883,63.1434,25,0.7754,7853,4.0458,-68.4659
rg,1625583171070970152,1,0.2126,0.8108,0.6101,389,6.6528,12.146,-11.5356,94,1.0935,0,1.6902,63.0114,25,0.7754,7828,4.0458,-68.2487
rg,1625583171070990279,1,0.2239,0.8108,0.5989,390,5.5542,11.4746,-11.2305,94,1.0935,0,1.7392,62.8608,25,0.7754,7874,4.0458,-68.0513
rg,1625583171071009683,1,0.2283,0.8169,0.6116,391,4.1504,11.3525,-11.9019,94,1.0935,0,1.8052,62.6455,25,0.7754,7887,4.0458,-67.8726
rg,1625583171071031032,1,0.2214,0.8013,0.614,392,3.6011,10.9863,-10.498,94,1.0935,0,1.8224,62.3922,25,0.7754,7906,4.0458,-67.6846
rg,1625583171071051400,1,0.2249,0.8059,0.6182,393,3.418,10.9863,-11.5967,94,1.0935,0,1.8742,62.1397,25,0.7754,7916,4.0458,-67.5192
rg,1625583171071070286,1,0.2246,0.8,0.6143,394,2.7466,10.6201,-11.2915,94,1.0935,0,1.9289,61.8988,25,0.7754,9535,4.0458,-67.3492
rg,1625583171071089839,1,0.2268,0.7961,0.6167,395,2.8687,11.3525,-12.085,94,1.0935,0,1.9414,61.6611,25,0.7744,8070,4.0458,-67.207
rg,1625583171071112762,1,0.2581,0.7891,0.6455,396,2.8076,9.5825,-11.2915,94,1.0935,0,1.888,61.3452,25,0.7744,7932,4.0458,-67.095
rg,1625583171071131574,1,0.2261,0.8025,0.5967,397,3.7231,10.5591,-11.5356,94,1.0945,0,1.9201,61.1778,25,0.7764,7957,4.0458,-66.9527
rg,1625583171071176828,1,0.2148,0.7917,0.6123,398,2.7466,11.1694,-11.6577,94,1.0945,0,1.9688,60.9485,25,0.7754,8013,4.0458,-66.7941
rg,1625583171071195510,1,0.2266,0.8054,0.603,399,3.6621,9.8267,-11.6577,94,1.0915,0,1.9907,60.7855,25,0.7744,8032,4.0458,-66.6843
rg,1625583171071215545,1,0.2332,0.7964,0.6021,400,3.1738,10.498,-13.0615,94,1.0945,0,2.0567,60.5997,25,0.7764,8085,4.0458,-66.5802
rg,1625583171071270408,1,0.2302,0.7979,0.605,401,3.6621,10.9253,-12.3901,94,1.0945,0,2.1204,60.4429,25,0.7764,8101,4.0458,-66.4502
rg,1625583171071289164,1,0.2273,0.8008,0.605,402,3.2349,10.9253,-13.0005,86,1.0935,0,2.203,60.2735,25,0.7744,8126,4.0469,-66.3342
rg,1625583171071307532,1,0.23,0.7988,0.6064,403,3.7842,9.3994,-12.085,86,1.0935,0,2.215,60.1264,25,0.7754,8118,4.0469,-66.2555
rg,1625583171071326696,1,0.2334,0.7954,0.6064,404,2.5024,10.0708,-12.6343,86,1.0945,0,2.2507,59.9299,25,0.7764,10212,4.0469,-66.166
rg,1625583171071345638,1,0.2388,0.8015,0.6057,405,3.54,9.3384,-12.2681,86,1.0955,0,2.2957,59.7363,25,0.7764,8158,4.0469,-66.0773
rg,1625583171071363914,1,0.239,0.7937,0.6106,406,3.3569,10.498,-13.1226,86,1.0935,0,2.3433,59.5799,25,0.7744,8207,4.0469,-65.9873
rg,1625583171071386651,1,0.2319,0.7996,0.6011,407,4.1504,10.437,-13.2446,86,1.0945,0,2.4063,59.4851,25,0.7724,8213,4.0469,-65.9026
rg,1625583171071405778,1,0.2173,0.7544,0.5625,408,3.6011,9.1553,-12.2681,86,1.0955,0,2.4102,59.3798,25,0.7764,8296,4.0469,-65.8434
rg,1625583171071423387,1,0.2454,0.8228,0.6519,409,3.8452,10.5591,-12.5732,86,1.0935,0,2.4463,59.2253,25,0.7754,8260,4.0469,-65.7456
rg,1625583171071471418,1,0.219,0.7981,0.6047,410,3.54,11.3525,-13.4888,86,1.0955,0,2.5604,59.1119,26,0.7754,8271,4.0469,-65.6389
rg,1625583171071492007,1,0.2312,0.7952,0.5928,411,4.2114,9.8267,-13.1836,86,1.0945,0,2.5988,59.0458,26,0.7764,8342,4.0469,-65.5793
rg,1625583171071510820,1,0.2395,0.8049,0.5974,412,4.8218,9.8267,-12.4512,86,1.0945,0,2.645,58.944,26,0.7764,8377,4.0469,-65.4998
rg,1625583171071528762,1,0.2366,0.7954,0.6084,413,3.6011,10.3149,-12.5122,86,1.0935,0,2.6608,58.8343,26,0.7754,8337,4.0469,-65.4127
rg,1625583171071547204,1,0.2358,0.792,0.6077,414,4.4556,10.7422,-13.1836,86,1.0945,0,2.708,58.7596,26,0.7754,8901,4.0469,-65.3261
rg,1625583171071564942,1,0.2344,0.7903,0.6042,415,5.0049,11.1694,-13.1226,86,1.0955,0,2.7615,58.7143,26,0.7764,8409,4.0469,-65.2244
rg,1625583171071582532,1,0.2312,0.7908,0.6104,416,5.3101,11.3525,-13.6108,86,1.0945,0,2.8388,58.6628,26,0.7754,8477,4.0469,-65.1273
rg,1625583171431467203,1,0.2288,0.7937,0.6025,417,5.5542,10.9863,-13.4277,86,1.0945,0,2.9066,58.65,26,0.7754,25182,4.0469,-65.0393
rg,1625583171431568134,1,0.2344,0.7949,0.6018,418,5.9814,10.5591,-13.1226,86,1.0945,0,2.9411,58.6575,26,0.7754,14872,4.0469,-64.9598
rg,1625583171431620386,1,0.2419,0.7964,0.6077,419,5.8594,11.4136,-14.4653,86,1.0945,0,3.0244,58.652,26,0.7754,7876,4.0469,-64.8794
rg,1625583171431668639,1,0.2368,0.7983,0.6074,420,6.1646,11.2915,-14.0991,86,1.0945,0,3.1007,58.6619,25,0.7764,7848,4.0469,-64.7958
rg,1625583171431715855,1,0.2346,0.7964,0.6006,421,4.8828,11.0474,-14.0991,86,1.0945,0,3.1709,58.6294,25,0.7754,8051,4.0469,-64.7203
rg,1625583171431761256,1,0.239,0.792,0.605,422,5.3101,11.2915,-15.0757,86,1.0945,0,3.2674,58.6012,25,0.7754,9491,4.0469,-64.658
rg,1625583171431807694,1,0.2407,0.7878,0.603,423,6.1646,11.4136,-13.3667,86,1.0935,0,3.2988,58.6085,25,0.7764,8058,4.0469,-64.5569
rg,1625583171431856595,1,0.2405,0.7893,0.6069,424,6.0425,11.1694,-13.7329,86,1.0955,0,3.3339,58.6122,25,0.7764,8430,4.0469,-64.4716
rg,1625583171431901348,1,0.2432,0.7925,0.6084,425,5.9204,11.4746,-14.1602,86,1.0925,0,3.3895,58.6055,25,0.7754,7961,4.0469,-64.3852
rg,1625583171431946250,1,0.2458,0.7808,0.6094,426,6.958,11.5967,-14.0991,86,1.0945,0,3.4337,58.6237,25,0.7764,7984,4.0469,-64.2946
rg,1625583171431989947,1,0.2458,0.7854,0.6069,427,6.7139,12.4512,-14.3433,86,1.0955,0,3.5032,58.6435,25,0.7774,7979,4.0469,-64.1791
rg,1625583171432033442,1,0.2515,0.7827,0.615,428,8.3008,12.6953,-13.0005,86,1.0945,0,3.5192,58.7109,25,0.7754,8011,4.0469,-64.0286
rg,1625583171432077491,1,0.2493,0.7856,0.6064,429,9.3994,13.6108,-13.7939,86,1.0955,0,3.5832,58.8394,25,0.7764,8019,4.0469,-63.8612
rg,1625583171432120078,1,0.2507,0.7805,0.6108,430,9.0942,14.0991,-14.0381,86,1.0935,0,3.6592,58.9373,25,0.7754,8055,4.0469,-63.6819
rg,1625583171432162035,1,0.2559,0.7805,0.5994,431,9.7656,13.9771,-13.5498,86,1.0955,0,3.6986,59.0796,25,0.7754,8133,4.0469,-63.4947
rg,1625583171432206307,1,0.2778,0.8052,0.6665,432,9.3384,14.2822,-11.8408,86,1.0945,0,3.6721,59.1227,25,0.7774,8128,4.0469,-63.2658
rg,1625583171432250135,1,0.2642,0.771,0.5703,433,11.8408,17.1509,-13.9771,86,1.0945,0,3.8216,59.3454,25,0.7764,8151,4.0469,-62.976
rg,1625583171432295703,1,0.2625,0.7786,0.6243,434,10.8032,15.5029,-12.6343,86,1.0915,0,3.8469,59.4733,25,0.7764,8125,4.0469,-62.7168
rg,1625583171432341363,1,0.2434,0.7832,0.6082,435,12.207,16.3574,-13.0615,86,1.0945,0,3.9378,59.6871,25,0.7764,8206,4.0469,-62.4333
rg,1625583171432386413,1,0.2493,0.7795,0.6177,436,12.0239,17.2729,-12.3901,86,1.0945,0,4.009,59.868,25,0.7764,10881,4.0469,-62.104
rg,1625583171432431555,1,0.252,0.7759,0.624,437,11.9019,17.4561,-12.4512,86,1.0945,0,4.0776,60.0222,25,0.7764,8262,4.0469,-61.7692
rg,1625583171432474734,1,0.2529,0.7769,0.6189,438,12.3901,18.1274,-12.8174,86,1.0935,0,4.1652,60.2021,25,0.7764,8269,4.0469,-61.4161
rg,1625583171432520098,1,0.251,0.7749,0.6008,439,12.8784,18.2495,-12.3901,86,1.0945,0,4.2333,60.4253,25,0.7754,8269,4.0469,-61.0467
rg,1625583171432564537,1,0.2568,0.7864,0.6133,440,13.5498,18.1885,-11.3525,86,1.0945,0,4.2565,60.6623,25,0.7764,8315,4.0469,-60.6574
rg,1625583171432684261,1,0.2463,0.7817,0.6167,441,13.7329,18.9819,-11.9629,86,1.0955,0,4.3886,60.8748,25,0.7774,8696,4.0469,-60.2137
rg,1625583171432735829,1,0.238,0.7832,0.6079,442,14.0991,20.2637,-11.9629,86,1.0955,0,4.5122,61.1328,25,0.7774,8360,4.0469,-59.7465
rg,1625583171432779415,1,0.2383,0.7839,0.6074,443,14.4043,21.1792,-11.5356,86,1.0935,0,4.6186,61.3935,25,0.7754,8401,4.0469,-59.2492
rg,1625583171432822632,1,0.2415,0.7864,0.6113,444,14.5874,20.9351,-10.9253,86,1.0955,-0.001,4.6884,61.6495,25,0.7754,8395,4.0469,-58.7468
rg,1625583171432868403,1,0.24,0.7791,0.6106,445,15.1978,21.6064,-10.2539,86,1.0935,-0.001,4.7425,61.9153,25,0.7754,8246,4.0469,-58.2064
rg,1625583171432913731,1,0.2241,0.7783,0.6165,446,14.7095,22.0337,-9.7656,86,1.0955,0,4.8085,62.1654,25,0.7774,8465,4.0469,-57.6384
rg,1625583171432958206,1,0.2334,0.7864,0.6179,447,15.3809,19.2871,-10.2539,86,1.0935,0,4.829,62.4097,26,0.7754,8487,4.0469,-57.1763
rg,1625583171433002256,1,0.2368,0.7859,0.6113,448,15.3809,20.3857,-10.376,86,1.0955,-0.001,4.8619,62.6595,26,0.7744,8518,4.0469,-56.6742
rg,1625583171795016881,1,0.2319,0.7861,0.5979,449,16.2354,22.2778,-10.0098,86,1.0945,0,4.8773,62.972,25,0.7754,25389,4.0469,-56.1245
rg,1625583171795131495,1,0.2312,0.791,0.6023,450,16.7236,22.0947,-9.3384,86,1.0945,0,4.9074,63.2839,25,0.7754,14778,4.0469,-55.5353
rg,1625583171795183562,1,0.2429,0.7983,0.605,451,17.4561,21.3013,-9.6436,86,1.0945,0,4.9023,63.6195,25,0.7754,7831,4.0469,-54.9766
rg,1625583171795232740,1,0.2512,0.7952,0.6062,452,18.3716,22.7661,-8.1177,86,1.0945,0,4.8543,63.9773,25,0.7754,7902,4.0469,-54.3357
rg,1625583171795280067,1,0.2324,0.804,0.5908,453,18.9209,23.6206,-8.0566,86,1.0945,0,4.853,64.3829,25,0.7754,7894,4.0469,-53.6561
rg,1625583171795324339,1,0.2385,0.8088,0.6028,454,18.2495,23.8647,-8.728,86,1.0945,0,4.8686,64.7321,25,0.7754,7929,4.0469,-52.9768
rg,1625583171795369463,1,0.2576,0.7961,0.5806,455,19.8364,22.644,-7.3853,86,1.0935,0,4.7595,65.1547,25,0.7744,9448,4.0469,-52.314
rg,1625583171795476634,1,0.2466,0.8198,0.6052,456,20.4468,25.2075,-6.4087,86,1.0955,0,4.6953,65.5791,25,0.7734,7965,4.0469,-51.5383
rg,1625583171795523349,1,0.248,0.8071,0.6189,457,20.9961,25.6348,-6.7749,86,1.0955,0,4.5893,65.9344,25,0.7744,7924,4.0469,-50.7405
rg,1625583171795568436,1,0.259,0.8347,0.6113,458,22.644,27.5269,-6.7139,86,1.0945,0,4.5512,66.4309,25,0.7754,14062,4.0469,-49.8761
rg,1625583171795611430,1,0.2468,0.814,0.6179,459,21.5454,28.0762,-4.7607,86,1.0945,0,4.4636,66.8303,25,0.7754,7981,4.0469,-48.959
rg,1625583171795654387,1,0.249,0.8362,0.6155,460,22.522,30.3955,-5.6763,86,1.0945,0,4.4219,67.3161,25,0.7754,7996,4.0469,-48.0049
rg,1625583171795696715,1,0.2617,0.8284,0.627,461,22.7051,29.48,-5.188,86,1.0945,0,4.3403,67.735,25,0.7754,8101,4.0469,-47.0339
rg,1625583171795739191,1,0.251,0.8257,0.6245,462,22.0947,31.0059,-4.3945,86,1.0945,0,4.2676,68.1175,25,0.7754,8075,4.0469,-45.9901
rg,1625583171795780815,1,0.2471,0.8176,0.6255,463,21.9116,31.4941,-3.6621,86,1.0965,0,4.1761,68.4672,25,0.7764,9210,4.0469,-44.9144
rg,1625583171795838029,1,0.2588,0.822,0.6221,464,20.9961,31.189,-3.7842,86,1.0955,0,4.0466,68.7842,26,0.7764,8106,4.0469,-43.8469
rg,1625583171795884023,1,0.2583,0.8162,0.626,465,19.5923,31.189,-2.6855,86,1.0945,0,3.8884,69.0113,26,0.7754,8145,4.0469,-42.7614
rg,1625583171795926906,1,0.25,0.8201,0.6067,466,17.8833,31.25,-1.0376,86,1.0965,0,3.6832,69.1961,26,0.7754,8106,4.0469,-41.6447
rg,1625583171795969160,1,0.2654,0.823,0.5999,467,16.9678,29.8462,0.1831,86,1.0965,0,3.3628,69.312,26,0.7774,8214,4.0469,-40.5472
rg,1625583171796013598,1,0.2646,0.8157,0.5896,468,15.2588,29.9683,1.0376,86,1.0945,0,3.0399,69.3946,26,0.7754,8086,4.0469,-39.441
rg,1625583171796057370,1,0.2739,0.8093,0.5779,469,11.9629,31.1279,1.3428,86,1.0955,0,2.7079,69.3528,26,0.7764,8146,4.0469,-38.2824
rg,1625583171796101475,1,0.2729,0.8049,0.5654,470,11.4136,30.8228,1.2817,86,1.0955,0,2.3444,69.2769,26,0.7774,8173,4.0469,-37.0971
rg,1625583171796181798,1,0.2751,0.8027,0.5557,471,10.376,31.5552,2.7466,86,1.0945,0,1.9815,69.1951,26,0.7764,8332,4.0469,-35.8956
rg,1625583171796228718,1,0.2651,0.7927,0.5413,472,8.4229,33.02,2.5635,86,1.0965,0,1.6733,69.046,25,0.7764,8261,4.0469,-34.6385
rg,1625583171796274748,1,0.3228,0.7847,0.5278,473,7.1411,34.1797,1.4648,86,1.0965,0,1.3098,68.8686,25,0.7774,8271,4.0469,-33.3505
rg,1625583171796319391,1,0.2988,0.783,0.522,474,5.7983,37.9028,-2.5024,86,1.0975,0,1.2932,68.6163,25,0.7784,8271,4.0469,-31.9798
rg,1625583171796363736,1,0.2358,0.7759,0.5234,475,7.2632,44.1284,-4.1504,86,1.0955,0,1.4829,68.4493,25,0.7764,8373,4.0469,-30.4035
rg,1625583171796406212,1,0.2705,0.7966,0.5142,476,8.3008,44.2505,-5.9814,86,1.0985,0,1.6705,68.3822,25,0.7784,8371,4.0469,-28.8513
rg,1625583171796449558,1,0.2776,0.8167,0.6006,477,9.0332,46.5698,-7.9346,86,1.0965,0,2.0754,68.2696,25,0.7774,8364,4.0469,-27.1319
rg,1625583171796493682,1,0.3354,0.7437,0.6167,478,26.4893,58.2886,-3.6621,86,1.0975,0,2.2374,68.732,25,0.7794,10740,4.0469,-25.0373
rg,1625583171796538083,1,0.4431,0.8347,0.5576,479,43.2739,64.8804,1.5869,86,1.0955,0,2.1133,70.1988,25,0.7804,8381,4.0469,-22.604
rg,1625583171796581022,1,0.3337,0.9688,0.5366,480,53.4058,97.7173,0.8545,86,1.0955,0,2.5925,72.1229,25,0.7804,8582,4.0469,-18.9118
rg,1625583172151772700,1,0.4539,1.0679,0.5349,481,50.2319,55.7861,-7.3242,86,1.0965,0,2.6146,73.8863,25,0.7834,25403,4.0469,-16.8851
rg,1625583172151873465,1,0.6306,1.1572,0.4565,482,49.8657,74.0967,-14.3433,86,1.0965,0,2.811,75.8019,25,0.7834,11226,4.0469,-14.1923
rg,1625583172151931384,1,0.4875,1.2053,0.3167,483,37.2314,112.4878,-24.8413,86,1.0965,0,3.8653,77.4987,25,0.7844,8005,4.0469,-10.0448
rg,1625583172151987433,1,0.2502,1.1614,0.2529,484,18.3105,129.6997,-28.2593,86,1.0965,0,5.4038,78.6174,25,0.7844,7933,4.0469,-5.1876
rg,1625583172152040019,1,0.2085,1.1421,0.2288,485,9.7046,127.5024,-26.7944,86,1.0965,0,6.7906,79.507,25,0.7854,7897,4.0469,-0.3564
rg,1625583172152088901,1,0.2791,1.1316,0.1694,486,-8.728,119.2627,-24.6582,86,1.0965,0,7.7995,79.8004,26,0.7854,8816,4.0469,4.2081
rg,1625583172152138117,1,0.3291,1.0723,0.1772,487,-27.71,129.1504,-22.8271,86,1.0965,0,8.6568,79.4235,26,0.7854,9285,4.0469,9.1878
rg,1625583172152287710,1,0.2151,1.0212,0.1829,488,-41.687,145.752,-20.0806,86,1.0975,0,9.735,78.6647,26,0.7854,8590,4.0469,14.8414
rg,1625583172152348869,1,0.1382,0.9817,0.2004,489,-47.9736,151.4893,-17.7612,86,1.0975,0,11.0791,77.7149,26,0.7854,7988,4.0469,20.715
rg,1625583172152396011,1,0.0151,0.8967,0.2668,490,-57.6172,150.4517,-9.9487,86,1.0965,0,12.314,76.4233,25,0.7844,7976,4.0469,26.5846
rg,1625583172152442060,1,-0.123,0.8218,0.3035,491,-59.5703,142.0898,-4.8218,86,1.0975,0,13.7077,75.0231,25,0.7864,7997,4.0469,32.1311
rg,1625583172152492998,1,-0.1953,0.7852,0.314,492,-58.4106,135.376,-1.4648,86,1.0985,0,15.1715,73.744,25,0.7864,8007,4.0469,37.4332
rg,1625583172152538511,1,-0.3135,0.7432,0.3857,493,-53.894,108.5815,3.2349,86,1.0945,0,16.5151,72.3376,25,0.7854,8085,4.0469,41.6723
rg,1625583172152585579,1,-0.3818,0.7224,0.4268,494,-48.4009,74.3408,8.0566,86,1.0975,0,17.4625,70.7983,25,0.7864,8160,4.0469,44.5822
rg,1625583172152635592,1,-0.4978,0.7063,0.4573,495,-45.7764,58.4106,7.5073,86,1.0975,0,18.2166,69.0137,25,0.7864,8062,4.0469,46.0662
rg,1625583172152683160,1,-0.5195,0.6724,0.4976,496,-43.2129,16.9067,9.2773,86,1.0975,0,18.145,66.7929,25,0.7864,9765,4.0469,45.7238
rg,1625583172152729154,1,-0.4678,0.666,0.5369,497,-36.6821,-33.8745,16.9678,86,1.0965,0,17.4061,64.4385,25,0.7844,8099,4.0469,44.5256
rg,1625583172152774574,1,-0.3313,0.6262,0.5891,498,-27.4658,-69.3359,28.3203,86,1.0985,0,15.3299,62.0749,25,0.7834,8151,4.0469,42.2574
rg,1625583172152818828,1,-0.1316,0.7539,0.6084,499,-15.2588,-94.3604,27.2827,86,1.0985,0,12.2812,60.3265,25,0.7834,8189,4.0469,39.2695
rg,1625583172152863526,1,0.1909,0.7793,0.533,500,-7.4463,-101.4404,32.6538,86,1.0965,0,8.2202,59.3162,25,0.7814,8185,4.0469,36.3333
rg,1625583172152908576,1,0.1804,0.6702,0.6606,501,-9.7656,-59.7534,-6.0425,86,1.0985,0,6.4609,58.0944,25,0.7814,8226,4.0469,34.0753
rg,1625583172152955255,1,0.1589,0.7825,0.5503,502,1.9531,-31.5552,-16.4185,86,1.0995,0,5.731,57.8819,25,0.7824,8227,4.0469,32.6357
rg,1625583172153038152,1,0.0737,0.7986,0.5803,503,0.7324,-14.0991,-25.5127,86,1.0975,0,6.1082,57.5903,25,0.7814,8268,4.0469,31.5896
rg,1625583172153090460,1,-0.1184,0.7878,0.6311,504,0.9155,-2.1973,-33.6914,86,1.0975,0,7.2184,57.2714,25,0.7784,11315,4.0469,30.7596
rg,1625583172153136695,1,-0.0542,0.802,0.6729,505,2.3804,-10.0708,-34.4238,86,1.0985,0,7.8791,56.972,25,0.7784,8325,4.0469,29.3436
rg,1625583172153185337,1,0.0027,0.8115,0.7004,506,7.4463,-23.1323,-36.5601,86,1.0985,0,8.2836,56.7219,25,0.7784,8342,4.0469,27.7124
rg,1625583172153234590,1,0.0676,0.8562,0.7297,507,14.0991,-24.353,-39.1846,86,1.0985,0,8.6012,56.737,25,0.7774,8444,4.0469,25.9798
rg,1625583172153280418,1,0.1042,0.9192,0.7385,508,22.2778,-29.7852,-39.4897,86,1.0985,0,8.7418,57.1091,25,0.7764,8431,4.0469,24.0646
rg,1625583172153329689,1,0.1548,1.0022,0.7427,509,26.123,-40.8325,-41.3208,86,1.0995,0,8.639,57.6468,25,0.7754,8930,4.0469,21.7479
rg,1625583172153374665,1,0.2263,1.0364,0.7178,510,25.8789,-47.7905,-41.4429,86,1.0995,0,8.1978,58.2394,25,0.7734,8476,4.0469,19.2096
rg,1625583172153421085,1,0.3694,1.0754,0.6853,511,24.4751,-51.6357,-40.5884,86,1.0985,-0.001,7.5735,58.8132,25,0.7734,8528,4.0469,16.5688
rg,1625583172153470653,1,0.4521,1.1187,0.5974,512,15.0757,-31.3721,-37.8418,86,1.1005,0,7.1908,59.2783,25,0.7704,8402,4.0469,14.7132
rg,1625583172507169777,1,0.165,1.0793,0.5212,513,-15.4419,18.1885,-32.1655,86,1.0995,0,8.1087,58.6003,25,0.7724,24837,4.0469,14.8691
rg,1625583172507286948,1,-0.1079,0.9199,0.5447,514,-43.335,16.2354,-18.3105,86,1.0995,-0.001,8.9762,56.9118,25,0.7714,14543,4.0469,15.0364
rg,1625583172507340719,1,-0.1411,0.8577,0.5706,515,-47.4243,10.0708,-14.4043,86,1.1005,0,9.628,54.9857,25,0.7714,7656,4.0469,15.0452
rg,1625583172507392601,1,-0.1829,0.7778,0.5933,516,-47.8516,-5.3101,-9.0332,86,1.1005,0,9.8316,52.9052,25,0.7714,7866,4.0469,14.6373
rg,1625583172507441724,1,-0.1819,0.7114,0.6108,517,-44.1895,-19.9585,-6.5918,86,1.1005,0,9.5929,50.8531,25,0.7714,7886,4.0469,13.8071
rg,1625583172507561746,1,-0.1917,0.6917,0.6147,518,-41.2598,-26.001,-5.3711,85,1.1005,0,9.173,48.9418,25,0.7724,7910,4.048,12.8392
rg,1625583172507614221,1,-0.178,0.6589,0.6113,519,-32.1045,-40.2832,-5.188,85,1.0995,0,8.3377,47.3716,25,0.7704,9259,4.048,11.4677
rg,1625583172507661030,1,-0.1067,0.6438,0.6069,520,-23.8647,-52.4902,-6.8359,85,1.1015,0,7.0473,46.1486,25,0.7724,8059,4.048,9.7275
rg,1625583172507706747,1,-0.0828,0.6404,0.5974,521,-18.6157,-56.5796,-8.667,85,1.1025,0,5.6729,45.2911,25,0.7724,7960,4.048,7.7361
rg,1625583172507751556,1,-0.0325,0.6389,0.5847,522,-12.5732,-60.4248,-13.4888,85,1.1005,0,4.2139,44.6867,25,0.7704,8022,4.048,5.644
rg,1625583172507796124,1,0.0178,0.6221,0.5857,523,-4.4556,-61.8286,-21.3623,85,1.1025,0,2.8462,44.4343,25,0.7724,8001,4.048,3.2993
rg,1625583172507843489,1,0.0437,0.6106,0.5825,524,-1.709,-61.9507,-24.4751,85,1.1025,0,1.563,44.4821,25,0.7714,8060,4.048,0.7322
rg,1625583172507888724,1,0.1228,0.6025,0.592,525,6.7749,-61.9507,-31.0059,85,1.1005,0,0.2915,44.7393,25,0.7714,8033,4.048,-1.892
rg,1625583172507934070,1,0.2104,0.6055,0.5916,526,14.4043,-55.7861,-37.4146,85,1.1015,0,-0.5691,45.5289,25,0.7724,11787,4.048,-4.4209
rg,1625583172507976916,1,0.2561,0.6079,0.6055,527,24.4141,-42.5415,-40.4663,85,1.1015,0,-1.2078,46.5134,25,0.7724,8069,4.048,-6.7729
rg,1625583172508024040,1,0.271,0.6279,0.5969,528,34.6069,-26.7334,-43.1519,85,1.1015,0,-1.2961,47.9243,25,0.7724,8140,4.048,-8.7349
rg,1625583172508068220,1,0.2629,0.6458,0.5989,529,40.5884,-20.1416,-43.6401,85,1.1015,0,-1.0273,49.7518,25,0.7734,8139,4.048,-10.3227
rg,1625583172508113214,1,0.2793,0.7139,0.6084,530,49.8047,-10.8643,-42.0532,85,1.1015,0,-0.6074,51.7411,26,0.7744,8209,4.048,-11.7294
rg,1625583172508156894,1,0.2866,0.769,0.6604,531,52.002,-4.9438,-44.6777,85,1.1025,0,0.0992,53.7192,26,0.7734,8762,4.048,-12.9729
rg,1625583172508202240,1,0.3403,0.8047,0.729,532,54.4434,-8.2397,-46.0815,85,1.1035,0,0.729,55.6481,26,0.7744,8450,4.048,-14.3136
rg,1625583172508279304,1,0.5139,0.897,0.7598,533,58.4106,-13.6108,-44.4336,85,1.1035,0,0.9804,57.7323,26,0.7764,8225,4.048,-15.7585
rg,1625583172508327298,1,0.6133,0.939,0.7698,534,56.7627,-10.8643,-42.9688,85,1.1035,0,1.0913,59.762,25,0.7764,8225,4.048,-17.0387
rg,1625583172508369867,1,0.6873,1.0051,0.7515,535,49.4385,19.043,-39.856,85,1.1015,0,1.7199,61.4938,25,0.7754,8527,4.048,-17.17
rg,1625583172508414861,1,0.438,1.0171,0.7009,536,37.0483,57.6782,-33.6304,85,1.1035,0,3.1531,62.7939,25,0.7754,8343,4.048,-15.7651
rg,1625583172508458596,1,0.1101,0.97,0.657,537,20.874,68.6035,-19.4702,85,1.1035,0,4.7386,63.4859,25,0.7774,8375,4.048,-13.6754
rg,1625583172508501220,1,-0.0188,0.9465,0.6387,538,12.3291,61.4014,-11.7798,85,1.1015,0,6.0894,63.8556,26,0.7774,8358,4.048,-11.6958
rg,1625583172508544956,1,-0.1531,0.8804,0.5996,539,-2.0752,29.2358,2.9297,85,1.0985,0,6.5817,63.5612,26,0.7774,8387,4.048,-10.6235
rg,1625583172508591561,1,-0.1445,0.8079,0.5796,540,-15.3809,-8.606,15.564,85,1.1035,0,5.942,62.5678,26,0.7794,8349,4.048,-10.695
rg,1625583172508640425,1,-0.0317,0.7422,0.5823,541,-18.9819,-24.4141,20.5688,85,1.1035,0,4.3118,61.1547,26,0.7794,8450,4.048,-11.5481
rg,1625583172508685142,1,0.0159,0.7112,0.5955,542,-24.0479,-43.1519,25.2686,85,1.1015,0,2.3823,59.684,26,0.7774,8449,4.048,-12.5878
rg,1625583172508732339,1,0.0732,0.6492,0.6187,543,-24.4141,-52.2461,23.4985,85,1.1025,0,0.2318,58.1446,26,0.7774,8468,4.048,-13.9154
rg,1625583172508778334,1,0.1812,0.623,0.6379,544,-17.2119,-59.8755,16.5405,85,1.1025,0,-2.0616,56.9387,26,0.7784,8488,4.048,-15.5821
rg,1625583172864518441,1,0.3936,0.616,0.6804,545,5.7983,-39.0625,-4.4556,85,1.1025,0,-3.5889,56.6925,26,0.7774,25808,4.048,-16.9669
rg,1625583172864605393,1,0.3909,0.6531,0.7019,546,26.4893,-4.8218,-18.7988,85,1.1025,0,-3.791,57.2735,26,0.7784,14944,4.048,-17.5073
rg,1625583172864701233,1,0.3176,0.6836,0.7043,547,37.9639,15.7471,-25.8179,85,1.1025,0,-3.1437,58.2859,25,0.7784,7777,4.048,-17.4914
rg,1625583172864756041,1,0.2378,0.7439,0.7043,548,46.1426,25.0244,-30.6396,85,1.1025,0,-1.9774,59.655,25,0.7784,10088,4.048,-17.2387
rg,1625583172864803794,1,0.1792,0.8171,0.6741,549,47.5464,28.0151,-32.5928,85,1.1025,0,-0.6593,61.1677,25,0.7784,7995,4.048,-16.8902
rg,1625583172864849585,1,0.1475,0.8557,0.6467,550,46.4478,25.7568,-31.25,85,1.1035,0,0.5394,62.6103,25,0.7794,9680,4.048,-16.599
rg,1625583172864895042,1,0.1218,0.9194,0.6301,551,38.5742,18.4937,-26.123,85,1.1035,-0.001,1.5325,63.8635,26,0.7794,7868,4.048,-16.4101
rg,1625583172864941703,1,0.1479,0.96,0.6106,552,26.062,7.2632,-19.2261,85,1.1035,0,1.9958,64.6399,26,0.7794,7787,4.048,-16.4884
rg,1625583172864986882,1,0.2427,0.9878,0.6074,553,12.7563,-2.9297,-12.8174,85,1.1045,0,1.8671,64.8832,26,0.7804,8196,4.048,-16.8203
rg,1625583172865032228,1,0.2925,1.0022,0.6187,554,7.5073,-5.6763,-10.3149,85,1.1025,0,1.5261,64.9057,26,0.7794,7915,4.048,-17.2072
rg,1625583172865078167,1,0.3752,1.0183,0.6233,555,-2.6855,-3.7842,-8.0566,85,1.1045,0,1.0151,64.5383,25,0.7804,7990,4.048,-17.4833
rg,1625583172865122735,1,0.4346,1.0276,0.6165,556,-6.3477,-1.8921,-6.2866,85,1.1045,0,0.4574,63.9134,25,0.7804,8074,4.048,-17.4857
rg,1625583172865168693,1,0.4475,1.0244,0.5986,557,-13.916,7.6904,-5.6152,85,1.1035,0,-0.024,63.189,25,0.7794,8027,4.048,-17.303
rg,1625583172865214539,1,0.4363,1.0063,0.5708,558,-20.3247,21.4233,-5.5542,85,1.1045,0,-0.2376,62.2608,25,0.7794,8061,4.048,-16.6324
rg,1625583172865260774,1,0.3643,0.9895,0.5364,559,-24.5972,29.8462,-7.2021,85,1.1055,0,-0.0271,61.1287,25,0.7804,8118,4.048,-15.6116
rg,1625583172865313397,1,0.3391,0.9707,0.5295,560,-29.48,36.377,-7.5073,85,1.1035,0,0.2785,59.9509,25,0.7794,8076,4.048,-14.4807
rg,1625583172865360946,1,0.2954,0.9338,0.4961,561,-32.2876,39.2456,-6.0425,85,1.1055,0,0.6578,58.7381,25,0.7784,8093,4.048,-13.2419
rg,1625583172865458545,1,0.2549,0.8933,0.4795,562,-33.6914,41.3818,-6.5308,85,1.1055,0,1.1615,57.4662,25,0.7804,8105,4.048,-11.9583
rg,1625583172865511316,1,0.2471,0.8811,0.4734,563,-36.1328,40.8936,-5.9814,85,1.1035,0,1.6602,56.2069,25,0.7794,8181,4.048,-10.7052
rg,1625583172865557736,1,0.2288,0.8506,0.4578,564,-37.8418,40.7104,-7.019,85,1.1055,0,2.2188,54.9364,25,0.7804,8141,4.048,-9.503
rg,1625583172865603342,1,0.2239,0.8237,0.4431,565,-37.5366,38.3911,-8.1177,85,1.1045,0,2.7582,53.7336,25,0.7804,8190,4.048,-8.4227
rg,1625583172865650595,1,0.2322,0.8071,0.4604,566,-37.2314,36.5601,-9.7046,85,1.1035,0,3.2844,52.5378,25,0.7794,8258,4.048,-7.4608
rg,1625583172865693164,1,0.2356,0.7822,0.4597,567,-34.4849,35.4004,-12.085,85,1.1045,0,3.8352,51.4706,26,0.7794,8268,4.048,-6.6143
rg,1625583172865737621,1,0.2559,0.7747,0.4668,568,-31.311,32.0435,-14.2212,85,1.1055,0,4.3156,50.5402,26,0.7814,8272,4.048,-5.9445
rg,1625583172865818074,1,0.2832,0.7732,0.446,569,-28.8086,30.7007,-14.8315,85,1.1045,0,4.7279,49.8679,26,0.7784,8522,4.048,-5.3417
rg,1625583172865862938,1,0.2771,0.7673,0.437,570,-24.4751,31.4941,-16.5405,85,1.1055,0,5.1881,49.3225,26,0.7814,10215,4.048,-4.7676
rg,1625583172865906748,1,0.2739,0.7747,0.4355,571,-22.3389,31.1279,-17.7612,85,1.1035,0,5.6748,48.8948,26,0.7794,8367,4.048,-4.2422
rg,1625583172865951594,1,0.291,0.7744,0.4307,572,-19.7754,29.541,-17.0898,85,1.1025,0,6.0474,48.5928,26,0.7804,8425,4.048,-3.7502
rg,1625583172865995829,1,0.282,0.7781,0.4299,573,-17.7612,30.5786,-15.625,85,1.1055,0,6.4137,48.3999,26,0.7814,8393,4.048,-3.1893
rg,1625583172866039675,1,0.2839,0.7739,0.4407,574,-17.7612,29.7241,-15.9302,85,1.1065,0,6.7441,48.3005,26,0.7814,8395,4.048,-2.6228
rg,1625583172866083818,1,0.2725,0.7759,0.4509,575,-13.1836,28.8696,-14.9536,85,1.1045,0,7.0471,48.2583,25,0.7804,8471,4.048,-2.0992
rg,1625583172866128368,1,0.2639,0.7815,0.4602,576,-9.5215,26.1841,-13.6108,85,1.1065,0,7.2521,48.3496,25,0.7804,8467,4.048,-1.6199
rg,1625583173228505115,1,0.2566,0.7759,0.4768,577,-0.061,23.4375,-12.146,85,1.1055,0,7.2764,48.8604,25,0.7804,25264,4.048,-1.1718
rg,1625583173228687149,1,0.2473,0.7732,0.4861,578,9.6436,21.3013,-7.6904,85,1.1045,0,7.1972,49.6357,25,0.7804,16009,4.048,-0.6825
rg,1625583173228749975,1,0.2454,0.7856,0.4893,579,11.2305,20.3247,-7.3853,85,1.1045,0,7.0917,50.452,25,0.7804,7804,4.048,-0.2079
rg,1625583173228809912,1,0.2349,0.771,0.5068,580,14.7705,20.1416,-4.3335,85,1.1055,0,6.9035,51.3337,25,0.7804,7832,4.048,0.3378
rg,1625583173228874275,1,0.2151,0.7651,0.5288,581,16.7847,19.4092,-3.2959,85,1.1055,0,6.6902,52.3231,25,0.7814,7791,4.048,0.9279
rg,1625583173228923344,1,0.2139,0.7734,0.5505,582,21.3013,19.5312,-1.709,85,1.1055,0,6.4594,53.3151,25,0.7814,7836,4.048,1.5186
rg,1625583173228977504,1,0.2058,0.7749,0.5667,583,26.123,18.0054,1.2207,85,1.1025,0,6.1185,54.4325,25,0.7804,9626,4.048,2.1296
rg,1625583173229033053,1,0.1946,0.782,0.5911,584,29.9072,17.8223,3.7842,85,1.1045,0,5.723,55.6241,25,0.7824,7871,4.048,2.792
rg,1625583173229089361,1,0.1941,0.7922,0.6062,585,32.7759,17.2729,5.6763,85,1.1065,0,5.2614,56.868,25,0.7824,7921,4.048,3.4778
rg,1625583173229141503,1,0.1863,0.8054,0.6274,586,37.4146,16.1743,6.8359,85,1.1065,0,4.7646,58.2221,25,0.7814,7957,4.048,4.1494
rg,1625583173229191478,1,0.1797,0.8342,0.6433,587,43.457,15.0757,9.0942,85,1.1035,0,4.1951,59.7694,25,0.7804,10754,4.048,4.8294
rg,1625583173229239843,1,0.1665,0.873,0.6633,588,44.1284,16.8457,8.9722,85,1.1065,0,3.708,61.2962,25,0.7814,8001,4.048,5.5679
rg,1625583173229288115,1,0.1118,0.8579,0.708,589,45.2881,18.7988,10.7422,85,1.1065,0,3.0258,62.9142,25,0.7814,8064,4.048,6.2752
rg,1625583173229334165,1,0.2031,0.9587,0.5972,590,44.9219,10.1318,7.3853,85,1.1045,0,2.4197,64.5292,25,0.7814,8057,4.048,6.753
rg,1625583173229377086,1,0.1599,0.8618,0.6768,591,37.2925,29.1138,8.4229,85,1.1035,0,2.1806,65.5588,25,0.7824,8051,4.048,7.9284
rg,1625583173229420118,1,0.1245,0.8887,0.6567,592,39.6118,29.9683,7.6904,85,1.1055,0,2.0938,66.8067,25,0.7824,8081,4.048,9.0366
rg,1625583173229464076,1,0.0544,0.9277,0.6262,593,33.5083,23.6206,5.6763,85,1.1035,0,2.0539,67.7386,25,0.7814,8232,4.048,9.9796
rg,1625583173229508478,1,0.054,0.9243,0.6389,594,25.4517,11.8408,5.4321,85,1.1045,0,1.8396,68.2707,25,0.7824,11333,4.048,10.482
rg,1625583173229554639,1,0.1267,0.9375,0.666,595,13.855,2.4414,5.3101,85,1.1045,0,1.359,68.2803,25,0.7824,8206,4.048,10.6341
rg,1625583173229599060,1,0.0735,0.9033,0.6975,596,2.6245,5.0659,-1.2207,85,1.1055,0,1.2813,67.7505,25,0.7824,8186,4.048,10.7905
rg,1625583173229644018,1,0.1003,0.873,0.6897,597,-2.7466,0.061,0.1831,85,1.1055,0,1.0224,66.9996,25,0.7824,9796,4.048,10.7836
rg,1625583173229766559,1,0.1428,0.8516,0.6914,598,-3.8452,-1.1597,0.9155,85,1.1055,-0.001,0.5817,66.2027,25,0.7824,8162,4.048,10.7478
rg,1625583173229819997,1,0.1741,0.8296,0.6746,599,-8.667,5.7983,-4.0894,85,1.1045,0,0.4375,65.2504,25,0.7824,8495,4.048,10.891
rg,1625583173229885304,1,0.0449,0.8311,0.6707,600,-16.7236,18.3105,-18.1885,85,1.1075,0,1.2918,64.0178,25,0.7804,8621,4.048,11.2413
rg,1625583173229933502,1,-0.0042,0.7649,0.7144,601,-20.2026,14.4043,-19.7144,85,1.1065,0,2.2111,62.5344,25,0.7834,8336,4.048,11.3894
rg,1625583173229979922,1,0.0205,0.7529,0.7063,602,-18.9209,9.6436,-19.2871,85,1.1045,0,2.9403,61.1483,25,0.7824,8433,4.048,11.3455
rg,1625583173230066245,1,0.0244,0.7117,0.6941,603,-15.5029,8.606,-20.1416,85,1.1025,0,3.6398,59.9052,25,0.7834,8421,4.048,11.2216
rg,1625583173230114314,1,0.0168,0.7166,0.6707,604,-8.5449,4.2725,-20.4468,85,1.1065,0,4.2491,59.0199,25,0.7834,8552,4.048,10.9233
rg,1625583173230161475,1,0.0574,0.7097,0.6614,605,-7.0801,-0.4272,-19.7144,85,1.1065,0,4.5332,58.2881,25,0.7844,8433,4.048,10.3833
rg,1625583173230209469,1,0.0723,0.7122,0.6619,606,-3.2959,-6.1646,-18.6157,85,1.1075,0,4.6348,57.6805,25,0.7844,9172,4.048,9.7482
rg,1625583173230258186,1,0.1177,0.7231,0.6453,607,1.2817,-12.6953,-17.7002,85,1.1065,0,4.4311,57.3045,25,0.7844,9888,4.048,8.9116
rg,1625583173230301662,1,0.1812,0.731,0.624,608,6.0425,-15.686,-17.395,85,1.1045,0,4.088,57.1624,26,0.7824,8487,4.048,7.9834
rg,1625583173587483144,1,0.2715,0.7761,0.5886,609,9.0942,-2.7466,-20.3247,85,1.1055,0,3.9477,57.3097,26,0.7834,25726,4.048,7.4399
rg,1625583173588039226,1,0.2603,0.7937,0.6006,610,8.1787,3.54,-20.813,85,1.1065,0,4.0366,57.3868,25,0.7834,11803,4.048,7.0972
rg,1625583173588102163,1,0.2336,0.7815,0.6167,611,8.9722,10.6201,-21.2402,85,1.1055,0,4.3054,57.5063,25,0.7834,8000,4.048,6.9854
rg,1625583173588156823,1,0.2493,0.8059,0.6121,612,11.0474,12.6343,-21.1182,85,1.1055,0,4.5786,57.7505,25,0.7834,7982,4.048,6.9484
rg,1625583173588210706,1,0.2468,0.8191,0.5967,613,11.7188,14.4043,-21.1182,85,1.1055,0,4.9317,58.0576,25,0.7834,7967,4.048,6.9777
rg,1625583173588264959,1,0.2197,0.821,0.6099,614,12.085,17.8833,-21.7285,85,1.1055,0,5.3765,58.3595,25,0.7834,9536,4.048,7.115
rg,1625583173588316508,1,0.2278,0.842,0.5774,615,11.7798,17.8223,-20.813,85,1.1055,0,5.7535,58.7251,25,0.7834,9020,4.048,7.281
rg,1625583173588364966,1,0.2192,0.8506,0.5522,616,10.8643,19.104,-21.1182,85,1.1065,0,6.1781,59.1035,25,0.7834,12400,4.048,7.5109
rg,1625583173588484026,1,0.2195,0.8616,0.554,617,10.8032,19.9585,-20.9961,85,1.1065,0,6.5899,59.4788,25,0.7834,7950,4.048,7.7639
rg,1625583173588539093,1,0.2197,0.8591,0.5442,618,7.8735,21.1182,-20.9961,85,1.1055,0,7.0044,59.7451,25,0.7834,7962,4.048,8.064
rg,1625583173588587180,1,0.2129,0.8552,0.5469,619,6.6528,22.522,-20.9961,85,1.1055,0,7.4396,59.8879,25,0.7844,7966,4.048,8.3922
rg,1625583173588634211,1,0.1941,0.8545,0.5593,620,7.3242,22.0337,-19.8364,85,1.1055,0,7.8521,60.0949,25,0.7844,7993,4.048,8.7484
rg,1625583173588678854,1,0.1855,0.8601,0.562,621,7.1411,19.104,-19.7144,85,1.1065,0,8.2055,60.2769,26,0.7834,9091,4.048,9.0067
rg,1625583173588724016,1,0.2183,0.8621,0.5547,622,8.0566,14.3433,-17.9443,85,1.1065,0,8.323,60.4876,26,0.7854,8052,4.048,9.1369
rg,1625583173588768529,1,0.2195,0.8643,0.5537,623,7.2632,14.2212,-17.0898,85,1.1095,0,8.4056,60.6723,26,0.7854,8701,4.048,9.2832
rg,1625583173588813524,1,0.2019,0.8635,0.55,624,6.897,15.8691,-16.7847,85,1.1075,0,8.5325,60.8415,26,0.7844,10036,4.048,9.4948
rg,1625583173588857333,1,0.2039,0.8562,0.554,625,6.7139,13.3667,-16.3574,85,1.1055,0,8.5892,60.9718,25,0.7834,8134,4.048,9.6255
rg,1625583173588901661,1,0.208,0.8486,0.5535,626,6.1646,11.5356,-15.4419,85,1.1065,0,8.5655,61.0604,25,0.7854,8138,4.048,9.709
rg,1625583173588945489,1,0.2114,0.8569,0.5476,627,5.9204,11.2915,-14.2212,85,1.1065,0,8.5368,61.0818,25,0.7844,8124,4.048,9.7862
rg,1625583173588988392,1,0.2051,0.8494,0.5579,628,4.9438,11.2305,-15.2588,85,1.1055,0,8.5099,61.1089,25,0.7834,8203,4.048,9.8622
rg,1625583173589033535,1,0.1963,0.8372,0.5613,629,5.0659,11.2305,-15.3198,85,1.1075,0,8.5011,61.1181,25,0.7854,8210,4.048,9.9341
rg,1625583173589076307,1,0.1897,0.8323,0.562,630,5.0659,11.2305,-15.3809,85,1.1065,0,8.4959,61.1163,25,0.7854,8244,4.048,9.9677
rg,1625583173589119913,1,0.1873,0.8284,0.5723,631,5.3101,8.5449,-15.1978,85,1.1055,0,8.4506,61.0896,25,0.7834,8245,4.048,9.9421
rg,1625583173589171481,1,0.1904,0.822,0.5691,632,5.4932,6.8359,-16.0522,85,1.1065,0,8.3949,61.058,25,0.7834,8237,4.048,9.839
rg,1625583173589218087,1,0.1992,0.8218,0.5706,633,5.8594,5.9204,-15.2588,85,1.1075,0,8.278,61.0372,25,0.7844,8282,4.048,9.7186
rg,1625583173589262248,1,0.2019,0.8271,0.5698,634,6.7139,6.1035,-16.5405,85,1.1075,0,8.2098,61.0571,25,0.7844,8312,4.048,9.5813
rg,1625583173589309724,1,0.2019,0.8298,0.574,635,6.6528,6.3477,-17.0898,85,1.1035,0,8.1698,61.0694,25,0.7834,8326,4.048,9.4417
rg,1625583173589357756,1,0.2053,0.8213,0.5718,636,6.7749,6.1035,-16.1743,82,1.1075,0,8.0845,61.081,25,0.7844,8337,4.0491,9.3107
rg,1625583173589401639,1,0.2043,0.8259,0.5747,637,7.0801,6.5308,-15.7471,82,1.1075,0,8.0625,61.1393,25,0.7844,8368,4.0491,9.2167
rg,1625583173589444023,1,0.1995,0.8306,0.5747,638,7.8125,6.7749,-15.1978,82,1.1055,0,7.9757,61.2019,25,0.7834,8385,4.0491,9.1301
rg,1625583173589489055,1,0.1948,0.8335,0.5715,639,7.019,7.4463,-14.9536,82,1.1075,0,7.906,61.2438,25,0.7834,8415,4.0491,9.0741
rg,1625583173589536327,1,0.1995,0.8308,0.5725,640,6.897,7.2632,-15.1367,82,1.1075,0,7.8319,61.2731,25,0.7844,9086,4.0491,9.0079
rg,1625583173933737658,1,0.1902,0.8379,0.5679,641,7.8125,8.606,-14.5874,82,1.1065,-0.001,7.7869,61.3627,25,0.7834,26608,4.0491,9.0028
rg,1625583173933856829,1,0.1809,0.8347,0.5674,642,7.6904,9.4604,-15.5029,82,1.1065,0,7.7552,61.43,25,0.7834,13736,4.0491,9.0268
rg,1625583173933912508,1,0.1777,0.845,0.5791,643,7.3242,8.8501,-15.7471,82,1.1065,0,7.7885,61.4799,25,0.7834,7969,4.0491,9.0076
rg,1625583173933964816,1,0.1799,0.8411,0.5684,644,7.1411,8.9111,-13.916,82,1.1065,0,7.7496,61.5407,25,0.7834,7827,4.0491,9.028
rg,1625583173934026661,1,0.1846,0.8413,0.5742,645,6.958,9.2773,-14.9536,82,1.1065,0,7.723,61.5807,25,0.7834,7866,4.0491,9.0535
rg,1625583173934074581,1,0.1807,0.8452,0.575,646,7.9956,9.3384,-14.8315,82,1.1065,0,7.7278,61.6645,26,0.7834,7875,4.0491,9.0715
rg,1625583173934123279,1,0.1765,0.8474,0.5708,647,6.8359,9.7656,-14.2822,82,1.1065,0,7.7293,61.7124,26,0.7834,8934,4.0491,9.1172
rg,1625583173934173069,1,0.1746,0.8457,0.5652,648,5.7373,9.5215,-13.9771,82,1.1075,0,7.7178,61.7224,26,0.7834,8258,4.0491,9.1613
rg,1625583173934246746,1,0.1753,0.8508,0.5679,649,5.9204,10.0708,-14.5874,82,1.1055,0,7.739,61.7418,26,0.7824,7960,4.0491,9.2137
rg,1625583173934874468,1,0.1741,0.8496,0.5623,650,4.3335,9.7046,-15.0757,82,1.1075,0,7.7706,61.7029,25,0.7824,8002,4.0491,9.2451
rg,1625583173935340006,1,0.176,0.8584,0.5664,651,3.6621,9.5825,-14.8315,82,1.1065,0,7.7894,61.6416,25,0.7834,7987,4.0491,9.2767
rg,1625583173935434457,1,0.1753,0.8521,0.5659,652,3.479,8.7891,-14.4043,82,1.1055,0,7.7773,61.566,25,0.7824,8049,4.0491,9.2869
rg,1625583173935486322,1,0.1772,0.8523,0.5593,653,1.8311,9.2773,-14.8926,82,1.1075,0,7.7866,61.441,25,0.7824,8060,4.0491,9.3063
rg,1625583173935537223,1,0.1741,0.8513,0.5657,654,1.5259,9.2163,-14.4043,82,1.1075,0,7.785,61.2965,25,0.7834,8070,4.0491,9.3303
rg,1625583173935590939,1,0.1772,0.8513,0.5669,655,1.0376,8.4839,-14.0381,82,1.1045,0,7.7504,61.1332,25,0.7814,8129,4.0491,9.3341
rg,1625583173935637507,1,0.1799,0.8442,0.563,656,0.7324,8.728,-15.3809,82,1.1075,0,7.7605,60.9603,25,0.7824,8152,4.0491,9.3195
rg,1625583173935754845,1,0.1873,0.8372,0.5635,657,0.7324,8.3618,-14.5874,82,1.1075,0,7.7183,60.785,25,0.7834,8086,4.0491,9.3049
rg,1625583173935808598,1,0.1941,0.8374,0.5613,658,1.1597,8.728,-14.8315,82,1.1075,0,7.6787,60.639,26,0.7834,8109,4.0491,9.2982
rg,1625583173935852575,1,0.1902,0.8279,0.571,659,1.0376,9.9487,-14.0991,82,1.1035,0,7.6464,60.4713,26,0.7814,8212,4.0491,9.3439
rg,1625583173935894922,1,0.1975,0.8164,0.5703,660,1.0986,9.7656,-14.5264,82,1.1075,0,7.608,60.2975,26,0.7834,8235,4.0491,9.3721
rg,1625583173935937324,1,0.2017,0.8157,0.5669,661,1.0986,10.6201,-14.2212,82,1.1075,0,7.5677,60.1406,26,0.7814,11533,4.0491,9.436
rg,1625583173935983226,1,0.2126,0.8137,0.5688,662,2.1973,11.1084,-13.4277,82,1.1065,0,7.4883,60.032,26,0.7814,11165,4.0491,9.5312
rg,1625583173936029720,1,0.2041,0.8162,0.5691,663,3.6011,11.5967,-13.1836,82,1.1065,0,7.4317,59.9886,26,0.7814,8295,4.0491,9.6481
rg,1625583173936074604,1,0.1995,0.8167,0.5652,664,4.3945,12.5732,-13.1226,82,1.1065,0,7.4034,59.9907,26,0.7824,8359,4.0491,9.8012
rg,1625583173936169000,1,0.2034,0.8218,0.5713,665,4.9438,12.8784,-13.7939,82,1.1065,0,7.4004,60.0096,26,0.7814,8347,4.0491,9.9511
rg,1625583173936258786,1,0.1951,0.824,0.5596,666,5.3101,14.0991,-13.1226,82,1.1065,0,7.4135,60.0739,26,0.7814,8372,4.0491,10.1604
rg,1625583173936458281,1,0.1987,0.8364,0.5627,667,5.3711,14.0991,-12.3291,82,1.1075,0,7.3953,60.15,26,0.7814,8624,4.0491,10.3873
rg,1625583173936523940,1,0.1995,0.8401,0.5564,668,5.0659,14.0991,-11.4136,82,1.1075,0,7.3439,60.2296,26,0.7834,9021,4.0491,10.6352
rg,1625583173936576619,1,0.2019,0.8413,0.5605,669,5.4321,15.1367,-12.2681,82,1.1065,0,7.3526,60.294,25,0.7824,8499,4.0491,10.8994
rg,1625583173936645574,1,0.1963,0.8418,0.572,670,5.0049,15.0757,-11.0474,82,1.1055,0,7.3194,60.3439,25,0.7814,8475,4.0491,11.1864
rg,1625583173936689920,1,0.1934,0.8513,0.5549,671,5.3101,17.0288,-12.6953,82,1.1075,0,7.3875,60.4519,25,0.7804,8526,4.0491,11.5154
rg,1625583173936731563,1,0.1921,0.8428,0.5693,672,4.4556,15.4419,-10.8032,82,1.1075,0,7.3591,60.4824,25,0.7824,8534,4.0491,11.8219
rg,1625583174296948890,1,0.1934,0.8433,0.5647,673,3.3569,16.1743,-11.7188,82,1.1065,0,7.3744,60.478,25,0.7814,25638,4.0491,12.1376
rg,1625583174297138961,1,0.1853,0.8401,0.564,674,3.0518,17.2729,-12.3901,82,1.1065,0,7.4495,60.4623,25,0.7814,14714,4.0491,12.4781
rg,1625583174297196733,1,0.1841,0.8335,0.5764,675,2.9907,16.0522,-11.9019,82,1.1065,0,7.4845,60.4096,25,0.7814,7830,4.0491,12.781
rg,1625583174297245709,1,0.1819,0.8389,0.5747,676,2.7466,16.4185,-11.9629,82,1.1065,0,7.524,60.3584,25,0.7814,7898,4.0491,13.0961
rg,1625583174297294222,1,0.1853,0.8352,0.5857,677,3.1128,15.3809,-11.9629,82,1.1065,0,7.5458,60.2969,25,0.7814,7860,4.0491,13.3712
rg,1625583174297338347,1,0.1912,0.8362,0.5891,678,3.0518,14.2212,-11.5967,82,1.1065,0,7.5207,60.2262,25,0.7814,8369,4.0491,13.6118
rg,1625583174297382953,1,0.1821,0.833,0.5793,679,3.2349,14.7705,-11.5356,82,1.1065,0,7.5208,60.1814,26,0.7814,8196,4.0491,13.8742
rg,1625583174297426374,1,0.1765,0.8306,0.5754,680,3.1128,14.7095,-12.6953,82,1.1065,0,7.5541,60.122,26,0.7814,7953,4.0491,14.1099
rg,1625583174297479220,1,0.1863,0.8335,0.583,681,2.6855,12.6343,-11.8408,82,1.1055,0,7.5143,60.0428,26,0.7804,8017,4.0491,14.2898
rg,1625583174297524252,1,0.186,0.8347,0.5747,682,2.5635,12.8784,-10.5591,82,1.1075,0,7.4356,59.9827,26,0.7814,7972,4.0491,14.5057
rg,1625583174297571673,1,0.1863,0.8357,0.5767,683,2.2583,13.3057,-12.085,82,1.1055,0,7.4199,59.8861,25,0.7814,7965,4.0491,14.7026
rg,1625583174297613483,1,0.1931,0.8306,0.572,684,2.6245,11.2915,-10.1318,82,1.1065,0,7.2826,59.8279,25,0.7814,11664,4.0491,14.871
rg,1625583174297657237,1,0.1995,0.8384,0.5876,685,1.0376,11.4746,-10.8032,82,1.1065,0,7.1706,59.6889,25,0.7814,8114,4.0491,15.0301
rg,1625583174297700455,1,0.1863,0.8379,0.5618,686,2.4414,12.146,-11.3525,82,1.1065,0,7.1165,59.6587,25,0.7804,8131,4.0491,15.2067
rg,1625583174297742080,1,0.1902,0.8274,0.5691,687,1.2817,11.1084,-11.2305,82,1.1065,0,7.03,59.5525,25,0.7804,8138,4.0491,15.3463
rg,1625583174297783390,1,0.2026,0.8267,0.5645,688,1.2207,9.9487,-10.8643,82,1.1065,0,6.8992,59.483,25,0.7804,8886,4.0491,15.4703
rg,1625583174298059656,1,0.2117,0.8298,0.584,689,1.5869,9.7046,-10.2539,82,1.1055,0,6.7195,59.3682,25,0.7794,8581,4.0491,15.5779
rg,1625583174298107724,1,0.199,0.8328,0.564,690,1.3428,11.3525,-11.2915,82,1.1045,0,6.638,59.2918,25,0.7794,8695,4.0491,15.726
rg,1625583174298152256,1,0.1987,0.8335,0.5642,691,1.1597,10.9863,-10.437,82,1.1075,0,6.5237,59.2118,25,0.7814,8378,4.0491,15.8786
rg,1625583174298198307,1,0.2087,0.8308,0.5771,692,0.9155,9.7656,-10.8032,82,1.1075,0,6.4682,59.1827,25,0.7814,8183,4.0491,16.047
rg,1625583174298242395,1,0.1912,0.8374,0.5642,693,1.8921,11.6577,-10.7422,82,1.1055,0,6.4017,59.1422,25,0.7804,8296,4.0491,16.2168
rg,1625583174298285538,1,0.1995,0.824,0.5737,694,0.9766,9.8877,-9.8877,82,1.1075,0,6.2534,59.0274,25,0.7804,8301,4.0491,16.3391
rg,1625583174298334329,1,0.1963,0.8354,0.5542,695,2.6855,10.1318,-9.5825,82,1.1075,0,6.111,59.037,26,0.7804,8316,4.0491,16.4812
rg,1625583174298385360,1,0.1892,0.8347,0.5688,696,1.4648,10.5591,-9.8877,82,1.1055,0,6.0111,58.9698,26,0.7794,8326,4.0491,16.6291
rg,1625583174298427948,1,0.1919,0.8335,0.5684,697,2.3804,10.3149,-10.3149,82,1.1065,0,5.9187,58.9392,26,0.7804,8332,4.0491,16.7595
rg,1625583174298471554,1,0.2053,0.8354,0.5659,698,2.9297,10.9863,-9.3384,82,1.1055,0,5.7824,58.943,26,0.7794,10190,4.0491,16.934
rg,1625583174298629259,1,0.1873,0.8313,0.5664,699,3.0518,11.2915,-10.2539,82,1.1075,0,5.7252,58.9439,26,0.7804,8409,4.0491,17.0998
rg,1625583174298678809,1,0.1953,0.8313,0.5681,700,3.479,9.4604,-8.9111,82,1.1075,0,5.5703,58.9552,26,0.7804,8515,4.0491,17.2299
rg,1625583174298727841,1,0.198,0.8311,0.5654,701,3.479,9.8877,-9.9487,82,1.1065,0,5.4694,58.9528,26,0.7804,8414,4.0491,17.3525
rg,1625583174299172736,1,0.199,0.832,0.5713,702,3.54,9.3994,-9.4604,82,1.1055,0,5.3352,58.9594,25,0.7804,8480,4.0491,17.4693
rg,1625583174299309332,1,0.2041,0.8298,0.5688,703,3.8452,9.7046,-10.0098,82,1.1075,0,5.2191,58.9796,25,0.7794,8480,4.0491,17.5859
rg,1625583174299358141,1,0.1973,0.8276,0.5627,704,3.1738,11.0474,-10.0098,82,1.1075,0,5.147,58.9845,25,0.7814,8525,4.0491,17.7499
rg,1625583174648852225,1,0.2034,0.8274,0.5671,705,2.7466,11.3525,-10.0098,82,1.1065,0,5.072,58.9646,26,0.7804,25525,4.0491,17.9239
rg,1625583174648903627,1,0.1997,0.8291,0.564,706,3.2349,11.2305,-9.3994,82,1.1065,0,4.9841,58.9734,26,0.7804,15919,4.0491,18.1069
rg,1625583174648924995,1,0.2007,0.8301,0.5669,707,3.3569,11.5967,-10.2539,82,1.1065,0,4.9351,58.9818,26,0.7804,7834,4.0491,18.2849
rg,1625583174648984951,1,0.1978,0.8271,0.5728,708,3.2349,12.146,-11.2915,82,1.1065,0,4.9414,58.9703,25,0.7804,7869,4.0491,18.4593
rg,1625583174649005764,1,0.2024,0.8291,0.5737,709,2.1362,12.146,-11.1084,82,1.1065,0,4.9324,58.9165,25,0.7804,7856,4.0491,18.6375
rg,1625583174649024632,1,0.2085,0.8254,0.5615,710,1.8921,12.3901,-11.5967,82,1.1065,0,4.9287,58.8728,25,0.7804,7857,4.0491,18.8153
rg,1625583174649042575,1,0.2017,0.8247,0.5657,711,1.5869,12.6343,-10.7422,82,1.1055,0,4.9162,58.8121,25,0.7804,9025,4.0491,19.0179
rg,1625583174649059721,1,0.2009,0.8237,0.5681,712,2.8687,12.3291,-11.0474,82,1.1075,0,4.9167,58.7867,25,0.7804,7915,4.0491,19.2019
rg,1625583174649078200,1,0.2041,0.8203,0.5757,713,1.709,13.4888,-12.0239,82,1.1025,0,4.9622,58.7106,25,0.7794,7952,4.0491,19.4047
rg,1625583174649096106,1,0.189,0.8184,0.5784,714,2.3804,13.5498,-11.9019,82,1.1055,0,5.0351,58.6569,25,0.7804,8018,4.0491,19.6105
rg,1625583174649113493,1,0.1887,0.8169,0.573,715,3.54,11.6577,-11.4136,82,1.1075,0,5.0485,58.6549,25,0.7814,10544,4.0491,19.7616
rg,1625583174649130861,1,0.196,0.8206,0.5767,716,3.6621,11.1694,-11.4746,82,1.1075,-0.001,5.0624,58.6549,25,0.7804,8054,4.0491,19.889
rg,1625583174649149248,1,0.2019,0.8232,0.5769,717,4.5776,11.1084,-11.2915,82,1.1055,-0.001,5.0344,58.6943,25,0.7794,8018,4.0491,20.0239
rg,1625583174649167246,1,0.2014,0.8245,0.5759,718,4.9438,11.1694,-11.3525,82,1.1075,-0.001,5.0118,58.7501,25,0.7804,8068,4.0491,20.1602
rg,1625583174649184874,1,0.2039,0.8267,0.5764,719,5.6152,11.5356,-12.146,82,1.1075,0,5.0726,58.8595,25,0.7814,7931,4.0491,20.3003
rg,1625583174649202279,1,0.2056,0.8291,0.5771,720,5.0049,11.7188,-13.9771,82,1.1055,-0.001,5.1424,58.9122,25,0.7804,8163,4.0491,20.4028
rg,1625583174649220721,1,0.2073,0.8384,0.5706,721,5.0659,12.146,-12.6343,82,1.1075,0,5.17,58.9929,25,0.7804,8234,4.0491,20.5503
rg,1625583174649237738,1,0.1975,0.8301,0.5715,722,4.5776,12.6343,-13.0005,82,1.1075,0,5.2197,59.0289,25,0.7814,8222,4.0491,20.6967
rg,1625583174649273345,1,0.1921,0.833,0.5754,723,4.6997,12.0239,-12.5732,82,1.1055,0,5.2704,59.0745,25,0.7794,8250,4.0491,20.8404
rg,1625583174649294028,1,0.1941,0.8352,0.572,724,3.9673,11.3525,-13.3667,82,1.1085,0,5.3284,59.0946,26,0.7794,8238,4.0491,20.9458
rg,1625583174649310952,1,0.1997,0.8301,0.574,725,3.2959,11.1694,-13.1836,82,1.1075,0,5.3614,59.0772,26,0.7804,8262,4.0491,21.0477
rg,1625583174649328024,1,0.2007,0.834,0.5713,726,3.6011,11.3525,-12.7563,82,1.1075,-0.001,5.3807,59.0839,26,0.7804,8280,4.0491,21.1654
rg,1625583174649347541,1,0.2007,0.8284,0.5806,727,2.9907,11.3525,-12.7563,82,1.1045,0,5.3998,59.042,26,0.7804,8195,4.0491,21.2809
rg,1625583174649364298,1,0.208,0.8269,0.5715,728,2.8076,10.498,-12.6953,82,1.1085,0,5.3809,59.0067,26,0.7814,8326,4.0491,21.3692
rg,1625583174649381167,1,0.2129,0.8271,0.5674,729,2.3804,10.437,-11.8408,82,1.1085,0,5.3554,59.0082,26,0.7814,8365,4.0491,21.4644
rg,1625583174649397683,1,0.2053,0.8259,0.5696,730,3.1738,11.1694,-13.0005,82,1.1065,0,5.3671,58.9926,26,0.7804,12373,4.0491,21.5697
rg,1625583174649414811,1,0.1956,0.8186,0.5693,731,3.8452,11.1694,-12.4512,82,1.1065,0,5.3777,58.9963,25,0.7804,8452,4.0491,21.6851
rg,1625583174649432661,1,0.1965,0.8252,0.5671,732,4.0894,11.3525,-12.085,82,1.1065,0,5.3785,59.0235,25,0.7804,8395,4.0491,21.8157
rg,1625583174649449529,1,0.2041,0.8254,0.5793,733,4.0283,10.437,-12.4512,82,1.1065,0,5.3603,59.0216,25,0.7804,8447,4.0491,21.9052
rg,1625583174649466361,1,0.199,0.8247,0.5654,734,4.0283,10.8643,-12.5122,82,1.1065,0,5.3607,59.0455,25,0.7804,8698,4.0491,22.0106
rg,1625583174649484396,1,0.1992,0.824,0.5701,735,4.6387,11.2915,-13.916,82,1.1055,0,5.4182,59.0821,26,0.7794,11797,4.0491,22.1012
rg,1625583174649501709,1,0.1987,0.8254,0.5652,736,5.0659,11.1084,-13.6108,82,1.1075,0,5.4596,59.1453,26,0.7794,8571,4.0491,22.1929
rg,1625583175008399023,1,0.197,0.8264,0.5679,737,5.7983,11.1084,-13.6108,82,1.1065,0,5.4808,59.2136,26,0.7804,25251,4.0491,22.2752
rg,1625583175008434500,1,0.1953,0.8311,0.5735,738,5.3101,10.498,-13.4888,82,1.1065,0,5.5152,59.2964,26,0.7794,14750,4.0491,22.3508
rg,1625583175008456646,1,0.1926,0.8372,0.5706,739,5.249,10.8643,-14.4043,82,1.1065,0,5.5925,59.3611,26,0.7804,7778,4.0491,22.4199
rg,1625583175008475774,1,0.1895,0.8354,0.5684,740,4.6997,9.3994,-13.7939,82,1.1065,0,5.6218,59.3995,26,0.7794,7801,4.0491,22.4511
rg,1625583175008494087,1,0.1917,0.8293,0.5728,741,4.8828,8.9111,-13.1226,82,1.1065,0,5.6116,59.4279,26,0.7804,7874,4.0491,22.4778
rg,1625583175008513437,1,0.1973,0.8357,0.5645,742,4.9438,8.3008,-13.916,82,1.1065,0,5.6051,59.4772,26,0.7794,9130,4.0491,22.4698
rg,1625583175008531490,1,0.1941,0.8335,0.5662,743,4.0283,7.4463,-13.4888,82,1.1075,0,5.5732,59.4802,26,0.7794,8103,4.0491,22.4406
rg,1625583175008548637,1,0.1953,0.8325,0.5669,744,4.5166,8.8501,-15.4419,82,1.1075,0,5.6354,59.5009,25,0.7804,7959,4.0491,22.4203
rg,1625583175008565357,1,0.1975,0.8269,0.5676,745,4.3945,7.8125,-15.1367,82,1.1055,0,5.6576,59.5046,25,0.7794,7933,4.0491,22.3694
rg,1625583175008582744,1,0.2024,0.8328,0.5603,746,4.5776,8.0566,-14.4043,82,1.1075,0,5.6487,59.5388,25,0.7804,7912,4.0491,22.3439
rg,1625583175008599668,1,0.2017,0.8313,0.5735,747,5.0049,8.1177,-15.2588,82,1.1085,0,5.6749,59.5612,25,0.7804,7948,4.0491,22.3009
rg,1625583175008617648,1,0.2063,0.8372,0.5735,748,5.0049,8.1177,-15.0146,82,1.1065,0,5.6841,59.5906,26,0.7804,7977,4.0491,22.2637
rg,1625583175008634887,1,0.2021,0.8391,0.5674,749,5.9814,9.2773,-15.3809,82,1.1085,0,5.7365,59.6746,26,0.7774,8033,4.0491,22.2609
rg,1625583175008651607,1,0.1956,0.8406,0.5652,750,5.3101,9.8267,-15.625,82,1.1085,0,5.7783,59.7621,26,0.7804,8010,4.0491,22.2694
rg,1625583175008668198,1,0.199,0.8472,0.564,751,5.4932,9.0332,-15.686,82,1.1065,0,5.8412,59.8346,26,0.7804,8067,4.0469,22.2549
rg,1625583175008708935,1,0.1931,0.8423,0.5574,752,5.0659,8.7891,-15.625,89,1.1075,0,5.9038,59.8926,25,0.7804,14185,4.0469,22.2341
rg,1625583175008726637,1,0.1987,0.842,0.5601,753,4.6387,7.6904,-15.3198,89,1.1065,0,5.9205,59.9229,25,0.7794,8121,4.0469,22.181
rg,1625583175008743561,1,0.2031,0.8345,0.5662,754,3.7842,7.5684,-15.564,89,1.1065,0,5.9326,59.8966,25,0.7794,8131,4.0469,22.1168
rg,1625583175008760837,1,0.1987,0.8323,0.5605,755,3.1128,7.019,-15.7471,89,1.1075,0,5.9466,59.8496,25,0.7794,8181,4.0469,22.0303
rg,1625583175008777428,1,0.2036,0.8274,0.564,756,3.6621,6.4697,-15.7471,89,1.1075,0,5.9382,59.812,25,0.7794,8135,4.0469,21.923
rg,1625583175008794759,1,0.2051,0.8293,0.5669,757,3.418,6.2866,-15.9912,89,1.1085,0,5.9365,59.7842,25,0.7814,9109,4.0469,21.8239
rg,1625583175008814072,1,0.2002,0.8228,0.571,758,4.4556,7.019,-16.0522,89,1.1055,0,5.9572,59.7632,25,0.7794,8305,4.0469,21.7271
rg,1625583175008831218,1,0.2,0.8213,0.5605,759,5.4932,6.6528,-15.9302,89,1.1085,0,5.9631,59.8009,25,0.7784,8238,4.0469,21.6217
rg,1625583175008847550,1,0.2034,0.8171,0.5669,760,5.4321,5.6763,-15.3198,89,1.1075,0,5.9213,59.8156,25,0.7794,8272,4.0469,21.493
rg,1625583175008863937,1,0.2024,0.8215,0.5676,761,5.3711,6.2866,-16.3574,89,1.1065,0,5.9328,59.8316,25,0.7794,8290,4.0469,21.3654
rg,1625583175008880880,1,0.2053,0.8174,0.5684,762,6.897,5.7373,-15.686,89,1.1035,0,5.9026,59.9008,25,0.7794,8329,4.0469,21.2316
rg,1625583175008897637,1,0.2117,0.8179,0.573,763,6.897,5.6152,-15.0757,89,1.1065,0,5.8382,59.9607,25,0.7804,8416,4.0469,21.1057
rg,1625583175008914080,1,0.2156,0.8259,0.5789,764,7.2021,5.9204,-16.1743,89,1.1085,0,5.8377,60.0245,25,0.7804,8402,4.0469,20.9964
rg,1625583175008930486,1,0.2131,0.8289,0.5774,765,7.019,6.2866,-15.3809,89,1.1065,0,5.8016,60.0923,25,0.7794,8405,4.0469,20.8895
rg,1625583175008946947,1,0.2114,0.8335,0.5725,766,7.6294,6.1035,-15.3198,89,1.1085,0,5.7652,60.1961,25,0.7794,8413,4.0469,20.7795
rg,1625583175008980240,1,0.2056,0.8408,0.5742,767,6.6528,8.2397,-17.0898,89,1.1075,0,5.8485,60.2665,25,0.7804,8420,4.0469,20.7105
rg,1625583175008999405,1,0.1973,0.844,0.5703,768,7.0801,7.8125,-15.5029,89,1.1085,0,5.8853,60.3093,25,0.7804,8456,4.0469,20.6459
rg,1625583175363999041,1,0.2041,0.8413,0.5571,769,3.9062,5.9814,-15.8081,89,1.1075,0,5.8744,60.2922,26,0.7794,25106,4.0469,20.5272
rg,1625583175364063849,1,0.1997,0.8362,0.5576,770,2.9297,6.2866,-16.6626,89,1.1075,0,5.9071,60.2287,26,0.7794,17302,4.0469,20.4014
rg,1625583175364086051,1,0.1943,0.8333,0.5583,771,2.1973,5.4321,-16.1133,89,1.1075,0,5.9129,60.1313,26,0.7794,7802,4.0469,20.2554
rg,1625583175364107734,1,0.2019,0.8389,0.5537,772,2.9297,4.2725,-16.2354,89,1.1075,0,5.8845,60.0781,26,0.7794,7844,4.0469,20.0674
rg,1625583175364137194,1,0.2104,0.8372,0.5601,773,3.0518,3.9062,-15.9302,89,1.1075,0,5.8225,60.0178,26,0.7794,7886,4.0469,19.871
rg,1625583175364162469,1,0.2131,0.8367,0.5574,774,3.2959,4.7607,-17.0288,89,1.1075,0,5.8113,59.9748,26,0.7804,10248,4.0469,19.6827
rg,1625583175364182022,1,0.2168,0.8335,0.5505,775,4.0894,4.9438,-17.0898,89,1.1075,0,5.7958,59.9747,26,0.7794,7920,4.0469,19.5002
rg,1625583175364201409,1,0.2244,0.8367,0.5508,776,4.3945,6.1646,-16.7847,89,1.1075,0,5.743,60.0051,26,0.7794,7946,4.0469,19.3657
rg,1625583175364218981,1,0.2239,0.8391,0.5549,777,4.8218,6.1035,-16.9678,89,1.1075,0,5.7375,60.0364,25,0.7794,7920,4.0469,19.2264
rg,1625583175364238220,1,0.2522,0.8125,0.541,778,3.6621,5.3101,-16.4795,89,1.1075,0,5.6277,60.0131,25,0.7794,7954,4.0469,19.0692
rg,1625583175364258199,1,0.2197,0.8499,0.5442,779,5.9814,9.3994,-16.2354,89,1.1075,0,5.6762,60.1361,25,0.7804,9936,4.0469,19.0631
rg,1625583175364277420,1,0.2153,0.8523,0.5479,780,4.6387,8.9722,-15.5029,89,1.1065,0,5.7006,60.1323,25,0.7804,7998,4.0469,19.0552
rg,1625583175364295862,1,0.2158,0.8445,0.5522,781,4.2725,8.2397,-14.6484,89,1.1065,0,5.6766,60.1603,26,0.7784,8035,4.0469,19.039
rg,1625583175364313397,1,0.2251,0.8472,0.5613,782,3.6011,7.5684,-13.7329,89,1.1085,0,5.5928,60.1467,26,0.7774,8308,4.0469,19.0166
rg,1625583175364429885,1,0.2256,0.842,0.5566,783,3.3569,7.6904,-14.1602,89,1.1085,0,5.5265,60.1524,26,0.7794,8068,4.0469,19.0122
rg,1625583175364461456,1,0.2253,0.8433,0.5659,784,3.479,8.3618,-14.1602,89,1.1065,0,5.4781,60.123,26,0.7784,8096,4.0469,19.0081
rg,1625583175364482528,1,0.2183,0.845,0.5583,785,4.0894,8.2397,-12.9395,89,1.1075,0,5.4,60.1367,25,0.7784,8138,4.0469,19.0254
rg,1625583175364499378,1,0.2175,0.8445,0.554,786,4.2725,7.5073,-11.7798,89,1.1085,0,5.2705,60.1644,25,0.7804,8157,4.0469,19.0412
rg,1625583175364521561,1,0.2163,0.8442,0.5537,787,4.2114,7.019,-12.207,89,1.1065,0,5.1534,60.1864,25,0.7784,8167,4.0469,19.0319
rg,1625583175364539448,1,0.2432,0.8259,0.553,788,3.9062,9.3384,-12.146,89,1.1065,0,5.0223,60.1828,25,0.7794,8185,4.0469,19.1036
rg,1625583175364556687,1,0.2,0.8442,0.5371,789,3.418,9.5825,-11.5967,89,1.1065,0,4.9742,60.2119,26,0.7794,8967,4.0469,19.1993
rg,1625583175364580814,1,0.2249,0.8313,0.5461,790,3.0518,7.1411,-10.6201,89,1.1085,-0.001,4.7916,60.1876,26,0.7804,8229,4.0469,19.2268
rg,1625583175364604571,1,0.2363,0.8403,0.543,791,3.0518,6.4697,-9.9487,89,1.1075,0,4.5765,60.1687,26,0.7804,8166,4.0469,19.2451
rg,1625583175364649770,1,0.2334,0.8311,0.5483,792,2.1973,8.9722,-10.498,89,1.1065,0,4.4238,60.1128,26,0.7794,8292,4.0469,19.3393
rg,1625583175364671008,1,0.2295,0.834,0.5474,793,2.4414,10.0708,-10.9253,89,1.1065,0,4.3223,60.0761,25,0.7804,8313,4.0469,19.4638
rg,1625583175364691451,1,0.2251,0.8359,0.5457,794,2.5024,9.6436,-10.376,89,1.1075,0,4.2067,60.0482,25,0.7794,8358,4.0469,19.5846
rg,1625583175364709467,1,0.2324,0.8391,0.5454,795,3.2349,9.7656,-10.6812,89,1.1065,-0.001,4.0944,60.0546,25,0.7784,8378,4.0469,19.704
rg,1625583175364728040,1,0.2283,0.8381,0.5364,796,4.3335,10.376,-9.7046,89,1.1065,-0.001,3.9706,60.123,25,0.7794,8239,4.0469,19.8653
rg,1625583175364747908,1,0.2266,0.8386,0.5439,797,4.3335,11.2915,-11.4746,89,1.1085,0,3.9362,60.1746,25,0.7804,8403,4.0469,20.0232
rg,1625583175364766739,1,0.2295,0.8416,0.543,798,5.0659,11.3525,-11.1084,89,1.1075,0,3.8334,60.2064,25,0.7794,8448,4.0469,20.2108
rg,1625583175364810587,1,0.2268,0.8379,0.5417,799,5.127,11.6577,-9.9487,89,1.1065,0,3.757,60.2922,25,0.7794,8446,4.0469,20.4128
rg,1625583175364839472,1,0.2341,0.8491,0.5437,800,4.5776,11.5967,-10.9863,89,1.1075,0,3.7077,60.3609,25,0.7784,8483,4.0469,20.5937
rg,1625583175718636327,1,0.2334,0.8474,0.5413,801,5.3711,11.6577,-8.728,89,1.1065,0,3.63,60.4656,25,0.7784,25385,4.0469,20.846
rg,1625583175718671490,1,0.2283,0.8474,0.5481,802,4.8828,12.8784,-8.8501,89,1.1065,0,3.5518,60.5299,26,0.7794,14528,4.0469,21.1143
rg,1625583175718691710,1,0.2219,0.8486,0.5603,803,5.249,13.7329,-9.2773,89,1.1065,0,3.5209,60.5909,26,0.7794,7848,4.0469,21.4037
rg,1625583175718710541,1,0.2114,0.8533,0.562,804,4.2725,13.1836,-8.0566,89,1.1065,0,3.4613,60.6127,26,0.7794,7841,4.0469,21.6984
rg,1625583175718728261,1,0.2151,0.8486,0.5583,805,3.7231,12.3901,-9.5215,89,1.1075,0,3.4295,60.6094,26,0.7794,7810,4.0469,21.9371
rg,1625583175718745649,1,0.2175,0.8521,0.5542,806,3.6621,11.5356,-9.0942,89,1.1075,0,3.3626,60.614,26,0.7794,7970,4.0469,22.1551
rg,1625583175718762406,1,0.2197,0.8496,0.5535,807,2.9297,11.2915,-9.3994,89,1.1055,0,3.2986,60.5867,26,0.7784,10967,4.0469,22.3587
rg,1625583175718779090,1,0.2207,0.8462,0.5547,808,2.5635,11.4136,-8.667,89,1.1075,0,3.2111,60.5403,26,0.7794,7899,4.0469,22.5806
rg,1625583175718796143,1,0.228,0.8416,0.5552,809,2.3193,11.1084,-8.667,89,1.1075,0,3.0939,60.4599,26,0.7794,7890,4.0469,22.7903
rg,1625583175718813512,1,0.2266,0.8523,0.5408,810,2.0752,11.2305,-8.9111,89,1.1035,0,3.0063,60.4306,25,0.7784,7919,4.0469,23.0024
rg,1625583175718830936,1,0.2073,0.8372,0.5574,811,1.6479,11.6577,-9.7046,89,1.1065,0,2.997,60.3357,25,0.7794,7955,4.0469,23.211
rg,1625583175718848360,1,0.2156,0.8403,0.5598,812,0.9766,10.6812,-9.0332,89,1.1065,0,2.9303,60.2161,25,0.7804,7969,4.0469,23.3982
rg,1625583175718865340,1,0.2231,0.8425,0.5525,813,1.4648,10.3149,-10.376,89,1.1085,0,2.889,60.1348,25,0.7784,7909,4.0469,23.5462
rg,1625583175718932222,1,0.2263,0.832,0.5593,814,1.3428,11.4746,-10.9253,89,1.1075,0,2.8828,60.0279,25,0.7794,8007,4.0469,23.7219
rg,1625583175718954331,1,0.2229,0.8394,0.5569,815,2.3804,11.1084,-10.9863,89,1.1065,0,2.881,59.9791,25,0.7784,8002,4.0469,23.8833
rg,1625583175718973977,1,0.219,0.8367,0.552,816,2.0752,11.4136,-11.1694,89,1.1085,0,2.8978,59.926,25,0.7784,8077,4.0469,24.0515
rg,1625583175718990623,1,0.2275,0.8376,0.552,817,1.5869,10.2539,-10.8643,89,1.1085,0,2.8631,59.8552,25,0.7794,8086,4.0469,24.1852
rg,1625583175719007973,1,0.2329,0.8418,0.552,818,2.6245,10.8032,-11.2305,89,1.1065,0,2.8439,59.8342,25,0.7784,8105,4.0469,24.3304
rg,1625583175719025286,1,0.2305,0.8267,0.5544,819,1.709,11.2915,-11.1084,89,1.1075,0,2.831,59.7554,25,0.7784,8113,4.0469,24.4937
rg,1625583175719042377,1,0.2332,0.8315,0.5474,820,2.3804,11.2915,-11.9629,89,1.1075,0,2.8426,59.7247,25,0.7794,8215,4.0469,24.6401
rg,1625583175719060134,1,0.2256,0.835,0.5586,821,2.0142,11.3525,-11.4746,89,1.1075,0,2.8582,59.6644,25,0.7794,8299,4.0469,24.7973
rg,1625583175719076929,1,0.228,0.8384,0.5564,822,2.9297,11.1084,-10.9253,89,1.1075,0,2.8451,59.6513,25,0.7794,8226,4.0469,24.9569
rg,1625583175719094594,1,0.2292,0.8323,0.554,823,3.0518,11.4136,-11.1084,89,1.1075,0,2.8281,59.5959,25,0.7794,8246,4.0469,25.126
rg,1625583175719111759,1,0.2273,0.8335,0.5615,824,2.2583,11.4136,-10.9253,89,1.1075,0,2.8236,59.5437,25,0.7794,8266,4.0469,25.2949
rg,1625583175719127776,1,0.2258,0.8315,0.5564,825,2.5635,11.5356,-11.0474,89,1.1075,0,2.8271,59.5128,25,0.7784,8995,4.0469,25.4654
rg,1625583175719145163,1,0.23,0.8359,0.553,826,2.0142,11.4136,-11.2915,89,1.1065,0,2.8285,59.4725,26,0.7784,11383,4.0469,25.6271
rg,1625583175719161531,1,0.2275,0.8279,0.5518,827,2.0752,11.4136,-10.1318,89,1.1065,0,2.7919,59.4296,26,0.7774,8360,4.0469,25.8116
rg,1625583175719177900,1,0.2256,0.8293,0.5542,828,2.3804,10.3149,-10.376,89,1.1075,0,2.7483,59.3956,26,0.7804,8577,4.0469,25.9527
rg,1625583175719205304,1,0.2346,0.8286,0.5522,829,2.1973,10.8032,-10.8643,89,1.1085,0,2.7174,59.3506,26,0.7804,8365,4.0469,26.1003
rg,1625583175719224839,1,0.239,0.8345,0.5557,830,1.8311,9.9487,-10.5591,89,1.1065,0,2.6502,59.3006,25,0.7784,8494,4.0469,26.2249
rg,1625583175719242097,1,0.2361,0.8232,0.5588,831,1.2817,11.7798,-11.5356,89,1.1085,0,2.6589,59.2128,25,0.7784,8422,4.0469,26.3915
rg,1625583175719258854,1,0.2322,0.8291,0.5581,832,0.9766,11.5356,-11.2915,89,1.1085,0,2.6644,59.1246,25,0.7794,8457,4.0469,26.5542
rg,1625583176085591454,1,0.2322,0.8245,0.5579,833,1.77,11.3525,-10.437,89,1.1075,0,2.635,59.0666,25,0.7794,25248,4.0469,26.7271
rg,1625583176085691870,1,0.2354,0.8289,0.5593,834,1.2207,11.2915,-10.6812,89,1.1075,0,2.6096,58.9913,25,0.7794,16016,4.0469,26.8925
rg,1625583176085744347,1,0.2317,0.835,0.5728,835,1.3428,11.3525,-10.437,89,1.1075,0,2.5917,58.9068,26,0.7794,7755,4.0469,27.0636
rg,1625583176085793583,1,0.2305,0.8308,0.5681,836,1.9531,11.2915,-11.5356,89,1.1075,0,2.6107,58.8522,26,0.7794,7828,4.0469,27.2095
rg,1625583176085841245,1,0.231,0.8323,0.5688,837,1.4648,11.2305,-12.5732,89,1.1075,0,2.6631,58.7796,26,0.7794,7870,4.0469,27.3313
rg,1625583176085886518,1,0.2354,0.824,0.5693,838,0.7324,10.9863,-11.6577,89,1.1075,0,2.6653,58.6701,26,0.7794,7862,4.0469,27.4624
rg,1625583176085930347,1,0.2361,0.822,0.5615,839,0.6714,10.5591,-12.2681,89,1.1085,0,2.6753,58.573,26,0.7804,9768,4.0469,27.5658
rg,1625583176085975287,1,0.2378,0.8279,0.5625,840,0.9155,10.3149,-11.8408,89,1.1085,0,2.6343,58.4973,26,0.7794,7891,4.0469,27.668
rg,1625583176086018375,1,0.2415,0.825,0.5613,841,1.0986,9.5825,-11.1694,89,1.1045,0,2.578,58.4275,26,0.7784,7880,4.0469,27.7595
rg,1625583176086985374,1,0.2446,0.8313,0.5635,842,1.0986,10.1929,-11.5967,89,1.1075,0,2.5478,58.3647,26,0.7794,10609,4.0469,27.8627
rg,1625583176087055515,1,0.2358,0.8464,0.5454,843,0.2441,10.3149,-12.5122,89,1.1075,0,2.5717,58.3208,25,0.7794,8299,4.0469,27.9526
rg,1625583176087108066,1,0.2488,0.8643,0.5435,844,-3.6621,9.5215,-11.0474,89,1.1075,0,2.5088,58.1474,25,0.7794,7983,4.0469,28.047
rg,1625583176087249107,1,0.2544,0.8662,0.5571,845,-5.5542,10.8032,-12.085,89,1.1075,0,2.474,57.7527,25,0.7794,8029,4.0469,28.179
rg,1625583176087301862,1,0.2546,0.8499,0.5879,846,-9.6436,10.9863,-10.6812,89,1.1075,0,2.4293,57.2677,25,0.7784,8048,4.0469,28.322
rg,1625583176087349857,1,0.2393,0.8428,0.5869,847,-11.7798,11.5967,-11.5967,89,1.1115,0,2.4592,56.7087,26,0.7784,8562,4.0469,28.4609
rg,1625583176087397797,1,0.2344,0.8311,0.5894,848,-14.3433,10.1318,-10.3149,89,1.1085,0,2.4208,56.049,26,0.7794,8705,4.0469,28.5729
rg,1625583176087446125,1,0.2292,0.825,0.592,849,-14.2212,9.2163,-10.1318,89,1.1095,0,2.3675,55.4058,26,0.7774,8138,4.0469,28.6525
rg,1625583176087495306,1,0.2222,0.8118,0.6035,850,-15.0757,7.2021,-8.9111,89,1.1055,0,2.2442,54.7141,26,0.7774,8133,4.0469,28.6872
rg,1625583176087547097,1,0.2231,0.8035,0.5977,851,-13.916,5.0659,-9.0942,89,1.1095,-0.001,2.0761,54.0922,26,0.7794,8202,4.0469,28.6436
rg,1625583176087592981,1,0.2271,0.7993,0.5928,852,-14.0381,3.479,-8.606,89,1.1095,0,1.8375,53.4966,26,0.7784,8035,4.0469,28.557
rg,1625583176087637496,1,0.239,0.7976,0.5872,853,-12.3901,1.4038,-8.4839,89,1.1085,0,1.5391,52.9911,26,0.7774,8216,4.0469,28.4038
rg,1625583176087687694,1,0.259,0.7986,0.5825,854,-11.5356,2.1362,-8.667,89,1.1095,0,1.2317,52.55,26,0.7774,8228,4.0469,28.2678
rg,1625583176087736375,1,0.2612,0.7842,0.5818,855,-10.498,3.1738,-9.8267,89,1.1095,0,0.9923,52.1867,26,0.7774,8254,4.0469,28.1379
rg,1625583176087782704,1,0.2573,0.7808,0.5823,856,-8.5449,5.188,-10.5591,89,1.1075,0,0.8341,51.8746,26,0.7764,8232,4.0469,28.0467
rg,1625583176087829606,1,0.2529,0.782,0.5801,857,-7.2021,5.6763,-10.6201,89,1.1095,0,0.7045,51.634,26,0.7764,8279,4.0469,27.9669
rg,1625583176087874658,1,0.2576,0.7766,0.571,858,-4.5776,6.8359,-12.8174,89,1.1105,0,0.662,51.5165,26,0.7774,8287,4.0469,27.8671
rg,1625583176087925338,1,0.2561,0.7825,0.5759,859,-3.2959,7.6904,-13.1836,89,1.1105,-0.001,0.6608,51.4539,25,0.7774,8320,4.0469,27.7838
rg,1625583176088025050,1,0.2566,0.7847,0.5752,860,-1.3428,8.3008,-13.2446,89,1.1055,0,0.6763,51.4761,25,0.7754,8218,4.0469,27.7174
rg,1625583176088080230,1,0.2603,0.7896,0.5818,861,1.0376,9.3384,-13.3057,89,1.1105,0,0.7153,51.5874,25,0.7754,8350,4.0469,27.6824
rg,1625583176088127670,1,0.26,0.7886,0.583,862,1.0376,10.1318,-15.0757,89,1.1095,0,0.7997,51.6885,25,0.7744,8381,4.0469,27.6524
rg,1625583176088175110,1,0.2646,0.7937,0.5869,863,2.6855,11.2305,-13.6719,89,1.1115,0,0.8864,51.8544,25,0.7754,10938,4.0469,27.6703
rg,1625583176088221605,1,0.2629,0.7961,0.5891,864,2.9907,12.0239,-14.5264,89,1.1115,0,1.0251,52.0223,25,0.7744,8438,4.0469,27.6943
rg,1625583176444298072,1,0.2488,0.8042,0.5833,865,4.8828,12.0239,-14.1602,89,1.1105,-0.001,1.1739,52.2841,26,0.7724,25764,4.0469,27.7299
rg,1625583176444387878,1,0.2527,0.7998,0.5884,866,4.3945,11.3525,-14.4653,89,1.1105,0,1.3019,52.5007,26,0.7724,14373,4.0469,27.7399
rg,1625583176444442799,1,0.2578,0.7998,0.5891,867,5.127,11.3525,-14.0991,89,1.1105,0,1.3748,52.7035,26,0.7724,7863,4.0469,27.7767
rg,1625583176444493979,1,0.2585,0.8042,0.593,868,5.0049,11.2915,-13.3667,88,1.1105,0,1.4497,52.9266,25,0.7724,7875,4.0436,27.8163
rg,1625583176444541363,1,0.2573,0.7993,0.5891,869,5.3711,11.7798,-12.8784,88,1.1105,0,1.5169,53.1571,25,0.7724,7898,4.0436,27.8858
rg,1625583176444587525,1,0.2583,0.8025,0.5928,870,4.6387,11.7798,-12.8784,88,1.1105,0,1.6216,53.3798,25,0.7714,7926,4.0436,27.9276
rg,1625583176444632039,1,0.2505,0.7981,0.5918,871,6.0425,12.0239,-13.2446,88,1.1105,0,1.7136,53.6136,25,0.7714,11196,4.0436,28.0012
rg,1625583176444678146,1,0.2515,0.7976,0.5952,872,5.6152,12.207,-13.0005,88,1.1125,0,1.7964,53.8111,26,0.7724,8601,4.0436,28.0887
rg,1625583176444721105,1,0.2502,0.7949,0.5959,873,6.0425,12.3901,-13.7939,88,1.1065,0,1.908,54.017,26,0.7704,8000,4.0436,28.1657
rg,1625583176444967933,1,0.2498,0.7913,0.5986,874,6.5918,12.207,-14.3433,88,1.1125,0,2.0288,54.2268,26,0.7724,7995,4.0436,28.2259
rg,1625583176445062164,1,0.2512,0.7971,0.5911,875,7.2632,11.2915,-13.9771,88,1.1125,0,2.1045,54.4775,26,0.7724,8037,4.0436,28.268
rg,1625583176445118788,1,0.2578,0.7996,0.592,876,7.019,11.1694,-13.916,88,1.1095,0,2.1643,54.7089,26,0.7704,8031,4.0436,28.3103
rg,1625583176445169357,1,0.2551,0.8035,0.5857,877,7.6904,11.9629,-14.2822,88,1.1105,0,2.2568,54.9755,26,0.7724,8044,4.0436,28.3733
rg,1625583176445223463,1,0.2522,0.7959,0.5911,878,7.9956,12.6953,-15.1978,88,1.1115,0,2.4015,55.2195,26,0.7714,8058,4.0436,28.4415
rg,1625583176445273144,1,0.2539,0.7993,0.5889,879,9.2163,11.9629,-13.5498,88,1.1075,0,2.4622,55.5173,26,0.7704,8113,4.0436,28.5263
rg,1625583176445318917,1,0.2544,0.8,0.5884,880,9.6436,11.5967,-13.6719,88,1.1105,0,2.515,55.8222,26,0.7704,9334,4.0436,28.5995
rg,1625583176445366727,1,0.2542,0.7988,0.5886,881,10.8643,12.5732,-14.9536,88,1.1125,0,2.6296,56.1625,26,0.7694,9712,4.0436,28.6797
rg,1625583176445413852,1,0.2561,0.804,0.5911,882,10.8032,13.0615,-14.0991,88,1.1125,0,2.7205,56.4915,26,0.7714,8163,4.0436,28.7991
rg,1625583176445460848,1,0.252,0.8069,0.5867,883,10.7422,13.0005,-14.5264,88,1.1095,0,2.8285,56.8169,26,0.7704,8292,4.0436,28.9112
rg,1625583176445505732,1,0.2498,0.8145,0.5806,884,10.9253,13.3057,-14.4653,88,1.1115,0,2.942,57.1586,26,0.7704,8247,4.0436,29.0395
rg,1625583176445550580,1,0.2471,0.8167,0.5781,885,10.498,12.6343,-13.7329,88,1.1125,0,3.0171,57.4773,26,0.7714,8263,4.0436,29.165
rg,1625583176446189369,1,0.2507,0.8237,0.5818,886,9.5825,12.6343,-14.5874,88,1.1105,0,3.1124,57.7276,26,0.7714,8286,4.0436,29.2745
rg,1625583176446252456,1,0.25,0.8237,0.5884,887,9.2773,11.7188,-13.9771,88,1.1105,0,3.1685,57.9649,26,0.7704,8299,4.0436,29.369
rg,1625583176446401293,1,0.2554,0.8242,0.5867,888,6.958,12.8784,-14.3433,88,1.1115,0,3.2787,58.1544,26,0.7704,11978,4.0436,29.4901
rg,1625583176446493303,1,0.2515,0.8162,0.584,889,6.6528,11.9629,-13.916,88,1.1115,0,3.3236,58.2699,26,0.7704,8405,4.0436,29.5982
rg,1625583176446541094,1,0.248,0.8149,0.584,890,6.4087,12.5122,-13.7329,88,1.1115,0,3.3784,58.371,26,0.7704,9267,4.0436,29.7298
rg,1625583176446586682,1,0.2405,0.8127,0.5835,891,6.4697,12.085,-12.5732,88,1.1115,0,3.3971,58.4692,26,0.7704,8447,4.0436,29.8718
rg,1625583176446631048,1,0.2405,0.8069,0.5869,892,5.7373,11.9019,-12.9395,88,1.1115,0,3.4096,58.5431,26,0.7714,8534,4.0436,29.979
rg,1625583176446674211,1,0.2402,0.8098,0.5874,893,5.6763,11.4746,-13.2446,88,1.1105,0,3.4375,58.5903,26,0.7724,8850,4.0436,30.0871
rg,1625583176446716410,1,0.2444,0.812,0.5903,894,5.6152,11.4136,-14.1602,88,1.1105,-0.001,3.4873,58.6298,26,0.7704,8650,4.0436,30.1743
rg,1625583176446762869,1,0.2498,0.8135,0.5908,895,5.7983,11.4136,-13.2446,88,1.1125,0,3.4938,58.6776,25,0.7704,8392,4.0436,30.2808
rg,1625583176446806050,1,0.2502,0.8137,0.5876,896,4.6997,11.2915,-13.3667,88,1.1125,0,3.4997,58.6853,25,0.7724,8576,4.0436,30.3814
rg,1625583176800982350,1,0.2476,0.8142,0.572,897,4.7607,11.2305,-14.0381,88,1.1115,0,3.5281,58.7229,25,0.7714,25439,4.0436,30.4679
rg,1625583176801068619,1,0.2449,0.8093,0.5703,898,4.3945,11.7188,-13.7329,88,1.1115,0,3.5237,58.7665,25,0.7704,17105,4.0436,30.5661
rg,1625583176801121188,1,0.2493,0.8152,0.5779,899,4.7607,11.5967,-13.855,88,1.1115,0,3.551,58.7927,25,0.7714,8017,4.0436,30.6691
rg,1625583176801172202,1,0.2485,0.8086,0.5759,900,4.4556,11.4746,-13.6108,88,1.1115,0,3.5647,58.801,25,0.7714,7851,4.0436,30.7728
rg,1625583176801220993,1,0.248,0.8162,0.572,901,5.249,11.3525,-13.7329,88,1.1115,0,3.573,58.8508,25,0.7704,7855,4.0436,30.8706
rg,1625583176801483671,1,0.2527,0.812,0.5791,902,5.6763,11.2305,-13.5498,88,1.1115,0,3.5725,58.9039,25,0.7704,7860,4.0436,30.9676
rg,1625583176801644804,1,0.2495,0.8069,0.5725,903,5.3101,11.2915,-12.7563,88,1.1135,0,3.5484,58.9469,25,0.7704,9617,4.0436,31.0839
rg,1625583176801789142,1,0.2515,0.8091,0.5713,904,5.8594,12.146,-14.4653,88,1.1125,0,3.5976,59.015,25,0.7714,7981,4.0436,31.1953
rg,1625583176801845543,1,0.2483,0.8162,0.5725,905,6.3477,12.0239,-14.2822,88,1.1105,0,3.6458,59.1067,26,0.7704,7950,4.0436,31.3073
rg,1625583176801896427,1,0.2498,0.8083,0.5693,906,5.9204,11.1084,-13.5498,88,1.1125,0,3.6411,59.1728,26,0.7694,7968,4.0436,31.4032
