name,time,activity,ax,ay,az,batch_val,gx,gy,gz,ibat,index,middle,pitch,roll,temp,thumb,ts,vbat,yaw
lg,1625260607413266407,0,0.4778,-0.114,0.9131,1,-37.7197,1.2207,-10.0098,61,1.3437,1.0375,-39.215,10.2497,25,0.043,19593,4.0194,149.9249
lg,1625260607413349787,0,0.4446,-0.146,0.897,2,-36.6821,2.5024,-13.0005,61,1.3447,1.0375,-38.4284,8.3684,25,0.042,8514,4.0194,149.7671
lg,1625260607413374703,0,0.3591,-0.1838,0.9365,3,-32.5317,-2.7466,-16.1133,61,1.3437,1.0375,-37.8195,6.6901,25,0.043,7877,4.0194,149.4901
lg,1625260607413397182,0,0.3745,-0.2178,0.9834,4,-26.6113,-19.7754,-17.5171,61,1.3437,1.0385,-37.9078,5.3543,25,0.042,7953,4.0194,149.0411
lg,1625260607413417715,0,0.418,-0.1956,0.9358,5,-23.5596,-28.3813,-18.7988,61,1.3447,1.0385,-38.5325,4.3945,25,0.042,7939,4.0194,148.3863
lg,1625260607413436397,0,0.4812,-0.1602,0.9109,6,-22.7661,-38.8794,-21.1792,61,1.3417,1.0405,-39.6087,3.6196,25,0.043,7984,4.0194,147.5574
lg,1625260607413454097,0,0.5107,-0.1506,0.8879,7,-25.2686,-44.7998,-21.7896,61,1.3427,1.0415,-40.9638,2.8448,25,0.041,7992,4.0194,146.6606
lg,1625260607413472458,0,0.5254,-0.1631,0.8901,8,-28.0762,-44.9829,-20.9961,61,1.3437,1.0405,-42.3335,1.9373,25,0.041,8035,4.0194,145.8313
lg,1625260607413490271,0,0.6045,-0.1641,0.9326,9,-28.3203,-43.396,-19.2871,61,1.3427,1.0405,-43.6669,1.0332,25,0.041,8016,4.0194,145.0765
lg,1625260607413510351,0,0.6472,-0.1943,0.9263,10,-24.292,-35.9497,-21.6064,61,1.3437,1.0375,-44.7378,0.3429,25,0.04,8030,4.0194,144.2476
lg,1625260607413529391,0,0.6428,-0.1873,0.9292,11,-22.8271,-29.8462,-22.644,61,1.3437,1.0405,-45.3097,-0.0652,25,0.04,8040,4.0194,143.2682
lg,1625260607413550435,0,0.6284,-0.1877,0.9297,12,-18.1274,-21.6675,-26.4282,61,1.3407,1.0385,-45.7244,-0.2425,25,0.039,8043,4.0194,142.1394
lg,1625260607413568134,0,0.6179,-0.1509,0.8706,13,-13.9771,-17.8833,-29.0527,61,1.3437,1.0385,-46.0211,-0.047,25,0.039,8752,4.0194,140.7908
lg,1625260607413638631,0,0.5925,-0.1252,0.8357,14,-14.1602,-12.3901,-28.7476,61,1.3437,1.0385,-46.0828,0.189,25,0.039,8014,4.0194,139.4159
lg,1625260607413668307,0,0.3372,-0.4368,0.8022,15,-36.5601,-34.4849,-3.7231,129,1.3407,1.0115,-46.6306,-2.6048,25,0.04,13195,3.9523,140.2942
lg,1625260607413687802,0,0.3369,-0.5234,0.843,16,-54.1992,-32.0435,-3.9062,129,1.3427,1.0225,-47.0169,-6.2073,25,0.033,8110,3.9523,141.2986
lg,1625260607413706408,0,0.2268,-0.666,0.8362,17,-64.3921,-29.6631,-11.4746,129,1.3417,1.0275,-47.16,-10.1687,25,0.032,8035,3.9523,142.1154
lg,1625260607413724844,0,0.1553,-0.677,0.8267,18,-67.9321,-35.7056,-13.0005,129,1.3387,1.0295,-47.4044,-14.2142,25,0.036,7934,3.9523,142.9427
lg,1625260607413743016,0,0.2515,-0.6794,0.7612,19,-66.6504,-56.3965,-16.1743,129,1.3377,1.0285,-48.628,-18.3584,25,0.04,7941,3.9523,144.0379
lg,1625260607413761094,0,0.1938,-0.823,0.9966,20,-28.3813,-53.5278,-33.9355,129,1.3377,1.0265,-49.7169,-20.0326,25,0.038,8643,3.9523,144.0642
lg,1625260607413778492,0,-0.1172,0.0537,0.4338,21,10.0708,-32.7148,-30.9448,129,1.3367,1.0265,-49.457,-17.248,25,0.039,8003,3.9523,141.7758
lg,1625260607413796645,0,-0.0229,-0.1982,0.5974,22,-18.6768,-68.2983,-21.7285,129,1.3357,1.0265,-50.5239,-18.0404,25,0.041,8011,3.9523,141.8117
lg,1625260607413815176,0,0.5168,-0.5752,0.8298,23,-38.0249,-85.8765,14.8926,129,1.3417,1.0285,-52.6439,-22.6587,25,0.039,8196,3.9523,145.3255
lg,1625260607413833480,0,0.8655,-0.8357,0.9836,24,-30.0293,-39.6729,19.5312,129,1.3387,1.0305,-53.0608,-26.5835,25,0.039,8053,3.9523,148.3315
lg,1625260607413851142,0,0.6599,-0.8545,0.9717,25,-14.8926,-2.6855,15.1978,129,1.3387,1.0335,-51.3708,-27.4917,25,0.043,8815,3.9523,149.1449
lg,1625260607413868747,0,0.571,-0.6675,0.9285,26,5.6763,18.0664,11.3525,129,1.3367,1.0325,-49.5807,-27.7916,25,0.043,8165,3.9523,149.5957
lg,1625260607413957170,0,0.5466,-0.7451,0.9314,27,24.4751,39.2456,4.1504,129,1.3397,1.0335,-47.1865,-26.7583,25,0.043,8155,3.9523,149.1824
lg,1625260607413979970,0,0.3037,-0.8235,0.9526,28,49.6216,57.8003,-8.8501,129,1.3407,1.0365,-44.063,-24.2235,25,0.042,8128,3.9523,147.8933
lg,1625260607413999314,0,0.2075,-0.8079,0.8875,29,65.5518,58.1665,-12.6343,129,1.3407,1.0345,-40.9347,-21.3221,25,0.04,8182,3.9523,146.73
lg,1625260607414016976,0,0.0852,-0.7007,0.7771,30,80.9937,50.1709,-6.2256,129,1.3417,1.0345,-37.9046,-18.4003,25,0.032,8228,3.9523,146.2635
lg,1625260607414035450,0,0.0071,-0.6042,0.7544,31,79.834,23.3154,3.0518,129,1.3477,1.0315,-35.6947,-16.0981,25,0.031,8241,3.9523,146.7023
lg,1625260607414052847,0,0.0603,-0.6191,0.7405,32,74.707,2.5024,8.7891,129,1.3447,1.0215,-34.6323,-14.4194,25,0.025,8224,3.9523,147.7307
lg,1625260607773610356,0,0.4866,-0.3792,0.6841,33,30.9448,-32.4707,23.6816,129,1.3457,0.9915,-35.5619,-14.6498,25,0.028,24476,3.9523,149.5914
lg,1625260607773661642,0,0.583,-0.4346,0.7612,34,2.9297,-23.1323,22.1558,129,1.3457,0.9865,-36.1644,-15.9304,25,0.03,10133,3.9523,151.3038
lg,1625260607773683346,0,0.5239,-0.53,0.8821,35,-10.6812,-5.127,17.5781,129,1.3457,0.9915,-35.8228,-17.5307,25,0.032,9110,3.9523,152.5897
lg,1625260607773703710,0,0.353,-0.4646,0.7971,36,-21.3623,4.7607,9.1553,129,1.3457,1.0035,-34.9636,-19.1471,25,0.036,9778,3.9523,153.2679
lg,1625260607773724734,0,0.2634,-0.4631,0.7532,37,-32.1045,5.249,7.0801,129,1.3457,1.0145,-33.8865,-21.6338,25,0.037,7886,3.9523,153.9089
lg,1625260607773744568,0,0.1033,-0.5818,0.8521,38,-51.2085,-4.2114,7.6294,129,1.3447,1.0245,-32.6915,-24.6265,25,0.038,9375,3.9523,154.7063
lg,1625260607773763118,0,-0.0266,-0.6841,0.8511,39,-55.4199,-30.3955,5.4932,129,1.3447,1.0305,-32.4292,-27.9354,25,0.034,7795,3.9523,155.8961
lg,1625260607773782971,0,0.1538,-0.698,0.8127,40,-47.6074,-69.1528,9.2163,129,1.3427,1.0335,-33.7165,-31.5005,25,0.037,7954,3.9523,158.2046
lg,1625260607773802768,0,0.4302,-0.6885,0.7988,41,-41.748,-77.3926,10.8643,129,1.3397,1.0325,-35.5436,-34.7915,26,0.042,9071,3.9523,160.9683
lg,1625260607773825398,0,0.5347,-0.7163,1.0146,42,-27.5879,-67.5049,11.1084,129,1.3377,1.0295,-36.9607,-37.3235,26,0.042,7862,3.9523,163.3864
lg,1625260607773846044,0,0.2444,-0.4243,0.4185,43,46.6309,-43.5791,-18.4326,129,1.3397,1.0325,-38.2191,-36.1794,26,0.043,7910,3.9523,164.1911
lg,1625260607773866294,0,0.4241,-0.5393,0.7209,44,28.6255,-43.2739,-8.2397,129,1.3397,1.0345,-39.6434,-36.4206,26,0.045,7919,3.9523,165.6687
lg,1625260607773887243,0,0.606,-0.5911,0.7263,45,17.6392,-47.1191,3.9062,129,1.3377,1.0335,-40.7757,-36.8828,25,0.046,7888,3.9523,167.3822
lg,1625260607773906794,0,0.9004,-0.5244,0.7705,46,14.7095,-14.7705,7.3242,129,1.3397,1.0345,-41.1883,-36.6967,25,0.044,8023,3.9523,168.0905
lg,1625260607773928366,0,0.7173,-0.6587,0.8433,47,18.3105,56.5796,1.5259,129,1.3397,1.0365,-39.032,-34.9383,25,0.044,9885,3.9523,166.449
lg,1625260607773961688,0,0.3208,-0.6111,0.8657,48,31.311,94.4824,-3.1738,129,1.3407,1.0385,-35.1079,-32.0511,25,0.045,9665,3.9523,163.7201
lg,1625260607773985565,0,0.1926,-0.6357,0.9136,49,37.7808,96.5576,-4.0894,129,1.3417,1.0395,-31.0672,-28.9904,25,0.041,7912,3.9523,161.4272
lg,1625260607774006287,0,-0.0537,-0.697,0.9048,50,65.1855,70.8618,-12.7563,129,1.3417,1.0405,-27.5521,-25.8071,25,0.034,7983,3.9523,159.6474
lg,1625260607774028444,0,0.0015,-0.5913,0.8391,51,79.9561,21.6064,-8.0566,129,1.3427,1.0375,-25.8679,-22.7149,25,0.033,7935,3.9523,159.1421
lg,1625260607774047504,0,0.1963,-0.4885,0.813,52,78.8574,-0.1221,-5.188,129,1.3437,1.0235,-25.9513,-20.2256,25,0.024,8967,3.9391,159.498
lg,1625260607774068566,0,0.3184,-0.4595,0.7976,53,64.5142,-26.9165,1.5259,129,1.3427,1.0065,-26.6812,-18.2586,25,0.024,8321,3.9391,160.1408
lg,1625260607774087551,0,0.4944,-0.4548,0.8108,54,40.0391,-24.7803,6.1035,129,1.3457,0.9935,-27.6088,-17.3632,25,0.03,7994,3.9391,160.9369
lg,1625260607774106252,0,0.4392,-0.4531,0.8091,55,28.1372,-16.0522,6.5308,129,1.3457,0.9815,-27.5917,-17.2422,25,0.028,7819,3.9391,161.5429
lg,1625260607774126445,0,0.3943,-0.4077,0.7937,56,6.4697,1.4038,7.2021,129,1.3447,0.9765,-27.3108,-17.5171,25,0.026,8036,3.9391,162.0201
lg,1625260607774145070,0,0.2808,-0.4871,0.8767,57,-5.9814,0.7324,5.0049,129,1.3457,0.9735,-26.7744,-18.3325,25,0.027,9131,3.9391,162.4458
lg,1625260607774162827,0,0.3,-0.4438,0.8462,58,-20.9961,-12.4512,2.6855,129,1.3467,0.9835,-26.8444,-19.6888,25,0.028,9713,3.9391,162.9143
lg,1625260607774183681,0,0.3396,-0.5027,0.8152,59,-45.8984,-22.8882,-2.9907,129,1.3467,0.9965,-27.459,-22.1181,25,0.036,7938,3.9391,163.3757
lg,1625260607774208729,0,0.345,-0.4841,0.802,60,-56.1523,-23.2544,-3.3569,129,1.3437,1.0095,-28.0769,-24.8525,25,0.036,8126,3.9391,163.8219
lg,1625260607774228922,0,0.2605,-0.543,0.8154,61,-79.9561,-18.3716,-10.6201,129,1.3457,1.0235,-28.4038,-28.3771,25,0.035,8157,3.9391,163.9262
lg,1625260607774251684,0,0.0071,-0.8167,0.8623,62,-85.5713,-25.7568,-18.7378,129,1.3447,1.0305,-28.6214,-32.3633,25,0.03,8160,3.9391,164.0643
lg,1625260607774275429,0,-0.0151,-0.8091,0.7976,63,-76.1108,-39.0015,-15.0757,129,1.3417,1.0295,-29.1431,-36.1644,25,0.036,8184,3.9391,164.7413
lg,1625260607774299060,0,0.0125,-0.6365,0.8469,64,-54.6265,-57.0679,-5.3711,129,1.3457,1.0275,-29.9834,-39.0469,25,0.039,8294,3.9391,166.1359
lg,1625260608126203071,0,0.2869,-0.29,0.6995,65,-13.0005,-111.084,21.9116,129,1.3417,1.0325,-33.6348,-43.0894,25,0.042,24767,3.9391,-188.2403
lg,1625260608126242341,0,1.6084,-0.8208,0.9812,66,-36.0718,-112.7319,46.3867,129,1.3417,1.0345,-34.6009,-45.5922,25,0.043,9173,3.9391,-185.481
lg,1625260608126262974,0,0.7129,-0.8416,0.9023,67,7.6904,113.4644,3.2959,129,1.3417,1.0365,-31.1008,-43.176,25,0.044,12684,3.9391,170.7753
lg,1625260608126282835,0,-0.1775,-0.595,0.7307,68,24.7803,135.7422,-5.9204,129,1.3427,1.0385,-25.7121,-39.9757,25,0.042,10913,3.9391,166.4216
lg,1625260608126302564,0,-0.2207,-0.7217,0.8445,69,20.4468,34.0576,-0.7935,129,1.3437,1.0395,-23.3174,-38.7755,26,0.041,9037,3.9391,165.4661
lg,1625260608126321069,0,0.2874,-0.6985,0.7695,70,37.0483,-24.4751,3.479,129,1.3447,1.0405,-23.6815,-37.7441,26,0.037,7819,3.9391,166.3055
lg,1625260608126339064,0,0.4087,-0.6667,0.7805,71,41.9312,-23.1934,4.2114,129,1.3447,1.0405,-24.2329,-36.4821,26,0.034,7823,3.9391,167.1091
lg,1625260608126357587,0,0.3691,-0.6157,0.7441,72,47.6685,1.8921,5.4932,129,1.3457,1.0395,-23.9086,-34.7589,26,0.033,7842,3.9391,167.3068
lg,1625260608126376035,0,0.29,-0.5825,0.7239,73,46.1426,4.2725,5.188,129,1.3467,1.0385,-23.4818,-33.313,26,0.023,7859,3.9391,167.5465
lg,1625260608126394068,0,0.3032,-0.603,0.7314,74,37.2314,-2.9907,6.3477,129,1.3467,1.0355,-23.2178,-32.1943,26,0.03,8685,3.9391,167.9508
lg,1625260608126412365,0,0.3445,-0.5034,0.7292,75,25.0854,-8.9111,7.6904,129,1.3467,1.0325,-23.2962,-31.3511,26,0.032,10404,3.9391,168.4265
lg,1625260608126429663,0,0.3792,-0.4756,0.8572,76,5.3711,-13.4277,7.5073,129,1.3457,1.0345,-23.5065,-31.2665,26,0.031,7881,3.9391,168.9704
lg,1625260608126446490,0,0.5518,-0.3254,0.644,77,-11.9629,-24.7192,6.7139,129,1.3467,1.0405,-24.7454,-31.9174,25,0.036,7955,3.9391,169.728
lg,1625260608126464090,0,0.6121,-0.3003,0.6501,78,-31.7993,-17.7002,5.0049,129,1.3447,1.0445,-25.8484,-33.203,25,0.032,7923,3.9391,170.2406
lg,1625260608126481181,0,0.4458,-0.4585,0.6963,79,-59.6924,12.6953,0.4272,129,1.3467,1.0465,-25.5058,-35.4497,25,0.037,7946,3.9391,169.9377
lg,1625260608126498592,0,0.0884,-0.595,0.7737,80,-68.7256,30.7617,-9.0942,129,1.3457,1.0515,-23.9482,-37.7919,25,0.038,8026,3.9391,168.825
lg,1625260608126515325,0,-0.0713,-0.6421,0.7834,81,-68.8477,16.6626,-14.3433,129,1.3447,1.0465,-22.7258,-40.2114,25,0.04,8054,3.9391,167.8826
lg,1625260608126532397,0,0.0308,-0.6931,0.7747,82,-64.5752,-32.8369,-11.8408,129,1.3447,1.0485,-23.1963,-43.0573,25,0.039,8082,3.9391,168.4517
lg,1625260608126549225,0,0.2068,-0.7083,0.9087,83,-50.1709,-42.0532,-7.8125,129,1.3477,1.0425,-24.1017,-45.2407,25,0.04,8145,3.9391,169.3897
lg,1625260608126566297,0,0.0049,-0.9177,0.8838,84,-25.2075,-42.9077,-19.4092,129,1.3417,1.0425,-24.9218,-46.5832,25,0.038,8096,3.9391,170.1569
lg,1625260608126582690,0,0.103,-0.4788,0.7163,85,-10.9253,-61.8896,-5.6763,129,1.3417,1.0425,-26.082,-47.2403,26,0.039,8120,3.9391,-188.2487
lg,1625260608126599386,0,0.6438,-0.6458,0.6919,86,-22.0947,-83.4351,15.625,129,1.3437,1.0465,-28.1363,-49.4488,26,0.041,8178,3.9391,-185.0415
lg,1625260608126615742,0,0.8276,-0.6104,0.748,87,-21.7285,-61.2793,20.5078,129,1.3407,1.0435,-29.4583,-51.3303,26,0.04,8193,3.9391,-182.4283
lg,1625260608126633323,0,0.7148,-0.7422,0.8,88,-16.7847,2.5635,19.3481,129,1.3427,1.0445,-28.9435,-51.8898,26,0.04,8225,3.9391,-182.137
lg,1625260608126651789,0,0.5701,-0.6943,0.7773,89,-7.6904,36.5601,20.0195,129,1.3427,1.0465,-27.4147,-51.4363,26,0.041,8209,3.9391,-183.0812
lg,1625260608126670143,0,0.5681,-0.6943,0.7966,90,-2.5024,45.2881,20.3247,129,1.3437,1.0435,-25.4312,-50.2871,26,0.042,8289,3.9391,-184.6787
lg,1625260608126687686,0,0.5264,-0.7798,0.8582,91,8.4839,65.6128,18.4326,129,1.3417,1.0485,-23.1444,-48.9314,26,0.041,8314,3.9391,-186.4975
lg,1625260608126705587,0,0.5078,-0.9148,0.875,92,42.6025,87.9517,7.9346,129,1.3437,1.0495,-20.4966,-46.1595,25,0.042,8276,3.9391,170.8846
lg,1625260608126722697,0,0.187,-0.7739,0.7639,93,74.0967,113.4644,-0.4272,129,1.3467,1.0495,-16.8452,-42.0919,25,0.038,8308,3.9391,167.5315
lg,1625260608126739939,0,-0.0164,-0.7007,0.7275,94,82.9468,116.0889,-2.0752,129,1.3447,1.0485,-12.6736,-38.0502,25,0.038,8380,3.9391,164.4157
lg,1625260608126825412,0,-0.2954,-0.657,0.6653,95,89.4165,72.6929,3.3569,129,1.3467,1.0385,-9.1647,-34.3743,25,0.034,10445,3.9391,162.854
lg,1625260608126848119,0,-0.0942,-0.5771,0.6428,96,78.3081,-6.5308,10.1929,129,1.3457,1.0285,-8.5614,-31.6208,25,0.034,8449,3.9391,163.4066
lg,1625260608480541777,0,0.7102,-0.427,0.6631,97,33.5083,-48.2178,8.4229,129,1.3477,1.0015,-10.5128,-30.9082,25,0.039,24511,3.9391,164.0539
lg,1625260608480612383,0,0.5366,-0.4707,0.7812,98,8.9111,1.5869,2.3804,129,1.3477,1.0035,-11.1819,-30.5598,25,0.038,8594,3.9391,164.1
lg,1625260608480648073,0,0.2576,-0.4758,0.7349,99,-10.498,2.5635,-4.8828,129,1.3487,1.0205,-11.3978,-31.0183,25,0.04,11679,3.9391,163.8922
lg,1625260608480681313,0,0.2898,-0.5134,0.7515,100,-30.7007,-10.9863,-7.9346,129,1.3487,1.0305,-12.1815,-32.3551,25,0.041,7932,3.9391,163.8796
lg,1625260608480715268,0,0.259,-0.593,0.7849,101,-35.5225,-8.728,-11.8408,129,1.3487,1.0375,-12.8308,-33.9028,25,0.041,7835,3.9391,163.7086
lg,1625260608480748734,0,0.0371,-0.634,0.7986,102,-32.2266,-3.6621,-18.7378,129,1.3487,1.0415,-12.9509,-35.2404,26,0.039,7732,3.9391,163.1968
lg,1625260608480780806,0,-0.1621,-0.5754,0.7795,103,-23.2544,-17.8833,-13.0615,129,1.3487,1.0435,-12.9654,-36.2042,26,0.039,8898,3.9391,163.195
lg,1625260608480815044,0,-0.2053,-0.5291,0.7649,104,-20.6909,-32.8979,-5.3101,129,1.3477,1.0455,-13.9952,-37.2443,26,0.032,7967,3.9391,164.7176
lg,1625260608480845382,0,0.1653,-0.5715,0.7959,105,-22.3999,-79.4678,15.4419,129,1.3477,1.0455,-15.9299,-38.7179,26,0.043,7981,3.9391,167.2312
lg,1625260608480877114,0,0.6711,-0.7141,0.8599,106,-24.9023,-84.7168,27.771,129,1.3487,1.0465,-18.3983,-40.6731,25,0.034,7852,3.9391,170.4114
lg,1625260608480906416,0,0.7793,-0.7524,0.8831,107,-21.0571,-58.5938,30.5176,129,1.3497,1.0465,-19.8505,-42.3585,25,0.035,7879,3.9391,-186.9715
lg,1625260608480938751,0,0.5688,-0.7888,0.8608,108,-8.8501,3.479,27.8931,129,1.3477,1.0455,-19.2308,-42.9645,25,0.039,8119,3.9391,-186.2039
lg,1625260608480969391,0,0.3127,-0.8081,0.8625,109,1.1597,29.1138,31.25,129,1.3507,1.0445,-17.3541,-42.9541,25,0.037,7941,3.9391,-186.0816
lg,1625260608480999955,0,0.2405,-0.7922,0.8721,110,3.7842,28.3203,34.668,129,1.3477,1.0465,-15.3525,-42.8359,25,0.042,7893,3.9391,-185.8419
lg,1625260608481054035,0,0.4436,-0.7769,0.8193,111,3.418,15.7471,47.9736,129,1.3467,1.0485,-13.8262,-42.9677,25,0.038,7962,3.9391,-184.8333
lg,1625260608481086182,0,0.5391,-0.7485,0.7458,112,4.1504,33.3862,50.0488,129,1.3437,1.0465,-12.0067,-42.9963,25,0.038,7989,3.9391,-184.2554
lg,1625260608481116840,0,0.3906,-0.6714,0.7163,113,12.085,53.1616,38.3301,129,1.3437,1.0405,-9.7938,-42.4478,25,0.041,11026,3.9391,-184.5874
lg,1625260608481146839,0,0.1543,-0.8347,0.8066,114,16.1743,49.8657,26.7334,129,1.3427,1.0375,-8.4095,-41.3075,25,0.039,8025,3.9391,-185.3933
lg,1625260608481176875,0,0.0706,-0.7219,0.6238,115,49.3164,26.3062,-3.9673,129,1.3407,1.0365,-7.552,-39.5303,25,0.042,8063,3.9391,-186.1582
lg,1625260608481206252,0,0.1533,-0.4226,0.5591,116,49.8657,6.7749,-5.9814,129,1.3417,1.0365,-7.6772,-37.3878,25,0.043,10849,3.9391,-186.5353
lg,1625260608481236439,0,0.2627,-0.3853,0.6172,117,36.0718,9.9487,-0.1831,129,1.3417,1.0365,-7.8405,-35.7026,25,0.043,8134,3.9391,-186.8177
lg,1625260608481266005,0,0.1824,-0.5457,0.7542,118,18.3716,12.3291,-0.1831,129,1.3417,1.0365,-7.5708,-34.9284,25,0.044,8292,3.9391,-187.1136
lg,1625260608481295966,0,0.2234,-0.5693,0.8044,119,16.3574,7.3242,-0.061,129,1.3417,1.0365,-7.5358,-34.2587,25,0.044,8126,3.9391,-187.2848
lg,1625260608481327001,0,0.3049,-0.5999,0.8081,120,18.7988,2.9907,-4.2114,129,1.3417,1.0365,-7.8969,-33.561,25,0.044,8110,3.9391,-187.4856
lg,1625260608481356642,0,0.3738,-0.5225,0.7869,121,19.2871,11.1084,-8.4839,129,1.3427,1.0365,-8.2468,-32.7088,25,0.043,8292,3.9391,-188.0243
lg,1625260608481385868,0,0.4688,-0.4741,0.7808,122,15.8691,16.2964,-10.0708,129,1.3427,1.0365,-8.3311,-31.9388,25,0.044,8162,3.9391,170.907
lg,1625260608481415489,0,0.4629,-0.4751,0.8069,123,10.6812,43.396,-15.3809,129,1.3427,1.0385,-7.6239,-31.3349,25,0.043,9697,3.9391,169.4569
lg,1625260608481600965,0,0.219,-0.6401,0.9258,124,24.353,71.8384,-24.7803,129,1.3427,1.0385,-5.8057,-30.2121,25,0.043,8350,3.9391,167.1309
lg,1625260608481646001,0,-0.2649,-0.6331,0.885,125,50.1709,66.7114,-41.8701,129,1.3457,1.0395,-3.5467,-28.1858,25,0.042,8314,3.9391,164.3919
lg,1625260608481685176,0,-0.2698,-0.6311,0.8538,126,56.2134,39.4287,-42.6636,129,1.3507,1.0415,-3.5402,-26.08,25,0.043,8331,3.9391,162.9183
lg,1625260608481716965,0,-0.1094,-0.6519,0.864,127,56.8237,-30.3955,-37.4756,129,1.3457,1.0405,-4.9076,-24.1762,25,0.038,8339,3.9391,162.1109
lg,1625260608481761737,0,0.2607,-0.6711,0.897,128,49.8657,-59.9365,-28.9307,129,1.3477,1.0435,-7.8847,-22.655,25,0.036,8338,3.9391,162.0413
lg,1625260608839955051,0,0.3037,-0.4487,0.8088,129,13.1836,-31.7993,-19.4092,129,1.3477,1.0415,-10.0415,-22.7981,25,0.04,24782,3.9391,162.0805
lg,1625260608840005853,0,0.4463,-0.2363,0.7117,130,-23.3765,-44.3115,-14.0381,129,1.3477,1.0485,-12.5625,-23.9387,26,0.045,9732,3.9391,162.3103
lg,1625260608840028578,0,0.4094,-0.5251,0.7969,131,-68.8477,-28.6865,-24.5972,129,1.3467,1.0505,-14.171,-27.0245,26,0.042,12216,3.9391,162.0065
lg,1625260608840048627,0,0.2078,-0.6646,0.908,132,-78.125,-20.874,-33.8745,129,1.3457,1.0485,-15.4034,-30.2906,26,0.045,7694,3.9391,161.2787
lg,1625260608840067715,0,0.1162,-0.9348,1.2722,133,-63.2324,-23.5596,-45.8984,129,1.3447,1.0455,-16.72,-32.739,26,0.044,7695,3.9391,160.2209
lg,1625260608840087011,0,-0.2002,-1.1321,1.041,134,-18.1885,-29.9072,-69.5801,129,1.3437,1.0435,-18.326,-33.5218,25,0.044,7798,3.9391,158.6333
lg,1625260608840106043,0,-0.3679,-0.262,0.6099,135,19.8975,-38.9404,-46.814,129,1.3437,1.0425,-18.9821,-32.1093,25,0.045,7905,3.9391,157.7719
lg,1625260608840124623,0,0.0645,-0.2266,0.5164,136,-13.5498,-91.9189,2.6855,129,1.3437,1.0425,-21.5213,-33.0521,25,0.048,9673,3.9391,159.8634
lg,1625260608840144502,0,0.4646,-0.3203,0.6687,137,-33.5083,-110.0464,20.9961,129,1.3437,1.0435,-25.5796,-35.7428,25,0.047,7816,3.9391,163.3451
lg,1625260608840163214,0,1.2515,-0.8848,1.0505,138,-49.4995,-79.4067,33.5693,129,1.3447,1.0435,-26.4061,-38.2804,25,0.046,10738,3.9391,165.0958
lg,1625260608840181360,0,1.0959,-0.926,1.0166,139,-23.8647,32.2266,16.4795,129,1.3447,1.0445,-25.4672,-39.2207,25,0.046,8213,3.9391,164.8278
lg,1625260608840199205,0,0.5845,-0.7449,0.8875,140,3.1128,105.5298,0.3662,129,1.3447,1.0465,-22.224,-37.956,25,0.043,9847,3.9391,161.9611
lg,1625260608840217634,0,0.1001,-0.7527,0.8462,141,18.9819,120.4224,-10.0708,129,1.3457,1.0475,-17.973,-36.1672,25,0.045,7888,3.9391,158.5889
lg,1625260608840236402,0,-0.1082,-0.7695,0.8359,142,28.9917,108.2764,-16.4185,129,1.3467,1.0495,-14.8059,-34.0263,25,0.044,7939,3.9391,156.1162
lg,1625260608840254209,0,-0.2012,-0.7371,0.7942,143,50.1709,43.6401,-16.1133,129,1.3467,1.0495,-12.7349,-32.0091,25,0.044,7956,3.9391,154.6868
lg,1625260608840273259,0,0.0732,-0.769,0.7847,144,52.4292,-9.5825,-5.9814,129,1.3477,1.0495,-12.8431,-30.4095,25,0.041,8437,3.9391,154.7963
lg,1625260608840291895,0,0.2949,-0.7529,0.7893,145,52.3071,-34.9121,-1.0986,129,1.3477,1.0475,-14.1736,-28.9889,25,0.037,8058,3.9391,155.5834
lg,1625260608840309326,0,0.425,-0.437,0.5732,146,44.9219,-38.9404,1.77,129,1.3467,1.0445,-16.1446,-27.6988,25,0.036,8040,3.9391,156.4786
lg,1625260608840327001,0,0.6929,-0.363,0.6907,147,-2.4414,-26.062,12.2681,129,1.3477,1.0475,-17.8037,-28.0726,25,0.038,8114,3.9391,157.4435
lg,1625260608840345072,0,0.6145,-0.6045,0.696,148,-20.2637,9.1553,2.5635,129,1.3477,1.0505,-18.0644,-29.2913,25,0.037,8099,3.9391,157.4935
lg,1625260608840362276,0,0.3694,-0.5901,0.7207,149,-21.4844,31.6162,-4.6997,129,1.3457,1.0525,-17.2105,-30.2736,25,0.042,8127,3.9391,156.7801
lg,1625260608840387036,0,-0.3135,-0.561,0.677,150,-20.3857,47.5464,-7.9346,129,1.3477,1.0565,-14.3889,-31.0873,25,0.04,10332,3.9391,155.5836
lg,1625260608840407142,0,-0.4006,-0.5005,0.6772,151,-24.4751,-44.0063,0.1221,129,1.3457,1.0555,-14.4209,-32.4903,25,0.039,8135,3.9391,156.5803
lg,1625260608840426381,0,0.2646,-0.5835,0.718,152,-36.3159,-125.6104,12.8784,129,1.3477,1.0605,-18.3456,-35.1403,25,0.04,8186,3.9391,160.0115
lg,1625260608840444960,0,0.5112,-0.6431,0.7737,153,-39.6729,-129.3335,15.564,129,1.3467,1.0585,-22.5313,-38.3104,25,0.042,8253,3.9391,163.9412
lg,1625260608840462372,0,0.5737,-0.6985,0.7673,154,-39.978,-82.6416,18.9209,129,1.3437,1.0595,-24.8208,-41.2324,25,0.044,8265,3.9391,166.9523
lg,1625260608840480254,0,0.418,-0.6931,0.7769,155,-45.5322,-56.1523,26.3672,129,1.3447,1.0555,-25.6244,-44.1404,25,0.045,8331,3.9391,169.4971
lg,1625260608840498513,0,0.4248,-0.8943,1.051,156,-45.5933,-53.0396,29.0527,129,1.3427,1.0515,-26.2187,-46.1581,26,0.046,8306,3.9391,-188.2399
lg,1625260608840515736,0,0.3394,-0.7683,0.7156,157,3.479,-47.7905,8.7891,129,1.3417,1.0505,-26.9365,-46.8592,26,0.05,8377,3.9391,-186.4046
lg,1625260608840532790,0,0.375,-0.5986,0.7168,158,10.1318,-38.8794,15.7471,129,1.3437,1.0475,-27.3335,-46.9579,26,0.049,8364,3.9391,-184.7789
lg,1625260608840550992,0,0.7888,-0.7104,0.7725,159,13.855,-26.8555,26.6724,129,1.3457,1.0525,-27.6562,-47.0262,26,0.049,8371,3.9391,-183.1498
lg,1625260608840568630,0,0.917,-0.6252,0.7458,160,23.6816,-0.8545,23.4985,129,1.3437,1.0525,-26.6779,-45.1755,25,0.05,8472,3.9391,-184.031
lg,1625260609193092368,0,0.0769,-0.4395,0.699,161,26.4893,83.6182,11.1084,129,1.3447,1.0525,-23.1679,-42.6245,25,0.043,25090,3.9391,-186.4809
lg,1625260609193129654,0,0.0615,-0.6462,0.8083,162,27.6489,54.3823,7.3853,129,1.3457,1.0545,-20.5877,-40.8525,25,0.047,8740,3.9391,-187.8661
lg,1625260609193150525,0,0.0439,-0.7651,0.8901,163,41.9312,24.4141,-1.8921,129,1.3467,1.0565,-19.2766,-38.9287,25,0.043,10241,3.9391,171.4139
lg,1625260609193170644,0,0.1724,-0.6917,0.7969,164,61.6455,0.6104,-5.249,129,1.3467,1.0575,-18.9881,-36.4842,25,0.041,7721,3.9391,171.2569
lg,1625260609193189447,0,0.2446,-0.6726,0.842,165,62.1948,-3.9673,-2.2583,83,1.3467,1.0575,-18.9204,-34.0896,25,0.04,7663,3.9853,171.3077
lg,1625260609193207912,0,0.2634,-0.7156,0.8833,166,62.9883,-6.6528,-0.061,83,1.3467,1.0555,-18.9109,-31.82,25,0.04,7737,3.9853,-188.4729
lg,1625260609193226226,0,0.3945,-0.4409,0.6914,167,51.7578,-6.5308,-0.1831,83,1.3457,1.0525,-19.4012,-29.8171,25,0.038,7699,3.9853,-188.3368
lg,1625260609193244483,0,0.4939,-0.429,0.6848,168,16.6016,2.0142,-1.0376,83,1.3467,1.0525,-19.8204,-29.1998,25,0.039,9280,3.9853,-188.3965
lg,1625260609193262477,0,0.446,-0.5039,0.7295,169,8.2397,5.3101,-7.9346,83,1.3467,1.0535,-19.8,-28.9795,26,0.04,8040,3.9853,171.2827
lg,1625260609193280603,0,0.1697,-0.5798,0.7886,170,1.4648,11.7188,-26.4282,83,1.3457,1.0565,-19.5113,-28.8053,26,0.041,7767,3.9853,170.1614
lg,1625260609193299199,0,-0.1252,-0.6133,0.791,171,1.0986,-8.1177,-32.959,83,1.3467,1.0595,-19.4174,-28.774,26,0.04,8018,3.9853,169.2281
lg,1625260609193317193,0,-0.1418,-0.6375,0.8447,172,0,-33.5083,-31.4331,83,1.3447,1.0595,-20.1633,-28.9469,26,0.039,7813,3.9853,168.8614
lg,1625260609193335000,0,0.2214,-0.6743,0.8689,173,1.6479,-74.585,-21.9116,83,1.3477,1.0645,-22.8383,-29.5143,25,0.043,7847,3.9853,169.7354
lg,1625260609193352449,0,0.5132,-0.697,0.8562,174,7.6904,-65.6738,-17.8833,83,1.3467,1.0575,-25.5497,-29.8828,25,0.042,7906,3.9853,170.6314
lg,1625260609193372568,0,0.5488,-0.6726,0.8289,175,14.0991,-46.4478,-18.0054,83,1.3437,1.0585,-27.5806,-29.8223,25,0.042,7948,3.9853,171.1242
lg,1625260609193391502,0,0.3213,-0.5938,0.7913,176,19.7144,-12.146,-19.7754,83,1.3457,1.0595,-28.0135,-29.0921,25,0.044,7937,3.9853,170.7565
lg,1625260609193409440,0,0.2075,-0.4807,0.7246,177,21.5454,-6.6528,-17.8833,83,1.3457,1.0585,-27.8836,-28.1492,26,0.047,8043,3.9853,170.4976
lg,1625260609193427190,0,0.2275,-0.3403,0.6565,178,27.2827,-3.0518,-3.0518,83,1.3427,1.0615,-27.6169,-26.9967,26,0.046,7963,3.9853,170.426
lg,1625260609193444488,0,0.1216,-0.2981,0.6089,179,13.4888,7.4463,17.0288,83,1.3437,1.0585,-26.359,-26.654,26,0.046,7955,3.9853,170.9375
lg,1625260609193461618,0,0.0833,-0.3665,0.6631,180,3.7231,6.0425,29.8462,83,1.3457,1.0635,-25.0835,-27.5389,26,0.047,7971,3.9853,-187.3546
lg,1625260609193479029,0,0.3848,-0.4277,0.7864,181,-7.9346,-16.0522,50.2319,83,1.3447,1.0625,-24.6195,-28.8487,26,0.047,8017,3.9853,-185.0551
lg,1625260609193496365,0,0.7207,-0.8472,1.0847,182,-1.4648,-25.6958,34.79,83,1.3477,1.0635,-24.9484,-30.0448,26,0.048,8022,3.9853,-183.0164
lg,1625260609193514529,0,0.7607,-0.9446,1.115,183,18.6768,-13.916,19.2261,83,1.3487,1.0645,-24.6487,-28.8922,26,0.043,8117,3.9853,-182.752
lg,1625260609193532147,0,0.5347,-0.8027,1.0002,184,53.772,29.6631,-1.2817,83,1.3477,1.0645,-23.5584,-26.8654,26,0.042,8135,3.9853,-183.2482
lg,1625260609193549728,0,0.2461,-0.7002,0.9126,185,64.0259,50.9644,-3.54,83,1.3467,1.0575,-21.1155,-24.3972,25,0.04,11374,3.9853,-184.0076
lg,1625260609193566932,0,0.1418,-0.623,0.9177,186,58.7769,44.6777,5.3101,83,1.3467,1.0505,-18.8651,-22.2714,25,0.031,8196,3.9853,-184.3991
lg,1625260609193583986,0,0.2546,-0.3948,0.7393,187,45.0439,21.6675,10.2539,83,1.3477,1.0445,-17.8339,-20.7236,25,0.034,8140,3.9853,-184.2579
lg,1625260609193600834,0,0.4419,-0.3682,0.6802,188,15.3809,10.376,9.5825,83,1.3467,1.0465,-17.7812,-20.4503,25,0.036,9741,3.9853,-183.9525
lg,1625260609193716791,0,0.5032,-0.2922,0.6677,189,1.9531,4.7607,2.8076,83,1.3467,1.0525,-18.3484,-21.2033,25,0.042,8323,3.9853,-184.2947
lg,1625260609193738094,0,0.4272,-0.3323,0.7119,190,-36.377,2.7466,-20.2026,83,1.3467,1.0585,-18.945,-22.5224,25,0.039,8235,3.9853,-185.0822
lg,1625260609193757217,0,0.2085,-0.5029,0.8132,191,-58.8379,18.0664,-37.4146,83,1.3427,1.0585,-18.6245,-24.6694,25,0.043,9632,3.9853,-186.7207
lg,1625260609193777016,0,-0.175,-0.7297,1.0356,192,-66.9556,6.4697,-51.0254,83,1.3457,1.0575,-18.2781,-27.1062,25,0.042,8252,3.9853,171.3414
lg,1625260609553655916,0,-0.2317,-0.1489,0.5632,193,41.748,-79.7729,-53.4668,83,1.3437,1.0545,-20.623,-24.7848,25,0.047,24346,3.9853,170.6697
lg,1625260609553710256,0,0.6956,-0.2839,0.76,194,-37.1094,-87.6465,13.4888,83,1.3437,1.0555,-24.2986,-26.9575,25,0.048,12317,3.9853,-187.1818
lg,1625260609553741281,0,0.7358,-0.6357,0.8923,195,-40.3442,-8.3008,23.7427,83,1.3437,1.0555,-24.5195,-29.3194,25,0.046,10111,3.9853,-185.9577
lg,1625260609553771008,0,0.6145,-0.6665,0.9346,196,-31.0669,25.6958,18.0054,83,1.3437,1.0575,-23.4152,-30.8343,25,0.048,9367,3.9853,-185.7448
lg,1625260609553799927,0,0.6189,-0.686,0.9497,197,-26.3062,34.6069,15.564,83,1.3437,1.0585,-22.0872,-31.9856,25,0.047,7724,3.9853,-185.8798
lg,1625260609553827661,0,0.5447,-0.72,0.9275,198,-13.5498,55.0537,5.127,83,1.3437,1.0605,-20.2324,-32.3547,25,0.045,7720,3.9853,-186.8733
lg,1625260609553943373,0,0.2673,-0.7385,0.8838,199,-4.0283,66.3452,-0.3052,83,1.3437,1.0615,-17.5623,-31.6847,25,0.043,7747,3.9853,171.36
lg,1625260609553975864,0,0.0603,-0.7754,0.9121,200,18.6157,72.7539,-9.5215,83,1.3437,1.0615,-15.224,-30.5061,25,0.045,8632,3.9853,169.8589
lg,1625260609554004764,0,-0.1062,-0.9045,0.9207,201,45.4102,30.3955,-19.5923,83,1.3437,1.0585,-13.8049,-28.9225,25,0.041,7800,3.9853,168.6917
lg,1625260609554033420,0,0.1758,-0.6787,0.8262,202,58.3496,-7.5073,-3.6011,83,1.3447,1.0465,-13.9665,-27.0123,25,0.042,7834,3.9853,168.8088
lg,1625260609554064914,0,0.2468,-0.7383,0.9243,203,54.5044,-16.5405,-1.4648,83,1.3427,1.0305,-14.506,-25.3537,25,0.039,7803,3.9853,169.1685
lg,1625260609554092949,0,0.5122,-0.3118,0.4521,204,48.3398,-31.189,4.5166,83,1.3447,1.0225,-16.6437,-23.8834,25,0.034,7910,3.9853,169.9325
lg,1625260609554119480,0,0.8174,-0.2502,0.7258,205,-8.1787,-17.4561,9.2163,83,1.3447,1.0175,-18.2655,-24.2625,25,0.033,8000,3.9853,170.5457
lg,1625260609554145992,0,0.5913,-0.637,0.8481,206,-27.771,28.8696,-7.9956,83,1.3447,1.0265,-17.7937,-25.568,25,0.036,9716,3.9853,169.8744
lg,1625260609554173595,0,0.054,-0.5542,0.7817,207,-27.2827,57.7393,-23.6206,83,1.3447,1.0415,-15.5768,-26.4902,25,0.045,11380,3.9853,168.045
lg,1625260609554202645,0,-0.4199,-0.6357,0.7676,208,-28.5645,16.9678,-24.9023,83,1.3437,1.0495,-14.0298,-27.7953,25,0.045,8562,3.9853,166.925
lg,1625260609554230699,0,-0.3691,-0.5701,0.7849,209,-31.3721,-27.2217,-18.4326,83,1.3427,1.0535,-14.0389,-29.3159,26,0.043,7945,3.9853,166.8551
lg,1625260609554258057,0,0.2617,-0.5913,0.7886,210,-43.7622,-99.3042,-2.5024,83,1.3417,1.0535,-17.5232,-31.9,26,0.044,7958,3.9853,168.9449
lg,1625260609554285471,0,0.4126,-0.8489,0.6379,211,2.6245,-77.2095,-27.5269,83,1.3417,1.0515,-20.8899,-32.8495,26,0.045,7982,3.9853,169.9625
lg,1625260609554314127,0,0.2622,-0.3599,0.4683,212,23.1323,-39.0625,-24.7192,83,1.3417,1.0505,-22.8496,-32.1025,26,0.044,8003,3.9853,170.0332
lg,1625260609554342350,0,0.033,-0.0874,0.3726,213,4.0283,-35.2783,-7.3853,83,1.3407,1.0515,-23.5422,-31.3496,25,0.044,8002,3.9853,170.2607
lg,1625260609554369313,0,0.2825,-0.3816,0.6804,214,-40.1001,-61.2793,28.3813,83,1.3407,1.0515,-24.8362,-33.8778,25,0.044,8409,3.9853,-187.2794
lg,1625260609554396615,0,0.635,-0.5784,0.8271,215,-47.6074,-73.2422,38.6963,83,1.3407,1.0515,-26.5895,-37.2392,25,0.045,8060,3.9853,-183.9642
lg,1625260609554425289,0,0.9009,-0.8672,1.0667,216,-30.5786,-25.4517,34.5459,83,1.3397,1.0535,-26.7836,-39.3835,25,0.045,8121,3.9853,-182.0114
lg,1625260609554452346,0,0.6992,-0.7439,0.9846,217,-2.9297,32.5317,21.6675,83,1.3417,1.0565,-25.338,-39.3248,25,0.046,8156,3.9853,-182.2338
lg,1625260609554480325,0,0.5947,-0.7869,0.9758,218,5.4321,49.7437,16.4795,83,1.3417,1.0595,-23.1841,-38.8331,25,0.046,8179,3.9853,-183.0267
lg,1625260609554657898,0,0.2969,-0.8083,0.9778,219,31.9824,72.7539,3.2349,83,1.3427,1.0615,-20.4217,-36.9065,25,0.044,8178,3.9853,-184.8304
lg,1625260609554694846,0,-0.001,-0.7578,0.7932,220,60.4248,71.7773,-1.3428,83,1.3437,1.0595,-17.3398,-34.1915,25,0.043,8214,3.9853,-186.5275
lg,1625260609554725626,0,-0.0911,-0.7502,0.7888,221,63.1714,56.8848,2.1362,83,1.3427,1.0615,-15.1855,-31.864,25,0.04,8260,3.9853,-186.9179
lg,1625260609554755410,0,-0.0042,-0.6272,0.782,222,59.021,5.6763,13.916,83,1.3417,1.0615,-14.1055,-29.8799,25,0.039,8258,3.9853,-186.4616
lg,1625260609554793391,0,0.5269,-0.2961,0.5947,223,31.8604,-36.7432,20.874,83,1.3437,1.0615,-15.901,-28.879,25,0.039,8278,3.9853,-184.9989
lg,1625260609554920818,0,0.699,-0.5415,0.7659,224,0.6714,-18.0054,6.3477,83,1.3437,1.0645,-17.2084,-29.2268,25,0.041,8299,3.9853,-184.3438
lg,1625260609899858921,0,-0.116,-0.481,0.6821,225,-9.4604,14.8926,-29.2358,83,1.3417,1.0655,-16.3015,-29.445,25,0.043,24816,3.9853,-185.6433
lg,1625260609899909237,0,0.0254,-0.665,0.8342,226,-25.4517,-45.8374,-19.2261,83,1.3407,1.0625,-17.683,-30.9047,25,0.044,9059,3.9853,-185.2736
lg,1625260609899929733,0,0.3564,-0.7593,0.9722,227,-19.165,-60.4248,-17.5171,83,1.3397,1.0575,-19.8448,-30.9982,25,0.045,13589,3.9853,-185.0999
lg,1625260609899949983,0,0.1687,-0.4526,0.4211,228,39.1235,-27.1606,-37.7808,83,1.3397,1.0565,-21.3861,-29.7939,25,0.044,7688,3.9853,-185.6813
lg,1625260609899968861,0,-0.0852,-0.0303,0.4644,229,16.0522,-19.4702,-12.4512,83,1.3397,1.0565,-21.1854,-28.0781,25,0.046,7775,3.9853,-186.1132
lg,1625260609899987420,0,0.2307,-0.4434,0.7715,230,-27.5879,-55.481,18.9819,83,1.3397,1.0575,-22.4806,-29.9409,26,0.046,9417,3.9853,-184.2147
lg,1625260609900005357,0,0.4912,-0.5576,0.8167,231,-29.541,-63.3545,26.3062,83,1.3397,1.0585,-24.2475,-32.2365,26,0.045,7732,3.9853,-181.7383
lg,1625260609900026962,0,0.8455,-0.6624,0.9478,232,-21.3623,-30.8838,25.3906,83,1.3407,1.0595,-25.1867,-33.8807,26,0.046,7751,3.9853,-180.0147
lg,1625260609900047927,0,0.9016,-0.6924,0.9492,233,-14.6484,-1.5259,19.8364,83,1.3407,1.0615,-24.2599,-34.1521,26,0.046,7749,3.9853,-180.2466
lg,1625260609900066993,0,0.6384,-0.7017,0.9731,234,1.2817,59.1431,6.2256,83,1.3407,1.0625,-22.3115,-33.6742,25,0.043,8883,3.9853,-181.4427
lg,1625260609900093373,0,0.1597,-0.7886,0.9136,235,21.0571,91.0645,-5.3101,83,1.3397,1.0645,-18.8129,-32.3145,25,0.043,8276,3.9853,-183.6384
lg,1625260609900112214,0,-0.1738,-0.8167,0.8865,236,46.2646,55.2368,-13.1226,83,1.3417,1.0635,-16.1888,-30.3857,25,0.044,8406,3.9853,-185.162
lg,1625260609900130434,0,-0.0669,-0.6794,0.8271,237,54.6875,27.5879,-1.709,83,1.3427,1.0615,-14.5039,-28.4043,25,0.041,7892,3.9853,-185.6706
lg,1625260609900148785,0,0.1458,-0.7383,0.8848,238,49.6826,-2.9297,9.1553,83,1.3417,1.0515,-14.158,-26.9745,26,0.042,7910,3.9853,-185.1611
lg,1625260609900167889,0,0.4631,-0.4099,0.6951,239,39.5508,-22.0337,20.752,83,1.3417,1.0485,-15.1866,-25.8125,26,0.039,7910,3.9853,-183.9646
lg,1625260609900186955,0,0.7048,-0.2981,0.6382,240,21.9116,-21.9727,21.3623,83,1.3397,1.0425,-16.7316,-25.2375,26,0.037,7952,3.9853,-182.7829
lg,1625260609900203708,0,0.6104,-0.6772,0.793,241,-0.5493,17.2729,6.7749,83,1.3427,1.0445,-16.5422,-25.7757,26,0.037,8045,3.9853,-182.683
lg,1625260609900222624,0,0.1062,-0.6501,0.7046,242,13.3667,47.4243,-9.9487,83,1.3407,1.0505,-14.6344,-25.5876,25,0.037,7949,3.9853,-183.7163
lg,1625260609900241238,0,-0.1497,-0.5305,0.6582,243,17.9443,43.7012,-12.3901,83,1.3417,1.0505,-11.8741,-24.9771,25,0.037,9091,3.9853,-184.8378
lg,1625260609900259928,0,-0.3564,-0.3669,0.6057,244,8.5449,-10.1318,-0.9155,83,1.3417,1.0505,-10.8426,-24.8832,25,0.038,9655,3.9853,-184.6483
lg,1625260609900277791,0,0.2197,-0.4233,0.7363,245,-12.3291,-78.6743,18.1274,83,1.3457,1.0515,-13.5037,-25.9978,25,0.039,8016,3.9853,-182.5548
lg,1625260609900295334,0,0.5566,-0.6309,0.8713,246,-19.4092,-67.9932,21.5454,83,1.3417,1.0555,-16.0759,-27.6528,25,0.039,8046,3.9853,-180.3967
lg,1625260609900313404,0,0.4976,-0.634,0.8933,247,-16.3574,-45.8984,18.3716,83,1.3427,1.0555,-17.6646,-29.0493,25,0.039,8073,3.9853,-178.7248
lg,1625260609900331116,0,0.2725,-0.5754,0.8494,248,-11.9019,-29.48,15.8691,83,1.3367,1.0515,-18.2594,-30.0875,25,0.038,8162,3.9853,-177.472
lg,1625260609900347982,0,0.3909,-0.6177,0.9019,249,-13.0005,-39.4897,18.7378,83,1.3407,1.0515,-19.282,-31.2613,25,0.039,8084,3.9853,-175.886
lg,1625260609900365224,0,0.635,-0.6399,0.9312,250,-8.3618,-47.7905,14.4043,83,1.3417,1.0525,-21.205,-32.3116,25,0.039,8107,3.9853,-174.2285
lg,1625260609900382391,0,0.8457,-0.7744,0.9512,251,9.2163,-10.8643,-3.7842,83,1.3397,1.0465,-22.1754,-32.2163,25,0.041,8137,3.9853,-174.0325
lg,1625260609900399953,0,0.3464,-0.6396,0.8613,252,32.6538,59.4482,-15.0757,83,1.3427,1.0425,-20.2957,-30.4027,25,0.038,8232,3.9853,-175.8476
lg,1625260609900417515,0,0.1311,-0.6047,0.8252,253,38.8184,73.4253,-12.3901,83,1.3427,1.0235,-17.2843,-28.4149,25,0.036,8249,3.9853,-177.5136
lg,1625260609900436280,0,-0.0464,-0.5745,0.8523,254,42.2974,54.0161,-3.7842,83,1.3407,0.9945,-14.6766,-26.6289,25,0.033,8223,3.9853,-178.6146
lg,1625260609900454312,0,0.0503,-0.6282,0.8923,255,40.4663,19.4092,5.249,83,1.3427,0.9715,-13.4202,-25.3182,25,0.039,8169,3.9853,-178.6788
lg,1625260609900472193,0,0.2188,-0.4355,0.7332,256,30.1514,-10.2539,7.5684,83,1.3427,0.9515,-13.7009,-24.4296,25,0.041,8258,3.9853,-178.1705
lg,1625260610267072869,0,0.5459,-0.4678,0.8516,257,-13.0615,-14.7095,-16.7847,83,1.3417,0.9575,-15.1225,-25.0064,25,0.038,24430,3.9853,-178.507
lg,1625260610267113294,0,-0.0139,-0.498,0.7588,258,-33.8745,17.5171,-30.2734,83,1.3417,0.9865,-14.3939,-26.3189,25,0.043,14548,3.9853,-179.8691
lg,1625260610267134651,0,-0.2297,-0.6423,0.8369,259,-41.748,-14.0991,-21.0571,83,1.3417,1.0045,-14.2655,-28.2919,25,0.042,7450,3.9853,-180.2799
lg,1625260610267154357,0,-0.1484,-0.6724,0.8618,260,-42.7856,-40.7715,-15.2588,83,1.3407,1.0205,-15.1321,-30.4478,25,0.04,7623,3.9853,-179.9197
lg,1625260610267173162,0,0.2424,-0.7124,0.8384,261,-44.3115,-77.3926,-6.1646,83,1.3397,1.0315,-17.7764,-33.023,25,0.041,7794,3.9853,-178.335
lg,1625260610267191478,0,0.4524,-0.9097,1.136,262,-38.6963,-62.9883,-1.77,83,1.3397,1.0355,-19.8678,-35.2453,25,0.042,8948,3.9853,-176.8322
lg,1625260610267210189,0,0.24,-0.9077,0.6758,263,2.0752,-54.0161,-22.7661,83,1.3387,1.0345,-21.8628,-36.0893,25,0.046,8305,3.9853,-176.0222
lg,1625260610267229332,0,-0.0308,-0.22,0.4631,264,26.5503,-39.2456,-22.7051,83,1.3387,1.0365,-22.7003,-34.6416,25,0.046,8243,3.9853,-175.9955
lg,1625260610267247499,0,0.2554,-0.342,0.6045,265,-7.2632,-67.0166,10.0098,83,1.3387,1.0355,-24.5508,-35.5312,25,0.045,7679,3.9853,-174.0361
lg,1625260610267266285,0,0.488,-0.5249,0.6919,266,-18.7988,-75.5615,19.5923,83,1.3387,1.0385,-26.6825,-37.5014,25,0.044,7885,3.9853,-171.3113
lg,1625260610267284939,0,0.8916,-0.709,0.8364,267,-18.0664,-48.4009,26.2451,83,1.3407,1.0435,-28.0202,-39.3614,25,0.044,7778,3.9853,-168.9795
lg,1625260610267303876,0,0.8081,-0.7139,0.8574,268,-10.0098,-15.8081,20.813,83,1.3397,1.0455,-27.3885,-39.4198,25,0.044,7786,3.9853,-168.9426
lg,1625260610267322286,0,0.6802,-0.6794,0.8679,269,7.2632,41.0156,9.8267,83,1.3377,1.0485,-26.0381,-38.7001,25,0.043,7838,3.9853,-169.7934
lg,1625260610267340265,0,0.478,-0.6536,0.8206,270,17.4561,72.876,6.8359,83,1.3407,1.0495,-23.5187,-37.2577,25,0.043,8558,3.9853,-171.5452
lg,1625260610267363893,0,0.1936,-0.8599,0.9934,271,23.0713,79.2236,3.0518,83,1.3397,1.0415,-20.3675,-35.3154,25,0.042,7815,3.9853,-173.6382
lg,1625260610267384218,0,-0.0327,-0.9927,0.9604,272,54.0771,74.7681,-12.6953,83,1.3397,1.0245,-17.3615,-32.8815,25,0.04,8202,3.9853,-175.6862
lg,1625260610267402723,0,-0.1792,-0.5801,0.7368,273,83.0688,34.5459,-4.9438,83,1.3447,0.9765,-15.2192,-29.528,25,0.036,8228,3.9853,-176.5128
lg,1625260610267420758,0,-0.0444,-0.512,0.7466,274,75.5615,0.061,2.8076,83,1.3417,0.9345,-15.6976,-27.3417,25,0.036,7684,3.9853,-175.5363
lg,1625260610267438456,0,0.3267,-0.5757,0.7595,275,63.3545,-43.7012,14.5264,83,1.3407,0.9144,-17.1298,-25.572,25,0.031,8227,3.9853,-174.0802
lg,1625260610267456585,0,0.5684,-0.4624,0.7034,276,54.9316,-32.8369,17.2729,83,1.3427,0.8984,-18.6874,-24.0197,25,0.032,8498,3.9853,-172.7737
lg,1625260610267473757,0,0.7566,-0.241,0.6768,277,24.1089,-3.8452,12.4512,83,1.3417,0.8884,-19.6833,-23.1025,25,0.034,10866,3.9853,-172.2786
lg,1625260610267491680,0,0.4182,-0.6172,0.8899,278,6.6528,28.3813,-4.4556,83,1.3427,0.8954,-18.7796,-23.0708,25,0.033,8127,3.9853,-172.7738
lg,1625260610267510316,0,0.2854,-0.533,0.8176,279,8.8501,27.5879,-11.9629,83,1.3427,0.9104,-17.7756,-22.713,25,0.034,8314,3.9853,-173.5991
lg,1625260610267529308,0,0.1135,-0.3633,0.7263,280,-11.7798,12.3901,-22.583,83,1.3427,0.9355,-17.2822,-23.0108,25,0.039,7850,3.9853,-174.628
lg,1625260610267547418,0,0.0066,-0.5173,0.854,281,-38.7573,-10.0708,-17.5781,83,1.3427,0.9745,-17.276,-24.7359,25,0.038,8756,3.9842,-175.0397
lg,1625260610267565548,0,-0.0676,-0.7021,0.9072,282,-44.9829,-39.5508,-16.2354,93,1.3417,1.0105,-18.1862,-27.0873,25,0.034,9763,3.9842,-174.7818
lg,1625260610267583864,0,0.0232,-0.6921,0.8875,283,-41.5039,-58.1055,-12.3901,93,1.3397,1.0255,-20.5033,-29.6411,25,0.041,8289,3.9842,-173.4384
lg,1625260610267601637,0,0.3264,-0.6475,0.8762,284,-41.0767,-72.876,-1.8921,93,1.3387,1.0275,-22.8776,-32.117,25,0.039,8500,3.9842,-171.8009
lg,1625260610267620723,0,0.0889,-0.5408,0.2842,285,40.9546,-47.3022,-35.7666,93,1.3397,1.0275,-24.7736,-31.615,25,0.04,8544,3.9842,-171.5485
lg,1625260610267638852,0,0.0371,0.0327,0.4458,286,9.8267,-49.5605,-7.1411,93,1.3407,1.0265,-26.0037,-30.1204,26,0.04,8537,3.9842,-171.303
lg,1625260610267658370,0,0.2627,-0.1807,0.4968,287,-14.9536,-60.5469,14.5874,93,1.3407,1.0305,-27.8043,-31.189,26,0.039,8179,3.9842,-169.5313
lg,1625260610267678151,0,0.8989,-0.542,0.885,288,-46.5698,-62.0117,34.668,93,1.3387,1.0355,-29.6326,-34.431,26,0.039,8583,3.9842,-166.6484
lg,1625260610615725758,0,0.2881,-0.7407,0.9646,289,8.3008,90.6372,-0.5493,93,1.3417,1.0395,-26.0091,-33.1539,25,0.04,24774,3.9842,-168.8857
lg,1625260610615773539,0,-0.0686,-0.9246,0.9688,290,36.499,75.3174,-7.2021,93,1.3417,1.0355,-22.546,-31.3162,25,0.04,9980,3.9842,-170.7034
lg,1625260610615796285,0,-0.0029,-0.5977,0.8113,291,65.6738,26.4893,2.3193,93,1.3427,1.0005,-20.7124,-28.7347,26,0.036,10571,3.9842,-171.0864
lg,1625260610615818749,0,0.1641,-0.6572,0.7913,292,56.5186,-7.9346,9.7046,93,1.3427,0.9685,-20.3631,-27.1164,26,0.031,7862,3.9842,-170.3936
lg,1625260610615839168,0,0.2729,-0.6899,0.8547,293,53.2227,-21.2402,13.2446,93,1.3427,0.9465,-20.6438,-25.7882,26,0.023,7543,3.9842,-169.3123
lg,1625260610615858405,0,0.7085,-0.2329,0.637,294,31.3721,-35.5225,16.0522,93,1.3427,0.9385,-22.6241,-24.8315,26,0.027,7712,3.9842,-168.1043
lg,1625260610615878317,0,0.6738,-0.5164,0.7776,295,10.3149,-15.8691,9.9487,93,1.3427,0.9415,-22.7374,-25.2181,25,0.031,7578,3.9842,-168.0227
lg,1625260610615899092,0,0.4602,-0.6169,0.8933,296,-8.2397,26.7334,-5.127,93,1.3407,0.9575,-21.8778,-25.6444,25,0.032,7732,3.9842,-168.5797
lg,1625260610615917484,0,0.1177,-0.5747,0.7988,297,-10.8643,29.7852,-18.1885,93,1.3417,0.9785,-20.5459,-26.037,25,0.039,8499,3.9842,-169.6858
lg,1625260610615935594,0,-0.0527,-0.6011,0.7971,298,-14.9536,2.1362,-13.6719,93,1.3427,0.9995,-19.8161,-26.8897,25,0.038,7787,3.9842,-170.0934
lg,1625260610615954587,0,0.0117,-0.6091,0.8572,299,-15.564,-19.5923,-10.9863,93,1.3427,1.0245,-20.801,-27.9761,25,0.036,8100,3.9842,-169.6364
lg,1625260610615972359,0,0.3613,-0.6401,0.8567,300,-12.4512,-47.3022,-9.8267,93,1.3427,1.0305,-22.5609,-29.0402,25,0.039,8208,3.9842,-168.9093
lg,1625260610615990151,0,0.4246,-0.6101,0.7129,301,-10.1318,-34.1187,-17.1509,93,1.3427,1.0295,-24.1596,-29.9185,25,0.037,7894,3.9842,-168.6535
lg,1625260610616008505,0,0.3418,-0.5107,0.6062,302,-8.1787,-21.4233,-19.3481,93,1.3417,1.0275,-25.2587,-30.5331,26,0.041,7930,3.9842,-168.7483
lg,1625260610616026146,0,0.0168,-0.2136,0.5361,303,-1.1597,13.0005,-9.9487,93,1.3417,1.0285,-24.1096,-29.9126,26,0.04,7891,3.9842,-169.5773
lg,1625260610616044951,0,-0.4553,-0.2322,0.437,304,3.2959,19.104,-6.4087,93,1.3417,1.0305,-21.9897,-30.2405,26,0.042,7903,3.9842,-169.3757
lg,1625260610616064056,0,-0.2368,-0.4241,0.7439,305,-26.001,-55.1147,23.0103,93,1.3427,1.0335,-22.0085,-32.0184,26,0.043,7952,3.9842,-167.3255
lg,1625260610616081454,0,0.9338,-0.8235,1.0674,306,-32.1655,-136.5967,37.4146,93,1.3437,1.0365,-26.1907,-35.4143,25,0.042,8864,3.9842,-162.5453
lg,1625260610616099770,0,1.2825,-1.1292,1.1772,307,19.4702,-48.8281,-0.3662,93,1.3457,1.0385,-28.2533,-35.499,25,0.042,8072,3.9842,-161.154
lg,1625260610616118406,0,0.9194,-0.9644,1.0693,308,47.1191,18.9819,-14.2822,93,1.3427,1.0335,-28.124,-33.373,25,0.038,8102,3.9842,-162.0677
lg,1625260610616136010,0,0.24,-0.675,0.8853,309,66.5283,82.4585,-14.4043,93,1.3467,1.0245,-25.0065,-29.7826,25,0.037,8079,3.9842,-164.4534
lg,1625260610616153445,0,0.1433,-0.707,0.8787,310,69.6411,46.1426,3.479,93,1.3467,1.0135,-22.6433,-27.0586,25,0.035,8066,3.9842,-165.1028
lg,1625260610616177636,0,0.2744,-0.7056,0.9468,311,69.7632,32.6538,12.8174,93,1.3447,1.0085,-20.8833,-24.6285,25,0.038,8106,3.9842,-165.0606
lg,1625260610616197792,0,0.5518,-0.3513,0.6506,312,68.1152,22.3389,17.5171,93,1.3477,1.0155,-20.4054,-22.1373,25,0.035,8147,3.9842,-164.7258
lg,1625260610616215940,0,0.8289,-0.3379,0.7402,313,14.7705,45.8374,13.2446,93,1.3477,1.0255,-19.4722,-21.5427,25,0.036,8166,3.9842,-164.9146
lg,1625260610616233637,0,0.6646,-0.4482,0.7004,314,3.7842,78.125,6.7139,93,1.3457,1.0355,-16.8904,-21.4618,25,0.037,8207,3.9842,-165.7396
lg,1625260610616251691,0,0.1731,-0.4136,0.7056,315,-12.207,114.1357,-8.9111,93,1.3427,1.0385,-12.6047,-21.7675,25,0.041,8158,3.9842,-167.7233
lg,1625260610616269595,0,-0.5273,-0.5645,0.771,316,-31.6772,91.3696,-17.7002,93,1.3447,1.0445,-8.0206,-23.153,25,0.035,8238,3.9842,-169.7166
lg,1625260610616289751,0,-0.6187,-0.647,0.8076,317,-36.8042,33.4473,-15.9912,93,1.3457,1.0415,-8.2557,-25.13,25,0.038,8215,3.9842,-169.5204
lg,1625260610616307562,0,-0.0439,-0.5396,0.748,318,-33.8135,-72.6318,-5.188,93,1.3417,1.0375,-10.5146,-27.0768,26,0.039,8257,3.9842,-168.3558
lg,1625260610616325297,0,0.3408,-0.4373,0.8169,319,-30.3345,-66.1621,-0.9155,93,1.3417,1.0305,-13.2395,-28.5745,26,0.044,11006,3.9842,-167.1122
lg,1625260610616343276,0,-0.1177,-0.0955,0.446,320,2.8076,-27.2827,-8.4229,93,1.3447,1.0295,-13.3186,-27.8682,26,0.047,8269,3.9842,-167.0266
lg,1625260610973233172,0,1.0457,-0.793,1.1184,321,-59.9976,-137.6343,43.1519,93,1.3447,1.0365,-17.343,-30.8285,26,0.044,24485,3.9842,-163.6489
lg,1625260610973274047,0,1.3987,-1.0046,1.1304,322,-15.686,-24.0479,18.3105,93,1.3447,1.0395,-15.9349,-30.4535,26,0.046,9591,3.9842,-164.7321
lg,1625260610973295610,0,-0.0022,-0.7766,0.9509,323,32.0435,127.5024,-12.146,93,1.3457,1.0425,-11.1437,-28.8165,25,0.045,10312,3.9842,-167.6584
lg,1625260610973315579,0,-0.2156,-0.7791,0.8745,324,50.5981,54.5654,-13.2446,93,1.3467,1.0425,-8.6484,-27.0388,25,0.042,7727,3.9842,-169.0621
lg,1625260610973334684,0,0.0127,-0.6978,0.8496,325,54.8706,19.5923,-2.8076,93,1.3467,1.0385,-7.689,-25.2714,25,0.038,7729,3.9842,-169.4351
lg,1625260610973353582,0,0.3264,-0.781,0.8254,326,56.7017,3.6621,2.5024,93,1.3477,1.0335,-7.8573,-23.6929,25,0.036,7706,3.9842,-169.3183
lg,1625260610973372594,0,0.3323,-0.7419,0.7595,327,64.3311,19.2261,3.6621,93,1.3477,1.0265,-7.4882,-21.8697,25,0.037,8559,3.9842,-169.3848
lg,1625260610973391793,0,0.2524,-0.6501,0.7278,328,62.2559,23.4985,4.2725,93,1.3477,1.0205,-6.8239,-20.3041,25,0.033,9440,3.9842,-169.4484
lg,1625260610973410785,0,0.1448,-0.5723,0.707,329,48.0347,15.0146,6.1646,93,1.3457,1.0235,-6.2786,-19.1098,25,0.035,7822,3.9842,-169.3345
lg,1625260610973428483,0,0.1597,-0.6567,0.7698,330,46.3257,-9.1553,6.6528,93,1.3477,1.0245,-6.6617,-18.1209,25,0.041,7831,3.9842,-168.8738
lg,1625260610973446499,0,0.1875,-0.489,0.6738,331,55.7861,-19.5312,4.1504,93,1.3477,1.0295,-7.6045,-16.6239,25,0.038,7843,3.9842,-168.4024
lg,1625260610973465567,0,0.2898,-0.0608,0.5186,332,41.1377,-32.8369,2.9907,93,1.3477,1.0325,-9.6609,-14.7032,25,0.039,8062,3.9842,-167.9879
lg,1625260610973484634,0,0.3464,-0.2251,0.6401,333,-12.6953,-35.5225,3.418,93,1.3517,1.0355,-11.6674,-15.4681,25,0.039,7870,3.9842,-167.4443
lg,1625260610973503796,0,0.3135,-0.3757,0.7751,334,-33.6304,-35.0342,2.3804,93,1.3457,1.0425,-13.3109,-17.3076,25,0.042,7804,3.9842,-166.8597
lg,1625260610973522544,0,0.1672,-0.606,0.9744,335,-48.584,-42.5415,2.1362,93,1.3467,1.0515,-14.7009,-19.9764,25,0.04,7777,3.9842,-166.084
lg,1625260610973541349,0,0.1758,-0.6575,0.9692,336,-47.1191,-52.1851,1.4038,93,1.3507,1.0505,-16.6703,-22.482,25,0.041,7845,3.9842,-164.9863
lg,1625260610973558671,0,0.219,-0.4297,0.824,337,-35.2783,-60.3638,5.0049,93,1.3467,1.0495,-18.6578,-24.4507,25,0.039,10843,3.9842,-163.7262
lg,1625260610973577964,0,0.2493,-0.3835,0.8689,338,-35.5225,-52.063,11.2305,93,1.3437,1.0465,-20.1777,-26.2914,25,0.04,7898,3.9842,-162.3596
lg,1625260610973596618,0,0.479,-0.3745,0.9033,339,-20.4468,-36.1328,25.7568,93,1.3477,1.0465,-21.2251,-27.5517,25,0.039,8166,3.9842,-160.726
lg,1625260610973614673,0,0.7949,-0.7068,0.9866,340,-3.6011,-10.498,17.5781,93,1.3467,1.0495,-21.7375,-28.2976,25,0.039,7926,3.9842,-159.7419
lg,1625260610973632408,0,0.832,-0.7915,1.0537,341,12.2681,22.2778,9.4604,93,1.3447,1.0505,-21.1937,-28.0747,25,0.041,7925,3.9842,-159.7265
lg,1625260610973650462,0,0.2832,-0.7422,0.9629,342,42.7246,91.7358,-6.897,93,1.3467,1.0575,-17.7576,-26.0762,25,0.043,7989,3.9842,-161.6185
lg,1625260610973668929,0,-0.1343,-0.5852,0.876,343,51.3306,97.4121,-9.0332,93,1.3487,1.0555,-14.0955,-23.8388,26,0.045,8009,3.9842,-163.2744
lg,1625260610973688128,0,-0.1309,-0.5847,0.823,344,50.8423,48.645,-6.6528,93,1.3457,1.0495,-11.5946,-22.0419,26,0.041,8248,3.9842,-164.1793
lg,1625260610973706613,0,0.1138,-0.6707,0.8247,345,52.2461,8.3618,2.9297,93,1.3467,1.0435,-11.0435,-20.6271,26,0.041,8047,3.9842,-164.0537
lg,1625260610973723917,0,0.2434,-0.6177,0.771,346,53.4058,3.6011,5.7373,93,1.3487,1.0205,-10.854,-19.2457,25,0.038,8047,3.9842,-163.6571
lg,1625260610973741520,0,0.2188,-0.5786,0.7756,347,48.2788,8.9111,13.0005,93,1.3487,0.9755,-10.4434,-18.0624,25,0.039,12732,3.9842,-163.1459
lg,1625260610973758955,0,0.2405,-0.5874,0.7822,348,41.0156,-1.2817,16.1743,93,1.3497,0.9515,-10.4485,-17.2617,25,0.031,8113,3.9842,-162.3731
lg,1625260610973776559,0,0.2759,-0.575,0.7661,349,38.6353,-7.5073,16.1133,93,1.3497,0.9315,-10.9658,-16.5304,25,0.035,8237,3.9842,-161.5358
lg,1625260610973794275,0,0.3591,-0.4773,0.7407,350,31.311,-10.1929,17.8223,93,1.3497,0.9164,-11.6101,-16.0367,25,0.037,8002,3.9842,-160.6092
lg,1625260610973812179,0,0.3169,-0.4924,0.8389,351,19.9585,-2.6855,16.3574,93,1.3487,0.9084,-11.7976,-15.92,25,0.037,8190,3.9842,-159.8268
lg,1625260610973830684,0,0.3875,-0.4592,0.8408,352,13.9771,-4.5166,16.7236,93,1.3497,0.9084,-12.2893,-16.1048,25,0.037,8056,3.9842,-159.1468
lg,1625260611342683441,0,0.1523,-0.3093,0.6831,353,-3.2959,-5.3711,-0.8545,93,1.3487,0.9365,-12.4738,-16.5645,26,0.042,24331,3.9842,-159.0491
lg,1625260611342722506,0,0.2344,-0.2097,0.6821,354,-26.4282,-26.9775,-6.5308,93,1.3497,0.9455,-13.7999,-17.6502,26,0.043,8573,3.9842,-158.9729
lg,1625260611342743228,0,-0.1948,-0.5381,0.9963,355,-51.2695,-13.3057,-6.7749,93,1.3497,0.9505,-13.4867,-20.0924,25,0.045,16243,3.9842,-158.976
lg,1625260611342765074,0,-0.228,-0.6685,1.0859,356,-47.6074,-41.1987,-4.8828,93,1.3497,0.9505,-15.6046,-22.4456,25,0.045,7613,3.9842,-157.7619
lg,1625260611342784710,0,0.2166,-0.6855,1.1123,357,-31.3721,-95.52,4.6387,93,1.3497,0.9515,-18.7753,-24.5876,25,0.045,7636,3.9842,-155.8878
lg,1625260611342803802,0,0.6704,-0.6814,1.0208,358,-20.0806,-83.8623,6.7139,93,1.3497,0.9525,-22.0638,-26.3488,25,0.046,7523,3.9842,-153.9718
lg,1625260611342822932,0,0.7336,-0.6311,1.0049,359,-15.686,-51.2695,5.8594,93,1.3497,0.9545,-24.1533,-27.6671,26,0.045,7593,3.9842,-152.6469
lg,1625260611342856900,0,0.4211,-0.6492,1.0195,360,-13.916,10.6812,1.9531,93,1.3497,0.9615,-23.5425,-28.3521,26,0.044,8658,3.9842,-152.7147
lg,1625260611342877810,0,0.2837,-0.5471,0.7991,361,-18.3105,22.644,3.7231,93,1.3477,0.9765,-22.3944,-29.193,26,0.045,7685,3.9842,-152.9529
lg,1625260611342919311,0,0.2856,-0.541,0.751,362,-23.7427,20.4468,4.6997,93,1.3467,0.9885,-21.3864,-30.3008,26,0.044,7902,3.9842,-153.1182
lg,1625260611342937672,0,0.1501,-0.6333,0.7712,363,-26.4893,23.3154,-0.3052,93,1.3487,1.0055,-20.097,-31.5403,25,0.048,7760,3.9842,-153.5121
lg,1625260611342955115,0,0.0259,-0.7131,0.7913,364,-26.5503,19.043,-4.2114,93,1.3487,1.0185,-19.0932,-32.8044,25,0.046,7766,3.9842,-153.6474
lg,1625260611342972203,0,-0.0134,-0.6714,0.7229,365,-16.5405,-8.606,-1.77,93,1.3467,1.0255,-18.6535,-33.9174,25,0.045,7799,3.9842,-153.38
lg,1625260611342990321,0,0.0825,-0.5872,0.6946,366,-12.207,-32.2876,1.5259,93,1.3467,1.0295,-19.1494,-34.9234,25,0.046,7771,3.9842,-152.4749
lg,1625260611343007839,0,0.1565,-0.5999,0.7144,367,-12.9395,-40.8325,2.3193,93,1.3437,1.0315,-20.0371,-36.0047,25,0.043,7802,3.9842,-151.3219
lg,1625260611343025264,0,0.2942,-0.6475,0.7341,368,-14.2822,-45.8374,7.2632,93,1.3467,1.0365,-21.1935,-37.2829,25,0.043,8202,3.9842,-149.8293
lg,1625260611343066633,0,0.2412,-0.8445,0.7783,369,5.9814,-47.7295,-1.77,93,1.3447,1.0335,-22.3795,-37.8951,25,0.041,10461,3.9842,-148.4839
lg,1625260611343087486,0,0.3398,-0.728,0.8389,370,24.5972,-46.4478,-4.9438,93,1.3437,1.0345,-23.746,-37.4474,25,0.045,8169,3.9842,-147.3698
lg,1625260611343104892,0,0.4087,-0.5295,0.7051,371,39.2456,-35.5225,1.8311,93,1.3447,1.0355,-25.4165,-35.9152,25,0.046,7969,3.9842,-146.5323
lg,1625260611343121774,0,0.7134,-0.2832,0.5947,372,35.0342,-12.085,11.3525,93,1.3447,1.0365,-26.3949,-34.5093,25,0.045,7905,3.9842,-145.9606
lg,1625260611343138842,0,0.6377,-0.5137,0.8457,373,20.1416,47.9736,11.6577,93,1.3447,1.0385,-24.7983,-33.2485,25,0.043,8316,3.9842,-146.7835
lg,1625260611343155967,0,0.53,-0.5071,0.752,374,24.9023,68.6035,9.0332,93,1.3457,1.0415,-22.0219,-31.6179,25,0.04,7947,3.9842,-148.1125
lg,1625260611343174572,0,0.1267,-0.7642,1.0276,375,36.438,81.665,-10.8643,93,1.3467,1.0415,-18.8072,-29.6125,25,0.04,9064,3.9842,-150.202
lg,1625260611343192297,0,-0.199,-0.6692,0.854,376,72.2656,47.9736,-21.5454,93,1.3457,1.0185,-16.4281,-26.5504,25,0.038,10047,3.9842,-151.8067
lg,1625260611343210152,0,-0.0693,-0.4495,0.8069,377,63.5376,-9.3994,-8.8501,93,1.3477,0.9755,-16.1125,-24.075,25,0.033,8421,3.9842,-151.9242
lg,1625260611343341212,0,0.2771,-0.4712,0.8457,378,48.7671,-52.002,6.2256,93,1.3477,0.9405,-17.908,-22.6473,25,0.03,7903,3.9842,-150.7654
lg,1625260611343365587,0,0.4761,-0.5054,0.8635,379,43.9453,-55.0537,10.6201,93,1.3467,0.9144,-20.0782,-21.5994,25,0.037,8463,3.9842,-149.3844
lg,1625260611343387677,0,0.6343,-0.3083,0.8103,380,33.0811,-27.3438,13.1226,93,1.3447,0.8994,-21.5296,-20.5823,25,0.04,8663,3.9842,-148.4558
lg,1625260611343476599,0,0.7295,-0.3667,0.9539,381,0.4272,12.5732,8.8501,93,1.3507,0.8994,-21.4785,-20.636,25,0.038,8692,3.9842,-148.2873
lg,1625260611343507645,0,0.4666,-0.3652,0.8765,382,-10.498,59.5703,-0.9155,93,1.3517,0.9204,-19.4527,-20.7967,25,0.038,8702,3.9842,-149.201
lg,1625260611343528274,0,0.2786,-0.3765,0.8599,383,-22.0337,69.7021,-10.0098,93,1.3457,0.9395,-16.8864,-21.3311,25,0.043,8001,3.9842,-150.6165
lg,1625260611343548115,0,0.0227,-0.4331,0.8213,384,-49.4385,46.7529,-26.3062,93,1.3477,0.9685,-14.9533,-23.0801,25,0.043,8397,3.9842,-152.2988
lg,1625260611676169793,0,-0.2197,-0.5505,0.8362,385,-94.0552,-42.7856,-33.1421,93,1.3457,1.0295,-16.1978,-27.3914,25,0.045,24241,3.9842,-152.6322
lg,1625260611676210975,0,-0.0127,-0.7141,0.7773,386,-103.3936,-78.4302,-21.8506,93,1.3417,1.0295,-18.69,-32.3722,25,0.043,8489,3.9842,-151.6383
lg,1625260611676231997,0,-0.1167,-0.8379,0.9216,387,-43.396,-78.064,-36.0718,93,1.3437,1.0285,-21.1562,-34.6906,25,0.041,9096,3.9842,-150.9631
lg,1625260611676274847,0,-0.2668,-0.3,0.7571,388,-30.5176,-84.1064,-15.2588,93,1.3437,1.0325,-22.8216,-35.9531,26,0.044,11688,3.9842,-149.6036
lg,1625260611676295400,0,0.7217,-0.4236,0.7495,389,-58.1055,-143.3716,32.2266,93,1.3447,1.0345,-27.1842,-40.1797,26,0.042,7938,3.9842,-144.638
lg,1625260611676314399,0,1.5625,-1.0593,1.1045,390,-57.0068,-75.0732,33.02,93,1.3457,1.0365,-29.2186,-44.1784,26,0.043,7767,3.9842,-141.1593
lg,1625260611676333529,0,0.9612,-1.0461,1.0718,391,-7.3242,90.6372,4.8828,93,1.3457,1.0395,-26.6112,-43.2086,26,0.041,9826,3.9842,-143.8486
lg,1625260611676352977,0,0.0024,-1.0068,0.9297,392,37.5977,155.2734,-15.2588,93,1.3457,1.0395,-21.385,-39.8494,26,0.042,7999,3.9842,-148.7536
lg,1625260611676371301,0,-0.2993,-0.7166,0.7622,393,57.373,127.1973,-20.0806,93,1.3467,1.0295,-18.0411,-36.521,26,0.04,7892,3.9842,-151.3387
lg,1625260611676389681,0,-0.1819,-0.6943,0.731,394,65.5518,31.9214,-17.6392,93,1.3467,1.0045,-16.3383,-33.7857,26,0.039,7813,3.9842,-152.598
lg,1625260611676408698,0,0.2339,-0.646,0.7246,395,63.3545,-9.2163,0.5493,90,1.3477,0.9735,-16.5281,-31.6325,26,0.029,7853,3.9809,-152.2805
lg,1625260611676427134,0,0.3103,-0.6165,0.7112,396,61.6455,-6.7749,4.3335,90,1.3477,0.9455,-16.5391,-29.7753,26,0.035,7674,3.9809,-151.7975
lg,1625260611676444540,0,0.4009,-0.5996,0.7244,397,51.4526,-5.6152,11.9019,90,1.3467,0.9204,-16.7682,-28.2444,26,0.033,8451,3.9809,-151.1486
lg,1625260611676462733,0,0.7791,-0.2378,0.6482,398,14.4043,-10.9253,13.9771,90,1.3477,0.9194,-18.0823,-27.6587,26,0.035,7874,3.9809,-150.4907
lg,1625260611676480926,0,0.8484,-0.4026,0.6606,399,-2.8076,6.958,7.2021,90,1.3517,0.9315,-17.6415,-28.1449,25,0.037,7777,3.9809,-151.1488
lg,1625260611676498913,0,0.3245,-0.7195,0.7615,400,-9.2163,55.1758,-16.9678,90,1.3467,0.9435,-16.0316,-28.6021,25,0.037,7981,3.9809,-152.6917
lg,1625260611676516468,0,-0.46,-0.4648,0.5444,401,3.9062,77.6367,-18.9819,90,1.3477,0.9495,-11.9814,-28.3112,25,0.039,7835,3.9809,-154.7892
lg,1625260611676534043,0,-0.7307,-0.3281,0.5371,402,-1.0376,47.1191,-9.4604,90,1.3507,0.9465,-10.4562,-28.8258,25,0.039,8177,3.9809,-154.3164
lg,1625260611676551580,0,-0.3098,-0.3506,0.6838,403,-32.8369,-93.2007,20.2026,90,1.3457,0.9485,-12.0634,-30.57,26,0.041,7849,3.9809,-151.7427
lg,1625260611676569042,0,0.7598,-0.8162,1.0112,404,-41.9312,-167.6636,29.9072,90,1.3477,0.9495,-17.782,-33.7564,26,0.042,8019,3.9809,-146.9187
lg,1625260611676586392,0,1.1326,-0.9109,1.0737,405,-24.0479,-136.9629,23.0713,90,1.3467,0.9415,-22.5934,-36.4144,26,0.041,7950,3.9809,-142.6543
lg,1625260611676604304,0,0.8008,-0.7866,0.9697,406,16.9678,-3.1738,-2.5024,90,1.3457,0.9235,-23.1466,-35.8201,26,0.042,7979,3.9809,-142.6302
lg,1625260611676644362,0,0.0999,-0.6252,0.875,407,34.9731,56.6406,-4.3335,90,1.3477,0.9114,-20.6954,-33.831,25,0.043,7978,3.9809,-144.1765
lg,1625260611676670667,0,0.0283,-0.5559,0.8181,408,36.1938,40.7104,-1.1597,90,1.3467,0.8984,-18.918,-32.073,25,0.045,8124,3.9809,-145.1485
lg,1625260611676689797,0,0.3201,-0.5837,0.7932,409,33.2031,10.6201,8.606,90,1.3437,0.8874,-18.3393,-30.9346,25,0.041,7986,3.9809,-145.0208
lg,1625260611676708627,0,0.3308,-0.6174,0.8108,410,36.5601,26.9775,7.4463,90,1.3477,0.8734,-17.248,-29.6275,25,0.038,8184,3.9809,-145.247
lg,1625260611676747148,0,0.2444,-0.6292,0.7979,411,41.3208,32.2876,4.2725,90,1.3467,0.8594,-15.796,-28.1887,26,0.039,8060,3.9809,-145.6363
lg,1625260611676767327,0,0.155,-0.5969,0.8005,412,48.8281,21.3623,-3.54,90,1.3477,0.8484,-14.8341,-26.438,26,0.042,8245,3.9809,-146.0772
lg,1625260611676855668,0,0.1709,-0.613,0.7856,413,51.1475,3.7231,-4.8218,90,1.3467,0.8444,-14.5915,-24.7917,26,0.042,9821,3.9809,-146.203
lg,1625260611676906762,0,0.2393,-0.5273,0.7446,414,48.645,-6.6528,-1.4648,90,1.3487,0.8494,-14.8681,-23.2742,26,0.043,8278,3.9809,-146.0423
lg,1625260611676928983,0,0.4058,-0.4189,0.7505,415,35.0342,-9.5215,1.5259,90,1.3497,0.8584,-15.6033,-22.144,26,0.048,8148,3.9809,-145.7808
lg,1625260611676951654,0,0.5464,-0.562,0.8984,416,20.4468,-9.5825,-2.4414,90,1.3497,0.8654,-16.4732,-21.7158,26,0.047,8454,3.9809,-145.6269
lg,1625260612030868542,0,-0.0093,-0.363,0.6951,417,3.1738,66.3452,-32.4097,90,1.3487,0.9074,-13.8202,-21.2343,26,0.043,24833,3.9809,-147.8148
lg,1625260612030916418,0,-0.2795,-0.4148,0.8679,418,-17.2119,11.9629,-35.3394,90,1.3487,0.9495,-12.7589,-21.7303,26,0.039,12233,3.9809,-149.3109
lg,1625260612030975894,0,0.0667,-0.5686,0.8811,419,-38.4521,-52.5513,-32.4707,90,1.3477,0.9825,-14.8353,-23.6099,26,0.043,7713,3.9809,-149.614
lg,1625260612031007643,0,0.1956,-0.5862,0.7222,420,-51.0864,-53.5278,-32.4707,90,1.3467,1.0085,-17.2106,-26.1755,26,0.038,7731,3.9809,-149.743
lg,1625260612031035912,0,-0.0518,-0.3442,0.5603,421,-55.7251,-21.5454,-19.9585,90,1.3447,1.0175,-17.4986,-28.5098,26,0.042,7757,3.9809,-150.0218
lg,1625260612031064537,0,-0.2207,-0.2378,0.6438,422,-65.4297,-18.1885,-11.6577,90,1.3437,1.0205,-17.0525,-30.766,26,0.039,7739,3.9809,-150.1934
lg,1625260612031091908,0,-0.5864,-0.5073,0.615,423,-26.4282,-67.0166,-17.7002,90,1.3437,1.0225,-17.8799,-32.3504,26,0.04,7758,3.9809,-149.2885
lg,1625260612031118849,0,0.1057,-0.5439,0.9883,424,-50.8423,-148.3765,26.6113,90,1.3447,1.0245,-21.6819,-35.7295,25,0.036,7951,3.9809,-144.8774
lg,1625260612031146520,0,0.6467,-0.9014,0.9253,425,-51.6968,-176.8188,39.2456,90,1.3447,1.0245,-26.9532,-40.4744,25,0.038,7786,3.9809,-138.6478
lg,1625260612031173461,0,1.6882,-0.9294,1.0776,426,-20.9351,-132.0801,40.8936,90,1.3437,1.0275,-30.6178,-43.9394,25,0.036,7805,3.9809,-133.179
lg,1625260612031198736,0,1.2913,-0.9875,1.0269,427,12.6953,67.8101,7.6294,90,1.3457,1.0295,-28.8936,-42.48,25,0.036,7971,3.9809,-135.0849
lg,1625260612031226893,0,0.7061,-0.8604,0.8745,428,31.6772,141.2964,-4.8218,90,1.3437,1.0295,-24.8117,-39.333,26,0.035,7926,3.9809,-139.3758
lg,1625260612031257090,0,-0.0425,-0.6162,0.7319,429,46.814,157.7759,-5.7983,90,1.3467,1.0305,-18.9414,-35.881,26,0.035,7852,3.9809,-143.6843
lg,1625260612031285116,0,-0.0837,-0.7761,0.8484,430,48.3398,80.5054,-4.0894,90,1.3467,1.0205,-15.5147,-33.6091,26,0.034,8932,3.9809,-145.6451
lg,1625260612031312599,0,-0.0647,-0.7712,0.7705,431,77.2095,35.7056,-6.958,90,1.3467,0.9835,-13.7362,-30.7308,26,0.036,9955,3.9809,-146.5331
lg,1625260612031340925,0,0.0649,-0.5808,0.7058,432,83.6792,19.8364,3.54,90,1.3447,0.9465,-12.6017,-27.6799,25,0.035,7656,3.9809,-146.7114
lg,1625260612031367604,0,0.1877,-0.5471,0.7583,433,68.7256,-9.0942,10.8643,90,1.3437,0.9215,-12.6853,-25.3789,25,0.029,8339,3.9809,-146.0758
lg,1625260612031394732,0,0.5481,-0.4092,0.6074,434,57.4341,-31.6162,19.9585,90,1.3477,0.9014,-14.4291,-23.6603,25,0.031,8409,3.9809,-144.7429
lg,1625260612031420232,0,0.8037,-0.2019,0.6228,435,42.9077,-26.1841,17.8223,90,1.3477,0.8974,-15.846,-22.9262,25,0.033,8275,3.9809,-144.2331
lg,1625260612031446069,0,0.6499,-0.4536,0.7192,436,-1.77,20.752,1.77,90,1.3457,0.9004,-15.8934,-23.2211,26,0.034,8468,3.9809,-144.4215
lg,1625260612031473347,0,0.0889,-0.5793,0.8337,437,-8.1787,54.0161,-13.6719,90,1.3477,0.9144,-13.7167,-23.6497,26,0.037,8266,3.9809,-145.705
lg,1625260612031539726,0,-0.5637,-0.6572,0.8604,438,-7.9956,29.6631,-16.3574,90,1.3477,0.9295,-11.4194,-24.2103,26,0.038,11341,3.9809,-146.7016
lg,1625260612031575479,0,-0.2202,-0.3745,0.7759,439,-11.0474,-89.4775,2.1973,90,1.3477,0.9455,-13.6339,-25.0538,25,0.038,8309,3.9809,-145.0821
lg,1625260612031607490,0,0.52,-0.4714,0.8557,440,-33.1421,-136.9019,10.0098,90,1.3477,0.9695,-18.9061,-27.3203,25,0.037,9841,3.9809,-142.1436
lg,1625260612031635553,0,0.5781,-0.5068,0.8914,441,-43.0298,-68.9697,12.6953,90,1.3477,0.9915,-21.4835,-29.7658,25,0.03,8414,3.9809,-140.2257
lg,1625260612031661035,0,0.3943,-0.4438,0.8208,442,-49.1943,-43.0298,11.2915,90,1.3467,1.0115,-22.7708,-32.1838,25,0.042,7911,3.9809,-138.8702
lg,1625260612031686778,0,0.0842,-0.5388,0.7817,443,-68.4814,-32.0435,19.7144,90,1.3457,1.0255,-22.6953,-35.5734,25,0.04,8191,3.9809,-137.3687
lg,1625260612031733701,0,0.1216,-0.5549,0.7434,444,-78.4912,-63.1104,29.9683,90,1.3437,1.0305,-23.348,-39.7937,25,0.039,8266,3.9809,-134.6655
lg,1625260612031763560,0,0.2227,-0.5669,0.9668,445,-73.1201,-71.7163,33.8745,90,1.3447,1.0325,-23.788,-43.9718,25,0.037,8146,3.9809,-131.5025
lg,1625260612031789210,0,0.1165,-0.4148,0.5864,446,-26.9165,-76.416,26.4893,90,1.3427,1.0345,-24.6253,-45.968,25,0.038,8526,3.9809,-128.4722
lg,1625260612031815159,0,0.78,-0.7344,0.8796,447,-42.1143,-108.8257,37.5366,90,1.3487,1.0395,-26.8045,-49.4602,26,0.039,8152,3.9809,-123.8565
lg,1625260612031842643,0,1.2961,-0.8594,1.1277,448,-34.4849,-87.1582,43.1519,90,1.3457,1.0395,-27.1244,-50.9954,26,0.039,8598,3.9809,-121.8818
lg,1625260612381805676,0,-0.0061,-0.8943,0.8125,449,75.6226,127.4414,-15.9912,90,1.3467,1.0155,-23.1968,-45.853,25,0.04,24482,3.9809,-126.5863
lg,1625260612381849604,0,-0.1355,-0.5378,0.626,450,74.0967,57.9834,2.6245,90,1.3477,0.9725,-20.2456,-42.0741,25,0.037,13268,3.9809,-128.2869
lg,1625260612381871176,0,-0.0454,-0.6028,0.6707,451,65.979,37.1704,9.9487,90,1.3477,0.9475,-17.9701,-39.204,25,0.025,7551,3.9809,-128.9752
lg,1625260612381892280,0,0.1799,-0.5928,0.7603,452,60.6689,2.0142,16.1133,90,1.3477,0.9245,-17.2143,-36.8701,26,0.035,7697,3.9809,-128.508
lg,1625260612381911475,0,0.2695,-0.5115,0.6604,453,58.2275,-10.6812,13.4888,90,1.3477,0.9124,-18.4055,-34.8345,26,0.035,7528,3.9809,-127.7614
lg,1625260612381930558,0,0.5955,-0.1648,0.5884,454,17.0898,-28.7476,8.4229,90,1.3477,0.9204,-20.1715,-33.9008,26,0.037,7731,3.9809,-126.9706
lg,1625260612381949005,0,0.5642,-0.6355,0.7251,455,-15.1978,-10.8643,-13.6719,90,1.3487,0.9435,-21.2367,-34.6882,26,0.041,7774,3.9809,-127.0982
lg,1625260612382026741,0,0.3716,-0.592,0.7595,456,-16.3574,9.0332,-22.3389,90,1.3487,0.9635,-20.0427,-34.7501,25,0.039,8398,3.9809,-128.8133
lg,1625260612382051867,0,-0.363,-0.5015,0.6738,457,-11.8408,37.4146,-30.5786,90,1.3467,0.9805,-17.9515,-34.6493,25,0.037,7621,3.9809,-130.7522
lg,1625260612382072727,0,-0.481,-0.366,0.6812,458,-21.8506,-52.4292,-12.3291,90,1.3497,0.9915,-18.2091,-35.5463,25,0.037,7762,3.9809,-129.9871
lg,1625260612382092409,0,-0.1311,-0.3716,0.7,459,-33.4473,-97.9614,2.7466,90,1.3467,0.9975,-20.2321,-37.397,25,0.032,7705,3.9809,-127.5371
lg,1625260612382112465,0,0.4683,-0.5312,0.8706,460,-50.354,-122.8638,21.1792,90,1.3497,1.0045,-23.6696,-40.6785,25,0.038,7849,3.9809,-123.5631
lg,1625260612382132072,0,0.626,-0.8235,1.0769,461,-37.7197,-80.0171,23.4375,90,1.3487,1.0065,-25.4471,-43.3419,25,0.04,11138,3.9809,-120.4922
lg,1625260612382150781,0,0.7476,-0.8215,0.9795,462,-2.8076,-50.415,9.8877,90,1.3497,1.0065,-26.8097,-44.1403,25,0.042,8009,3.9809,-118.6755
lg,1625260612382170950,0,0.7949,-0.7412,0.96,463,9.0332,-27.0996,4.5776,90,1.3497,1.0035,-26.8393,-43.3102,25,0.041,7929,3.9809,-118.9159
lg,1625260612382226814,0,0.4951,-0.7861,0.8811,464,25.4517,30.2124,-4.1504,90,1.3497,0.9995,-25.8987,-41.7541,26,0.038,7943,3.9809,-119.9989
lg,1625260612382247937,0,0.2549,-0.6475,0.7542,465,36.6821,55.1147,-1.3428,90,1.3497,0.9935,-23.8128,-39.552,26,0.036,7824,3.9809,-121.6467
lg,1625260612382266477,0,0.1792,-0.6409,0.7285,466,36.7432,53.5278,0.3662,90,1.3497,0.9875,-21.497,-37.6178,26,0.034,7966,3.9809,-123.0403
lg,1625260612382283690,0,0.1064,-0.7095,0.8816,467,34.8511,33.5693,2.6245,90,1.3487,0.9885,-19.7306,-36.0013,26,0.035,8584,3.9809,-123.7869
lg,1625260612382300621,0,0.2666,-0.698,0.853,468,15.3198,8.667,5.4932,90,1.3487,0.9995,-19.0766,-35.507,26,0.039,10826,3.9809,-123.7695
lg,1625260612382318264,0,0.4045,-0.4175,0.5413,469,11.0474,-5.188,-2.1973,90,1.3507,1.0095,-19.7449,-35.1508,26,0.038,8008,3.9809,-123.6976
lg,1625260612382336056,0,0.3096,-0.2908,0.5994,470,-21.4844,-4.8828,-17.7612,90,1.3497,1.0215,-20.5232,-35.4739,26,0.04,8196,3.9809,-124.3171
lg,1625260612382354821,0,0.2527,-0.5364,0.7632,471,-41.9312,-4.7607,-20.6299,90,1.3467,1.0305,-20.9461,-36.9106,26,0.042,8089,3.9809,-124.9191
lg,1625260612382372595,0,0.0972,-0.9116,0.8135,472,-39.856,-8.0566,-22.644,90,1.3497,1.0305,-21.1225,-38.7645,25,0.041,8108,3.9809,-125.3132
lg,1625260612382393455,0,-0.0674,-0.8245,0.8054,473,22.3999,-2.0142,-33.4473,90,1.3497,1.0275,-21.0755,-37.7707,25,0.038,8210,3.9809,-126.2707
lg,1625260612382412052,0,-0.2642,-0.3167,0.293,474,53.7109,13.2446,-32.2266,90,1.3467,1.0315,-19.6301,-35.4735,25,0.038,8188,3.9809,-127.5481
lg,1625260612382430031,0,-0.0305,-0.0388,0.4653,475,4.5166,-50.6592,8.3618,90,1.3437,1.0355,-20.2894,-34.5789,25,0.037,8259,3.9809,-126.4275
lg,1625260612382449171,0,0.9436,-0.8164,1.0305,476,-38.8184,-105.4688,25.1465,90,1.3467,1.0325,-23.683,-37.5886,25,0.037,8238,3.9809,-122.8067
lg,1625260612382468104,0,1.261,-0.8064,0.9905,477,-19.5312,-65.6128,17.1509,90,1.3507,1.0335,-24.2348,-37.6074,25,0.037,8480,3.9809,-122.7585
lg,1625260612382486832,0,0.9004,-0.6809,0.9749,478,12.9395,68.9697,-9.0942,90,1.3457,1.0365,-22.759,-36.1393,25,0.037,8494,3.9809,-124.9368
lg,1625260612382507112,0,0.2148,-0.718,0.9783,479,28.1982,124.4507,-17.0898,90,1.3447,1.0425,-18.588,-33.7266,25,0.036,8313,3.9809,-128.578
lg,1625260612382524081,0,0.0244,-0.8557,0.9795,480,50.5371,90.5762,-21.0571,90,1.3487,1.0425,-15.321,-31.2032,25,0.037,8380,3.9809,-131.2457
lg,1625260612738591680,0,-0.0286,-0.6335,0.8186,481,74.2188,26.6113,-12.7563,90,1.3507,0.9925,-13.9968,-28.2535,25,0.026,24827,3.9809,-132.1626
lg,1625260612738632410,0,0.2925,-0.5596,0.7825,482,65.5518,-21.7285,7.0801,90,1.3517,0.9415,-14.7543,-26.0834,25,0.033,13048,3.9809,-131.4265
lg,1625260612738653289,0,0.3584,-0.5474,0.7273,483,52.4902,-19.104,12.0239,90,1.3517,0.9084,-15.5089,-24.6013,25,0.028,9611,3.9809,-130.5363
lg,1625260612738673289,0,0.3713,-0.5535,0.7407,484,46.2646,-17.9443,12.6343,90,1.3507,0.8944,-16.2172,-23.4246,25,0.024,7614,3.9809,-129.6324
lg,1625260612738692278,0,0.3792,-0.416,0.7515,485,35.7056,-15.8081,16.2964,90,1.3507,0.8894,-16.842,-22.4547,25,0.026,7495,3.9809,-128.6943
lg,1625260612738710875,0,0.4512,-0.4502,0.7671,486,2.8687,-9.5215,13.4277,90,1.3517,0.8864,-17.3818,-22.8252,25,0.027,8326,3.9809,-127.9371
lg,1625260612738729547,0,0.3025,-0.5645,0.7825,487,1.1597,1.6479,12.3901,90,1.3517,0.8794,-17.1391,-23.4155,25,0.031,7585,3.9809,-127.3354
lg,1625260612738748125,0,-0.1367,-0.3528,0.6702,488,5.249,15.0757,13.0005,90,1.3517,0.8694,-15.3378,-23.4457,25,0.03,7674,3.9809,-127.0375
lg,1625260612738766684,0,-0.0676,-0.4067,0.8328,489,-21.7285,-51.3306,21.4233,90,1.3507,0.8624,-16.0914,-24.8661,25,0.027,7763,3.9809,-125.3321
lg,1625260612738785318,0,0.1968,-0.5813,0.9397,490,-28.4424,-83.6792,26.062,90,1.3497,0.8614,-18.3937,-27.0179,25,0.024,7753,3.9809,-122.7414
lg,1625260612738803166,0,0.6021,-0.678,1.0273,491,-20.0195,-87.3413,21.5454,90,1.3517,0.8654,-21.3607,-28.9204,25,0.025,7683,3.9809,-120.1055
lg,1625260612738821108,0,0.6121,-0.6558,1.0815,492,-17.2729,-61.5234,17.0898,90,1.3517,0.8824,-22.4728,-30.1829,25,0.029,7832,3.9809,-118.7763
lg,1625260612738839780,0,0.4546,-0.6111,0.908,493,-17.8833,-25.6958,10.8643,90,1.3497,0.9024,-23.1276,-31.4151,26,0.033,7650,3.9809,-117.7444
lg,1625260612738857516,0,0.3423,-0.3813,0.7539,494,-30.7007,-2.6245,14.7095,90,1.3507,0.9305,-22.8593,-32.683,26,0.031,7661,3.9809,-117.2186
lg,1625260612738875402,0,0.2268,-0.3687,0.7476,495,-39.7339,4.7607,11.1084,90,1.3497,0.9605,-22.1567,-34.1017,26,0.034,7878,3.9809,-117.0425
lg,1625260612738894653,0,-0.0332,-0.5767,0.7842,496,-64.5142,-3.2959,8.4229,90,1.3507,0.9945,-21.138,-36.8908,26,0.034,7718,3.9809,-116.6553
lg,1625260612738912895,0,0.0535,-0.6055,0.6541,497,-66.1621,-23.6816,8.7891,90,1.3537,1.0155,-21.2328,-40.0504,25,0.025,7894,3.9809,-115.0891
lg,1625260612738930574,0,0.0989,-0.4316,0.5732,498,-52.1851,-33.6914,21.8506,90,1.3477,1.0155,-21.1348,-42.5876,25,0.036,7977,3.9809,-113.4918
lg,1625260612738948086,0,-0.053,-0.3516,0.7739,499,-48.8281,-28.2593,27.1606,90,1.3527,1.0225,-20.2971,-44.3583,25,0.036,8022,3.9809,-112.108
lg,1625260612738965747,0,0.4133,-0.9829,1.1064,500,-45.5322,-60.6689,24.7803,90,1.3487,1.0255,-21.8594,-46.9281,25,0.038,7994,3.9809,-108.9464
lg,1625260612738984063,0,0.7136,-1.1016,1.1472,501,-17.7002,-87.7075,13.6719,90,1.3467,1.0285,-23.881,-48.7551,25,0.039,8101,3.9809,-105.7678
lg,1625260612739001313,0,0.8218,-0.8047,0.916,502,32.2266,-10.0098,-5.9814,90,1.3487,1.0275,-24.7222,-47.2483,25,0.037,8156,3.9809,-105.7367
lg,1625260612739018993,0,0.144,-0.7063,0.7864,503,44.2505,37.4756,-16.8457,90,1.3497,1.0295,-22.9438,-43.8822,25,0.04,8063,3.9809,-108.1921
lg,1625260612739037010,0,0.0264,-0.5449,0.7021,504,58.96,50.9644,-12.5122,90,1.3487,1.0285,-20.9556,-40.5684,25,0.039,8104,3.9809,-110.1505
lg,1625260612739054596,0,0.1799,-0.5562,0.7141,505,45.5322,17.5781,-2.5635,90,1.3497,1.0285,-20.0939,-38.437,26,0.039,8102,3.9809,-110.749
lg,1625260612739072295,0,0.2139,-0.7522,0.7871,506,36.1328,9.7046,-0.5493,90,1.3477,1.0275,-19.4471,-37.1129,26,0.037,9440,3.9809,-110.944
lg,1625260612739090555,0,0.3035,-0.5681,0.7444,507,33.2031,-10.8643,0.6104,90,1.3497,1.0305,-19.7163,-35.8876,26,0.037,9745,3.9809,-110.6472
lg,1625260612739108890,0,0.5024,-0.5098,0.71,508,28.5034,-26.2451,-1.4648,90,1.3467,1.0425,-21.2407,-34.9981,26,0.04,8194,3.9809,-110.4325
lg,1625260612739126513,0,0.5586,-0.4673,0.6448,509,21.6675,5.3711,-13.7939,90,1.3487,1.0465,-21.9121,-33.9272,26,0.038,8178,3.9809,-111.0502
lg,1625260612739144137,0,0.1533,-0.4448,0.738,510,8.606,38.7573,-19.7144,90,1.3487,1.0485,-20.589,-32.869,26,0.039,8264,3.9809,-112.7176
lg,1625260612739161892,0,0.166,-0.5642,0.7578,511,3.2349,31.0059,-15.0146,90,1.3497,1.0435,-19.4459,-32.705,26,0.04,8282,3.9809,-113.6146
lg,1625260612739179329,0,0.1362,-0.5212,0.7332,512,2.3804,34.0576,-2.3804,84,1.3477,1.0445,-17.9244,-32.4384,25,0.04,8312,3.9908,-114.4395
lg,1625260613093109346,0,0.3357,-0.7646,0.9697,513,7.5073,-10.6812,5.6763,84,1.3497,1.0475,-18.0527,-32.5004,25,0.041,25343,3.9908,-113.9264
lg,1625260613093150584,0,0.3291,-0.7659,0.9233,514,32.8979,-0.7935,-8.606,84,1.3507,1.0495,-17.8156,-30.7483,25,0.039,11683,3.9908,-114.4256
lg,1625260613093172166,0,0.1938,-0.5198,0.7922,515,40.7104,4.3945,-6.897,84,1.3507,1.0485,-17.5514,-29.1162,25,0.036,10659,3.9908,-114.7354
lg,1625260613093191505,0,0.2375,-0.6074,0.8625,516,37.4146,-1.6479,-3.7842,84,1.3507,1.0445,-17.4888,-27.8295,25,0.033,7757,3.9908,-114.7672
lg,1625260613093210227,0,0.2917,-0.6851,0.9321,517,40.2222,3.3569,-0.6714,84,1.3507,1.0355,-17.2542,-26.5322,25,0.03,7711,3.9908,-114.7541
lg,1625260613093228875,0,0.2075,-0.7231,0.9683,518,39.6729,10.6201,-0.3052,84,1.3507,1.0285,-16.6551,-25.3255,25,0.03,7689,3.9908,-114.8276
lg,1625260613093247093,0,0.2917,-0.3677,0.7329,519,30.3345,-4.9438,1.5259,84,1.3507,1.0295,-16.9202,-24.2018,25,0.032,7687,3.9908,-114.6713
lg,1625260613093265218,0,0.5378,-0.6165,0.7915,520,7.4463,-22.9492,-7.2021,84,1.3507,1.0365,-18.327,-24.4331,25,0.032,9578,3.9908,-114.4039
lg,1625260613093283081,0,0.5098,-0.3794,0.749,521,6.4087,-12.3901,-12.146,84,1.3507,1.0485,-18.6781,-24.2431,26,0.035,7788,3.9908,-115.3837
lg,1625260613093300682,0,0.3325,-0.2905,0.759,522,-9.3384,28.7476,-29.9683,84,1.3487,1.0525,-18.2598,-23.9587,26,0.043,7912,3.9908,-117.0776
lg,1625260613093318190,0,0.0762,-0.6721,0.9402,523,-36.9263,28.8086,-33.1421,84,1.3497,1.0535,-17.2109,-25.3612,26,0.042,7847,3.9908,-118.7055
lg,1625260613093336091,0,0.2175,-0.9583,1.3391,524,-18.7378,8.9722,-34.4849,84,1.3487,1.0425,-17.1116,-26.0864,26,0.041,11073,3.9908,-120.0483
lg,1625260613093353281,0,-0.0327,-0.7981,0.7043,525,46.3867,13.1226,-58.1055,84,1.3477,1.0395,-16.9466,-24.4288,26,0.033,7947,3.9908,-122.2014
lg,1625260613093371761,0,-0.0518,-0.4773,0.6567,526,55.7251,7.2021,-54.9927,84,1.3457,1.0355,-16.7657,-22.0334,26,0.031,8229,3.9908,-124.2755
lg,1625260613093389437,0,0.2192,0.0027,0.3689,527,38.0859,16.6626,-21.9116,84,1.3477,1.0395,-17.0352,-19.4068,26,0.032,8210,3.9908,-125.6221
lg,1625260613093409038,0,0.3267,-0.4019,0.6887,528,-10.8032,44.5557,-3.0518,84,1.3477,1.0375,-15.6186,-20.0346,26,0.032,8219,3.9908,-126.2494
lg,1625260613093426863,0,0.3433,-0.5525,0.7961,529,-13.3667,53.5889,1.709,84,1.3477,1.0395,-13.4968,-21.0117,26,0.033,8225,3.9908,-126.7937
lg,1625260613093443904,0,0.0356,-0.6777,0.9026,530,-5.3101,58.0444,-8.5449,84,1.3477,1.0435,-10.8737,-21.6675,26,0.033,10156,3.9908,-127.8249
lg,1625260613093461207,0,0.0229,-0.7598,0.9958,531,13.1836,2.1362,-24.7192,84,1.3487,1.0465,-10.7854,-21.5778,26,0.033,8395,3.9908,-128.6741
lg,1625260613093478098,0,0.2087,-0.7334,0.9731,532,40.8325,-43.5181,-37.1094,84,1.3487,1.0485,-12.9065,-20.3914,26,0.035,8337,3.9908,-129.3365
lg,1625260613093496521,0,0.2375,-0.7043,0.9114,533,64.4531,-56.2744,-41.5039,84,1.3497,1.0485,-15.5429,-18.2901,26,0.035,8359,3.9908,-130.027
lg,1625260613093513824,0,0.334,-0.6006,0.8943,534,69.0918,-56.0303,-30.9448,84,1.3497,1.0425,-18.2068,-15.9714,26,0.035,8708,3.9908,-130.4131
lg,1625260613093531126,0,0.3894,-0.6487,0.939,535,62.3169,-44.8608,-18.1274,84,1.3507,1.0275,-20.1794,-14.1285,26,0.023,8405,3.9908,-130.4323
lg,1625260613093548877,0,0.4561,-0.6997,0.979,536,60.3638,-40.1001,-7.6904,84,1.3497,1.0035,-21.876,-12.5752,26,0.029,9160,3.9908,-130.068
lg,1625260613093566329,0,0.637,-0.1316,0.6079,537,51.2695,-37.5977,-1.6479,84,1.3517,0.9895,-24.2652,-10.6123,26,0.031,8080,3.9908,-129.8314
lg,1625260613093583744,0,0.7751,-0.1228,0.7615,538,21.9727,-29.9683,0.9155,84,1.3487,0.9945,-26.2353,-9.8034,26,0.032,7923,3.9908,-129.5822
lg,1625260613093601084,0,0.7444,-0.2698,0.677,539,-14.0991,-3.2959,-5.3711,84,1.3517,1.0145,-27.1617,-10.638,26,0.033,8081,3.9908,-129.6241
lg,1625260613093617994,0,0.3665,-0.4438,0.8442,540,-41.0156,32.6538,-18.2495,84,1.3487,1.0365,-25.8224,-12.476,26,0.029,8163,3.9908,-130.4016
lg,1625260613093634717,0,0.0376,-0.4509,0.7415,541,-42.9077,44.9219,-23.3154,84,1.3487,1.0435,-23.4427,-14.3733,26,0.036,8203,3.9908,-131.5229
lg,1625260613093740998,0,-0.3411,-0.4966,0.9077,542,-65.2466,3.2959,-13.2446,84,1.3487,1.0445,-21.97,-17.3035,26,0.032,8590,3.9908,-131.9243
lg,1625260613093763943,0,-0.2246,-1.03,0.6306,543,11.4746,-85.3882,-41.748,84,1.3487,1.0405,-24.6978,-18.2021,26,0.029,8241,3.9908,-131.9225
lg,1625260613093784067,0,0.2156,-0.3892,0.6682,544,38.0859,-120.7886,-37.1094,84,1.3527,1.0365,-29.3835,-17.219,26,0.031,10312,3.9908,-131.6367
lg,1625260613465528974,0,0.561,-0.5637,0.8394,545,6.1035,-26.8555,1.6479,84,1.3487,1.0365,-30.4112,-17.8872,26,0.025,24750,3.9908,-130.8472
lg,1625260613465566232,0,0.5134,-0.7834,0.9619,546,31.189,27.4048,-11.4136,84,1.3487,1.0395,-29.2621,-17.0781,25,0.024,12860,3.9908,-131.283
lg,1625260613465586973,0,0.4509,-0.4592,0.7996,547,61.1572,46.936,-25.6958,84,1.3487,1.0415,-27.6371,-14.3389,25,0.027,7810,3.9908,-132.7356
lg,1625260613465606349,0,0.458,-0.4529,0.8096,548,61.7065,66.04,-36.9873,84,1.3487,1.0445,-25.3804,-11.4465,25,0.033,7759,3.9908,-134.7365
lg,1625260613465657846,0,0.3428,-0.5918,0.8674,549,67.0776,81.9702,-42.6025,84,1.3487,1.0455,-22.2509,-8.6946,25,0.033,7897,3.9908,-136.7984
lg,1625260613465677502,0,-0.0227,-0.6763,0.9011,550,98.1445,93.2617,-55.0537,84,1.3497,1.0485,-18.0359,-4.9671,25,0.036,7709,3.9908,-139.1361
lg,1625260613465696692,0,-0.2236,-0.6914,0.8167,551,117.0654,82.4585,-62.7441,84,1.3507,1.0495,-14.6768,-0.0574,25,0.035,7733,3.9908,-141.62
lg,1625260613465715078,0,-0.272,-0.3813,0.7117,552,136.7188,-19.8364,-51.9409,84,1.3507,1.0455,-14.2098,4.8743,25,0.035,9080,3.9908,-143.4767
lg,1625260613465732493,0,-0.1184,-0.3374,0.728,553,132.019,-54.1382,-45.8984,84,1.3517,1.0405,-15.9052,9.5044,25,0.031,8147,3.9908,-145.3389
lg,1625260613465749646,0,0.3425,-0.3162,0.738,554,125.6104,-105.6519,-35.7056,84,1.3517,1.0345,-20.1133,14.0631,25,0.022,7809,3.9908,-147.4046
lg,1625260613465767322,0,0.5964,-0.2671,0.7458,555,123.7793,-95.0928,-40.2222,84,1.3517,1.0295,-24.0551,18.9845,25,0.023,7894,3.9908,-149.8953
lg,1625260613465784269,0,0.5852,-0.2717,0.7522,556,121.0938,-77.9419,-44.2505,84,1.3527,1.0255,-26.9511,23.8771,25,0.031,7917,3.9908,-152.4911
lg,1625260613465800712,0,0.4165,-0.2903,0.7979,557,115.6006,-63.5376,-51.2085,84,1.3527,1.0245,-28.5637,28.4454,26,0.032,8169,3.9908,-155.1162
lg,1625260613465817267,0,0.3757,-0.2476,0.8264,558,112.915,-72.937,-49.8657,84,1.3527,1.0265,-30.1557,33.0534,26,0.033,9161,3.9908,-157.9843
lg,1625260613465834065,0,0.376,-0.1841,0.8032,559,111.8164,-78.3081,-46.936,84,1.3537,1.0285,-31.9067,37.6997,26,0.028,7967,3.9908,-161.0252
lg,1625260613465850695,0,0.3926,-0.1284,0.7698,560,104.8584,-85.7544,-41.626,84,1.3517,1.0325,-33.6109,42.348,26,0.025,8010,3.9908,-164.2315
lg,1625260613465867231,0,0.4429,-0.2224,0.8591,561,92.2852,-94.5435,-33.8745,84,1.3537,1.0375,-35.8073,46.3342,26,0.03,11246,3.9908,-167.4209
lg,1625260613465884683,0,0.6392,-0.3606,0.8787,562,86.3647,-105.7739,-27.2217,84,1.3517,1.0435,-38.4379,50.5328,26,0.03,8073,3.9908,-171.0355
lg,1625260613465901612,0,0.4417,0.0562,0.7456,563,83.313,-60.5469,-13.6108,84,1.3547,1.0475,-39.5638,53.849,26,0.031,8068,3.9908,-172.7915
lg,1625260613465919158,0,0.3103,0.0156,0.8145,564,67.627,-59.3872,-12.8784,84,1.3577,1.0505,-40.7416,55.7986,25,0.031,8054,3.9908,-174.5078
lg,1625260613465937002,0,0.4304,-0.1228,0.9309,565,56.4575,-81.2378,-4.3335,84,1.3517,1.0505,-42.4833,58.0788,25,0.036,8162,3.9908,-176.6632
lg,1625260613465953949,0,0.5674,-0.1064,0.9338,566,54.3823,-78.8574,-5.3711,84,1.3547,1.0535,-44.2145,60.4913,25,0.037,8120,3.9908,-178.9132
lg,1625260613465970785,0,0.4697,-0.1946,0.9536,567,52.6123,-69.0918,-7.1411,84,1.3527,1.0565,-45.3265,62.2724,25,0.038,8143,3.9908,-180.388
lg,1625260613465988965,0,0.4321,-0.1755,0.9407,568,57.373,-62.2559,-12.5732,84,1.3507,1.0525,-46.2306,64.2346,25,0.037,8141,3.9908,-181.8751
lg,1625260613466006884,0,0.4231,-0.1633,0.9409,569,63.5376,-63.9038,-16.6626,84,1.3527,1.0525,-46.9289,66.607,25,0.042,8192,3.9908,-183.5537
lg,1625260613466024168,0,0.3909,-0.1353,0.8887,570,73.4253,-69.1528,-23.3765,84,1.3507,1.0475,-47.3477,69.7187,25,0.043,8207,3.9908,-185.6731
lg,1625260613466063781,0,0.4138,-0.1157,0.8574,571,76.7212,-72.998,-26.4282,84,1.3517,1.0475,-47.5826,73.2133,25,0.043,8268,3.9908,-188.0906
lg,1625260613466153058,0,0.4346,-0.1157,0.894,572,81.543,-81.2378,-33.8135,84,1.3477,1.0445,-47.5607,77.3068,25,0.042,8286,3.9908,168.941
lg,1625260613466181366,0,0.4971,-0.0254,0.8806,573,93.8721,-90.0879,-45.2271,84,1.3477,1.0455,-46.9421,82.4005,25,0.042,8283,3.9908,165.3423
lg,1625260613466201434,0,0.5559,0.105,0.8411,574,94.3604,-92.2241,-57.312,84,1.3497,1.0435,-45.5342,87.5831,25,0.042,8354,3.9908,161.6713
lg,1625260613466221334,0,0.5908,0.1409,0.8206,575,90.5762,-89.7827,-62.8662,84,1.3467,1.0375,-43.7204,92.2294,25,0.038,8359,3.9908,158.4273
lg,1625260613466239440,0,0.6482,0.1416,0.8809,576,80.0171,-79.3457,-75.1343,84,1.3457,1.0355,-41.3623,95.68,26,0.039,8904,3.9908,156.1252
lg,1625260613833640477,0,0.5269,0.2456,0.9446,577,72.3267,-57.8613,-102.5391,84,1.3457,1.0345,-37.67,97.5111,26,0.041,24593,3.9908,155.4788
lg,1625260613833722038,0,0.5913,0.2041,0.9619,578,70.8008,-62.2559,-108.0322,84,1.3447,1.0325,-33.6432,99.2081,26,0.041,9475,3.9908,154.6502
lg,1625260613833742891,0,0.6257,0.1555,0.9365,579,71.3501,-59.1431,-123.5352,84,1.3447,1.0325,-29.4422,100.7364,26,0.04,10048,3.9908,154.1765
lg,1625260613833762921,0,0.572,0.1311,0.9114,580,75.1953,-51.4526,-129.5776,84,1.3437,1.0315,-25.0786,102.0797,26,0.041,10660,3.9908,154.1487
lg,1625260613833782634,0,0.4761,0.1663,0.8879,581,80.0171,-51.5747,-129.8218,84,1.3427,1.0305,-20.5749,103.4583,25,0.04,7713,3.9908,154.1546
lg,1625260613833801132,0,0.4666,0.2937,0.8071,582,81.665,-52.4292,-125.4272,84,1.3427,1.0305,-16.2941,104.9297,25,0.038,7682,3.9908,153.9361
lg,1625260613833818360,0,0.4563,0.4006,0.7722,583,81.2988,-53.2227,-117.1875,84,1.3417,1.0295,-12.1239,106.3465,25,0.03,7711,3.9908,153.7076
lg,1625260613833838203,0,0.4185,0.4197,0.7332,584,70.6177,-60.3638,-112.2437,84,1.3407,1.0295,-8.0365,107.3276,25,0.033,7774,3.9908,153.1201
lg,1625260613833892428,0,0.4514,0.3459,0.7852,585,62.3779,-75.8057,-105.7129,84,1.3407,1.0285,-4.1204,107.9762,25,0.033,9673,3.9908,151.8014
lg,1625260613833912047,0,0.5217,0.3657,0.7666,586,64.8804,-83.8623,-102.5391,84,1.3387,1.0275,-0.3542,108.7161,25,0.036,7807,3.9908,150.0593
lg,1625260613833931368,0,0.5967,0.3557,0.7373,587,67.4438,-87.7075,-100.2197,84,1.3397,1.0235,3.2316,109.5314,25,0.036,7816,3.9908,148.0805
lg,1625260613833949436,0,0.6499,0.3298,0.7449,588,70.8008,-88.3789,-100.0977,84,1.3397,1.0275,6.7651,110.4041,25,0.035,7865,3.9908,146.0274
lg,1625260613833966795,0,0.6741,0.3145,0.759,589,74.8291,-86.0596,-99.3652,84,1.3377,1.0275,10.2523,111.3418,25,0.034,7834,3.9908,144.0059
lg,1625260613833986975,0,0.7627,0.333,0.7043,590,82.2144,-77.1484,-97.0459,84,1.3387,1.0295,13.4099,112.6686,25,0.035,8572,3.9908,142.2742
lg,1625260613834004090,0,0.8389,0.3438,0.6899,591,89.1724,-60.9741,-95.9473,84,1.3387,1.0285,16.2393,114.4504,25,0.035,7861,3.9908,141.1713
lg,1625260613834020851,0,0.855,0.3391,0.6843,592,93.9331,-51.0254,-95.2148,84,1.3367,1.0265,18.9037,116.5429,25,0.035,8437,3.9908,140.4997
lg,1625260613834039405,0,0.8291,0.3582,0.6523,593,100.5859,-28.8696,-97.229,84,1.3357,1.0295,21.2533,119.2271,26,0.036,8638,3.9908,140.8005
lg,1625260613834057623,0,0.7378,0.3728,0.6355,594,105.957,-11.3525,-94.6655,84,1.3387,1.0295,23.2239,122.3468,26,0.035,7929,3.9908,141.8118
lg,1625260613834075206,0,0.7092,0.373,0.6228,595,108.3984,-4.2114,-90.8813,84,1.3377,1.0295,24.9108,125.7172,26,0.036,8322,3.9908,143.1439
lg,1625260613834092378,0,0.6841,0.3757,0.6377,596,115.1123,6.6528,-82.1533,84,1.3337,1.0295,26.0238,129.521,25,0.035,7938,3.9908,144.7829
lg,1625260613834110147,0,0.6716,0.3923,0.6414,597,122.9248,17.8833,-71.9604,84,1.3367,1.0295,26.4583,133.758,25,0.036,8315,3.9908,146.6439
lg,1625260613834128590,0,0.6616,0.387,0.6565,598,127.2583,24.7192,-65.918,84,1.3377,1.0255,26.0629,138.3939,25,0.037,7973,3.9908,148.6903
lg,1625260613834147835,0,0.6499,0.4092,0.6689,599,141.9067,42.6025,-50.4761,84,1.3387,1.0275,24.962,143.4633,25,0.037,10676,3.9908,150.7483
lg,1625260613834189653,0,0.6533,0.4211,0.6602,600,152.1606,47.5464,-45.5933,84,1.3387,1.0265,23.3712,148.9063,25,0.037,8127,3.9908,152.7573
lg,1625260613834210150,0,0.6736,0.4358,0.6975,601,155.8228,50.1099,-44.1895,84,1.3387,1.0275,21.5032,154.4262,25,0.038,8172,3.9908,154.725
lg,1625260613834228424,0,0.6604,0.4507,0.7219,602,163.3301,54.8706,-43.8843,84,1.3387,1.0275,19.242,160.2511,25,0.038,8163,3.9908,156.7062
lg,1625260613834246287,0,0.2498,0.5371,0.783,603,176.3916,72.4487,-58.2275,84,1.3387,1.0275,17.0507,166.4436,25,0.038,8177,3.9908,159.2962
lg,1625260613834263795,0,-0.052,0.6885,0.7637,604,181.4575,9.0942,-51.5137,84,1.3377,1.0265,17.5854,172.4062,26,0.038,9637,3.9908,160.9344
lg,1625260613834282593,0,0.0271,0.7781,0.7688,605,177.7954,-48.645,-53.1616,84,1.3387,1.0275,20.0753,178.2823,26,0.039,8176,3.9908,162.443
lg,1625260613834300325,0,0.3738,0.7837,0.7407,606,161.8042,-89.9048,-33.8745,84,1.3367,1.0235,23.4468,-176.4071,26,0.039,8236,3.9908,163.3568
lg,1625260613834319029,0,0.5991,0.8362,0.707,607,154.1138,-106.0791,-31.9214,84,1.3387,1.0265,27.0788,-171.0165,25,0.039,8355,3.9908,164.6107
lg,1625260613834337919,0,0.6714,0.8901,0.6187,608,151.123,-100.8911,-28.2593,84,1.3377,1.0295,29.8311,-165.9461,25,0.039,8302,3.9908,165.7611
lg,1625260614192055645,0,0.8687,1.1196,0.3013,609,78.064,-32.2876,-14.9536,84,1.3387,1.0265,30.1889,-164.1483,25,0.038,24494,3.9908,165.877
lg,1625260614192102828,0,0.8706,1.062,0.3037,610,33.3252,-1.8921,-18.9819,84,1.3387,1.0235,29.3103,-164.1495,26,0.039,8847,3.9908,165.8545
lg,1625260614192124460,0,0.791,0.9697,0.3601,611,0.3052,20.5688,-28.0762,84,1.3377,1.0265,27.5364,-165.3379,26,0.038,11591,3.9908,166.0315
lg,1625260614192144076,0,0.7141,0.9028,0.3872,612,-20.2637,34.6069,-34.8511,84,1.3337,1.0265,25.1939,-167.273,26,0.038,7731,3.9908,166.436
lg,1625260614192162759,0,0.7166,0.8508,0.4351,613,-28.6255,40.5273,-38.5132,84,1.3387,1.0275,22.3926,-169.5889,25,0.038,9655,3.9908,167.2138
lg,1625260614192181928,0,0.7292,0.8267,0.4592,614,-36.6211,48.8892,-45.5322,84,1.3377,1.0275,19.3205,-171.9867,25,0.037,7751,3.9908,168.2512
lg,1625260614192199584,0,0.6616,0.7915,0.4917,615,-41.3208,61.7065,-54.8096,84,1.3377,1.0275,15.7629,-174.5477,25,0.037,7736,3.9908,169.7533
lg,1625260614192218584,0,0.6184,0.7717,0.5095,616,-41.626,65.7349,-58.96,84,1.3377,1.0275,12.0589,-177.2205,25,0.037,8222,3.9908,-188.2926
lg,1625260614192236801,0,0.4927,0.7312,0.51,617,-38.9404,68.6646,-64.27,84,1.3377,1.0275,8.4302,-179.941,26,0.038,7756,3.9908,-186.0688
lg,1625260614192254905,0,0.3906,0.7319,0.5308,618,-34.0576,63.1714,-65.4297,84,1.3387,1.0275,5.2546,177.3013,26,0.038,8155,3.9908,-183.6107
lg,1625260614192275809,0,0.3137,0.7249,0.5459,619,-28.9307,54.6875,-63.3545,84,1.3387,1.0285,2.6259,174.5312,26,0.039,8325,3.9908,-181.0718
lg,1625260614192369840,0,0.3008,0.7417,0.5137,620,-26.8555,47.4243,-60.6079,84,1.3377,1.0265,0.3658,171.6219,26,0.038,7840,3.9908,-178.5076
lg,1625260614192408625,0,0.2385,0.7297,0.501,621,-24.4141,35.6445,-55.3589,84,1.3377,1.0285,-1.0276,168.659,25,0.038,11702,3.9908,-176.3068
lg,1625260614192426934,0,0.2249,0.7485,0.5127,622,-22.8882,21.9116,-47.1802,84,1.3377,1.0285,-2.0256,165.6337,25,0.037,8572,3.9908,-174.2206
lg,1625260614192449518,0,0.2017,0.7263,0.5093,623,-21.3623,7.5073,-37.9639,84,1.3377,1.0275,-2.4325,162.6183,25,0.038,7878,3.9908,-172.5887
lg,1625260614192469340,0,0.2058,0.7385,0.4888,624,-20.2026,-10.1318,-28.4424,101,1.3377,1.0285,-2.2247,159.6173,25,0.038,7902,3.9743,-171.5364
lg,1625260614192487425,0,0.2002,0.7388,0.4797,625,-19.5923,-18.3105,-24.1089,101,1.3377,1.0275,-1.7124,156.6226,25,0.038,7939,3.9743,-170.8141
lg,1625260614192593308,0,0.2065,0.7332,0.4841,626,-18.2495,-34.729,-16.7847,101,1.3377,1.0285,-0.7074,153.6882,25,0.038,9505,3.9743,-170.7063
lg,1625260614192620931,0,0.2493,0.7139,0.5024,627,-16.7847,-50.5371,-10.437,101,1.3377,1.0285,0.6397,150.8336,25,0.038,7938,3.9743,-171.2309
lg,1625260614192641481,0,0.3503,0.7263,0.5093,628,-12.3901,-62.6221,-5.4932,101,1.3377,1.0285,2.0677,148.1882,25,0.037,8482,3.9743,-172.3114
lg,1625260614192662590,0,0.3823,0.7393,0.491,629,-10.6201,-65.6128,-4.8218,101,1.3367,1.0275,3.4655,145.5948,25,0.038,8041,3.9743,-173.634
lg,1625260614192685921,0,0.4436,0.7429,0.4968,630,-8.4229,-67.627,-3.8452,101,1.3387,1.0285,4.7331,143.0956,25,0.038,8068,3.9743,-175.1846
lg,1625260614192706059,0,0.4929,0.7451,0.4985,631,-6.7749,-65.3076,-3.54,101,1.3387,1.0275,5.7645,140.6715,25,0.038,8160,3.9743,-176.8274
lg,1625260614192726459,0,0.5149,0.7437,0.5117,632,-5.7373,-64.209,-4.1504,101,1.3367,1.0275,6.6762,138.2766,25,0.038,8107,3.9743,-178.5481
lg,1625260614192745478,0,0.5496,0.7603,0.4878,633,-4.9438,-57.1289,-5.6763,101,1.3407,1.0255,7.2848,135.9589,25,0.037,8212,3.9743,-180.1416
lg,1625260614192763937,0,0.5461,0.75,0.5049,634,-5.4321,-46.2646,-8.3008,101,1.3387,1.0275,7.6042,133.6516,25,0.039,8186,3.9743,-181.4453
lg,1625260614192784636,0,0.532,0.7698,0.5068,635,-4.9438,-40.9546,-9.6436,101,1.3377,1.0315,7.7656,131.3887,25,0.038,8259,3.9743,-182.6259
lg,1625260614192804962,0,0.5427,0.761,0.5029,636,-4.8828,-32.959,-12.6953,101,1.3417,1.0285,7.7841,129.1981,25,0.038,10197,3.9743,-183.3793
lg,1625260614192825511,0,0.5205,0.7654,0.4995,637,-4.4556,-26.4893,-16.3574,101,1.3367,1.0315,7.7464,127.0451,25,0.038,8253,3.9743,-184.0434
lg,1625260614192846564,0,0.5083,0.7444,0.52,638,-4.0894,-22.3389,-19.5312,101,1.3397,1.0295,7.7101,124.9261,25,0.038,8280,3.9743,-184.5401
lg,1625260614192864034,0,0.4827,0.7612,0.5146,639,-2.9297,-18.1885,-21.6675,101,1.3387,1.0315,7.6804,122.8808,25,0.038,8550,3.9743,-184.8913
lg,1625260614192881896,0,0.4644,0.7476,0.5227,640,-2.9297,-16.4795,-22.0337,101,1.3377,1.0275,7.643,120.8423,25,0.038,8387,3.9743,-185.2154
lg,1625260614546699594,0,0.4263,0.7295,0.5183,641,-0.9155,-13.7939,-20.2026,101,1.3387,1.0285,7.5316,118.8866,25,0.039,24779,3.9743,-185.5217
lg,1625260614546752078,0,0.4067,0.7319,0.4944,642,-1.0986,-14.6484,-17.6392,101,1.3387,1.0295,7.3563,116.9498,26,0.038,9018,3.9743,-185.9318
lg,1625260614546782949,0,0.3843,0.7449,0.4871,643,-0.9155,-17.334,-14.9536,101,1.3387,1.0285,7.1649,115.0281,26,0.038,11340,3.9743,-186.5085
lg,1625260614546812121,0,0.3652,0.7444,0.4924,644,-1.1597,-21.2402,-12.8174,101,1.3387,1.0295,6.9828,113.0884,26,0.038,8537,3.9743,-187.2848
lg,1625260614546839278,0,0.3694,0.7444,0.4976,645,-1.5259,-26.2451,-10.7422,101,1.3387,1.0285,6.7718,111.1426,25,0.037,9746,3.9743,-188.2962
lg,1625260614546865333,0,0.3733,0.7493,0.5134,646,-1.0376,-28.9307,-10.1318,101,1.3387,1.0285,6.5498,109.2297,25,0.037,7785,3.9743,170.5657
lg,1625260614546892732,0,0.4077,0.7249,0.5176,647,-0.3052,-31.9214,-8.4229,101,1.3387,1.0285,6.1924,107.3808,25,0.037,7791,3.9743,169.28
lg,1625260614546920710,0,0.4434,0.7488,0.5281,648,1.3428,-33.9966,-8.3618,101,1.3387,1.0295,5.779,105.6584,25,0.038,7790,3.9743,167.9095
lg,1625260614546947867,0,0.4448,0.749,0.5352,649,2.0752,-33.2031,-8.9111,101,1.3377,1.0285,5.3485,104.0067,26,0.038,7811,3.9743,166.5701
lg,1625260614546974221,0,0.4595,0.7485,0.5166,650,3.479,-31.7383,-8.728,101,1.3387,1.0285,4.8325,102.4991,26,0.038,8613,3.9743,165.2867
lg,1625260614547000146,0,0.4846,0.7634,0.5034,651,2.9297,-28.3203,-9.3994,101,1.3387,1.0285,4.2517,101.0713,26,0.038,8353,3.9743,164.1486
lg,1625260614547026630,0,0.4717,0.76,0.4971,652,3.7231,-25.7568,-9.7046,101,1.3377,1.0275,3.6663,99.728,26,0.038,7881,3.9743,163.1164
lg,1625260614547054011,0,0.47,0.771,0.5015,653,3.7231,-21.9727,-9.7656,101,1.3387,1.0285,3.062,98.4364,25,0.038,7909,3.9743,162.2378
lg,1625260614547081522,0,0.4429,0.7717,0.4988,654,3.1738,-19.165,-10.8643,101,1.3377,1.0275,2.5277,97.1597,25,0.039,9812,3.9743,161.4804
lg,1625260614547108436,0,0.4409,0.7805,0.5107,655,2.0142,-17.6392,-10.498,101,1.3397,1.0255,1.984,95.8661,25,0.039,7996,3.9743,160.784
lg,1625260614547134771,0,0.4453,0.7808,0.5073,656,3.2349,-18.0054,-10.5591,101,1.3387,1.0295,1.4303,94.6725,25,0.038,7968,3.9743,160.0703
lg,1625260614547160733,0,0.4424,0.7839,0.5049,657,3.9062,-18.6157,-9.8877,101,1.3367,1.0295,0.863,93.5486,26,0.038,8031,3.9743,159.3391
lg,1625260614547213703,0,0.4387,0.7961,0.5115,658,3.9673,-18.0664,-8.2397,101,1.3427,1.0265,0.2487,92.4634,26,0.038,8224,3.9743,158.6299
lg,1625260614547244592,0,0.4373,0.7744,0.5032,659,4.3335,-17.7002,-7.9346,101,1.3377,1.0315,-0.4083,91.4113,26,0.038,8036,3.9743,157.9697
lg,1625260614547270181,0,0.4299,0.7915,0.5085,660,3.7842,-17.0288,-6.2866,101,1.3377,1.0325,-1.0781,90.3944,26,0.038,8037,3.9743,157.3134
lg,1625260614547295546,0,0.4443,0.7854,0.5132,661,3.6621,-17.334,-4.8218,101,1.3427,1.0265,-1.826,89.4056,25,0.039,8172,3.9743,156.6533
lg,1625260614547320817,0,0.4507,0.8083,0.4919,662,4.0894,-17.0898,-4.2725,101,1.3377,1.0325,-2.6138,88.5268,25,0.039,8118,3.9743,156.0115
lg,1625260614547345809,0,0.4465,0.7942,0.5303,663,2.9297,-16.9067,-3.54,101,1.3377,1.0275,-3.3763,87.5618,25,0.039,8124,3.9743,155.3919
lg,1625260614547371435,0,0.4712,0.8071,0.5181,664,1.8921,-15.4419,-2.7466,101,1.3397,1.0305,-4.1932,86.631,25,0.038,8200,3.9743,154.8407
lg,1625260614547396651,0,0.4402,0.791,0.5007,665,1.3428,-13.4277,-2.6245,101,1.3387,1.0315,-4.9554,85.7118,25,0.039,8201,3.9743,154.3804
lg,1625260614547421586,0,0.4531,0.8047,0.5054,666,0.7935,-12.7563,-2.1362,101,1.3377,1.0285,-5.7286,84.812,25,0.039,8201,3.9743,153.9568
lg,1625260614547447156,0,0.4551,0.7769,0.5061,667,0.1221,-11.8408,-0.9766,101,1.3387,1.0295,-6.5504,83.8908,25,0.039,11801,3.9743,153.5862
lg,1625260614547472540,0,0.4453,0.7595,0.5007,668,0.2441,-11.2915,-0.9155,101,1.3347,1.0285,-7.3604,83.0054,26,0.04,8921,3.9743,153.2476
lg,1625260614547497886,0,0.4377,0.7566,0.5112,669,-0.6714,-10.1929,-0.061,101,1.3387,1.0295,-8.1483,82.0763,26,0.039,8620,3.9743,152.9707
lg,1625260614547523904,0,0.4246,0.7654,0.4971,670,-0.4272,-10.9253,0.5493,101,1.3397,1.0295,-8.9142,81.224,26,0.039,8360,3.9743,152.6718
lg,1625260614547549493,0,0.4441,0.7561,0.4844,671,-0.2441,-11.1694,1.0376,101,1.3397,1.0295,-9.7291,80.434,26,0.039,8278,3.9743,152.3708
lg,1625260614547573924,0,0.4431,0.7544,0.4976,672,0.061,-11.4746,1.1597,101,1.3397,1.0295,-10.5207,79.6615,25,0.039,8335,3.9743,152.0709
lg,1625260614888223398,0,0.4504,0.7449,0.5093,673,2.6245,-10.0098,1.5869,101,1.3397,1.0295,-11.3122,78.9806,25,0.039,24751,3.9743,151.8454
lg,1625260614888263265,0,0.4612,0.7434,0.5002,674,4.5166,-8.1177,1.8921,101,1.3397,1.0295,-12.1011,78.4041,25,0.039,8510,3.9743,151.7018
lg,1625260614888283852,0,0.4399,0.7415,0.5083,675,5.0659,-8.1787,1.2207,101,1.3357,1.0295,-12.7946,77.8476,25,0.04,7805,3.9743,151.5627
lg,1625260614888303804,0,0.47,0.7715,0.4919,676,5.7373,-7.7515,1.4038,101,1.3397,1.0295,-13.5007,77.3927,25,0.039,10557,3.9743,151.4351
lg,1625260614888322113,0,0.4812,0.783,0.5032,677,6.1646,-6.8359,1.8921,101,1.3397,1.0295,-14.2018,76.9454,26,0.039,10460,3.9743,151.4485
lg,1625260614888339639,0,0.4775,0.7852,0.5195,678,6.1646,-3.1738,2.0142,101,1.3397,1.0295,-14.8373,76.4705,26,0.039,7753,3.9743,151.5279
lg,1625260614888357669,0,0.4478,0.8047,0.5034,679,4.6387,1.8921,4.2114,101,1.3397,1.0295,-15.4184,75.932,26,0.039,7693,3.9743,151.8269
lg,1625260614888375699,0,0.4233,0.7842,0.5105,680,3.1738,2.3804,5.0049,101,1.3397,1.0295,-15.9682,75.3015,26,0.039,7753,3.9743,152.1686
lg,1625260614888396211,0,0.3862,0.7788,0.512,681,-0.5493,2.6245,7.8125,101,1.3397,1.0305,-16.5278,74.511,26,0.036,7762,3.9743,152.5586
lg,1625260614888414035,0,0.3586,0.7771,0.5171,682,-2.5024,-7.0801,12.3901,101,1.3397,1.0305,-17.2838,73.7455,26,0.038,10222,3.9743,152.6177
lg,1625260614888432569,0,0.4065,0.7551,0.5212,683,-3.1738,-15.0146,16.3574,101,1.3397,1.0305,-18.3673,73.0397,26,0.039,8434,3.9743,152.4195
lg,1625260614888450263,0,0.4351,0.7546,0.5198,684,-3.479,-16.2354,17.7002,101,1.3387,1.0295,-19.5363,72.3685,26,0.039,7900,3.9743,152.199
lg,1625260614888467733,0,0.4585,0.7607,0.5247,685,-2.6855,-17.7612,17.9443,101,1.3407,1.0305,-20.7297,71.7786,26,0.04,7996,3.9743,151.9317
lg,1625260614888484474,0,0.5178,0.7754,0.5371,686,-2.9907,-14.2822,19.4092,101,1.3397,1.0305,-21.9855,71.1497,26,0.039,7890,3.9743,151.8367
lg,1625260614888501534,0,0.5569,0.783,0.5454,687,-2.1362,-9.7656,20.752,101,1.3387,1.0255,-23.2453,70.5002,26,0.04,7912,3.9743,151.9593
lg,1625260614888519190,0,0.5239,0.845,0.499,688,-0.6104,3.9673,21.8506,101,1.3417,1.0315,-24.2144,69.8415,26,0.038,7953,3.9743,152.6189
lg,1625260614888536436,0,0.4458,0.8528,0.4739,689,-2.3193,11.4746,23.2544,101,1.3407,1.0325,-25.0071,68.7859,26,0.037,7988,3.9743,153.9056
lg,1625260614888553831,0,0.4363,0.8616,0.4451,690,-15.7471,17.5781,30.7007,101,1.3417,1.0325,-25.8522,67.3667,26,0.033,11601,3.9743,155.2434
lg,1625260614888571021,0,0.3999,0.855,0.4849,691,-23.3765,13.2446,31.6162,101,1.3417,1.0335,-26.758,65.3074,26,0.037,8257,3.9743,156.3415
lg,1625260614888587688,0,0.3911,0.8186,0.5288,692,-42.6636,2.5024,35.1562,101,1.3427,1.0335,-27.7845,62.8883,25,0.037,8093,3.9743,157.285
lg,1625260614888604617,0,0.4258,0.7468,0.5813,693,-55.7251,-9.7046,39.917,101,1.3427,1.0345,-29.2328,59.9779,25,0.036,8302,3.9743,157.9706
lg,1625260614888621247,0,0.4424,0.7341,0.6113,694,-58.6548,-21.7285,40.4053,101,1.3427,1.0355,-30.8877,57.1604,25,0.036,8113,3.9743,158.2821
lg,1625260614888638978,0,0.4934,0.7183,0.5933,695,-56.2134,-30.1514,40.1001,101,1.3427,1.0355,-32.7618,54.6891,25,0.037,9301,3.9743,158.3039
lg,1625260614888656634,0,0.5208,0.7007,0.5898,696,-54.8706,-31.7383,38.5132,101,1.3437,1.0365,-34.6003,52.4062,26,0.039,8698,3.9743,158.2318
lg,1625260614888673544,0,0.5952,0.709,0.6082,697,-54.8096,-28.4424,35.8276,101,1.3417,1.0365,-36.3298,50.0744,26,0.04,8248,3.9743,158.3144
lg,1625260614888690025,0,0.6482,0.6592,0.6387,698,-52.4902,-13.4888,36.0107,101,1.3437,1.0365,-37.7112,47.386,26,0.039,8290,3.9743,159.1003
lg,1625260614888707159,0,0.5964,0.6235,0.6133,699,-42.8467,14.2822,40.1001,101,1.3437,1.0365,-38.3211,44.3901,26,0.038,8280,3.9743,161.0918
lg,1625260614888724106,0,0.5693,0.6506,0.5833,700,-37.3535,25.1465,43.457,101,1.3427,1.0365,-38.5602,41.4924,26,0.039,8320,3.9743,163.4968
lg,1625260614888740736,0,0.4697,0.7332,0.4783,701,-36.9873,43.0298,45.7153,101,1.3427,1.0395,-38.0651,38.7044,26,0.041,8387,3.9743,166.2694
lg,1625260614888757347,0,0.3794,0.759,0.4155,702,-48.2788,33.7524,38.6963,101,1.3447,1.0365,-37.4763,36.1981,26,0.042,8401,3.9743,168.2313
lg,1625260614888795198,0,0.2649,0.7319,0.5098,703,-71.8994,15.8691,34.6069,101,1.3457,1.0345,-37.0071,33.0853,26,0.04,8393,3.9743,169.5516
lg,1625260614888813881,0,0.2473,0.6995,0.605,704,-82.6416,-0.1221,35.1562,101,1.3447,1.0335,-36.9456,29.6576,26,0.039,8388,3.9743,170.5648
lg,1625260615239658263,0,0.5713,0.491,0.6858,705,-81.543,-57.8003,33.0811,101,1.3467,1.0365,-39.4798,26.5887,26,0.046,24848,3.9743,170.5078
lg,1625260615239700049,0,0.5974,0.4978,0.688,706,-71.4722,-50.1709,26.8555,101,1.3437,1.0375,-41.5762,24.0345,25,0.047,9885,3.9743,170.3982
lg,1625260615239720896,0,0.6082,0.5007,0.717,707,-66.1011,-39.0625,22.3389,101,1.3477,1.0385,-43.1007,21.6783,25,0.045,10807,3.9743,170.3658
lg,1625260615239740865,0,0.7004,0.449,0.731,708,-60.2417,-33.9966,16.4795,101,1.3477,1.0395,-44.4523,19.5606,25,0.045,10503,3.9743,170.2666
lg,1625260615239759120,0,0.7192,0.4246,0.7207,709,-40.4663,1.4038,9.6436,101,1.3477,1.0405,-44.3872,18.0262,26,0.045,9300,3.9743,170.4828
lg,1625260615239777971,0,0.5178,0.5081,0.6731,710,-24.231,24.353,1.709,101,1.3477,1.0415,-43.0477,17.5819,26,0.042,7749,3.9743,170.3735
lg,1625260615239796822,0,0.4849,0.5227,0.6501,711,-21.6064,28.5645,1.2207,101,1.3477,1.0425,-41.6082,17.348,26,0.045,7734,3.9743,170.2674
lg,1625260615239815599,0,0.4797,0.5056,0.6289,712,-22.7661,26.7334,2.7466,101,1.3487,1.0425,-40.2775,17.0169,26,0.047,7977,3.9743,170.1954
lg,1625260615239833648,0,0.4531,0.4602,0.6477,713,-23.6206,27.5269,1.709,101,1.3487,1.0425,-38.8888,16.5622,25,0.042,7809,3.9743,170.1698
lg,1625260615239852332,0,0.3782,0.4409,0.6648,714,-20.3857,24.9634,-1.2817,101,1.3487,1.0435,-37.4388,16.3251,25,0.043,7959,3.9743,169.9867
lg,1625260615239870568,0,0.3521,0.4443,0.6919,715,-17.7612,20.5078,-2.0752,101,1.3487,1.0435,-36.116,16.2359,25,0.044,7866,3.9743,169.7266
lg,1625260615239889233,0,0.3599,0.416,0.7251,716,-8.9722,0.7324,-3.8452,101,1.3487,1.0435,-35.5654,16.579,25,0.044,7875,3.9743,169.1984
lg,1625260615239909333,0,0.4324,0.4092,0.7258,717,3.1128,-13.2446,-6.2256,101,1.3487,1.0435,-35.6925,17.5294,25,0.043,8939,3.9743,168.3952
lg,1625260615239928296,0,0.4529,0.4199,0.7263,718,10.1318,-18.0664,-8.4229,101,1.3487,1.0445,-35.996,18.8537,25,0.043,7838,3.9743,167.4124
lg,1625260615239947091,0,0.4775,0.4634,0.6926,719,19.7144,-21.7285,-12.8174,101,1.3487,1.0455,-36.4153,20.829,25,0.043,7865,3.9743,166.0811
lg,1625260615239965551,0,0.4973,0.4517,0.6895,720,25.2075,-22.3389,-16.9678,101,1.3497,1.0465,-36.7885,23.0602,25,0.045,7888,3.9743,164.5748
lg,1625260615240015672,0,0.4973,0.4417,0.7002,721,29.2358,-23.3154,-19.5923,101,1.3477,1.0445,-37.0849,25.4288,26,0.046,7869,3.9743,162.9734
lg,1625260615240037357,0,0.498,0.429,0.6758,722,36.6821,-24.5972,-23.3765,101,1.3507,1.0455,-37.327,28.1446,26,0.046,7952,3.9743,161.1966
lg,1625260615240054903,0,0.5298,0.4304,0.6743,723,44.9829,-25.6958,-27.771,101,1.3497,1.0485,-37.5053,31.2373,26,0.046,7952,3.9743,159.2351
lg,1625260615240072375,0,0.5166,0.4358,0.6943,724,50.0488,-26.3062,-31.4331,101,1.3477,1.0475,-37.4833,34.5045,26,0.049,7920,3.9743,157.1712
lg,1625260615240090890,0,0.5681,0.428,0.6611,725,60.0586,-27.2217,-37.4146,101,1.3507,1.0485,-37.3936,38.2405,25,0.053,7998,3.9743,154.8856
lg,1625260615240109107,0,0.5757,0.4358,0.6943,726,71.4722,-23.6206,-46.2036,101,1.3517,1.0485,-36.8264,42.3579,25,0.053,8042,3.9743,152.5133
lg,1625260615240127474,0,0.5945,0.4099,0.7061,727,78.7964,-20.1416,-48.1567,101,1.3477,1.0475,-36.0477,46.4381,25,0.054,8042,3.9743,150.4015
lg,1625260615240145952,0,0.6582,0.395,0.668,728,96.1914,-5.4321,-52.1851,101,1.3487,1.0485,-34.8381,50.7856,26,0.054,8070,3.9743,148.8538
lg,1625260615240164076,0,0.5669,0.4648,0.6367,729,116.394,15.3198,-56.7627,101,1.3467,1.0485,-32.7368,55.439,26,0.054,9689,3.9743,148.1397
lg,1625260615240181249,0,0.4597,0.4951,0.5974,730,133.9722,26.9775,-57.1289,101,1.3527,1.0465,-30.2046,60.3274,26,0.055,8139,3.9743,148.1468
lg,1625260615240199019,0,0.4192,0.5557,0.5828,731,141.9067,26.2451,-56.0303,101,1.3507,1.0455,-27.7876,65.5591,26,0.054,8247,3.9743,148.4605
lg,1625260615240216919,0,0.4246,0.5696,0.5496,732,153.2593,23.7427,-50.9033,101,1.3467,1.0455,-25.638,70.8482,26,0.052,8120,3.9743,148.9657
lg,1625260615240234036,0,0.4382,0.6533,0.52,733,160.9497,22.0947,-47.4854,101,1.3477,1.0475,-23.7199,76.3818,26,0.054,8167,3.9743,149.637
lg,1625260615240251731,0,0.4321,0.696,0.47,734,163.3911,22.644,-43.335,101,1.3487,1.0505,-22.0596,81.8906,26,0.053,8201,3.9743,150.5612
lg,1625260615240269799,0,0.425,0.7124,0.4653,735,163.269,23.3154,-41.0767,101,1.3457,1.0455,-20.6089,87.1744,26,0.054,8212,3.9743,151.739
lg,1625260615240306420,0,0.4189,0.7874,0.4124,736,161.499,23.3154,-36.1938,101,1.3467,1.0495,-19.4299,92.3589,25,0.055,8236,3.9743,153.0488
lg,1625260615603062949,0,0.4553,0.9031,0.416,737,142.334,16.0522,-27.9541,101,1.3477,1.0445,-18.7177,96.5516,25,0.054,24395,3.9743,154.0833
lg,1625260615603143388,0,0.4939,0.9658,0.4143,738,127.2583,15.1978,-24.292,95,1.3437,1.0465,-18.2046,100.3006,25,0.053,8604,3.9787,155.212
lg,1625260615603168859,0,0.5173,0.9714,0.4258,739,110.8398,19.9585,-19.4092,95,1.3477,1.0455,-18.0211,103.1929,25,0.052,10544,3.9787,156.5808
lg,1625260615603194311,0,0.4749,0.9917,0.4524,740,94.7266,29.4189,-16.9678,95,1.3477,1.0455,-18.0072,104.8827,25,0.053,10180,3.9787,158.4485
lg,1625260615603216891,0,0.3838,1.019,0.449,741,80.2612,31.1279,-11.9629,95,1.3477,1.0455,-18.0758,106.2291,25,0.053,7686,3.9787,160.2876
lg,1625260615603236824,0,0.3521,1.0413,0.449,742,63.1714,19.7754,-6.7139,95,1.3477,1.0455,-18.1721,107.0084,26,0.053,7791,3.9787,161.6243
lg,1625260615603259460,0,0.3545,1.0435,0.4375,743,52.063,13.7939,-4.0894,95,1.3477,1.0455,-18.3085,107.4207,26,0.053,7809,3.9787,162.6931
lg,1625260615603281034,0,0.3625,1.0439,0.4404,744,31.6162,5.8594,1.2207,95,1.3477,1.0455,-18.563,107.1192,26,0.051,7806,3.9787,163.3851
lg,1625260615603301600,0,0.3694,1.0225,0.4749,745,14.2822,-0.4883,5.7983,95,1.3477,1.0455,-18.9351,106.1709,26,0.051,9664,3.9787,163.7899
lg,1625260615603324591,0,0.3689,1.0017,0.4773,746,1.4648,-3.7231,10.3149,95,1.3477,1.0455,-19.4406,104.7781,26,0.052,8969,3.9787,164.0227
lg,1625260615603344971,0,0.3806,0.9688,0.4575,747,-11.9629,-6.5308,13.7939,95,1.3477,1.0435,-20.0751,102.9506,26,0.051,9753,3.9787,164.1099
lg,1625260615603364811,0,0.3782,0.9531,0.4714,748,-18.1885,-7.9346,15.1367,95,1.3467,1.0445,-20.7362,100.916,26,0.051,8091,3.9787,164.151
lg,1625260615603385004,0,0.3772,0.9119,0.4692,749,-29.48,-10.0708,17.2119,95,1.3477,1.0455,-21.4723,98.4994,25,0.049,8068,3.9787,164.111
lg,1625260615603403091,0,0.3909,0.8833,0.4524,750,-36.438,-12.2681,18.3716,95,1.3477,1.0455,-22.2699,95.9245,25,0.047,7781,3.9787,163.983
lg,1625260615603422856,0,0.4163,0.8699,0.4475,751,-40.4053,-10.6201,18.7378,95,1.3457,1.0455,-23.1272,93.2483,25,0.046,7838,3.9787,163.9397
lg,1625260615603440737,0,0.3972,0.8459,0.4424,752,-45.9595,-9.2163,17.0898,95,1.3477,1.0475,-23.8779,90.385,25,0.046,7831,3.9787,163.9847
lg,1625260615603497086,0,0.4016,0.8118,0.4412,753,-48.2178,-9.3994,16.9067,95,1.3477,1.0475,-24.5558,87.4173,26,0.046,7901,3.9787,163.9816
lg,1625260615603516627,0,0.3855,0.8093,0.4541,754,-51.6968,-13.2446,14.7095,95,1.3437,1.0455,-25.1773,84.5178,26,0.046,7891,3.9787,163.8839
lg,1625260615603537604,0,0.3992,0.7698,0.4524,755,-52.3682,-15.1978,12.6343,95,1.3487,1.0485,-25.775,81.6951,26,0.046,7916,3.9787,163.7032
lg,1625260615603556567,0,0.4114,0.7554,0.4456,756,-52.124,-15.8081,11.0474,95,1.3467,1.0445,-26.3423,78.996,26,0.046,7931,3.9787,163.4767
lg,1625260615603574971,0,0.4065,0.738,0.4797,757,-49.3164,-15.9302,7.9956,95,1.3477,1.0485,-26.7807,76.4204,26,0.047,7950,3.9787,163.2482
lg,1625260615603591734,0,0.4065,0.7205,0.4863,758,-44.7388,-16.2354,5.4932,95,1.3477,1.0475,-27.135,74.1002,26,0.047,7968,3.9787,162.9774
lg,1625260615603610193,0,0.4167,0.7139,0.4866,759,-38.8794,-15.2588,2.7466,95,1.3477,1.0455,-27.3982,72.0884,26,0.048,12547,3.9787,162.6956
lg,1625260615603630368,0,0.4294,0.707,0.4895,760,-31.7383,-12.8174,0.3662,95,1.3477,1.0455,-27.5721,70.3921,26,0.048,8218,3.9787,162.4669
lg,1625260615603648250,0,0.4277,0.7046,0.4961,761,-28.3203,-12.0239,-1.0376,95,1.3477,1.0455,-27.6658,68.8735,25,0.048,8050,3.9787,162.2343
lg,1625260615603665237,0,0.4236,0.6946,0.4985,762,-20.5078,-8.728,-2.5635,95,1.3477,1.0455,-27.6698,67.6504,25,0.049,8085,3.9787,162.1021
lg,1625260615603683678,0,0.4138,0.6936,0.5132,763,-12.6953,-6.7139,-3.9062,95,1.3477,1.0455,-27.5705,66.7231,25,0.049,8113,3.9787,162.0255
lg,1625260615603703685,0,0.4058,0.6948,0.5107,764,-8.9722,-5.7983,-4.6997,95,1.3477,1.0455,-27.4418,66.2177,25,0.049,8221,3.9787,161.9259
lg,1625260615603722965,0,0.4041,0.7012,0.4927,765,-0.3662,-5.4932,-5.4321,95,1.3457,1.0455,-27.2579,65.8823,25,0.05,9374,3.9787,161.8185
lg,1625260615603741779,0,0.4241,0.7161,0.5002,766,6.1646,-5.3711,-6.5308,95,1.3457,1.0455,-27.0649,65.8368,25,0.049,8488,3.9787,161.6845
lg,1625260615603760145,0,0.4363,0.7253,0.4968,767,12.6953,-2.5635,-7.2632,95,1.3477,1.0465,-26.8254,66.0295,25,0.049,9973,3.9787,161.6406
lg,1625260615603795498,0,0.4348,0.7388,0.4773,768,18.0664,0.4883,-5.7373,95,1.3477,1.0465,-26.5944,66.4199,25,0.05,8414,3.9787,161.7252
lg,1625260615948347260,0,0.3672,0.8247,0.4868,769,20.0195,3.6621,1.5869,95,1.3447,1.0465,-26.3757,66.8352,25,0.048,24580,3.9787,162.0411
lg,1625260615948383732,0,0.4131,0.8333,0.5129,770,15.564,2.8687,10.376,95,1.3477,1.0465,-26.5794,66.9622,25,0.05,8637,3.9787,162.5009
lg,1625260615948403944,0,0.3853,0.8713,0.5303,771,7.9956,7.6294,18.7988,95,1.3447,1.0485,-26.943,66.7096,25,0.051,11550,3.9787,163.2701
lg,1625260615948422907,0,0.4294,0.939,0.5046,772,-5.6152,5.4321,29.541,95,1.3487,1.0495,-27.9427,65.3674,25,0.051,10508,3.9787,164.4462
lg,1625260615948443772,0,0.4629,0.958,0.4883,773,-25.1465,13.1836,42.5415,95,1.3487,1.0495,-29.0602,63.592,25,0.052,7829,3.9787,165.8682
lg,1625260615948463071,0,0.4929,0.9661,0.5198,774,-47.3633,15.564,51.7578,95,1.3487,1.0505,-30.3999,60.7413,25,0.053,9235,3.9787,167.6506
lg,1625260615948481773,0,0.4719,1.032,0.4761,775,-65.2466,12.2681,56.9458,95,1.3497,1.0505,-31.7877,57.3568,25,0.053,7812,3.9787,169.4035
lg,1625260615948499748,0,0.4297,1.0596,0.449,776,-77.0264,5.188,54.5654,95,1.3507,1.0495,-33.037,53.8075,25,0.051,7961,3.9787,170.8286
lg,1625260615948517312,0,0.3589,1.0403,0.4248,777,-109.6802,-11.6577,55.7861,95,1.3487,1.0425,-34.5066,49.3796,26,0.05,9840,3.9787,-188.3158
lg,1625260615948535623,0,0.4141,0.9829,0.5667,778,-148.0103,-27.8931,63.5376,95,1.3507,1.0335,-36.5613,43.2954,26,0.05,7931,3.9787,-187.4664
lg,1625260615948553579,0,0.4868,0.8652,0.6924,779,-180.3589,-42.7856,68.6035,95,1.3517,1.0195,-39.1218,35.6965,26,0.046,7862,3.9787,-186.4296
lg,1625260615948571199,0,0.5752,0.8225,0.7534,780,-189.8193,-39.978,77.1484,95,1.3517,0.9955,-41.6507,27.1712,26,0.039,7954,3.9787,-184.4575
lg,1625260615948611923,0,0.6516,0.6323,0.8486,781,-193.4814,-25.1465,80.9937,95,1.3517,0.9655,-42.8839,17.5083,26,0.041,11811,3.9787,-181.1359
lg,1625260615948631482,0,0.5984,0.6257,0.9265,782,-192.688,-4.2725,74.1577,95,1.3517,0.9475,-43.205,7.9911,26,0.038,7931,3.9787,-177.8166
lg,1625260615948650576,0,0.5442,0.5159,1.0049,783,-197.2046,-2.5024,78.125,95,1.3527,0.9425,-42.9023,-1.7961,26,0.045,7933,3.9787,-174.2539
lg,1625260615948669203,0,0.6743,0.3623,1.0256,784,-188.7207,-3.2959,79.5898,95,1.3527,0.9435,-42.3542,-11.2503,26,0.046,9721,3.9787,-170.6227
lg,1625260615948687327,0,0.7295,0.3196,1.0063,785,-176.1475,0.7324,76.9043,95,1.3527,0.9425,-41.2443,-18.6433,25,0.041,7915,3.9787,-167.8741
lg,1625260615948705004,0,0.8101,0.4043,0.8364,786,-137.4512,26.9775,63.7207,95,1.3537,0.9405,-39.6631,-24.2379,25,0.041,8210,3.9787,-166.3053
lg,1625260615948722084,0,0.5823,0.582,0.5535,787,-122.5586,65.4907,45.4712,95,1.3527,0.9385,-37.192,-27.3118,25,0.038,8232,3.9787,-167.0826
lg,1625260615948739331,0,0.4062,0.6062,0.405,788,-141.9067,71.5942,40.2222,95,1.3537,0.9395,-34.7021,-30.5605,26,0.033,8047,3.9787,-168.5232
lg,1625260615948756523,0,0.3523,0.5415,0.4224,789,-158.8745,63.6597,35.7056,95,1.3517,0.9465,-32.5428,-34.3907,26,0.032,8288,3.9787,-170.0804
lg,1625260615948773081,0,0.3079,0.3782,0.5112,790,-185.0586,56.0303,34.2407,95,1.3547,0.9575,-30.4603,-39.3534,26,0.033,7999,3.9787,-171.5869
lg,1625260615948790105,0,0.2705,0.323,0.5337,791,-191.04,47.1802,31.7383,95,1.3537,0.9635,-28.6913,-44.5345,26,0.035,8156,3.9787,-173.092
lg,1625260615948806830,0,0.2146,0.2998,0.5364,792,-195.8618,42.2974,31.311,95,1.3527,0.9745,-27.0279,-49.8255,25,0.036,8039,3.9787,-174.6422
lg,1625260615948823668,0,0.135,0.2024,0.5486,793,-212.4023,29.0527,39.1235,95,1.3507,0.9915,-25.2539,-55.9832,25,0.044,8188,3.9787,-175.6846
lg,1625260615948840039,0,-0.0471,0.043,0.6626,794,-214.1113,1.5259,48.5229,95,1.3507,1.0055,-22.9799,-62.7763,25,0.039,8055,3.9787,-175.6271
lg,1625260615948857231,0,-0.126,-0.0276,0.6973,795,-205.5054,-28.4424,51.2085,95,1.3497,1.0235,-21.1455,-69.7343,25,0.041,8299,3.9787,-172.8905
lg,1625260615948874795,0,0.0422,-0.0383,0.76,796,-176.1475,-103.8208,68.3594,95,1.3467,1.0275,-19.5743,-76.3035,25,0.044,8241,3.9787,-168.6329
lg,1625260615948891875,0,0.3674,-0.0061,0.6826,797,-146.1182,-153.5034,69.397,95,1.3477,1.0325,-18.8497,-82.383,25,0.045,8309,3.9787,-162.3602
lg,1625260615948908694,0,0.5527,-0.0791,0.7339,798,-129.8218,-167.1143,57.251,95,1.3457,1.0355,-18.2876,-88.0233,25,0.041,8350,3.9787,-155.6967
lg,1625260615948935768,0,0.6169,-0.1494,0.8013,799,-117.1875,-165.0391,53.2837,95,1.3437,1.0355,-17.2872,-92.9733,25,0.041,8447,3.9787,-149.3358
lg,1625260615948953295,0,0.7422,-0.0022,0.8945,800,-72.0825,-143.4326,45.6543,95,1.3427,1.0355,-16.4458,-95.7295,25,0.039,8424,3.9787,-144.029
lg,1625260616300712831,0,0.7905,0.0654,0.6111,801,-14.8926,-116.4551,26.3062,95,1.3437,1.0345,-16.4531,-95.9452,25,0.038,24673,3.9787,-139.901
lg,1625260616300748191,0,1.0806,0.1907,0.6562,802,-20.5078,-93.8721,39.6729,95,1.3427,1.0345,-16.4339,-96.6449,25,0.036,9533,3.9787,-136.5264
lg,1625260616300768293,0,1.2407,-0.0898,0.9014,803,-29.541,-49.6216,25.5127,95,1.3437,1.0365,-16.9526,-96.9768,25,0.033,14079,3.9787,-134.9989
lg,1625260616300787426,0,1.0366,-0.2173,0.9683,804,-1.8311,15.686,8.1177,95,1.3447,1.0375,-18.2199,-95.1786,25,0.034,7821,3.9787,-136.204
lg,1625260616300806038,0,0.7324,-0.155,0.8979,805,28.5645,35.8887,-7.3853,95,1.3467,1.0375,-19.8956,-91.6498,26,0.033,7761,3.9787,-138.3361
lg,1625260616300824165,0,0.6575,-0.0862,0.8408,806,39.7949,33.5693,-11.8408,95,1.3467,1.0395,-21.6106,-87.6022,26,0.035,7756,3.9787,-140.4827
lg,1625260616300841603,0,0.6262,0.009,0.7598,807,49.1333,28.7476,-6.958,95,1.3487,1.0405,-23.098,-83.2297,26,0.034,7748,3.9787,-142.5078
lg,1625260616300859674,0,0.5491,0.0215,0.759,808,50.1709,33.0811,-0.6714,95,1.3497,1.0415,-23.9269,-78.5508,26,0.03,8206,3.9787,-144.8828
lg,1625260616300897344,0,0.4827,0.0051,0.7502,809,49.9878,33.5693,5.6763,95,1.3487,1.0425,-24.3378,-73.9059,25,0.031,7988,3.9787,-147.1432
lg,1625260616300915136,0,0.4526,-0.0151,0.8008,810,47.1191,6.958,12.6953,95,1.3517,1.0415,-24.5221,-69.8728,25,0.029,7790,3.9787,-148.1603
lg,1625260616300932425,0,0.616,-0.0239,0.8779,811,45.0439,-6.3477,18.6157,95,1.3517,1.0445,-24.8428,-66.7458,25,0.03,7869,3.9787,-147.85
lg,1625260616300949993,0,0.7017,-0.0066,0.9209,812,41.1987,-27.771,21.1182,95,1.3487,1.0435,-25.4616,-63.8892,25,0.031,7913,3.9787,-147.1524
lg,1625260616300966965,0,0.8767,0.071,0.842,813,39.3677,-33.9966,17.395,95,1.3517,1.0465,-26.677,-61.4073,26,0.034,8040,3.9787,-146.1959
lg,1625260616300983844,0,0.9443,0.1687,0.7791,814,38.269,-36.1938,8.606,95,1.3507,1.0505,-29.0012,-59.1978,26,0.036,7773,3.9787,-145.6402
lg,1625260616301000741,0,1.0068,0.3564,0.615,815,21.3013,-26.001,-11.1084,95,1.3487,1.0525,-31.5199,-57.1859,26,0.04,7810,3.9787,-145.6644
lg,1625260616301018030,0,0.9683,0.3013,0.6599,816,-17.8223,7.9346,-23.5596,95,1.3487,1.0525,-33.5642,-55.7743,26,0.041,7901,3.9787,-147.4652
lg,1625260616301035319,0,0.782,0.0574,0.8889,817,-34.6069,30.7617,-26.3062,95,1.3487,1.0515,-33.8224,-54.3195,25,0.039,7923,3.9787,-150.3846
lg,1625260616301052012,0,0.4131,-0.3,1.1038,818,-15.1978,51.9409,-23.2544,95,1.3457,1.0525,-33.0263,-51.8322,25,0.043,7943,3.9787,-153.9549
lg,1625260616301069710,0,0.2661,-0.0393,0.8083,819,37.7197,32.5317,-11.1084,95,1.3467,1.0495,-32.3186,-47.5618,25,0.043,7989,3.9787,-156.5395
lg,1625260616301086384,0,0.2678,0.2214,0.7373,820,43.2129,25.3296,1.0376,95,1.3477,1.0525,-32.2647,-43.1242,25,0.043,7973,3.9787,-158.6119
lg,1625260616301103449,0,0.6052,0.321,0.6543,821,19.8364,12.6953,29.6021,95,1.3477,1.0515,-31.9742,-40.7234,26,0.043,7996,3.9787,-159.0423
lg,1625260616301120310,0,0.7644,0.0474,0.9634,822,-2.0752,14.2212,31.25,95,1.3467,1.0515,-31.2386,-39.7158,26,0.042,9948,3.9787,-159.136
lg,1625260616301136686,0,0.7556,0.0632,0.8796,823,17.9443,27.71,14.9536,95,1.3497,1.0545,-30.6053,-37.4563,26,0.043,8018,3.9787,-160.1493
lg,1625260616301153416,0,0.5708,0.1223,0.8113,824,26.001,24.353,-7.2632,95,1.3497,1.0545,-30.4244,-34.3713,26,0.039,8050,3.9787,-161.9067
lg,1625260616301169754,0,0.512,0.0984,0.8171,825,27.5879,17.334,-13.1836,95,1.3487,1.0535,-30.4076,-31.3044,25,0.043,8068,3.9787,-163.6243
lg,1625260616301187118,0,0.5361,0.1067,0.7947,826,29.7852,5.7983,-12.8784,95,1.3477,1.0555,-30.7873,-28.3939,25,0.043,8058,3.9787,-164.996
lg,1625260616301204257,0,0.4368,0.0457,0.8271,827,24.4751,5.5542,-10.8032,95,1.3507,1.0565,-30.8032,-25.8962,25,0.043,8154,3.9787,-166.1994
lg,1625260616301220913,0,0.502,0.0957,0.8115,828,20.6299,-8.4229,-5.6152,95,1.3507,1.0575,-31.3712,-23.8101,25,0.044,8326,3.9787,-166.9083
lg,1625260616301252975,0,0.6919,0.0803,0.7825,829,21.4233,-22.3389,-8.4229,95,1.3507,1.0575,-32.8151,-21.9713,25,0.045,8117,3.9787,-167.3999
lg,1625260616301272611,0,0.7532,0.0828,0.7749,830,24.9023,-24.1699,-15.625,95,1.3507,1.0585,-34.5297,-19.815,25,0.045,8180,3.9787,-168.2454
lg,1625260616301291260,0,0.6775,0.1592,0.6682,831,35.0952,-8.1177,-31.189,95,1.3507,1.0585,-35.7479,-16.5548,25,0.045,8203,3.9787,-170.2132
lg,1625260616301308866,0,0.5964,0.209,0.6416,832,32.0435,-4.6997,-37.6587,95,1.3497,1.0595,-36.6884,-13.0341,25,0.045,8356,3.9787,-172.6858
lg,1625260616664248886,0,0.4399,0.2024,0.6877,833,25.1465,49.3774,-9.7046,95,1.3507,1.0595,-34.7662,-10.2979,25,0.046,25676,3.9787,-174.3561
lg,1625260616664298908,0,0.4009,0.1079,0.8523,834,16.0522,33.2642,-4.2725,95,1.3517,1.0585,-33.1452,-8.6509,26,0.046,12493,3.9787,-175.2508
lg,1625260616664320500,0,0.5515,-0.0498,1.0483,835,22.3999,8.9111,-0.1831,95,1.3517,1.0575,-32.5767,-7.473,26,0.043,10355,3.9787,-175.4545
lg,1625260616664340211,0,0.6304,-0.104,1.0972,836,52.2461,-2.4414,-10.3149,95,1.3527,1.0545,-32.5983,-5.0516,26,0.041,7771,3.9787,-175.973
lg,1625260616664359829,0,0.6189,0.0193,1.011,837,71.5332,-3.479,-13.4277,95,1.3527,1.0495,-32.7619,-0.9503,26,0.037,7715,3.9787,-176.7985
lg,1625260616664379875,0,0.604,0.0896,0.9263,838,98.0835,-5.8594,-14.6484,95,1.3527,1.0445,-32.9831,3.5939,26,0.04,7791,3.9787,-177.6431
lg,1625260616664398784,0,0.6033,0.2859,0.7434,839,104.9194,-8.606,-10.8643,95,1.3537,1.0385,-33.4634,8.7306,26,0.044,8945,3.9787,-178.5701
lg,1625260616664437647,0,0.7393,0.5574,0.6213,840,70.7397,-14.8926,-9.1553,95,1.3517,1.0365,-34.4184,12.9955,26,0.044,9391,3.9787,-179.7832
lg,1625260616664459370,0,0.8889,0.5022,0.6677,841,39.0625,-14.2212,-13.1226,95,1.3537,1.0395,-35.0147,14.6429,26,0.043,7780,3.9787,-181.2675
lg,1625260616664479956,0,0.8284,0.4021,0.7402,842,-16.6016,4.5776,-30.6396,95,1.3507,1.0435,-34.9131,15.2477,26,0.045,7965,3.9787,-182.9305
lg,1625260616664498009,0,0.5278,0.2903,0.8674,843,-38.6353,23.5596,-37.7808,95,1.3557,1.0505,-33.4157,14.6659,26,0.044,7883,3.9787,-184.4781
lg,1625260616664550322,0,0.4829,0.3242,0.8433,844,-42.9077,14.2212,-34.3018,95,1.3537,1.0545,-32.6606,13.7002,26,0.046,7889,3.9787,-185.9693
lg,1625260616664571598,0,0.4565,0.3066,0.8398,845,-62.0728,3.7231,-25.0854,95,1.3507,1.0525,-32.0707,12.0891,26,0.049,7863,3.9787,-187.2347
lg,1625260616664589930,0,0.4236,0.0571,1.0559,846,-82.7026,-10.6201,-14.3433,95,1.3517,1.0555,-31.9799,8.8112,26,0.049,7807,3.9787,-187.7954
lg,1625260616664608206,0,0.3921,-0.1621,1.1428,847,-73.4253,-18.7378,-11.5356,95,1.3507,1.0525,-32.1891,5.5373,26,0.046,7845,3.9787,-188.0869
lg,1625260616664629202,0,0.4092,0.063,0.9209,848,-35.0952,-30.7007,-1.1597,95,1.3457,1.0485,-33.0681,4.1664,26,0.045,7885,3.9787,-188.2322
lg,1625260616664647534,0,0.4868,0.3198,0.7168,849,-26.7944,-25.9399,15.9302,95,1.3497,1.0495,-34.1468,3.5092,26,0.045,7889,3.9787,-187.9853
lg,1625260616664665754,0,0.3535,0.3965,0.7415,850,-39.1846,-0.8545,36.8652,95,1.3487,1.0485,-33.9103,2.0089,26,0.045,11985,3.9787,-186.8095
lg,1625260616664683863,0,0.626,0.0872,0.9124,851,-47.6685,-26.6113,46.936,95,1.3497,1.0495,-34.996,-1.0367,26,0.047,7928,3.9787,-184.6171
lg,1625260616664701860,0,0.8367,0.0137,1.0491,852,-43.5791,-34.0576,44.0674,95,1.3497,1.0505,-36.4049,-4.0164,26,0.047,7967,3.9798,-182.4063
lg,1625260616664720005,0,0.9312,-0.0847,1.071,853,-13.4888,-10.498,18.3716,94,1.3507,1.0525,-36.9306,-5.1434,26,0.049,8014,3.9798,-181.4367
lg,1625260616664738058,0,0.6526,0.0518,0.969,854,11.2305,12.7563,-4.3945,94,1.3507,1.0545,-36.3201,-4.1989,26,0.048,8042,3.9798,-181.9106
