name,time,activity,ax,ay,az,batch_val,gx,gy,gz,ibat,index,middle,pitch,roll,temp,thumb,ts,vbat,yaw
lg,1625251204144451338,0,0.554,-0.239,0.8945,1,-18.9819,5.0659,-13.7329,61,1.3026,1.0365,-44.4551,-10.5174,27,0.041,19313,3.9996,-182.2706
lg,1625251204144498115,0,0.4397,-0.21,0.8906,2,-22.0947,7.6904,-17.395,61,1.3066,1.0365,-43.5443,-10.8114,27,0.04,8285,3.9996,-183.2123
lg,1625251204144518578,0,0.4429,-0.2483,0.8879,3,-25.9399,-1.8311,-15.625,61,1.3026,1.0365,-43.0339,-11.5073,28,0.039,7627,3.9996,-183.8817
lg,1625251204144538634,0,0.4905,-0.2385,0.9067,4,-26.7334,-3.54,-14.6484,61,1.3006,1.0355,-42.6797,-12.2132,28,0.04,7645,3.9996,-184.5271
lg,1625251204144557652,0,0.4895,-0.2715,0.9023,5,-25.8179,-5.249,-14.7705,61,1.3016,1.0365,-42.4088,-12.9618,28,0.039,7625,3.9996,-185.1092
lg,1625251204144576375,0,0.488,-0.2698,0.9067,6,-25.3296,-4.3335,-15.686,61,1.3026,1.0345,-42.1203,-13.615,28,0.039,7676,3.9996,-185.7728
lg,1625251204144595264,0,0.4734,-0.2393,0.887,7,-24.5361,-4.9438,-17.2729,61,1.3016,1.0355,-41.8846,-14.0931,28,0.04,7677,3.9996,-186.5724
lg,1625251204144613152,0,0.4453,-0.2061,0.8701,8,-26.1841,-9.9487,-18.0664,61,1.3026,1.0365,-41.8342,-14.552,27,0.04,7687,3.9996,-187.4129
lg,1625251204144630356,0,0.446,-0.2097,0.8831,9,-27.8931,-14.3433,-17.2119,61,1.3006,1.0365,-41.9397,-15.1321,27,0.04,7704,3.9996,-188.1561
lg,1625251204144649338,0,0.4375,-0.2222,0.8853,10,-33.1421,-22.4609,-15.0757,61,1.3026,1.0345,-42.3145,-16.0843,27,0.039,7768,3.9996,171.3425
lg,1625251204144668430,0,0.436,-0.2222,0.8806,11,-35.4004,-27.832,-13.7939,61,1.3026,1.0365,-42.8574,-17.2305,27,0.039,7723,3.9996,171.0063
lg,1625251204144686986,0,0.8721,-0.2891,0.7668,12,16.0522,-42.1143,20.5078,137,1.3116,1.0055,-44.3488,-17.9462,28,0.034,13644,3.971,-187.1178
lg,1625251204144704912,0,0.6216,-0.2205,0.7417,13,-23.0713,18.8599,3.1738,137,1.3136,1.0125,-43.3665,-18.685,28,0.037,8102,3.971,-187.3303
lg,1625251204144723060,0,0.4495,-0.3105,0.7512,14,-47.6685,13.2446,-20.9351,137,1.3136,1.0235,-42.5716,-19.8495,28,0.041,7895,3.971,171.458
lg,1625251204144741504,0,0.2798,-0.5713,0.8118,15,-88.1348,-22.8271,-52.2461,137,1.3126,1.0295,-43.1822,-22.6132,28,0.042,7906,3.971,169.7505
lg,1625251204144759208,0,0.1089,-0.6897,0.9011,16,-101.1353,-22.9492,-51.6357,137,1.3136,1.0285,-43.5065,-25.9691,28,0.041,7922,3.971,168.1718
lg,1625251204144776819,0,-0.1448,-0.6643,1.1423,17,-94.3604,-23.9868,-44.0674,137,1.3086,1.0275,-43.4292,-28.841,28,0.04,10435,3.971,166.7196
lg,1625251204144796245,0,-0.2114,-1.0071,1.0769,18,-74.2188,-48.8281,-51.6357,137,1.3086,1.0225,-44.3996,-31.5025,28,0.039,8033,3.971,165.9141
lg,1625251204144814375,0,-0.0007,-0.6206,0.8123,19,-3.9062,-73.6084,-37.4756,137,1.3076,1.0215,-46.0828,-32.2559,28,0.039,8267,3.971,166.5411
lg,1625251204144832560,0,0.321,-0.4294,0.7236,20,8.1177,-80.2612,18.6768,137,1.3096,1.0205,-47.3599,-34.3608,28,0.036,8068,3.971,169.9491
lg,1625251204144850801,0,0.7334,-0.304,0.6814,21,1.77,-88.8672,41.5649,137,1.3096,1.0205,-48.5985,-38.3115,28,0.036,8034,3.971,-185.0891
lg,1625251204144868319,0,1.1609,-0.7393,0.9307,22,-9.5215,-42.4805,45.2271,137,1.3076,1.0215,-48.551,-41.4962,28,0.035,8036,3.971,-181.3411
lg,1625251204144885449,0,0.8914,-0.7773,0.9192,23,20.0195,68.1152,25.4517,137,1.3106,1.0235,-45.3581,-39.5619,28,0.036,8081,3.971,-182.8638
lg,1625251204144903301,0,0.6426,-0.717,0.7971,24,30.3345,105.5908,17.2729,137,1.3096,1.0265,-40.4143,-35.9449,28,0.037,8120,3.971,-186.2998
lg,1625251204144920652,0,0.2668,-0.6169,0.7461,25,38.3301,124.8169,5.3711,137,1.3086,1.0285,-35.2384,-32.5571,28,0.037,8138,3.971,170.497
lg,1625251204144937726,0,-0.0452,-0.6379,0.7153,26,49.3164,97.5952,-5.127,137,1.3116,1.0305,-30.6465,-29.6154,27,0.039,8078,3.9182,168.1667
lg,1625251204144956819,0,-0.2178,-0.7278,0.7878,27,52.7344,70.3735,-7.5073,137,1.3116,1.0315,-28.0356,-27.1841,27,0.039,8130,3.9182,167.26
lg,1625251204144973930,0,-0.1272,-0.6877,0.7844,28,63.1714,4.8828,-5.7983,137,1.3106,1.0285,-26.6936,-25.136,27,0.039,8086,3.9182,167.2451
lg,1625251204144990912,0,0.1875,-0.689,0.8738,29,64.5752,-30.3955,12.9395,137,1.3146,1.0215,-26.9365,-23.6215,27,0.04,8095,3.9182,168.6035
lg,1625251204145008171,0,0.6038,-0.4082,0.5876,30,64.27,-29.4189,20.0195,137,1.3146,1.0145,-27.9141,-22.2149,28,0.038,8149,3.9182,170.0672
lg,1625251204145025004,0,0.6262,-0.3867,0.5691,31,42.6636,-10.8032,19.2871,137,1.3126,1.0065,-28.6018,-21.3735,28,0.039,8191,3.9182,171.2425
lg,1625251204145050949,0,0.5569,-0.4512,0.7534,32,17.8833,9.3994,1.4038,137,1.3146,1.0005,-28.3875,-20.9706,28,0.039,8196,3.9182,171.3179
lg,1625251204491566041,0,-0.0703,-0.4233,0.688,33,-0.2441,6.8359,-38.6353,137,1.3146,1.0015,-27.298,-20.4575,27,0.039,25119,3.9182,169.7199
lg,1625251204491602523,0,-0.0171,-0.3486,0.6975,34,-29.7852,-61.9507,-26.7334,137,1.3146,1.0145,-30.578,-23.0976,27,0.042,9218,3.9182,170.5993
lg,1625251204491622800,0,0.4646,-0.615,0.8828,35,-61.4624,-102.6001,-18.3105,137,1.3126,1.0265,-34.3079,-26.7144,28,0.037,12515,3.9182,-187.8863
lg,1625251204491642171,0,0.3652,-0.7009,0.8955,36,-65.1855,-78.4302,-17.8833,137,1.3116,1.0305,-36.7506,-30.4348,28,0.037,7883,3.9182,-186.538
lg,1625251204491661226,0,0.4304,-0.7375,1.0559,37,-62.0728,-77.2705,-19.6533,137,1.3116,1.0325,-39.0592,-31.7894,28,0.037,7698,3.9182,-186.3804
lg,1625251204491678874,0,0.1641,-0.5852,0.6611,38,14.2212,-54.9316,-37.4146,137,1.3116,1.0335,-40.6289,-31.6078,28,0.037,7968,3.9182,-186.2173
lg,1625251204491696671,0,0.1765,-0.4514,0.6667,39,17.4561,-56.3965,-26.6113,137,1.3116,1.0345,-42.0141,-31.2707,27,0.038,7652,3.9182,-185.7682
lg,1625251204491714393,0,0.7383,-0.4929,0.7432,40,2.4414,-70.1294,18.4937,137,1.3116,1.0355,-43.8683,-33.2364,27,0.037,7682,3.9182,-182.7993
lg,1625251204491732041,0,0.9583,-0.6702,0.8911,41,1.2817,-47.9126,30.5786,137,1.3126,1.0375,-43.0033,-34.1185,27,0.037,7727,3.9182,-181.0409
lg,1625251204491749115,0,0.8723,-0.6694,0.8914,42,20.813,50.7202,35.5225,137,1.3126,1.0395,-40.3366,-33.4426,27,0.037,7702,3.9182,-180.9041
lg,1625251204491765449,0,0.5339,-0.6104,0.7888,43,33.7524,98.7549,19.165,137,1.3116,1.0395,-36.1305,-31.1313,27,0.039,8040,3.9182,-182.6482
lg,1625251204491781393,0,0.2122,-0.6667,0.8254,44,34.3018,98.5718,8.7891,137,1.3126,1.0395,-32.0078,-28.6808,27,0.039,7791,3.9182,-184.6078
lg,1625251204491797893,0,-0.0032,-0.7397,0.8516,45,52.9175,81.8481,-9.2773,137,1.3126,1.0355,-28.1077,-26.076,27,0.04,7806,3.9182,-186.4067
lg,1625251204491815337,0,-0.2017,-0.6729,0.772,46,66.1621,38.3911,-3.2959,137,1.3136,1.0225,-25.3793,-23.7072,27,0.037,7765,3.9182,-186.9285
lg,1625251204491832041,0,-0.1228,-0.6165,0.7539,47,67.2607,10.5591,8.9722,137,1.3146,0.9975,-23.6685,-21.77,27,0.035,7792,3.9182,-186.4367
lg,1625251204491849486,0,0.2617,-0.5254,0.7852,48,57.8613,-39.1846,30.2734,137,1.3146,0.9695,-24.3764,-20.7135,27,0.036,7702,3.9182,-184.3741
lg,1625251204491866337,0,0.6689,-0.5205,0.7981,49,43.396,-43.2739,35.1562,137,1.3156,0.9485,-25.9299,-20.3217,27,0.036,7956,3.9182,-182.0671
lg,1625251204491882763,0,0.7485,-0.509,0.7595,50,42.1753,-31.5552,28.5645,137,1.3126,0.9315,-27.2569,-19.8472,27,0.035,7951,3.9182,-180.1831
lg,1625251204491898874,0,0.6123,-0.3975,0.6909,51,20.2637,6.4087,13.9771,137,1.3156,0.9235,-27.2378,-19.6136,28,0.036,7883,3.9182,-179.5291
lg,1625251204491915689,0,0.4971,-0.4297,0.7627,52,7.8735,15.3198,5.9204,137,1.3146,0.9245,-26.7415,-19.7794,28,0.035,7826,3.9182,-179.7891
lg,1625251204491932263,0,0.3076,-0.5046,0.832,53,-4.2725,13.5498,-13.916,137,1.3146,0.9315,-26.0734,-20.0716,28,0.036,7906,3.9182,-180.366
lg,1625251204491948689,0,0.0603,-0.551,0.8718,54,-15.3809,6.1646,-16.5405,137,1.3166,0.9385,-25.2135,-20.8695,28,0.038,7773,3.9182,-180.9218
lg,1625251204491965430,0,0.0505,-0.4556,0.8049,55,-21.7896,-10.7422,-13.1226,137,1.3146,0.9585,-25.6211,-22.6101,27,0.039,8709,3.9182,-180.6391
lg,1625251204491982560,0,0.1707,-0.4028,0.7488,56,-44.9219,-41.626,-1.6479,137,1.3156,0.9785,-26.729,-24.9236,27,0.04,9617,3.9182,-179.8659
lg,1625251204491999763,0,0.3066,-0.4941,0.7737,57,-74.0967,-71.4111,1.2207,137,1.3146,1.0015,-28.9118,-28.8923,27,0.039,8017,3.9182,-178.2186
lg,1625251204492015763,0,0.5837,-0.5845,1.1208,58,-91.98,-83.313,2.4414,137,1.3136,1.0185,-31.5242,-33.5444,27,0.037,11180,3.9182,-176.1553
lg,1625251204492031930,0,0.4004,-0.875,1.063,59,22.2168,-65.1245,-57.8613,137,1.3136,1.0215,-34.3547,-32.584,28,0.038,8747,3.9182,-176.6216
lg,1625251204492049245,0,0.3784,-0.7886,0.9248,60,38.6963,-33.5083,-38.3301,137,1.3136,1.0225,-35.6339,-30.9822,28,0.037,8221,3.9182,-177.1338
lg,1625251204492065986,0,0.5266,-0.5454,0.7412,61,52.1851,-47.1191,-34.2407,137,1.3146,1.0225,-38.6118,-28.4502,28,0.035,8216,3.9182,-177.6133
lg,1625251204492082319,0,0.9429,-0.0796,0.5425,62,40.8325,-4.1504,-12.7563,120,1.3136,1.0235,-39.8399,-25.9834,27,0.036,8227,3.9182,-178.4506
lg,1625251204492098597,0,0.698,-0.3374,0.5066,63,5.0049,112.9761,-2.7466,120,1.3146,1.0245,-36.1813,-24.4404,27,0.036,8220,3.9182,-180.881
lg,1625251204492115374,0,-0.002,-0.46,0.6375,64,-13.3667,185.4248,22.2168,120,1.3126,1.0275,-27.7877,-24.0989,27,0.036,8946,3.9182,-183.2142
lg,1625251204828750874,0,0.1284,-0.7056,0.8909,65,-18.7378,-13.7939,13.7939,120,1.3146,1.0275,-27.2463,-25.8405,28,0.037,24237,3.9182,-182.107
lg,1625251204828798133,0,0.4709,-0.7405,0.9768,66,12.5732,-31.0669,21.1792,120,1.3106,1.0215,-27.7476,-26.4816,28,0.037,8835,3.9182,-180.4175
lg,1625251204828819911,0,0.4204,-0.7637,1.001,67,28.7476,-11.2915,22.3389,120,1.3156,1.0125,-26.8599,-25.6222,28,0.039,7990,3.9182,-179.4984
lg,1625251204828839189,0,0.2651,-0.6401,0.8333,68,55.542,-13.9771,9.0332,120,1.3166,0.9915,-26.7307,-24.1982,27,0.037,7940,3.9182,-178.63
lg,1625251204828858467,0,0.3394,-0.6284,0.865,69,50.9033,-14.8926,13.0005,120,1.3156,0.9725,-26.7217,-23.0201,27,0.035,7514,3.9182,-177.6019
lg,1625251204828876800,0,0.4985,-0.5618,0.8604,70,48.4619,-3.2349,25.5737,120,1.3156,0.9605,-26.4248,-21.9812,27,0.035,10445,3.9182,-176.31
lg,1625251204828895300,0,0.7595,-0.3667,0.7805,71,19.6533,14.8926,30.2734,120,1.3166,0.9655,-26.0032,-21.741,27,0.037,7506,3.9182,-175.2626
lg,1625251204828913967,0,0.7817,-0.5144,0.9182,72,2.6855,28.9917,21.7285,120,1.3176,0.9805,-24.7682,-21.9139,27,0.037,7686,3.9182,-175.5023
lg,1625251204828932541,0,0.7197,-0.4961,0.6731,73,-0.6714,56.8848,-7.9346,120,1.3166,0.9995,-23.4251,-21.8944,27,0.037,9649,3.9182,-176.5624
lg,1625251204828953208,0,0.1619,-0.4395,0.6565,74,-11.2305,94.2993,-37.1704,120,1.3166,1.0135,-20.0397,-21.7199,27,0.039,7697,3.9182,-179.3643
lg,1625251204828973078,0,-0.3503,-0.4883,0.6829,75,-29.4189,64.3921,-53.2837,120,1.3156,1.0225,-16.9422,-22.4291,27,0.036,7814,3.9182,-182.2959
lg,1625251204828992522,0,-0.4277,-0.5544,0.6804,76,-40.1611,23.1934,-52.2461,120,1.3136,1.0265,-15.4908,-23.9968,27,0.037,8269,3.9182,-184.5081
lg,1625251204829011115,0,-0.1697,-0.6304,0.9858,77,-50.0488,-53.5889,-28.7476,120,1.3126,1.0265,-16.9995,-26.2926,27,0.038,7857,3.9182,-184.5651
lg,1625251204829028800,0,-0.1306,-0.5427,0.6826,78,23.1323,-79.7119,-39.4287,120,1.3136,1.0275,-19.5772,-25.8595,27,0.036,7878,3.9182,-184.4244
lg,1625251204829046041,0,-0.1248,-0.3853,0.6235,79,20.6299,-83.374,-18.9209,120,1.3126,1.0275,-21.7886,-25.5646,27,0.037,7960,3.9182,-183.5161
lg,1625251204829063652,0,0.4521,-0.4009,0.7236,80,-1.2817,-150.6958,3.9673,120,1.3156,1.0295,-27.3579,-27.0275,27,0.037,7946,3.9182,-180.3661
lg,1625251204829081374,0,1.1667,-0.5776,0.8931,81,-12.8174,-111.6943,22.3389,120,1.3146,1.0305,-31.6313,-29.3605,27,0.037,11990,3.9182,-176.9308
lg,1625251204829098689,0,1.1025,-0.7478,0.9438,82,4.9438,21.4844,25.6958,120,1.3146,1.0335,-30.8099,-29.7484,27,0.037,8113,3.9182,-176.2239
lg,1625251204829115819,0,0.4609,-0.7004,0.9651,83,18.9819,103.8818,12.8174,120,1.3156,1.0355,-26.5697,-28.3864,27,0.036,8899,3.9182,-177.8868
lg,1625251204829133208,0,0.3994,-0.4724,0.6907,84,28.4424,114.563,17.6392,120,1.3156,1.0365,-21.5337,-26.7589,27,0.039,8058,3.9182,-179.4441
lg,1625251204829151837,0,0.1182,-0.6355,0.8711,85,30.9448,85.5103,-3.418,120,1.3166,1.0335,-17.9453,-25.3271,27,0.039,8061,3.9182,-181.0245
lg,1625251204829169448,0,-0.1504,-0.7512,0.8335,86,60.3027,50.9644,-17.6392,120,1.3176,1.0205,-15.4342,-23.1532,27,0.038,9002,3.9182,-182.3438
lg,1625251204829187782,0,-0.248,-0.5706,0.7629,87,68.4814,9.0942,2.4414,120,1.3176,0.9905,-13.9444,-20.946,27,0.038,8637,3.9182,-182.2259
lg,1625251204829209837,0,-0.1475,-0.5132,0.7529,88,63.6597,-24.7192,13.6719,120,1.3166,0.9605,-13.8038,-19.1494,27,0.036,7989,3.9182,-181.2031
lg,1625251204829228708,0,0.3306,-0.5371,0.8625,89,46.1426,-78.9795,31.9214,120,1.3176,0.9395,-16.548,-18.4022,27,0.038,8193,3.9182,-178.7781
lg,1625251204829257856,0,0.7495,-0.4402,0.7383,90,41.0156,-77.9419,28.8696,120,1.3176,0.9275,-20.0883,-17.8323,27,0.036,8017,3.9182,-176.4944
lg,1625251204829276485,0,0.8511,-0.3596,0.7488,91,28.3813,-53.0396,22.7661,120,1.3156,0.9184,-22.8039,-17.5211,28,0.035,8182,3.9182,-174.7928
lg,1625251204829298171,0,0.6809,-0.4709,0.8425,92,-2.0752,8.1177,7.2632,120,1.3186,0.9194,-22.902,-18.0821,28,0.037,8056,3.9182,-174.4409
lg,1625251204829315319,0,0.4636,-0.3333,0.7607,93,-22.522,19.8364,-17.2729,120,1.3186,0.9375,-22.6156,-18.8036,28,0.039,10169,3.9182,-175.3436
lg,1625251204829332819,0,0.2107,-0.5144,0.7993,94,-41.9312,20.6299,-28.1372,120,1.3186,0.9575,-21.8386,-20.4974,28,0.037,8127,3.9182,-176.5733
lg,1625251204829356708,0,0.0601,-0.4158,0.7639,95,-45.5933,24.0479,-27.2217,120,1.3176,0.9795,-20.6469,-22.1156,28,0.038,8328,3.9182,-177.9218
lg,1625251204829374856,0,-0.1714,-0.4519,0.7781,96,-70.0684,-9.9487,-21.9116,120,1.3166,1.0015,-20.1778,-24.9847,28,0.038,8162,3.9182,-178.5224
lg,1625251205159389356,0,0.219,-0.6995,0.8047,97,-58.4717,-106.2622,-23.6206,120,1.3146,1.0235,-24.202,-24.9194,28,0.032,25161,3.9182,-178.3915
lg,1625251205159424133,0,0.2212,-0.5325,0.5842,98,22.7661,-65.979,-19.9585,120,1.3156,1.0245,-26.6169,-24.9135,28,0.035,8861,3.9182,-177.6599
lg,1625251205159444596,0,0.5195,-0.2925,0.6892,99,6.1035,-96.2524,-9.2163,120,1.3136,1.0265,-30.2,-26.0576,28,0.032,10442,3.9182,-175.7371
lg,1625251205159464318,0,0.8508,-0.6086,0.8977,100,-16.6016,-62.0728,13.3057,120,1.3156,1.0285,-31.0829,-27.561,28,0.031,7911,3.9182,-174.3323
lg,1625251205159483707,0,0.8091,-0.7344,0.9304,101,1.8311,19.2871,16.4795,120,1.3156,1.0305,-30.2329,-28.0187,28,0.033,8824,3.9182,-173.8665
lg,1625251205159502615,0,0.5232,-0.623,0.8198,102,15.3198,71.5942,22.9492,120,1.3156,1.0325,-27.1611,-27.4841,28,0.035,7672,3.9182,-174.2826
lg,1625251205159520504,0,0.3843,-0.5269,0.7698,103,13.7939,86.1816,22.0337,120,1.3156,1.0335,-23.5204,-26.8317,28,0.035,9029,3.9182,-175.0363
lg,1625251205159538781,0,0.2625,-0.5662,0.8191,104,13.0615,88.501,18.8599,120,1.3156,1.0335,-19.6906,-26.2657,28,0.035,7837,3.9182,-175.8897
lg,1625251205159556078,0,-0.0283,-0.7205,0.7852,105,22.522,70.1904,5.4932,120,1.3166,1.0275,-16.2887,-25.6956,28,0.038,7739,3.9182,-176.7489
lg,1625251205159573374,0,-0.1938,-0.6951,0.7683,106,37.4756,44.0063,-5.6763,120,1.3166,1.0115,-15.216,-24.3493,28,0.039,7787,3.9182,-176.9976
lg,1625251205159590707,0,-0.04,-0.6921,0.8623,107,46.3257,-25.2686,0.4272,120,1.3166,0.9855,-15.4722,-23.1994,28,0.035,7807,3.9182,-176.3962
lg,1625251205159609374,0,0.2031,-0.6221,0.7876,108,52.2461,-39.0015,16.9067,120,1.3176,0.9565,-16.5044,-22.0644,28,0.035,7614,3.9182,-174.9583
lg,1625251205159626707,0,0.468,-0.5317,0.7922,109,49.9878,-39.7339,25.2686,120,1.3166,0.9245,-18.1207,-21.3566,28,0.037,9098,3.9182,-172.9773
lg,1625251205159643781,0,0.624,-0.4509,0.6814,110,35.9497,-42.6025,27.0386,120,1.3176,0.9064,-20.0696,-20.88,28,0.036,7868,3.9182,-171.138
lg,1625251205159660133,0,0.7285,-0.387,0.7263,111,12.3901,-22.0337,13.9771,120,1.3166,0.9024,-21.5189,-20.9256,28,0.038,9951,3.9182,-170.1655
lg,1625251205159676393,0,0.6917,-0.4763,0.843,112,-2.9297,7.9956,-9.1553,120,1.3176,0.9134,-21.9038,-21.1503,27,0.039,7919,3.9182,-170.5497
lg,1625251205159693374,0,0.5645,-0.4714,0.7695,113,-9.4604,22.8271,-21.7285,120,1.3186,0.9345,-21.7765,-21.4367,27,0.038,7769,3.9182,-171.642
lg,1625251205159710041,0,0.25,-0.4197,0.7146,114,-23.4375,35.2173,-39.0015,120,1.3176,0.9585,-20.8563,-21.9598,27,0.039,7938,3.9182,-173.6253
lg,1625251205159727374,0,0.0195,-0.5642,0.7893,115,-43.9453,16.7236,-38.147,120,1.3176,0.9825,-20.0846,-23.6484,27,0.041,7788,3.9182,-175.2125
lg,1625251205159744189,0,-0.0557,-0.6182,0.8198,116,-49.8047,0.6714,-34.8511,120,1.3136,1.0085,-19.7625,-25.716,28,0.037,8024,3.9182,-176.3959
lg,1625251205159761318,0,0.0364,-0.8298,1.1819,117,-56.4575,-36.2549,-22.9492,120,1.3146,1.0185,-20.7547,-28.2885,28,0.037,8029,3.9182,-176.4472
lg,1625251205159778874,0,-0.1006,-0.5786,0.5718,118,-10.1318,-44.2505,-48.4619,120,1.3146,1.0215,-22.2549,-26.9436,28,0.038,8089,3.9182,-177.1284
lg,1625251205159796152,0,-0.113,-0.4221,0.6409,119,39.978,-54.3213,-28.4424,120,1.3136,1.0195,-23.5443,-25.5971,28,0.035,8099,3.9182,-177.0695
lg,1625251205159813541,0,0.3491,-0.1472,0.4858,120,23.8647,-122.1313,-4.8218,120,1.3156,1.0205,-28.4475,-25.2607,27,0.036,8138,3.9182,-175.0541
lg,1625251205159830596,0,0.9058,-0.5703,0.8047,121,-3.6621,-129.3335,3.418,120,1.3146,1.0255,-32.4824,-27.4057,27,0.037,8171,3.9182,-172.33
lg,1625251205159847207,0,0.9324,-0.6514,0.7983,122,-7.3853,-50.7812,13.855,120,1.3126,1.0255,-34.3876,-29.0668,27,0.036,8148,3.9182,-170.3618
lg,1625251205159863670,0,0.5381,-0.6038,0.8306,123,0,26.7944,17.8833,120,1.3156,1.0285,-32.8422,-29.4167,27,0.037,8384,3.9182,-170.083
lg,1625251205159880300,0,0.5669,-0.6047,0.8462,124,2.9907,26.2451,24.9634,120,1.3146,1.0305,-31.2715,-29.7592,28,0.037,8181,3.9182,-169.5405
lg,1625251205159896967,0,0.6721,-0.604,0.8379,125,4.8218,31.8604,26.4893,120,1.3146,1.0315,-29.713,-29.9577,28,0.036,8211,3.9182,-169.0968
lg,1625251205159913430,0,0.4683,-0.7117,0.9194,126,17.0898,70.4346,24.231,120,1.3146,1.0295,-26.4956,-29.2975,28,0.037,8217,3.9182,-169.5676
lg,1625251205159930911,0,0.1538,-0.6602,0.823,127,40.6494,76.7822,11.4746,120,1.3166,1.0175,-22.8924,-27.5919,28,0.04,8277,3.9182,-170.5479
lg,1625251205159950930,0,-0.0525,-0.689,0.8145,128,50.415,59.3872,-1.3428,120,1.3176,0.9975,-20.7226,-25.3623,27,0.038,8742,3.9182,-171.2331
lg,1625251205512924985,0,0.313,-0.5261,0.8037,129,48.0347,-35.8887,24.353,120,1.3166,0.9194,-21.5069,-24.3309,27,0.034,24672,3.9182,-169.5256
lg,1625251205512962763,0,0.7151,-0.3093,0.6602,130,23.7427,-42.4805,28.1372,120,1.3166,0.9134,-22.8647,-24.6187,27,0.033,10177,3.9182,-168.2121
lg,1625251205512982763,0,0.675,-0.3669,0.7651,131,-1.5259,31.6162,0.3052,120,1.3166,0.9255,-22.3206,-24.492,27,0.037,10738,3.9182,-168.7624
lg,1625251205513001670,0,0.5027,-0.3518,0.72,132,-16.1133,42.9077,-15.5029,120,1.3176,0.9445,-21.4045,-24.6709,27,0.04,7484,3.9182,-170.123
lg,1625251205513019837,0,0.1985,-0.4434,0.7554,133,-40.5884,32.5317,-37.7808,120,1.3166,0.9685,-20.5336,-25.7812,28,0.041,7440,3.9182,-172.1007
lg,1625251205513037578,0,0.061,-0.5132,0.8621,134,-47.6074,18.4326,-37.1704,120,1.3166,0.9945,-20.4039,-27.7583,28,0.038,7709,3.9182,-173.4016
lg,1625251205513055096,0,-0.0764,-0.6743,0.8867,135,-60.4858,-14.8926,-32.7759,120,1.3146,1.0125,-20.6261,-30.233,28,0.036,7487,3.9182,-174.198
lg,1625251205513072948,0,-0.0557,-1.2634,1.4111,136,-27.2827,-45.9595,-48.0347,120,1.3146,1.0205,-22.3298,-31.5223,28,0.035,8352,3.9182,-174.7887
lg,1625251205513089985,0,-0.0344,-0.8474,0.739,137,41.0767,-51.3916,-60.791,120,1.3146,1.0215,-23.9624,-29.9368,27,0.035,8375,3.9182,-174.6917
lg,1625251205513107578,0,0.0466,-0.3889,0.6589,138,60.1807,-67.3218,-26.3672,120,1.3146,1.0235,-26.0191,-27.7386,27,0.032,7758,3.9182,-174.2463
lg,1625251205513124485,0,0.615,-0.0452,0.5198,139,25.7568,-91.6138,-2.9297,120,1.3156,1.0245,-30.2609,-26.9018,27,0.033,7821,3.9182,-172.7474
lg,1625251205513142133,0,0.7874,-0.3345,0.8142,140,-4.3335,-64.9414,3.8452,120,1.3146,1.0255,-32.9344,-27.7285,27,0.032,7901,3.9182,-171.2623
lg,1625251205513158744,0,0.7004,-0.5518,0.8083,141,-2.1362,15.0146,16.9678,120,1.3156,1.0285,-32.1912,-28.2599,27,0.033,8054,3.9677,-170.7533
lg,1625251205513175596,0,0.5754,-0.5708,0.8762,142,-7.9346,40.3442,19.043,120,1.3166,1.0295,-30.2798,-28.7021,27,0.031,7898,3.9677,-170.7743
lg,1625251205513191837,0,0.6394,-0.626,0.917,143,-7.3242,41.2598,18.1274,120,1.3156,1.0295,-28.4758,-29.1146,27,0.033,7884,3.9677,-170.8574
lg,1625251205513208022,0,0.459,-0.8047,1.0281,144,7.6904,66.5283,18.3716,120,1.3166,1.0305,-25.4516,-28.8442,27,0.033,7963,3.9677,-171.4116
lg,1625251205513225485,0,0.2866,-0.668,0.9363,145,22.583,73.1201,19.7144,120,1.3176,1.0255,-22.1465,-27.6303,28,0.034,7986,3.9677,-172.4515
lg,1625251205513241818,0,0.1543,-0.6777,0.8982,146,32.3486,73.4863,3.7842,120,1.3156,1.0155,-18.9167,-26.2793,28,0.039,7991,3.9677,-173.5807
lg,1625251205513258652,0,-0.1274,-0.6575,0.7786,147,61.2793,39.6118,-15.2588,120,1.3176,0.9835,-16.7734,-24.0097,28,0.036,7998,3.9677,-174.6646
lg,1625251205513275392,0,-0.0847,-0.5947,0.8069,148,61.8286,14.7095,-3.3569,120,1.3186,0.9525,-16.1103,-22.1453,28,0.036,7794,3.9677,-174.1478
lg,1625251205513292152,0,0.0862,-0.5212,0.7815,149,55.6641,-18.5547,15.8081,120,1.3176,0.9144,-16.1504,-20.642,28,0.034,8038,3.9677,-173.1157
lg,1625251205513311911,0,0.3882,-0.5725,0.8838,150,47.4854,-47.4854,30.4565,120,1.3156,0.8824,-17.6767,-19.7641,28,0.035,9771,3.9677,-171.1032
lg,1625251205513329152,0,0.6672,-0.3022,0.6506,151,46.1426,-50.6592,19.104,120,1.3176,0.8644,-20.5745,-18.1539,28,0.035,11628,3.9677,-169.7342
lg,1625251205513346226,0,0.7991,-0.4199,0.8713,152,-4.7607,-18.4937,5.6152,120,1.3176,0.8714,-21.9387,-18.7617,28,0.036,7966,3.9677,-169.1637
lg,1625251205513362615,0,0.7231,-0.1699,0.6711,153,-13.916,21.7285,-13.7329,120,1.3176,0.8964,-22.2254,-18.8528,27,0.038,8155,3.9677,-170.0811
lg,1625251205513379133,0,0.4565,-0.3848,0.7698,154,-40.5884,36.377,-29.48,120,1.3176,0.9265,-21.4783,-20.1149,27,0.039,7989,3.9677,-171.6927
lg,1625251205513395689,0,0.0249,-0.415,0.7844,155,-54.2603,41.0767,-45.105,120,1.3176,0.9595,-19.8247,-21.7393,27,0.038,8200,3.9677,-174.0139
lg,1625251205513411800,0,-0.3887,-0.7036,1.0017,156,-68.4814,0.9155,-36.499,120,1.3156,0.9905,-18.9994,-24.5029,27,0.034,8519,3.9677,-175.3061
lg,1625251205513428207,0,-0.1472,-1.0598,1.3989,157,-66.1621,-50.293,-30.3955,120,1.3156,1.0055,-21.4995,-27.4353,27,0.031,8471,3.9677,-174.6156
lg,1625251205513444892,0,-0.0791,-0.8318,0.9094,158,4.6387,-99.1821,-39.3677,120,1.3146,1.0105,-24.7835,-28.0731,27,0.032,8371,3.9677,-173.8851
lg,1625251205513460892,0,0.2507,-0.3877,0.6936,159,26.8555,-97.3511,-0.1831,120,1.3166,1.0135,-27.9135,-27.9455,27,0.034,8329,3.9677,-171.8267
lg,1625251205513477744,0,0.8235,-0.2593,0.6841,160,-0.2441,-110.7178,17.7002,120,1.3166,1.0155,-32.2313,-29.3252,27,0.034,8289,3.9677,-168.744
lg,1625251205868262355,0,0.6035,-0.7031,0.9563,161,-0.1831,42.3584,24.292,120,1.3166,1.0195,-30.0782,-29.6192,27,0.034,24201,3.9677,-168.584
lg,1625251205868297966,0,0.4768,-0.6838,0.9011,162,9.8267,52.3682,22.4609,120,1.3166,1.0195,-27.5402,-29.3962,27,0.034,8438,3.9677,-168.7186
lg,1625251205868318429,0,0.4001,-0.6111,0.8408,163,21.0571,59.6924,21.9116,120,1.3176,1.0165,-24.7827,-28.6286,27,0.033,11771,3.9677,-169.0349
lg,1625251205868338207,0,0.1689,-0.6809,0.8474,164,35.8276,60.1807,12.5732,120,1.3186,1.0015,-21.8192,-27.3309,27,0.038,9973,3.9677,-169.5982
lg,1625251205868357022,0,-0.0237,-0.6196,0.7952,165,63.9038,29.2358,-2.9907,120,1.3186,0.9745,-19.9487,-24.9918,27,0.036,7702,3.9677,-170.0814
lg,1625251205868375429,0,-0.0256,-0.5662,0.7388,166,65.3687,11.5967,2.0142,120,1.3176,0.9415,-18.7932,-22.8086,28,0.037,7732,3.9677,-170.0303
lg,1625251205868393096,0,0.1555,-0.5486,0.761,167,56.2134,-32.5928,13.6719,120,1.3186,0.9104,-19.4357,-21.4409,28,0.036,8011,3.9677,-168.7968
lg,1625251205868411207,0,0.4941,-0.3445,0.7253,168,47.2412,-53.5889,26.6113,120,1.3176,0.9024,-21.5246,-20.35,28,0.034,7378,3.9677,-166.8761
lg,1625251205868429114,0,1.0081,-0.2185,0.8667,169,12.085,-49.9268,15.1367,120,1.3186,0.9114,-24.203,-20.2179,28,0.036,8036,3.9677,-165.5753
lg,1625251205868446762,0,1.0859,-0.416,0.8667,170,-4.8828,-14.0991,-1.2817,120,1.3166,0.9325,-25.6756,-20.6348,28,0.038,8429,3.9677,-165.3447
lg,1625251205868463577,0,0.449,-0.3843,0.7432,171,-21.2402,81.2988,-28.5034,120,1.3176,0.9565,-23.1494,-20.726,28,0.039,7717,3.9677,-167.6723
lg,1625251205868481466,0,0.1345,-0.1921,0.6782,172,-26.9165,89.2334,-34.0576,120,1.3166,0.9835,-20.3361,-21.8899,28,0.037,7468,3.9677,-170.4374
lg,1625251205868499392,0,-0.2512,-0.541,0.8445,173,-65.3687,23.7427,-49.3164,120,1.3156,1.0075,-19.7868,-24.9173,27,0.033,7996,3.9677,-171.7981
lg,1625251205868517244,0,-0.0505,-0.8513,1.291,174,-62.0117,-38.0249,-34.0576,120,1.3146,1.0145,-20.8626,-27.892,27,0.035,8556,3.9677,-172.1546
lg,1625251205868537133,0,-0.0535,-0.6851,0.7156,175,29.541,-52.5513,-37.9639,120,1.3156,1.0155,-22.5266,-27.2267,27,0.033,7966,3.9677,-172.3085
lg,1625251205868555300,0,0.0449,-0.0984,0.5474,176,38.3911,-90.1489,-10.3149,120,1.3156,1.0165,-25.2556,-25.5145,27,0.033,7933,3.9677,-171.226
lg,1625251205868572966,0,0.4045,0.0173,0.4385,177,17.6392,-111.5112,11.5967,90,1.3166,1.0185,-29.1516,-27.5561,27,0.032,8125,3.9677,-168.252
lg,1625251205868590244,0,0.9775,-0.6006,1.0166,178,-26.9775,-81.1768,24.7803,90,1.3156,1.0205,-31.905,-30.1735,27,0.033,7919,3.9677,-165.3584
lg,1625251205868607151,0,0.876,-0.7327,0.9612,179,-5.7983,13.855,22.4609,90,1.3166,1.0235,-31.1318,-30.9665,27,0.034,8789,3.9677,-164.6437
lg,1625251205868624503,0,0.4673,-0.6604,0.9617,180,4.4556,56.5186,4.6387,90,1.3156,1.0255,-28.7322,-30.3573,27,0.035,8344,3.9677,-165.7198
lg,1625251205868641225,0,0.3523,-0.6426,0.8713,181,14.5264,59.9365,7.5684,90,1.3156,1.0255,-26.0933,-29.5423,28,0.036,8022,3.9677,-166.6539
lg,1625251205868658355,0,0.2739,-0.6228,0.8538,182,22.2778,40.6494,2.0752,90,1.3176,1.0225,-24.1852,-28.5887,28,0.032,8069,3.9677,-167.3252
lg,1625251205868675040,0,0.116,-0.7849,0.8474,183,48.4009,27.4048,-10.1929,90,1.3186,1.0105,-22.7175,-26.8828,28,0.038,8060,3.9677,-168.0173
lg,1625251205868692059,0,0.0535,-0.6555,0.7893,184,62.1948,18.9819,-8.5449,90,1.3176,0.9835,-21.4403,-24.6863,28,0.035,8071,3.9677,-168.4815
lg,1625251205868709540,0,0.0681,-0.5786,0.7981,185,57.312,-16.7236,4.5166,90,1.3196,0.9585,-21.3084,-23.0437,27,0.037,7938,3.9677,-167.8287
lg,1625251205868726985,0,0.6455,-0.1335,0.7097,186,30.5176,-64.6973,22.2778,90,1.3196,0.9525,-24.1439,-22.1873,27,0.034,8139,3.9677,-166.0083
lg,1625251205868743744,0,1.0962,-0.606,0.9199,187,-0.3662,-64.27,20.1416,90,1.3196,0.9745,-26.0101,-23.5524,27,0.037,8417,3.9677,-164.7426
lg,1625251205868760022,0,1.0046,-0.6306,0.7112,188,-10.6201,10.6812,-1.3428,90,1.3176,0.9955,-26.4654,-24.4006,27,0.037,8190,3.9677,-164.7503
lg,1625251205868776837,0,0.2805,-0.2878,0.7175,189,-19.4702,79.4678,-24.1089,90,1.3186,1.0135,-23.7129,-24.0426,28,0.041,8067,3.9677,-167.2153
lg,1625251205868793707,0,-0.0935,-0.6313,0.8967,190,-43.2129,35.6445,-44.5557,90,1.3176,1.0235,-22.0911,-25.2913,28,0.035,8245,3.9677,-169.4429
lg,1625251205868810522,0,-0.1169,-0.9082,1.167,191,-37.5977,20.813,-43.1519,90,1.3176,1.0265,-21.098,-26.5513,28,0.034,8238,3.9677,-171.316
lg,1625251205868827337,0,-0.2004,-0.5859,0.6829,192,26.6724,4.1504,-29.2969,90,1.3176,1.0255,-20.2282,-25.6374,28,0.032,8357,3.9677,-172.2992
lg,1625251206214196873,0,0.7568,-0.6272,0.7422,193,-33.1421,-129.3945,36.6211,90,1.3186,1.0315,-24.7996,-29.0087,28,0.031,24469,3.9677,-168.5789
lg,1625251206214276522,0,1.176,-0.5632,1.0344,194,6.7139,-87.1582,27.0386,90,1.3176,1.0335,-28.0464,-30.3293,27,0.032,9580,3.9677,-165.4783
lg,1625251206214309429,0,0.4807,-0.5466,0.8469,195,32.1045,41.626,-2.8687,90,1.3186,1.0345,-26.5549,-28.6675,27,0.035,13026,3.9677,-166.4713
lg,1625251206214338985,0,0.1575,-0.6426,0.8787,196,32.4707,26.1841,-10.437,90,1.3196,1.0305,-25.1208,-27.2792,27,0.038,9974,3.9677,-167.2745
lg,1625251206214368096,0,0.1157,-0.7292,0.8862,197,39.3066,9.9487,-14.8315,90,1.3196,1.0225,-24.6069,-25.6985,27,0.037,7671,3.9677,-167.2679
lg,1625251206214394836,0,0.1082,-0.7026,0.8508,198,59.3262,-11.6577,3.6621,90,1.3196,1.0085,-24.2518,-24.0755,27,0.038,7781,3.9677,-166.6465
lg,1625251206214422873,0,0.2258,-0.5796,0.7644,199,59.8755,-48.4009,15.8081,90,1.3196,0.9935,-25.3545,-22.8598,27,0.035,7661,3.9677,-164.924
lg,1625251206214450688,0,0.4121,-0.5015,0.7417,200,51.7578,-62.1948,23.8037,90,1.3206,0.9875,-27.2632,-22.143,27,0.034,7547,3.9677,-162.6862
lg,1625251206214476910,0,0.7766,-0.6082,0.9463,201,37.1704,-68.6646,20.5078,90,1.3206,0.9915,-29.7847,-22.0203,27,0.037,8581,3.9677,-160.464
lg,1625251206214502818,0,0.9014,-0.3865,0.6997,202,51.0254,-19.8364,3.9673,90,1.3186,0.9985,-31.186,-20.4408,27,0.038,7826,3.9677,-159.8676
lg,1625251206214535114,0,0.7444,-0.2166,0.6167,203,46.0815,13.9771,-8.2397,90,1.3196,1.0075,-31.4437,-18.2553,27,0.035,7799,3.9677,-160.486
lg,1625251206214563614,0,0.3179,-0.2312,0.5593,204,13.6719,45.0439,-21.1182,90,1.3206,1.0185,-29.8391,-17.0756,27,0.038,7882,3.9677,-161.9715
lg,1625251206214588596,0,0.0891,-0.3401,0.6592,205,-15.1978,22.7051,-19.3481,90,1.3176,1.0275,-28.3313,-17.5698,27,0.036,10821,3.9677,-162.9047
lg,1625251206214616355,0,-0.0625,-0.3499,0.665,206,-18.5547,3.3569,-8.2397,90,1.3196,1.0305,-27.0788,-18.5639,27,0.042,7831,3.9677,-163.103
lg,1625251206214642318,0,-0.1609,-0.2905,0.7161,207,-23.0713,-10.7422,0.8545,90,1.3186,1.0315,-26.0475,-19.711,27,0.037,7842,3.9677,-162.8556
lg,1625251206214673485,0,-0.0605,-0.4255,0.7954,208,-41.0156,-70.9229,23.8037,90,1.3196,1.0305,-27.2073,-22.6576,27,0.036,8089,3.9677,-160.58
lg,1625251206214731929,0,0.3374,-0.561,0.8386,209,-53.3447,-115.2344,40.1611,90,1.3186,1.0355,-30.351,-27.1109,27,0.034,7886,3.9677,-156.4964
lg,1625251206214767559,0,0.3689,-0.7727,1.0032,210,-53.9551,-119.4458,41.9922,90,1.3166,1.0345,-33.103,-32.0696,27,0.025,7982,3.9677,-151.7893
lg,1625251206214796873,0,0.6416,-0.8691,1.228,211,-35.0952,-127.2583,19.165,90,1.3176,1.0355,-36.4624,-36.0162,27,0.03,8110,3.9677,-147.4751
lg,1625251206214826244,0,0.6433,-0.8525,0.8979,212,27.1606,-77.9419,15.625,90,1.3186,1.0375,-38.2227,-37.0541,27,0.031,8092,3.9677,-144.3089
lg,1625251206214856855,0,0.5742,-0.8584,0.999,213,34.3018,-64.8193,6.4697,90,1.3166,1.0365,-39.5363,-37.2756,27,0.03,8050,3.9677,-141.9236
lg,1625251206214881966,0,0.6318,-0.8037,0.8621,214,69.5801,-56.8848,-2.2583,90,1.3186,1.0375,-40.9555,-35.8452,27,0.03,8042,3.9677,-140.0649
lg,1625251206214906985,0,0.7073,-0.2856,0.5437,215,85.8154,-13.5498,5.7373,90,1.3186,1.0355,-41.5847,-32.5606,27,0.031,8073,3.9677,-139.6104
lg,1625251206214933447,0,0.7668,-0.1533,0.5205,216,74.3408,10.8643,9.8267,90,1.3186,1.0385,-41.5239,-29.2967,27,0.032,8136,3.9677,-139.7414
lg,1625251206214961225,0,0.751,-0.2637,0.6204,217,44.2505,70.7397,12.2681,90,1.3166,1.0405,-39.0632,-26.5445,27,0.033,8151,3.9677,-141.08
lg,1625251206214987966,0,0.5271,-0.4158,0.7375,218,29.541,123.23,12.2681,90,1.3186,1.0395,-34.1403,-24.2406,28,0.033,8153,3.9677,-143.0947
lg,1625251206215019244,0,0.4009,-0.4558,0.7866,219,28.9917,130.3101,7.2021,90,1.3186,1.0435,-28.2256,-22.2183,28,0.034,8161,3.9677,-144.9908
lg,1625251206215047188,0,-0.0081,-0.5764,0.8411,220,50.354,124.3286,14.1602,90,1.3196,1.0425,-24.0485,-19.5485,28,0.038,8135,3.9677,-146.1614
lg,1625251206215072985,0,-0.0024,-0.6865,0.855,221,49.4385,53.1616,-15.3198,90,1.3196,1.0385,-21.8656,-17.7332,28,0.038,8976,3.9677,-147.0262
lg,1625251206215098744,0,0.0413,-0.626,0.8618,222,66.9556,23.9868,-16.4795,90,1.3196,1.0295,-20.4183,-15.4771,28,0.037,8417,3.9677,-147.6977
lg,1625251206215125151,0,0.0532,-0.4692,0.8157,223,80.1392,9.0332,-3.9673,90,1.3206,1.0155,-19.4631,-12.7975,28,0.039,8530,3.9677,-147.7287
lg,1625251206215153262,0,0.1357,-0.4121,0.7952,224,78.4912,-16.9678,10.376,90,1.3196,0.9985,-19.6377,-10.462,28,0.036,8320,3.9677,-146.9416
lg,1625251206557608262,0,0.7283,-0.3159,0.8374,225,40.8936,-56.5796,-3.2349,90,1.3196,0.9945,-22.6418,-9.261,28,0.036,23411,3.9677,-146.5577
lg,1625251206557650651,0,0.8589,-0.1482,0.605,226,30.4565,-21.9116,-30.7617,90,1.3196,1.0155,-24.8644,-7.673,28,0.037,9106,3.9677,-147.7213
lg,1625251206557671318,0,0.5364,0.0115,0.624,227,-19.7754,28.7476,-59.8755,90,1.3176,1.0265,-24.6527,-7.0064,28,0.035,7862,3.9677,-150.6279
lg,1625251206557691577,0,-0.0911,-1.02,1.4644,228,-43.8843,29.6021,-80.2612,90,1.3186,1.0325,-22.9646,-8.4312,28,0.034,10230,3.9677,-153.8056
lg,1625251206557710725,0,-0.0764,-0.8318,1.0583,229,44.1284,-37.7197,-110.1074,90,1.3196,1.0335,-24.1311,-6.0817,28,0.034,7830,3.9677,-157.8616
lg,1625251206557729021,0,-0.1765,-0.9819,1.0842,230,61.0352,-58.6548,-115.1733,90,1.3196,1.0325,-25.8466,-3.0697,28,0.034,7689,3.9677,-162.0891
lg,1625251206557747132,0,0.0857,-0.3586,0.6118,231,119.6289,-112.3047,-85.2661,90,1.3196,1.0325,-29.7277,2.2944,27,0.036,7731,3.9677,-165.3614
lg,1625251206557765577,0,0.2935,-0.031,0.4043,232,118.4082,-121.0327,-74.0967,90,1.3196,1.0325,-34.3342,8.8503,27,0.035,8098,3.9677,-169.1331
lg,1625251206557783521,0,0.3936,-0.0173,0.5808,233,67.0166,-63.7817,-41.5649,90,1.3196,1.0335,-35.5466,10.6772,27,0.034,10515,3.9677,-170.3989
lg,1625251206557801577,0,0.4131,-0.2148,0.7258,234,19.165,-26.3672,-16.7847,90,1.3186,1.0325,-36.2985,10.9352,28,0.034,8082,3.9677,-170.798
lg,1625251206557826688,0,0.573,-0.2974,0.7952,235,20.1416,-17.334,-16.0522,90,1.3186,1.0335,-36.918,11.0784,28,0.034,8029,3.9677,-171.017
lg,1625251206557845392,0,0.249,-0.6113,1.2427,236,29.4189,-3.479,-40.1611,90,1.3196,1.0355,-35.9889,11.7456,28,0.035,7867,3.9677,-171.9839
lg,1625251206557863207,0,0.2515,-0.3013,0.7388,237,64.6973,-25.8789,-52.9785,90,1.3176,1.0355,-36.019,14.4895,28,0.035,7939,3.9677,-173.9276
lg,1625251206557880058,0,0.2407,-0.1658,0.8726,238,69.0918,-62.7441,-71.5332,90,1.3196,1.0375,-36.9257,18.6147,28,0.033,7890,3.9677,-177.5125
lg,1625251206557897188,0,0.25,-0.2603,0.9358,239,73.6084,-76.7822,-81.7871,90,1.3196,1.0385,-38.0297,23.5648,28,0.037,7945,3.9677,-181.9719
lg,1625251206557913707,0,0.2666,-0.2168,0.9102,240,92.5903,-80.6885,-86.0596,90,1.3196,1.0355,-38.8289,29.1388,28,0.039,7943,3.9677,-186.6697
lg,1625251206557930632,0,0.2139,-0.1836,0.8975,241,107.3608,-92.2241,-87.0972,90,1.3226,1.0365,-39.4631,35.5274,28,0.038,7964,3.9677,168.2044
lg,1625251206557947632,0,0.2686,-0.1072,0.8345,242,110.9009,-102.1118,-83.6792,90,1.3226,1.0345,-40.62,42.49,28,0.036,8020,3.9677,162.5806
lg,1625251206557964595,0,0.5884,0.012,0.8042,243,109.1309,-117.6758,-68.6035,90,1.3216,1.0365,-42.0446,49.8833,28,0.037,12533,3.9677,156.5698
lg,1625251206557981336,0,0.6711,0.0381,0.8284,244,107.605,-108.8867,-74.3408,90,1.3216,1.0365,-42.5279,57.2277,28,0.036,8298,3.9677,150.601
lg,1625251206557998373,0,0.6917,0.1299,0.7349,245,106.2012,-101.0132,-77.2095,90,1.3216,1.0365,-42.0817,64.4018,28,0.033,8274,3.9677,144.9024
lg,1625251206558014818,0,0.6523,0.1733,0.7874,246,88.6841,-88.6841,-82.2144,90,1.3206,1.0375,-40.7858,70.1059,27,0.038,8083,3.9677,140.0824
lg,1625251206558032836,0,0.6052,0.1301,0.8022,247,75.9277,-79.7119,-83.5571,90,1.3206,1.0385,-39.0535,74.4633,27,0.037,8065,3.9677,136.1525
lg,1625251206558050929,0,0.5759,0.1355,0.7827,248,71.106,-77.3315,-82.2754,90,1.3206,1.0385,-37.2474,77.8858,27,0.035,8178,3.9677,132.818
lg,1625251206558068540,0,0.5398,0.1223,0.8071,249,60.791,-73.4253,-76.6602,90,1.3216,1.0395,-35.3967,80.6594,27,0.036,8121,3.9677,129.866
lg,1625251206558085540,0,0.5312,0.0979,0.8372,250,54.0771,-73.2422,-66.6504,90,1.3196,1.0405,-33.8773,82.8437,28,0.036,9290,3.9677,127.1847
lg,1625251206558103151,0,0.583,0.0947,0.8159,251,51.1475,-77.7588,-56.1523,90,1.3196,1.0425,-32.8353,84.929,28,0.036,8411,3.9677,124.3987
lg,1625251206558121151,0,0.6152,0.1091,0.8164,252,49.7437,-76.2329,-51.1475,90,1.3216,1.0435,-32.1393,86.7491,28,0.038,8220,3.9677,121.9225
lg,1625251206558138373,0,0.6667,0.1365,0.7666,253,49.1943,-70.0073,-44.0674,90,1.3186,1.0445,-31.544,88.521,27,0.038,8271,3.9677,119.5959
lg,1625251206558155299,0,0.7144,0.1968,0.7327,254,39.856,-71.6553,-40.4053,90,1.3206,1.0455,-31.0538,90.0101,27,0.037,8360,3.9677,117.192
lg,1625251206558172058,0,0.802,0.1333,0.7512,255,27.1606,-69.0308,-40.9546,90,1.3196,1.0455,-30.6671,90.9357,27,0.039,8269,3.9677,114.926
lg,1625251206558189132,0,0.856,0.0881,0.7773,256,23.7427,-61.8896,-41.8701,90,1.3196,1.0455,-30.3102,91.5436,27,0.038,8349,3.9677,113.0105
lg,1625251206906932984,0,0.8474,-0.0105,0.8328,257,32.4707,-19.5923,-54.6265,90,1.3166,1.0425,-29.544,91.4098,27,0.041,24361,3.9655,113.1236
lg,1625251206906971910,0,0.8459,-0.0977,0.8967,258,44.6777,-10.8032,-60.73,90,1.3146,1.0415,-28.5766,91.5114,27,0.041,9207,3.9655,113.649
lg,1625251206906992243,0,0.8611,-0.1343,0.968,259,62.9272,-6.958,-72.0825,90,1.3136,1.0405,-27.1565,92.2163,28,0.042,13518,3.9655,114.365
lg,1625251206907011466,0,0.8555,-0.1692,1.0359,260,81.4819,3.479,-80.3833,90,1.3136,1.0405,-25.4149,93.3988,28,0.041,7820,3.9655,115.5833
lg,1625251206907029595,0,0.8306,-0.1902,1.0725,261,104.126,17.2119,-83.4351,90,1.3136,1.0405,-23.5957,95.203,28,0.042,9288,3.9655,117.4415
lg,1625251206907047780,0,0.8145,-0.1694,1.071,262,113.7695,24.7192,-85.3882,90,1.3126,1.0405,-21.7712,97.2775,28,0.04,7861,3.9655,119.6683
lg,1625251206907065540,0,0.739,-0.1355,1.0898,263,133.4229,28.7476,-87.9517,90,1.3126,1.0405,-19.8564,100.0289,27,0.041,7768,3.9655,122.1614
lg,1625251206907083299,0,0.7617,0.0125,0.9614,264,153.6255,20.2637,-93.1396,90,1.3126,1.0405,-17.845,103.7886,27,0.042,8849,3.9655,124.4133
lg,1625251206907101151,0,0.8291,0.2244,0.7793,265,153.5034,13.855,-100.0977,90,1.3126,1.0405,-15.711,107.7849,27,0.041,10554,3.9655,126.5812
lg,1625251206907118892,0,0.8003,0.2708,0.7649,266,147.2168,25.0854,-101.6846,90,1.3116,1.0405,-13.922,110.9818,28,0.041,7878,3.9655,129.9026
lg,1625251206907136243,0,0.6895,0.2876,0.7822,267,138.0005,47.1191,-99.3042,90,1.3116,1.0405,-12.4203,113.9364,28,0.041,7907,3.9655,133.66
lg,1625251206907153892,0,0.5964,0.2559,0.8035,268,144.043,51.5137,-97.4121,90,1.3116,1.0395,-11.1519,117.073,28,0.041,7926,3.9655,137.6536
lg,1625251206907170725,0,0.5923,0.2661,0.7546,269,153.1372,54.1992,-93.6279,90,1.3106,1.0395,-10.2682,120.631,28,0.042,7927,3.9655,141.7534
lg,1625251206907187429,0,0.5354,0.4263,0.6216,270,161.9263,57.6782,-89.6606,90,1.3096,1.0395,-9.7954,124.5409,27,0.042,7970,3.9655,145.9863
lg,1625251206907207336,0,0.5186,0.5396,0.5225,271,149.4751,57.4951,-79.5288,90,1.3086,1.0385,-9.8295,128.0066,27,0.042,10800,3.9655,150.063
lg,1625251206907225336,0,0.5383,0.5146,0.573,272,126.6479,63.1714,-71.9604,90,1.3096,1.0395,-10.4842,130.5003,27,0.041,7968,3.9655,154.2003
lg,1625251206907242280,0,0.5254,0.4758,0.6179,273,118.6523,64.0259,-70.7397,90,1.3086,1.0385,-11.3454,132.4984,27,0.042,8041,3.9655,158.3359
lg,1625251206907259040,0,0.4922,0.3911,0.7251,274,118.1641,61.7676,-65.0024,90,1.3076,1.0395,-12.4175,134.534,27,0.041,8053,3.9655,162.3576
lg,1625251206907275503,0,0.5723,0.3999,0.7458,275,128.6011,60.1807,-59.021,90,1.3086,1.0395,-13.874,137.0343,27,0.041,8082,3.9655,166.1905
lg,1625251206907292095,0,0.6101,0.4087,0.7393,276,132.8735,62.8662,-58.6548,90,1.3086,1.0395,-15.6805,139.7617,27,0.041,8062,3.9655,170.2503
lg,1625251206907309058,0,0.5776,0.437,0.769,277,140.5029,68.4204,-61.1572,90,1.3076,1.0395,-17.6693,142.4314,27,0.04,8101,3.9655,-185.4962
lg,1625251206907326354,0,0.4863,0.4443,0.7852,278,148.1934,70.0073,-64.3921,90,1.3096,1.0395,-19.6932,145.1526,28,0.039,8135,3.9655,-180.9971
lg,1625251206907342854,0,0.4539,0.4487,0.7732,279,151.9165,68.2373,-64.8804,90,1.3096,1.0405,-21.6603,148.1101,28,0.039,8145,3.9655,-176.541
lg,1625251206907359632,0,0.4167,0.4753,0.7559,280,161.5601,60.5469,-63.9648,90,1.3086,1.0405,-23.7048,151.1362,28,0.04,8559,3.9655,-172.1149
lg,1625251206907376280,0,0.4187,0.541,0.7056,281,167.1143,53.3447,-62.3779,90,1.3086,1.0405,-25.7,154.2839,28,0.041,9649,3.9655,-167.799
lg,1625251206907393392,0,0.4358,0.616,0.6089,282,165.5273,51.0864,-61.7065,90,1.3096,1.0405,-27.7792,157.2022,27,0.041,8152,3.9655,-163.4381
lg,1625251206907410484,0,0.4321,0.6895,0.5762,283,162.7197,51.0864,-61.8286,90,1.3096,1.0385,-29.987,159.6194,27,0.041,8136,3.9655,-158.9586
lg,1625251206907427503,0,0.4006,0.7231,0.5332,284,152.0386,51.8188,-60.8521,90,1.3076,1.0395,-32.238,161.5626,27,0.041,8146,3.9655,-154.3228
lg,1625251206907444169,0,0.3828,0.7712,0.5249,285,136.2915,49.6216,-60.1196,90,1.3096,1.0415,-34.4342,162.6693,27,0.041,8355,3.9655,-149.5641
lg,1625251206907460521,0,0.353,0.802,0.5068,286,118.3472,46.6919,-59.082,90,1.3096,1.0405,-36.4843,162.8462,28,0.04,8268,3.9655,-144.673
lg,1625251206907477151,0,0.3413,0.8386,0.5203,287,108.5205,44.3115,-59.082,90,1.3076,1.0405,-38.3873,162.3981,28,0.04,8324,3.9655,-139.5873
lg,1625251206907493447,0,0.2981,0.8796,0.5454,288,90.8203,41.0156,-56.7017,90,1.3086,1.0385,-40.0472,161.0685,28,0.039,8343,3.9655,-134.4123
lg,1625251207262482928,0,0.2637,0.9319,0.5671,289,58.7158,27.4658,-52.9175,90,1.3096,1.0415,-40.9659,158.256,27,0.04,24624,3.9655,-129.5513
lg,1625251207262516836,0,0.2434,0.9475,0.606,290,37.1094,18.9209,-48.0957,90,1.3106,1.0415,-41.5,154.9605,27,0.04,12213,3.9655,-124.8517
lg,1625251207262536780,0,0.2261,0.9519,0.5996,291,24.0479,14.9536,-44.3115,88,1.3106,1.0415,-41.7123,151.2535,27,0.04,10263,3.9655,-120.3672
lg,1625251207262555428,0,0.2107,0.9548,0.582,292,11.8408,9.0942,-40.4663,88,1.3096,1.0415,-41.5382,147.2762,27,0.039,7625,3.9655,-116.226
lg,1625251207262573502,0,0.2056,0.9526,0.5894,293,7.0801,5.6763,-37.4146,88,1.3096,1.0415,-41.1144,143.3283,27,0.04,7611,3.9655,-112.4014
lg,1625251207262591836,0,0.1965,0.928,0.5874,294,-4.8218,-0.7324,-32.5317,88,1.3106,1.0415,-40.4276,139.276,27,0.04,7657,3.9655,-109.1117
lg,1625251207262610039,0,0.176,0.9255,0.5654,295,-10.1929,-3.9673,-30.0293,88,1.3096,1.0415,-39.5067,135.2796,28,0.039,7621,3.9655,-106.1964
lg,1625251207262628039,0,0.1616,0.9199,0.5874,296,-18.4937,-11.7798,-23.6206,88,1.3096,1.0415,-38.4151,131.4266,28,0.039,8827,3.9655,-103.982
lg,1625251207262645965,0,0.1653,0.9136,0.5735,297,-26.4282,-20.6299,-18.5547,88,1.3086,1.0415,-37.1575,127.7363,28,0.039,8058,3.9655,-102.4763
lg,1625251207262662780,0,0.1611,0.8767,0.5774,298,-32.3486,-30.5176,-13.1836,88,1.3086,1.0415,-35.8171,124.2715,28,0.039,8284,3.9655,-101.7069
lg,1625251207262679502,0,0.1892,0.8635,0.5762,299,-35.0342,-35.8276,-10.3149,88,1.3096,1.0385,-34.4819,121.0593,28,0.039,7776,3.9655,-101.6758
lg,1625251207262695576,0,0.2229,0.8567,0.5664,300,-38.5132,-44.9829,-5.5542,88,1.3086,1.0425,-33.2309,118.0569,28,0.039,7866,3.9655,-102.047
lg,1625251207262712465,0,0.2405,0.8174,0.5681,301,-41.3818,-50.7812,-2.3804,88,1.3096,1.0395,-32.1038,115.182,28,0.039,7873,3.9655,-102.8597
lg,1625251207262729447,0,0.2856,0.7842,0.5618,302,-41.5649,-52.1851,-1.6479,88,1.3106,1.0435,-31.1722,112.395,28,0.039,8185,3.9655,-103.8956
lg,1625251207262746039,0,0.2974,0.7825,0.5701,303,-42.5415,-52.7344,-0.6714,88,1.3086,1.0425,-30.3484,109.6842,28,0.039,7942,3.9655,-105.0452
lg,1625251207262762780,0,0.3284,0.7463,0.5623,304,-42.1143,-51.8188,-1.0376,88,1.3106,1.0405,-29.6877,107.0398,28,0.039,7847,3.9655,-106.2408
lg,1625251207262779132,0,0.3274,0.7405,0.5791,305,-41.4429,-51.3916,-1.77,88,1.3106,1.0425,-29.1086,104.4706,28,0.039,7929,3.9655,-107.3925
lg,1625251207262795262,0,0.3535,0.7112,0.5732,306,-38.7573,-48.584,-3.418,88,1.3086,1.0425,-28.6104,101.9849,28,0.039,7946,3.9655,-108.5563
lg,1625251207262811762,0,0.374,0.6882,0.5886,307,-35.9497,-44.7998,-5.4932,88,1.3106,1.0425,-28.1889,99.5617,28,0.039,7952,3.9655,-109.5862
lg,1625251207262828836,0,0.3865,0.688,0.5789,308,-34.6069,-41.9312,-6.6528,88,1.3106,1.0425,-27.8141,97.2176,28,0.039,7960,3.9655,-110.5536
lg,1625251207262845614,0,0.3762,0.6787,0.5964,309,-29.48,-37.4146,-8.4839,88,1.3106,1.0395,-27.4242,95.0048,28,0.038,8038,3.9655,-111.3485
lg,1625251207262862151,0,0.3853,0.6624,0.6025,310,-23.8037,-29.7852,-10.9863,88,1.3106,1.0435,-27.0336,92.9039,28,0.038,7990,3.9655,-111.8402
lg,1625251207262884576,0,0.3655,0.6553,0.6033,311,-18.9209,-26.7944,-12.4512,88,1.3086,1.0425,-26.5851,90.9794,28,0.038,8029,3.9655,-112.2421
lg,1625251207262903910,0,0.3645,0.6846,0.6062,312,-11.6577,-23.0713,-14.2212,88,1.3096,1.0435,-25.9895,89.4376,28,0.038,8230,3.9655,-112.4661
lg,1625251207262922021,0,0.3489,0.6726,0.6335,313,-4.3945,-19.9585,-15.8081,88,1.3096,1.0435,-25.4032,88.0335,28,0.039,8996,3.9655,-112.6523
lg,1625251207262939465,0,0.3557,0.6851,0.6301,314,3.1128,-18.6768,-16.7236,88,1.3096,1.0435,-24.8027,86.9764,28,0.038,8171,3.9655,-112.8404
lg,1625251207262957188,0,0.3555,0.6987,0.6079,315,11.3525,-17.8223,-17.1509,88,1.3096,1.0435,-24.1931,86.3196,28,0.038,8157,3.9655,-113.0517
lg,1625251207262974576,0,0.3501,0.718,0.6038,316,14.2212,-16.4185,-16.8457,88,1.3106,1.0435,-23.5847,85.8,28,0.038,8171,3.9655,-113.2407
lg,1625251207262991280,0,0.3555,0.7261,0.6042,317,18.4326,-15.9302,-16.1743,88,1.3096,1.0435,-23.0267,85.4667,28,0.038,8200,3.9655,-113.4352
lg,1625251207263007688,0,0.3542,0.7344,0.605,318,20.6299,-14.4043,-15.625,88,1.3086,1.0435,-22.4952,85.2124,27,0.038,8847,3.9655,-113.5837
lg,1625251207263024317,0,0.3503,0.7393,0.606,319,21.8506,-13.1836,-13.7939,88,1.3096,1.0435,-22.0385,84.9942,27,0.038,8209,3.9655,-113.6907
lg,1625251207263041132,0,0.3457,0.7461,0.5994,320,22.4609,-13.4277,-12.5732,88,1.3096,1.0435,-21.6721,84.8638,27,0.038,8256,3.9655,-113.807
lg,1625251207645487095,0,0.3376,0.7913,0.5806,321,21.8506,-12.6953,-8.1787,88,1.3106,1.0435,-21.3974,84.7353,27,0.038,24593,3.9655,-113.9315
lg,1625251207645521539,0,0.3489,0.7876,0.5862,322,18.8599,-14.1602,-6.4697,88,1.3096,1.0445,-21.231,84.5024,27,0.039,9341,3.9655,-114.1163
lg,1625251207645541336,0,0.3711,0.7954,0.5862,323,16.1743,-14.0381,-4.6997,88,1.3096,1.0435,-21.1789,84.1822,27,0.039,14842,3.9655,-114.3016
lg,1625251207645560261,0,0.3708,0.801,0.6016,324,15.3809,-14.4653,-3.8452,88,1.3096,1.0445,-21.1583,83.8268,27,0.038,7724,3.9655,-114.5
lg,1625251207645578132,0,0.3743,0.7966,0.5901,325,12.3291,-12.4512,-3.1128,88,1.3106,1.0445,-21.1719,83.3452,27,0.038,7673,3.9655,-114.6203
lg,1625251207645595132,0,0.3672,0.8037,0.5845,326,10.0708,-10.5591,-1.6479,88,1.3106,1.0445,-21.2162,82.7728,27,0.038,8868,3.9655,-114.6643
lg,1625251207645611669,0,0.3574,0.8047,0.5818,327,8.667,-9.9487,-1.5869,88,1.3096,1.0445,-21.2387,82.1571,27,0.039,7529,3.9655,-114.6896
lg,1625251207645629780,0,0.3579,0.8108,0.5815,328,5.5542,-9.6436,0.1831,88,1.3106,1.0445,-21.3252,81.4374,27,0.039,8705,3.9655,-114.7016
lg,1625251207645648558,0,0.3738,0.8008,0.5754,329,3.2959,-10.0708,0.4272,88,1.3096,1.0435,-21.4614,80.6639,27,0.039,7780,3.9655,-114.7387
lg,1625251207645666817,0,0.3577,0.7954,0.5886,330,1.77,-8.7891,0.061,88,1.3086,1.0435,-21.5407,79.8033,27,0.039,7611,3.9655,-114.7183
lg,1625251207645684298,0,0.3623,0.7764,0.606,331,0.5493,-9.0942,0.7935,88,1.3106,1.0445,-21.6696,78.8768,28,0.04,7592,3.9655,-114.6953
lg,1625251207645701965,0,0.3533,0.7815,0.5872,332,-0.3052,-8.1177,0.7324,88,1.3086,1.0435,-21.7645,77.9695,28,0.04,7619,3.9655,-114.6535
lg,1625251207645718984,0,0.3635,0.7861,0.582,333,-1.0376,-6.5918,2.0142,88,1.3106,1.0445,-21.9103,77.0547,28,0.04,7614,3.9655,-114.5513
lg,1625251207645735724,0,0.3516,0.7568,0.5869,334,-1.2207,-6.3477,2.3193,88,1.3106,1.0415,-22.0052,76.0737,28,0.04,7704,3.9655,-114.3723
lg,1625251207645752873,0,0.3323,0.7688,0.6072,335,-1.6479,-4.9438,2.7466,88,1.3106,1.0445,-22.0967,75.0983,28,0.04,11386,3.9655,-114.1831
lg,1625251207645770150,0,0.3418,0.7593,0.5879,336,-1.5869,-4.9438,3.54,88,1.3106,1.0445,-22.2433,74.1824,28,0.039,10379,3.9655,-114.0037
lg,1625251207645787576,0,0.3213,0.749,0.5991,337,-1.709,-4.7607,3.6621,88,1.3106,1.0445,-22.3457,73.2806,28,0.039,8154,3.9655,-113.8193
lg,1625251207645804206,0,0.3105,0.7563,0.5913,338,-0.1831,-4.2725,3.9673,88,1.3106,1.0445,-22.4227,72.4554,28,0.04,8180,3.9655,-113.6163
lg,1625251207645848613,0,0.3186,0.7832,0.582,339,0.6104,-5.3101,3.7231,88,1.3106,1.0445,-22.4971,71.7638,28,0.04,8206,3.9655,-113.488
lg,1625251207645869206,0,0.3096,0.7644,0.5818,340,1.4648,-6.4697,3.9062,88,1.3096,1.0435,-22.5833,71.1234,28,0.04,9181,3.9655,-113.4017
lg,1625251207645886336,0,0.322,0.7725,0.5771,341,2.1362,-7.3242,4.4556,88,1.3086,1.0435,-22.7186,70.566,28,0.04,8401,3.9655,-113.3568
lg,1625251207645902928,0,0.3159,0.7622,0.595,342,3.418,-7.5073,3.7231,88,1.3096,1.0435,-22.8142,70.039,28,0.04,7880,3.9655,-113.3152
lg,1625251207645919669,0,0.3188,0.7637,0.5986,343,5.249,-5.7373,3.3569,88,1.3106,1.0445,-22.8723,69.5745,28,0.04,7864,3.9655,-113.2097
lg,1625251207645936206,0,0.3318,0.7615,0.6101,344,6.1035,-5.0049,2.9907,88,1.3086,1.0435,-22.9295,69.1306,28,0.04,8315,3.9655,-113.0759
lg,1625251207645953761,0,0.3086,0.7749,0.595,345,7.3853,-4.1504,2.5024,88,1.3106,1.0415,-22.8991,68.7856,28,0.04,8732,3.9655,-112.9362
lg,1625251207645970132,0,0.3201,0.7634,0.5947,346,7.8735,-3.54,2.0752,88,1.3106,1.0445,-22.8765,68.4536,27,0.04,8712,3.9655,-112.7779
lg,1625251207645986761,0,0.3159,0.7693,0.6106,347,7.6294,-3.7231,2.1973,88,1.3106,1.0445,-22.8304,68.111,27,0.04,8001,3.9655,-112.5967
lg,1625251207646004021,0,0.3091,0.7812,0.5955,348,7.9346,-3.6621,1.8311,88,1.3086,1.0445,-22.7664,67.8318,27,0.04,8379,3.9655,-112.4651
lg,1625251207646021576,0,0.2969,0.7783,0.5962,349,7.2632,-3.2959,1.6479,88,1.3106,1.0415,-22.6682,67.5249,27,0.04,8899,3.9655,-112.3235
lg,1625251207646039576,0,0.3052,0.7795,0.6011,350,6.897,-3.418,1.5869,88,1.3106,1.0445,-22.5882,67.2118,28,0.04,8436,3.9655,-112.1905
lg,1625251207646056669,0,0.3018,0.7671,0.6125,351,6.7139,-4.6997,1.709,88,1.3116,1.0445,-22.5333,66.8836,28,0.039,8100,3.9655,-112.0966
lg,1625251207646075076,0,0.2947,0.7874,0.5969,352,5.4932,-3.9673,1.9531,88,1.3076,1.0415,-22.4532,66.5624,28,0.039,8508,3.9655,-111.9959
lg,1625251207979808761,0,0.2844,0.7646,0.6023,353,3.54,-7.019,2.1973,88,1.3106,1.0445,-22.4244,66.1778,27,0.038,24951,3.9655,-112.0007
lg,1625251207979865854,0,0.2827,0.7764,0.6028,354,4.2725,-8.1787,3.2349,88,1.3106,1.0445,-22.447,65.8701,27,0.039,8652,3.9655,-112.0821
lg,1625251207979895446,0,0.2964,0.7783,0.5996,355,3.7842,-8.5449,2.5024,88,1.3106,1.0445,-22.4718,65.5688,27,0.038,7890,3.9655,-112.1598
lg,1625251207979928687,0,0.3096,0.7632,0.5994,356,2.0752,-8.1787,1.77,88,1.3106,1.0445,-22.501,65.1918,28,0.038,7919,3.9655,-112.232
lg,1625251207979955687,0,0.3171,0.7832,0.5994,357,2.1362,-8.7891,0.9766,88,1.3086,1.0415,-22.5137,64.8753,28,0.038,8408,3.9655,-112.3578
lg,1625251207979981891,0,0.3083,0.7693,0.6128,358,2.5024,-8.4839,0.1221,88,1.3106,1.0445,-22.4778,64.5416,28,0.038,11575,3.9655,-112.4735
lg,1625251207980009372,0,0.3052,0.7598,0.6182,359,2.2583,-7.9956,-0.3662,88,1.3106,1.0455,-22.4161,64.1833,28,0.038,7922,3.9655,-112.5744
lg,1625251207980037095,0,0.3052,0.7827,0.6162,360,2.2583,-7.8125,-0.9155,88,1.3106,1.0455,-22.3003,63.8558,28,0.037,7682,3.9655,-112.6701
lg,1625251207980064483,0,0.3025,0.7727,0.6116,361,2.6855,-7.9956,-1.4038,88,1.3116,1.0455,-22.1974,63.5787,28,0.037,7668,3.9655,-112.8127
lg,1625251207980091465,0,0.3088,0.7595,0.6018,362,2.1362,-6.5918,-2.0752,88,1.3106,1.0455,-22.0747,63.2754,28,0.037,7725,3.9655,-112.9184
lg,1625251207980117761,0,0.3169,0.7517,0.6025,363,1.9531,-5.7983,-2.5024,88,1.3106,1.0455,-21.9499,62.9567,27,0.038,7780,3.9655,-113.0026
lg,1625251207980143446,0,0.2966,0.7627,0.5942,364,2.0752,-5.4932,-2.0752,88,1.3086,1.0435,-21.7923,62.6767,27,0.038,9999,3.9655,-113.0833
lg,1625251207980169558,0,0.2908,0.7693,0.5955,365,1.3428,-5.3711,-2.3193,88,1.3096,1.0445,-21.6136,62.3848,27,0.037,7816,3.9655,-113.1718
lg,1625251207980195595,0,0.3171,0.7852,0.6091,366,1.77,-6.1646,-1.5259,88,1.3106,1.0455,-21.5369,62.1168,27,0.037,7814,3.9655,-113.3007
lg,1625251207980221928,0,0.323,0.7795,0.6155,367,0.5493,-6.7749,-0.4272,88,1.3096,1.0445,-21.5173,61.8016,27,0.037,7855,3.9655,-113.4069
lg,1625251207980281354,0,0.3574,0.7588,0.6057,368,1.709,-3.8452,0.3662,88,1.3106,1.0455,-21.5593,61.4916,27,0.037,7798,3.9655,-113.3871
lg,1625251207980312650,0,0.3223,0.7634,0.6265,369,3.0518,-1.4648,0.1831,88,1.3116,1.0455,-21.4476,61.1542,27,0.037,7833,3.9655,-113.2627
lg,1625251207980340465,0,0.2622,0.7502,0.6096,370,4.0283,0.5493,1.4038,88,1.3116,1.0455,-21.2469,60.8636,27,0.038,7916,3.9655,-113.0546
lg,1625251207980368539,0,0.2734,0.7668,0.6101,371,3.418,-4.4556,3.418,88,1.3106,1.0445,-21.2349,60.6377,28,0.038,7865,3.9666,-113.0067
lg,1625251207980395002,0,0.2629,0.7805,0.594,372,1.8311,-7.5684,5.6763,88,1.3086,1.0445,-21.3369,60.4315,28,0.038,7909,3.9666,-113.0485
lg,1625251207980420724,0,0.2832,0.7483,0.604,373,-1.5259,-12.6953,7.8735,88,1.3106,1.0455,-21.6707,60.0885,28,0.038,7976,3.9666,-113.2129
lg,1625251207980448502,0,0.3149,0.7241,0.6084,374,-2.4414,-16.9067,9.0942,88,1.3116,1.0455,-22.2,59.7307,28,0.038,8541,3.9666,-113.493
lg,1625251207980474483,0,0.3306,0.7251,0.6111,375,-1.9531,-16.8457,9.5825,88,1.3106,1.0455,-22.784,59.4073,28,0.038,8033,3.9666,-113.729
lg,1625251207980500595,0,0.3416,0.7261,0.616,376,0.2441,-15.8691,10.0098,88,1.3086,1.0455,-23.3353,59.1557,28,0.038,8037,3.9666,-113.9442
lg,1625251207980526224,0,0.3477,0.7285,0.5925,377,0.6714,-13.916,9.7656,88,1.3106,1.0455,-23.8378,58.9542,28,0.038,8080,3.9666,-114.1095
lg,1625251207980552669,0,0.3491,0.7256,0.5957,378,0.1831,-13.1226,9.3384,88,1.3116,1.0435,-24.3072,58.7253,28,0.038,8025,3.9666,-114.2643
lg,1625251207980578576,0,0.3518,0.7048,0.6106,379,0.1831,-12.6953,8.4839,88,1.3096,1.0455,-24.7219,58.4447,28,0.038,8112,3.9666,-114.381
lg,1625251207980604206,0,0.3486,0.6956,0.6211,380,2.8687,-10.0708,5.4321,88,1.3116,1.0455,-24.9581,58.2353,28,0.039,8115,3.9666,-114.4543
lg,1625251207980629576,0,0.3508,0.7004,0.6348,381,3.6621,-7.1411,3.54,88,1.3116,1.0455,-25,58.0854,28,0.039,8184,3.9666,-114.4007
lg,1625251207980655595,0,0.3345,0.708,0.6099,382,8.8501,-2.9907,0.4272,88,1.3106,1.0455,-24.8734,58.1054,28,0.038,11885,3.9666,-114.3433
lg,1625251207980766113,0,0.3337,0.7395,0.6064,383,10.0708,-2.1362,-1.2207,88,1.3106,1.0455,-24.6658,58.2388,28,0.038,8276,3.9666,-114.341
lg,1625251207980798446,0,0.3423,0.7395,0.5923,384,9.8267,-1.0986,-3.0518,88,1.3106,1.0445,-24.3632,58.3081,28,0.039,9502,3.9666,-114.2976
lg,1625251208304954205,0,0.2837,0.7388,0.6101,385,10.6201,1.8921,-4.8828,88,1.3096,1.0455,-23.8536,58.436,27,0.039,23003,3.9666,-114.2115
lg,1625251208304998465,0,0.2773,0.7524,0.6028,386,11.0474,1.8311,-4.7607,88,1.3096,1.0455,-23.3481,58.5828,27,0.038,8647,3.9666,-114.1252
lg,1625251208305019039,0,0.2781,0.7495,0.6069,387,10.7422,0.8545,-3.9673,88,1.3116,1.0445,-22.9349,58.7264,27,0.038,11136,3.9666,-114.1456
lg,1625251208305039002,0,0.2729,0.7463,0.6155,388,10.437,-0.5493,-3.7231,88,1.3116,1.0465,-22.5403,58.8292,27,0.038,7677,3.9666,-114.1108
lg,1625251208305057650,0,0.2861,0.7576,0.5999,389,10.8643,-3.3569,-3.1128,88,1.3106,1.0465,-22.266,59.0271,27,0.038,7977,3.9666,-114.1852
lg,1625251208305075261,0,0.2742,0.7839,0.6104,390,11.0474,-5.127,-2.8687,88,1.3116,1.0455,-22.0037,59.2638,27,0.037,7863,3.9666,-114.3246
lg,1625251208305094094,0,0.2844,0.7861,0.615,391,10.437,-5.9814,-3.2959,88,1.3106,1.0455,-21.7727,59.4763,27,0.038,7639,3.9666,-114.5008
lg,1625251208305110965,0,0.3054,0.7822,0.6189,392,9.5825,-7.6904,-2.9907,88,1.3116,1.0455,-21.6397,59.6556,27,0.038,9888,3.9666,-114.7275
lg,1625251208305130335,0,0.3103,0.7739,0.6165,393,8.667,-8.4229,-2.9297,88,1.3106,1.0455,-21.5439,59.7932,27,0.038,7961,3.9666,-114.9757
lg,1625251208305147872,0,0.3108,0.7678,0.6135,394,8.4229,-8.3008,-3.479,88,1.3116,1.0455,-21.4355,59.9146,27,0.038,8492,3.9666,-115.2285
lg,1625251208305165150,0,0.3301,0.7793,0.6028,395,8.5449,-7.7515,-3.2349,88,1.3096,1.0455,-21.365,60.0643,27,0.038,7865,3.9666,-115.4682
lg,1625251208305185039,0,0.323,0.782,0.5933,396,6.7749,-6.1646,-2.8076,88,1.3106,1.0455,-21.2671,60.1331,27,0.038,7642,3.9666,-115.6456
lg,1625251208305202131,0,0.3145,0.7812,0.5933,397,6.6528,-5.7373,-2.8076,88,1.3116,1.0455,-21.1445,60.1367,27,0.038,8067,3.9666,-115.8165
lg,1625251208305220002,0,0.3035,0.7656,0.5989,398,4.5166,-6.2866,-2.9907,88,1.3096,1.0455,-21.0184,60.0793,27,0.038,7885,3.9666,-115.9895
lg,1625251208305323446,0,0.3201,0.7561,0.6169,399,3.1128,-6.2256,-3.2349,88,1.3106,1.0455,-20.9228,59.9233,27,0.038,8502,3.9666,-116.1502
lg,1625251208305346891,0,0.3301,0.7627,0.6108,400,4.3335,-7.3242,-3.3569,88,1.3106,1.0455,-20.8677,59.8592,28,0.038,8535,3.9666,-116.3647
lg,1625251208305365817,0,0.3325,0.7573,0.6055,401,4.2725,-7.3242,-2.7466,88,1.3096,1.0435,-20.8465,59.7929,28,0.039,8141,3.9666,-116.5682
lg,1625251208305382465,0,0.3411,0.7576,0.6133,402,5.0049,-6.958,-2.9907,88,1.3116,1.0455,-20.8253,59.7423,28,0.039,8162,3.9666,-116.7596
lg,1625251208305400594,0,0.3181,0.7583,0.5891,403,4.2114,-5.6763,-2.5635,88,1.3116,1.0455,-20.7543,59.6857,28,0.039,8189,3.9666,-116.9109
lg,1625251208305418743,0,0.321,0.7551,0.6023,404,4.5166,-6.5308,-2.0752,88,1.3116,1.0465,-20.7238,59.6217,28,0.039,8198,3.9666,-117.0741
lg,1625251208305436465,0,0.3152,0.7502,0.5903,405,5.4932,-6.1646,-1.8311,88,1.3116,1.0455,-20.7384,59.6474,28,0.039,11694,3.9666,-117.2824
lg,1625251208305454113,0,0.3118,0.7891,0.5901,406,6.0425,-7.8125,-1.6479,88,1.3116,1.0455,-20.7129,59.7292,28,0.039,7864,3.9666,-117.5093
lg,1625251208305489168,0,0.312,0.7363,0.6177,407,7.4463,-9.0332,-1.4038,92,1.3106,1.0455,-20.7441,59.751,28,0.039,8309,3.9666,-117.73
lg,1625251208305511668,0,0.3159,0.7339,0.6025,408,8.3618,-9.3384,-1.4038,92,1.3116,1.0465,-20.7975,59.8694,27,0.039,7950,3.9666,-117.995
lg,1625251208305529372,0,0.343,0.7715,0.6094,409,8.2397,-9.7656,-1.2817,92,1.3106,1.0465,-20.8891,59.996,27,0.039,7974,3.9666,-118.263
lg,1625251208305545854,0,0.3398,0.7651,0.5962,410,8.5449,-8.728,-1.5869,92,1.3116,1.0465,-20.9477,60.1341,27,0.039,8209,3.9666,-118.5026
lg,1625251208305563002,0,0.3535,0.7729,0.5891,411,8.667,-8.2397,-1.5869,92,1.3106,1.0455,-20.9795,60.2868,27,0.039,8398,3.9666,-118.6926
lg,1625251208305580094,0,0.3381,0.7773,0.5977,412,8.2397,-5.6152,-2.2583,92,1.3096,1.0455,-20.9373,60.3792,28,0.039,10725,3.9666,-118.8313
lg,1625251208305596520,0,0.3247,0.7737,0.5981,413,8.9111,-5.188,-2.0752,92,1.3096,1.0445,-20.8688,60.4802,28,0.039,8112,3.9666,-118.9466
lg,1625251208305625002,0,0.3237,0.761,0.5933,414,7.2021,-4.5776,-2.5635,92,1.3106,1.0455,-20.7815,60.4956,28,0.039,8081,3.9666,-119.0452
lg,1625251208305643261,0,0.3284,0.7839,0.5898,415,5.9204,-3.7842,-1.6479,92,1.3106,1.0455,-20.7105,60.4806,28,0.039,8125,3.9666,-119.1091
lg,1625251208305660243,0,0.3235,0.7678,0.5889,416,5.0659,-4.0894,-2.0142,92,1.3096,1.0455,-20.6358,60.4179,28,0.038,8320,3.9666,-119.1851
lg,1625251208659224576,0,0.3113,0.7539,0.583,417,5.7373,-2.8687,-1.0376,92,1.3106,1.0465,-20.5589,60.3514,28,0.039,24453,3.9666,-119.1931
lg,1625251208659266150,0,0.325,0.7656,0.5933,418,5.7983,-2.6855,-0.1831,92,1.3116,1.0455,-20.5292,60.2796,28,0.039,8910,3.9666,-119.177
lg,1625251208659287187,0,0.2976,0.7627,0.5962,419,5.4932,-2.9907,0.5493,92,1.3116,1.0465,-20.4749,60.1848,28,0.039,13230,3.9666,-119.1537
lg,1625251208659306520,0,0.2834,0.771,0.5984,420,6.0425,-4.3945,1.2207,92,1.3116,1.0465,-20.438,60.1353,28,0.039,8598,3.9666,-119.1723
lg,1625251208659324465,0,0.3057,0.7751,0.5911,421,6.1646,-5.0049,1.3428,92,1.3116,1.0465,-20.4939,60.1391,27,0.039,7736,3.9666,-119.256
lg,1625251208659342002,0,0.304,0.7822,0.5945,422,6.0425,-6.7749,1.709,92,1.3116,1.0465,-20.5584,60.1436,27,0.039,7686,3.9666,-119.3617
lg,1625251208659358890,0,0.3267,0.7583,0.6003,423,6.7749,-7.2021,1.5259,92,1.3116,1.0465,-20.6827,60.1418,27,0.039,7660,3.9666,-119.4716
lg,1625251208659376298,0,0.3289,0.7644,0.5857,424,7.0801,-6.7749,1.9531,92,1.3116,1.0465,-20.7944,60.1785,27,0.039,8294,3.9666,-119.5684
lg,1625251208659392613,0,0.3247,0.7778,0.5959,425,7.9346,-6.2256,1.709,92,1.3116,1.0465,-20.8816,60.2433,27,0.04,8135,3.9666,-119.6493
lg,1625251208659409242,0,0.3218,0.759,0.5898,426,7.2021,-4.8828,2.3804,92,1.3106,1.0465,-20.9699,60.2384,27,0.039,8401,3.9666,-119.6594
lg,1625251208659447668,0,0.3115,0.7739,0.5916,427,6.897,-4.5166,1.77,92,1.3116,1.0465,-20.9948,60.238,27,0.04,10220,3.9666,-119.6744
lg,1625251208659466631,0,0.3059,0.761,0.5938,428,5.7373,-4.5776,1.9531,92,1.3116,1.0465,-21.0137,60.2153,27,0.04,8033,3.9666,-119.6963
lg,1625251208659483094,0,0.3164,0.7756,0.6038,429,7.1411,-5.127,1.5259,92,1.3116,1.0465,-21.0458,60.2155,27,0.041,8035,3.9666,-119.732
lg,1625251208659499927,0,0.3,0.7642,0.5964,430,6.897,-4.6997,1.2817,92,1.3116,1.0465,-21.0345,60.1982,27,0.04,9169,3.9666,-119.7554
lg,1625251208659516872,0,0.3103,0.7791,0.5923,431,8.1787,-5.0049,0.4883,92,1.3116,1.0465,-21.0162,60.2726,27,0.04,7954,3.9666,-119.818
lg,1625251208659534187,0,0.3196,0.7776,0.6074,432,8.4839,-5.0659,0.4272,92,1.3106,1.0465,-21.0131,60.328,28,0.04,7848,3.9666,-119.8726
lg,1625251208659550390,0,0.3069,0.7617,0.592,433,7.9956,-4.8828,0.6104,92,1.3106,1.0465,-21.0007,60.3632,28,0.04,8777,3.9666,-119.9178
lg,1625251208659566539,0,0.3145,0.7771,0.5796,434,8.2397,-4.0894,0.9155,92,1.3106,1.0455,-20.9946,60.4399,28,0.039,8123,3.9666,-119.9432
lg,1625251208659583298,0,0.3086,0.7715,0.5984,435,7.9956,-4.1504,1.0376,92,1.3106,1.0465,-20.9725,60.4971,28,0.039,7984,3.9666,-119.965
lg,1625251208659599687,0,0.2898,0.7646,0.614,436,7.2021,-3.7842,1.1597,92,1.3106,1.0465,-20.9144,60.4362,27,0.039,8018,3.9666,-119.9419
lg,1625251208659616224,0,0.3052,0.771,0.5947,437,8.1787,-5.8594,1.2207,92,1.3116,1.0465,-20.9361,60.4906,27,0.039,8060,3.9666,-120.0128
lg,1625251208659633279,0,0.3091,0.7681,0.6028,438,7.9956,-5.9204,0.2441,92,1.3126,1.0465,-20.9315,60.5249,27,0.039,8090,3.9666,-120.0989
lg,1625251208659649687,0,0.3076,0.7708,0.5942,439,6.6528,-6.7749,0.5493,92,1.3116,1.0465,-20.9523,60.533,27,0.039,8035,3.9666,-120.2172
lg,1625251208659666965,0,0.312,0.7529,0.5955,440,7.019,-5.8594,0.2441,92,1.3116,1.0465,-20.9638,60.5183,27,0.039,8101,3.9666,-120.2977
lg,1625251208659683613,0,0.313,0.7822,0.5957,441,6.2256,-4.9438,0.3052,92,1.3106,1.0435,-20.9431,60.5008,27,0.039,8213,3.9666,-120.3575
lg,1625251208659713798,0,0.3054,0.7861,0.5962,442,5.5542,-5.0659,0.5493,92,1.3116,1.0465,-20.9159,60.4607,27,0.039,8111,3.9666,-120.4186
lg,1625251208659731335,0,0.3037,0.7751,0.5969,443,5.0659,-6.2256,1.0376,92,1.3106,1.0465,-20.932,60.3977,27,0.039,8101,3.9666,-120.5073
lg,1625251208659747965,0,0.3074,0.7744,0.5903,444,4.3335,-5.9204,1.4648,92,1.3096,1.0455,-20.9668,60.3125,27,0.039,8092,3.9666,-120.5804
lg,1625251208659764372,0,0.3088,0.7896,0.5938,445,3.9062,-6.1035,0.6104,92,1.3116,1.0465,-20.9672,60.2371,27,0.039,8143,3.9666,-120.6846
lg,1625251208659780465,0,0.3289,0.7705,0.5896,446,3.9673,-6.1035,0.5493,92,1.3116,1.0465,-21.0205,60.1509,27,0.039,8286,3.9666,-120.7846
lg,1625251208659796687,0,0.3154,0.7761,0.5925,447,4.3945,-6.8359,0.5493,92,1.3116,1.0465,-21.0534,60.0444,27,0.039,8214,3.9666,-120.8946
lg,1625251208659812909,0,0.3137,0.7676,0.5876,448,4.6997,-6.4087,0.6104,92,1.3096,1.0435,-21.0823,59.9969,27,0.039,8205,3.9666,-121.0062
lg,1625251209009322650,0,0.3152,0.7791,0.5854,449,4.9438,-6.2866,0.1831,92,1.3116,1.0465,-21.0898,59.9832,27,0.038,25636,3.9666,-121.1301
lg,1625251209009355650,0,0.3198,0.7566,0.5884,450,5.4932,-7.2021,0.5493,92,1.3076,1.0455,-21.1505,59.9646,28,0.038,9671,3.9666,-121.267
lg,1625251209009375705,0,0.3228,0.7576,0.6147,451,5.8594,-6.958,0.3052,92,1.3116,1.0465,-21.1922,59.9121,28,0.038,11873,3.9666,-121.3825
lg,1625251209009394538,0,0.3154,0.7549,0.5952,452,5.5542,-5.9204,0.3052,92,1.3116,1.0465,-21.2045,59.8676,28,0.038,10217,3.9666,-121.4716
lg,1625251209009412520,0,0.3335,0.7622,0.5903,453,5.4932,-6.2866,0.4883,92,1.3116,1.0465,-21.2652,59.8475,27,0.038,7601,3.9666,-121.5785
lg,1625251209009429464,0,0.3225,0.7747,0.5867,454,5.127,-5.0659,0.6104,92,1.3106,1.0465,-21.2739,59.8197,27,0.038,7600,3.9666,-121.646
lg,1625251209009446353,0,0.3125,0.7695,0.6035,455,5.9814,-7.2021,0.7935,92,1.3116,1.0465,-21.3076,59.8145,27,0.038,7608,3.9666,-121.7749
lg,1625251209009462927,0,0.3137,0.7786,0.5999,456,6.1646,-6.7139,0.9155,92,1.3106,1.0465,-21.3664,59.8132,27,0.038,7689,3.9666,-121.8841
lg,1625251209009504298,0,0.3391,0.7954,0.605,457,6.6528,-8.1787,0.3052,92,1.3106,1.0455,-21.4377,59.8882,27,0.039,8919,3.9666,-122.0725
lg,1625251209009523335,0,0.342,0.7764,0.5979,458,6.1035,-6.7139,-0.1831,92,1.3126,1.0465,-21.4804,59.9097,27,0.038,7735,3.9666,-122.2109
lg,1625251209009541224,0,0.3494,0.7769,0.5974,459,5.7373,-6.0425,0.1831,92,1.3106,1.0465,-21.5428,59.9456,27,0.038,7737,3.9666,-122.3313
lg,1625251209009559020,0,0.3528,0.7847,0.5732,460,3.6621,-2.8687,0.1221,92,1.3106,1.0465,-21.5412,59.8716,27,0.038,7705,3.9666,-122.3403
lg,1625251209009576224,0,0.3433,0.761,0.5662,461,0.7324,-1.5259,1.3428,92,1.3126,1.0465,-21.5536,59.6357,27,0.038,7793,3.9666,-122.2667
lg,1625251209009592761,0,0.311,0.7532,0.5833,462,0.7324,-0.9155,1.2817,92,1.3096,1.0465,-21.481,59.3542,28,0.038,7776,3.9666,-122.1578
lg,1625251209009609205,0,0.2849,0.7449,0.5952,463,-0.4272,-2.0142,2.0752,92,1.3116,1.0475,-21.4048,59.0088,28,0.038,7781,3.9666,-122.0629
lg,1625251209009629557,0,0.2971,0.7644,0.5774,464,-0.6104,-3.2959,3.0518,92,1.3116,1.0445,-21.4394,58.6367,28,0.038,7822,3.9666,-121.9928
lg,1625251209009647501,0,0.2883,0.7441,0.6072,465,0.6714,-4.8828,3.418,92,1.3096,1.0465,-21.473,58.3676,28,0.039,7977,3.9666,-121.974
lg,1625251209009664501,0,0.2966,0.7407,0.6055,466,3.0518,-7.9346,4.6387,92,1.3116,1.0475,-21.6307,58.2339,28,0.038,7900,3.9666,-122.0418
lg,1625251209009680853,0,0.3101,0.7283,0.5981,467,4.2725,-9.5825,4.1504,92,1.3116,1.0465,-21.8412,58.1997,28,0.039,7975,3.9666,-122.1888
lg,1625251209009697224,0,0.3264,0.7297,0.5938,468,6.4697,-8.9111,5.249,92,1.3116,1.0475,-22.1006,58.2261,28,0.039,8071,3.9666,-122.2818
lg,1625251209009713724,0,0.3179,0.7334,0.5874,469,7.3853,-6.7139,4.6387,92,1.3106,1.0475,-22.2649,58.2802,28,0.039,10385,3.9666,-122.3129
lg,1625251209009729946,0,0.3223,0.7439,0.5938,470,7.8735,-5.127,4.1504,92,1.3116,1.0435,-22.3734,58.3376,28,0.038,8023,3.9666,-122.2967
lg,1625251209009745705,0,0.3284,0.7642,0.6035,471,8.606,-4.5776,3.3569,92,1.3126,1.0475,-22.3895,58.4085,28,0.038,8154,3.9666,-122.275
lg,1625251209009773724,0,0.3096,0.7615,0.6018,472,9.3384,-4.8828,2.5635,92,1.3106,1.0475,-22.3935,58.5391,28,0.038,8039,3.9666,-122.2873
lg,1625251209009790946,0,0.3223,0.7808,0.6123,473,9.7046,-4.5776,0.5493,92,1.3116,1.0475,-22.3338,58.7011,28,0.038,8127,3.9666,-122.3353
lg,1625251209009807131,0,0.3308,0.7866,0.6199,474,10.437,-3.9062,0.4272,92,1.3116,1.0465,-22.2577,58.8555,28,0.039,8052,3.9666,-122.3507
lg,1625251209009824372,0,0.3132,0.7791,0.6023,475,8.9722,-1.3428,-0.3662,92,1.3116,1.0475,-22.0913,58.9537,28,0.038,11863,3.9666,-122.3014
lg,1625251209009841372,0,0.3137,0.7681,0.5911,476,8.5449,-0.7935,-0.7935,92,1.3116,1.0475,-21.9053,58.9983,28,0.039,8073,3.9666,-122.214
lg,1625251209009857816,0,0.2905,0.7761,0.6028,477,6.4697,-0.3662,0.061,92,1.3116,1.0475,-21.7014,58.9674,27,0.038,8029,3.9666,-122.1164
lg,1625251209009874057,0,0.2708,0.7896,0.5852,478,4.8218,-1.0986,0.6714,92,1.3116,1.0465,-21.4973,58.9287,27,0.039,8116,3.9666,-122.0533
lg,1625251209009890631,0,0.2766,0.7651,0.5923,479,3.9062,-4.3945,0.8545,92,1.3116,1.0475,-21.3986,58.85,27,0.039,8129,3.9666,-122.0913
lg,1625251209009907316,0,0.3,0.7573,0.5977,480,3.6011,-5.0659,1.0986,92,1.3116,1.0465,-21.4236,58.7559,28,0.039,9400,3.9666,-122.1871
lg,1625251209350235279,0,0.3064,0.7559,0.5886,481,3.9062,-8.3008,2.0752,92,1.3116,1.0475,-21.5205,58.7226,28,0.039,24667,3.9666,-122.3426
lg,1625251209350313538,0,0.3164,0.7483,0.5859,482,4.2725,-8.4229,1.8311,92,1.3126,1.0475,-21.6348,58.7041,28,0.039,8730,3.9666,-122.5062
lg,1625251209350334557,0,0.3145,0.7727,0.593,483,4.6387,-8.1177,2.1973,92,1.3096,1.0475,-21.6912,58.7208,28,0.039,7723,3.9666,-122.6461
lg,1625251209350354760,0,0.314,0.7651,0.6079,484,4.9438,-7.6904,0.5493,92,1.3116,1.0475,-21.7167,58.7126,28,0.04,13487,3.9666,-122.8041
lg,1625251209350373742,0,0.3174,0.7747,0.595,485,5.9814,-7.4463,0.4272,92,1.3116,1.0475,-21.7379,58.7823,28,0.039,7566,3.9622,-122.97
lg,1625251209350393983,0,0.3289,0.7688,0.603,486,7.0801,-8.4839,0.061,92,1.3126,1.0475,-21.7914,58.8878,27,0.039,9648,3.9622,-123.1731
lg,1625251209350413020,0,0.3433,0.7771,0.5911,487,6.958,-6.8359,-0.3052,92,1.3116,1.0475,-21.8253,59.0003,27,0.039,7548,3.9622,-123.335
lg,1625251209350431427,0,0.325,0.7834,0.592,488,6.2256,-6.0425,1.0986,92,1.3116,1.0475,-21.8472,59.0623,27,0.04,7578,3.9622,-123.4373
lg,1625251209350500723,0,0.3118,0.7798,0.592,489,5.188,-5.7373,2.0142,92,1.3126,1.0475,-21.9093,59.0396,27,0.04,8283,3.9622,-123.491
lg,1625251209350524501,0,0.3013,0.7576,0.5974,490,4.3945,-7.1411,5.9814,92,1.3106,1.0475,-22.0814,58.9528,27,0.04,8329,3.9622,-123.5069
lg,1625251209350541872,0,0.2651,0.7795,0.6006,491,3.8452,-9.7046,9.8267,92,1.3116,1.0475,-22.3404,58.874,27,0.04,7738,3.9622,-123.5415
lg,1625251209350560557,0,0.2517,0.7839,0.5947,492,2.5024,-11.9019,12.6343,92,1.3116,1.0475,-22.7009,58.7686,27,0.04,7807,3.9622,-123.6009
lg,1625251209350581538,0,0.2375,0.7903,0.5818,493,1.1597,-20.3247,18.7988,92,1.3116,1.0475,-23.4007,58.7161,27,0.04,7799,3.9622,-123.8481
lg,1625251209350599094,0,0.2524,0.7766,0.5898,494,-1.5869,-31.189,26.7944,92,1.3126,1.0475,-24.6066,58.6164,27,0.041,7759,3.9622,-124.3061
lg,1625251209350620316,0,0.2834,0.7761,0.5786,495,-2.8687,-36.377,29.7852,92,1.3106,1.0475,-26.0445,58.5581,27,0.041,7817,3.9622,-124.9007
lg,1625251209350643205,0,0.3428,0.7585,0.5757,496,-4.1504,-41.9312,35.1562,92,1.3126,1.0475,-27.861,58.4919,27,0.041,7831,3.9622,-125.5777
lg,1625251209350661834,0,0.3577,0.7581,0.6028,497,-5.4932,-43.335,41.3818,92,1.3116,1.0475,-29.8687,58.2981,27,0.04,11644,3.9622,-126.137
lg,1625251209350755927,0,0.3779,0.7607,0.5916,498,-5.4321,-44.1895,47.4243,92,1.3126,1.0475,-32.065,58.1034,27,0.04,7897,3.9622,-126.5943
lg,1625251209350778668,0,0.3882,0.7808,0.6067,499,-5.0659,-44.6777,49.9268,92,1.3116,1.0475,-34.3236,57.9469,27,0.041,7975,3.9622,-127.0184
lg,1625251209350797649,0,0.4109,0.7744,0.6003,500,-5.6763,-44.1284,56.3354,92,1.3116,1.0485,-36.6985,57.6575,27,0.04,7943,3.9622,-127.238
lg,1625251209350817464,0,0.4514,0.7786,0.5544,501,-9.7046,-41.8091,63.9648,92,1.3116,1.0485,-39.2825,57.1373,27,0.04,8019,3.9622,-127.1985
lg,1625251209350837612,0,0.4446,0.7874,0.5747,502,-12.085,-40.4053,67.749,92,1.3126,1.0485,-41.8366,56.3568,27,0.041,8034,3.9622,-126.9237
lg,1625251209350856538,0,0.4299,0.7778,0.5542,503,-18.7378,-38.9404,74.3408,92,1.3106,1.0465,-44.4569,55.1456,27,0.041,8793,3.9622,-126.349
lg,1625251209350891909,0,0.4277,0.7629,0.5684,504,-26.7334,-42.6025,81.604,92,1.3116,1.0485,-47.2845,53.4396,27,0.041,8102,3.9622,-125.5563
lg,1625251209350960334,0,0.4536,0.7134,0.5398,505,-34.8511,-47.2412,90.6982,92,1.3116,1.0485,-50.4825,51.1893,28,0.042,8124,3.9622,-124.4669
lg,1625251209350979946,0,0.48,0.7039,0.5693,506,-37.4756,-47.2412,96.0693,92,1.3106,1.0485,-53.803,48.2098,28,0.041,8552,3.9622,-122.7836
lg,1625251209350999723,0,0.4534,0.7043,0.553,507,-43.5791,-52.6123,98.1445,92,1.3106,1.0485,-57.032,45.0235,28,0.039,8197,3.9622,-120.9674
lg,1625251209351017520,0,0.4341,0.6873,0.5535,508,-50.2319,-70.2515,100.8911,92,1.3116,1.0475,-60.6363,41.8181,28,0.04,8536,3.9622,-119.464
lg,1625251209351043483,0,0.5181,0.668,0.5544,509,-58.4717,-90.1489,104.9805,92,1.3116,1.0465,-64.9065,38.4322,27,0.04,8233,3.9622,-118.1695
lg,1625251209351076686,0,0.5742,0.635,0.5496,510,-62.3779,-97.7173,106.6284,92,1.3116,1.0505,-69.4524,33.9697,27,0.04,8259,3.9622,-115.9657
lg,1625251209351095853,0,0.7253,0.5647,0.5505,511,-67.5049,-92.3462,112.4268,92,1.3106,1.0485,-73.7608,26.3082,27,0.04,8227,3.9622,-110.6478
lg,1625251209351113964,0,0.7654,0.5298,0.5527,512,-67.627,-74.1577,112.1216,92,1.3126,1.0505,-76.9146,13.2221,27,0.041,8295,3.9622,-99.7178
lg,1625251209710517094,0,0.7188,0.5149,0.5759,513,-73.0591,-53.7109,105.1025,92,1.3116,1.0505,-78.301,-4.49,27,0.04,24595,3.9622,-84.166
lg,1625251209710561742,0,0.7485,0.4812,0.5701,514,-75.5615,-46.6919,102.6001,92,1.3126,1.0515,-78.3861,-24.3615,28,0.042,9197,3.9622,-66.4689
lg,1625251209710581686,0,0.7297,0.4021,0.6135,515,-70.2515,-32.959,93.0786,92,1.3126,1.0515,-77.2375,-39.0519,28,0.041,10416,3.9622,-53.9397
lg,1625251209710600927,0,0.7249,0.3606,0.6235,516,-60.791,-25.4517,88.1348,92,1.3126,1.0515,-75.5127,-48.7944,28,0.041,7621,3.9622,-46.1065
lg,1625251209710619001,0,0.7344,0.3801,0.6145,517,-55.8472,-20.6909,85.3882,92,1.3126,1.0525,-73.6261,-55.256,28,0.041,7682,3.9622,-41.3788
lg,1625251209710635834,0,0.7151,0.3633,0.6184,518,-46.875,-12.4512,80.0781,92,1.3126,1.0525,-71.6482,-58.7155,27,0.041,7683,3.9622,-39.3195
lg,1625251209710652575,0,0.7144,0.3379,0.6365,519,-38.147,-5.3101,76.4771,92,1.3126,1.0525,-69.6035,-60.3026,27,0.041,9235,3.9622,-38.7866
lg,1625251209710722038,0,0.719,0.3225,0.6516,520,-31.7383,-2.2583,72.7539,92,1.3126,1.0525,-67.7197,-60.2995,27,0.041,7718,3.9622,-39.2953
lg,1625251209710743908,0,0.7219,0.2976,0.6777,521,-16.6016,0.2441,62.6831,92,1.3116,1.0525,-66.0073,-59.7048,27,0.041,7686,3.9622,-40.0446
lg,1625251209710762760,0,0.7246,0.2786,0.6541,522,1.0986,6.2866,51.3916,99,1.3126,1.0525,-64.5906,-57.6692,28,0.041,7723,3.9622,-41.5704
lg,1625251209710780186,0,0.7107,0.2893,0.6504,523,9.4604,9.3994,44.2505,99,1.3126,1.0525,-63.3675,-54.9645,28,0.041,7878,3.9622,-43.4354
lg,1625251209710797760,0,0.708,0.3127,0.5933,524,24.292,13.1836,30.2124,99,1.3116,1.0525,-62.6081,-51.0972,28,0.041,8823,3.9622,-45.9372
lg,1625251209710815538,0,0.7161,0.3486,0.582,525,32.8369,15.686,13.0615,99,1.3106,1.0525,-62.3077,-46.1038,28,0.041,8515,3.9622,-49.3142
lg,1625251209710848242,0,0.7637,0.3193,0.5674,526,41.0156,26.8555,-2.6855,99,1.3126,1.0525,-62.001,-39.7744,27,0.041,7916,3.9622,-53.9013
lg,1625251209710866279,0,0.7983,0.3066,0.5623,527,46.1426,35.8887,-9.0942,99,1.3116,1.0515,-61.3635,-32.9319,27,0.041,7882,3.9622,-58.9129
lg,1625251209710885686,0,0.7512,0.3308,0.5405,528,54.9927,57.8003,-21.7285,99,1.3126,1.0525,-59.9601,-24.6251,27,0.041,7951,3.9622,-65.2449
lg,1625251209710904631,0,0.6838,0.3491,0.5593,529,59.9976,78.4302,-31.7993,99,1.3136,1.0525,-57.4591,-15.9037,27,0.041,8072,3.9622,-71.9262
lg,1625251209710921408,0,0.709,0.363,0.5852,530,60.4248,82.5195,-35.0952,99,1.3126,1.0515,-54.4599,-8.3313,27,0.041,7951,3.9622,-77.4338
lg,1625251209710938316,0,0.1228,0.4172,0.593,531,68.2983,120.4224,-50.2319,99,1.3146,1.0525,-48.6655,-0.2479,27,0.04,7988,3.9622,-83.1629
lg,1625251209710955427,0,-0.0952,0.51,0.7202,532,63.2935,44.4336,-43.0908,99,1.3146,1.0495,-45.2263,5.8589,27,0.041,7984,3.9622,-86.9004
lg,1625251209710972557,0,0.0015,0.4912,0.7742,533,61.0962,-5.9204,-35.0952,99,1.3126,1.0525,-43.7786,11.0497,27,0.041,8018,3.9622,-89.8286
lg,1625251209710989260,0,0.3293,0.4832,0.7969,534,66.2231,-64.5752,-20.5688,99,1.3146,1.0535,-45.2065,16.0633,27,0.041,8022,3.9622,-92.4754
lg,1625251209711006834,0,0.5703,0.5303,0.7695,535,72.3877,-80.2002,-14.7095,99,1.3146,1.0495,-47.5286,21.4784,27,0.041,8043,3.9622,-95.3946
lg,1625251209711024149,0,0.6699,0.5688,0.7095,536,72.5708,-75.6836,-11.1084,99,1.3146,1.0535,-49.6725,27.0337,27,0.041,8086,3.9622,-98.4817
lg,1625251209711040890,0,0.7532,0.6331,0.6455,537,63.0493,-58.7769,-9.6436,99,1.3126,1.0545,-51.1481,32.1514,27,0.041,8164,3.9622,-101.4475
lg,1625251209711093112,0,0.7957,0.6663,0.6306,538,47.6685,-43.0908,-9.7046,99,1.3136,1.0545,-51.9549,36.3411,27,0.041,8103,3.9622,-104.0493
lg,1625251209711156223,0,0.8135,0.667,0.6089,539,39.917,-36.0718,-9.8267,99,1.3136,1.0545,-52.4982,39.9634,27,0.041,8153,3.9622,-106.3966
lg,1625251209711175853,0,0.8171,0.6543,0.6055,540,23.8037,-17.6392,-10.8032,99,1.3116,1.0525,-52.3416,42.2643,27,0.041,8098,3.9622,-107.9521
lg,1625251209711224631,0,0.7917,0.6357,0.5945,541,10.0098,0.2441,-12.3901,99,1.3136,1.0525,-51.5942,43.3228,27,0.041,8180,3.9622,-108.6904
lg,1625251209711244223,0,0.7334,0.6233,0.5847,542,2.1362,6.0425,-12.5732,99,1.3146,1.0555,-50.4966,43.3082,28,0.041,8102,3.9622,-108.9081
lg,1625251209711263538,0,0.6902,0.5913,0.594,543,-11.7798,10.376,-11.1084,99,1.3116,1.0545,-49.4493,42.9475,28,0.041,8226,3.9622,-109.0154
lg,1625251209711283297,0,0.6985,0.5552,0.626,544,-18.8599,14.7705,-9.8877,99,1.3136,1.0535,-48.331,41.8703,28,0.042,11270,3.9622,-108.6955
lg,1625251210042546390,0,0.5498,0.4622,0.6367,545,-18.6157,12.5122,-6.7749,99,1.3136,1.0555,-47.2513,40.6941,27,0.041,24278,3.9622,-108.2851
lg,1625251210042589130,0,0.542,0.4678,0.6143,546,-13.7329,3.418,-2.7466,99,1.3136,1.0565,-46.5897,39.9685,27,0.042,9269,3.9622,-108.1509
lg,1625251210042609186,0,0.5427,0.4563,0.6382,547,-10.9253,-1.2817,-0.5493,99,1.3106,1.0555,-46.1395,39.3656,28,0.041,7904,3.9622,-108.0637
lg,1625251210042628519,0,0.5564,0.4434,0.6306,548,-3.2959,-16.1743,4.9438,99,1.3136,1.0565,-46.3467,39.2918,28,0.041,13455,3.9622,-108.2856
lg,1625251210042647112,0,0.5818,0.4526,0.5955,549,-0.8545,-20.5688,6.5308,99,1.3126,1.0565,-46.9044,39.626,28,0.042,7672,3.9622,-108.7726
lg,1625251210042664797,0,0.6191,0.4392,0.5972,550,3.1738,-26.4893,7.5684,99,1.3126,1.0565,-47.6166,40.074,28,0.041,7618,3.9622,-109.3166
lg,1625251210042683464,0,0.6602,0.4512,0.5891,551,5.0049,-25.0244,7.4463,99,1.3126,1.0565,-48.3184,40.6097,28,0.041,7647,3.9622,-109.853
lg,1625251210042702093,0,0.6711,0.4834,0.6101,552,6.7139,-24.1089,6.4087,99,1.3126,1.0565,-48.8325,41.2893,28,0.042,8678,3.9622,-110.4288
lg,1625251210042719704,0,0.689,0.4744,0.6165,553,8.9722,-23.5596,5.249,99,1.3136,1.0565,-49.3712,42.0045,28,0.042,8467,3.9622,-111.0104
lg,1625251210042736982,0,0.7451,0.4851,0.6155,554,11.1694,-18.1885,7.2632,99,1.3126,1.0565,-49.859,42.5891,28,0.042,7861,3.9622,-111.298
lg,1625251210042754019,0,0.6987,0.4641,0.6545,555,11.4746,-13.6719,7.9956,99,1.3126,1.0565,-50.0156,42.6931,27,0.042,7698,3.9622,-111.0027
lg,1625251210042772075,0,0.6594,0.4866,0.655,556,13.1836,-5.3101,10.6812,99,1.3116,1.0575,-50.0191,42.7059,27,0.042,7815,3.9622,-110.5001
lg,1625251210042789223,0,0.6047,0.498,0.6619,557,15.7471,-10.6812,14.6484,99,1.3126,1.0565,-50.1776,42.8612,27,0.042,7787,3.9622,-110.0489
lg,1625251210042807630,0,0.5906,0.4934,0.675,558,17.2119,-15.7471,17.334,99,1.3136,1.0575,-50.4913,43.1381,27,0.042,7841,3.9622,-109.6865
lg,1625251210042826353,0,0.5581,0.5095,0.6602,559,19.4702,-25.0244,22.3999,99,1.3116,1.0555,-51.1687,43.6532,28,0.042,7849,3.9622,-109.5119
lg,1625251210042844982,0,0.5808,0.561,0.6233,560,18.4937,-35.5835,27.5879,99,1.3136,1.0575,-52.2902,44.5313,28,0.041,7902,3.9622,-109.753
lg,1625251210042861779,0,0.5806,0.5415,0.6135,561,16.6626,-40.7104,28.9917,99,1.3136,1.0575,-53.5744,45.4445,28,0.041,7882,3.9622,-110.1615
lg,1625251210042878704,0,0.6392,0.561,0.5854,562,10.437,-49.2554,31.189,99,1.3136,1.0575,-55.3179,46.5189,28,0.042,10804,3.9622,-111.2413
lg,1625251210042896593,0,0.7314,0.5632,0.5762,563,1.3428,-50.9644,30.4565,99,1.3116,1.0575,-57.0475,47.4216,28,0.041,7906,3.9622,-112.3315
lg,1625251210042913167,0,0.7454,0.5549,0.5986,564,-7.6904,-42.8467,29.2358,99,1.3136,1.0575,-58.4608,47.5964,28,0.042,7923,3.9622,-113.0089
lg,1625251210042929704,0,0.7263,0.532,0.592,565,-11.1694,-37.2925,29.2358,99,1.3136,1.0575,-59.6541,47.3269,28,0.041,7946,3.9622,-113.3347
lg,1625251210042948186,0,0.6902,0.5066,0.6101,566,-14.1602,-30.1514,31.5552,99,1.3136,1.0575,-60.7371,46.1428,27,0.042,8026,3.9622,-112.8
lg,1625251210042965871,0,0.7131,0.46,0.582,567,-15.1978,-28.8696,34.9731,99,1.3136,1.0575,-61.8608,44.7697,27,0.041,8452,3.9622,-112.0664
lg,1625251210042983779,0,0.7661,0.4387,0.5525,568,-14.2822,-28.1982,33.9355,99,1.3126,1.0575,-63.0153,43.4545,27,0.041,8036,3.9622,-111.3325
lg,1625251210043000316,0,0.7712,0.3958,0.5195,569,-13.1226,-25.5127,30.0293,99,1.3136,1.0575,-64.0274,42.1836,27,0.041,8064,3.9622,-110.5922
lg,1625251210043017612,0,0.7871,0.3989,0.5146,570,-12.8784,-24.0479,28.1372,99,1.3136,1.0575,-64.9613,40.906,28,0.042,8083,3.9622,-109.8256
lg,1625251210043059464,0,0.8333,0.377,0.499,571,-9.8877,-22.2168,23.1934,99,1.3126,1.0575,-65.7373,39.9897,28,0.041,8134,3.9622,-109.3068
lg,1625251210043080223,0,0.8125,0.3586,0.4873,572,-8.3008,-13.2446,15.9302,99,1.3126,1.0575,-66.0364,39.082,28,0.042,8773,3.9622,-108.7202
lg,1625251210043097241,0,0.7563,0.3606,0.5107,573,-7.7515,-9.0332,10.2539,99,1.3126,1.0575,-65.9449,38.3032,28,0.042,8405,3.9622,-108.2511
lg,1625251210043114093,0,0.6448,0.3552,0.5566,574,-7.019,-9.0942,9.1553,99,1.3116,1.0575,-65.6766,37.6334,27,0.041,8689,3.9622,-107.835
lg,1625251210043131075,0,0.5972,0.3367,0.606,575,-2.9297,-15.9302,10.9863,99,1.3116,1.0565,-65.4884,36.9604,27,0.041,8240,3.9622,-107.3408
lg,1625251210043148167,0,0.5964,0.2883,0.644,576,7.9346,-32.7759,15.564,99,1.3126,1.0565,-65.9462,36.9572,27,0.04,8251,3.9622,-107.1755
lg,1625251210395170093,0,0.7288,0.3696,0.5557,577,31.1279,-51.0254,26.1841,99,1.3116,1.0565,-67.4783,38.9173,27,0.042,24352,3.9622,-107.9325
lg,1625251210395226815,0,0.7961,0.4001,0.5281,578,35.5225,-46.0205,29.2358,99,1.3116,1.0565,-68.9051,40.871,27,0.043,14588,3.9622,-108.5682
lg,1625251210395257352,0,0.8018,0.4229,0.5405,579,36.9873,-38.0249,27.2217,99,1.3116,1.0575,-69.9526,42.6119,27,0.043,7772,3.9622,-108.9151
lg,1625251210395285760,0,0.8086,0.4448,0.5442,580,36.9263,-34.1187,25.5127,99,1.3126,1.0575,-70.7814,44.3155,27,0.043,8906,3.9622,-109.225
lg,1625251210395312612,0,0.8352,0.4392,0.5286,581,38.3911,-31.7383,24.7192,99,1.3116,1.0575,-71.5422,46.0148,27,0.042,7572,3.9622,-109.4763
lg,1625251210395339464,0,0.834,0.4004,0.5613,582,40.2222,-27.8931,20.874,99,1.3116,1.0575,-72.0732,47.4253,27,0.044,7595,3.9622,-109.3866
lg,1625251210395365297,0,0.8174,0.375,0.5176,583,46.3257,-21.4233,15.1367,99,1.3126,1.0575,-72.3067,49.0088,28,0.042,8093,3.9622,-109.2181
lg,1625251210395391186,0,0.8037,0.4182,0.4927,584,47.8516,-19.043,12.7563,99,1.3106,1.0565,-72.3555,50.9218,28,0.044,7883,3.9622,-109.307
lg,1625251210395416815,0,0.7725,0.4272,0.4238,585,46.6919,-18.3105,7.6904,99,1.3106,1.0565,-72.2426,53.4713,28,0.043,7659,3.9622,-110.0856
lg,1625251210395469538,0,0.7407,0.4402,0.4111,586,43.0908,-16.9678,5.249,99,1.3106,1.0575,-71.9324,56.0258,28,0.043,7668,3.9622,-111.1996
lg,1625251210395499538,0,0.7126,0.4409,0.4165,587,34.4238,-18.6157,1.709,99,1.3106,1.0575,-71.5354,58.3471,28,0.045,7665,3.9622,-112.277
lg,1625251210395525649,0,0.6921,0.4165,0.4824,588,28.2593,-22.3999,1.0986,99,1.3116,1.0555,-71.1579,60.1752,28,0.045,7667,3.9622,-113.1684
lg,1625251210395550982,0,0.7039,0.3696,0.5283,589,30.4565,-27.5269,2.7466,99,1.3116,1.0565,-70.9995,61.9706,28,0.044,10333,3.9622,-114.0055
lg,1625251210395576964,0,0.7458,0.3555,0.5183,590,39.1846,-33.9355,5.0049,99,1.3116,1.0565,-71.1078,64.6654,28,0.045,9446,3.9622,-115.4439
lg,1625251210395602186,0,0.7346,0.3682,0.5198,591,43.5181,-35.5225,5.7373,99,1.3116,1.0565,-71.2056,67.6201,27,0.045,7847,3.9622,-116.9888
lg,1625251210395627426,0,0.7615,0.4043,0.4822,592,48.645,-36.0718,9.6436,99,1.3116,1.0565,-71.4081,70.9944,27,0.046,7881,3.9622,-118.7416
lg,1625251210395653501,0,0.7864,0.4304,0.4167,593,48.5229,-35.5225,10.1318,99,1.3106,1.0565,-71.588,74.7444,27,0.046,7956,3.9622,-120.8601
lg,1625251210395679260,0,0.8088,0.4485,0.4077,594,46.0815,-34.4238,10.376,99,1.3106,1.0565,-71.7169,78.3183,27,0.047,8791,3.9622,-122.8992
lg,1625251210395705223,0,0.7981,0.4692,0.3704,595,41.2598,-31.3721,9.7656,99,1.3096,1.0565,-71.7206,81.5094,27,0.046,8381,3.9622,-124.7264
lg,1625251210395730260,0,0.8052,0.4768,0.3677,596,32.5317,-29.7241,7.3853,99,1.3106,1.0565,-71.5939,84.1082,27,0.047,7915,3.9622,-126.3079
lg,1625251210395755075,0,0.7917,0.47,0.375,597,27.4048,-29.541,6.2256,99,1.3106,1.0545,-71.46,86.2608,27,0.046,7993,3.9622,-127.6647
lg,1625251210395779889,0,0.8298,0.436,0.3816,598,20.6299,-29.4189,4.1504,99,1.3086,1.0565,-71.2877,88.0388,27,0.047,7974,3.9622,-128.9261
lg,1625251210395805186,0,0.8242,0.4214,0.4033,599,17.8223,-25.6348,2.1973,99,1.3096,1.0565,-71.0604,88.9957,27,0.046,9445,3.9622,-129.4698
lg,1625251210395839908,0,0.803,0.4026,0.4102,600,15.8691,-23.8647,3.6011,99,1.3106,1.0545,-70.9115,89.497,27,0.046,9757,3.9622,-129.6398
lg,1625251210396012704,0,0.8264,0.426,0.3953,601,13.1226,-23.0103,8.7891,99,1.3116,1.0555,-70.9422,89.9333,27,0.045,8050,3.9622,-129.8505
lg,1625251210396042889,0,0.8242,0.4333,0.4089,602,11.4746,-22.0947,10.5591,99,1.3096,1.0545,-71.0261,90.1007,28,0.046,8069,3.971,-129.8593
lg,1625251210396072167,0,0.8508,0.4026,0.4502,603,13.1226,-24.231,10.5591,99,1.3106,1.0555,-71.1942,90.3732,28,0.046,8173,3.971,-129.9337
lg,1625251210396101760,0,0.8767,0.3779,0.4407,604,20.0806,-27.1606,8.4229,99,1.3116,1.0565,-71.3379,91.367,28,0.047,8104,3.971,-130.4618
lg,1625251210396129001,0,0.9097,0.3884,0.4238,605,23.6816,-26.4282,6.5308,99,1.3096,1.0555,-71.4038,92.5676,28,0.048,8136,3.971,-131.036
lg,1625251210396157797,0,0.9246,0.4436,0.3616,606,26.6113,-21.2402,1.4648,99,1.3096,1.0555,-71.1785,93.6077,27,0.047,8262,3.971,-131.2685
lg,1625251210396183038,0,0.8794,0.4597,0.3428,607,20.9961,-12.6343,-2.8076,99,1.3106,1.0535,-70.7473,93.3465,27,0.048,8221,3.971,-130.3661
lg,1625251210396208667,0,0.8555,0.4424,0.3496,608,18.3716,-8.7891,-4.1504,99,1.3106,1.0555,-70.3193,92.2973,27,0.048,8253,3.971,-128.7751
lg,1625251210742177926,0,0.8113,0.4165,0.322,609,14.2822,-14.4043,-2.5635,99,1.3116,1.0555,-69.936,92.0465,27,0.049,24502,3.971,-128.1758
lg,1625251210742212834,0,0.8582,0.4229,0.2935,610,9.2773,-13.4277,-1.9531,99,1.3106,1.0555,-69.6179,91.7828,27,0.049,11489,3.971,-127.7481
lg,1625251210742232945,0,0.8613,0.4072,0.2969,611,2.0142,-8.728,-1.2207,99,1.3106,1.0565,-69.4236,90.2576,28,0.049,11142,3.971,-126.41
lg,1625251210742252463,0,0.8599,0.3708,0.3301,612,-2.4414,-2.8076,-0.9155,99,1.3106,1.0555,-69.2663,88.2183,28,0.049,7676,3.971,-124.6215
lg,1625251210742271074,0,0.8577,0.3511,0.3347,613,-0.1831,2.0752,-2.6855,99,1.3106,1.0565,-69.0542,85.8112,28,0.048,7588,3.971,-122.337
lg,1625251210742289074,0,0.8398,0.3716,0.353,614,2.3193,4.1504,-4.8828,99,1.3106,1.0555,-68.6655,83.3488,28,0.048,7659,3.971,-119.8808
lg,1625251210742324889,0,0.8315,0.3938,0.3145,615,5.9204,3.1128,-13.1836,99,1.3106,1.0565,-67.8989,81.6878,28,0.049,7664,3.971,-118.0683
lg,1625251210742365389,0,0.8418,0.438,0.3054,616,5.5542,-1.1597,-19.7754,99,1.3106,1.0565,-66.6408,81.1528,28,0.05,7687,3.971,-117.5395
lg,1625251210742384148,0,0.8386,0.4678,0.3101,617,-0.1221,-4.3335,-31.6772,99,1.3096,1.0555,-65.1267,80.6629,28,0.049,8738,3.971,-117.2071
lg,1625251210742402130,0,0.8408,0.4563,0.3074,618,-11.7798,-0.9766,-38.6353,99,1.3106,1.0555,-63.3952,79.5888,28,0.049,7723,3.971,-116.7527
lg,1625251210742419963,0,0.8389,0.4414,0.3562,619,-22.2778,5.8594,-42.7246,99,1.3106,1.0565,-61.5236,77.5526,27,0.05,7729,3.971,-115.7428
lg,1625251210742437315,0,0.8503,0.4133,0.4058,620,-25.1465,10.9253,-45.8984,99,1.3106,1.0565,-59.5822,75.1395,27,0.049,7852,3.971,-114.4756
lg,1625251210742454574,0,0.8501,0.4287,0.4143,621,-25.0854,13.6719,-47.9126,99,1.3086,1.0555,-57.5525,72.8827,27,0.049,7792,3.971,-113.364
lg,1625251210742472167,0,0.8201,0.4526,0.4343,622,-26.2451,19.9585,-48.4619,99,1.3106,1.0565,-55.3921,70.4524,27,0.049,7825,3.971,-112.09
lg,1625251210742490056,0,0.6833,0.4746,0.4858,623,-26.062,22.3389,-47.3633,99,1.3106,1.0545,-53.1738,67.907,27,0.049,7895,3.971,-110.739
lg,1625251210742508426,0,0.6516,0.4441,0.5339,624,-25.3296,14.7705,-38.0249,99,1.3086,1.0555,-51.3008,65.6684,27,0.049,7956,3.971,-109.7723
lg,1625251210742525334,0,0.6274,0.4441,0.5889,625,-16.7236,-5.4321,-24.292,99,1.3096,1.0555,-50.237,64.4134,27,0.048,7931,3.971,-109.6829
lg,1625251210742542482,0,0.6543,0.4299,0.5999,626,-9.1553,-14.7705,-16.1743,99,1.3106,1.0565,-50.3168,64.4283,27,0.048,7915,3.971,-110.3858
lg,1625251210742560019,0,0.7732,0.4734,0.5247,627,4.6997,-29.7241,-0.9155,99,1.3086,1.0555,-50.7556,65.0033,27,0.048,7940,3.971,-111.3815
lg,1625251210742578371,0,0.8618,0.5508,0.4387,628,6.2256,-29.48,7.8125,99,1.3096,1.0555,-51.5409,65.8669,27,0.048,7918,3.971,-112.4597
lg,1625251210742596371,0,0.8992,0.5679,0.4119,629,2.0752,-26.1841,10.376,99,1.3106,1.0565,-52.4305,66.5242,27,0.048,7920,3.971,-113.4081
lg,1625251210742614871,0,0.9482,0.5667,0.3896,630,-8.8501,-17.0898,11.0474,99,1.3076,1.0555,-53.172,66.3187,27,0.048,8007,3.971,-113.8041
lg,1625251210742649408,0,0.9929,0.5322,0.3538,631,-19.2871,-2.3193,5.7373,99,1.3106,1.0545,-53.5781,65.1519,28,0.048,7995,3.971,-113.48
lg,1625251210742669926,0,1.0105,0.5374,0.3472,632,-24.4751,6.6528,1.4648,99,1.3106,1.0565,-53.7055,63.5104,28,0.048,8044,3.971,-112.7834
lg,1625251210742687593,0,0.9829,0.5122,0.3108,633,-37.8418,26.2451,-10.7422,99,1.3086,1.0565,-53.0299,60.8208,28,0.047,8107,3.971,-111.389
lg,1625251210742705815,0,0.957,0.5027,0.3044,634,-52.9785,41.8091,-26.3062,99,1.3106,1.0565,-51.4888,57.445,28,0.047,8051,3.971,-109.8214
lg,1625251210742722982,0,0.9541,0.4668,0.2993,635,-60.791,48.9502,-33.5083,99,1.3106,1.0575,-49.2755,53.435,28,0.044,8065,3.971,-108.1768
lg,1625251210742740093,0,1.0371,0.4148,0.3318,636,-73.8525,66.04,-46.7529,99,1.3086,1.0555,-46.7134,49.3938,28,0.044,8518,3.971,-106.7263
lg,1625251210742835315,0,1.1433,0.3496,0.3765,637,-75.5005,100.3418,-60.4858,99,1.3106,1.0575,-42.9764,44.8969,28,0.046,8232,3.971,-104.7086
lg,1625251210742857686,0,0.8889,0.2673,0.5,638,-61.9507,159.4849,-75.1953,77,1.3106,1.0545,-36.877,40.1759,28,0.046,8925,3.971,-101.5891
lg,1625251210742878148,0,0.5032,0.291,0.5615,639,-51.8799,170.0439,-82.7637,77,1.3116,1.0585,-29.5031,36.9743,28,0.044,8166,3.971,-99.3157
lg,1625251210742897463,0,0.2979,0.3047,0.6021,640,-29.3579,164.3066,-81.9702,77,1.3086,1.0575,-22.0808,34.8111,28,0.044,8224,3.971,-97.7695
lg,1625251211131384222,0,0.0852,0.4011,0.6956,641,28.1372,8.606,-25.3906,77,1.3096,1.0575,-20.5865,35.9616,27,0.045,24292,3.971,-98.3561
lg,1625251211131425074,0,0.3035,0.4534,0.657,642,39.3066,-22.522,-13.6719,77,1.3096,1.0575,-22.0817,38.3776,27,0.045,8486,3.971,-99.7456
lg,1625251211131446019,0,0.5574,0.5264,0.5786,643,59.9976,-86.731,10.2539,77,1.3096,1.0575,-25.5022,41.7516,27,0.045,10236,3.971,-101.9146
lg,1625251211131465000,0,0.7847,0.5774,0.4951,644,62.3169,-95.7642,16.1133,77,1.3096,1.0575,-29.4827,45.6125,27,0.044,7673,3.971,-104.5079
lg,1625251211131483259,0,0.8665,0.6023,0.4714,645,60.5469,-89.9048,15.5029,77,1.3096,1.0575,-33.0798,49.5869,27,0.043,7610,3.971,-107.2562
lg,1625251211131501389,0,0.9658,0.6436,0.4268,646,50.9033,-70.4346,9.1553,77,1.3086,1.0575,-35.8123,53.1814,27,0.043,9328,3.971,-109.7908
lg,1625251211131519648,0,0.9749,0.6467,0.4314,647,38.7573,-47.0581,-1.0376,77,1.3106,1.0575,-37.4601,55.9819,27,0.044,7766,3.971,-111.8057
lg,1625251211131567352,0,0.9263,0.6133,0.4392,648,25.6958,-24.1089,-10.376,77,1.3106,1.0585,-38.152,57.7523,28,0.043,8777,3.971,-113.0874
lg,1625251211131587778,0,0.926,0.6118,0.458,649,20.3247,-14.1602,-14.4043,77,1.3086,1.0575,-38.4353,59.0255,28,0.042,8249,3.971,-113.9926
lg,1625251211131605778,0,0.8833,0.5823,0.4602,650,11.5356,4.5776,-23.5596,77,1.3096,1.0575,-37.9886,59.4885,28,0.043,7789,3.971,-114.2441
lg,1625251211131623500,0,0.8145,0.5574,0.4829,651,5.7373,21.7896,-32.7759,77,1.3096,1.0585,-36.8209,59.2896,28,0.042,7804,3.971,-113.9058
lg,1625251211131641204,0,0.76,0.5444,0.5098,652,4.3335,28.4424,-37.3535,77,1.3086,1.0575,-35.3232,58.8691,27,0.042,7859,3.971,-113.3715
lg,1625251211131659074,0,0.688,0.5369,0.533,653,3.54,35.7056,-43.9453,77,1.3096,1.0585,-33.3853,58.3043,27,0.043,7862,3.971,-112.7029
lg,1625251211131676074,0,0.5916,0.5083,0.5596,654,4.5166,36.2549,-45.7764,77,1.3096,1.0575,-31.225,57.8238,27,0.042,7869,3.971,-112.1347
lg,1625251211131693019,0,0.5586,0.5134,0.5583,655,8.3008,33.3252,-49.5605,77,1.3096,1.0585,-29.0786,57.5444,27,0.042,7891,3.971,-111.7488
lg,1625251211131710333,0,0.5107,0.5303,0.5652,656,13.2446,26.4893,-50.415,77,1.3076,1.0575,-27.0119,57.6237,28,0.043,9707,3.971,-111.683
lg,1625251211131727908,0,0.4829,0.5403,0.5735,657,17.2119,15.2588,-49.2554,77,1.3096,1.0585,-25.2271,58.0234,28,0.043,7917,3.971,-112.0186
lg,1625251211131745556,0,0.5244,0.5554,0.5715,658,21.2402,4.3335,-48.0957,77,1.3106,1.0585,-23.843,58.7524,28,0.044,7941,3.971,-112.7405
lg,1625251211131762574,0,0.5586,0.5649,0.5627,659,25.0244,0.7935,-46.3867,77,1.3106,1.0585,-22.694,59.6588,28,0.045,8613,3.971,-113.5425
lg,1625251211131779852,0,0.5906,0.6086,0.5779,660,26.9165,0.1831,-46.2646,77,1.3096,1.0585,-21.6081,60.7202,28,0.045,8101,3.971,-114.3083
lg,1625251211131796833,0,0.5945,0.6016,0.5837,661,29.7852,2.5024,-45.9595,77,1.3106,1.0585,-20.5125,61.6954,28,0.044,8102,3.971,-114.9673
lg,1625251211131814019,0,0.616,0.645,0.5464,662,31.4331,7.2632,-46.6309,77,1.3106,1.0595,-19.353,62.7557,28,0.044,8032,3.971,-115.4692
lg,1625251211131848611,0,0.6282,0.6514,0.5349,663,32.1655,9.3994,-46.936,77,1.3106,1.0585,-18.1675,63.7751,27,0.045,8050,3.971,-115.8226
lg,1625251211131868389,0,0.6304,0.6506,0.5454,664,31.25,13.3667,-48.1567,77,1.3106,1.0585,-16.9394,64.6687,27,0.043,8131,3.971,-116.0465
lg,1625251211131885815,0,0.6523,0.6704,0.5251,665,28.9917,20.0806,-51.5747,77,1.3086,1.0585,-15.5453,65.4409,27,0.043,8783,3.971,-116.0646
lg,1625251211131903167,0,0.6455,0.6726,0.5222,666,26.123,26.5503,-55.6641,77,1.3096,1.0585,-13.9367,66.0276,27,0.043,8111,3.971,-115.8839
lg,1625251211131919945,0,0.634,0.6809,0.5115,667,24.8413,30.3955,-56.8237,77,1.3086,1.0585,-12.2643,66.5413,28,0.043,8149,3.971,-115.5677
lg,1625251211131937074,0,0.6125,0.6699,0.521,668,22.3389,36.438,-59.8145,77,1.3106,1.0595,-10.4206,66.8737,28,0.042,8164,3.971,-115.0554
lg,1625251211131954093,0,0.5811,0.6946,0.5237,669,20.3247,40.0391,-61.7065,77,1.3096,1.0585,-8.4431,67.1275,28,0.043,8232,3.971,-114.4424
lg,1625251211131971278,0,0.5713,0.6975,0.5183,670,18.5547,41.3208,-61.8896,77,1.3116,1.0595,-6.4755,67.3495,28,0.042,8208,3.971,-113.7952
lg,1625251211131988870,0,0.5474,0.71,0.5137,671,17.0898,42.7856,-61.2183,77,1.3086,1.0595,-4.5533,67.5137,28,0.042,8286,3.971,-113.0891
lg,1625251211132130630,0,0.4753,0.6836,0.5527,672,13.855,44.6167,-58.1055,77,1.3106,1.0595,-2.6584,67.4385,28,0.041,8275,3.971,-112.2708
lg,1625251211447498518,0,0.3511,0.7078,0.5652,673,13.1836,34.2407,-44.9829,77,1.3106,1.0595,-1.2047,67.3464,27,0.042,24139,3.971,-111.6601
lg,1625251211447534870,0,0.3354,0.728,0.5786,674,13.7329,20.3857,-33.6914,77,1.3106,1.0595,-0.3794,67.2955,27,0.042,10493,3.971,-111.4072
lg,1625251211447555389,0,0.3596,0.7563,0.5588,675,12.085,4.3945,-22.3389,77,1.3106,1.0585,-0.287,67.2611,27,0.042,7813,3.971,-111.5813
lg,1625251211447574648,0,0.3545,0.7351,0.5437,676,6.897,-8.606,-10.0098,77,1.3106,1.0595,-0.8611,67.0245,27,0.042,11402,3.971,-112.0465
lg,1625251211447593055,0,0.4243,0.7356,0.5398,677,3.479,-20.6909,1.9531,77,1.3106,1.0595,-2.1815,66.6956,28,0.042,7712,3.971,-112.7653
lg,1625251211447634685,0,0.4507,0.7148,0.5415,678,2.0752,-25.2075,5.8594,77,1.3096,1.0595,-3.7368,66.322,28,0.042,7595,3.971,-113.5744
lg,1625251211447655167,0,0.5254,0.7307,0.5234,679,-1.4038,-27.2217,12.4512,77,1.3106,1.0595,-5.6459,65.9104,28,0.042,10361,3.971,-114.3393
lg,1625251211447673333,0,0.5681,0.7217,0.5171,680,-4.8828,-26.8555,14.5264,77,1.3106,1.0595,-7.6458,65.4026,27,0.041,7672,3.971,-115.0392
lg,1625251211447697796,0,0.5969,0.7024,0.5151,681,-8.4229,-24.4751,14.2822,77,1.3106,1.0595,-9.5985,64.7672,27,0.041,8916,3.971,-115.6347
lg,1625251211447716722,0,0.6086,0.6919,0.5134,682,-10.3149,-21.9116,13.5498,77,1.3106,1.0595,-11.4483,64.0729,27,0.043,8087,3.971,-116.1298
lg,1625251211447735389,0,0.6086,0.6685,0.5396,683,-11.5356,-17.4561,11.4746,77,1.3106,1.0595,-13.092,63.2628,27,0.042,7766,3.971,-116.4669
lg,1625251211447752593,0,0.5986,0.6438,0.5398,684,-9.8267,-9.5215,7.6904,77,1.3106,1.0595,-14.4102,62.4677,27,0.042,9404,3.971,-116.5615
lg,1625251211447771611,0,0.5869,0.6404,0.5325,685,-9.0332,-5.9204,5.7373,77,1.3106,1.0595,-15.4038,61.73,27,0.042,7901,3.971,-116.479
lg,1625251211447789611,0,0.5471,0.6379,0.5417,686,-6.7139,-0.7324,3.6621,77,1.3106,1.0595,-16.2462,61.0213,27,0.042,7812,3.971,-116.3127
lg,1625251211447809037,0,0.5073,0.6208,0.5532,687,-3.418,1.5259,1.8921,77,1.3106,1.0585,-16.8848,60.3976,27,0.042,8186,3.971,-116.0842
lg,1625251211447829018,0,0.5161,0.6204,0.5596,688,-1.709,2.8687,1.9531,77,1.3096,1.0585,-17.381,59.9245,27,0.042,8468,3.971,-115.8166
lg,1625251211447846611,0,0.4915,0.6157,0.5706,689,2.4414,3.7231,-0.1831,77,1.3086,1.0595,-17.8201,59.5143,27,0.042,7915,3.971,-115.5414
lg,1625251211447864315,0,0.4937,0.6213,0.5564,690,8.728,3.2959,0,77,1.3106,1.0595,-18.2647,59.407,27,0.042,7856,3.971,-115.2909
lg,1625251211447881722,0,0.5034,0.6296,0.5649,691,10.437,4.2725,-0.3052,77,1.3106,1.0595,-18.579,59.4654,27,0.042,8280,3.971,-115.0423
lg,1625251211447900018,0,0.4758,0.635,0.5752,692,15.1978,4.3335,-1.8921,77,1.3086,1.0595,-18.8487,59.5979,28,0.042,7969,3.971,-114.7838
lg,1625251211447948259,0,0.457,0.636,0.5862,693,19.165,3.1128,-2.0142,77,1.3096,1.0595,-19.0838,59.8753,28,0.042,8004,3.971,-114.5613
lg,1625251211447969944,0,0.4746,0.6621,0.5466,694,22.583,-0.6714,-1.4038,77,1.3106,1.0595,-19.4422,60.437,28,0.042,9847,3.971,-114.4985
lg,1625251211447987463,0,0.4917,0.688,0.5525,695,24.231,-1.4648,-1.709,77,1.3106,1.0595,-19.8144,61.0666,28,0.042,8016,3.971,-114.4918
lg,1625251211448005389,0,0.4866,0.6943,0.5398,696,24.1699,-1.709,-1.709,77,1.3096,1.0555,-20.1524,61.7235,27,0.042,8070,3.971,-114.4748
lg,1625251211448022444,0,0.5042,0.6975,0.5442,697,22.7051,1.4038,-1.2207,77,1.3116,1.0595,-20.4655,62.2522,27,0.042,8089,3.971,-114.3192
lg,1625251211448041611,0,0.5107,0.7195,0.5549,698,21.7285,2.3193,-1.8921,77,1.3106,1.0595,-20.6518,62.6868,27,0.042,8103,3.971,-114.0642
lg,1625251211448060222,0,0.5049,0.7312,0.5586,699,20.5078,6.4087,-2.1362,77,1.3086,1.0595,-20.7879,63.047,27,0.041,8129,3.971,-113.7239
lg,1625251211448077518,0,0.4858,0.7419,0.5518,700,19.3481,8.3008,-2.8076,77,1.3106,1.0595,-20.8206,63.3492,27,0.041,8142,3.971,-113.3254
lg,1625251211448093963,0,0.4741,0.7583,0.5339,701,18.1885,8.1177,-3.8452,77,1.3106,1.0565,-20.7679,63.6131,27,0.042,8168,3.971,-112.9622
lg,1625251211448110093,0,0.4683,0.7451,0.5542,702,15.9302,8.8501,-4.2114,77,1.3096,1.0595,-20.707,63.7558,27,0.043,8180,3.971,-112.558
lg,1625251211448126926,0,0.4368,0.7502,0.5444,703,13.6719,7.1411,-4.2725,77,1.3106,1.0555,-20.6151,63.8472,27,0.043,8220,3.971,-112.2259
lg,1625251211448143593,0,0.4412,0.7441,0.5554,704,11.7188,4.5776,-3.479,77,1.3116,1.0565,-20.6093,63.8582,28,0.043,8202,3.971,-111.9663
lg,1625251211788507963,0,0.447,0.7595,0.55,705,6.958,0.1221,-2.0752,77,1.3106,1.0585,-20.7326,63.7608,28,0.043,24647,3.971,-111.8626
lg,1625251211788575111,0,0.4683,0.7598,0.5515,706,4.6387,-0.8545,-1.77,77,1.3116,1.0595,-20.9195,63.5862,28,0.043,9507,3.971,-111.7913
lg,1625251211788595555,0,0.447,0.7168,0.563,707,2.1973,0.1221,-1.6479,77,1.3116,1.0595,-21.0756,63.2238,28,0.044,10160,3.971,-111.6516
lg,1625251211788640555,0,0.4666,0.7542,0.5566,708,1.709,-0.3052,-1.6479,77,1.3116,1.0595,-21.2419,62.9263,28,0.044,10011,3.971,-111.5559
lg,1625251211788660315,0,0.467,0.7605,0.522,709,1.0986,-1.77,-2.1973,77,1.3116,1.0595,-21.4147,62.6949,28,0.044,7586,3.971,-111.5755
lg,1625251211788679055,0,0.491,0.7544,0.5381,710,-0.5493,-1.3428,-2.9907,77,1.3116,1.0595,-21.5938,62.3905,27,0.044,7665,3.971,-111.5657
lg,1625251211788697666,0,0.4724,0.7297,0.5503,711,-2.5024,-0.6714,-2.9907,77,1.3116,1.0595,-21.7333,61.9516,27,0.044,7605,3.971,-111.5124
lg,1625251211788716037,0,0.4817,0.7256,0.5457,712,-2.8687,0.9155,-3.9673,77,1.3116,1.0595,-21.7729,61.5003,27,0.044,8899,3.971,-111.4176
lg,1625251211788733037,0,0.4675,0.7188,0.5417,713,-2.5635,0.7324,-3.7842,77,1.3106,1.0585,-21.8548,61.0803,28,0.044,9007,3.971,-111.3408
lg,1625251211788750148,0,0.4695,0.7112,0.5342,714,-2.7466,2.1362,-4.3945,77,1.3106,1.0595,-21.8991,60.659,28,0.044,7865,3.971,-111.2321
lg,1625251211788766796,0,0.4497,0.6929,0.5535,715,-2.6245,3.479,-4.3335,77,1.3116,1.0595,-21.8833,60.173,28,0.043,7768,3.971,-111.054
lg,1625251211788783129,0,0.4407,0.6914,0.5767,716,-2.0752,3.6011,-4.5166,77,1.3096,1.0595,-21.8286,59.6797,28,0.044,7787,3.971,-110.8664
lg,1625251211788799574,0,0.4392,0.6746,0.5754,717,0.8545,2.8076,-3.9673,77,1.3116,1.0565,-21.8219,59.3064,27,0.044,7796,3.9721,-110.6972
lg,1625251211788817185,0,0.4175,0.6631,0.5757,718,2.4414,0.6104,-4.1504,77,1.3116,1.0595,-21.8258,59.0424,27,0.044,7747,3.9721,-110.6201
lg,1625251211788834296,0,0.4136,0.6697,0.573,719,6.897,-2.5024,-2.8076,77,1.3116,1.0595,-21.9184,58.9919,27,0.044,7789,3.9721,-110.6308
lg,1625251211788850926,0,0.439,0.6904,0.5618,720,8.9722,-5.4932,-2.5024,77,1.3116,1.0595,-22.1195,59.1224,27,0.044,7845,3.9721,-110.7675
lg,1625251211788866907,0,0.4534,0.6831,0.5554,721,8.8501,-4.5166,-2.5635,77,1.3096,1.0585,-22.3297,59.2339,28,0.043,7918,3.9721,-110.8677
lg,1625251211788883148,0,0.4661,0.6958,0.5535,722,9.3384,-4.9438,-2.6245,77,1.3116,1.0565,-22.5533,59.392,28,0.044,7941,3.9721,-110.9921
lg,1625251211788910629,0,0.4736,0.6794,0.561,723,9.2773,-4.1504,-2.2583,77,1.3116,1.0585,-22.7611,59.4913,28,0.044,7948,3.9721,-111.0701
lg,1625251211788927740,0,0.4688,0.7019,0.5637,724,10.1929,-3.54,-3.9062,77,1.3106,1.0595,-22.8893,59.6544,28,0.044,7963,3.9721,-111.1601
lg,1625251211788945018,0,0.4817,0.7068,0.5664,725,11.2305,-2.4414,-4.5776,77,1.3116,1.0595,-22.9867,59.8462,28,0.044,8121,3.9721,-111.2216
lg,1625251211788961889,0,0.488,0.7087,0.5591,726,10.9253,-0.3662,-5.8594,77,1.3126,1.0605,-22.9503,59.983,28,0.044,8050,3.9721,-111.1932
lg,1625251211788978426,0,0.5046,0.7249,0.5688,727,9.5215,2.2583,-7.5073,77,1.3106,1.0595,-22.8774,60.0735,28,0.044,7973,3.9721,-111.1441
lg,1625251211788995833,0,0.4741,0.7258,0.5618,728,8.728,7.2632,-9.8267,77,1.3116,1.0595,-22.5727,60.0862,28,0.043,8034,3.9721,-110.9593
lg,1625251211789012296,0,0.4441,0.7327,0.5535,729,7.3853,8.667,-10.498,77,1.3116,1.0595,-22.1682,60.0533,28,0.044,11087,3.9721,-110.7465
lg,1625251211789028926,0,0.4131,0.7229,0.5798,730,7.6294,7.9346,-10.0708,77,1.3116,1.0595,-21.7413,59.9717,28,0.044,8172,3.9721,-110.5298
lg,1625251211789045666,0,0.4163,0.7324,0.5791,731,7.8735,5.4932,-9.9487,77,1.3116,1.0595,-21.3831,59.9527,28,0.044,8198,3.9721,-110.412
lg,1625251211789062518,0,0.4104,0.7329,0.5742,732,8.0566,2.9907,-9.2773,77,1.3116,1.0595,-21.1018,59.9801,28,0.044,8315,3.9721,-110.3789
lg,1625251211789115500,0,0.4224,0.74,0.5918,733,7.9956,-0.9766,-8.728,77,1.3116,1.0595,-20.9398,60.0312,27,0.044,8207,3.9721,-110.4747
lg,1625251211789194463,0,0.4302,0.7493,0.5586,734,8.2397,-2.8687,-8.1787,77,1.3116,1.0595,-20.8641,60.1869,27,0.043,8901,3.9721,-110.6564
lg,1625251211789213833,0,0.4646,0.7488,0.5623,735,7.3853,-3.1128,-8.728,77,1.3106,1.0595,-20.8823,60.2355,27,0.043,8667,3.9721,-110.8492
lg,1625251211789234166,0,0.4678,0.7476,0.5552,736,5.8594,-2.7466,-8.4839,77,1.3106,1.0575,-20.8725,60.297,27,0.044,8395,3.9721,-111.0322
lg,1625251212131896462,0,0.4634,0.7346,0.5642,737,1.4648,2.8076,-9.2163,77,1.3116,1.0595,-20.7263,60.0774,27,0.044,24465,3.9721,-111.0104
lg,1625251212131933777,0,0.4456,0.7344,0.5581,738,0.4883,2.9907,-8.0566,77,1.3116,1.0595,-20.5904,59.8258,27,0.043,8697,3.9721,-110.9657
lg,1625251212131953092,0,0.4387,0.7197,0.5728,739,0.3662,2.9297,-6.7139,77,1.3116,1.0595,-20.4981,59.521,27,0.043,10143,3.9721,-110.8829
lg,1625251212131971703,0,0.4421,0.72,0.5737,740,0.7324,2.8076,-5.9204,77,1.3116,1.0595,-20.445,59.2376,27,0.043,8393,3.9721,-110.7933
lg,1625251212131989370,0,0.4375,0.7107,0.5701,741,0.9155,3.7842,-5.4321,77,1.3116,1.0595,-20.3896,58.9743,27,0.044,7548,3.9721,-110.6945
lg,1625251212132006259,0,0.4446,0.7134,0.5776,742,2.6855,3.0518,-5.127,77,1.3116,1.0595,-20.3704,58.7651,28,0.044,7563,3.9721,-110.5832
lg,1625251212132022685,0,0.4148,0.7166,0.5693,743,4.1504,1.8921,-4.3335,77,1.3116,1.0595,-20.344,58.6481,28,0.044,7635,3.9721,-110.5067
lg,1625251212132039277,0,0.4202,0.7058,0.5806,744,4.7607,2.6245,-4.6997,77,1.3116,1.0595,-20.3047,58.5174,28,0.043,8574,3.9721,-110.4009
lg,1625251212132055759,0,0.4224,0.7065,0.5828,745,6.5308,0.5493,-5.127,77,1.3106,1.0595,-20.298,58.4893,28,0.044,8056,3.9721,-110.3818
lg,1625251212132071759,0,0.4431,0.7207,0.5725,746,7.5684,0.7935,-5.6763,77,1.3116,1.0595,-20.3036,58.547,27,0.044,7670,3.9721,-110.381
lg,1625251212132087759,0,0.436,0.7349,0.574,747,7.4463,2.5635,-6.1646,77,1.3106,1.0595,-20.2297,58.5954,27,0.044,7719,3.9721,-110.3313
lg,1625251212132104037,0,0.4243,0.7297,0.5728,748,7.3853,6.7139,-7.5684,77,1.3126,1.0605,-20.0062,58.5922,27,0.044,7748,3.9721,-110.1587
lg,1625251212132120129,0,0.4368,0.7319,0.5691,749,6.7749,7.6294,-8.1177,77,1.3126,1.0595,-19.7124,58.581,27,0.045,7776,3.9721,-109.9743
lg,1625251212132136425,0,0.3772,0.7378,0.592,750,7.2632,9.4604,-7.3242,77,1.3106,1.0595,-19.3544,58.5112,28,0.044,8409,3.9721,-109.6905
lg,1625251212132152944,0,0.3684,0.7354,0.5728,751,8.4229,6.4087,-5.8594,77,1.3116,1.0595,-19.1012,58.5097,28,0.044,7825,3.9721,-109.4858
lg,1625251212132183481,0,0.3704,0.7383,0.5894,752,8.3008,3.1738,-4.9438,77,1.3116,1.0595,-18.9601,58.5484,28,0.044,8497,3.9721,-109.3836
lg,1625251212132201888,0,0.3713,0.7278,0.5776,753,8.4839,0.8545,-3.2959,77,1.3116,1.0605,-18.9434,58.6154,28,0.044,7898,3.9721,-109.3315
lg,1625251212132219333,0,0.374,0.7354,0.5779,754,8.1177,-0.6104,-2.8076,92,1.3126,1.0595,-19.0285,58.679,27,0.044,7840,3.9721,-109.3891
lg,1625251212132238092,0,0.3694,0.7222,0.585,755,7.0801,-3.2349,-1.1597,92,1.3116,1.0605,-19.1629,58.6956,27,0.044,7845,3.9721,-109.4288
lg,1625251212132256000,0,0.3904,0.7302,0.5842,756,6.897,-3.8452,-1.709,92,1.3126,1.0605,-19.3241,58.7308,27,0.044,7887,3.9721,-109.5068
lg,1625251212132273185,0,0.3904,0.75,0.5757,757,6.958,-2.7466,-1.4648,92,1.3116,1.0595,-19.4662,58.7378,27,0.045,8970,3.9721,-109.509
lg,1625251212132289925,0,0.3857,0.738,0.5964,758,5.9814,-2.3193,-1.0986,92,1.3116,1.0595,-19.5842,58.7001,27,0.044,7987,3.9721,-109.5121
lg,1625251212132307074,0,0.397,0.7358,0.5745,759,5.7373,-3.1128,-1.2207,92,1.3126,1.0595,-19.7443,58.7039,27,0.044,7977,3.9721,-109.5599
lg,1625251212132323796,0,0.4097,0.7473,0.583,760,5.0659,-3.418,-1.4038,92,1.3126,1.0595,-19.943,58.7047,27,0.045,8007,3.9721,-109.6561
lg,1625251212132340425,0,0.4236,0.7283,0.5723,761,5.0659,-2.5635,-2.1973,92,1.3106,1.0595,-20.1054,58.6785,27,0.044,8016,3.9721,-109.7023
lg,1625251212132356796,0,0.4014,0.7336,0.5886,762,5.249,-0.2441,-2.7466,92,1.3116,1.0595,-20.1378,58.6104,27,0.045,8008,3.9721,-109.667
lg,1625251212132373537,0,0.4048,0.731,0.5679,763,5.0659,0.8545,-3.418,92,1.3126,1.0605,-20.1368,58.5348,27,0.044,8003,3.9721,-109.6093
lg,1625251212132390685,0,0.4121,0.7356,0.5823,764,6.2866,-0.2441,-5.0659,92,1.3106,1.0605,-20.1123,58.5473,27,0.044,7995,3.9721,-109.6328
lg,1625251212132408259,0,0.426,0.7319,0.5759,765,5.5542,2.1973,-5.9204,92,1.3126,1.0595,-20.043,58.5142,27,0.045,8063,3.9721,-109.5889
lg,1625251212132425407,0,0.426,0.7173,0.5779,766,4.8218,4.1504,-6.7749,92,1.3116,1.0595,-19.895,58.3845,27,0.045,8115,3.9721,-109.4764
lg,1625251212132454592,0,0.4167,0.7356,0.5664,767,5.7373,7.1411,-8.1177,92,1.3096,1.0595,-19.6399,58.3437,27,0.044,8153,3.9721,-109.3135
lg,1625251212132472074,0,0.3845,0.7153,0.5928,768,5.7983,9.7656,-9.5825,92,1.3126,1.0605,-19.2264,58.2055,27,0.045,8176,3.9721,-109.0633
lg,1625251212482460277,0,0.3828,0.7383,0.584,769,7.0801,10.2539,-10.8643,92,1.3126,1.0605,-18.7652,58.2448,27,0.044,26273,3.9721,-108.8882
lg,1625251212482502536,0,0.3813,0.7349,0.5747,770,8.7891,8.2397,-10.9253,92,1.3126,1.0605,-18.3526,58.3137,27,0.044,8765,3.9721,-108.747
lg,1625251212482523184,0,0.384,0.7458,0.5916,771,8.667,7.5684,-11.0474,92,1.3126,1.0595,-17.9639,58.3773,27,0.045,14349,3.9721,-108.631
lg,1625251212482542259,0,0.3794,0.7424,0.5752,772,9.3384,7.5684,-11.2305,92,1.3116,1.0605,-17.5847,58.4922,27,0.044,7616,3.9721,-108.5272
lg,1625251212482567425,0,0.3877,0.7378,0.5864,773,9.0332,7.6294,-11.4136,92,1.3116,1.0605,-17.2284,58.5648,27,0.044,7654,3.9721,-108.4165
lg,1625251212482585092,0,0.3745,0.7512,0.5884,774,8.5449,8.8501,-11.2915,92,1.3126,1.0605,-16.828,58.616,27,0.044,9185,3.9721,-108.2642
lg,1625251212482602851,0,0.3618,0.7405,0.5813,775,8.4229,8.667,-10.1318,92,1.3126,1.0605,-16.4707,58.6529,27,0.044,7684,3.9721,-108.0934
lg,1625251212482619981,0,0.3608,0.7507,0.6067,776,8.5449,8.3008,-9.9487,92,1.3116,1.0605,-16.1219,58.6646,27,0.044,7737,3.9721,-107.9239
lg,1625251212482637851,0,0.3457,0.7527,0.5979,777,8.5449,5.249,-8.667,92,1.3116,1.0605,-15.8645,58.7161,27,0.044,7780,3.9721,-107.8421
lg,1625251212482657555,0,0.3472,0.7588,0.5791,778,8.5449,3.7842,-7.9956,92,1.3116,1.0605,-15.7292,58.8298,27,0.045,7763,3.9721,-107.8219
lg,1625251212482674073,0,0.3269,0.7627,0.5889,779,7.5684,2.9297,-6.7139,92,1.3126,1.0605,-15.5931,58.9029,27,0.045,7732,3.9721,-107.7952
lg,1625251212482690647,0,0.3223,0.7698,0.6025,780,5.3101,0.1221,-4.5166,92,1.3106,1.0595,-15.5426,58.8546,27,0.044,9499,3.9721,-107.8098
lg,1625251212482708666,0,0.3311,0.7517,0.5793,781,3.9062,-1.1597,-1.8921,92,1.3116,1.0605,-15.6483,58.7676,27,0.044,7781,3.9721,-107.8196
lg,1625251212482786518,0,0.3237,0.7505,0.5962,782,3.6011,-3.2349,-1.5259,92,1.3116,1.0605,-15.8405,58.6836,27,0.044,7965,3.9721,-107.9163
lg,1625251212482810296,0,0.3271,0.7629,0.6016,783,4.1504,-6.1035,-0.3662,92,1.3106,1.0605,-16.0649,58.6267,28,0.044,8109,3.9721,-108.063
lg,1625251212482829573,0,0.3413,0.7446,0.5847,784,4.8218,-8.7891,1.0986,92,1.3126,1.0605,-16.4336,58.6241,28,0.045,7862,3.9721,-108.2752
lg,1625251212482847092,0,0.3521,0.752,0.5891,785,4.7607,-8.728,1.0376,92,1.3126,1.0605,-16.8024,58.6216,28,0.044,7875,3.9721,-108.4857
lg,1625251212482864147,0,0.3672,0.7542,0.5969,786,4.7607,-10.0708,1.2207,92,1.3116,1.0605,-17.2154,58.6253,28,0.044,7928,3.9721,-108.7365
lg,1625251212482883073,0,0.365,0.741,0.5852,787,3.418,-8.1787,0.8545,92,1.3126,1.0605,-17.5698,58.5621,28,0.045,7995,3.9721,-108.9268
lg,1625251212482900222,0,0.3635,0.7505,0.5938,788,3.0518,-7.3242,0.8545,92,1.3116,1.0605,-17.8687,58.5223,28,0.044,8706,3.9721,-109.0736
lg,1625251212482916833,0,0.386,0.7441,0.6008,789,2.6855,-5.9204,0.1831,92,1.3126,1.0595,-18.1415,58.3891,28,0.044,9514,3.9721,-109.1876
lg,1625251212482934110,0,0.3816,0.7402,0.6067,790,3.0518,-5.188,-1.0376,92,1.3126,1.0605,-18.3591,58.2635,27,0.044,8032,3.9721,-109.2981
lg,1625251212482951592,0,0.3833,0.7585,0.5876,791,3.7842,-3.0518,-1.4648,92,1.3126,1.0605,-18.5084,58.2119,27,0.044,8063,3.9721,-109.3612
lg,1625251212482969907,0,0.3425,0.7319,0.613,792,3.479,-1.4038,-2.5024,92,1.3126,1.0605,-18.5047,58.0504,27,0.045,8060,3.9721,-109.3601
lg,1625251212482986684,0,0.3293,0.7407,0.5901,793,4.8828,0.3662,-3.418,92,1.3126,1.0575,-18.4087,57.9918,27,0.044,8124,3.9721,-109.3354
lg,1625251212483003222,0,0.3315,0.7654,0.593,794,5.9204,-1.8311,-2.9297,92,1.3136,1.0575,-18.3674,58.0282,28,0.045,8110,3.9721,-109.3893
lg,1625251212483020703,0,0.3135,0.7524,0.6079,795,5.7373,-2.3193,-2.4414,92,1.3126,1.0575,-18.3185,58.0105,28,0.044,8161,3.9721,-109.4347
lg,1625251212483037647,0,0.3228,0.7612,0.5854,796,5.9814,-4.4556,-2.2583,92,1.3126,1.0605,-18.3454,58.0811,28,0.045,8194,3.9721,-109.5703
lg,1625251212483068147,0,0.3184,0.761,0.5908,797,4.5776,-5.7983,-1.2207,92,1.3136,1.0605,-18.4233,58.0901,28,0.044,8217,3.9721,-109.7268
lg,1625251212483087036,0,0.3237,0.7651,0.5938,798,4.8218,-6.8359,-1.0986,92,1.3126,1.0615,-18.5633,58.0608,27,0.044,8195,3.9721,-109.8985
lg,1625251212483103666,0,0.3359,0.7371,0.6042,799,4.5776,-8.4229,-0.1831,92,1.3116,1.0605,-18.7697,58.0361,27,0.044,8372,3.9721,-110.107
lg,1625251212483120277,0,0.3582,0.7471,0.5908,800,5.7983,-8.3618,-0.7935,92,1.3136,1.0605,-18.9916,58.1071,27,0.044,8260,3.9721,-110.3398
lg,1625251212825001832,0,0.3789,0.7666,0.5845,801,5.188,-6.0425,-1.709,92,1.3126,1.0605,-19.1572,58.172,28,0.044,24428,3.9721,-110.5213
lg,1625251212825057332,0,0.353,0.7585,0.6038,802,4.3945,-3.8452,-2.3193,92,1.3126,1.0605,-19.1937,58.1325,28,0.044,9272,3.9721,-110.6198
lg,1625251212825077425,0,0.3499,0.739,0.6047,803,3.7842,-2.7466,-2.6245,92,1.3126,1.0605,-19.171,58.0663,28,0.045,11442,3.9721,-110.6881
lg,1625251212825095999,0,0.3369,0.7542,0.5962,804,4.4556,-2.1973,-2.6855,92,1.3126,1.0605,-19.1324,58.023,27,0.045,7760,3.9721,-110.7389
lg,1625251212825113314,0,0.3384,0.7566,0.6028,805,4.0894,-4.7607,-0.7935,92,1.3126,1.0605,-19.2122,57.9746,27,0.045,7561,3.9721,-110.8376
lg,1625251212825129925,0,0.3293,0.7644,0.5891,806,4.7607,-4.9438,0.1831,92,1.3126,1.0605,-19.3019,57.9605,27,0.045,7839,3.9721,-110.9279
lg,1625251212825147740,0,0.3301,0.7651,0.5806,807,4.2114,-5.249,0.5493,92,1.3126,1.0605,-19.4166,57.9688,27,0.045,9167,3.9721,-111.032
lg,1625251212825165703,0,0.3477,0.7339,0.5752,808,4.2725,-6.2866,1.4648,92,1.3136,1.0605,-19.6394,57.9518,28,0.045,7730,3.9721,-111.1413
lg,1625251212825182518,0,0.3474,0.7498,0.5864,809,4.0894,-7.5684,2.1362,92,1.3136,1.0605,-19.8873,57.9407,28,0.044,7848,3.9721,-111.2818
lg,1625251212825199481,0,0.356,0.7454,0.5913,810,3.7842,-7.5073,2.8076,92,1.3116,1.0605,-20.1656,57.8976,28,0.044,8287,3.9721,-111.3991
lg,1625251212825239406,0,0.3679,0.7502,0.5867,811,4.4556,-5.7983,1.4038,92,1.3126,1.0575,-20.3731,57.8899,28,0.044,7754,3.9721,-111.4914
lg,1625251212825257925,0,0.365,0.7432,0.5977,812,4.7607,-6.7139,1.8311,92,1.3126,1.0605,-20.5652,57.8619,27,0.045,7756,3.9721,-111.5454
lg,1625251212825274462,0,0.3618,0.7485,0.5906,813,5.3101,-5.7373,1.5259,92,1.3116,1.0615,-20.7465,57.8782,27,0.045,7796,3.9721,-111.6282
lg,1625251212825291092,0,0.3569,0.7458,0.6047,814,5.4932,-6.1035,1.1597,92,1.3126,1.0605,-20.9018,57.8784,27,0.045,7803,3.9721,-111.7208
lg,1625251212825307906,0,0.3733,0.751,0.6084,815,6.4087,-4.3945,1.3428,92,1.3126,1.0615,-21.043,57.9079,27,0.045,7901,3.9721,-111.7523
lg,1625251212825325536,0,0.3506,0.7515,0.585,816,6.7139,-3.418,0.6714,92,1.3136,1.0615,-21.1045,57.9698,27,0.045,7858,3.9721,-111.7729
lg,1625251212825342240,0,0.3459,0.7512,0.5923,817,7.2632,-4.0894,1.0376,92,1.3126,1.0615,-21.1775,58.0424,27,0.044,7821,3.9721,-111.8034
lg,1625251212825358629,0,0.3474,0.7434,0.5925,818,7.1411,-3.7842,1.2207,92,1.3106,1.0595,-21.2556,58.0902,27,0.044,7851,3.9721,-111.8132
lg,1625251212825375444,0,0.3599,0.741,0.5986,819,7.0801,-4.8218,1.5259,92,1.3136,1.0615,-21.3878,58.1309,27,0.045,7925,3.9721,-111.8479
lg,1625251212825391647,0,0.3491,0.751,0.5972,820,7.8735,-5.6763,1.2817,92,1.3136,1.0575,-21.5289,58.2302,28,0.044,7937,3.9721,-111.9271
lg,1625251212825407629,0,0.3545,0.7644,0.6042,821,7.8125,-5.188,1.5259,92,1.3116,1.0615,-21.6289,58.3226,28,0.045,7978,3.9721,-111.9809
lg,1625251212825423666,0,0.3582,0.7627,0.6033,822,6.8359,-4.8218,2.9297,92,1.3126,1.0605,-21.774,58.3556,28,0.045,11006,3.9721,-111.988
lg,1625251212825440518,0,0.3496,0.7673,0.6023,823,6.8359,-5.0049,3.1128,92,1.3126,1.0605,-21.9033,58.396,28,0.045,8045,3.9721,-111.9996
lg,1625251212825456869,0,0.3442,0.7405,0.6074,824,6.5918,-4.8218,2.6855,92,1.3126,1.0605,-22.0133,58.3771,28,0.045,8104,3.9721,-111.9946
lg,1625251212825473573,0,0.344,0.7488,0.5908,825,6.3477,-4.3945,2.9297,92,1.3126,1.0605,-22.119,58.3848,28,0.045,8065,3.9721,-111.9845
lg,1625251212825500981,0,0.3345,0.739,0.5845,826,6.0425,-4.4556,2.8687,92,1.3136,1.0605,-22.2085,58.3785,28,0.044,8098,3.9721,-111.9763
lg,1625251212825518444,0,0.3245,0.7427,0.5964,827,5.4932,-4.2114,2.5635,92,1.3126,1.0595,-22.2507,58.3312,28,0.045,9508,3.9721,-111.9587
lg,1625251212825534814,0,0.3276,0.751,0.592,828,5.188,-4.3335,1.2817,92,1.3116,1.0605,-22.2534,58.3072,28,0.045,8541,3.9721,-111.9829
lg,1625251212825551703,0,0.3276,0.7471,0.604,829,5.6152,-4.6387,2.0752,92,1.3116,1.0595,-22.2873,58.2701,28,0.045,8152,3.9721,-111.9898
lg,1625251212825568610,0,0.3604,0.7539,0.5979,830,5.6763,-7.019,1.709,92,1.3126,1.0605,-22.4232,58.2979,28,0.045,8189,3.9721,-112.1023
lg,1625251212825584925,0,0.355,0.7583,0.5942,831,5.8594,-5.9204,0.6104,92,1.3136,1.0615,-22.4808,58.339,27,0.045,8273,3.9721,-112.2032
lg,1625251212825601110,0,0.3613,0.7476,0.5913,832,6.2866,-5.7983,0.3052,92,1.3126,1.0615,-22.5459,58.3883,27,0.045,8225,3.9721,-112.3025
lg,1625251213166406999,0,0.343,0.75,0.5942,833,6.5918,-3.8452,0,92,1.3126,1.0615,-22.5153,58.4181,28,0.045,24569,3.9699,-112.3338
lg,1625251213166461388,0,0.3313,0.762,0.5869,834,7.019,-4.2725,0.1221,92,1.3106,1.0605,-22.4694,58.4992,28,0.045,9309,3.9699,-112.3896
lg,1625251213166483166,0,0.3438,0.7463,0.5857,835,6.4087,-5.3101,1.2817,92,1.3126,1.0615,-22.5169,58.5578,28,0.045,15138,3.9699,-112.4689
lg,1625251213166503406,0,0.3474,0.7581,0.5891,836,5.7983,-6.1035,1.4648,92,1.3136,1.0605,-22.5898,58.5904,27,0.045,7876,3.9699,-112.5572
lg,1625251213166522110,0,0.3486,0.7344,0.5977,837,5.7373,-6.1035,1.0986,92,1.3126,1.0615,-22.6624,58.5718,27,0.045,7590,3.9699,-112.6332
lg,1625251213166540277,0,0.3745,0.7493,0.605,838,5.4932,-6.3477,1.1597,92,1.3126,1.0615,-22.7617,58.5597,27,0.045,7598,3.9699,-112.7216
lg,1625251213166557314,0,0.3794,0.7549,0.5981,839,6.4087,-5.0659,0,92,1.3126,1.0615,-22.8181,58.5962,27,0.045,7751,3.9699,-112.7959
lg,1625251213166574591,0,0.3699,0.7454,0.6025,840,5.9204,-4.1504,-0.3052,92,1.3126,1.0615,-22.8281,58.5782,28,0.045,7599,3.9699,-112.8334
lg,1625251213166591814,0,0.375,0.7517,0.6118,841,5.8594,-3.7842,-0.9766,92,1.3116,1.0605,-22.7693,58.5935,28,0.045,8745,3.9699,-112.8861
lg,1625251213166640406,0,0.3601,0.7461,0.6177,842,5.7983,-3.6011,-1.6479,92,1.3126,1.0605,-22.6976,58.5464,28,0.045,7701,3.9699,-112.9227
lg,1625251213166659777,0,0.353,0.7708,0.605,843,5.6763,-3.479,-2.6855,92,1.3126,1.0605,-22.5651,58.5621,28,0.045,7762,3.9699,-113.002
lg,1625251213166677462,0,0.3623,0.7561,0.6157,844,5.9814,-2.9297,-2.6855,92,1.3136,1.0605,-22.4508,58.5413,27,0.045,7761,3.9699,-113.0458
lg,1625251213166693869,0,0.3518,0.7605,0.5872,845,4.3945,-2.5024,-3.54,92,1.3126,1.0615,-22.2897,58.5183,27,0.045,13177,3.9699,-113.1166
lg,1625251213166710314,0,0.3411,0.772,0.5918,846,4.8218,-2.0142,-3.2959,92,1.3126,1.0615,-22.1018,58.5108,27,0.045,7859,3.9699,-113.1674
lg,1625251213166726795,0,0.3486,0.7666,0.5869,847,3.6621,-0.9155,-3.9673,92,1.3136,1.0615,-21.8967,58.4499,27,0.045,7833,3.9699,-113.1945
lg,1625251213166743036,0,0.3384,0.7502,0.5908,848,2.9907,-2.6855,-2.3804,92,1.3136,1.0615,-21.7782,58.3438,28,0.045,7872,3.9699,-113.2411
lg,1625251213166759351,0,0.3196,0.7419,0.5984,849,2.7466,-3.2349,-2.8076,92,1.3136,1.0605,-21.624,58.2149,28,0.045,8037,3.9699,-113.3093
lg,1625251213166775721,0,0.3259,0.7502,0.6079,850,3.3569,-4.0894,-2.4414,92,1.3136,1.0615,-21.511,58.1186,28,0.045,7941,3.9699,-113.4011
lg,1625251213166792054,0,0.3416,0.7573,0.5867,851,4.0283,-4.5776,-1.4648,92,1.3116,1.0605,-21.4824,58.103,28,0.045,8547,3.9699,-113.5096
lg,1625251213166808369,0,0.3206,0.7419,0.593,852,3.2349,-5.3711,-1.5259,92,1.3136,1.0615,-21.4324,58.0312,28,0.045,7979,3.9699,-113.6356
lg,1625251213166825258,0,0.3298,0.7493,0.5999,853,3.9673,-6.7749,-0.6104,92,1.3136,1.0615,-21.4575,58.0011,28,0.045,7992,3.9699,-113.7927
lg,1625251213166841536,0,0.3538,0.7444,0.5925,854,4.3945,-6.4087,-0.7935,92,1.3136,1.0605,-21.5241,57.9947,28,0.045,8011,3.9699,-113.944
lg,1625251213166858462,0,0.3518,0.7483,0.5842,855,3.9673,-6.0425,-1.6479,92,1.3126,1.0605,-21.5481,57.9953,28,0.045,7984,3.9699,-114.1091
lg,1625251213166874573,0,0.3467,0.7537,0.595,856,4.4556,-4.6387,-1.2207,92,1.3136,1.0605,-21.5376,57.9798,27,0.045,8039,3.9699,-114.2082
lg,1625251213166916129,0,0.334,0.7578,0.5886,857,4.1504,-4.1504,-1.0986,92,1.3126,1.0615,-21.4946,57.9623,27,0.045,8089,3.9699,-114.2934
lg,1625251213166935017,0,0.3367,0.7446,0.5979,858,4.6997,-4.6997,-0.5493,92,1.3126,1.0605,-21.4939,57.9335,27,0.045,8098,3.9699,-114.373
lg,1625251213167004073,0,0.3391,0.7454,0.5811,859,4.6997,-4.8828,0.061,92,1.3136,1.0615,-21.5291,57.9366,27,0.045,8054,3.9699,-114.4581
lg,1625251213167022536,0,0.3518,0.7559,0.6001,860,4.2114,-5.127,0.3662,92,1.3136,1.0615,-21.5906,57.9009,28,0.045,8068,3.9699,-114.5376
lg,1625251213167039758,0,0.3413,0.748,0.5972,861,4.7607,-4.8218,0.1221,92,1.3126,1.0605,-21.6194,57.8799,28,0.045,8094,3.9699,-114.6093
lg,1625251213167056388,0,0.3486,0.7495,0.5874,862,5.3101,-6.6528,0.9766,92,1.3136,1.0615,-21.7327,57.9205,28,0.045,8078,3.9699,-114.7366
lg,1625251213167072777,0,0.3413,0.7412,0.6011,863,5.9204,-6.2866,1.1597,92,1.3136,1.0585,-21.8246,57.9389,28,0.045,8114,3.9699,-114.8309
lg,1625251213167126314,0,0.3447,0.749,0.5964,864,6.5308,-6.5918,0.8545,92,1.3116,1.0595,-21.9128,58.0084,27,0.045,8177,3.9699,-114.9506
lg,1625251213526007313,0,0.3606,0.7593,0.6025,865,6.6528,-5.3101,0.3052,92,1.3126,1.0605,-21.9757,58.072,28,0.045,26640,3.9699,-115.0363
