name,time,activity,ax,ay,az,batch_val,gx,gy,gz,ibat,index,middle,pitch,roll,temp,thumb,ts,vbat,yaw
rg,1625251220760650383,1,0.1047,-0.1772,1.0371,1,-30.0903,16.6626,-6.958,62,1.0755,-0.001,8.5959,-16.5978,24,0.7254,19406,4.0678,23.9017
rg,1625251220760764235,1,0.0967,-0.189,1.0369,2,-31.25,17.8833,-6.2256,62,1.0755,0,8.6613,-17.6571,24,0.7284,8264,4.0678,23.4902
rg,1625251220760790254,1,0.1035,-0.1833,1.0381,3,-31.7383,19.5312,-6.958,62,1.0735,0,8.7561,-18.6912,24,0.7284,7810,4.0678,23.0269
rg,1625251220760810031,1,0.0845,-0.2068,1.0315,4,-31.6772,23.1323,-7.4463,62,1.0765,0,9.0058,-19.7471,24,0.7284,7956,4.0678,22.4832
rg,1625251220760829124,1,0.0818,-0.2129,1.0322,5,-31.311,23.0713,-6.5918,62,1.0755,0,9.285,-20.7449,25,0.7294,7867,4.0678,21.9567
rg,1625251220760847439,1,-0.1023,-0.4668,0.9929,6,6.5918,96.8628,-10.1318,136,1.0435,0,12.5877,-20.9943,24,0.7204,13649,3.9688,20.1336
rg,1625251220760867143,1,-0.488,-0.0955,0.6553,7,24.231,60.9741,-16.2354,136,1.0455,0,15.5554,-19.974,24,0.7224,8156,3.9688,18.726
rg,1625251220760917013,1,-0.4912,-0.123,0.6772,8,12.7563,47.6685,-9.9487,136,1.0475,0,16.6786,-20.1743,24,0.7234,7870,3.9688,18.1321
rg,1625251220760938809,1,-0.0928,-0.3037,0.7805,9,-13.3667,19.7754,-4.4556,136,1.0465,0,16.9422,-20.8799,24,0.7234,7900,3.9688,17.6578
rg,1625251220760958235,1,-0.1025,-0.2876,0.7786,10,-38.208,42.1143,-15.8691,136,1.0485,0,17.87,-22.7517,25,0.7254,7903,3.9688,16.3975
rg,1625251220760977439,1,-0.3035,-0.4739,0.8579,11,-58.7158,56.5796,-18.7378,136,1.0505,-0.001,19.5851,-25.879,25,0.7264,9774,3.9688,14.6163
rg,1625251220761162513,1,-0.3369,-0.5166,0.8809,12,-63.0493,53.5889,-19.6533,136,1.0495,0,21.0563,-29.1909,25,0.7274,7802,3.9688,12.7563
rg,1625251220761193624,1,-0.3735,-0.6377,0.9382,13,-64.209,48.9502,-20.6909,136,1.0515,0,22.1864,-32.6244,25,0.7294,8034,3.9688,10.8409
rg,1625251220761213068,1,-0.3892,-0.8516,1.0808,14,-51.0254,45.6543,-17.6392,136,1.0485,0,23.0392,-35.549,25,0.7324,8004,3.9688,9.0181
rg,1625251220761231605,1,-0.3489,-0.9563,1.1414,15,-35.0342,42.6025,-14.8926,136,1.0455,0,23.6512,-37.7643,25,0.7334,8096,3.9688,7.3247
rg,1625251220761252402,1,-0.1274,-1.0439,1.1716,16,21.9116,39.1846,-9.5825,136,1.0505,0,23.9091,-37.6074,25,0.7354,8124,3.9688,5.8757
rg,1625251220761271050,1,0.0808,-0.8525,0.9885,17,74.5239,60.9741,-14.7095,136,1.0495,0,24.4571,-35.6382,25,0.7384,8180,3.9688,3.6847
rg,1625251220761290624,1,-0.0181,-0.7356,0.9038,18,87.9517,79.2847,-24.5361,136,1.0475,0,25.5878,-33.5019,25,0.7374,8161,3.9688,0.7214
rg,1625251220761309550,1,-0.4084,-0.5686,0.7568,19,90.8203,96.9238,-38.9404,136,1.0425,0,27.9023,-31.7273,25,0.7344,8109,3.9688,-3.1512
rg,1625251220761327735,1,-0.7336,-0.4414,0.6897,20,80.0171,71.5332,-43.5791,136,1.0435,0,29.9858,-30.1971,25,0.7334,8148,3.9688,-6.547
rg,1625251220761345754,1,-0.895,-0.2698,0.6553,21,71.4111,47.6074,-40.2222,136,1.0435,0,32.0264,-28.2265,25,0.7334,8173,3.9688,-8.9878
rg,1625251220761562994,1,-1.1001,-0.1365,0.7122,22,24.9634,-26.5503,-21.1792,136,1.0435,0,31.6615,-26.9392,25,0.7354,8239,3.9688,-9.0373
rg,1625251220761588568,1,-0.9053,-0.4651,0.8281,23,-4.0283,-118.103,-8.9111,136,1.0475,0,27.7622,-26.1448,25,0.7404,8331,3.9688,-6.9974
rg,1625251220761764180,1,-0.3315,-0.6309,0.9565,24,-13.3057,-150.2686,2.6245,136,1.0495,0,21.0971,-25.7214,25,0.7404,8280,3.9688,-3.3055
rg,1625251220761888494,1,0.0466,-0.6931,0.9043,25,-24.5361,-191.04,11.0474,136,1.0475,0,13.5651,-26.0117,25,0.7344,8290,3.9688,0.4335
rg,1625251220761909254,1,0.5627,-0.5627,0.8362,26,-39.3677,-154.0527,2.2583,136,1.0335,0,6.5931,-27.3431,24,0.7244,8249,3.9688,3.2795
rg,1625251220761929994,1,0.3547,-0.5518,1.8057,27,-42.1143,-60.2417,-13.916,136,1.0415,0,3.5449,-28.5555,24,0.7264,8328,3.9688,3.9767
rg,1625251220761949105,1,0.8887,-0.6858,0.5432,28,59.021,-23.3765,5.0659,136,1.0475,0,0.9775,-24.8621,24,0.7274,8360,3.9688,4.5991
rg,1625251220761967791,1,0.0706,-0.6118,1.2151,29,-7.1411,84.4116,-22.7051,136,1.0465,0,3.4817,-25.3019,24,0.7264,8293,3.9688,2.3397
rg,1625251220761985772,1,-0.459,-0.043,0.616,30,40.8325,67.9932,-23.0103,136,1.0495,0,6.817,-23.1793,24,0.7284,8373,3.9688,0.4404
rg,1625251220762004161,1,-0.2798,-0.2803,0.7256,31,5.0659,31.7993,-10.9863,136,1.0495,0,8.3167,-23.014,24,0.7284,10357,3.9688,-0.4606
rg,1625251220762073865,1,-0.0754,-0.2173,0.7483,32,-20.0195,25.8179,-16.0522,136,1.0495,0,8.8969,-23.6864,24,0.7314,8394,3.9688,-1.4308
rg,1625251221114805336,1,-0.2065,-0.5554,0.9219,33,-59.8145,41.0156,-24.4751,136,1.0535,0,10.0367,-26.6196,25,0.7364,25937,3.9688,-3.0836
rg,1625251221114845607,1,-0.3013,-0.7593,1.0176,34,-52.7344,44.5557,-21.9727,136,1.0545,0,11.3228,-29.4142,25,0.7384,15499,3.9688,-4.7978
rg,1625251221114866657,1,-0.2666,-0.9019,1.1025,35,-29.6631,40.7104,-18.2495,136,1.0545,0,12.3267,-31.2843,24,0.7394,7806,3.9688,-6.3593
rg,1625251221114886369,1,-0.2383,-0.9043,1.116,36,-12.0239,39.0625,-15.1978,136,1.0545,0,13.0367,-31.5088,24,0.7424,7850,3.9688,-7.7195
rg,1625251221114905344,1,-0.0461,-0.918,1.0906,37,33.3862,37.1094,-17.0288,136,1.0555,0,13.5113,-30.8367,24,0.7434,7882,3.9688,-9.1903
rg,1625251221114924452,1,0.0654,-0.7583,0.9253,38,70.8008,56.3965,-27.1606,136,1.0535,0,14.2729,-28.8645,24,0.7444,7919,3.9688,-11.4118
rg,1625251221114943107,1,-0.2717,-0.6113,0.843,39,78.5522,81.1768,-41.4429,136,1.0495,0,16.3719,-26.8232,25,0.7424,11422,3.9688,-14.5739
rg,1625251221114961743,1,-0.8347,-0.2156,0.6333,40,67.3828,69.0308,-38.5132,136,1.0495,0,19.4735,-24.7524,25,0.7434,7940,3.9688,-17.2084
rg,1625251221114979398,1,-1.1479,0.0251,0.5588,41,43.0908,38.9404,-32.8979,136,1.0475,0,21.9751,-23.2292,25,0.7434,7872,3.9688,-18.9815
rg,1625251221115018632,1,-1.1458,-0.5613,0.8916,42,-7.0801,-78.7354,-17.5171,136,1.0525,0,19.7936,-23.531,25,0.7464,7947,3.9688,-18.4233
rg,1625251221115037985,1,-0.4424,-0.408,0.8259,43,-7.9346,-133.8501,-8.1787,136,1.0555,0,13.6518,-23.4928,25,0.7474,7967,3.9688,-15.6169
rg,1625251221115056037,1,0.3774,-0.6321,0.9099,44,-35.2173,-182.4951,7.2632,136,1.0555,0,5.9374,-24.7564,25,0.7434,8159,3.9688,-12.4075
rg,1625251221115073635,1,0.5579,-0.54,0.8992,45,-59.6313,-105.957,-0.4272,136,1.0505,0,0.8736,-27.2325,25,0.7374,7959,3.9688,-10.5551
rg,1625251221115090668,1,0.4395,-0.8398,1.7117,46,-52.3682,-62.1948,-2.6855,136,1.0575,0,-1.9008,-29.2816,25,0.7374,7919,3.9688,-9.4592
rg,1625251221115108172,1,0.9165,0.0244,0.52,47,37.4146,8.5449,5.0659,136,1.0595,0,-3.4444,-27.1911,25,0.7364,8036,3.9688,-9.5019
rg,1625251221115126790,1,-0.1436,-0.4954,0.6475,48,32.6538,120.9717,-9.5825,136,1.0595,0,1.2101,-26.2291,25,0.7364,11170,3.9688,-11.9946
rg,1625251221115144200,1,-0.6062,-0.2349,0.679,49,20.874,90.8813,-3.2959,136,1.0605,0,5.8369,-25.2791,25,0.7384,8566,3.9688,-13.6805
rg,1625251221115161233,1,-0.4158,-0.3569,0.7549,50,9.5215,52.6123,-1.1597,136,1.0615,0,6.9581,-25.2648,25,0.7384,8107,3.9688,-14.2974
rg,1625251221115178812,1,0.0105,-0.3657,0.8071,51,-8.2397,26.6113,-7.1411,136,1.0595,0,7.4893,-25.6419,24,0.7394,8131,3.9688,-15.0141
rg,1625251221115195789,1,-0.0481,-0.3726,0.7891,52,-20.6909,48.7671,-15.4419,136,1.0625,0,8.7877,-26.6477,24,0.7424,8155,3.9688,-16.4405
rg,1625251221115213312,1,-0.1853,-0.5684,0.897,53,-28.3203,54.5654,-20.0195,136,1.0615,0,10.4143,-28.4108,24,0.7444,8245,3.9688,-18.366
rg,1625251221115230401,1,-0.2534,-0.623,0.9399,54,-30.1514,58.2886,-24.5361,136,1.0625,0,12.0454,-30.2045,24,0.7454,8229,3.9688,-20.4412
rg,1625251221115246830,1,-0.3777,-0.717,0.9771,55,-19.7754,57.1899,-23.3765,136,1.0665,0,13.7245,-31.6734,24,0.7474,8239,3.9688,-22.5231
rg,1625251221115263561,1,-0.335,-0.7971,1.0222,56,0,40.8936,-18.9209,136,1.0665,0,14.7343,-32.2955,24,0.7504,8280,3.9688,-24.1387
rg,1625251221115281311,1,-0.2629,-0.8438,1.0857,57,15.4419,36.1938,-18.0054,136,1.0655,0,15.4123,-32.2674,24,0.7514,8236,3.9688,-25.6275
rg,1625251221115298287,1,-0.0249,-0.845,1.001,58,61.5234,39.6118,-15.1367,136,1.0595,0,15.8858,-30.5082,24,0.7524,8525,3.9688,-27.1178
rg,1625251221115315207,1,-0.0051,-0.646,0.8816,59,84.9609,66.2231,-27.2827,136,1.0615,0,17.042,-28.0174,24,0.7524,8496,3.9688,-29.5413
rg,1625251221115332919,1,-0.3826,-0.4968,0.7532,60,85.2051,78.9795,-36.2549,136,1.0565,0,19.74,-25.9256,24,0.7504,8328,3.9688,-32.7669
rg,1625251221115436625,1,-0.6262,-0.3823,0.679,61,74.9512,88.0737,-35.4004,136,1.0545,0,23.0528,-24.1281,24,0.7484,8390,3.9688,-35.772
rg,1625251221115503077,1,-1.0974,-0.0974,0.6472,62,35.1562,35.0952,-27.1606,136,1.0585,0,25.2444,-23.0728,24,0.7504,8370,3.9688,-37.3285
rg,1625251221115522901,1,-0.9692,-0.4807,0.8999,63,1.8311,-67.3828,-12.2681,136,1.0595,0,23.2913,-22.8807,25,0.7534,8592,3.9688,-36.7288
rg,1625251221115545329,1,-0.7363,-0.4553,0.8792,64,-0.6714,-107.2388,-2.3193,136,1.0615,0,19.4497,-22.4485,25,0.7554,8440,3.9688,-35.1011
rg,1625251221488648509,1,0.3818,-0.459,0.783,65,-49.7437,-99.7925,2.6855,136,1.0565,0,15.7295,-23.9102,25,0.7444,25428,3.9688,-33.9947
rg,1625251221489026683,1,0.8416,0.1995,0.4104,66,41.748,-17.0288,3.3569,136,1.0585,0,13.0448,-21.3064,25,0.7434,10216,3.9688,-33.4148
rg,1625251221489063974,1,-0.0391,-0.8447,0.9312,67,14.9536,92.5293,-16.0522,136,1.0585,0,15.8191,-22.0443,25,0.7424,7753,3.9688,-35.6331
rg,1625251221489101586,1,-0.1707,-0.176,0.6775,68,36.1328,75.5005,-18.8599,136,1.0585,0,18.8799,-21.0794,25,0.7434,7822,3.9688,-37.32
rg,1625251221489124636,1,-0.3633,-0.3608,0.7949,69,11.5967,72.2656,-10.7422,136,1.0585,0,21.551,-21.2735,25,0.7444,7882,3.9688,-38.9041
rg,1625251221489150571,1,-0.2378,-0.3567,0.8301,70,-3.7842,44.7388,-11.1084,136,1.0585,0,22.7698,-21.9365,25,0.7444,8936,3.9688,-40.091
rg,1625251221489170226,1,-0.0754,-0.3396,0.8018,71,-13.6108,36.6211,-16.5405,136,1.0605,0,23.1651,-23.0108,25,0.7464,8423,3.9688,-41.3739
rg,1625251221489200312,1,-0.0701,-0.353,0.8323,72,-21.1792,40.0391,-22.9492,136,1.0585,0,23.5206,-24.485,25,0.7464,7883,3.9688,-42.9817
rg,1625251221489217571,1,-0.2161,-0.5105,0.9041,73,-31.6772,48.8892,-33.4473,136,1.0615,0,24.2288,-26.8565,25,0.7484,7900,3.9688,-45.3019
rg,1625251221489254598,1,-0.3804,-0.5952,0.9319,74,-30.5176,46.7529,-34.9121,136,1.0625,0,25.0033,-29.2669,25,0.7504,7935,3.9688,-47.7177
rg,1625251221489272913,1,-0.3972,-0.6074,0.9473,75,-28.1372,38.6353,-33.3252,136,1.0595,0,25.4317,-31.4291,25,0.7514,7988,3.9688,-49.9069
rg,1625251221489607949,1,-0.405,-0.6838,1.0024,76,-20.1416,26.3672,-29.2969,136,1.0585,0,25.413,-33.0802,25,0.7514,8032,3.9688,-51.673
rg,1625251221489630451,1,-0.3003,-0.8862,1.1472,77,4.7607,13.3667,-24.292,136,1.0565,0,24.7829,-33.5957,25,0.7564,8111,3.9688,-52.9741
rg,1625251221489684247,1,-0.1704,-0.946,1.1875,78,28.7476,9.4604,-19.7144,136,1.0585,0,23.9481,-33.0486,25,0.7574,8115,3.9688,-54.0174
rg,1625251221489716860,1,0.1643,-0.8,0.988,79,79.1626,23.8037,-19.3481,136,1.0605,0,23.1693,-30.656,25,0.7584,8134,3.9688,-55.4136
rg,1625251221489743004,1,-0.009,-0.5708,0.8323,80,90.8813,63.2324,-36.3159,136,1.0585,0,23.7708,-28.2866,24,0.7594,8108,3.9688,-58.2348
rg,1625251221489777088,1,-0.1667,-0.478,0.7781,81,88.6841,74.0967,-43.335,136,1.0535,0,25.0691,-26.2052,24,0.7544,8104,3.9688,-61.4861
rg,1625251221489801308,1,-0.5364,-0.3838,0.7349,82,74.1577,75.3784,-44.9219,136,1.0515,0,27.3074,-24.7271,24,0.7504,8111,3.9688,-64.7564
rg,1625251221489821623,1,-0.8306,-0.2126,0.7341,83,52.6733,35.7056,-35.7056,136,1.0505,0,28.8016,-23.3622,24,0.7474,8192,3.9688,-66.7615
rg,1625251221489935590,1,-0.8933,-0.1162,0.7329,84,33.9355,1.5869,-28.2593,136,1.0495,-0.001,29.2659,-22.1798,25,0.7484,8135,3.9688,-67.7681
rg,1625251221489964147,1,-0.8074,-0.2964,0.8875,85,-0.1831,-69.3359,-11.5967,136,1.0525,0,26.9797,-21.7292,25,0.7534,8046,3.9688,-67.0074
rg,1625251221489989857,1,-0.5452,-0.2639,0.8203,86,-26.3062,-124.939,7.9956,136,1.0545,0,22.6831,-21.6354,25,0.7544,9995,3.9688,-64.5699
rg,1625251221490013944,1,0.0769,-0.4089,0.8696,87,-58.2886,-159.8511,14.2212,136,1.0585,0,15.9793,-23.0603,25,0.7514,8252,3.9688,-61.476
rg,1625251221490045463,1,0.5315,-0.4568,0.927,88,-92.4683,-129.6387,3.9673,136,1.0555,0,9.8081,-26.3168,25,0.7474,8309,3.9688,-59.0908
rg,1625251221490066646,1,0.5879,-0.5552,0.99,89,-105.7739,-92.3462,-4.4556,136,1.0545,0,5.1216,-30.4153,25,0.7424,8293,3.9688,-57.4455
rg,1625251221490109124,1,0.9343,-0.2532,0.7471,90,21.7285,35.1562,-1.3428,136,1.0605,0,4.4555,-29.3112,25,0.7414,12902,3.9688,-58.1909
rg,1625251221490131288,1,-0.1907,-0.8381,0.8293,91,0.1221,126.1597,-7.5073,136,1.0605,0,9.4529,-29.0149,25,0.7404,8547,3.9688,-61.3042
rg,1625251221490155281,1,-0.3433,-0.1436,0.6404,92,48.4619,111.6333,-13.2446,136,1.0615,0,13.8417,-27.0237,25,0.7414,8300,3.9688,-63.8161
rg,1625251221490189120,1,-0.5142,-0.3342,0.7693,93,25.1465,73.3643,-11.9629,136,1.0615,0,16.921,-26.3698,25,0.7424,8377,3.9688,-65.5938
rg,1625251221490207039,1,-0.301,-0.2693,0.7542,94,8.1787,22.7051,-19.2261,136,1.0615,0,17.5375,-26.1151,25,0.7434,8398,3.9688,-66.6584
rg,1625251221490235465,1,-0.2126,-0.3176,0.7844,95,-7.1411,3.2959,-28.3813,136,1.0625,0,17.0134,-26.5637,25,0.7444,8704,3.9688,-67.7325
rg,1625251221490262042,1,-0.1353,-0.3652,0.8367,96,-14.6484,-3.9062,-29.1138,136,1.0635,0,16.0056,-27.3051,25,0.7474,8461,3.9688,-68.7008
rg,1625251221842028284,1,-0.2039,-0.584,0.948,97,-25.8789,24.231,-27.0996,136,1.0575,0,16.1207,-28.9112,25,0.7534,25533,3.9688,-70.2156
rg,1625251221842064236,1,-0.0862,-0.7795,1.0625,98,-1.4648,37.4146,-12.6343,136,1.0535,0,16.6882,-29.6087,25,0.7564,14316,3.9688,-71.5201
rg,1625251221842084853,1,-0.0222,-0.7886,1.0837,99,15.8691,46.3867,-8.3618,136,1.0555,0,17.5139,-29.6059,25,0.7584,7841,3.9688,-72.8622
rg,1625251221842104413,1,0.1172,-0.6597,0.9248,100,49.9268,72.6929,-3.9062,136,1.0605,0,19.0687,-28.3666,25,0.7614,7880,3.9688,-74.5785
rg,1625251221842123426,1,-0.0964,-0.5513,0.8474,101,58.2886,105.4077,-16.4795,136,1.0595,0,21.938,-27.1872,25,0.7624,8087,3.9688,-77.3737
rg,1625251221842142458,1,-0.3948,-0.4355,0.7839,102,56.3965,116.333,-21.4233,136,1.0585,0,25.7536,-26.2691,25,0.7624,7945,3.9688,-80.5291
rg,1625251221842161019,1,-0.9407,-0.2151,0.7581,103,36.9873,85.022,-14.5264,136,1.0605,0,28.1722,-25.9367,25,0.7634,10692,3.9688,-81.7862
rg,1625251221842179712,1,-1.2275,-0.397,0.8621,104,-10.9253,-17.6392,-11.4746,136,1.0615,0,28.2589,-26.3881,25,0.7654,7936,3.9688,-81.8831
rg,1625251221842197028,1,-0.5994,-0.4678,0.8774,105,-22.3999,-128.9673,5.0049,136,1.0655,0,23.8508,-26.1317,25,0.7664,7984,3.9688,-79.1607
rg,1625251221842214079,1,-0.1389,-0.5161,0.9319,106,-30.8228,-154.0527,9.7656,136,1.0585,0,17.2089,-26.4057,25,0.7634,7980,3.9688,-75.9496
rg,1625251221842231150,1,0.4036,-0.5818,0.9351,107,-49.5605,-127.6245,6.7139,136,1.0405,0,11.4383,-27.9239,25,0.7564,8016,3.9688,-73.3379
rg,1625251221842271478,1,0.4219,-1.1555,1.7483,108,-33.6914,-52.002,3.3569,136,1.0545,0,8.8037,-29.2782,25,0.7594,7967,3.9688,-72.2371
rg,1625251221842291227,1,0.8538,-0.6296,0.6038,109,54.1992,-30.5786,19.4092,136,1.0575,0,6.4415,-26.8207,25,0.7574,8089,3.9688,-70.9831
rg,1625251221842308825,1,0.2634,-0.6963,0.9512,110,44.3115,105.3467,7.0801,136,1.0565,0,9.5925,-25.6392,25,0.7554,8037,3.9688,-72.6619
rg,1625251221842326217,1,-0.3616,-0.0703,0.5981,111,50.8423,114.8071,-2.9297,136,1.0595,0,14.5407,-23.3877,25,0.7554,8034,3.9688,-74.5954
rg,1625251221842344325,1,-0.6062,-0.3467,0.7739,112,25.5127,74.707,-5.6152,77,1.0595,0,17.9987,-22.7907,25,0.7554,12171,4.0381,-76.0342
rg,1625251221842361923,1,-0.3267,-0.2285,0.7041,113,11.8408,19.3481,-8.4229,77,1.0605,0,18.808,-22.3313,25,0.7564,8068,4.0381,-76.6158
rg,1625251221842389613,1,-0.1746,-0.259,0.7473,114,-11.1084,8.4839,-20.4468,77,1.0615,0,18.5508,-22.9361,25,0.7584,8109,4.0381,-77.505
rg,1625251221842408476,1,-0.1738,-0.3345,0.7932,115,-21.8506,9.0942,-25.8179,77,1.0625,0,18.1841,-24.1598,25,0.7604,8136,4.0381,-78.6501
rg,1625251221842425980,1,-0.1965,-0.5344,0.9189,116,-35.0952,15.7471,-33.3252,77,1.0635,0,17.8771,-26.277,25,0.7624,8126,4.0381,-80.2708
rg,1625251221842443164,1,-0.2595,-0.5942,0.9502,117,-32.7148,26.7334,-33.9355,77,1.0645,0,18.0066,-28.3554,25,0.7624,9427,4.0381,-82.1216
rg,1625251221842459650,1,-0.3025,-0.7114,1.0344,118,-21.7896,35.2173,-29.9072,77,1.0635,0,18.4694,-30.0359,25,0.7674,8230,4.0381,-84.0191
rg,1625251221842476796,1,-0.2722,-0.7788,1.0686,119,-10.9863,35.2783,-24.9023,77,1.0605,0,18.8989,-31.2456,25,0.7684,8261,4.0381,-85.7587
rg,1625251221842493715,1,-0.1211,-0.8162,1.0762,120,26.3672,40.4663,-18.0664,77,1.0645,0,19.3649,-30.9388,25,0.7694,8314,4.0381,-87.3815
rg,1625251221842510163,1,-0.0439,-0.6504,0.9277,121,57.4341,58.1665,-19.8364,77,1.0615,0,20.2957,-29.4859,24,0.7694,8316,4.0381,-89.4235
rg,1625251221842527234,1,-0.5276,-0.3306,0.7427,122,61.8896,75.2563,-24.6582,77,1.0605,0,23.2188,-27.9613,24,0.7694,8949,4.0381,-92.1062
rg,1625251221842544022,1,-0.8345,-0.2056,0.6934,123,44.8608,73.7915,-25.8789,77,1.0595,0,26.5825,-26.7239,24,0.7704,8375,4.0381,-94.4036
rg,1625251221842561073,1,-1.1248,-0.3647,0.8818,124,-6.3477,-14.2822,-20.5078,77,1.0605,0,26.59,-27.0865,25,0.7704,8337,4.0381,-94.8752
rg,1625251221842679567,1,-0.676,-0.3918,0.8315,125,-19.3481,-114.563,-8.0566,77,1.0655,0,22.7603,-26.9595,25,0.7724,8427,4.0381,-92.858
rg,1625251221842700920,1,-0.1069,-0.6597,1.0066,126,-48.0347,-143.6768,-3.2349,77,1.0615,-0.001,16.9464,-28.2071,25,0.7694,8356,4.0381,-90.2373
rg,1625251221842721819,1,0.0962,-0.6926,0.9512,127,-48.8892,-139.4653,-1.4038,77,1.0535,0,11.2335,-29.7978,25,0.7624,8316,4.0381,-87.5753
rg,1625251221842746812,1,0.5322,-1.2341,1.4719,128,-4.9438,-93.5059,8.9722,77,1.0595,0,7.1718,-30.026,25,0.7604,8473,4.0381,-85.442
rg,1625251222204374890,1,-0.4529,-0.0422,0.6145,129,37.7808,86.5479,-14.8926,77,1.0625,0,11.0378,-28.3737,25,0.7574,25472,4.0381,-87.6006
rg,1625251222204411645,1,-0.1826,-0.3071,0.8022,130,5.0659,31.6162,-10.9253,77,1.0635,0,11.408,-28.3602,25,0.7574,9431,4.0381,-88.2755
rg,1625251222204432252,1,-0.0813,-0.2993,0.8262,131,-12.5122,14.4043,-13.7939,77,1.0635,0,11.4092,-28.6665,25,0.7584,7795,4.0381,-88.9819
rg,1625251222204451956,1,-0.0022,-0.3208,0.8147,132,-29.2358,25.0244,-20.5688,77,1.0645,0,11.4357,-29.779,25,0.7594,7815,4.0381,-90.151
rg,1625251222204470418,1,-0.0613,-0.3689,0.8457,133,-38.0249,33.3252,-26.4893,77,1.0655,0,12.0344,-31.4774,25,0.7614,7897,4.0381,-91.7471
rg,1625251222204487675,1,-0.293,-0.5225,0.9258,134,-48.1567,40.1001,-35.8276,77,1.0655,0,12.6829,-33.8526,25,0.7634,10618,4.0381,-93.7281
rg,1625251222204505328,1,-0.3601,-0.6846,1.0222,135,-44.3726,30.1514,-34.2407,77,1.0645,0,13.0233,-36.0265,25,0.7654,7908,4.0381,-95.5888
rg,1625251222204545000,1,-0.2974,-0.8772,1.1248,136,-21.3623,21.5454,-29.9683,77,1.0605,0,12.9436,-37.2864,25,0.7674,7989,4.0381,-97.1186
rg,1625251222204564158,1,-0.2183,-0.9094,1.1746,137,-2.5635,17.395,-26.123,77,1.0585,0,12.5974,-36.674,25,0.7694,7979,4.0381,-98.336
rg,1625251222204583504,1,-0.0254,-0.8184,1.0767,138,46.875,20.9961,-20.0195,77,1.0625,0,12.3498,-35.072,25,0.7714,8011,4.0381,-99.5155
rg,1625251222204601194,1,0.1316,-0.6941,0.9358,139,80.5664,46.814,-23.3765,77,1.0605,0,12.6488,-32.3178,25,0.7704,10562,4.0381,-101.4086
rg,1625251222204619299,1,-0.384,-0.3,0.679,140,83.313,80.5664,-32.0435,77,1.0575,0,15.3197,-29.3641,25,0.7694,9808,4.0381,-104.1613
rg,1625251222204636425,1,-1.0789,0.1431,0.6306,141,37.2314,49.9878,-24.5361,77,1.0605,0,18.2409,-27.5984,25,0.7724,8033,4.0381,-105.8118
rg,1625251222204653456,1,-1.2166,-0.2283,0.772,142,-2.1973,-2.7466,-18.9209,77,1.0615,0,16.3664,-28.1347,25,0.7744,8165,4.0381,-104.9716
rg,1625251222204670507,1,-0.8245,-0.3936,0.8157,143,-18.9819,-122.7417,-6.0425,77,1.0645,0,12.934,-28.2623,25,0.7724,8091,4.0381,-102.7644
rg,1625251222204688140,1,-0.0359,-0.5857,0.9705,144,-46.1426,-175.5371,7.3242,77,1.0625,0,6.5243,-29.5831,25,0.7704,8087,4.0381,-99.0757
rg,1625251222204705360,1,0.4761,-0.6128,1.1667,145,-50.1709,-170.5322,7.6904,77,1.0565,0,0.7584,-31.4284,25,0.7644,8091,4.0381,-95.927
rg,1625251222204722862,1,0.6331,-1.1062,1.616,146,-20.5078,-102.0508,11.5356,77,1.0625,0,-3.1718,-32.404,25,0.7644,8113,4.0381,-93.3694
rg,1625251222204740139,1,1.0654,-0.3022,0.9465,147,36.2549,-18.5547,11.7798,77,1.0655,0,-5.1276,-30.6142,25,0.7594,8247,4.0381,-92.6272
rg,1625251222204757453,1,0.1604,-0.0767,0.6558,148,44.3115,87.2192,-8.606,77,1.0645,0,-2.6147,-27.8076,25,0.7614,8205,4.0381,-94.7292
rg,1625251222204795920,1,-0.3774,0.0488,0.6138,149,30.0293,112.5488,-8.1787,77,1.0635,0,2.4995,-25.5684,25,0.7594,8236,4.0381,-97.0674
rg,1625251222204819293,1,-0.4304,-0.3831,0.8484,150,-6.0425,52.9785,1.77,77,1.0655,0,5.292,-25.816,25,0.7604,8234,4.0381,-97.9252
rg,1625251222204837134,1,0.0706,-0.332,0.8535,151,-16.0522,19.3481,-2.0142,77,1.0665,0,5.5661,-26.3079,25,0.7624,8236,4.0381,-98.3219
rg,1625251222204854956,1,0.1499,-0.2888,0.8052,152,-21.4233,31.4331,-6.1646,77,1.0675,0,6.0994,-26.9609,25,0.7624,8286,4.0381,-99.082
rg,1625251222204871781,1,-0.0398,-0.3757,0.8513,153,-42.0532,62.0117,-15.9302,77,1.0675,0,7.8403,-28.7157,25,0.7634,8323,4.0381,-100.8031
rg,1625251222204890525,1,-0.2922,-0.5857,0.9619,154,-48.4619,65.1855,-23.1323,77,1.0685,0,9.8922,-31.0712,25,0.7674,8321,4.0381,-102.9506
rg,1625251222204986203,1,-0.333,-0.7927,1.0496,155,-44.4336,60.3027,-23.0103,77,1.0685,0,11.4365,-33.0721,25,0.7704,8349,4.0381,-104.8236
rg,1625251222205006359,1,-0.3191,-0.8096,1.0642,156,-22.7661,46.6919,-15.9912,77,1.0655,0,12.7026,-34.4726,25,0.7714,8437,4.0381,-106.4635
rg,1625251222205023748,1,-0.1675,-0.8132,1.0693,157,7.6294,35.9497,-12.5732,77,1.0655,0,13.3732,-34.5564,25,0.7734,8469,4.0381,-107.7503
rg,1625251222205041420,1,0.1357,-0.7839,1.0103,158,46.9971,46.0205,-11.2915,77,1.0675,0,13.8871,-33.1474,25,0.7744,8486,4.0381,-109.2338
rg,1625251222205059750,1,0.0603,-0.6753,0.8809,159,65.5518,84.2285,-27.4658,77,1.0625,0,15.4704,-31.4196,25,0.7714,8941,4.0381,-112.1101
rg,1625251222205078287,1,-0.4023,-0.4448,0.7432,160,68.3594,99.9756,-35.9497,77,1.0585,0,18.9076,-29.7059,25,0.7694,9802,4.0381,-115.7864
rg,1625251222563979950,1,-1.353,-0.5303,0.9321,161,-24.8413,-18.1885,-13.2446,77,1.0625,0,16.8288,-30.1943,25,0.7734,25699,4.0381,-114.0636
rg,1625251222564021899,1,-0.2571,-0.4019,0.7793,162,-45.7153,-160.0342,16.4185,77,1.0635,0,11.6572,-30.9246,25,0.7714,8644,4.0381,-110.082
rg,1625251222564042525,1,0.147,-0.6001,0.9075,163,-63.8428,-155.2124,20.2637,77,1.0565,0,6.7275,-33.6516,25,0.7674,7759,4.0381,-106.6261
rg,1625251222564062474,1,0.2507,-0.7937,1.8018,164,-79.4067,-119.0186,12.8784,77,1.0635,0,2.5954,-36.1655,25,0.7634,7749,4.0381,-103.4078
rg,1625251222564109240,1,1.2217,-0.4861,0.842,165,45.4712,-78.5522,24.1089,77,1.0655,0,-1.2392,-34.1643,25,0.7604,7848,4.0381,-100.8368
rg,1625251222564130393,1,0.4133,-0.2351,0.5698,166,36.9873,18.6768,9.9487,77,1.0655,0,0.2721,-31.1985,25,0.7594,7882,4.0381,-102.6164
rg,1625251222564149514,1,-0.167,0.0632,0.6084,167,52.063,111.5112,-5.9204,77,1.0635,0,4.603,-27.8979,25,0.7564,7974,4.0381,-105.0031
rg,1625251222564168220,1,-0.6743,-0.4143,0.8442,168,11.9629,81.1768,1.2817,77,1.0665,0,8.656,-27.5275,25,0.7584,7873,4.0381,-106.4704
rg,1625251222564186419,1,-0.4097,-0.3645,0.8235,169,8.9722,35.2173,0.7935,77,1.0675,0,9.055,-27.0053,25,0.7584,7919,4.0381,-106.5657
rg,1625251222564204335,1,0.093,-0.2693,0.8047,170,-0.9766,15.0146,-0.3052,77,1.0645,0,8.986,-26.7451,25,0.7574,7898,4.0381,-106.8001
rg,1625251222564222006,1,-0.0664,-0.2537,0.7744,171,-23.9258,44.6777,-12.7563,77,1.0685,0,10.1678,-27.5634,25,0.7594,7860,4.0381,-108.0337
rg,1625251222564239659,1,-0.2068,-0.3628,0.8342,172,-34.9121,47.1191,-21.1182,77,1.0675,0,11.5219,-29.103,25,0.7614,7968,4.0381,-109.675
rg,1625251222564257067,1,-0.3115,-0.5767,0.9365,173,-42.2974,36.9873,-25.3296,77,1.0695,0,12.4533,-31.2249,25,0.7624,7962,4.0381,-111.3529
rg,1625251222564274231,1,-0.2644,-0.613,0.9297,174,-33.9966,29.0527,-22.8882,77,1.0675,0,12.9796,-32.9731,25,0.7654,8091,4.0381,-112.7994
rg,1625251222564297491,1,-0.2422,-0.6267,0.9419,175,-30.8228,29.541,-22.2778,77,1.0645,0,13.4235,-34.5482,25,0.7654,7999,4.0381,-114.2395
rg,1625251222564316706,1,-0.2146,-0.8044,1.0361,176,-18.3105,33.2031,-17.7002,77,1.0605,0,13.9309,-35.7281,25,0.7684,8080,4.0381,-115.651
rg,1625251222564334340,1,-0.1169,-0.8625,1.075,177,13.6719,40.5884,-16.7847,77,1.0595,0,14.4905,-35.6747,25,0.7714,9050,4.0381,-117.2213
rg,1625251222564352218,1,0.0115,-0.7493,0.9473,178,52.9175,60.6689,-13.6719,77,1.0655,0,15.5668,-34.1604,25,0.7744,9911,4.0381,-119.1619
rg,1625251222564370417,1,0.0586,-0.7432,0.8853,179,64.9414,75.6836,-18.3716,77,1.0645,0,17.4948,-32.3701,25,0.7744,8150,4.0381,-122.2208
rg,1625251222564403501,1,-0.5244,-0.4124,0.6599,180,70.0073,113.5864,-31.189,77,1.0605,0,21.3309,-30.7676,25,0.7734,12419,4.0381,-125.8565
rg,1625251222564425257,1,-1.125,-0.0039,0.6223,181,32.3486,78.186,-25.8179,77,1.0595,0,24.9907,-29.9207,25,0.7734,8207,4.0381,-128.3101
rg,1625251222564443474,1,-1.3503,-0.1787,0.6882,182,-0.061,33.1421,-23.5596,77,1.0625,0,27.0411,-30.3305,25,0.7744,8220,4.0381,-129.8278
rg,1625251222564461767,1,-1.0942,-0.4355,0.8279,183,-23.9258,-90.21,-6.4697,77,1.0655,0,24.6738,-30.426,25,0.7764,8269,4.0381,-128.0025
rg,1625251222564481696,1,-0.1912,-0.5308,0.8748,184,-43.1519,-166.0767,7.8735,77,1.0645,0,18.5912,-30.7243,25,0.7744,8306,4.0381,-124.08
rg,1625251222564499443,1,0.1465,-0.5493,0.9172,185,-52.6123,-161.8042,5.7983,77,1.0555,0,12.8504,-32.3756,25,0.7714,8560,4.0381,-121.1187
rg,1625251222564517566,1,0.3462,-0.6672,1.5208,186,-62.6831,-105.4077,-2.1362,77,1.0585,0,8.3564,-34.1045,25,0.7704,8736,4.0381,-118.7444
rg,1625251222564534184,1,1.0469,-0.4055,0.6704,187,56.1523,-51.4526,12.6953,77,1.0635,0,4.9196,-31.6162,25,0.7684,8375,4.0381,-117.2257
rg,1625251222564552552,1,0.2354,-0.5225,0.7327,188,60.0586,100.0977,-6.4087,77,1.0645,0,7.458,-29.6095,25,0.7694,8460,4.0381,-119.5302
rg,1625251222564570110,1,-0.167,-0.1279,0.6482,189,61.8286,116.7603,-8.606,77,1.0655,0,12.5403,-26.9505,25,0.7694,8341,4.0381,-121.9757
rg,1625251222564601256,1,-0.6064,-0.2593,0.739,190,33.8135,90.8813,-7.9346,77,1.0635,0,16.6042,-25.8423,25,0.7674,8383,4.0381,-123.8769
rg,1625251222564621149,1,-0.301,-0.2529,0.7576,191,17.2119,33.6304,-11.1084,77,1.0655,0,17.7821,-25.167,25,0.7694,8428,4.0381,-124.8193
rg,1625251222564638105,1,-0.1487,-0.2656,0.7639,192,1.4648,23.0103,-19.8364,77,1.0645,0,17.9827,-25.2153,25,0.7704,8449,4.0381,-125.9093
rg,1625251222928745573,1,-0.1909,-0.4739,0.8982,193,-26.5503,32.1655,-41.9922,77,1.0675,0,18.0993,-27.0481,25,0.7754,25503,4.0381,-128.1188
rg,1625251222928849212,1,-0.4102,-0.7146,1.0061,194,-16.9067,40.4663,-42.2363,77,1.0645,0,18.7444,-28.7939,25,0.7784,10593,4.0381,-130.5937
rg,1625251222928873301,1,-0.3723,-0.7651,1.0874,195,5.7983,29.9683,-34.2407,77,1.0625,0,18.9973,-29.4184,25,0.7804,9482,4.0381,-132.5555
rg,1625251222928893927,1,-0.2766,-0.8462,1.1306,196,22.2778,26.2451,-29.1748,77,1.0655,0,18.9666,-28.4321,25,0.7814,7850,4.0381,-134.2402
rg,1625251222928912690,1,-0.0532,-0.8435,1.0432,197,70.1904,31.311,-26.001,77,1.0645,0,18.951,-26.5836,25,0.7814,7879,4.0381,-135.9817
rg,1625251222928932827,1,-0.0281,-0.6013,0.9009,198,95.459,55.4199,-34.729,77,1.0595,0,19.6779,-23.848,25,0.7784,9092,4.0381,-138.4299
rg,1625251222928952926,1,-0.5327,-0.2839,0.6821,199,88.562,81.604,-40.8936,77,1.0575,0,22.6724,-21.3345,25,0.7764,8451,4.0381,-141.3639
rg,1625251222928970711,1,-0.7932,-0.1304,0.6572,200,73.0591,71.2891,-37.1704,77,1.0535,0,25.8543,-19.201,25,0.7734,8019,4.0381,-143.8456
rg,1625251222928987592,1,-1.1946,-0.0847,0.7671,201,13.6108,0,-24.7803,77,1.0565,0,26.7166,-18.8082,25,0.7764,7923,4.0381,-144.7485
rg,1625251222929006468,1,-0.926,-0.5095,0.937,202,-8.4839,-108.3374,-9.9487,77,1.0595,0,23.0695,-18.9839,25,0.7794,11762,4.0381,-143.7536
rg,1625251222929036353,1,-0.231,-0.4141,0.8977,203,-17.4561,-169.9829,6.4697,77,1.0625,0,16.3681,-19.0289,25,0.7784,7982,4.0381,-141.2287
rg,1625251222929058880,1,0.3052,-0.4133,0.8733,204,-40.8936,-152.4658,10.376,77,1.0585,0,9.5327,-20.3325,25,0.7744,8215,4.0381,-138.7726
rg,1625251222929077417,1,0.3948,-0.4497,0.9011,205,-54.5654,-127.1973,4.5776,77,1.0515,0,3.9172,-22.2554,25,0.7684,8047,4.0381,-136.7202
rg,1625251222929096764,1,0.5225,-1.0823,1.5752,206,-22.7051,-62.1948,-0.6714,77,1.0595,0,0.8821,-23.579,25,0.7684,8088,4.0381,-135.7967
rg,1625251222929118425,1,0.7998,-0.4338,1.1697,207,12.5732,6.0425,0.1831,77,1.0615,0,-0.1468,-22.9656,25,0.7644,8567,4.0381,-135.8925
rg,1625251222929140368,1,0.0151,-0.2107,0.7202,208,47.9126,94.0552,-7.0801,77,1.0635,0,3.1833,-20.8306,25,0.7654,8663,4.0381,-137.5636
rg,1625251222929161427,1,-0.2305,-0.0095,0.6838,209,41.687,101.7456,-6.7139,77,1.0605,0,7.516,-18.5757,25,0.7634,8136,4.0381,-139.1438
rg,1625251222929180209,1,-0.3152,-0.2874,0.8311,210,12.9395,72.4487,-7.9956,77,1.0635,0,10.6308,-18.2683,25,0.7644,8407,4.0381,-140.381
rg,1625251222929199104,1,-0.1489,-0.1199,0.7407,211,-5.3711,46.7529,-18.0664,77,1.0635,0,12.198,-18.3772,25,0.7664,8170,4.0381,-141.6148
rg,1625251222929219956,1,-0.1624,-0.1631,0.7869,212,-18.9819,44.1284,-26.4282,77,1.0645,0,13.5479,-19.4734,25,0.7684,8245,4.0381,-143.2254
rg,1625251222929240544,1,-0.2358,-0.4094,0.9592,213,-37.4146,35.3394,-39.1846,77,1.0615,0,14.2816,-21.591,25,0.7704,8291,4.0381,-145.2817
rg,1625251222929258724,1,-0.2568,-0.7195,1.1357,214,-32.4707,28.3813,-43.2739,77,1.0595,0,14.5232,-23.8314,25,0.7734,10808,4.0381,-147.4863
rg,1625251222929349358,1,-0.2593,-0.7468,1.0959,215,-3.418,25.1465,-35.8276,77,1.0565,0,14.7134,-24.8269,25,0.7754,8376,4.0381,-149.3677
rg,1625251222929381615,1,-0.1938,-0.5825,1.04,216,19.5312,19.4702,-34.0576,77,1.0545,0,14.6298,-24.6296,25,0.7784,8347,4.0381,-151.0288
rg,1625251222929399983,1,-0.1458,-0.6528,1.0945,217,29.1138,21.7285,-32.8369,77,1.0585,0,14.7705,-23.5822,25,0.7824,8596,4.0381,-152.6946
rg,1625251222929420044,1,0.02,-0.7302,1.053,218,64.3921,39.5508,-22.3999,77,1.0575,0,15.2749,-21.8515,25,0.7824,8453,4.0381,-154.31
rg,1625251222929438845,1,0.0269,-0.6023,0.9033,219,84.2285,62.9883,-34.79,77,1.0565,0,16.4886,-19.6003,25,0.7814,8513,4.0381,-156.7334
rg,1625251222929458624,1,-0.5037,-0.1042,0.6057,220,76.5991,96.0083,-35.6445,77,1.0545,-0.001,20.5475,-17.0784,25,0.7794,8445,4.0381,-159.3232
rg,1625251222929479119,1,-0.7837,0.032,0.5576,221,53.5889,88.1958,-29.8462,77,1.0525,0,24.9871,-15.2705,25,0.7794,8329,4.0381,-161.412
rg,1625251222929516927,1,-1.144,-0.1711,0.8088,222,-14.1602,11.5967,-25.4517,77,1.0525,0,26.2551,-16.2808,25,0.7804,8463,4.0381,-162.6113
rg,1625251222929536085,1,-0.7852,-0.3423,0.8813,223,-30.8228,-96.1914,-5.5542,77,1.0555,0,23.0465,-17.26,25,0.7794,8523,4.0381,-161.6956
rg,1625251222929556542,1,-0.1294,-0.365,0.8472,224,-53.894,-144.2261,10.1929,77,1.0595,0,17.1256,-18.8562,25,0.7824,8464,4.0381,-159.4645
rg,1625251223288719320,1,0.2656,-0.4812,1.2083,225,-99.2432,-91.7358,-2.7466,77,1.0615,0,13.5756,-21.6412,24,0.7724,26079,4.0381,-158.5588
rg,1625251223288849910,1,0.8171,-0.5906,1.1924,226,-2.5635,8.5449,9.5825,77,1.0635,0,12.4273,-21.8484,24,0.7724,8667,4.0381,-158.3604
rg,1625251223288876674,1,0.1294,-0.2676,0.707,227,38.8184,88.1958,0.2441,77,1.0645,0,14.8491,-20.5602,24,0.7714,7801,4.0381,-159.6682
rg,1625251223288896038,1,-0.22,0.0166,0.6074,228,34.3018,101.7456,-1.5869,77,1.0635,0,18.8749,-18.7817,24,0.7714,7789,4.0381,-160.9438
rg,1625251223288917299,1,-0.5164,-0.2583,0.7632,229,1.6479,67.9321,-0.061,85,1.0645,0,21.968,-19.0372,25,0.7714,7898,4.0425,-161.8873
rg,1625251223288938316,1,-0.2017,-0.2898,0.8076,230,-7.5073,33.6914,-4.6997,85,1.0645,0,21.9122,-19.8576,25,0.7714,7859,4.0425,-162.3814
rg,1625251223288959070,1,-0.085,-0.3044,0.8118,231,-19.043,3.6621,-10.8032,85,1.0655,0,21.0233,-21.1697,25,0.7734,9201,4.0425,-163.0636
rg,1625251223288979129,1,-0.0249,-0.3384,0.823,232,-31.3721,5.9814,-22.522,85,1.0655,0,20.3459,-23.1942,25,0.7734,9913,4.0425,-164.3884
rg,1625251223288999583,1,-0.1665,-0.4211,0.8582,233,-41.748,10.7422,-34.1187,85,1.0635,0,19.7571,-25.49,25,0.7734,7914,4.0425,-165.933
rg,1625251223289019135,1,-0.2681,-0.5649,0.9504,234,-44.5557,7.3242,-34.3018,85,1.0655,0,19.1555,-27.9508,25,0.7774,7938,4.0425,-167.4373
rg,1625251223289050857,1,-0.2566,-0.6326,0.9629,235,-41.1987,5.4932,-30.6396,85,1.0675,0,18.4879,-30.2041,25,0.7784,7944,4.0425,-168.746
rg,1625251223289073358,1,-0.1697,-0.7961,1.0876,236,-26.9775,5.7373,-23.5596,85,1.0665,0,17.752,-31.8206,25,0.7794,8079,4.0425,-169.7906
rg,1625251223289093623,1,-0.0583,-0.8938,1.1614,237,6.2866,17.2119,-18.3716,85,1.0645,0,17.3384,-32.1126,25,0.7834,8037,4.0425,-170.8977
rg,1625251223289114603,1,-0.0105,-0.8171,1.0786,238,30.8838,24.9023,-13.5498,85,1.0665,0,17.2363,-31.3895,25,0.7844,8043,4.0425,-171.9965
rg,1625251223289174742,1,0.1838,-0.7288,0.9363,239,72.0215,49.3164,-12.207,85,1.0665,0,17.6914,-29.2286,25,0.7854,8116,4.0425,-173.5835
rg,1625251223289203028,1,-0.0122,-0.5388,0.7893,240,83.0688,83.1909,-31.7383,85,1.0625,0,19.3519,-27.0269,25,0.7854,8096,4.0425,-176.4994
rg,1625251223289221396,1,-0.2092,-0.4551,0.7632,241,81.0547,95.1538,-35.5225,85,1.0575,0,21.8874,-25.0552,25,0.7814,8117,4.0425,-179.7068
rg,1625251223289239314,1,-0.6289,-0.3411,0.7117,242,65.918,88.1958,-38.6963,85,1.0545,0,25.0903,-23.682,25,0.7754,8134,4.0425,-182.8301
rg,1625251223289259599,1,-1.1399,0.0303,0.6497,243,21.0571,35.5835,-24.9023,85,1.0535,0,27.3451,-23.006,25,0.7774,8153,4.0425,-184.2299
rg,1625251223289339985,1,-1.2087,-0.1804,0.8271,244,-13.0615,-17.6392,-16.9678,85,1.0555,0,27.4739,-23.6334,25,0.7804,8163,4.0425,-184.5869
rg,1625251223289391316,1,-1.0325,-0.3657,0.8416,245,-45.3491,-124.3896,1.5869,85,1.0555,0,23.7808,-24.4325,25,0.7814,8191,4.0425,-182.2679
rg,1625251223289412502,1,-0.2322,-0.4343,0.8521,246,-72.4487,-204.3457,15.2588,85,1.0625,0,16.288,-25.9498,25,0.7794,8221,4.0425,-178.0106
rg,1625251223289434664,1,0.1426,-0.3945,0.8455,247,-85.8765,-211.3647,17.334,85,1.0605,0,7.962,-29.1924,25,0.7734,8250,4.0425,-173.8213
rg,1625251223289468415,1,0.6565,-0.8428,2.0327,248,-102.2339,-171.2036,3.6621,85,1.0665,0,1.2582,-32.7098,25,0.7684,8242,4.0425,-170.0977
rg,1625251223289487911,1,1.5471,-0.6658,0.981,249,33.8135,-78.3691,16.8457,85,1.0675,0,1.2771,-31.3154,25,0.7664,8256,4.0425,-170.6366
rg,1625251223289506787,1,0.5654,-0.3359,0.6414,250,65.7959,102.6611,-2.7466,85,1.0675,0,3.3263,-28.6586,25,0.7634,8299,4.0425,-172.824
rg,1625251223289526282,1,-0.6182,-0.0823,0.6152,251,40.9546,149.7192,-4.0283,85,1.0675,0,10.0311,-26.7811,25,0.7624,8397,4.0425,-175.7127
rg,1625251223289548219,1,-0.4927,-0.2053,0.7095,252,17.395,41.0767,-3.9062,85,1.0675,0,12.3411,-25.8952,25,0.7624,8282,4.0425,-176.5285
rg,1625251223289570401,1,0.0293,-0.1621,0.7502,253,-6.5308,-1.0376,-12.3901,85,1.0685,0,11.5308,-25.6914,25,0.7634,9573,4.0425,-176.8478
rg,1625251223289590554,1,-0.0676,-0.3508,0.8579,254,-17.395,6.4087,-18.1274,85,1.0695,0,11.2725,-26.8652,25,0.7654,8822,4.0425,-177.8671
rg,1625251223289612510,1,-0.1025,-0.481,0.9307,255,-31.7383,10.5591,-23.6816,85,1.0675,0,10.9789,-28.3455,25,0.7664,8393,4.0425,-178.9217
rg,1625251223289632550,1,-0.1006,-0.647,0.9985,256,-25.1465,13.0005,-23.4375,85,1.0685,0,10.7322,-29.7304,25,0.7684,8410,4.0425,-180.0447
rg,1625251223652220623,1,-0.0537,-0.7156,1.0366,257,8.8501,19.9585,-15.9302,85,1.0585,0,10.9491,-29.3244,25,0.7804,25346,4.0425,-181.1248
rg,1625251223652258337,1,0.0649,-0.7195,1.0037,258,53.2837,43.9453,-14.5874,85,1.0625,0,11.6621,-27.718,25,0.7824,8688,4.0425,-182.5616
rg,1625251223652278452,1,0.1318,-0.6489,0.8403,259,71.106,73.9746,-20.0195,85,1.0635,0,13.2096,-25.7291,25,0.7834,8643,4.0425,-184.7537
rg,1625251223652297554,1,-0.3213,-0.3657,0.6926,260,72.4487,112.2437,-26.7944,85,1.0615,0,17.1755,-23.6862,25,0.7834,7839,4.0425,-187.72
rg,1625251223652316880,1,-0.6326,-0.2041,0.5967,261,63.5986,113.2812,-25.6348,85,1.0605,0,21.9908,-21.9589,25,0.7824,7950,4.0425,169.4709
rg,1625251223652335493,1,-1.2046,-0.0156,0.6929,262,14.2822,52.1851,-20.0195,85,1.0615,0,25.0439,-21.6085,25,0.7844,9332,4.0425,167.9851
rg,1625251223652354744,1,-1.165,-0.4067,0.8708,263,-28.9917,-73.1201,-9.0942,85,1.0655,0,23.1773,-22.5156,25,0.7844,8696,4.0425,168.7786
rg,1625251223652372493,1,-0.4553,-0.3613,0.8176,264,-55.3589,-170.9595,6.5918,85,1.0675,0,17.17,-23.6913,25,0.7854,7936,4.0425,-188.1179
rg,1625251223652390618,1,-0.0835,-0.3989,0.8154,265,-70.8618,-188.3545,7.8125,85,1.0585,0,10.0261,-25.7749,25,0.7794,7928,4.0425,-184.5997
rg,1625251223652408085,1,0.4827,-0.5496,1.3066,266,-103.6987,-170.8374,-4.0283,85,1.0645,0,2.8413,-29.4473,25,0.7754,7928,4.0425,-181.5008
rg,1625251223652426547,1,1.3215,-0.6021,0.7883,267,-50.0488,-131.1035,0.4883,85,1.0675,0,-2.5954,-28.1517,25,0.7744,7986,4.0425,-179.0932
rg,1625251223652445292,1,1.0955,-0.7712,1.2705,268,24.9634,-12.8784,4.3945,85,1.0675,0,-4.2297,-27.2725,25,0.7724,7982,4.0425,-178.7043
rg,1625251223652463942,1,0.3074,-0.0542,0.5898,269,72.7539,77.4536,-21.1182,85,1.0665,0,-2.705,-23.4819,25,0.7704,10164,4.0425,-180.8894
rg,1625251223652482010,1,-0.449,-0.2959,0.7075,270,36.9263,39.3677,-15.3809,85,1.0675,0,-0.2586,-21.9475,25,0.7714,12536,4.0425,-182.0497
rg,1625251223652509939,1,-0.2004,-0.1543,0.6453,271,36.0107,0.7324,-17.4561,85,1.0675,0,0.1832,-20.185,25,0.7714,8054,4.0425,-182.7018
rg,1625251223652530711,1,0.0947,-0.1731,0.6863,272,19.4702,-14.9536,-24.353,85,1.0685,0,-1.0137,-19.162,25,0.7734,7926,4.0425,-183.4189
rg,1625251223652549268,1,0.0715,-0.3337,0.8032,273,11.1694,-13.0615,-29.7852,85,1.0685,0,-2.0171,-19.0274,25,0.7754,8059,4.0425,-184.5553
rg,1625251223652567299,1,0.0552,-0.4365,0.8367,274,7.2632,-10.9253,-37.4756,85,1.0695,0,-2.97,-19.0133,24,0.7774,8110,4.0425,-185.8185
rg,1625251223652587245,1,-0.0139,-0.4587,0.8281,275,18.9209,-3.7842,-39.1846,85,1.0695,0,-3.4678,-18.5666,24,0.7804,8787,4.0425,-187.234
rg,1625251223652604956,1,-0.1433,-0.3853,0.7708,276,29.2358,-1.4038,-35.0342,85,1.0675,0,-3.4502,-17.6285,24,0.7834,8577,4.0425,171.4731
rg,1625251223652623832,1,-0.1548,-0.3989,0.7605,277,33.6914,-7.4463,-30.5176,85,1.0665,0,-3.9331,-16.4705,24,0.7844,8257,4.0425,170.5611
rg,1625251223652641956,1,-0.0579,-0.4084,0.7837,278,42.6025,-23.1323,-27.4048,85,1.0645,0,-4.8178,-15.142,25,0.7854,8126,4.0425,169.7909
rg,1625251223652660982,1,0.0757,-0.5344,0.8586,279,60.8521,-20.813,-21.1792,85,1.0675,0,-5.8163,-13.3093,25,0.7904,8182,4.0425,169.228
rg,1625251223652679652,1,0.1587,-0.5603,0.8425,280,75.1953,-15.3809,-18.3105,85,1.0685,0,-6.609,-10.4138,25,0.7894,8226,4.0425,168.6939
rg,1625251223652698189,1,0.3027,-0.5027,0.7922,281,101.5625,8.4839,-22.2168,85,1.0645,0,-6.8714,-7.0643,25,0.7884,8244,4.0425,167.838
rg,1625251223652716088,1,-0.0044,-0.1812,0.6287,282,107.7271,42.3584,-27.6489,85,1.0635,0,-5.0047,-2.9972,25,0.7854,8300,4.0425,166.6346
rg,1625251223652733987,1,-0.425,-0.0542,0.5862,283,85.3882,35.4614,-23.6816,85,1.0615,0,-2.1322,0.3913,25,0.7844,8315,4.0425,165.7049
rg,1625251223652752488,1,-0.5339,-0.0527,0.6594,284,68.9087,8.1787,-21.1182,85,1.0595,0,-0.2945,3.0022,25,0.7834,8254,4.0425,164.9102
rg,1625251223652771870,1,-0.4878,-0.241,0.7786,285,44.8608,-65.3076,-18.1885,85,1.0625,0,-1.6739,4.1332,25,0.7854,8281,4.0425,164.0359
rg,1625251223652791197,1,-0.0933,-0.252,0.7893,286,48.1567,-114.8682,-5.7983,85,1.0635,0,-5.902,5.2534,25,0.7884,8368,4.0425,163.4545
rg,1625251223652810505,1,0.1689,-0.2715,0.7861,287,52.4292,-127.9907,-0.1831,85,1.0655,0,-11.6124,6.5335,25,0.7884,8410,4.0425,162.9997
rg,1625251223652830432,1,0.365,-0.2146,0.772,288,60.1196,-110.8398,0,85,1.0655,0,-16.5247,8.2748,25,0.7874,8992,4.0425,162.5637
rg,1625251224017134094,1,0.1458,0.1204,0.9683,289,19.165,-122.2534,10.9863,85,1.0665,0,-21.0836,9.09,25,0.7764,27072,4.0425,162.2571
rg,1625251224017175398,1,0.7053,-0.1182,1.0066,290,74.8901,-95.459,20.1416,85,1.0675,0,-25.5275,11.4783,25,0.7734,10783,4.0425,162.5636
rg,1625251224017196865,1,0.4539,-0.2534,0.7556,291,134.5825,-68.6646,32.7759,85,1.0685,0,-28.7741,15.4059,25,0.7734,7854,4.0425,163.749
rg,1625251224017217058,1,0.8784,0.2549,0.5569,292,139.9536,-95.7642,28.2593,85,1.0685,0,-33.6912,21.7573,25,0.7734,7954,4.0425,163.1882
rg,1625251224017236144,1,0.551,0.2737,0.6248,293,116.5771,-22.522,14.5264,85,1.0685,0,-34.9397,26.3569,25,0.7724,7836,4.0425,163.3385
rg,1625251224017254499,1,0.1758,0.1038,0.7483,294,95.2759,-20.6909,11.4746,85,1.0685,0,-35.1072,29.263,25,0.7724,7941,4.0425,163.8828
rg,1625251224017272348,1,0.2468,0.1179,0.7532,295,91.8579,-36.1938,12.5732,85,1.0685,0,-36.1888,32.2393,25,0.7734,7874,4.0425,164.0332
rg,1625251224017290704,1,0.3584,0.1252,0.8264,296,83.0078,-40.1001,12.7563,85,1.0685,0,-37.3956,34.8302,25,0.7734,9523,4.0425,164.0923
rg,1625251224017307709,1,0.396,-0.0039,0.9431,297,72.876,-34.6069,7.8125,85,1.0685,0,-38.3572,36.6277,25,0.7744,9129,4.0425,164.3315
rg,1625251224017325502,1,0.3418,-0.052,0.9824,298,70.4956,-20.3247,0.9766,85,1.0705,0,-38.5881,38.0401,25,0.7744,8592,4.0425,164.8473
rg,1625251224017343219,1,0.165,-0.0435,1.0342,299,70.0073,-12.9395,-7.3242,85,1.0715,0,-38.0292,39.3943,25,0.7784,8130,4.0425,165.3269
rg,1625251224017361762,1,0.104,-0.0889,1.0684,300,70.8008,-14.8315,-10.7422,85,1.0705,0,-37.387,40.7574,25,0.7774,8058,4.0425,165.6824
rg,1625251224017378955,1,0.0894,-0.2109,1.1851,301,80.5664,-25.5127,-10.0708,85,1.0735,0,-37.1586,42.4911,25,0.7794,8138,4.0425,165.8188
rg,1625251224017396335,1,0.1721,-0.2593,1.2195,302,100.5249,-31.9214,-7.3853,85,1.0745,0,-37.3524,45.0157,25,0.7834,8136,4.0425,165.8576
rg,1625251224017433533,1,0.2295,-0.2581,1.2354,303,113.2812,-32.3486,-5.249,85,1.0755,0,-37.7552,48.0773,25,0.7854,8108,4.0425,165.8932
rg,1625251224017453238,1,0.3372,-0.1692,1.1914,304,135.5591,-21.3013,-0.5493,85,1.0725,0,-38.0553,51.6824,25,0.7854,8376,4.0425,166.4832
rg,1625251224017471893,1,0.478,-0.1348,1.1865,305,158.02,-2.8076,-3.2349,85,1.0705,0,-38.0345,55.8271,25,0.7864,8166,4.0425,167.6911
rg,1625251224017490380,1,0.3328,0.0337,1.1201,306,165.0391,24.292,-14.8315,85,1.0685,0,-36.783,59.7788,25,0.7844,9834,4.0425,169.7314
rg,1625251224017508323,1,0.0586,0.1809,1.0901,307,159.2407,37.5977,-17.4561,85,1.0645,0,-34.7264,63.234,25,0.7834,8234,4.0425,-187.7101
rg,1625251224017525778,1,-0.0547,0.2456,1.0583,308,150.7568,33.7524,-14.1602,85,1.0625,0,-32.5852,66.5718,25,0.7804,8235,4.0425,-185.3409
rg,1625251224017544377,1,-0.1431,0.3359,1.0464,309,128.6621,4.6387,-10.0708,85,1.0605,0,-31.1246,69.6679,25,0.7764,8262,4.0425,-184.1931
rg,1625251224017562376,1,-0.0068,0.3101,1.0986,310,101.3794,-29.541,-5.3711,85,1.0625,0,-30.6212,72.2645,25,0.7754,8283,4.0425,-184.441
rg,1625251224017586468,1,0.2061,0.2671,1.1531,311,84.4727,-44.3726,-1.0986,85,1.0625,0,-30.851,74.4051,25,0.7754,8289,4.0425,-185.2794
rg,1625251224017605873,1,0.2839,0.2378,1.1758,312,76.416,-41.5649,1.1597,85,1.0605,0,-31.2611,76.1074,25,0.7734,8329,4.0425,-185.9525
rg,1625251224017624060,1,0.3191,0.1787,1.2356,313,69.9463,-26.9165,4.5166,85,1.0595,0,-31.7419,77.114,25,0.7744,8397,4.0425,-185.8802
rg,1625251224017642452,1,0.333,0.1238,1.271,314,71.7773,-12.8784,7.019,85,1.0635,0,-32.2543,77.7849,25,0.7764,8408,4.0425,-185.0958
rg,1625251224017660508,1,0.3723,0.1611,1.2124,315,74.8901,-7.9346,8.8501,85,1.0645,0,-32.8183,78.4643,25,0.7774,8422,4.0425,-183.7416
rg,1625251224017766758,1,0.3506,0.1995,1.1777,316,81.543,9.4604,9.6436,85,1.0655,0,-33.241,78.9898,25,0.7774,8470,4.0425,-181.8803
rg,1625251224017791563,1,0.2913,0.2473,1.0876,317,86.9751,24.7192,9.3994,85,1.0675,0,-33.4264,79.3507,25,0.7774,8547,4.0425,-179.2961
rg,1625251224017810874,1,0.1907,0.3201,1.0144,318,89.1724,29.7852,6.4697,85,1.0695,0,-33.2275,79.7282,25,0.7794,8458,4.0425,-176.5179
rg,1625251224017832323,1,0.1929,0.3579,0.978,319,88.9893,23.4375,2.6855,85,1.0705,0,-32.9093,80.3466,24,0.7784,8549,4.0425,-174.1133
rg,1625251224017890182,1,0.196,0.3933,0.9697,320,88.9893,23.0103,2.0752,85,1.0715,0,-32.5667,81.0275,24,0.7774,8488,4.0425,-171.7702
rg,1625251224376552406,1,-0.1653,-0.8228,2.8804,321,125.061,110.2295,24.4751,85,1.0725,0,-32.8808,80.4301,25,0.7764,24670,4.0425,-164.9582
rg,1625251224376611371,1,-1.2083,0.2598,1.9165,322,221.0083,79.5898,55.2979,85,1.0725,0,-33.3941,84.7721,25,0.7764,15169,4.0425,-159.6032
rg,1625251224376633045,1,-0.7344,0.3252,1.7776,323,199.1577,-44.0063,67.749,85,1.0735,0,-35.1812,91.3616,25,0.7754,9309,4.0425,-160.2081
rg,1625251224376652844,1,-0.4124,0.4817,1.6406,324,183.5938,-75.0732,75.1343,85,1.0735,0,-37.258,98.4905,25,0.7734,7931,4.0425,-162.716
rg,1625251224376671499,1,0.0825,0.9016,1.2761,325,146.2402,-121.46,52.7344,85,1.0735,0,-37.8327,105.7539,25,0.7724,8213,4.0425,-167.6761
rg,1625251224376690604,1,0.4341,1.0676,1.0005,326,89.2944,-131.0425,22.3999,85,1.0735,0,-36.8891,110.9897,25,0.7714,8011,4.0425,-172.8288
rg,1625251224376709822,1,0.6306,1.0322,0.8228,327,30.5786,-89.8438,3.2959,85,1.0755,0,-35.8487,112.5022,25,0.7724,8230,4.0425,-175.7018
rg,1625251224376728027,1,0.6548,0.9241,0.813,328,2.2583,-63.8428,-2.3804,85,1.0765,0,-35.1344,112.0204,25,0.7724,8194,4.0425,-177.2435
rg,1625251224376745801,1,0.5129,0.6206,0.8274,329,-36.7432,-15.2588,-11.9629,85,1.0725,0,-34.9683,108.3933,25,0.7714,7976,4.0425,-176.3175
rg,1625251224376763500,1,0.4058,0.4915,0.7412,330,-53.1006,3.0518,-18.7988,85,1.0775,0,-34.7008,103.5724,25,0.7744,7999,4.0425,-174.4862
rg,1625251224376781818,1,0.4084,0.4434,0.7222,331,-59.3872,7.4463,-22.2778,85,1.0775,0,-34.4176,98.4595,25,0.7734,7998,4.0425,-172.5206
rg,1625251224376798823,1,0.4202,0.3347,0.7161,332,-63.8428,22.644,-26.9165,85,1.0765,0,-33.9488,92.8516,24,0.7744,8037,4.0425,-169.9335
rg,1625251224376816334,1,0.3867,0.2468,0.7109,333,-58.7158,45.5322,-30.5176,85,1.0785,0,-33.2276,86.9238,24,0.7754,8064,4.0425,-166.3935
rg,1625251224376833602,1,0.3208,0.2134,0.7246,334,-52.3071,57.251,-31.4331,85,1.0785,0,-31.8555,81.1538,24,0.7754,8109,4.0425,-162.1203
rg,1625251224376850158,1,0.1826,0.1736,0.7451,335,-34.5459,67.4438,-32.4707,85,1.0765,0,-30.029,75.9333,24,0.7744,8127,4.0425,-158.0547
rg,1625251224376866769,1,0.1201,0.1416,0.7949,336,-12.6343,59.4482,-34.5459,85,1.0795,0,-27.8565,72.0198,25,0.7764,8126,4.0425,-154.6922
rg,1625251224376883362,1,0.0928,0.1284,0.8613,337,-0.7324,53.0396,-39.0015,85,1.0795,0,-25.5327,69.672,25,0.7764,8170,4.0425,-152.425
rg,1625251224376900311,1,0.0664,0.1526,0.9177,338,35.5835,21.8506,-46.5698,85,1.0785,0,-23.1459,68.8493,25,0.7764,11954,4.0425,-151.3052
rg,1625251224376917073,1,0.1404,0.1853,0.9702,339,59.2041,-11.2305,-53.3447,85,1.0785,0,-21.1449,69.622,25,0.7764,8186,4.0425,-151.7492
rg,1625251224376934097,1,0.2476,0.2344,0.988,340,70.1904,-27.3438,-54.8096,85,1.0785,0,-19.5167,71.1099,25,0.7774,8170,4.0425,-152.9128
rg,1625251224376950446,1,0.4956,0.3333,1.0015,341,88.0127,-41.4429,-56.7017,85,1.0795,0,-18.3608,73.6651,25,0.7784,8386,4.0425,-154.7276
rg,1625251224376980144,1,0.6658,0.4707,0.9792,342,96.4355,-30.0903,-56.2134,85,1.0795,0,-17.2266,76.5587,25,0.7784,8393,4.0425,-156.0833
rg,1625251224376998443,1,0.7627,0.6421,0.9084,343,94.9707,-2.8076,-47.1191,85,1.0835,0,-16.2302,79.205,25,0.7774,10254,4.0425,-156.2329
rg,1625251224377015523,1,0.75,0.7764,0.8225,344,89.1113,16.7236,-39.7949,85,1.0815,0,-15.4193,80.815,25,0.7794,8949,4.0425,-154.7116
rg,1625251224377032116,1,0.6458,0.7832,0.8049,345,65.979,52.1851,-30.9448,85,1.0785,0,-14.5637,81.7185,25,0.7774,8293,4.0425,-152.4393
rg,1625251224377048840,1,0.4604,0.728,0.8162,346,44.6777,68.8477,-20.5688,85,1.0805,0,-13.8083,81.4391,25,0.7774,8316,4.0425,-149.3921
rg,1625251224377066539,1,0.3545,0.6716,0.8035,347,30.2734,72.1436,-14.1602,83,1.0805,0,-13.1291,80.4993,25,0.7794,8374,4.0436,-146.1896
rg,1625251224377083094,1,0.3091,0.6501,0.8081,348,24.1089,73.2422,-13.1226,83,1.0805,0,-12.2556,79.0384,25,0.7794,8416,4.0436,-142.8778
rg,1625251224377099462,1,0.1914,0.5994,0.8096,349,14.2212,77.5146,-13.7939,83,1.0785,0,-11.1579,77.442,25,0.7794,8391,4.0436,-139.556
rg,1625251224377116561,1,0.0522,0.5627,0.8113,350,7.5073,76.2939,-15.2588,83,1.0805,0,-9.6585,75.6434,25,0.7794,8414,4.0436,-136.3763
rg,1625251224377133454,1,-0.0554,0.5266,0.8477,351,3.2959,64.7583,-16.6016,83,1.0805,0,-7.9449,73.8133,25,0.7814,8488,4.0436,-133.7585
rg,1625251224377150722,1,-0.0862,0.5095,0.8738,352,5.0049,56.7627,-17.2729,83,1.0815,0,-6.171,72.1633,25,0.7824,8443,4.0436,-131.5556
rg,1625251224735399400,1,0.0146,0.5291,0.9373,353,17.334,8.667,-15.5029,83,1.0805,0,-5.4832,71.3907,25,0.7824,25516,4.0436,-131.492
rg,1625251224735458009,1,0.1619,0.5837,0.9263,354,18.6157,-5.5542,-15.3809,83,1.0805,0,-5.1371,70.7311,25,0.7824,8715,4.0436,-131.7619
rg,1625251224735489339,1,0.1982,0.6011,0.9185,355,16.5405,-6.4087,-14.2822,83,1.0815,0,-4.9276,70.0472,25,0.7834,7715,4.0436,-132.0686
rg,1625251224735562834,1,0.2466,0.6038,0.9023,356,12.5122,-5.6763,-13.7329,83,1.0805,0,-4.8387,69.2508,25,0.7834,7783,4.0436,-132.3541
rg,1625251224735618575,1,0.272,0.6001,0.8625,357,6.958,-3.1128,-14.2212,83,1.0815,0,-4.7674,68.2924,25,0.7834,7770,4.0436,-132.5638
rg,1625251224735648123,1,0.2839,0.5916,0.8523,358,4.2114,-2.3804,-11.5967,83,1.0815,0,-4.8436,67.2449,25,0.7834,7981,4.0436,-132.7179
rg,1625251224735677390,1,0.2939,0.5576,0.8376,359,-2.0752,3.54,-12.2681,83,1.0775,0,-4.8185,65.9415,25,0.7834,8022,4.0436,-132.6704
rg,1625251224735705626,1,0.2554,0.4912,0.8481,360,-4.3335,10.6201,-13.0005,83,1.0815,0,-4.59,64.4487,25,0.7844,13455,4.0436,-132.3832
rg,1625251224735733262,1,0.239,0.4829,0.8589,361,-3.7231,13.0615,-15.1367,83,1.0805,0,-4.2064,62.998,25,0.7844,7875,4.0436,-132.0701
rg,1625251224735761554,1,0.2009,0.4639,0.8738,362,-0.7324,15.1978,-15.625,83,1.0815,0,-3.6896,61.6577,25,0.7844,7886,4.0436,-131.7188
rg,1625251224735787822,1,0.1731,0.4644,0.8806,363,3.9062,14.4043,-15.9302,83,1.0805,0,-3.1241,60.5404,25,0.7844,8069,4.0436,-131.4343
rg,1625251224735815270,1,0.1624,0.4875,0.8799,364,5.8594,13.1836,-15.625,83,1.0805,0,-2.5787,59.5794,25,0.7844,8085,4.0436,-131.2187
rg,1625251224735842362,1,0.1628,0.5203,0.8762,365,7.019,11.9629,-16.7847,83,1.0805,0,-2.0289,58.7596,24,0.7834,8656,4.0436,-131.097
rg,1625251224735869755,1,0.1587,0.533,0.885,366,6.2256,9.8267,-16.4795,83,1.0825,0,-1.5379,57.9508,24,0.7854,8568,4.0436,-131.0656
rg,1625251224735896997,1,0.1543,0.5391,0.8862,367,5.5542,9.7046,-16.8457,83,1.0825,0,-1.0405,57.1474,24,0.7864,7991,4.0436,-131.0668
rg,1625251224735925008,1,0.1516,0.5466,0.9006,368,4.5776,7.3242,-16.1743,83,1.0795,0,-0.6274,56.3365,24,0.7844,8064,4.0436,-131.1536
rg,1625251224735951875,1,0.1609,0.5442,0.8909,369,3.1128,5.6152,-16.9678,83,1.0825,0,-0.2647,55.5034,25,0.7854,8036,4.0436,-131.3321
rg,1625251224735980392,1,0.1685,0.55,0.8857,370,2.6855,4.5166,-16.9678,83,1.0825,0,0.0394,54.6841,25,0.7854,8035,4.0436,-131.5627
rg,1625251224736040576,1,0.1726,0.5486,0.8838,371,2.2583,2.8076,-16.1133,83,1.0805,0,0.2538,53.8905,25,0.7844,8088,4.0436,-131.843
rg,1625251224736072168,1,0.1831,0.5374,0.8691,372,1.9531,2.8076,-15.8691,83,1.0825,0,0.42,53.111,25,0.7864,8082,4.0436,-132.1286
rg,1625251224736098885,1,0.1914,0.5461,0.8616,373,1.709,3.1128,-15.3809,83,1.0835,0,0.5273,52.3756,25,0.7864,8103,4.0436,-132.4022
rg,1625251224736126727,1,0.2031,0.5432,0.8596,374,1.8921,3.2959,-14.2212,83,1.0815,0,0.5916,51.6718,25,0.7854,8122,4.0436,-132.65
rg,1625251224736154645,1,0.2214,0.5442,0.8511,375,2.3804,4.8218,-14.2822,83,1.0825,0,0.649,51.0277,25,0.7864,8144,4.0436,-132.8581
rg,1625251224736181512,1,0.2244,0.5479,0.8474,376,2.3804,5.6152,-12.2681,83,1.0825,0,0.6791,50.4258,25,0.7874,8185,4.0436,-132.9415
rg,1625251224736253208,1,0.2273,0.5483,0.8572,377,1.77,7.3853,-11.5967,83,1.0805,0,0.7027,49.8056,25,0.7854,8172,4.0436,-133.0149
rg,1625251224736376145,1,0.2278,0.5427,0.865,378,0.7324,8.606,-10.3149,83,1.0835,0,0.7178,49.1492,25,0.7874,8233,4.0436,-133.024
rg,1625251224736411993,1,0.2305,0.5439,0.866,379,0.4883,9.7046,-10.5591,83,1.0815,0,0.7798,48.4852,25,0.7864,8235,4.0436,-132.975
rg,1625251224736441916,1,0.2297,0.5273,0.8799,380,-0.2441,11.2915,-9.7046,83,1.0835,0,0.843,47.7969,25,0.7874,10129,4.0436,-132.9009
rg,1625251224736468033,1,0.2175,0.5261,0.8857,381,-0.1831,11.5356,-9.3384,83,1.0815,0,0.9274,47.1267,25,0.7854,8337,4.0436,-132.8177
rg,1625251224736497338,1,0.2021,0.5156,0.8848,382,0.5493,12.146,-9.2163,83,1.0825,0,1.0521,46.4918,25,0.7854,8293,4.0436,-132.7212
rg,1625251224736525124,1,0.1917,0.5088,0.8752,383,1.2817,11.1084,-10.0098,83,1.0825,-0.001,1.1849,45.9059,25,0.7874,8331,4.0436,-132.6844
rg,1625251224736552928,1,0.1919,0.5122,0.8779,384,1.77,11.2915,-11.1694,83,1.0835,0,1.345,45.3676,25,0.7884,8284,4.0436,-132.6817
rg,1625251225100474488,1,0.2075,0.5203,0.866,385,3.1128,7.3853,-10.9253,83,1.0825,0,1.3941,44.9537,25,0.7874,25884,4.0436,-132.808
rg,1625251225100514717,1,0.2146,0.5371,0.8691,386,3.6011,7.6294,-12.2681,83,1.0825,0,1.4354,44.5743,25,0.7874,8696,4.0436,-132.95
rg,1625251225100534860,1,0.217,0.5386,0.8674,387,2.6245,7.0801,-12.4512,83,1.0825,0,1.4636,44.1159,25,0.7874,7825,4.0436,-133.0892
rg,1625251225100553374,1,0.2166,0.5247,0.8801,388,1.4648,8.667,-12.4512,83,1.0825,0,1.5247,43.6419,25,0.7874,9566,4.0436,-133.2168
rg,1625251225100571496,1,0.21,0.5237,0.8831,389,1.5259,8.7891,-12.4512,83,1.0825,0,1.6079,43.1895,25,0.7874,7841,4.0436,-133.346
rg,1625251225100589242,1,0.2124,0.5173,0.8755,390,1.0986,8.7891,-12.5122,83,1.0825,0,1.6795,42.734,25,0.7864,9086,4.0436,-133.482
rg,1625251225100607644,1,0.209,0.5166,0.875,391,1.77,9.0942,-12.4512,83,1.0845,0,1.7613,42.3216,25,0.7884,8608,4.0436,-133.6129
rg,1625251225100625484,1,0.2036,0.5195,0.8767,392,1.4648,7.9956,-10.9253,83,1.0815,0,1.7782,41.9159,25,0.7874,7944,4.0436,-133.7327
rg,1625251225100642276,1,0.2112,0.521,0.8687,393,1.8311,8.3008,-10.9253,83,1.0835,0,1.7842,41.5529,25,0.7864,7964,4.0436,-133.8473
rg,1625251225100658694,1,0.219,0.5134,0.8713,394,2.1362,8.5449,-12.085,83,1.0845,0,1.7952,41.1892,25,0.7894,7954,4.0436,-133.9875
rg,1625251225100675299,1,0.219,0.5154,0.8762,395,2.1362,9.1553,-12.085,83,1.0815,0,1.8406,40.8473,25,0.7874,8014,4.0436,-134.1211
rg,1625251225100691286,1,0.2168,0.5103,0.8706,396,1.77,9.7656,-12.3901,83,1.0835,0,1.9111,40.5006,25,0.7874,8016,4.0436,-134.2516
rg,1625251225100707422,1,0.2188,0.511,0.8728,397,3.1128,10.3149,-12.4512,83,1.0845,0,1.9934,40.2198,25,0.7874,9088,4.0436,-134.3735
rg,1625251225100725600,1,0.2214,0.5134,0.8757,398,3.9673,9.5215,-12.3901,83,1.0835,0,2.0423,39.9846,25,0.7894,9820,4.0436,-134.5172
rg,1625251225100756844,1,0.2231,0.5156,0.8772,399,4.1504,9.6436,-12.3901,83,1.0825,0,2.0901,39.7681,25,0.7894,8118,4.0436,-134.6603
rg,1625251225100807201,1,0.2302,0.5137,0.8794,400,4.2725,10.6812,-13.3667,83,1.0805,0,2.178,39.5589,25,0.7884,8072,4.0436,-134.8093
rg,1625251225100831387,1,0.2271,0.5149,0.8745,401,4.8218,10.5591,-12.3901,83,1.0835,0,2.2384,39.3878,25,0.7894,8106,4.0436,-134.9337
rg,1625251225100849227,1,0.2285,0.5168,0.8718,402,4.8828,11.1694,-12.2681,83,1.0835,0,2.3247,39.2181,25,0.7884,8104,4.0436,-135.0412
rg,1625251225100866506,1,0.2156,0.5168,0.8765,403,4.6387,11.1084,-13.1226,83,1.0815,0,2.4391,39.0526,25,0.7884,8155,4.0436,-135.1786
rg,1625251225100883485,1,0.2163,0.5168,0.8704,404,4.6387,11.5356,-12.6343,83,1.0835,0,2.5458,38.9011,25,0.7894,8183,4.0436,-135.2922
rg,1625251225100900315,1,0.2178,0.5173,0.8757,405,4.5776,11.2915,-12.5122,83,1.0845,0,2.6631,38.7704,25,0.7894,8191,4.0436,-135.4258
rg,1625251225100916919,1,0.21,0.5212,0.8745,406,5.0659,10.9253,-13.0615,83,1.0815,0,2.7681,38.648,25,0.7884,8213,4.0436,-135.572
rg,1625251225100935789,1,0.21,0.5146,0.8665,407,5.9814,11.1084,-13.916,83,1.0835,0,2.8915,38.5622,25,0.7894,13911,4.0436,-135.7423
rg,1625251225100953068,1,0.2109,0.532,0.8638,408,6.4697,10.6812,-13.855,83,1.0835,0,3.0037,38.5155,25,0.7894,8256,4.0436,-135.8959
rg,1625251225100970103,1,0.2166,0.5342,0.8706,409,5.5542,11.1084,-13.0005,83,1.0835,0,3.0869,38.4504,25,0.7894,8296,4.0436,-136.0384
rg,1625251225100987232,1,0.208,0.5349,0.8638,410,5.127,10.498,-13.2446,83,1.0835,0,3.1691,38.3781,25,0.7894,8327,4.0436,-136.2045
rg,1625251225101004642,1,0.2031,0.5415,0.864,411,3.7231,10.7422,-12.146,83,1.0835,0,3.2399,38.2661,25,0.7894,8339,4.0436,-136.3304
rg,1625251225101021602,1,0.2107,0.5327,0.8689,412,3.2959,10.0708,-12.5732,83,1.0825,0,3.2595,38.0974,25,0.7904,8502,4.0436,-136.469
rg,1625251225101124900,1,0.2085,0.5393,0.8748,413,2.0752,10.0098,-11.7798,83,1.0815,0,3.2863,37.9138,25,0.7884,8368,4.0436,-136.6054
rg,1625251225101169136,1,0.2122,0.5266,0.8735,414,1.709,8.9722,-11.2915,83,1.0845,0,3.2565,37.7002,25,0.7884,8384,4.0436,-136.7549
rg,1625251225101189784,1,0.2148,0.519,0.8726,415,2.1973,9.9487,-12.2681,83,1.0835,0,3.2744,37.5011,25,0.7904,8437,4.0436,-136.9135
rg,1625251225101209365,1,0.2122,0.5222,0.8757,416,2.1362,10.8032,-13.3667,83,1.0835,0,3.3346,37.3333,25,0.7894,8470,4.0436,-137.0367
rg,1625251225457160549,1,0.2163,0.5259,0.8643,417,3.9062,10.6812,-12.8784,83,1.0835,0,3.3705,37.259,25,0.7904,27584,4.0436,-137.2202
rg,1625251225457198739,1,0.2217,0.5359,0.8652,418,3.6011,11.3525,-13.3667,83,1.0835,0,3.4408,37.1722,25,0.7904,8786,4.0436,-137.3816
rg,1625251225457219200,1,0.2161,0.541,0.8638,419,3.3569,11.6577,-13.9771,83,1.0835,0,3.5447,37.0888,25,0.7894,7790,4.0436,-137.5556
rg,1625251225457238612,1,0.2109,0.5386,0.864,420,2.8687,11.1694,-12.6953,83,1.0835,0,3.6012,36.9623,25,0.7904,7825,4.0436,-137.6889
rg,1625251225457256808,1,0.2073,0.5386,0.8716,421,1.4038,11.1694,-11.1694,83,1.0835,0,3.6357,36.7997,25,0.7904,7863,4.0436,-137.7885
rg,1625251225457274405,1,0.208,0.5298,0.8792,422,0.6714,10.437,-11.3525,83,1.0835,0,3.6489,36.5878,25,0.7904,7823,4.0436,-137.9146
rg,1625251225457291347,1,0.2097,0.5259,0.8748,423,1.0376,10.498,-12.4512,83,1.0845,0,3.6319,36.3913,25,0.7904,8039,4.0436,-138.048
rg,1625251225457308158,1,0.2092,0.5239,0.8789,424,1.0376,10.0098,-12.3901,83,1.0815,0,3.6514,36.1963,25,0.7894,8026,4.0436,-138.2217
rg,1625251225457325043,1,0.2129,0.5181,0.8728,425,0.9766,9.3384,-11.4746,83,1.0845,0,3.6156,36.0034,25,0.7914,7932,4.0436,-138.3837
rg,1625251225457342734,1,0.2144,0.5186,0.8677,426,1.3428,9.7046,-12.146,83,1.0845,0,3.631,35.8574,25,0.7914,7907,4.0436,-138.5709
rg,1625251225457360986,1,0.2166,0.5239,0.8687,427,1.2817,9.2163,-11.1084,83,1.0825,0,3.5746,35.7061,25,0.7894,7949,4.0436,-138.7253
rg,1625251225457379818,1,0.2129,0.5208,0.8682,428,1.4648,9.8267,-12.085,83,1.0835,0,3.5691,35.5614,25,0.7904,7956,4.0436,-138.8985
rg,1625251225457418344,1,0.2256,0.5215,0.8655,429,2.5635,10.437,-12.5122,83,1.0835,0,3.5662,35.471,25,0.7904,11574,4.0436,-139.0721
rg,1625251225457438469,1,0.228,0.5203,0.8691,430,2.2583,11.0474,-12.3291,83,1.0835,0,3.5748,35.3667,25,0.7904,8012,4.0436,-139.2267
rg,1625251225457456571,1,0.229,0.5168,0.8718,431,2.5024,10.437,-12.085,83,1.0835,0,3.5556,35.2664,25,0.7904,8013,4.0436,-139.3891
rg,1625251225457473887,1,0.2283,0.5161,0.8684,432,3.1128,11.8408,-12.5122,83,1.0835,0,3.5924,35.1979,25,0.7904,8064,4.0436,-139.5334
rg,1625251225457490922,1,0.2285,0.5183,0.8691,433,4.0283,12.207,-13.0615,83,1.0845,0,3.6525,35.171,25,0.7904,8089,4.0436,-139.6879
rg,1625251225457507883,1,0.2224,0.5164,0.8765,434,4.1504,11.2305,-11.7798,83,1.0845,0,3.6622,35.1496,25,0.7904,8856,4.0436,-139.8135
rg,1625251225457525143,1,0.2261,0.5188,0.8757,435,4.3335,12.3901,-12.5732,83,1.0845,0,3.703,35.1424,25,0.7914,8166,4.0436,-139.9043
rg,1625251225457541804,1,0.2168,0.5205,0.8782,436,5.249,13.6719,-12.3901,83,1.0825,0,3.819,35.1632,25,0.7894,8297,4.0436,-140.0042
rg,1625251225457558652,1,0.208,0.5217,0.8713,437,4.8828,13.2446,-11.7798,83,1.0835,0,3.9184,35.1787,25,0.7904,8187,4.0436,-140.0936
rg,1625251225457575762,1,0.207,0.5283,0.8706,438,4.6387,13.1836,-11.7188,83,1.0855,0,4.0464,35.1785,25,0.7914,8187,4.0436,-140.2365
rg,1625251225457593284,1,0.2068,0.5308,0.875,439,4.5166,12.8174,-13.1836,83,1.0835,0,4.1612,35.1871,24,0.7904,8409,4.0436,-140.3814
rg,1625251225457610787,1,0.2087,0.5278,0.8623,440,4.1504,12.085,-12.3901,83,1.0845,0,4.2204,35.1904,24,0.7904,8246,4.0436,-140.5169
rg,1625251225457628553,1,0.2065,0.5266,0.8608,441,3.7231,11.2305,-11.9629,83,1.0845,0,4.2435,35.1753,24,0.7914,8289,4.0436,-140.6584
rg,1625251225457645644,1,0.2102,0.5317,0.8643,442,3.54,11.4136,-13.1836,83,1.0845,0,4.2944,35.145,24,0.7914,8298,4.0436,-140.8362
rg,1625251225457662343,1,0.2083,0.5308,0.8733,443,3.0518,11.0474,-12.5732,83,1.0835,0,4.3243,35.0963,25,0.7904,8322,4.0436,-141.003
rg,1625251225457690891,1,0.2117,0.53,0.8704,444,2.8076,11.3525,-12.7563,83,1.0845,0,4.3588,35.0419,25,0.7914,8364,4.0436,-141.1691
rg,1625251225457708338,1,0.209,0.5295,0.8743,445,2.9907,10.6201,-11.7188,83,1.0845,0,4.3545,35,25,0.7914,8386,4.0436,-141.3496
rg,1625251225457724999,1,0.2122,0.5349,0.873,446,2.4414,9.9487,-12.4512,83,1.0825,0,4.3358,34.9389,25,0.7894,8496,4.0436,-141.5385
rg,1625251225457742877,1,0.2166,0.5269,0.8772,447,2.3804,10.376,-12.6343,83,1.0855,0,4.3266,34.8586,25,0.7904,8439,4.0436,-141.7255
rg,1625251225457759818,1,0.2087,0.5261,0.8701,448,2.2583,11.2305,-13.1226,83,1.0845,0,4.3698,34.7831,25,0.7924,8438,4.0436,-141.9091
rg,1625251225815243451,1,0.2124,0.5259,0.865,449,2.9907,9.7046,-13.0005,83,1.0845,0,4.3631,34.7472,24,0.7914,25657,4.0436,-142.1236
rg,1625251225815279132,1,0.2202,0.5269,0.8726,450,3.1738,9.6436,-13.3667,83,1.0845,0,4.3358,34.708,24,0.7914,10745,4.0436,-142.3527
rg,1625251225815299162,1,0.2273,0.5254,0.8687,451,3.9062,10.0098,-13.7939,83,1.0835,0,4.3149,34.7011,24,0.7914,10516,4.0436,-142.5875
rg,1625251225815318145,1,0.2229,0.5234,0.8745,452,3.7842,10.1318,-12.8174,83,1.0845,0,4.2873,34.6819,25,0.7914,9605,4.0436,-142.7882
rg,1625251225815336210,1,0.2244,0.52,0.8665,453,3.418,10.376,-13.0005,83,1.0845,0,4.266,34.6517,25,0.7914,8000,4.0436,-142.9892
rg,1625251225815353413,1,0.2166,0.519,0.8706,454,3.7231,9.6436,-12.207,83,1.0845,0,4.2208,34.6288,25,0.7914,7902,4.0436,-143.1815
rg,1625251225815371460,1,0.2251,0.5225,0.873,455,2.9297,9.9487,-12.9395,83,1.0845,0,4.188,34.5779,25,0.7914,7915,4.0436,-143.3907
rg,1625251225815390648,1,0.2266,0.511,0.873,456,2.9297,9.4604,-12.2681,83,1.0835,0,4.1195,34.5085,25,0.7914,8445,4.0436,-143.5907
rg,1625251225815408338,1,0.2253,0.5107,0.8718,457,2.8076,9.8267,-13.0615,83,1.0845,0,4.0852,34.4348,25,0.7924,7977,4.0436,-143.8
rg,1625251225815425130,1,0.2344,0.5066,0.884,458,3.54,9.4604,-12.6953,83,1.0835,0,4.0173,34.3745,25,0.7904,7941,4.0436,-144.0164
rg,1625251225815442240,1,0.2329,0.5049,0.876,459,4.4556,11.1084,-13.0615,83,1.0855,0,4.0137,34.3604,25,0.7924,8001,4.0436,-144.2073
rg,1625251225815505777,1,0.2349,0.5061,0.8757,460,5.6152,9.7656,-11.1084,83,1.0855,0,3.9543,34.3976,25,0.7924,8028,4.0436,-144.3688
rg,1625251225815524309,1,0.2168,0.5105,0.8838,461,6.2256,10.2539,-11.4136,83,1.0835,0,3.925,34.4573,25,0.7904,8062,4.0436,-144.5243
rg,1625251225815541289,1,0.207,0.5195,0.8806,462,6.4697,8.8501,-10.3149,83,1.0855,0,3.8469,34.545,25,0.7924,8084,4.0436,-144.6735
rg,1625251225815557631,1,0.1995,0.5166,0.8882,463,6.1646,7.5684,-9.8877,83,1.0855,0,3.7661,34.635,25,0.7924,8096,4.0436,-144.8555
rg,1625251225815581780,1,0.1921,0.533,0.8716,464,7.0801,5.188,-9.6436,84,1.0835,0,3.5897,34.7717,25,0.7914,8121,4.0414,-145.0626
rg,1625251225815599883,1,0.199,0.5354,0.8748,465,6.4697,1.1597,-7.1411,84,1.0835,0,3.2192,34.8802,25,0.7924,8141,4.0414,-145.2786
rg,1625251225815617049,1,0.2019,0.5381,0.8738,466,5.7983,0.061,-6.2256,84,1.0855,0,2.8228,34.9472,25,0.7934,8126,4.0414,-145.5116
rg,1625251225815633541,1,0.2061,0.5403,0.8684,467,5.4321,-1.0376,-6.5308,84,1.0835,0,2.3809,35.0256,25,0.7914,8175,4.0414,-145.755
rg,1625251225815651007,1,0.2227,0.542,0.8674,468,4.5166,-2.9907,-6.6528,84,1.0855,0,1.8613,35.0693,25,0.7904,8170,4.0414,-146.0461
rg,1625251225815668155,1,0.2251,0.5386,0.8596,469,4.6997,-2.0752,-7.2021,84,1.0855,0,1.3957,35.124,25,0.7934,8241,4.0414,-146.3327
rg,1625251225815685658,1,0.2292,0.5393,0.8586,470,3.54,-2.4414,-6.6528,84,1.0835,0,0.9148,35.1355,25,0.7914,8231,4.0414,-146.6084
rg,1625251225815702169,1,0.2339,0.5312,0.8552,471,3.1738,-2.2583,-6.5918,84,1.0845,0,0.4441,35.1235,25,0.7914,8218,4.0414,-146.877
rg,1625251225815718531,1,0.2405,0.5251,0.8577,472,3.1128,-1.3428,-5.7983,84,1.0825,0,-0.0111,35.0979,25,0.7914,10156,4.0414,-147.0974
rg,1625251225815735454,1,0.2422,0.5247,0.8596,473,2.9297,-0.7935,-6.1646,84,1.0855,0,-0.4254,35.0645,25,0.7914,8467,4.0414,-147.3159
rg,1625251225815752096,1,0.2432,0.5276,0.8582,474,3.1128,-1.0986,-4.9438,84,1.0855,0,-0.8637,35.0482,25,0.7934,8270,4.0414,-147.5008
rg,1625251225815779858,1,0.2417,0.5298,0.8674,475,3.1738,-2.1973,-3.7842,84,1.0855,0,-1.3584,35.0348,25,0.7934,8453,4.0414,-147.6719
rg,1625251225815796968,1,0.2556,0.5283,0.8689,476,2.9907,-1.2207,-5.3101,84,1.0835,0,-1.7771,35.0075,25,0.7914,8378,4.0414,-147.8691
rg,1625251225815813835,1,0.2388,0.5317,0.8538,477,3.1738,-0.5493,-4.9438,84,1.0855,0,-2.1367,35.0122,25,0.7904,8419,4.0414,-148.0387
rg,1625251225815830122,1,0.2407,0.5278,0.8567,478,2.2583,-0.9155,-4.9438,84,1.0855,0,-2.4981,34.971,25,0.7934,8357,4.0414,-148.2154
rg,1625251225815846146,1,0.2451,0.5273,0.8594,479,2.5635,-2.2583,-4.5166,84,1.0835,0,-2.9073,34.9416,25,0.7914,8446,4.0414,-148.4082
rg,1625251225815862601,1,0.2432,0.532,0.8477,480,2.6855,-1.2207,-4.8218,84,1.0835,0,-3.2594,34.9411,25,0.7914,8504,4.0414,-148.5876
rg,1625251226186202670,1,0.2454,0.5415,0.8457,481,1.3428,-0.3052,-3.9673,84,1.0845,0,-3.5888,34.9134,25,0.7924,25767,4.0414,-148.7188
rg,1625251226186278478,1,0.2532,0.5432,0.8572,482,1.0376,-0.5493,-4.3945,84,1.0845,0,-3.9106,34.848,25,0.7924,10304,4.0414,-148.8866
rg,1625251226186301959,1,0.2566,0.5442,0.8584,483,0.7935,-0.7935,-4.6997,84,1.0845,0,-4.2326,34.7879,25,0.7924,7697,4.0414,-149.0512
rg,1625251226186322243,1,0.2563,0.5483,0.8528,484,0.7935,0.6104,-4.5776,84,1.0845,0,-4.4998,34.7424,25,0.7924,7731,4.0414,-149.1804
rg,1625251226186342302,1,0.2607,0.5496,0.8589,485,-0.1831,0.5493,-4.5776,84,1.0845,0,-4.7647,34.6556,25,0.7924,7719,4.0414,-149.3105
rg,1625251226186362661,1,0.2585,0.5457,0.854,486,-1.3428,-0.061,-2.8687,84,1.0845,0,-5.077,34.5214,25,0.7924,7796,4.0414,-149.3979
rg,1625251226186382665,1,0.2583,0.5405,0.8496,487,-2.2583,0.3662,-2.6855,84,1.0855,0,-5.3703,34.3507,25,0.7924,8030,4.0414,-149.4693
rg,1625251226186403734,1,0.2549,0.5334,0.8604,488,-3.1738,-0.4272,-2.8076,84,1.0835,0,-5.6658,34.1269,25,0.7924,7847,4.0414,-149.5607
rg,1625251226186422298,1,0.2629,0.5244,0.8618,489,-3.8452,-0.9766,-3.2959,84,1.0845,0,-5.9759,33.8701,25,0.7934,8369,4.0414,-149.6794
rg,1625251226186440862,1,0.2795,0.5188,0.8635,490,-4.2725,-1.2817,-1.9531,84,1.0855,0,-6.3497,33.5909,25,0.7914,7937,4.0414,-149.7593
rg,1625251226186492460,1,0.2837,0.5139,0.8594,491,-4.0283,-0.3662,-3.3569,84,1.0855,0,-6.6598,33.3314,25,0.7934,7915,4.0414,-149.8659
rg,1625251226186513996,1,0.2866,0.5137,0.8604,492,-3.418,-0.061,-3.6621,84,1.0835,0,-6.9471,33.1057,25,0.7914,7917,4.0414,-149.977
rg,1625251226186534860,1,0.2717,0.5071,0.8579,493,-3.0518,0.8545,-3.6011,84,1.0865,0,-7.1664,32.8912,25,0.7914,7936,4.0414,-150.0657
rg,1625251226186554733,1,0.2717,0.5051,0.8513,494,-2.6245,0.8545,-3.7842,84,1.0855,0,-7.3771,32.7069,25,0.7934,7951,4.0414,-150.1622
rg,1625251226186572942,1,0.2837,0.5076,0.8525,495,-2.6855,0.4272,-3.479,84,1.0835,0,-7.6246,32.5312,25,0.7914,7991,4.0414,-150.2591
rg,1625251226186591431,1,0.2839,0.4963,0.8528,496,-1.8311,0.061,-3.1738,84,1.0845,0,-7.8853,32.3747,25,0.7914,7992,4.0414,-150.3516
rg,1625251226186609228,1,0.2915,0.5017,0.8516,497,-1.4038,0.7935,-3.7842,84,1.0845,0,-8.1131,32.2543,25,0.7924,12352,4.0414,-150.4515
rg,1625251226186626372,1,0.3005,0.4985,0.8472,498,-1.3428,-0.6714,-2.1973,84,1.0845,0,-8.4376,32.1373,25,0.7924,8101,4.0414,-150.5292
rg,1625251226186645067,1,0.3215,0.5002,0.8574,499,-1.0376,-0.9155,-3.7842,84,1.0845,0,-8.7611,32.0385,25,0.7924,9553,4.0414,-150.6657
rg,1625251226186662135,1,0.3345,0.4888,0.8508,500,-0.4272,-0.061,-3.418,84,1.0845,0,-9.0336,31.9481,25,0.7924,8073,4.0414,-150.7598
rg,1625251226186678699,1,0.3381,0.4844,0.8628,501,-0.1831,1.4038,-3.6621,84,1.0845,0,-9.2945,31.8477,25,0.7924,8081,4.0414,-150.8374
rg,1625251226186696627,1,0.3408,0.4846,0.8508,502,0.5493,3.1738,-3.418,84,1.0845,0,-9.503,31.7869,25,0.7924,8631,4.0414,-150.8712
rg,1625251226186715060,1,0.3472,0.4749,0.8416,503,0.9155,5.188,-4.7607,84,1.0845,0,-9.6291,31.7353,25,0.7924,8788,4.0414,-150.9071
rg,1625251226186733587,1,0.3513,0.4683,0.8555,504,1.4038,5.0049,-4.2725,84,1.0865,0,-9.7721,31.6774,25,0.7934,8202,4.0414,-150.9261
rg,1625251226186752432,1,0.3438,0.47,0.8618,505,1.77,7.2021,-4.4556,84,1.0835,0,-9.8082,31.6234,24,0.7924,8310,4.0414,-150.9039
rg,1625251226186784755,1,0.3347,0.4641,0.8518,506,2.2583,8.667,-2.9907,84,1.0865,0,-9.8135,31.5761,24,0.7924,8471,4.0414,-150.8002
rg,1625251226186857908,1,0.3237,0.4692,0.8545,507,3.54,8.3618,-1.8921,84,1.0865,0,-9.8258,31.5832,24,0.7934,8384,4.0414,-150.667
rg,1625251226186877576,1,0.3201,0.4744,0.8601,508,4.0283,8.4839,-2.9297,84,1.0855,0,-9.7992,31.6189,24,0.7934,8350,4.0414,-150.5675
rg,1625251226186895523,1,0.3318,0.4824,0.8594,509,4.5166,7.6294,-2.7466,84,1.0845,0,-9.8283,31.6914,25,0.7924,10014,4.0414,-150.4824
rg,1625251226186912853,1,0.325,0.4968,0.8579,510,4.5166,8.5449,-3.6621,84,1.0855,0,-9.7879,31.7921,25,0.7924,8372,4.0414,-150.4134
rg,1625251226186930108,1,0.3162,0.5044,0.8523,511,4.7607,8.3008,-3.479,84,1.0865,0,-9.744,31.9191,25,0.7944,8407,4.0414,-150.3455
rg,1625251226186947625,1,0.3157,0.52,0.8535,512,4.2114,7.6904,-3.6621,84,1.0865,0,-9.7273,32.0166,25,0.7944,8439,4.0414,-150.287
rg,1625251226533261599,1,0.3098,0.5374,0.8433,513,0.5493,6.5308,-4.2114,84,1.0855,0,-9.7109,32.0499,25,0.7934,25156,4.0414,-150.2921
rg,1625251226533311234,1,0.3027,0.5308,0.8516,514,-2.0142,4.6997,-4.3335,84,1.0855,0,-9.7737,31.9084,25,0.7944,12981,4.0414,-150.3481
rg,1625251226533333275,1,0.302,0.5261,0.8564,515,-4.3335,2.0752,-3.6011,84,1.0855,0,-9.8998,31.7276,24,0.7934,10338,4.0414,-150.4231
rg,1625251226533352905,1,0.3018,0.52,0.864,516,-5.3101,0.2441,-3.2959,84,1.0855,0,-10.0871,31.5,24,0.7944,7842,4.0414,-150.5247
rg,1625251226533371731,1,0.3013,0.5051,0.8638,517,-6.4087,-0.6714,-3.8452,84,1.0855,0,-10.291,31.2168,24,0.7944,9474,4.0414,-150.6617
rg,1625251226533391772,1,0.2964,0.4961,0.8652,518,-6.5308,-3.418,-4.8218,84,1.0855,0,-10.5529,30.9379,25,0.7944,7864,4.0414,-150.8893
rg,1625251226533409644,1,0.3052,0.4893,0.8662,519,-7.019,-5.4932,-5.3711,84,1.0855,0,-10.8853,30.6491,25,0.7944,9305,4.0414,-151.1787
rg,1625251226533427367,1,0.3064,0.4856,0.8762,520,-7.0801,-6.897,-4.8828,84,1.0855,0,-11.2622,30.3552,25,0.7944,7958,4.0414,-151.4784
rg,1625251226533478067,1,0.3167,0.4817,0.8606,521,-6.958,-7.9346,-7.3242,84,1.0855,0,-11.6433,30.1103,25,0.7944,7976,4.0414,-151.889
rg,1625251226533498408,1,0.3289,0.481,0.8567,522,-6.8359,-10.3149,-7.3853,84,1.0855,0,-12.1196,29.8963,25,0.7944,8017,4.0414,-152.3529
rg,1625251226533516878,1,0.3328,0.4766,0.8516,523,-6.8359,-11.1694,-7.3242,84,1.0855,0,-12.622,29.6948,25,0.7944,8014,4.0414,-152.833
rg,1625251226533534956,1,0.3396,0.4856,0.8406,524,-7.6294,-12.207,-8.9111,84,1.0855,0,-13.1285,29.521,25,0.7944,8162,4.0414,-153.3991
rg,1625251226533554305,1,0.3506,0.4758,0.8352,525,-8.606,-14.0991,-9.3384,84,1.0865,0,-13.7036,29.3195,25,0.7954,8235,4.0414,-154.0176
rg,1625251226533572271,1,0.3584,0.4844,0.8362,526,-8.8501,-13.916,-10.498,84,1.0865,0,-14.3352,29.1125,25,0.7954,8670,4.0414,-154.6575
rg,1625251226533591807,1,0.3713,0.4749,0.8433,527,-9.7046,-15.1367,-9.3994,84,1.0865,0,-14.9451,28.8834,25,0.7954,8117,4.0414,-155.2993
rg,1625251226533613344,1,0.3748,0.4668,0.854,528,-10.1929,-15.1978,-10.2539,84,1.0845,0,-15.5162,28.6382,25,0.7934,8142,4.0414,-155.9707
rg,1625251226533637629,1,0.3411,0.4587,0.8582,529,-9.0332,-16.4185,-11.1084,84,1.0875,0,-16.0247,28.4494,25,0.7954,8156,4.0414,-156.6953
rg,1625251226533657333,1,0.3428,0.4541,0.8491,530,-8.0566,-19.4092,-10.8032,84,1.0865,0,-16.7997,28.3502,25,0.7964,8163,4.0414,-157.4866
rg,1625251226533678159,1,0.3867,0.4563,0.8547,531,-7.3853,-24.5361,-8.9722,84,1.0845,0,-17.6814,28.2809,25,0.7944,8211,4.0414,-158.3008
rg,1625251226533699509,1,0.408,0.4561,0.8403,532,-7.3242,-24.1699,-10.1318,84,1.0865,0,-18.5471,28.2558,25,0.7944,8177,4.0414,-159.1593
rg,1625251226533721363,1,0.4106,0.4531,0.8269,533,-6.5918,-23.6206,-10.1318,84,1.0865,0,-19.3836,28.2906,25,0.7954,8230,4.0414,-160.0101
rg,1625251226533745293,1,0.4214,0.4524,0.8311,534,-6.1035,-23.5596,-10.9253,84,1.0845,0,-20.1799,28.3493,25,0.7944,8267,4.0414,-160.8962
rg,1625251226533765595,1,0.4387,0.4397,0.8181,535,-6.7139,-24.353,-9.5825,84,1.0875,0,-21.0476,28.3714,25,0.7944,8243,4.0414,-161.7484
rg,1625251226533791806,1,0.4609,0.4348,0.8123,536,-6.5918,-21.4233,-9.7046,84,1.0865,0,-21.8267,28.3869,25,0.7954,8308,4.0414,-162.5483
rg,1625251226533866829,1,0.4707,0.4351,0.8159,537,-6.4087,-20.6299,-9.2773,84,1.0865,0,-22.5708,28.4049,25,0.7954,8350,4.0414,-163.3184
rg,1625251226533899246,1,0.468,0.4277,0.8132,538,-5.9204,-16.4795,-9.3994,84,1.0835,0,-23.1382,28.4073,25,0.7944,8326,4.0414,-164.0056
rg,1625251226533926204,1,0.4783,0.4136,0.8105,539,-5.0659,-14.8315,-9.2163,84,1.0875,0,-23.6578,28.4075,25,0.7964,8334,4.0414,-164.6433
rg,1625251226533947516,1,0.5034,0.4014,0.8076,540,-4.3945,-14.1602,-8.9111,84,1.0875,0,-24.1389,28.411,25,0.7964,8432,4.0414,-165.2077
rg,1625251226533969651,1,0.4951,0.3992,0.8171,541,-3.1738,-9.5825,-9.1553,84,1.0855,0,-24.4698,28.4137,25,0.7944,8403,4.0414,-165.721
rg,1625251226533990159,1,0.4998,0.3889,0.8025,542,-1.6479,-4.9438,-9.3384,84,1.0875,0,-24.6493,28.4362,25,0.7944,8423,4.0414,-166.1418
rg,1625251226534012256,1,0.5125,0.3835,0.8047,543,-0.5493,-2.0142,-6.3477,84,1.0875,0,-24.8011,28.4152,25,0.7964,8537,4.0414,-166.3793
rg,1625251226534038785,1,0.5208,0.3796,0.8037,544,0.5493,0.061,-7.2021,84,1.0865,0,-24.8229,28.4272,25,0.7954,9050,4.0414,-166.5497
rg,1625251226887290821,1,0.5002,0.3789,0.8169,545,2.8076,10.2539,-5.3101,84,1.0865,0,-24.5255,28.3922,25,0.7954,25657,4.0414,-166.4788
rg,1625251226887339465,1,0.478,0.3816,0.8198,546,4.5166,13.5498,-6.5308,84,1.0865,0,-24.0542,28.4198,25,0.7954,14804,4.0414,-166.3881
rg,1625251226887360535,1,0.4558,0.3831,0.8208,547,5.8594,14.9536,-8.0566,84,1.0865,0,-23.4781,28.5132,25,0.7964,7716,4.0414,-166.3274
rg,1625251226887380594,1,0.4536,0.3967,0.8237,548,6.5918,15.8691,-9.3384,84,1.0865,0,-22.855,28.6706,25,0.7954,7772,4.0414,-166.3057
rg,1625251226887400093,1,0.4417,0.3958,0.8333,549,7.9956,14.3433,-9.4604,84,1.0865,0,-22.2761,28.8783,25,0.7964,7795,4.0414,-166.312
rg,1625251226887418190,1,0.4446,0.4175,0.8198,550,8.4839,14.9536,-10.437,84,1.0865,0,-21.7258,29.1656,25,0.7964,7793,4.0414,-166.372
rg,1625251226887464946,1,0.4453,0.4236,0.8252,551,9.6436,14.9536,-11.4746,84,1.0865,0,-21.1459,29.5042,25,0.7974,9310,4.0414,-166.453
rg,1625251226887487473,1,0.4517,0.426,0.8267,552,9.7046,14.0991,-11.3525,84,1.0865,0,-20.6171,29.8419,25,0.7954,7849,4.0414,-166.5415
rg,1625251226887505589,1,0.4602,0.4302,0.8127,553,9.8267,13.9771,-12.3901,84,1.0875,0,-20.1187,30.2077,25,0.7964,7918,4.0414,-166.6708
rg,1625251226887523573,1,0.4622,0.4294,0.8188,554,9.6436,13.9771,-12.207,84,1.0855,0,-19.6421,30.539,25,0.7954,7920,4.0414,-166.7812
rg,1625251226887542156,1,0.4668,0.4326,0.8105,555,8.9111,15.4419,-13.1836,84,1.0875,0,-19.1282,30.8434,25,0.7954,7940,4.0414,-166.8927
rg,1625251226887560084,1,0.4707,0.437,0.811,556,8.606,16.4185,-11.7188,84,1.0875,0,-18.6359,31.1062,25,0.7974,7962,4.0414,-166.9251
rg,1625251226887578218,1,0.4644,0.4399,0.8147,557,7.9346,18.1885,-12.3291,84,1.0855,0,-18.0732,31.3273,25,0.7954,8143,4.0414,-166.9351
rg,1625251226887596446,1,0.4429,0.4307,0.8201,558,7.019,19.3481,-11.2305,84,1.0875,0,-17.474,31.4568,25,0.7944,7944,4.0414,-166.8674
rg,1625251226887615047,1,0.4365,0.4407,0.8232,559,6.5918,18.0054,-10.376,84,1.0875,0,-16.9706,31.5661,25,0.7974,7991,4.0414,-166.8023
rg,1625251226887633331,1,0.4351,0.4536,0.833,560,6.3477,16.6626,-9.7656,84,1.0855,0,-16.5006,31.6933,25,0.7954,8039,4.0414,-166.7473
rg,1625251226887650960,1,0.4377,0.4509,0.8357,561,5.6763,15.3198,-11.2305,84,1.0855,0,-16.0683,31.8035,25,0.7974,8084,4.0414,-166.7694
rg,1625251226887668646,1,0.4324,0.4531,0.8335,562,5.3711,14.6484,-9.7046,84,1.0875,0,-15.6534,31.932,25,0.7974,8077,4.0414,-166.7982
rg,1625251226887686387,1,0.4246,0.4583,0.8315,563,5.9814,14.5264,-11.4746,84,1.0855,0,-15.2499,32.0695,25,0.7954,8103,4.0414,-166.8474
rg,1625251226887704129,1,0.4167,0.4604,0.8235,564,5.9204,14.2212,-12.6953,84,1.0855,0,-14.836,32.2243,25,0.7964,8563,4.0414,-166.947
rg,1625251226887721141,1,0.4155,0.4707,0.8206,565,5.6763,12.8174,-12.8174,84,1.0875,0,-14.4779,32.3948,25,0.7964,8171,4.0414,-167.085
rg,1625251226887821925,1,0.4106,0.4785,0.8215,566,5.5542,11.6577,-13.7329,84,1.0865,0,-14.1388,32.5807,25,0.7974,10584,4.0414,-167.2807
rg,1625251226887889863,1,0.425,0.4885,0.8164,567,5.0049,9.6436,-13.6108,84,1.0875,0,-13.9101,32.7717,25,0.7974,8238,4.0414,-167.5196
rg,1625251226887913643,1,0.4268,0.4827,0.8167,568,4.6997,10.0098,-14.6484,84,1.0875,0,-13.6789,32.9244,25,0.7974,8227,4.0414,-167.7767
rg,1625251226887933516,1,0.4395,0.4775,0.825,569,4.2725,9.0332,-15.3809,84,1.0875,0,-13.4756,33.0578,25,0.7974,8261,4.0414,-168.0764
rg,1625251226887952977,1,0.4441,0.4753,0.8157,570,3.7842,8.9111,-14.8315,84,1.0875,0,-13.3128,33.1683,25,0.7974,8310,4.0414,-168.3591
rg,1625251226887973167,1,0.4509,0.4736,0.8193,571,2.8076,9.3994,-14.0991,84,1.0895,0,-13.1668,33.2192,25,0.7974,8531,4.0414,-168.6019
rg,1625251226887991414,1,0.4446,0.4692,0.8215,572,3.0518,9.5825,-14.9536,84,1.0885,0,-13.0062,33.2756,25,0.7984,8862,4.0414,-168.8674
rg,1625251226888009118,1,0.4456,0.4753,0.8237,573,2.7466,10.7422,-13.855,84,1.0855,0,-12.818,33.3079,25,0.7964,8369,4.0414,-169.0693
rg,1625251226888028261,1,0.4421,0.4509,0.8293,574,1.77,11.2915,-14.5264,84,1.0885,0,-12.6046,33.2482,25,0.7984,8390,4.0414,-169.2696
rg,1625251226888045498,1,0.4319,0.449,0.8281,575,1.4648,11.7188,-13.916,84,1.0885,0,-12.3809,33.1682,25,0.7984,8479,4.0414,-169.4405
rg,1625251226888066455,1,0.4263,0.4492,0.8218,576,1.2207,12.5732,-14.5264,84,1.0865,0,-12.1179,33.0883,25,0.7984,8578,4.0414,-169.6169
rg,1625251227252215274,1,0.3958,0.4524,0.834,577,1.2207,11.3525,-13.5498,84,1.0875,0,-11.8565,33.0002,25,0.7974,25333,4.0414,-169.7876
rg,1625251227252343725,1,0.3879,0.4495,0.8379,578,0.9155,10.2539,-14.8315,84,1.0875,0,-11.5972,32.9061,25,0.7984,14342,4.0414,-170.0269
rg,1625251227252376103,1,0.3899,0.4575,0.8413,579,0.7935,9.0332,-15.0146,84,1.0865,0,-11.3834,32.8286,25,0.7974,7772,4.0414,-170.3046
rg,1625251227252405102,1,0.4011,0.4617,0.8425,580,1.5259,6.958,-16.2354,84,1.0875,0,-11.241,32.8071,25,0.7974,7750,4.0414,-170.6732
rg,1625251227252472026,1,0.4177,0.4556,0.8372,581,1.5869,5.4321,-15.5029,85,1.0875,0,-11.2102,32.785,25,0.7984,7913,4.0392,-171.0502
rg,1625251227252504013,1,0.427,0.4563,0.8264,582,1.2207,4.5166,-14.9536,85,1.0875,0,-11.2445,32.7551,25,0.7984,9556,4.0392,-171.4526
rg,1625251227252535290,1,0.436,0.4568,0.8259,583,0.6104,4.8218,-15.9912,85,1.0865,0,-11.2672,32.7179,25,0.7974,8091,4.0392,-171.8637
rg,1625251227252562534,1,0.4475,0.4507,0.8193,584,0.4883,5.6763,-15.5029,85,1.0875,0,-11.3012,32.6666,25,0.7954,7851,4.0392,-172.239
rg,1625251227252591252,1,0.4561,0.438,0.8184,585,0.5493,6.2256,-16.1133,85,1.0885,0,-11.3398,32.6076,25,0.7994,7885,4.0392,-172.5783
rg,1625251227252620401,1,0.4556,0.4321,0.8223,586,0.7935,7.8735,-15.7471,85,1.0865,0,-11.3145,32.5265,25,0.7974,7930,4.0392,-172.9075
rg,1625251227252647495,1,0.4597,0.4292,0.8196,587,1.0986,9.1553,-14.4043,85,1.0885,0,-11.2878,32.4433,25,0.7994,7943,4.0392,-173.1633
rg,1625251227252674851,1,0.4595,0.4187,0.8154,588,1.6479,10.498,-16.0522,85,1.0875,0,-11.1964,32.3813,25,0.7984,8114,4.0392,-173.3694
rg,1625251227252702786,1,0.4607,0.4106,0.8159,589,3.54,13.1226,-14.5264,85,1.0875,0,-11.0523,32.3518,25,0.7984,8193,4.0392,-173.539
rg,1625251227252730515,1,0.458,0.4128,0.8198,590,4.4556,13.3667,-13.1226,85,1.0875,0,-10.8581,32.371,25,0.7984,8122,4.0392,-173.6679
rg,1625251227252758468,1,0.46,0.4224,0.8145,591,5.7983,15.2588,-13.1836,85,1.0875,0,-10.6781,32.4382,25,0.7984,8080,4.0392,-173.7505
rg,1625251227252785992,1,0.4534,0.4214,0.8201,592,5.7373,17.334,-13.855,85,1.0875,0,-10.404,32.4875,25,0.7984,9747,4.0392,-173.8082
rg,1625251227252812115,1,0.4355,0.4316,0.8188,593,6.4087,18.6768,-13.0615,85,1.0875,0,-10.0742,32.5714,25,0.7974,9181,4.0392,-173.8127
rg,1625251227252839508,1,0.4158,0.4443,0.8254,594,6.1035,17.8223,-12.146,85,1.0885,0,-9.7562,32.654,25,0.7984,8752,4.0392,-173.8067
rg,1625251227252866827,1,0.4089,0.4521,0.8333,595,6.2866,17.7002,-12.207,85,1.0875,0,-9.4176,32.7233,25,0.7984,8215,4.0392,-173.8249
rg,1625251227252926561,1,0.3989,0.4644,0.8511,596,5.4932,15.8691,-13.0005,85,1.0865,0,-9.1122,32.7972,25,0.7974,8230,4.0392,-173.8913
rg,1625251227252958716,1,0.4004,0.4688,0.8477,597,5.3711,12.9395,-12.6953,85,1.0885,0,-8.9265,32.8836,25,0.7964,8412,4.0392,-174.0131
rg,1625251227252985568,1,0.4097,0.4729,0.8391,598,3.7842,10.6812,-12.3291,85,1.0885,0,-8.8536,32.9265,25,0.7984,8411,4.0392,-174.1739
rg,1625251227253012139,1,0.415,0.4807,0.8367,599,3.3569,10.2539,-12.8174,85,1.0855,0,-8.7958,32.9722,25,0.7974,8280,4.0392,-174.3629
rg,1625251227253042501,1,0.4097,0.4814,0.8262,600,2.4414,9.1553,-13.6719,85,1.0845,0,-8.7549,33.0005,25,0.7974,8339,4.0392,-174.6065
rg,1625251227253070884,1,0.4197,0.4714,0.8208,601,1.8921,6.8359,-12.7563,85,1.0865,0,-8.8405,32.9963,25,0.7974,11265,4.0392,-174.8679
rg,1625251227253098146,1,0.4358,0.4629,0.813,602,0.7935,7.3242,-13.3667,85,1.0885,0,-8.934,32.9437,25,0.7984,8341,4.0392,-175.138
rg,1625251227253125315,1,0.4512,0.449,0.8147,603,0.8545,6.958,-12.207,85,1.0885,0,-9.0961,32.8633,25,0.7994,8371,4.0392,-175.3731
rg,1625251227253151215,1,0.449,0.4465,0.8154,604,0.9155,7.6904,-12.146,85,1.0885,0,-9.2325,32.7556,25,0.7994,8398,4.0392,-175.5859
rg,1625251227253176685,1,0.4578,0.4294,0.8262,605,1.0986,9.3384,-11.7798,85,1.0865,0,-9.3258,32.6328,25,0.7974,8363,4.0392,-175.7482
rg,1625251227253202248,1,0.4578,0.4177,0.824,606,1.3428,11.5967,-12.3901,85,1.0875,0,-9.334,32.4993,25,0.7974,8675,4.0392,-175.8802
rg,1625251227253228819,1,0.4495,0.4131,0.8279,607,2.5635,12.5732,-12.207,85,1.0885,0,-9.2965,32.4012,25,0.7994,8480,4.0392,-175.9847
rg,1625251227253255279,1,0.4448,0.4133,0.8308,608,3.418,13.916,-12.6953,85,1.0865,0,-9.173,32.3263,25,0.7994,8546,4.0392,-176.0766
rg,1625251227604459260,1,0.4084,0.439,0.8245,609,5.9814,13.855,-12.2681,85,1.0875,0,-9.009,32.4181,25,0.7994,24449,4.0392,-176.1673
rg,1625251227604506092,1,0.4023,0.4624,0.8337,610,4.3945,11.9629,-13.6108,85,1.0875,0,-8.8575,32.4915,25,0.7984,15032,4.0392,-176.3493
rg,1625251227604553913,1,0.3936,0.4717,0.8369,611,4.6997,11.4136,-12.9395,85,1.0875,0,-8.7109,32.5974,25,0.7994,7791,4.0392,-176.5234
rg,1625251227604575424,1,0.3938,0.4832,0.843,612,3.6011,8.8501,-11.5356,85,1.0875,0,-8.6878,32.66,25,0.7984,7773,4.0392,-176.7047
rg,1625251227604594825,1,0.3997,0.4888,0.8452,613,2.0142,7.2632,-13.4888,85,1.0875,0,-8.6842,32.6804,25,0.7984,7819,4.0392,-176.9876
rg,1625251227604613386,1,0.4036,0.4922,0.8423,614,2.3193,6.4087,-13.3057,85,1.0875,0,-8.7212,32.724,25,0.7984,7872,4.0392,-177.2842
rg,1625251227604631891,1,0.4124,0.4907,0.8296,615,1.1597,4.4556,-12.207,85,1.0875,0,-8.8722,32.7326,25,0.7994,8615,4.0392,-177.5875
rg,1625251227604649686,1,0.418,0.4851,0.8193,616,0.2441,4.3335,-12.5122,85,1.0885,0,-9.0354,32.7086,25,0.7984,8568,4.0392,-177.9037
rg,1625251227604666921,1,0.427,0.4802,0.8181,617,-0.3052,4.3945,-12.6953,85,1.0875,0,-9.2141,32.639,25,0.7984,7851,4.0392,-178.2207
rg,1625251227604685034,1,0.4321,0.4634,0.8149,618,-0.6104,5.127,-12.3291,85,1.0875,0,-9.3824,32.5465,25,0.7994,7851,4.0392,-178.5083
rg,1625251227604702941,1,0.4475,0.4495,0.8149,619,-0.7935,4.5166,-11.5967,85,1.0865,0,-9.6168,32.4232,25,0.7984,9748,4.0392,-178.781
rg,1625251227604720568,1,0.4561,0.437,0.8149,620,-0.6714,7.5073,-12.2681,85,1.0885,0,-9.7499,32.2796,25,0.7994,7893,4.0392,-179.0086
rg,1625251227604737691,1,0.4553,0.4316,0.8098,621,-0.4883,8.3008,-11.1084,85,1.0875,0,-9.8802,32.1112,25,0.7994,7899,4.0392,-179.1763
rg,1625251227604754852,1,0.4478,0.4133,0.8257,622,0.2441,9.7046,-11.5967,85,1.0845,0,-9.9308,31.9462,25,0.7984,7913,4.0392,-179.3276
rg,1625251227604773058,1,0.4431,0.4097,0.8262,623,1.0376,11.4746,-10.9253,85,1.0885,0,-9.9265,31.8005,25,0.7994,7975,4.0392,-179.4188
rg,1625251227604790778,1,0.4438,0.4131,0.8342,624,1.0986,11.8408,-11.7798,85,1.0885,0,-9.8857,31.665,25,0.8004,8105,4.0392,-179.534
rg,1625251227604807883,1,0.4282,0.4216,0.8328,625,2.1973,13.7329,-12.0239,85,1.0855,0,-9.7448,31.59,25,0.7984,8093,4.0392,-179.6228
rg,1625251227604839515,1,0.4146,0.429,0.8406,626,2.4414,12.8174,-11.3525,85,1.0885,0,-9.6188,31.5323,25,0.7994,8118,4.0392,-179.7107
rg,1625251227604858206,1,0.4099,0.4434,0.8423,627,2.6245,12.5732,-11.5967,85,1.0885,0,-9.4693,31.5205,25,0.7994,8140,4.0392,-179.8194
rg,1625251227604875591,1,0.405,0.4517,0.8501,628,2.7466,10.9253,-11.9629,85,1.0855,0,-9.3707,31.521,25,0.7984,8148,4.0392,-179.9762
rg,1625251227604937622,1,0.4104,0.4575,0.8433,629,2.0752,9.7656,-12.207,85,1.0885,0,-9.3232,31.5186,25,0.7994,8131,4.0392,-180.1694
rg,1625251227605016309,1,0.405,0.4609,0.8442,630,2.3193,9.8267,-12.3901,85,1.0865,0,-9.2702,31.5339,25,0.7994,8125,4.0392,-180.3688
rg,1625251227605037186,1,0.4041,0.4609,0.8425,631,3.0518,7.6904,-12.8784,85,1.0875,0,-9.2695,31.5877,25,0.7984,8186,4.0392,-180.6304
rg,1625251227605058529,1,0.4177,0.4609,0.8271,632,2.5024,6.2866,-12.7563,85,1.0885,0,-9.3565,31.639,25,0.7984,8213,4.0392,-180.9196
rg,1625251227605077295,1,0.4365,0.4565,0.8223,633,2.5024,5.9814,-11.8408,85,1.0875,0,-9.525,31.6761,25,0.7994,8253,4.0392,-181.1882
rg,1625251227605097163,1,0.4456,0.4553,0.8232,634,2.4414,6.3477,-11.8408,85,1.0875,0,-9.6778,31.7121,25,0.7984,8261,4.0392,-181.4421
rg,1625251227605116881,1,0.457,0.4456,0.8203,635,2.5024,7.6904,-11.9629,85,1.0875,0,-9.805,31.7306,25,0.7974,8884,4.0392,-181.6681
rg,1625251227605135592,1,0.459,0.4417,0.814,636,3.0518,10.3149,-12.2681,85,1.0875,0,-9.8425,31.7623,25,0.7994,8361,4.0392,-181.8478
rg,1625251227605154227,1,0.4636,0.4375,0.8159,637,3.1128,10.9863,-12.207,85,1.0885,0,-9.8192,31.7957,25,0.7984,8349,4.0392,-181.9803
rg,1625251227605188100,1,0.457,0.4319,0.8213,638,3.8452,11.5967,-10.9863,85,1.0875,0,-9.8345,31.8173,25,0.7984,8457,4.0392,-182.0825
rg,1625251227605213271,1,0.4622,0.4241,0.8247,639,4.6387,13.916,-11.9629,85,1.0865,0,-9.7606,31.8485,25,0.7984,9982,4.0392,-182.165
rg,1625251227605233232,1,0.4539,0.4158,0.824,640,4.9438,15.2588,-11.2915,85,1.0845,0,-9.6467,31.8656,25,0.7984,8409,4.0392,-182.1923
rg,1625251227960891088,1,0.4248,0.4348,0.8311,641,6.0425,17.2729,-12.146,85,1.0885,-0.001,-9.3813,31.9514,25,0.7994,25219,4.0392,-182.2105
rg,1625251227960938554,1,0.4055,0.4429,0.8438,642,6.3477,16.2354,-12.146,85,1.0875,0,-9.1342,32.034,25,0.7994,14641,4.0392,-182.2593
rg,1625251227960959860,1,0.3855,0.4607,0.8491,643,5.5542,14.1602,-12.4512,85,1.0875,0,-8.8863,32.1345,25,0.7994,8059,4.0392,-182.3577
rg,1625251227960979784,1,0.3806,0.4761,0.8503,644,4.4556,11.1084,-12.8174,85,1.0875,0,-8.7264,32.2268,25,0.7994,7852,4.0392,-182.5376
rg,1625251227960998793,1,0.3835,0.4812,0.8499,645,3.6621,9.2163,-11.5967,85,1.0875,0,-8.6584,32.2996,25,0.7994,7864,4.0392,-182.718
rg,1625251227961018213,1,0.3894,0.4856,0.8508,646,2.2583,7.2632,-13.1226,85,1.0875,0,-8.6431,32.3292,25,0.7994,7848,4.0392,-182.992
rg,1625251227961036979,1,0.4014,0.4866,0.8403,647,0.6714,3.9062,-12.3901,85,1.0865,0,-8.7868,32.3157,25,0.7984,8138,4.0392,-183.3155
rg,1625251227961055446,1,0.4133,0.4771,0.8247,648,-0.4883,3.418,-14.1602,85,1.0895,0,-8.9419,32.268,25,0.8004,7957,4.0392,-183.7101
rg,1625251227961073596,1,0.416,0.4763,0.8201,649,-1.0986,2.2583,-12.3901,85,1.0895,0,-9.2277,32.146,25,0.8004,7918,4.0392,-184.0657
rg,1625251227961110905,1,0.4338,0.4651,0.8193,650,-2.0752,1.9531,-13.0005,85,1.0865,0,-9.4901,32.0274,25,0.7984,7985,4.0392,-184.4515
rg,1625251227961132920,1,0.4475,0.4438,0.8154,651,-2.5635,2.1973,-12.4512,85,1.0885,0,-9.7854,31.8555,25,0.8004,7965,4.0392,-184.8081
rg,1625251227961152284,1,0.4568,0.4375,0.8215,652,-2.2583,2.0142,-12.5122,85,1.0895,0,-10.1116,31.676,25,0.8004,7981,4.0392,-185.1675
rg,1625251227961171442,1,0.4741,0.4216,0.8228,653,-2.1362,4.2725,-11.9019,85,1.0855,0,-10.381,31.4773,25,0.7984,8049,4.0392,-185.4555
rg,1625251227961190731,1,0.4763,0.4023,0.8223,654,0.1221,7.1411,-12.9395,85,1.0875,0,-10.5353,31.3355,25,0.7994,8037,4.0392,-185.7139
rg,1625251227961209908,1,0.4734,0.4019,0.8208,655,0.9766,8.7891,-12.5732,85,1.0885,0,-10.6288,31.1973,25,0.8004,8046,4.0392,-185.9215
rg,1625251227961229552,1,0.4678,0.3955,0.8254,656,2.0142,11.7188,-12.8174,85,1.0875,0,-10.6057,31.1061,25,0.7994,8588,4.0392,-186.0797
rg,1625251227961282957,1,0.4514,0.4006,0.8164,657,4.9438,15.5029,-13.4277,85,1.0875,0,-10.4158,31.1424,25,0.7994,12149,4.0392,-186.1843
rg,1625251227961307325,1,0.4487,0.4089,0.8218,658,6.1035,15.3198,-12.146,85,1.0875,0,-10.2246,31.2519,25,0.7994,8156,4.0392,-186.246
rg,1625251227961326203,1,0.4365,0.4219,0.8254,659,6.4087,15.0757,-11.1694,85,1.0885,0,-10.0649,31.3599,25,0.7994,8159,4.0392,-186.285
rg,1625251227961345249,1,0.428,0.428,0.8308,660,7.0801,16.5405,-12.3291,85,1.0875,0,-9.814,31.4979,25,0.7994,8182,4.0392,-186.3324
rg,1625251227961363157,1,0.4175,0.4392,0.8374,661,7.2632,16.5405,-12.8174,85,1.0875,0,-9.5647,31.6553,25,0.7994,8185,4.0392,-186.3998
rg,1625251227961380915,1,0.4114,0.4592,0.8364,662,7.5684,15.4419,-12.207,85,1.0865,0,-9.3228,31.8579,25,0.7984,8941,4.0392,-186.4706
rg,1625251227961398729,1,0.4067,0.4712,0.8391,663,6.958,14.2822,-11.8408,85,1.0885,0,-9.121,32.0498,25,0.7984,8245,4.0392,-186.5533
rg,1625251227961416262,1,0.3997,0.4873,0.8362,664,6.0425,12.8784,-10.9863,85,1.0895,0,-8.9738,32.2311,25,0.8004,8307,4.0392,-186.6393
rg,1625251227961433572,1,0.3975,0.4976,0.8396,665,4.7607,12.5732,-10.9253,85,1.0885,0,-8.9389,32.3516,25,0.8004,8327,4.0392,-186.7754
rg,1625251227961450788,1,0.4062,0.5017,0.8496,666,2.5024,10.498,-10.6201,85,1.0865,0,-8.884,32.398,25,0.7984,8316,4.0392,-186.8975
rg,1625251227961468490,1,0.4141,0.4966,0.8398,667,0.9155,8.9722,-10.8643,85,1.0885,0,-8.9011,32.3872,25,0.7974,8471,4.0392,-187.0607
rg,1625251227961486883,1,0.4109,0.4717,0.8345,668,-0.7324,8.8501,-12.085,85,1.0895,0,-8.9038,32.2769,25,0.8004,8319,4.0392,-187.2619
rg,1625251227961503763,1,0.4106,0.4653,0.834,669,-1.2817,7.8735,-10.9863,85,1.0865,0,-8.9656,32.1349,25,0.7984,8316,4.0392,-187.4466
rg,1625251227961520700,1,0.4185,0.4519,0.8228,670,-1.77,7.8735,-11.5967,85,1.0835,0,-9.0417,31.9691,25,0.7984,8412,4.0392,-187.652
rg,1625251227961537823,1,0.4255,0.4236,0.8242,671,-1.8921,6.3477,-10.5591,85,1.0885,0,-9.2139,31.748,25,0.7994,8405,4.0392,-187.8478
rg,1625251227961572853,1,0.437,0.407,0.8228,672,-0.8545,7.0801,-12.146,85,1.0885,0,-9.3643,31.5414,25,0.8004,8450,4.0392,-188.0846
rg,1625251228318696593,1,0.4497,0.3914,0.821,673,1.5259,9.3994,-13.4277,85,1.0875,0,-9.4344,31.4875,25,0.7994,25242,4.0392,-188.2979
rg,1625251228318782306,1,0.4495,0.3965,0.8298,674,4.2725,11.3525,-13.9771,85,1.0875,0,-9.4051,31.4757,25,0.7994,10253,4.0392,171.4984
rg,1625251228318806127,1,0.4446,0.4092,0.8293,675,6.3477,12.6953,-14.2822,85,1.0875,0,-9.3103,31.5692,25,0.7994,7756,4.0392,171.3081
rg,1625251228318826459,1,0.4458,0.4104,0.8269,676,7.0801,12.9395,-14.7095,85,1.0875,0,-9.1784,31.7061,25,0.8004,7746,4.0392,171.1072
rg,1625251228318845859,1,0.4412,0.4319,0.8301,677,7.2632,13.5498,-15.1978,85,1.0875,0,-9.0262,31.8722,25,0.7994,7816,4.0392,170.9005
rg,1625251228318864456,1,0.4414,0.4395,0.8306,678,7.2021,13.916,-14.0991,85,1.0875,0,-8.887,32.036,25,0.7994,8991,4.0392,170.7401
rg,1625251228318882252,1,0.4268,0.4541,0.8276,679,7.019,14.1602,-13.3667,85,1.0875,0,-8.7278,32.2117,25,0.7994,10655,4.0392,170.6081
rg,1625251228318902379,1,0.4221,0.4663,0.8337,680,6.958,14.7095,-13.1836,85,1.0875,0,-8.5411,32.3916,25,0.7994,7864,4.0392,170.4948
rg,1625251228318924745,1,0.4189,0.4768,0.8345,681,6.2256,14.8926,-12.9395,85,1.0875,0,-8.3492,32.5521,25,0.8004,7865,4.0392,170.3942
rg,1625251228318946010,1,0.4109,0.4834,0.8394,682,5.127,13.2446,-12.146,85,1.0885,0,-8.2152,32.6703,25,0.8004,7942,4.0392,170.2862
rg,1625251228318964104,1,0.4058,0.4939,0.8384,683,4.8828,12.2681,-10.8032,85,1.0875,0,-8.1444,32.7788,25,0.7994,7945,4.0392,170.188
rg,1625251228318982347,1,0.4087,0.4829,0.8406,684,2.9297,9.7656,-11.7188,85,1.0875,0,-8.1387,32.8067,25,0.8004,8173,4.0392,170.0221
rg,1625251228319001747,1,0.4109,0.4919,0.8372,685,2.5635,10.1318,-13.5498,85,1.0865,0,-8.084,32.8472,25,0.7984,8133,4.0392,169.7996
rg,1625251228319021426,1,0.4148,0.4749,0.8313,686,0.7324,8.3008,-11.5967,85,1.0895,0,-8.1539,32.784,25,0.7974,7985,4.0392,169.6073
rg,1625251228319060636,1,0.4216,0.4639,0.8157,687,0.1831,8.0566,-11.6577,85,1.0885,0,-8.217,32.682,25,0.8004,8035,4.0392,169.3575
rg,1625251228319080614,1,0.4285,0.4475,0.8247,688,-0.4883,7.4463,-12.8174,85,1.0865,0,-8.3276,32.5412,25,0.7994,7995,4.0392,169.1094
rg,1625251228319099100,1,0.4329,0.4229,0.8291,689,-0.6104,7.6904,-12.4512,85,1.0895,0,-8.4502,32.3463,25,0.7984,8081,4.0392,168.885
rg,1625251228319117679,1,0.4482,0.4045,0.8259,690,-1.0376,6.6528,-12.085,85,1.0895,0,-8.5651,32.1195,25,0.8014,8088,4.0392,168.653
rg,1625251228319135978,1,0.4509,0.3992,0.8296,691,-0.3662,8.1787,-11.9019,85,1.0865,0,-8.7198,31.9012,25,0.7994,8161,4.0392,168.4594
rg,1625251228319153736,1,0.448,0.3848,0.8318,692,1.0376,10.1929,-12.146,85,1.0885,0,-8.7948,31.711,25,0.7974,8104,4.0392,168.3026
rg,1625251228319171886,1,0.447,0.3804,0.8347,693,3.8452,11.7188,-13.1836,85,1.0885,0,-8.7914,31.6287,25,0.7994,8698,4.0392,168.1415
rg,1625251228319188935,1,0.4377,0.3918,0.8359,694,5.6763,14.1602,-13.6108,85,1.0885,0,-8.673,31.6376,25,0.8004,8289,4.0392,168.0131
rg,1625251228319207029,1,0.4314,0.3999,0.8376,695,6.5308,13.855,-13.3667,85,1.0875,0,-8.5575,31.6934,25,0.7994,8164,4.0392,167.8841
rg,1625251228319225926,1,0.4258,0.4238,0.8247,696,7.6904,14.8315,-14.8926,85,1.0855,0,-8.37,31.8579,25,0.7994,8451,4.0392,167.7154
rg,1625251228319244019,1,0.4214,0.4414,0.8206,697,8.9111,14.6484,-15.686,85,1.0885,0,-8.1656,32.1074,25,0.8004,8262,4.0392,167.5127
rg,1625251228319262132,1,0.4209,0.4512,0.8267,698,8.4229,14.0991,-14.5264,85,1.0875,0,-8.0286,32.3492,25,0.7994,8285,4.0392,167.322
rg,1625251228319279685,1,0.418,0.4736,0.8254,699,7.8125,13.9771,-14.8315,85,1.0875,0,-7.8525,32.5893,25,0.7994,8339,4.0392,167.1349
rg,1625251228319297201,1,0.4241,0.4753,0.8215,700,6.7139,12.8784,-13.7939,87,1.0895,0,-7.7555,32.7822,25,0.7974,8306,4.0403,166.9623
rg,1625251228319315668,1,0.4253,0.4834,0.832,701,5.188,13.3057,-13.4888,87,1.0885,0,-7.6453,32.9074,25,0.8004,8386,4.0403,166.8121
rg,1625251228319359411,1,0.4207,0.4929,0.8345,702,4.8828,12.6953,-12.2681,87,1.0875,0,-7.5714,33.0265,25,0.7994,8357,4.0403,166.6899
rg,1625251228319376777,1,0.4177,0.4771,0.8433,703,3.9062,13.4277,-11.7798,87,1.0845,0,-7.4814,33.0582,25,0.8004,8378,4.0403,166.6075
rg,1625251228319395039,1,0.4058,0.4827,0.8464,704,4.2114,12.3901,-11.1084,87,1.0875,0,-7.4166,33.1072,25,0.7994,8497,4.0403,166.5242
rg,1625251228677018591,1,0.4058,0.4761,0.8325,705,2.8687,11.1694,-12.146,87,1.0885,0,-7.4189,33.0639,25,0.8004,25502,4.0403,166.4017
rg,1625251228677068191,1,0.3989,0.4673,0.8359,706,0.7324,9.8877,-12.3291,87,1.0885,0,-7.4138,32.9684,25,0.8004,8715,4.0403,166.2243
rg,1625251228677090557,1,0.3977,0.4502,0.821,707,0.1831,8.1177,-12.085,87,1.0885,0,-7.4887,32.8421,25,0.8004,7716,4.0403,166.0169
rg,1625251228677110292,1,0.4021,0.4424,0.8301,708,-0.1221,7.0801,-12.4512,87,1.0885,0,-7.5936,32.6886,25,0.8004,7759,4.0403,165.7761
rg,1625251228677129394,1,0.4143,0.4307,0.8364,709,-0.7324,5.7983,-13.3057,87,1.0885,0,-7.7438,32.4959,25,0.8004,7773,4.0403,165.4804
rg,1625251228677148849,1,0.4326,0.4089,0.8328,710,-0.9155,5.6763,-13.3667,87,1.0885,0,-7.9394,32.2673,25,0.8004,7775,4.0403,165.1831
rg,1625251228677168025,1,0.4465,0.3999,0.8323,711,0.061,6.0425,-13.0005,87,1.0895,0,-8.155,32.0685,25,0.8014,10104,4.0403,164.906
rg,1625251228677186306,1,0.4424,0.3997,0.835,712,0.5493,7.4463,-13.4277,87,1.0875,0,-8.297,31.8917,25,0.8014,7886,4.0403,164.6429
rg,1625251228677204605,1,0.4429,0.4014,0.8391,713,2.7466,8.728,-14.2212,87,1.0895,0,-8.371,31.8088,25,0.7994,7920,4.0403,164.3778
rg,1625251228677221934,1,0.4421,0.4038,0.8345,714,4.4556,10.0708,-13.5498,87,1.0885,0,-8.4124,31.7994,25,0.8014,7982,4.0403,164.1621
rg,1625251228677238816,1,0.4407,0.4165,0.8311,715,5.188,11.1084,-14.2212,87,1.0875,0,-8.3974,31.8482,25,0.7994,7946,4.0403,163.9412
rg,1625251228677256089,1,0.4402,0.4363,0.8198,716,6.2866,11.7798,-15.1367,87,1.0885,0,-8.3398,31.9918,25,0.7994,7978,4.0403,163.6967
rg,1625251228677300372,1,0.4316,0.446,0.8193,717,6.958,12.6343,-14.1602,87,1.0895,0,-8.2554,32.1679,25,0.8014,8002,4.0403,163.5038
rg,1625251228677321768,1,0.4338,0.4587,0.8149,718,6.5308,13.4888,-14.2212,87,1.0875,0,-8.1455,32.3471,25,0.8004,8050,4.0403,163.3261
rg,1625251228677339097,1,0.4387,0.4624,0.8176,719,6.2866,13.9771,-13.7939,87,1.0895,0,-8.0377,32.5101,25,0.7974,8052,4.0403,163.1761
rg,1625251228677356184,1,0.4343,0.4658,0.8289,720,5.6763,13.4277,-13.3057,87,1.0895,0,-7.9011,32.6498,25,0.8014,8109,4.0403,163.0713
rg,1625251228677372916,1,0.4316,0.4717,0.8323,721,5.3711,14.8926,-12.4512,87,1.0875,0,-7.7719,32.7562,25,0.8004,8134,4.0403,162.9919
rg,1625251228677390208,1,0.4233,0.4739,0.8411,722,5.4932,14.4653,-11.2915,87,1.0895,0,-7.664,32.8533,25,0.7994,8134,4.0403,162.945
rg,1625251228677407444,1,0.417,0.4817,0.8411,723,5.0049,14.8315,-10.9253,87,1.0905,0,-7.5404,32.9388,25,0.8014,8169,4.0403,162.9181
rg,1625251228677424810,1,0.4116,0.4836,0.8459,724,4.5166,15.1978,-10.8032,87,1.0875,0,-7.3976,32.9979,25,0.8004,8160,4.0403,162.9048
rg,1625251228677441767,1,0.4009,0.4844,0.8496,725,3.54,12.9395,-10.0098,87,1.0885,0,-7.3414,33.0302,25,0.8014,8226,4.0403,162.8678
rg,1625251228677458387,1,0.4016,0.4792,0.8491,726,2.9297,11.6577,-9.9487,87,1.0885,0,-7.3197,33.0192,25,0.8014,8417,4.0403,162.8077
rg,1625251228677475697,1,0.3872,0.4717,0.8503,727,1.5259,11.1084,-9.7656,87,1.0885,0,-7.2992,32.9344,25,0.8004,8232,4.0403,162.7439
rg,1625251228677493139,1,0.3853,0.4612,0.8425,728,0.7324,9.3994,-10.7422,87,1.0885,0,-7.321,32.8185,25,0.8004,8344,4.0403,162.6096
rg,1625251228677510412,1,0.3975,0.4431,0.8345,729,0.061,7.3853,-10.1318,87,1.0885,0,-7.45,32.6376,25,0.8004,8205,4.0403,162.384
rg,1625251228677527648,1,0.4028,0.4363,0.8391,730,-1.2817,6.2866,-11.9019,87,1.0885,-0.001,-7.5932,32.4238,25,0.8004,8443,4.0403,162.1445
rg,1625251228677546880,1,0.408,0.4087,0.8276,731,-0.6714,5.9204,-13.916,87,1.0875,0,-7.7307,32.2112,25,0.7994,9015,4.0403,161.8318
rg,1625251228677583329,1,0.4263,0.3965,0.8274,732,-0.7324,5.3101,-14.0381,87,1.0895,0,-7.9234,31.9848,25,0.8004,8364,4.0403,161.5024
rg,1625251228677604053,1,0.4307,0.3938,0.8262,733,0.1831,5.5542,-13.6719,87,1.0885,0,-8.0859,31.8384,25,0.8004,8371,4.0403,161.1988
rg,1625251228677621979,1,0.4375,0.3987,0.8325,734,1.2817,6.0425,-13.1836,87,1.0875,0,-8.2771,31.7023,25,0.8004,8406,4.0403,160.9104
rg,1625251228677639420,1,0.4351,0.3989,0.8337,735,2.3804,7.5073,-14.1602,87,1.0895,0,-8.3856,31.6152,25,0.8004,8468,4.0403,160.6184
rg,1625251228677656842,1,0.4397,0.4189,0.8259,736,4.9438,9.0942,-14.6484,87,1.0905,0,-8.4327,31.6797,25,0.8004,8443,4.0403,160.3353
rg,1625251229030645901,1,0.4392,0.4502,0.8174,737,5.8594,11.1084,-15.2588,87,1.0885,0,-8.3936,31.8704,25,0.8014,25390,4.0403,160.0612
rg,1625251229030683864,1,0.4346,0.4678,0.8242,738,5.4932,11.1694,-13.3667,87,1.0885,0,-8.3663,32.0303,25,0.8014,14969,4.0403,159.8565
rg,1625251229030705203,1,0.4348,0.4756,0.822,739,5.249,12.8174,-13.0615,87,1.0885,0,-8.289,32.1847,25,0.8014,7743,4.0403,159.6979
rg,1625251229030724772,1,0.4312,0.4795,0.8296,740,5.127,13.1836,-12.085,87,1.0885,0,-8.2087,32.3211,25,0.8014,7857,4.0403,159.5834
rg,1625251229030775818,1,0.4224,0.4873,0.8313,741,4.8828,13.2446,-11.2915,87,1.0885,0,-8.1247,32.4507,25,0.8014,7810,4.0403,159.4979
rg,1625251229030796150,1,0.4163,0.499,0.8403,742,3.418,13.0615,-9.8267,87,1.0885,0,-8.0586,32.5219,25,0.8014,7824,4.0403,159.4586
rg,1625251229030814973,1,0.4082,0.4954,0.8345,743,2.8687,11.9629,-10.2539,87,1.0885,0,-8.0128,32.5733,25,0.8024,8225,4.0403,159.382
rg,1625251229030833796,1,0.4067,0.4922,0.8381,744,1.77,11.1694,-9.5825,87,1.0895,0,-8.0113,32.5482,25,0.8024,7875,4.0403,159.316
rg,1625251229030852396,1,0.4045,0.4771,0.8445,745,0.7324,11.4746,-10.8643,87,1.0855,0,-7.9643,32.4721,25,0.7994,7869,4.0403,159.2148
rg,1625251229030916916,1,0.3916,0.4587,0.8406,746,-0.6104,10.437,-11.0474,87,1.0895,0,-7.935,32.3181,25,0.8014,7887,4.0403,159.0877
rg,1625251229030938963,1,0.3987,0.4561,0.8379,747,-0.4272,8.4229,-9.7656,87,1.0885,0,-8.0192,32.1754,25,0.8004,7918,4.0403,158.9587
rg,1625251229030960805,1,0.4087,0.4243,0.8345,748,-1.0986,6.5308,-12.0239,87,1.0885,0,-8.1514,31.9704,25,0.8014,11686,4.0403,158.7183
rg,1625251229030979517,1,0.4204,0.4226,0.8337,749,-0.6104,6.3477,-12.5732,87,1.0885,0,-8.3277,31.7475,25,0.8014,7994,4.0403,158.4364
rg,1625251229030998377,1,0.4333,0.4048,0.8428,750,-0.5493,5.7373,-13.0005,87,1.0885,0,-8.506,31.5443,25,0.8004,8095,4.0403,158.1472
rg,1625251229031017424,1,0.4309,0.4011,0.8335,751,0.1221,6.6528,-12.8784,87,1.0885,0,-8.6539,31.3748,25,0.8004,7977,4.0403,157.879
rg,1625251229031038707,1,0.4312,0.395,0.8398,752,0.7935,7.6904,-14.1602,87,1.0885,0,-8.7529,31.2194,25,0.8004,8042,4.0403,157.59
rg,1625251229031120503,1,0.4343,0.3992,0.8354,753,1.8311,8.0566,-13.855,87,1.0865,0,-8.8306,31.1264,25,0.7994,8209,4.0403,157.3144
rg,1625251229031143147,1,0.4304,0.4055,0.8286,754,3.3569,8.4229,-13.6108,87,1.0895,0,-8.8933,31.1149,25,0.8004,8125,4.0403,157.0506
rg,1625251229031165660,1,0.4314,0.4082,0.8291,755,4.3335,9.3384,-14.2212,87,1.0875,0,-8.9102,31.1483,25,0.8014,8161,4.0403,156.7842
rg,1625251229031184222,1,0.4343,0.4194,0.8279,756,4.2725,10.6201,-15.686,87,1.0875,0,-8.8541,31.2053,25,0.7994,8142,4.0403,156.4909
rg,1625251229031205692,1,0.427,0.4419,0.8274,757,5.6763,10.3149,-15.5029,87,1.0895,0,-8.7905,31.36,25,0.7994,8138,4.0403,156.1915
rg,1625251229031226155,1,0.4226,0.46,0.8245,758,5.0049,11.3525,-15.8691,87,1.0895,0,-8.6716,31.5182,25,0.8014,8207,4.0403,155.8984
rg,1625251229031247252,1,0.4165,0.4705,0.8313,759,5.6763,10.5591,-13.9771,87,1.0895,0,-8.6018,31.7017,25,0.8024,8192,4.0403,155.6543
rg,1625251229031266578,1,0.4094,0.4851,0.8452,760,4.7607,10.6201,-13.1226,87,1.0865,0,-8.5203,31.849,25,0.8004,8241,4.0403,155.4422
rg,1625251229031318854,1,0.4202,0.4944,0.8391,761,4.6387,9.3384,-13.1226,87,1.0905,0,-8.5057,32.0139,25,0.8024,8287,4.0403,155.2014
rg,1625251229031342373,1,0.4194,0.4927,0.835,762,4.5776,10.0098,-14.2212,87,1.0885,0,-8.517,32.1411,25,0.8014,8313,4.0403,154.9704
rg,1625251229031369005,1,0.4199,0.4907,0.8318,763,3.2349,8.3618,-12.6343,87,1.0875,0,-8.551,32.2408,25,0.8004,8332,4.0403,154.7296
rg,1625251229031391761,1,0.4238,0.4871,0.8218,764,2.6855,7.9346,-10.9863,87,1.0895,0,-8.649,32.3124,25,0.7994,8337,4.0403,154.5368
rg,1625251229031413156,1,0.4382,0.4717,0.8203,765,0.9766,8.2397,-10.6812,87,1.0905,0,-8.7748,32.2839,25,0.8024,8331,4.0403,154.3663
rg,1625251229031431941,1,0.4399,0.4592,0.8228,766,0.9766,7.9346,-11.0474,87,1.0895,0,-8.9054,32.2335,25,0.8014,8365,4.0403,154.1806
rg,1625251229031449758,1,0.448,0.4441,0.8306,767,0.9766,9.5825,-11.1084,87,1.0875,0,-8.9903,32.1431,25,0.8004,8355,4.0403,154.0337
rg,1625251229031468842,1,0.4458,0.4224,0.8284,768,1.0376,11.2915,-10.5591,87,1.0845,0,-9.0334,32.0099,25,0.8004,9027,4.0403,153.9477
rg,1625251229390264454,1,0.4382,0.4009,0.823,769,2.6855,13.6108,-12.2681,87,1.0885,0,-8.9594,31.9114,25,0.8014,25606,4.0403,153.8568
rg,1625251229390362483,1,0.4199,0.4016,0.8308,770,3.7231,14.6484,-12.8784,87,1.0885,0,-8.7982,31.8494,25,0.8014,12550,4.0403,153.7662
rg,1625251229390388425,1,0.4185,0.4109,0.8347,771,4.6387,15.1978,-12.5732,87,1.0885,0,-8.5936,31.8233,25,0.8014,7788,4.0403,153.6961
rg,1625251229390412989,1,0.4062,0.4238,0.8508,772,4.2725,13.7939,-12.3901,87,1.0885,0,-8.4349,31.8088,25,0.8014,7828,4.0403,153.5976
rg,1625251229390443273,1,0.3921,0.4375,0.8486,773,5.7373,12.6953,-13.0615,87,1.0885,0,-8.2736,31.8877,25,0.8014,8067,4.0403,153.4477
rg,1625251229390464854,1,0.3884,0.4536,0.8503,774,5.8594,10.7422,-13.0615,87,1.0885,0,-8.1696,32.0034,25,0.8014,7842,4.0403,153.2528
rg,1625251229390493313,1,0.3879,0.4661,0.845,775,5.0049,9.5215,-14.7095,87,1.0875,0,-8.0732,32.1214,25,0.8004,8982,4.0403,152.9726
rg,1625251229390566089,1,0.3894,0.4797,0.8386,776,4.3945,7.4463,-13.916,87,1.0895,0,-8.0686,32.2459,25,0.8024,7924,4.0403,152.6719
rg,1625251229390592423,1,0.3962,0.4868,0.8345,777,3.6621,5.9204,-13.9771,87,1.0895,0,-8.1454,32.3566,25,0.8024,7986,4.0403,152.3357
rg,1625251229391368250,1,0.4094,0.4861,0.8352,778,2.9297,4.6387,-14.7705,87,1.0855,0,-8.2516,32.4435,25,0.8004,7972,4.0403,151.9461
rg,1625251229391449674,1,0.428,0.4861,0.8254,779,1.2817,3.6621,-13.9771,87,1.0905,0,-8.4457,32.473,25,0.8024,8019,4.0403,151.562
rg,1625251229391478225,1,0.4355,0.4814,0.8271,780,0.9155,3.9062,-13.2446,87,1.0905,0,-8.6549,32.4733,25,0.8024,7989,4.0403,151.2102
rg,1625251229391501763,1,0.4546,0.4666,0.8228,781,0.9766,4.2725,-12.3901,87,1.0875,0,-8.9079,32.4493,25,0.8004,8105,4.0403,150.8992
rg,1625251229391525842,1,0.4668,0.4478,0.8218,782,0.7935,6.4697,-12.5732,87,1.0895,0,-9.1058,32.3795,25,0.8024,8007,4.0403,150.6352
rg,1625251229391551505,1,0.4675,0.436,0.8203,783,0.5493,7.8735,-12.207,87,1.0905,0,-9.2651,32.2758,25,0.8024,7998,4.0403,150.417
rg,1625251229391577708,1,0.4614,0.4199,0.8276,784,1.8311,9.9487,-11.4136,87,1.0885,-0.001,-9.3558,32.1764,25,0.8004,8058,4.0403,150.2762
rg,1625251229391606203,1,0.4551,0.4146,0.8252,785,2.7466,11.3525,-10.498,87,1.0875,0,-9.4077,32.0989,25,0.8014,7933,4.0403,150.1971
rg,1625251229391632351,1,0.4453,0.4102,0.8237,786,3.7842,13.6719,-11.4136,87,1.0885,0,-9.3445,32.0547,25,0.8024,10734,4.0403,150.1368
rg,1625251229391653615,1,0.4414,0.408,0.8328,787,3.7231,15.0146,-12.2681,87,1.0905,0,-9.2147,32.027,25,0.8024,8377,4.0403,150.0791
rg,1625251229391676464,1,0.4282,0.4136,0.8357,788,4.8218,14.9536,-12.207,87,1.0885,0,-9.0549,32.0196,25,0.8004,8140,4.0403,150.0183
rg,1625251229391699033,1,0.4231,0.4253,0.8364,789,5.249,15.1367,-12.0239,87,1.0905,0,-8.8835,32.0497,25,0.8024,8194,4.0403,149.9636
rg,1625251229391720484,1,0.4058,0.4277,0.8406,790,5.249,15.686,-12.3291,87,1.0885,0,-8.6804,32.0773,25,0.8004,8214,4.0403,149.8946
rg,1625251229392993631,1,0.4028,0.4377,0.8508,791,5.127,14.7095,-12.5732,87,1.0875,0,-8.4709,32.112,25,0.8004,8263,4.0403,149.8106
rg,1625251229393039403,1,0.3948,0.458,0.8467,792,5.3711,12.6953,-13.1836,87,1.0905,0,-8.3034,32.2072,25,0.8014,8294,4.0403,149.6559
rg,1625251229393059754,1,0.3862,0.467,0.8467,793,4.8218,11.0474,-13.0005,87,1.0905,0,-8.1811,32.2975,25,0.8024,8308,4.0403,149.4707
rg,1625251229393078987,1,0.3911,0.4819,0.8481,794,4.2725,9.5215,-12.7563,87,1.0895,0,-8.1354,32.407,25,0.8024,8355,4.0403,149.2561
rg,1625251229393098575,1,0.395,0.4822,0.8479,795,3.3569,7.2632,-12.3291,87,1.0895,0,-8.171,32.467,25,0.8004,8351,4.0403,149.0106
rg,1625251229393118106,1,0.4104,0.4819,0.8396,796,1.8311,5.4321,-12.207,87,1.0905,0,-8.3047,32.4785,25,0.8024,8316,4.0403,148.729
rg,1625251229393136817,1,0.4216,0.4639,0.825,797,0.9766,5.5542,-13.4888,87,1.0905,0,-8.4616,32.4414,25,0.8024,8357,4.0403,148.4138
rg,1625251229393155361,1,0.4263,0.4641,0.8313,798,0.9155,4.5166,-12.8784,87,1.0875,0,-8.6446,32.4013,25,0.8004,8353,4.0403,148.0931
rg,1625251229393173270,1,0.4465,0.4441,0.8152,799,0.5493,4.7607,-11.5356,87,1.0895,0,-8.9012,32.3217,25,0.8004,8388,4.0403,147.8263
rg,1625251229393192671,1,0.4641,0.4282,0.8152,800,1.2817,7.2632,-12.3901,87,1.0905,0,-9.0864,32.2417,25,0.8024,8443,4.0403,147.5889
rg,1625251229743465552,1,0.4585,0.4028,0.8201,801,2.7466,12.4512,-12.3901,87,1.0885,0,-9.0698,32.164,25,0.8014,25649,4.0403,147.4868
rg,1625251229743499638,1,0.4407,0.4048,0.8293,802,5.249,14.4653,-12.8174,87,1.0885,0,-8.9516,32.1633,25,0.8014,10795,4.0403,147.3983
rg,1625251229743519841,1,0.4365,0.4136,0.8289,803,5.6152,14.8315,-13.3057,87,1.0895,0,-8.8038,32.196,25,0.8014,7929,4.0403,147.2979
rg,1625251229743538459,1,0.4263,0.4268,0.8323,804,6.7749,15.8691,-13.5498,87,1.0885,0,-8.5933,32.2928,25,0.8024,9434,4.0403,147.2085
rg,1625251229743555958,1,0.4214,0.4258,0.8357,805,6.5308,15.0757,-13.0005,87,1.0885,0,-8.4175,32.3697,25,0.8014,7824,4.0403,147.1227
rg,1625251229743593493,1,0.4097,0.4358,0.8403,806,7.0801,14.4043,-13.3057,87,1.0885,0,-8.2339,32.4827,25,0.8014,9227,4.0403,147.0109
rg,1625251229743612465,1,0.4109,0.4585,0.834,807,6.5918,12.8784,-13.0615,87,1.0895,0,-8.1111,32.6259,25,0.7994,8485,4.0403,146.8684
rg,1625251229743629443,1,0.4075,0.4741,0.8418,808,6.5918,13.0005,-13.3057,87,1.0895,0,-7.9699,32.7738,25,0.8024,7911,4.0403,146.6957
rg,1625251229743646346,1,0.4023,0.4758,0.8425,809,5.8594,12.0239,-13.6719,87,1.0875,0,-7.8422,32.9046,25,0.8014,7936,4.0403,146.5151
rg,1625251229743663902,1,0.4075,0.4861,0.8391,810,4.5776,10.1929,-13.6108,87,1.0895,0,-7.7896,33.0073,25,0.8024,7928,4.0403,146.295
rg,1625251229743680377,1,0.4146,0.4822,0.8381,811,4.0894,9.2163,-13.4888,87,1.0895,0,-7.7582,33.0596,25,0.8024,7955,4.0403,146.0139
rg,1625251229743698324,1,0.4199,0.4827,0.8386,812,3.54,8.4229,-13.4277,87,1.0895,0,-7.797,33.1139,25,0.8014,7976,4.0403,145.764
rg,1625251229743716029,1,0.4194,0.4736,0.8313,813,2.2583,7.3853,-11.1694,87,1.0875,0,-7.9262,33.0992,25,0.8024,7995,4.0403,145.5696
rg,1625251229743733231,1,0.4231,0.4661,0.8301,814,2.4414,8.4839,-13.1226,87,1.0895,0,-7.9951,33.09,25,0.8024,8017,4.0403,145.3347
rg,1625251229743750451,1,0.425,0.4614,0.824,815,2.1973,8.3618,-12.085,87,1.0855,0,-8.0856,33.0608,25,0.8014,8039,4.0403,145.1331
rg,1625251229743766982,1,0.4309,0.4451,0.8257,816,1.0376,9.2773,-12.6953,87,1.0885,0,-8.1461,32.9539,25,0.8014,8116,4.0403,144.9356
rg,1625251229743783494,1,0.429,0.4319,0.8325,817,0.9155,9.7046,-13.0615,87,1.0885,0,-8.1793,32.8138,25,0.8014,8194,4.0414,144.7383
rg,1625251229743799913,1,0.426,0.4253,0.8311,818,1.8311,10.498,-13.0005,81,1.0895,0,-8.1847,32.7013,25,0.8014,8230,4.0414,144.56
rg,1625251229743817096,1,0.4265,0.4209,0.8315,819,2.1973,10.9253,-12.3291,81,1.0895,0,-8.1597,32.5776,25,0.8014,8161,4.0414,144.406
rg,1625251229743834353,1,0.4236,0.426,0.8418,820,2.9907,11.6577,-13.1226,81,1.0885,0,-8.1118,32.5072,25,0.8024,8132,4.0414,144.2462
rg,1625251229743861861,1,0.4224,0.4243,0.8367,821,4.5166,11.5967,-13.6719,81,1.0895,0,-8.0583,32.5049,25,0.8024,8108,4.0414,144.0649
rg,1625251229743878951,1,0.4238,0.4238,0.8359,822,4.8828,11.0474,-13.5498,81,1.0905,0,-8.0314,32.5182,25,0.8024,8310,4.0414,143.8755
rg,1625251229743895426,1,0.418,0.4343,0.8364,823,5.3101,10.8032,-13.4277,81,1.0895,0,-7.9944,32.5647,25,0.8014,8579,4.0414,143.6539
rg,1625251229743912292,1,0.4219,0.4451,0.832,824,5.4932,10.8643,-13.855,81,1.0905,0,-7.9424,32.6444,25,0.8024,8605,4.0414,143.4406
rg,1625251229743929289,1,0.4243,0.4587,0.8359,825,5.127,11.2915,-13.9771,81,1.0875,0,-7.8883,32.7304,25,0.8014,8228,4.0414,143.2347
rg,1625251229743945820,1,0.4233,0.4541,0.8276,826,4.3945,11.0474,-14.4043,81,1.0895,0,-7.8411,32.7865,25,0.8024,8246,4.0414,143.0102
rg,1625251229743962108,1,0.4268,0.4521,0.8354,827,4.6387,10.3149,-12.146,81,1.0905,0,-7.8706,32.8299,25,0.8024,8275,4.0414,142.8487
rg,1625251229743978695,1,0.4297,0.4531,0.8337,828,4.3945,10.6812,-13.1226,81,1.0875,0,-7.8719,32.8693,25,0.8014,8282,4.0414,142.6624
rg,1625251229743995486,1,0.4287,0.4495,0.8328,829,4.2114,12.207,-13.2446,81,1.0895,0,-7.8197,32.8898,25,0.8014,8345,4.0414,142.507
rg,1625251229744012427,1,0.4238,0.45,0.8279,830,5.249,11.9019,-12.4512,81,1.0905,0,-7.7909,32.9539,25,0.8034,8341,4.0414,142.3712
rg,1625251229744029312,1,0.429,0.4546,0.8337,831,5.4932,11.1694,-13.0005,81,1.0885,0,-7.7693,33.0314,25,0.8024,8343,4.0414,142.2015
rg,1625251229744045768,1,0.4277,0.4561,0.8308,832,4.9438,11.4746,-12.3291,81,1.0885,0,-7.7617,33.0873,25,0.8014,8402,4.0414,142.0614
rg,1625251230099629454,1,0.4202,0.4568,0.8237,833,3.418,11.1694,-12.6953,81,1.0885,0,-7.7469,33.0915,25,0.8024,25146,4.0414,141.9019
rg,1625251230099675823,1,0.4182,0.4492,0.8328,834,2.9297,9.1553,-12.207,81,1.0895,0,-7.8034,33.0553,25,0.8024,15015,4.0414,141.7178
rg,1625251230099696624,1,0.4204,0.4497,0.8357,835,2.3193,9.5215,-12.3291,81,1.0895,0,-7.8449,32.9938,25,0.8024,7789,4.0414,141.5375
rg,1625251230099747815,1,0.4268,0.4397,0.834,836,2.2583,8.7891,-12.5732,81,1.0895,0,-7.9218,32.9186,25,0.8024,7831,4.0414,141.3344
rg,1625251230099769566,1,0.4224,0.4355,0.8328,837,2.5635,8.3008,-11.4746,81,1.0885,0,-7.9177,32.8352,25,0.8024,7866,4.0414,141.1085
rg,1625251230099788765,1,0.4272,0.4368,0.8352,838,2.5635,8.9722,-12.9395,81,1.0895,0,-7.9797,32.7728,25,0.8024,7823,4.0414,140.8957
rg,1625251230099806307,1,0.4211,0.4363,0.8293,839,3.418,8.9722,-13.5498,81,1.0895,0,-8.019,32.7546,25,0.8024,7933,4.0414,140.6608
rg,1625251230099825115,1,0.4248,0.4409,0.8264,840,3.6011,11.1084,-14.3433,81,1.0895,0,-7.9754,32.7542,25,0.8024,8042,4.0414,140.4438
rg,1625251230099843439,1,0.4221,0.4409,0.8301,841,3.8452,10.498,-13.5498,81,1.0895,0,-7.9632,32.7574,25,0.8024,9518,4.0414,140.2407
rg,1625251230099862266,1,0.426,0.446,0.8245,842,4.4556,10.6812,-14.5874,81,1.0895,0,-7.9324,32.8053,25,0.8024,7857,4.0414,140.0043
rg,1625251230099879547,1,0.4238,0.4478,0.832,843,4.5166,10.2539,-13.916,81,1.0895,0,-7.9208,32.8468,25,0.8024,7876,4.0414,139.7827
rg,1625251230099896567,1,0.429,0.4529,0.8267,844,4.6997,11.0474,-12.8784,81,1.0895,0,-7.917,32.9028,25,0.8014,8099,4.0414,139.6122
rg,1625251230099914854,1,0.428,0.4568,0.8213,845,5.249,12.5122,-14.8315,81,1.0905,0,-7.8222,32.9964,25,0.8034,7935,4.0414,139.4069
rg,1625251230099933178,1,0.4241,0.4558,0.8264,846,5.7983,11.9629,-13.916,81,1.0875,0,-7.7581,33.0977,25,0.8014,7964,4.0414,139.2229
rg,1625251230099956698,1,0.4277,0.4602,0.8247,847,5.5542,12.207,-13.7329,81,1.0905,0,-7.6983,33.1942,25,0.8014,8007,4.0414,139.0508
rg,1625251230099974724,1,0.4248,0.4548,0.8276,848,4.6387,13.0005,-12.9395,81,1.0895,0,-7.6261,33.2306,25,0.8024,8020,4.0414,138.9264
rg,1625251230099993960,1,0.4272,0.4614,0.8254,849,4.5776,12.207,-12.085,81,1.0875,0,-7.6052,33.2769,25,0.8024,8072,4.0414,138.8116
rg,1625251230100011632,1,0.4248,0.4585,0.8279,850,4.7607,12.6343,-12.5122,81,1.0895,0,-7.5562,33.3208,25,0.8024,8100,4.0414,138.6937
rg,1625251230100065450,1,0.4185,0.4507,0.8286,851,4.6387,12.9395,-12.7563,81,1.0895,0,-7.4841,33.342,25,0.8024,8120,4.0414,138.5772
rg,1625251230100090328,1,0.4258,0.457,0.8325,852,4.9438,13.3667,-12.085,81,1.0885,0,-7.4237,33.3787,25,0.8024,8114,4.0414,138.4918
rg,1625251230100109044,1,0.4165,0.4514,0.8262,853,4.5776,12.5732,-12.3901,81,1.0905,0,-7.3744,33.3985,25,0.8024,8131,4.0414,138.3796
rg,1625251230100127498,1,0.4124,0.4514,0.8352,854,4.3335,12.9395,-12.085,81,1.0905,0,-7.307,33.3952,25,0.8044,8139,4.0414,138.2872
rg,1625251230100147926,1,0.4153,0.4519,0.8291,855,4.2725,13.0005,-12.3291,81,1.0905,0,-7.2446,33.3981,25,0.8034,8204,4.0414,138.1867
rg,1625251230100167163,1,0.4167,0.459,0.8308,856,4.6997,11.7798,-12.6953,81,1.0855,0,-7.2156,33.4346,25,0.8024,8167,4.0414,138.0451
rg,1625251230100185729,1,0.4128,0.4558,0.8362,857,3.9673,12.8174,-13.6719,81,1.0895,0,-7.1217,33.4294,25,0.8034,8224,4.0414,137.8959
rg,1625251230100205040,1,0.4158,0.4543,0.8306,858,4.0894,11.5967,-12.8174,81,1.0895,0,-7.0828,33.4135,25,0.8044,8237,4.0414,137.7423
rg,1625251230100225635,1,0.4146,0.4558,0.8352,859,3.7231,11.1694,-12.9395,81,1.0885,0,-7.0689,33.4018,25,0.8024,8272,4.0414,137.5801
rg,1625251230100243624,1,0.4131,0.4514,0.8345,860,2.9907,11.9019,-13.916,81,1.0895,0,-7.0093,33.3555,25,0.8034,8357,4.0414,137.4021
rg,1625251230100262712,1,0.4165,0.4512,0.8315,861,3.479,11.7188,-13.6108,81,1.0895,0,-6.9737,33.3325,25,0.8044,9820,4.0414,137.229
rg,1625251230100281073,1,0.4185,0.4487,0.8311,862,3.7842,12.4512,-14.4043,81,1.0915,0,-6.9028,33.3197,25,0.8044,8579,4.0414,137.0455
rg,1625251230100302507,1,0.4102,0.446,0.8389,863,2.6245,11.8408,-14.3433,81,1.0885,0,-6.8872,33.295,25,0.8044,9001,4.0414,136.8949
rg,1625251230100320980,1,0.4126,0.4407,0.8386,864,4.1504,11.9019,-14.7095,81,1.0885,0,-6.8179,33.2766,25,0.8034,8492,4.0414,136.6909
rg,1625251230459402143,1,0.4102,0.4475,0.823,865,4.6387,11.4746,-13.7939,81,1.0905,0,-6.7892,33.3054,25,0.8034,25115,4.0414,136.5042
rg,1625251230459486929,1,0.4146,0.4497,0.8281,866,4.2114,11.1694,-13.855,81,1.0895,0,-6.7742,33.316,25,0.8034,14794,4.0414,136.3092
rg,1625251230459520076,1,0.4182,0.4561,0.8308,867,4.5166,11.1084,-12.5732,81,1.0895,0,-6.7925,33.343,25,0.8034,7853,4.0414,136.1549
rg,1625251230459550262,1,0.4231,0.4585,0.8315,868,5.0659,11.2915,-14.1602,81,1.0895,0,-6.7767,33.4009,25,0.8034,7801,4.0414,135.9513
rg,1625251230459577841,1,0.4248,0.459,0.8271,869,4.5166,11.8408,-14.2212,81,1.0895,0,-6.748,33.4392,25,0.8034,7875,4.0414,135.7581
rg,1625251230459603651,1,0.4241,0.4585,0.8342,870,4.4556,12.3901,-14.0991,81,1.0895,0,-6.7092,33.4704,25,0.8034,7877,4.0414,135.5816
rg,1625251230459634359,1,0.4197,0.4578,0.8313,871,4.8218,12.5122,-13.3667,81,1.0875,0,-6.6671,33.5058,25,0.8024,8083,4.0414,135.4339
rg,1625251230459665271,1,0.4204,0.4614,0.8271,872,4.5776,13.3667,-14.4043,81,1.0905,0,-6.5781,33.5433,25,0.8034,7913,4.0414,135.2696
rg,1625251230459694191,1,0.4106,0.457,0.8286,873,4.3945,13.855,-14.9536,81,1.0905,0,-6.446,33.5619,25,0.8044,7950,4.0414,135.0994
rg,1625251230459719312,1,0.415,0.4641,0.8289,874,4.2114,13.1836,-13.3057,81,1.0885,0,-6.3829,33.5813,25,0.8024,7942,4.0414,134.9679
rg,1625251230459748120,1,0.4111,0.4624,0.8291,875,4.9438,13.1836,-14.2822,81,1.0905,0,-6.2936,33.6288,25,0.8044,7927,4.0414,134.8043
rg,1625251230459785476,1,0.416,0.4543,0.8279,876,5.0049,13.5498,-14.0991,81,1.0905,0,-6.2313,33.6448,25,0.8044,7952,4.0414,134.6537
rg,1625251230459814749,1,0.4124,0.4543,0.8335,877,5.0659,12.8784,-13.1226,81,1.0885,0,-6.186,33.6708,25,0.8024,8099,4.0414,134.5249
rg,1625251230459844526,1,0.4111,0.4531,0.8276,878,4.5776,13.4277,-14.5264,81,1.0885,0,-6.0953,33.6839,25,0.8034,8770,4.0414,134.3614
rg,1625251230459871062,1,0.4102,0.4519,0.8359,879,5.0659,12.4512,-14.2212,81,1.0905,0,-6.0398,33.7055,25,0.8044,9460,4.0414,134.1874
rg,1625251230459899107,1,0.4128,0.4468,0.8362,880,5.3101,14.0991,-14.7705,81,1.0905,0,-6.02,33.6947,25,0.8044,8066,4.0414,134.0588
rg,1625251230459959665,1,0.4167,0.4543,0.835,881,5.6763,12.9395,-13.6719,81,1.0885,0,-5.9757,33.7432,25,0.8034,8112,4.0414,133.9134
rg,1625251230459988660,1,0.4114,0.4563,0.8308,882,5.188,13.6719,-14.4653,81,1.0905,0,-5.8829,33.7791,25,0.8024,8128,4.0414,133.7578
rg,1625251230460016443,1,0.4141,0.4536,0.8354,883,5.6763,13.7329,-14.2212,81,1.0905,0,-5.7729,33.8128,25,0.8044,8136,4.0414,133.6077
rg,1625251230460041490,1,0.4077,0.4578,0.834,884,5.249,13.0005,-13.1226,81,1.0885,0,-5.7298,33.8441,25,0.8034,8139,4.0414,133.4825
rg,1625251230460066462,1,0.4058,0.4568,0.8289,885,4.8828,14.2822,-15.0757,81,1.0895,0,-5.6256,33.8887,25,0.8034,11778,4.0414,133.3201
rg,1625251230460092086,1,0.4045,0.4634,0.8369,886,5.7983,13.3667,-13.7329,81,1.0895,0,-5.5517,33.9471,25,0.8044,8231,4.0414,133.1829
rg,1625251230460117039,1,0.4026,0.4639,0.8362,887,5.7983,13.6719,-15.2588,81,1.0895,0,-5.4329,34.0089,25,0.8044,8221,4.0414,133.0023
rg,1625251230460142868,1,0.3977,0.4617,0.8352,888,6.4697,12.6343,-14.4653,81,1.0895,0,-5.3625,34.0911,25,0.8044,9848,4.0414,132.8257
rg,1625251230460167821,1,0.3994,0.4673,0.8315,889,6.1646,12.207,-14.5874,81,1.0895,0,-5.3094,34.1739,25,0.8044,8296,4.0414,132.6352
rg,1625251230460193631,1,0.4006,0.4753,0.8359,890,5.7983,12.8784,-15.564,81,1.0905,0,-5.21,34.2507,25,0.8044,8703,4.0414,132.4278
rg,1625251230460219125,1,0.4019,0.4783,0.8367,891,5.8594,12.4512,-14.6484,81,1.0885,0,-5.1496,34.3297,25,0.8034,8555,4.0414,132.2415
rg,1625251230460244823,1,0.395,0.4807,0.8318,892,5.4321,12.4512,-15.3198,81,1.0905,-0.001,-5.0651,34.3999,25,0.8054,8392,4.0414,132.0333
rg,1625251230460274208,1,0.3994,0.4771,0.8318,893,4.9438,11.5356,-13.4888,81,1.0905,0,-5.0441,34.4419,25,0.8044,8231,4.0414,131.8185
rg,1625251230460301880,1,0.4036,0.4778,0.8362,894,4.8218,11.1694,-13.3057,81,1.0885,0,-5.0656,34.4702,25,0.8034,8381,4.0414,131.6501
rg,1625251230460434431,1,0.3975,0.4731,0.8337,895,4.1504,11.4746,-13.4277,81,1.0905,0,-5.0653,34.464,25,0.8034,8456,4.0414,131.4857
