name,time,activity,ax,ay,az,batch_val,gx,gy,gz,ibat,index,middle,pitch,roll,temp,thumb,ts,vbat,yaw
rg,1625260623681392145,1,0.071,0.2839,1.0442,1,0.9766,14.0991,-15.8081,59,1.1105,0.001,13.5007,16.4718,24,0.8564,19733,4.0733,78.6669
rg,1625260623681429269,1,0.0715,0.282,1.0635,2,0.8545,13.7939,-14.4653,59,1.1125,0,13.5165,16.34,24,0.8554,8299,4.0733,78.2418
rg,1625260623681449521,1,0.0706,0.2815,1.0784,3,1.0376,13.6719,-14.4653,59,1.1125,0,13.5299,16.211,24,0.8574,7921,4.0733,77.8128
rg,1625260623681469067,1,0.0688,0.2842,1.0803,4,0.8545,13.3057,-15.0757,59,1.1105,0,13.5382,16.0773,24,0.8564,7901,4.0733,77.356
rg,1625260623681486590,1,0.01,0.2773,1.0867,5,0.9155,11.1084,-13.2446,59,1.1125,0,13.5559,15.9448,24,0.8534,7896,4.0733,76.942
rg,1625260623681504428,1,0.0212,0.2788,1.0947,6,0.8545,7.5073,-13.2446,59,1.1115,0,13.1857,15.8074,24,0.8554,7909,4.0733,76.4832
rg,1625260623681522972,1,0.0554,0.2744,1.105,7,0.7935,-2.0142,-10.498,59,1.1105,0,12.5951,15.662,24,0.8554,8014,4.0733,76.0291
rg,1625260623681540885,1,0.0596,0.2588,1.1125,8,-0.7935,-3.2959,-8.1787,59,1.1125,0,11.9445,15.4464,24,0.8574,7934,4.0733,75.6483
rg,1625260623681557758,1,0.052,0.2544,1.1147,9,-1.4038,-3.8452,-8.0566,59,1.1115,0,11.2147,15.2279,24,0.8574,7998,4.0733,75.2787
rg,1625260623681574873,1,0.0742,0.2664,1.1165,10,0.4272,-7.5684,-5.9814,59,1.1105,0,10.3999,15.1091,24,0.8574,8027,4.0733,74.9488
rg,1625260623681592173,1,0.0984,0.2852,1.1042,11,-1.8921,-9.0332,-4.8828,59,1.1125,0,9.5007,14.9551,24,0.8584,8027,4.0733,74.6579
rg,1625260623681609232,1,0.1069,0.2803,1.1067,12,-3.8452,-8.4229,-5.188,59,1.1115,0.001,8.6086,14.6832,24,0.8574,8033,4.0733,74.3944
rg,1625260623681626476,1,0.1038,0.2805,1.115,13,-8.1787,-7.9956,-4.6997,59,1.1105,0,7.8053,14.2934,24,0.8574,7895,4.0733,74.1278
rg,1625260623681642607,1,0.0952,0.2754,1.1189,14,-11.5356,-7.5073,-5.4321,59,1.1115,0,7.0738,13.7745,24,0.8564,8071,4.0733,73.8412
rg,1625260623681659368,1,0.0957,0.2754,1.1223,15,-13.6719,-6.958,-5.9204,59,1.1105,0,6.3781,13.0487,24,0.8584,8125,4.0733,73.6077
rg,1625260623681676798,1,0.1089,0.2629,1.1265,16,-18.1885,-6.958,-3.2349,59,1.1105,0,5.6723,12.3043,24,0.8574,8111,4.0733,73.4226
rg,1625260623681693839,1,0.1147,0.2424,1.1353,17,-21.3013,-4.0283,-3.7842,59,1.1095,0,5.1,11.4252,24,0.8574,8174,4.0733,73.2429
rg,1625260623681710601,1,0.3926,-0.9509,1.0144,18,84.2896,9.5825,-20.874,98,1.0735,0,4.9248,12.9332,24,0.7874,14173,4.0524,72.3356
rg,1625260623681727418,1,0.5576,-0.8594,0.9197,19,102.417,20.813,-29.7241,98,1.0745,0,5.0066,15.205,25,0.7904,8173,4.0524,71.2131
rg,1625260623681744625,1,0.2434,-0.5342,0.7334,20,112.4268,75.2563,-53.3447,98,1.0765,0,7.785,17.8297,25,0.7934,7982,4.0524,69.8524
rg,1625260623681761536,1,-0.2158,-0.5005,0.7012,21,95.459,92.8955,-60.2417,98,1.0795,0,12.4319,19.6474,25,0.7974,8017,4.0524,68.513
rg,1625260623681778427,1,-0.3367,-0.4751,0.7512,22,86.731,84.2896,-62.3779,98,1.0775,0,16.9507,21.0717,25,0.7964,8011,4.0524,66.9434
rg,1625260623681795616,1,-0.3574,-0.4517,0.7781,23,71.4111,45.4102,-57.8003,98,1.0795,0,19.7129,21.6879,24,0.7984,10700,4.0524,64.8663
rg,1625260623681812192,1,-0.2229,-0.3931,0.7986,24,58.8989,17.8833,-46.936,98,1.0795,0,21.0872,21.7377,24,0.7974,8068,4.0524,62.694
rg,1625260623681828861,1,-0.1633,-0.3008,0.8352,25,41.5039,7.8735,-30.2734,98,1.0815,0,21.601,21.4029,24,0.7994,8084,4.0524,61.0315
rg,1625260623681845660,1,-0.1318,-0.3188,0.8691,26,30.0293,-0.3662,-22.583,98,1.0815,0,21.1283,20.2074,24,0.8004,8116,4.0524,59.6761
rg,1625260623681862793,1,-0.1494,-0.2512,0.9102,27,4.9438,-16.1133,-4.5166,98,1.0815,0,20.2491,18.8603,24,0.8044,8154,4.0524,58.7579
rg,1625260623681880223,1,-0.2583,-0.3218,1.0198,28,-35.5835,-36.8652,11.2915,98,1.0825,0,18.5835,16.0476,24,0.8104,8185,4.0524,58.261
rg,1625260623681897245,1,0.0967,-0.4407,1.0181,29,-48.645,-58.4106,17.8223,98,1.0835,0,14.4204,12.2663,24,0.8114,8242,4.0524,58.0079
rg,1625260623681913784,1,0.4141,-0.4521,1,30,-73.3032,-93.4448,24.9023,98,1.0795,0,9.3734,8.1288,24,0.8034,8262,4.0524,58.0511
rg,1625260623681931029,1,0.7539,-0.4626,0.9224,31,-102.6611,-60.4858,20.9351,168,1.0785,0,5.3275,3.0734,24,0.7894,8267,3.9831,58.5494
rg,1625260623681984210,1,0.5654,-0.4299,0.9216,32,-126.4038,-10.1318,5.188,168,1.0695,0,3.6626,-2.8749,24,0.7724,8256,3.9831,58.7352
rg,1625260624037548069,1,0.019,-0.9988,1.22,33,-46.5088,105.2246,-12.5732,168,1.0755,0,7.6544,-6.1603,24,0.7884,25554,3.9831,57.815
rg,1625260624037584904,1,0.0532,-0.4053,0.782,34,20.4468,10.3149,-13.916,168,1.0775,0,7.5844,-6.2509,24,0.7914,13518,3.9831,57.1006
rg,1625260624037605670,1,0.1392,-0.4226,0.7776,35,15.3198,4.3945,-13.1836,168,1.0775,0,7.0746,-6.5647,24,0.7934,10497,3.9831,56.44
rg,1625260624037625340,1,0.1785,-0.4875,0.8218,36,1.2207,6.6528,-15.4419,168,1.0775,0,6.5966,-7.5074,24,0.7954,7695,3.9831,55.6811
rg,1625260624037645214,1,0.1609,-0.5093,0.8501,37,-0.5493,8.5449,-17.2729,168,1.0775,0,6.2389,-8.5036,24,0.7964,7664,3.9831,54.8461
rg,1625260624037663771,1,0.1704,-0.6895,0.9492,38,-3.54,9.8267,-20.752,168,1.0785,0,5.9509,-9.7775,24,0.7974,7601,3.9831,53.8507
rg,1625260624037681344,1,0.1926,-0.7192,0.9536,39,0.9155,11.1084,-23.9258,168,1.0785,0,5.6659,-10.8727,24,0.7984,7693,3.9831,52.7214
rg,1625260624037698881,1,0.1382,-0.6921,0.9329,40,12.146,23.6206,-24.8413,168,1.0785,0,6.0318,-11.4332,24,0.7994,9561,3.9831,51.4665
rg,1625260624037715953,1,0.0642,-0.6401,0.8877,41,22.1558,31.189,-26.4282,168,1.0805,0,6.6879,-11.6305,25,0.8024,9648,3.9831,50.0736
rg,1625260624037733341,1,0.2009,-0.8076,1,42,39.2456,40.8936,-22.2778,168,1.0815,0,7.5284,-11.2473,25,0.8044,7808,3.9831,48.7418
rg,1625260624037750302,1,0.2859,-0.8582,0.947,43,73.0591,64.5142,-26.6724,168,1.0845,0,9.1243,-9.7047,25,0.8084,7798,3.9831,47.0439
rg,1625260624037767281,1,0.2349,-0.7544,0.8901,44,86.6699,77.8809,-31.6162,168,1.0835,0,11.2569,-7.708,25,0.8094,7816,3.9831,45.0966
rg,1625260624037783908,1,-0.0098,-0.5039,0.7454,45,91.6748,101.9897,-41.8701,168,1.0835,0,14.7271,-5.5795,24,0.8124,7785,3.9831,42.6942
rg,1625260624037801240,1,-0.1533,-0.4644,0.7144,46,83.5571,105.5298,-45.5933,168,1.0855,0,18.8512,-4.3113,24,0.8124,7833,3.9831,40.1692
rg,1625260624037839969,1,-0.4565,-0.45,0.7434,47,65.7349,89.2944,-42.1143,168,1.0835,0,22.7028,-3.3871,24,0.8104,7884,3.9831,37.8026
rg,1625260624037860455,1,-0.8472,-0.061,0.6504,48,39.5508,43.8843,-18.0664,168,1.0865,0,25.5301,-2.219,24,0.8144,7916,3.9831,36.9098
rg,1625260624037877658,1,-0.833,-0.4297,0.9329,49,-10.498,-54.2603,7.2632,168,1.0875,0,23.963,-3.2002,25,0.8204,12659,3.9831,37.0147
rg,1625260624037894619,1,-0.314,-0.4573,0.9473,50,-28.0151,-136.3525,28.3203,168,1.0875,0,18.3924,-4.6265,25,0.8224,8121,3.9831,38.2626
rg,1625260624037912173,1,0.6082,-0.6052,0.9971,51,-40.4663,-162.1094,38.3911,168,1.0865,0,10.5598,-6.6016,25,0.8194,9509,3.9831,40.225
rg,1625260624037929097,1,0.8855,-0.5615,0.9912,52,-49.4385,-136.5356,33.3862,168,1.0835,0,5.0794,-9.4535,24,0.8094,8002,3.9831,41.5974
rg,1625260624037946021,1,0.7695,-0.4587,0.8594,53,-63.9648,-57.0068,11.9629,168,1.0785,0,1.393,-12.5164,24,0.7994,7980,3.9831,42.4938
rg,1625260624037963428,1,0.8193,-0.9353,0.9167,54,-5.8594,-8.4839,7.2021,168,1.0805,0,-0.1113,-13.7912,24,0.8044,9115,3.9831,42.839
rg,1625260624037980092,1,0.4575,-0.6802,1.0933,55,-12.146,51.3916,-9.9487,168,1.0825,0,1.0191,-14.9427,24,0.8064,8606,3.9831,41.9503
rg,1625260624037996941,1,0.0796,-0.7397,0.9189,56,15.0146,68.6646,-14.4043,168,1.0825,0,3.4493,-14.4157,24,0.8064,8101,3.9831,40.6933
rg,1625260624038014385,1,-0.0342,-0.1968,0.6753,57,21.8506,38.5132,-10.9863,168,1.0805,0,4.8045,-13.671,24,0.8064,8085,3.9831,39.8857
rg,1625260624038031253,1,0.2795,-0.272,0.7253,58,2.6855,17.6392,-4.6387,168,1.0805,0,4.4987,-13.8451,24,0.8094,8087,3.9831,39.5153
rg,1625260624038152299,1,0.3086,-0.2837,0.7383,59,-8.728,24.1089,-9.5825,168,1.0815,0,4.9488,-15.0171,24,0.8094,8100,3.9831,38.6304
rg,1625260624038176015,1,0.1108,-0.3489,0.7827,60,-28.4424,41.8091,-16.1133,168,1.0815,0,6.1465,-16.8174,24,0.8114,8525,3.9831,37.5001
rg,1625260624038193885,1,-0.0457,-0.6631,0.9719,61,-37.7197,38.7573,-18.4937,168,1.0795,0,7.24,-19.1406,24,0.8114,8301,3.9831,36.238
rg,1625260624038245065,1,-0.0271,-0.7341,0.991,62,-24.5972,26.3062,-15.8081,168,1.0815,0,7.7819,-20.9249,24,0.8134,8217,3.9831,35.1914
rg,1625260624038263585,1,0.0708,-0.7971,1.0132,63,-17.7612,21.4233,-15.7471,168,1.0795,0,7.7657,-22.0298,24,0.8134,8234,3.9831,34.2428
rg,1625260624038282179,1,0.1084,-0.7917,1.0142,64,3.418,16.9067,-18.4326,168,1.0775,0,7.6244,-22.6409,24,0.8134,8270,3.9831,33.2121
rg,1625260624389441651,1,0.4255,-0.77,0.8728,65,98.3887,58.0444,-36.7432,168,1.0835,0,8.2123,-19.7164,24,0.8244,25382,3.9831,30.8604
rg,1625260624389488952,1,0.0698,-0.509,0.7209,66,101.6235,93.2617,-54.6875,168,1.0835,0,11.1421,-17.1452,24,0.8264,13118,3.9831,27.3025
rg,1625260624389509458,1,-0.3582,-0.4988,0.7397,67,88.0127,97.5342,-60.73,168,1.0835,0,14.1773,-15.2581,24,0.8264,7807,3.9831,23.8347
rg,1625260624389529295,1,-0.4304,-0.4324,0.7529,68,76.7212,68.2373,-60.6689,168,1.0825,0,16.6984,-13.5618,24,0.8244,8415,3.9831,20.5689
rg,1625260624389547870,1,-0.4155,-0.2874,0.71,69,65.0635,23.0103,-46.5088,168,1.0825,0,17.6487,-11.8938,24,0.8234,7658,3.9831,18.3764
rg,1625260624389565759,1,-0.3962,-0.2004,0.7275,70,52.7954,5.127,-35.9497,168,1.0825,0.001,17.3909,-10.4663,24,0.8234,7687,3.9831,17.5932
rg,1625260624389584465,1,-0.4155,-0.1028,0.7708,71,16.9067,-29.1748,-9.8267,168,1.0845,0,16.4661,-9.9816,24,0.8264,9898,3.9831,17.3669
rg,1625260624389602576,1,-0.3787,-0.2627,0.9612,72,-22.0947,-71.3501,17.5171,168,1.0855,0,13.965,-10.736,24,0.8304,7718,3.9831,18.5562
rg,1625260624389620372,1,0.1436,-0.3979,0.9819,73,-39.3066,-123.9624,32.3486,168,1.0855,0,8.5548,-12.2979,24,0.8324,7737,3.9831,20.761
rg,1625260624389638818,1,0.5017,-0.3694,0.958,74,-48.3398,-130.127,37.7197,168,1.0845,0,2.5739,-14.2728,24,0.8294,7810,3.9831,23.4122
rg,1625260624389656595,1,0.9375,-0.3818,0.9136,75,-84.5947,-85.3882,28.8086,168,1.0815,0,-2.0026,-17.8716,24,0.8184,7780,3.9831,25.5043
rg,1625260624389673575,1,0.6057,-0.3989,0.8538,76,-105.0415,-47.3022,18.4937,168,1.0705,0,-3.7266,-22.9174,24,0.7964,7821,3.9831,26.1585
rg,1625260624389742625,1,0.468,-0.1877,1.3403,77,-128.6621,-8.1177,1.3428,168,1.0725,0,-4.6009,-27.501,24,0.8014,8263,3.9831,26.333
rg,1625260624389767176,1,0.9302,0.0046,0.4221,78,10.1318,-5.9814,5.9204,168,1.0755,0,-6.696,-26.68,24,0.8044,10240,3.9831,26.6007
rg,1625260624389786178,1,-0.0598,-1.1694,1.3113,79,-23.1934,85.5103,-8.8501,168,1.0755,0,-3.5,-28.0203,24,0.8034,7903,3.9831,24.7692
rg,1625260624389806238,1,0.2358,-0.2524,0.7542,80,17.8833,23.7427,-5.9204,168,1.0765,0,-3.2812,-26.9018,24,0.8054,7989,3.9831,24.0904
rg,1625260624389824554,1,0.1653,-0.47,0.8005,81,12.6953,34.668,-4.8828,168,1.0745,0,-2.4037,-26.486,24,0.8064,7970,3.9831,23.2964
rg,1625260624389842387,1,0.1729,-0.3872,0.7585,82,3.2349,27.2217,-6.6528,168,1.0765,0,-1.9078,-26.3446,25,0.8084,7953,3.9831,22.5715
rg,1625260624389860869,1,0.1995,-0.4836,0.8171,83,-5.7983,22.4609,-13.1836,168,1.0775,-0.001,-1.734,-26.7069,25,0.8114,8001,3.9831,21.7031
rg,1625260624389880725,1,0.198,-0.5044,0.8284,84,-8.2397,23.9258,-18.3105,168,1.0755,0,-1.6017,-27.1764,25,0.8114,7853,3.9831,20.6216
rg,1625260624389899913,1,0.0364,-0.5825,0.8845,85,-10.6201,31.4941,-23.3154,168,1.0775,0,-0.9336,-27.8065,25,0.8134,8049,3.9831,19.2183
rg,1625260624389918748,1,0.0068,-0.7273,0.9661,86,-1.8921,25.5127,-23.3765,168,1.0775,0,-0.4516,-28.2204,24,0.8154,8026,3.9831,17.9185
rg,1625260624389938122,1,0.01,-0.7498,0.9802,87,7.1411,22.8882,-23.3154,168,1.0765,0,-0.0905,-28.2846,24,0.8154,8050,3.9831,16.6659
rg,1625260624389956753,1,0.124,-0.8945,1.0859,88,33.6304,21.3013,-21.0571,168,1.0785,0,0.0711,-27.3751,24,0.8174,8173,3.9831,15.5216
rg,1625260624389974048,1,0.3438,-1.0183,1.1406,89,81.3599,37.8418,-23.3765,168,1.0805,0,0.5159,-24.6814,24,0.8234,8126,3.9831,14.0029
rg,1625260624389992345,1,0.5105,-0.9724,1.0007,90,110.9009,56.5186,-23.3154,168,1.0825,0,1.3579,-20.9201,24,0.8264,8454,3.9831,12.2299
rg,1625260624390010586,1,0.2683,-0.553,0.7561,91,130.249,108.4595,-47.4854,168,1.0815,0,4.1682,-16.4531,24,0.8274,8239,3.9831,8.9967
rg,1625260624390043896,1,-0.1909,-0.3457,0.6431,92,115.6006,132.3853,-62.561,168,1.0815,0,9.0535,-12.7272,24,0.8294,8203,3.9831,5.2005
rg,1625260624390065756,1,-0.3914,-0.3579,0.6714,93,98.4497,128.0518,-66.1011,168,1.0815,0,14.0025,-10.463,24,0.8284,8171,3.9831,1.6447
rg,1625260624390083422,1,-0.7617,-0.2744,0.7283,94,74.585,90.6372,-54.3823,168,1.0785,0,18.3528,-8.577,25,0.8244,8272,3.9831,-1.2646
rg,1625260624390100142,1,-0.8296,-0.2209,0.7615,95,43.5791,18.9209,-28.0762,168,1.0815,0,20.0053,-7.4776,25,0.8204,8283,3.9831,-2.6122
rg,1625260624390118031,1,-0.251,-0.4783,0.9536,96,28.8696,-67.0776,-11.2305,168,1.0815,0,17.0678,-7.1247,25,0.8224,8882,3.9831,-2.9855
rg,1625260624736523416,1,0.1499,-0.116,0.9124,97,-11.8408,-33.6304,7.9956,168,1.0835,0,14.7694,-7.4597,24,0.8294,25817,3.9831,-2.4757
rg,1625260624736560418,1,-0.0571,-0.2126,0.9031,98,-65.3687,-36.1328,23.9258,168,1.0835,-0.001,13.0474,-10.0072,24,0.8284,13106,3.9831,-1.3247
rg,1625260624736580590,1,0.2053,-0.2061,0.8464,99,-103.1494,-57.8613,27.4048,168,1.0825,0,10.0138,-13.9355,24,0.8194,7725,3.9831,0.2622
rg,1625260624736600074,1,0.3782,-0.2629,0.8535,100,-125.7935,-62.1338,22.3389,168,1.0755,0,6.658,-19.7582,24,0.8034,7671,3.9831,1.5384
rg,1625260624736619021,1,0.5225,-0.2188,1.218,101,-156.8604,-49.2554,7.019,168,1.0735,0,3.847,-25.5553,24,0.8014,7607,3.9831,2.6583
rg,1625260624736637411,1,1.2375,-0.6069,0.699,102,-18.1274,-21.4233,15.0757,168,1.0765,0,1.4471,-26.5926,24,0.8054,7881,3.9831,3.5683
rg,1625260624736655838,1,0.793,-0.5422,1.0325,103,-43.7622,27.4658,-9.7046,168,1.0775,0,0.9156,-28.3858,24,0.8074,7722,3.9831,2.7336
rg,1625260624736674747,1,0.1987,-0.7803,0.9656,104,7.6294,59.3872,-21.4233,168,1.0775,0,2.1934,-28.5358,24,0.8074,8791,3.9831,0.8384
rg,1625260624736693007,1,-0.1169,-0.478,0.8857,105,14.2822,68.1152,-17.4561,168,1.0785,0,4.4257,-28.062,24,0.8104,7667,3.9831,-1.0724
rg,1625260624736711342,1,-0.2061,-0.4858,0.866,106,12.146,49.8047,-14.8315,168,1.0765,0,6.1879,-27.7537,24,0.8094,7772,3.9831,-2.5395
rg,1625260624736728599,1,0.032,-0.4531,0.8765,107,6.958,-1.8311,-21.4844,168,1.0765,0,5.4062,-27.5265,24,0.8094,7763,3.9831,-3.2684
rg,1625260624736769592,1,0.1355,-0.4851,0.8838,108,6.7749,-12.6343,-26.2451,168,1.0785,0,3.851,-27.3569,24,0.8124,7744,3.9831,-4.0614
rg,1625260624736789577,1,0.0908,-0.5583,0.9373,109,7.3853,-12.3901,-34.6069,168,1.0765,0,2.4374,-27.2459,24,0.8134,7789,3.9831,-5.0734
rg,1625260624736807225,1,0.0691,-0.6848,0.9897,110,20.0195,-20.6299,-38.0249,168,1.0785,0,0.7892,-26.7612,24,0.8154,7815,3.9831,-6.0656
rg,1625260624736824371,1,0.1355,-0.7043,0.9932,111,30.5786,-23.1934,-36.377,168,1.0785,0,-1.0582,-25.8468,24,0.8174,7751,3.9831,-6.9644
rg,1625260624736841852,1,0.2251,-0.6235,0.9077,112,60.4248,-9.3994,-31.4331,168,1.0805,0,-2.3384,-23.7356,24,0.8184,7842,3.9831,-7.9493
rg,1625260624736858850,1,0.2957,-0.668,0.9753,113,74.4019,21.8506,-19.104,168,1.0815,0,-2.2861,-21.1284,24,0.8244,7894,3.9831,-8.985
rg,1625260624736875551,1,0.489,-0.7317,0.9421,114,86.731,31.0669,-18.3716,168,1.0805,0,-2.1462,-18.2252,24,0.8274,7905,3.9831,-10.0937
rg,1625260624736892030,1,0.4731,-0.584,0.8433,115,100.0366,78.4912,-39.0625,168,1.0825,0,-0.4665,-14.7628,24,0.8304,7955,3.9831,-12.4903
rg,1625260624736909325,1,0.0027,-0.4143,0.7585,116,89.8438,140.625,-46.4478,168,1.0795,0,4.5667,-11.8324,24,0.8344,8965,3.9831,-15.5885
rg,1625260624736926564,1,-0.2761,-0.4563,0.7925,117,77.2095,133.8501,-51.0254,168,1.0835,0,9.9071,-9.8116,24,0.8374,10001,3.9831,-18.6666
rg,1625260624736944045,1,-0.3569,-0.3635,0.7546,118,73.3643,117.9199,-49.9878,168,1.0815,0,15.1069,-7.7424,24,0.8364,7996,3.9831,-21.4553
rg,1625260624736961395,1,-0.762,-0.0317,0.7092,119,26.4282,66.2231,-17.8223,168,1.0815,0,18.8291,-6.8569,24,0.8374,11580,3.9831,-22.4982
rg,1625260624736990938,1,-0.8328,-0.1921,0.8901,120,-3.6011,26.9165,-3.2959,168,1.0835,0,20.7819,-7.2595,25,0.8404,8045,3.9831,-22.8347
rg,1625260624737009235,1,-0.8572,-0.2134,0.9648,121,-32.0435,-60.4858,28.9307,168,1.0845,0,19.3263,-8.1652,25,0.8444,8070,3.9831,-21.3317
rg,1625260624737026716,1,0.0039,-0.4822,1.1582,122,-47.8516,-161.438,51.2085,168,1.0855,0,12.5612,-9.7883,25,0.8444,8082,3.9831,-18.3668
rg,1625260624737043714,1,0.5283,-0.4365,1.0723,123,-49.7437,-177.1851,52.9175,168,1.0845,0,4.6717,-11.6964,25,0.8394,8141,3.9831,-15.008
rg,1625260624737060563,1,1.0347,-0.2935,0.9705,124,-75.3174,-120.1172,38.208,168,1.0805,0,-1.3757,-14.7614,24,0.8264,9267,3.9831,-12.3871
rg,1625260624737077784,1,0.6353,-0.1782,0.97,125,-102.9053,-40.1611,7.2021,168,1.0785,0,-4.004,-18.7508,24,0.8164,8253,3.9831,-11.6097
rg,1625260624737107846,1,0.9292,-0.394,0.4509,126,-88.1348,-19.6533,-0.2441,168,1.0825,-0.001,-6.5399,-19.3629,24,0.8224,8148,3.9831,-10.8526
rg,1625260624737125178,1,0.5586,-0.1787,0.9309,127,-36.8652,2.9907,-7.6904,168,1.0805,0,-7.4557,-20.4977,24,0.8204,8043,3.9831,-11.2108
rg,1625260624737149952,1,0.1267,-0.6062,0.8918,128,-13.2446,30.2124,-11.7188,168,1.0815,-0.001,-6.4754,-21.4522,24,0.8194,8208,3.9831,-12.019
rg,1625260625109026279,1,0.2212,-0.3474,0.8027,129,-26.062,40.5884,-6.1646,168,1.0825,0,-5.0558,-22.5525,24,0.8224,25102,3.9831,-12.8454
rg,1625260625109085052,1,0.01,-0.5083,0.8718,130,-39.978,41.0767,-15.2588,168,1.0825,0,-3.6203,-24.3525,24,0.8244,13027,3.9831,-14.0402
rg,1625260625109106906,1,-0.0588,-0.6528,0.9592,131,-37.5366,33.5693,-20.2637,168,1.0835,0,-2.5,-26.1625,24,0.8264,9905,3.9831,-15.3283
rg,1625260625109128018,1,-0.002,-0.7444,0.9941,132,-29.7852,27.2827,-18.9209,168,1.0835,0,-1.9943,-27.3535,24,0.8284,7654,3.9831,-16.327
rg,1625260625109146552,1,0.071,-0.8018,1.0303,133,-8.9111,15.8691,-19.5312,168,1.0825,0,-1.843,-28.083,24,0.8294,7755,3.9831,-17.3001
rg,1625260625109165716,1,0.2458,-0.8911,1.0918,134,23.5596,23.0103,-20.5078,168,1.0835,0,-1.7336,-27.5324,24,0.8344,8987,3.9831,-18.4445
rg,1625260625109183452,1,0.459,-0.8767,0.9661,135,71.4722,49.3164,-27.2827,168,1.0845,0,-1.1471,-25.1719,24,0.8394,7766,3.9831,-20.299
rg,1625260625109203266,1,0.4902,-0.7881,0.875,136,88.1958,69.2749,-34.5459,168,1.0865,0,0.9199,-22.0373,24,0.8424,7959,3.9831,-23.5907
rg,1625260625109220185,1,0.1528,-0.5269,0.7271,137,90.1489,121.9482,-55.603,168,1.0855,0,4.2689,-19.148,24,0.8424,7921,3.9831,-27.4121
rg,1625260625109265860,1,-0.4824,-0.2126,0.6143,138,71.2891,137.6953,-57.4341,168,1.0885,0,9.9833,-16.7832,24,0.8434,7762,3.9831,-31.2968
rg,1625260625109286138,1,-0.8311,-0.0049,0.5625,139,48.7061,124.2676,-48.2178,168,1.0855,0,15.8392,-15.207,24,0.8414,7824,3.9831,-34.514
rg,1625260625109304820,1,-1.1489,-0.3591,0.8601,140,-4.5776,25.0244,-19.8975,168,1.0885,0,17.8891,-15.8958,24,0.8434,7876,3.9831,-35.6561
rg,1625260625109323446,1,-0.8354,-0.2451,0.8442,141,-21.9727,-100.5249,9.2773,168,1.0905,0,15.1216,-16.3412,24,0.8474,12155,3.9831,-34.1209
rg,1625260625109357471,1,0.144,-0.5115,0.9939,142,-38.147,-171.6919,37.4146,168,1.0915,0,8.1632,-17.5823,24,0.8474,7891,3.9831,-30.7192
rg,1625260625109375169,1,0.9646,-0.3079,0.8774,143,-58.6548,-146.6064,31.9824,168,1.0905,0,1.2066,-19.7103,24,0.8404,7885,3.9831,-27.5973
rg,1625260625109502214,1,1.0305,-0.3389,0.9031,144,-76.4771,-98.5107,21.0571,168,1.0865,0,-3.829,-22.829,24,0.8264,8662,3.9831,-25.3376
rg,1625260625109522213,1,0.5244,-0.3086,1.4407,145,-95.52,-6.5308,3.0518,168,1.0865,0,-4.6323,-26.2502,24,0.8234,8053,3.9831,-25.1268
rg,1625260625109541600,1,0.7273,-0.2673,0.676,146,-9.2773,16.3574,2.9297,168,1.0885,0,-5.4653,-26.4676,24,0.8214,9043,3.9831,-25.3245
rg,1625260625109560078,1,0.1462,-0.5686,0.8682,147,-14.9536,78.4912,-3.8452,168,1.0885,0,-2.8465,-27.2091,24,0.8214,8612,3.9831,-26.8617
rg,1625260625109579316,1,0.0481,-0.3208,0.8091,148,-10.1929,70.9839,-6.958,168,1.0875,0,-0.4737,-27.3434,24,0.8194,7991,3.9831,-28.4256
rg,1625260625109596848,1,-0.0491,-0.3613,0.7957,149,-14.4653,56.5186,-4.9438,96,1.0895,0,1.5761,-27.8096,24,0.8204,8061,4.0304,-29.6517
rg,1625260625109622487,1,0.0732,-0.4197,0.8137,150,-25.5127,35.1562,-9.0332,96,1.0895,0,2.3938,-28.8332,24,0.8224,8091,4.0304,-30.6365
rg,1625260625109641651,1,0.1521,-0.4451,0.8359,151,-29.2969,30.7007,-14.3433,96,1.0875,0,2.7239,-30.012,24,0.8234,8277,4.0304,-31.7363
rg,1625260625109661261,1,0.1213,-0.5181,0.8518,152,-33.3252,39.4287,-24.8413,96,1.0895,0,3.1847,-31.4699,24,0.8244,8183,4.0304,-33.3978
rg,1625260625109678960,1,-0.0115,-0.6833,0.957,153,-32.3486,44.0674,-31.9214,96,1.0895,0,3.8831,-33.0377,24,0.8264,8176,4.0304,-35.4305
rg,1625260625109698013,1,-0.0652,-0.8777,1.0767,154,-15.4419,42.1143,-32.7759,96,1.0895,0,4.5092,-34.0373,24,0.8284,9822,4.0304,-37.4762
rg,1625260625109715433,1,0.0032,-1.0151,1.1836,155,3.9062,38.4521,-31.6162,96,1.0915,0,4.7647,-33.2434,24,0.8334,8257,4.0304,-39.3418
rg,1625260625109733447,1,0.1458,-0.9595,1.1042,156,63.4766,29.0527,-28.2593,96,1.0905,0,4.7313,-31.1405,24,0.8364,8502,4.0304,-40.9566
rg,1625260625109750960,1,0.5603,-0.7864,0.8848,157,107.3608,51.8799,-29.9072,96,1.0915,0,4.8171,-27.4028,24,0.8394,8296,4.0304,-43.0924
rg,1625260625109768214,1,0.28,-0.5222,0.729,158,110.5957,102.6001,-60.3638,96,1.0925,0,6.6085,-23.6963,24,0.8424,8280,4.0304,-47.1151
rg,1625260625109784614,1,-0.0232,-0.3938,0.6392,159,101.1963,122.8027,-65.0024,96,1.0925,0,9.9682,-20.5939,24,0.8434,8320,4.0304,-51.4602
rg,1625260625109803388,1,-0.6919,-0.2195,0.6252,160,70.1904,125.4272,-55.3589,96,1.0885,0,15.2669,-18.5951,24,0.8404,8360,4.0304,-55.2884
rg,1625260625443430700,1,-0.4204,-0.2817,0.9109,161,-13.9771,-133.3008,10.0098,96,1.0925,0,10.6958,-18.615,25,0.8474,25989,4.0304,-53.1337
rg,1625260625443480142,1,0.2854,-0.4819,1.0005,162,-37.3535,-162.2925,23.0103,96,1.0935,0,3.943,-19.9853,25,0.8434,11123,4.0304,-50.134
rg,1625260625443501365,1,0.8257,-0.3572,0.8687,163,-82.3364,-96.1914,17.9443,96,1.0895,0,-0.96,-23.2774,25,0.8274,13519,4.0304,-48.0065
rg,1625260625443521550,1,0.7397,-0.3247,1.0371,164,-99.4873,-62.6831,9.2773,96,1.0875,0,-4.3018,-27.1122,25,0.8234,7594,4.0304,-46.5634
rg,1625260625443580453,1,1.0859,-0.5986,0.4302,165,7.1411,-8.1177,6.5918,96,1.0905,0,-6.2522,-27.4435,25,0.8254,7703,4.0304,-46.1321
rg,1625260625443604292,1,0.7263,-0.0112,0.9062,166,-5.7983,37.3535,1.4038,96,1.0905,0,-4.8324,-27.7859,25,0.8254,7709,4.0304,-46.761
rg,1625260625443622807,1,-0.0061,-0.791,0.9844,167,-1.0376,68.4204,-8.8501,96,1.0915,-0.001,-2.3921,-28.1526,24,0.8244,7865,4.0304,-48.3276
rg,1625260625443642324,1,0.0303,-0.2615,0.7727,168,14.3433,47.9126,-6.2866,96,1.0915,0,-0.8087,-27.1701,24,0.8284,8539,4.0304,-49.4587
rg,1625260625443661395,1,0.0034,-0.4929,0.8843,169,0.8545,42.8467,-6.8359,96,1.0925,0,-0.0273,-27.4148,24,0.8274,8280,4.0304,-50.3511
rg,1625260625443679892,1,0.1199,-0.4727,0.8787,170,-5.3101,23.9258,-13.855,96,1.0885,0,0.2924,-27.6556,24,0.8274,7644,4.0304,-51.2857
rg,1625260625443698834,1,0.127,-0.5151,0.8809,171,-4.1504,24.0479,-24.4751,96,1.0895,-0.001,0.392,-27.9265,24,0.8294,8255,4.0304,-52.6011
rg,1625260625443717163,1,0.0244,-0.5901,0.9275,172,-2.9297,24.353,-31.6162,96,1.0935,0,0.5868,-28.2292,24,0.8334,7630,4.0304,-54.1769
rg,1625260625443735214,1,0.0061,-0.6296,0.9368,173,1.2817,19.9585,-33.6304,96,1.0925,0,0.6132,-28.4118,24,0.8334,7963,4.0304,-55.7421
rg,1625260625443753080,1,-0.0015,-0.7161,0.9814,174,15.3198,14.5264,-32.5317,96,1.0955,0,0.4855,-28.1111,24,0.8364,7753,4.0304,-57.1665
rg,1625260625443776066,1,0.0869,-0.7612,0.9512,175,27.5879,12.7563,-30.5176,96,1.0955,0,0.2856,-26.7582,24,0.8414,7818,4.0304,-58.5468
rg,1625260625443794432,1,0.248,-0.7317,0.9216,176,61.1572,20.752,-23.1323,96,1.0945,0,0.1498,-24.767,24,0.8424,7825,4.0304,-59.7525
rg,1625260625443811853,1,0.4238,-0.6741,0.8591,177,76.5381,54.8706,-30.6396,96,1.0945,0,0.8406,-22.2153,24,0.8454,7870,4.0304,-61.7737
rg,1625260625443828680,1,0.2952,-0.6096,0.8354,178,77.9419,75.7446,-44.6167,96,1.0935,0,3.3083,-19.7867,24,0.8464,7868,4.0304,-65.0111
rg,1625260625443845395,1,-0.1492,-0.3513,0.7058,179,68.4814,107.2998,-50.1099,96,1.0915,0,7.006,-17.6062,24,0.8444,7958,4.0304,-68.3082
rg,1625260625443878084,1,-0.6731,-0.1658,0.6956,180,37.7197,96.3745,-34.8511,96,1.0935,0,11.6072,-16.3769,24,0.8454,7915,4.0304,-70.7701
rg,1625260625443898528,1,-0.9011,-0.1406,0.7131,181,12.6343,64.209,-25.7568,96,1.0945,0,14.9591,-16.4751,24,0.8484,7966,4.0304,-72.5732
rg,1625260625443915707,1,-0.7361,-0.4392,0.9595,182,-18.6768,-42.6636,-5.127,96,1.0935,0,14.0463,-17.4104,24,0.8494,8005,4.0304,-72.3358
rg,1625260625443933091,1,-0.1189,-0.4143,0.9624,183,-39.4897,-106.0181,16.6016,96,1.0975,0,9.9393,-18.8011,24,0.8494,8006,4.0304,-70.3937
rg,1625260625443951476,1,0.1782,-0.4871,1.0042,184,-48.7061,-112.4878,24.5972,96,1.0975,0,5.317,-20.6869,24,0.8424,8043,4.0304,-67.9601
rg,1625260625443969008,1,0.4541,-0.4236,0.9429,185,-68.0542,-88.1348,22.3999,96,1.0875,0,1.2993,-23.3963,24,0.8274,8153,4.0304,-65.788
rg,1625260625443986669,1,0.4268,-0.5181,1.7852,186,-72.998,-61.8286,13.9771,96,1.0925,0,-1.2606,-26.0229,24,0.8264,8095,4.0304,-64.2257
rg,1625260625444004090,1,1.0159,-0.8022,0.717,187,3.3569,-52.2461,19.043,96,1.0935,0,-4.3739,-25.6629,24,0.8264,8156,4.0304,-62.6398
rg,1625260625444021417,1,0.3506,-0.4683,0.8374,188,21.0571,39.4287,-13.2446,96,1.0925,0,-3.7923,-24.8666,24,0.8254,11577,4.0304,-63.7922
rg,1625260625444039005,1,0.0957,-0.1355,0.8132,189,25.5737,44.3115,-17.5171,96,1.0925,0,-2.5807,-23.1657,24,0.8254,8180,4.0304,-65.1996
rg,1625260625444127442,1,-0.043,-0.4238,0.9219,190,2.7466,36.1938,-6.1035,96,1.0915,0,-1.152,-23.0846,24,0.8264,8208,4.0304,-65.9918
rg,1625260625444145846,1,0.2725,-0.3342,0.8484,191,-2.9907,15.1367,-9.2163,96,1.0915,0,-1.347,-23.1254,24,0.8274,8330,4.0304,-66.5711
rg,1625260625444171708,1,0.1721,-0.4185,0.8728,192,-13.5498,31.8604,-17.8833,96,1.0915,0,-0.8105,-23.7348,24,0.8294,8252,4.0304,-67.7319
rg,1625260625796245893,1,-0.0396,-0.814,1.085,193,-4.4556,23.7427,-33.4473,96,1.0915,0,-0.3917,-24.4586,24,0.8344,25784,4.0304,-69.3339
rg,1625260625796286968,1,0.0796,-0.7129,0.9854,194,44.0674,6.897,-31.3721,96,1.0915,0,-0.7792,-23.1305,24,0.8384,12940,4.0304,-70.5916
rg,1625260625796397223,1,0.1824,-0.6331,0.8853,195,81.1157,10.9253,-30.0903,96,1.0925,0,-1.1655,-20.351,24,0.8414,7791,4.0304,-71.8736
rg,1625260625796426127,1,0.3811,-0.7,0.8508,196,91.2476,22.3389,-28.6865,96,1.0935,0,-1.0401,-17.074,24,0.8444,7746,4.0304,-73.3887
rg,1625260625796446849,1,0.3826,-0.6548,0.8335,197,103.0273,41.3818,-42.2363,96,1.0925,0,-0.6321,-13.7004,24,0.8474,7728,4.0304,-75.4654
rg,1625260625796513897,1,-0.1138,-0.1938,0.6406,198,93.5059,88.623,-52.2461,96,1.0915,0,2.7941,-10.1444,24,0.8464,7689,4.0304,-78.2277
rg,1625260625796535269,1,-0.6213,-0.0752,0.6423,199,47.5464,84.6558,-34.3018,96,1.0905,0,7.3907,-8.3147,24,0.8464,9442,4.0304,-80.1025
rg,1625260625796559089,1,-0.7703,-0.1538,0.7566,200,20.1416,53.2837,-27.4658,96,1.0905,0,10.5023,-8.1773,24,0.8484,7951,4.0304,-81.5691
rg,1625260625796578328,1,-0.4924,-0.3347,0.8945,201,-8.0566,-40.2832,-4.6387,96,1.0935,0,9.547,-8.9249,24,0.8484,7784,4.0304,-81.5956
rg,1625260625796597381,1,0.0005,-0.3064,0.9414,202,-31.0059,-72.2046,12.6953,96,1.0945,0,6.4207,-10.3814,24,0.8514,7813,4.0304,-80.6554
rg,1625260625796626285,1,0.2358,-0.4233,0.9858,203,-39.7949,-72.3877,18.1885,96,1.0945,0,3.0089,-12.3528,24,0.8514,7791,4.0304,-79.4094
rg,1625260625796650830,1,0.488,-0.2283,0.8816,204,-59.2041,-43.7622,21.1792,96,1.0975,0,0.3378,-14.7487,24,0.8474,7863,4.0304,-78.1546
rg,1625260625796670068,1,0.3193,-0.3916,0.9382,205,-78.7964,-19.2261,16.2354,96,1.0955,0,-0.1962,-18.7516,24,0.8414,7857,4.0304,-77.6758
rg,1625260625796690067,1,0.1948,-0.4146,0.9392,206,-101.7456,11.6577,10.5591,96,1.0915,0,-0.0268,-22.999,24,0.8294,7944,4.0304,-77.4325
rg,1625260625796710178,1,0.345,-0.9468,1.5354,207,-78.4912,9.8877,9.2773,96,1.0945,0,0.0611,-26.4578,24,0.8324,7908,4.0304,-77.2492
rg,1625260625796729323,1,0.7241,-0.6367,0.8596,208,-12.085,0.2441,10.0098,96,1.0955,0,0.2744,-27.1432,25,0.8324,7952,4.0304,-77.8946
rg,1625260625796748488,1,0.2361,-0.7075,1.0269,209,1.1597,64.3921,-6.4087,96,1.0955,0,2.042,-27.1702,25,0.8334,8289,4.0304,-79.3024
rg,1625260625796767170,1,-0.2227,-0.4307,0.8354,210,15.686,58.8379,-21.0571,96,1.0935,0,4.3419,-26.902,25,0.8334,8158,4.0304,-81.0997
rg,1625260625796786223,1,-0.2517,-0.4492,0.8967,211,3.1738,37.7197,-20.6299,96,1.0945,0,5.6917,-26.8818,25,0.8344,8027,4.0304,-82.5229
rg,1625260625796805962,1,0.0562,-0.3804,0.8337,212,3.2349,-7.5684,-26.1841,96,1.0935,0,4.5865,-26.7242,24,0.8354,8003,4.0304,-83.3143
rg,1625260625796859225,1,0.0525,-0.4202,0.8582,213,-4.2725,-3.2349,-36.9873,96,1.0945,0,3.4978,-26.9516,24,0.8374,8057,4.0304,-84.5751
rg,1625260625796886218,1,-0.0232,-0.49,0.8994,214,-6.2866,-5.188,-40.9546,96,1.0945,0,2.4824,-27.408,24,0.8384,8139,4.0304,-85.946
rg,1625260625796904585,1,0.0393,-0.6575,1.0315,215,-1.5259,-20.2026,-41.5039,96,1.0945,0,0.8303,-27.6953,24,0.8414,8076,4.0304,-87.0504
rg,1625260625796923953,1,0.1748,-0.7261,1.0398,216,20.9351,-20.4468,-39.1846,96,1.0955,0,-0.9557,-27.1349,24,0.8404,8940,4.0304,-88.069
rg,1625260625796942802,1,0.2505,-0.7063,1.0369,217,48.7671,-5.3101,-37.0483,96,1.0975,0,-2.2077,-25.4249,24,0.8454,8190,4.0304,-89.3049
rg,1625260625796963284,1,0.3367,-0.6331,0.9475,218,67.3218,3.479,-33.4473,96,1.0965,0,-3.188,-22.9888,24,0.8474,8193,4.0304,-90.5834
rg,1625260625796983543,1,0.5288,-0.6477,0.9211,219,88.2568,40.4663,-28.0151,96,1.0985,0,-2.9453,-19.8076,24,0.8494,8190,4.0304,-92.2213
rg,1625260625797001816,1,0.2854,-0.4138,0.7671,220,88.9282,80.2002,-50.2319,96,1.0975,0,-1.1295,-16.474,24,0.8514,8219,4.0304,-95.1336
rg,1625260625797019979,1,-0.1047,-0.1296,0.6306,221,82.4585,104.6753,-46.875,96,1.0975,0,2.8317,-13.0365,24,0.8504,8183,4.0304,-98.004
rg,1625260625797038642,1,-0.8083,0.0996,0.6843,222,29.1138,93.2617,-21.4844,96,1.0925,0,7.9305,-11.4872,24,0.8534,8266,4.0304,-99.5931
rg,1625260625797056545,1,-0.9221,-0.4309,0.9924,223,-27.4658,-14.2212,-0.3662,96,1.0985,0,8.595,-12.9286,24,0.8564,8310,4.0304,-99.5506
rg,1625260625797074615,1,-0.5801,-0.3833,1.01,224,-30.6396,-75.0122,15.0757,96,1.1005,0,4.0943,-14.3963,24,0.8584,8278,4.0304,-97.379
rg,1625260626147576554,1,0.6838,-0.3728,0.9688,225,-71.5942,-29.541,23.8037,96,1.0965,0,1.8458,-17.4002,24,0.8414,25223,4.0304,-96.1182
rg,1625260626147612704,1,0.9033,-0.3757,0.7642,226,-42.4805,8.8501,18.7988,96,1.0985,0,0.9078,-17.4712,24,0.8434,12978,4.0304,-95.7062
rg,1625260626147633218,1,0.0579,-0.6658,0.9543,227,6.5308,99.3652,2.8076,96,1.0985,0,4.5659,-17.9378,24,0.8434,11516,4.0304,-96.8229
rg,1625260626147676694,1,0.0376,-0.4265,0.8533,228,16.6626,74.8291,0.9766,96,1.0975,0,6.767,-17.4059,24,0.8434,7614,4.0304,-97.682
rg,1625260626147697226,1,-0.0815,-0.4175,0.8838,229,9.3994,64.3921,-0.9155,96,1.0975,0,9.1256,-17.4516,24,0.8434,7574,4.0304,-98.5353
rg,1625260626147716924,1,0.0308,-0.449,0.8611,230,4.3945,39.7339,-3.9062,96,1.0975,0,10.1605,-17.781,24,0.8444,7585,4.0304,-99.2387
rg,1625260626147735046,1,0.1223,-0.478,0.8953,231,2.7466,31.7993,-8.728,96,1.0975,0,10.5255,-18.2145,24,0.8454,7816,4.0304,-100.0481
rg,1625260626147753649,1,0.0889,-0.4138,0.8286,232,2.4414,37.9639,-22.522,96,1.0965,0,11.051,-18.6994,24,0.8474,8238,4.0304,-101.4673
rg,1625260626147771084,1,-0.114,-0.5178,0.9065,233,-3.6621,38.0249,-34.6069,96,1.0965,0,11.5643,-19.679,24,0.8484,8004,4.0304,-103.3588
rg,1625260626147789168,1,-0.1316,-0.6023,0.9741,234,-3.0518,24.0479,-37.4146,96,1.0965,0,11.7563,-20.634,24,0.8504,7705,4.0304,-105.2271
rg,1625260626147811166,1,-0.0864,-0.6626,1.0286,235,12.4512,10.498,-34.3018,96,1.0965,-0.001,11.3637,-20.911,24,0.8524,7698,4.0304,-106.7871
rg,1625260626147829621,1,-0.0017,-0.6685,1.0342,236,23.0103,6.0425,-32.4707,96,1.0965,0,10.6908,-20.7205,24,0.8544,7663,4.0304,-108.2067
rg,1625260626147847260,1,0.1672,-0.7068,1.0691,237,49.8047,9.9487,-31.6162,96,1.0985,0,9.9325,-19.4761,24,0.8574,9235,4.0304,-109.6547
rg,1625260626147864083,1,0.3589,-0.7056,0.9895,238,78.4302,35.7666,-29.3579,96,1.0975,0,9.9232,-17.2311,24,0.8584,9342,4.0304,-111.3705
rg,1625260626147881277,1,0.2004,-0.5032,0.8564,239,89.1113,68.6646,-52.063,96,1.0985,0,11.1659,-14.7078,24,0.8594,7841,4.0304,-114.2845
rg,1625260626147898230,1,-0.0715,-0.2949,0.7537,240,85.7544,86.6699,-53.9551,96,1.0965,0,14.6788,-11.8457,24,0.8574,7862,4.0304,-117.2181
rg,1625260626147914867,1,-0.6057,-0.0115,0.6807,241,51.9409,84.1675,-37.3535,96,1.0965,0,18.7172,-10.066,24,0.8554,7890,4.0304,-119.3146
rg,1625260626147942856,1,-0.8833,-0.2305,0.8567,242,-4.9438,7.0801,-16.9678,96,1.0965,0,19.8683,-10.662,24,0.8574,7869,4.0304,-120.1284
rg,1625260626147960810,1,-0.7458,-0.312,0.9526,243,-17.5781,-46.0815,-3.2349,96,1.0975,0,18.6952,-11.5323,24,0.8594,7935,4.0304,-119.9756
rg,1625260626147978171,1,-0.1616,-0.2961,1.0049,244,-40.3442,-110.5347,20.9961,96,1.1005,0,14.1757,-12.8176,24,0.8594,7955,4.0304,-118.2046
rg,1625260626147995625,1,0.4773,-0.4705,1.0376,245,-47.6685,-124.0234,30.7617,96,1.0995,0,8.3186,-14.6654,24,0.8594,7994,4.0304,-115.8678
rg,1625260626148012763,1,0.6741,-0.2756,0.9421,246,-54.0771,-104.7363,32.3486,96,1.0985,0,3.1053,-16.6121,24,0.8514,8895,4.0304,-113.4596
rg,1625260626148029178,1,0.6208,-0.3784,0.9521,247,-79.9561,-44.6777,20.9351,96,1.0925,0,0.4009,-19.9239,24,0.8384,9702,4.0304,-112.0763
rg,1625260626148047448,1,0.427,-0.5015,1.637,248,-80.6885,-11.2915,14.6484,96,1.0925,0,-0.3671,-23.0243,24,0.8374,7977,4.0304,-111.3503
rg,1625260626148063807,1,0.8032,-0.3347,0.9656,249,-14.2822,19.043,4.9438,96,1.0935,0,-0.9807,-23.4664,25,0.8384,8071,4.0304,-111.4675
rg,1625260626148081168,1,0.3245,-0.6914,1.1191,250,-19.5312,74.1577,-1.8921,96,1.0925,0,1.1818,-24.557,25,0.8384,8050,4.0304,-112.7375
rg,1625260626148170160,1,-0.0059,-0.325,0.8799,251,4.2114,64.9414,-3.479,96,1.0925,0,3.4472,-24.2615,25,0.8384,8293,4.0304,-113.9381
rg,1625260626148229310,1,-0.009,-0.4185,0.8562,252,-2.3193,51.7578,-2.1973,96,1.0935,0,5.1733,-24.4889,25,0.8404,8163,4.0304,-114.8816
rg,1625260626148269188,1,0.0154,-0.4631,0.8845,253,-7.019,43.7012,-4.5166,96,1.0945,0,5.8419,-25.028,24,0.8424,8136,4.0304,-115.8928
rg,1625260626148294876,1,0.0698,-0.3933,0.8188,254,-10.1929,32.5928,-16.9678,96,1.0925,-0.001,6.3209,-25.5775,24,0.8414,8187,4.0304,-117.072
rg,1625260626148312886,1,-0.0608,-0.4856,0.8625,255,-17.8833,30.5176,-28.7476,96,1.0945,-0.001,6.7948,-26.6153,24,0.8454,8033,4.0304,-118.668
rg,1625260626148332065,1,-0.1587,-0.6426,0.981,256,-17.9443,25.0244,-33.0811,96,1.0945,-0.001,6.843,-27.7173,24,0.8474,8209,4.0304,-120.3064
rg,1625260626501915628,1,0.0649,-0.8467,1.1448,257,38.0249,-15.2588,-32.4707,96,1.0955,0,5.3386,-26.6354,24,0.8514,25295,4.0304,-121.2312
rg,1625260626501951629,1,0.5034,-0.7869,0.9963,258,99.8535,16.4795,-27.0996,96,1.0965,0,4.4543,-23.1871,24,0.8574,12877,4.0304,-122.5685
rg,1625260626501972458,1,0.4043,-0.5249,0.8159,259,115.4175,55.481,-59.2651,96,1.0955,0,4.6293,-19.1729,24,0.8574,7796,4.0304,-125.6537
rg,1625260626501991507,1,0.1699,-0.3005,0.7119,260,112.915,84.1675,-64.6973,96,1.0925,0,6.4059,-15.1491,24,0.8554,7800,4.0304,-129.17
rg,1625260626502009480,1,-0.302,-0.302,0.6611,261,81.9702,103.1494,-68.4814,96,1.0905,0,10.3645,-12.7596,24,0.8524,7713,4.0304,-132.8858
rg,1625260626502028213,1,-0.5488,-0.1628,0.6599,262,67.0776,93.9331,-61.2793,96,1.0895,0,14.4266,-10.8694,24,0.8504,7686,4.0304,-135.1556
rg,1625260626502046038,1,-0.8513,-0.0012,0.6541,263,22.522,39.3677,-28.8696,96,1.0895,0,17.1589,-10.1006,24,0.8494,7740,4.0304,-136.5554
rg,1625260626502065253,1,-0.5942,-0.3667,0.9622,264,-7.6904,-52.6123,-8.9722,96,1.0905,0,15.5405,-10.7792,24,0.8514,7881,4.0304,-136.6404
rg,1625260626502083486,1,0.0842,-0.3369,0.9834,265,-7.1411,-106.5063,9.9487,96,1.0935,0,10.6715,-11.1093,24,0.8544,7727,4.0304,-135.4931
rg,1625260626502101348,1,0.5352,-0.3928,1.03,266,-7.2021,-112.7319,12.6343,96,1.0945,0,4.6409,-11.4568,24,0.8574,7805,4.0304,-134.1437
rg,1625260626502118671,1,1.0117,-0.2778,0.9944,267,-8.4839,-49.2554,0.1831,90,1.0945,0,1.0076,-11.8901,24,0.8564,7828,4.037,-133.7404
rg,1625260626502136014,1,0.571,-0.4153,1.0627,268,-19.6533,61.3403,-19.8364,90,1.0945,0,2.1745,-13.0396,24,0.8584,7836,4.037,-135.0427
rg,1625260626502153208,1,0.1914,-0.4846,1.094,269,-20.874,89.4775,-25.0244,90,1.0935,0,4.9591,-14.4037,24,0.8564,7923,4.037,-136.8805
rg,1625260626502169734,1,-0.2654,-0.4072,1.0171,270,-15.9302,70.6787,-21.9727,90,1.0955,0,7.7946,-15.4981,24,0.8564,8009,4.037,-138.4982
rg,1625260626502210520,1,-0.3313,-0.2852,0.8933,271,-35.3394,22.2168,-4.8218,90,1.0935,0,9.0462,-17.0512,25,0.8554,7933,4.037,-138.9545
rg,1625260626502230534,1,-0.3149,-0.4038,0.9028,272,-54.4434,3.6621,3.7842,90,1.0875,0,9.5712,-19.4709,25,0.8464,7897,4.037,-138.9045
rg,1625260626502248247,1,-0.1157,-0.2791,0.7986,273,-80.6885,-36.377,19.2261,90,1.0825,0,8.4206,-22.4773,25,0.8354,7967,4.037,-137.6452
rg,1625260626502265904,1,0.7107,-0.47,0.6067,274,-13.0615,-61.0962,36.438,90,1.0855,0,4.9817,-23.1656,25,0.8414,7957,4.037,-135.3935
rg,1625260626502283339,1,0.6125,0.0459,0.7043,275,-18.2495,-64.9414,13.0615,90,1.0865,0,1.193,-23.0326,24,0.8404,8031,4.037,-133.8253
rg,1625260626502301164,1,0.0532,-1.0444,1.1897,276,-10.7422,-13.7329,1.77,90,1.0885,0,0.5987,-24.16,24,0.8384,7994,4.037,-133.5536
rg,1625260626502318432,1,0.439,-0.062,0.7458,277,21.1182,-54.6265,-16.9678,90,1.0895,0,-2.8333,-22.6673,24,0.8424,8061,4.037,-133.3152
rg,1625260626502335570,1,0.2976,-0.2793,0.8464,278,7.6294,-23.6206,-14.8315,90,1.0885,0,-4.5402,-22.1794,24,0.8414,8034,4.037,-133.5141
rg,1625260626502363745,1,0.1353,-0.3149,0.8738,279,-9.7046,-12.2681,-12.6343,90,1.0915,0,-5.3313,-22.4436,24,0.8434,8065,4.037,-133.8033
rg,1625260626502382181,1,0.2559,-0.333,0.8726,280,-21.9727,-13.0005,-12.3291,90,1.0905,0,-6.245,-23.6353,24,0.8454,13147,4.037,-134.1207
rg,1625260626502399097,1,0.2961,-0.5903,1.0671,281,-27.1606,2.3804,-15.3198,90,1.0915,0,-6.7012,-24.85,24,0.8474,8174,4.037,-134.6976
rg,1625260626502416068,1,0.1362,-0.728,1.1052,282,-10.9253,13.6719,-20.9351,90,1.0925,0,-6.5327,-25.5008,24,0.8494,8165,4.037,-135.6561
rg,1625260626502432298,1,0.0894,-0.6985,1.033,283,1.2207,13.5498,-19.7144,90,1.0925,0,-6.3722,-25.2473,24,0.8504,8214,4.037,-136.5417
rg,1625260626502538280,1,0.1157,-0.6631,1.0071,284,24.1699,7.9956,-19.9585,90,1.0945,0,-6.644,-23.9371,24,0.8524,8490,4.037,-137.47
rg,1625260626502559184,1,0.2258,-0.583,0.905,285,53.894,6.4697,-25.5127,90,1.0965,0,-7.1054,-21.939,24,0.8544,9619,4.037,-138.4912
rg,1625260626502576192,1,0.282,-0.5984,0.9216,286,65.7959,32.1655,-19.2871,90,1.0945,0,-6.4726,-19.5937,24,0.8544,8246,4.037,-139.6321
rg,1625260626502594146,1,0.4146,-0.5366,0.8174,287,83.6792,50.9644,-33.3862,90,1.0945,0,-5.6071,-16.5473,24,0.8584,8275,4.037,-141.5077
rg,1625260626502612713,1,0.0784,-0.2788,0.7063,288,82.5195,74.585,-42.1753,90,1.0925,0,-2.2472,-13.6469,24,0.8574,8320,4.037,-144.1924
rg,1625260626852953474,1,-0.3423,-0.3589,0.7061,289,42.2974,96.8628,-41.0767,90,1.0895,-0.001,2.1191,-12.4329,25,0.8544,25488,4.037,-146.6375
rg,1625260626853034491,1,-0.7722,0.0671,0.6201,290,-5.6763,61.7676,-5.5542,90,1.0905,0,6.1855,-12.2558,25,0.8604,13082,4.037,-147.365
rg,1625260626853056285,1,-0.8828,-0.3049,0.8879,291,-60.2417,-10.9253,21.6675,90,1.0915,0,7.3281,-14.7399,25,0.8644,9655,4.037,-146.4635
rg,1625260626853076187,1,-0.575,-0.4573,0.9751,292,-70.4346,-67.0776,33.5693,90,1.0925,0.001,3.3533,-17.9387,24,0.8654,9242,4.037,-143.7564
rg,1625260626853095736,1,0.3149,-0.3652,0.9373,293,-82.3364,-130.127,42.6025,90,1.0915,0,-1.7572,-21.2959,24,0.8614,7486,4.037,-140.3886
rg,1625260626853114414,1,0.8401,-0.4146,0.9512,294,-120.6665,-78.7354,29.1748,90,1.0905,0,-5.5211,-26.3216,24,0.8514,7703,4.037,-137.9844
rg,1625260626853132647,1,0.7388,-0.4668,0.9973,295,-136.0474,-37.1704,17.334,90,1.0885,0,-6.3108,-31.5359,24,0.8444,7679,4.037,-137.6685
rg,1625260626853151009,1,0.9194,-1.3955,1.3354,296,-55.0537,10.6201,5.7373,90,1.0905,0,-6.5798,-34.2461,24,0.8464,7839,4.037,-137.6336
rg,1625260626853168685,1,0.3394,-0.9263,1.5149,297,-28.9917,80.4443,-13.6108,90,1.0915,0,-4.4218,-35.0649,24,0.8474,7943,4.037,-139.9383
rg,1625260626853186584,1,-0.0999,-1.0476,1.0781,298,20.6909,91.9189,-12.8174,90,1.0925,0,-1.3854,-34.462,24,0.8464,7771,4.037,-142.4336
rg,1625260626853205188,1,0.0352,-0.1201,0.7375,299,41.3818,39.917,-11.3525,90,1.0935,0,-0.3592,-31.8195,24,0.8464,7871,4.037,-143.7136
rg,1625260626853224069,1,0.1091,-0.3232,0.8125,300,25.4517,22.3999,-10.8032,90,1.0925,0,-0.0855,-30.3974,24,0.8494,7771,4.037,-144.5538
rg,1625260626853241467,1,0.1592,-0.2822,0.7983,301,19.5312,16.6626,-13.5498,90,1.0915,0,-0.1944,-29.1863,24,0.8504,7835,4.037,-145.3615
rg,1625260626853260164,1,0.1909,-0.2622,0.7793,302,0.5493,19.2261,-20.752,90,1.0925,0,-0.4315,-28.7453,24,0.8524,14181,4.037,-146.4648
rg,1625260626853277821,1,0.0957,-0.3804,0.8696,303,-8.4229,21.1792,-23.1934,90,1.0925,0,-0.3987,-29.1109,24,0.8544,7758,4.037,-147.8076
rg,1625260626853295367,1,0.0796,-0.4531,0.9119,304,-18.1885,23.4375,-27.4658,90,1.0925,0,-0.2858,-29.7143,24,0.8554,7949,4.037,-149.2256
rg,1625260626853312654,1,0.0161,-0.6011,1.0181,305,-17.4561,32.1655,-25.9399,90,1.0935,0,0.2835,-30.4363,24,0.8574,7842,4.037,-150.769
rg,1625260626853386438,1,0.0005,-0.6809,1.051,306,-11.6577,32.8979,-24.5972,90,1.0935,0,0.8572,-30.6702,24,0.8594,8000,4.037,-152.2547
rg,1625260626853406228,1,0.0627,-0.8525,1.1765,307,12.3291,31.6772,-23.9258,90,1.0925,0,1.3259,-30.4064,24,0.8594,8351,4.037,-153.7276
rg,1625260626853423997,1,0.1157,-0.8345,1.1489,308,54.2603,41.687,-25.8789,90,1.0955,0,2.0261,-28.5056,25,0.8614,8511,4.037,-155.4602
rg,1625260626853440746,1,0.2468,-0.7764,0.9912,309,102.5391,52.063,-28.1372,90,1.0955,0,2.8604,-24.8641,25,0.8664,8012,4.037,-157.4338
rg,1625260626853457699,1,0.2832,-0.6584,0.8967,310,117.0044,62.3779,-34.5459,90,1.0945,0,3.9489,-20.7653,25,0.8654,8028,4.037,-159.726
rg,1625260626853480438,1,-0.103,-0.3652,0.7549,311,117.0044,92.7734,-58.2886,90,1.0935,0,6.8218,-16.6157,25,0.8654,8038,4.037,-163.1461
rg,1625260626853512823,1,-0.4099,-0.3374,0.7566,312,93.8721,85.4492,-58.6548,90,1.0935,0,10.2536,-13.6062,24,0.8634,8032,4.037,-166.3469
rg,1625260626853532150,1,-0.479,-0.3843,0.8096,313,84.4727,68.7866,-57.9224,90,1.0905,0,13.1326,-11.2404,24,0.8584,8088,4.037,-169.3204
rg,1625260626853550048,1,-0.5408,-0.1826,0.7571,314,70.9229,26.8555,-46.4478,90,1.0915,0,14.6929,-8.9843,24,0.8544,8110,4.037,-171.3985
rg,1625260626853568058,1,-0.677,-0.0125,0.6731,315,17.7612,-8.1177,-13.0005,90,1.0915,0,15.4447,-8.1691,24,0.8564,8141,4.037,-171.8127
rg,1625260626853586106,1,-0.7937,-0.1553,0.8674,316,-14.6484,-31.25,1.2207,90,1.0915,0,15.23,-8.7491,24,0.8594,8201,4.037,-171.5918
rg,1625260626853603967,1,-0.812,-0.1648,0.8606,317,-51.9409,-108.7646,37.8418,90,1.0935,0,12.2535,-10.3418,24,0.8624,8181,4.037,-169.3415
rg,1625260626853621680,1,0.1436,-0.2615,0.8938,318,-74.0967,-207.0923,56.3965,90,1.0915,0,3.83,-12.978,24,0.8624,8169,4.037,-165.4589
rg,1625260626853638986,1,0.6672,-0.144,0.8855,319,-89.5996,-210.3882,58.6548,90,1.0925,0,-5.4228,-16.5906,24,0.8584,8176,4.037,-160.9991
rg,1625260626853656940,1,1.2207,-0.3916,1.0173,320,-126.9531,-124.5728,44.1895,90,1.0865,0,-11.0432,-22.2536,24,0.8464,8229,4.037,-157.5575
rg,1625260627202274772,1,0.4797,-0.834,1.314,321,-5.127,104.6143,-9.1553,90,1.0895,0,-7.5728,-22.5203,24,0.8404,25706,4.037,-159.4456
rg,1625260627202356885,1,-0.0813,-0.1768,0.7422,322,33.7524,104.3091,-13.9771,90,1.0885,0,-3.0555,-20.6851,25,0.8394,12714,4.037,-161.5379
rg,1625260627202381049,1,-0.1406,-0.2373,0.7422,323,15.686,61.5234,-15.564,90,1.0885,0,-0.4513,-19.8956,25,0.8394,7800,4.037,-162.9801
rg,1625260627202400687,1,-0.0339,-0.1907,0.7102,324,-0.7935,23.6206,-22.522,90,1.0875,0,0.2514,-19.7278,25,0.8404,9082,4.037,-164.1497
rg,1625260627202420399,1,0.0061,-0.377,0.8401,325,-15.625,6.7139,-28.1372,90,1.0875,0,0.0904,-20.5247,25,0.8414,7687,4.037,-165.2993
rg,1625260627202439685,1,0.0415,-0.4688,0.9077,326,-18.1274,0.3662,-27.1606,90,1.0865,0,-0.3811,-21.5073,24,0.8434,7692,4.037,-166.3179
rg,1625260627202458174,1,0.0981,-0.667,1.0605,327,-10.0098,4.2114,-26.6724,90,1.0845,0,-0.7854,-22.3081,24,0.8444,7869,4.037,-167.3665
rg,1625260627202477497,1,0.1179,-0.7932,1.1353,328,0.9155,7.6904,-24.9634,90,1.0835,0,-0.8929,-22.1396,24,0.8464,7827,4.037,-168.5332
rg,1625260627202495133,1,0.1348,-0.7505,1.1208,329,33.6914,16.9678,-25.0244,90,1.0835,0,-0.8252,-21.2291,24,0.8504,7778,4.037,-169.7092
rg,1625260627202513732,1,0.2825,-0.7026,1.1006,330,70.6177,26.6113,-27.2827,90,1.0855,0,-0.6503,-18.8254,24,0.8554,10053,4.037,-171.1033
rg,1625260627202531201,1,0.4939,-0.7363,0.946,331,104.6753,61.4624,-33.6304,90,1.0905,0,0.4555,-15.3296,24,0.8614,7849,4.037,-173.1308
rg,1625260627202554048,1,0.3628,-0.6084,0.8914,332,112.5488,85.5713,-48.7061,90,1.0925,0,3.7204,-11.2926,24,0.8654,7804,4.037,-176.397
rg,1625260627202572184,1,-0.0811,-0.2749,0.6858,333,107.8491,121.2158,-62.439,90,1.0905,0,8.1704,-7.7457,24,0.8644,7879,4.037,-179.7007
rg,1625260627202590246,1,-0.5801,-0.1318,0.6394,334,73.4253,119.812,-56.0303,90,1.0915,0,13.8982,-5.4717,24,0.8654,7970,4.037,-182.5188
rg,1625260627202607696,1,-0.895,0.0498,0.6404,335,52.1851,104.9194,-41.1377,90,1.0915,0,19.6359,-3.4462,24,0.8664,7964,4.037,-184.4109
rg,1625260627202625925,1,-1.3093,-0.031,0.7275,336,-15.3198,8.3618,-3.9673,90,1.0885,0,21.4487,-4.1063,24,0.8674,7941,4.037,-184.6054
rg,1625260627202643264,1,-0.8521,-0.2451,0.9526,337,-39.6729,-135.8643,33.1421,90,1.0955,0,16.9236,-5.3976,24,0.8724,7990,4.037,-182.8577
rg,1625260627202663718,1,-0.2363,-0.2964,0.9573,338,-44.8608,-197.6929,44.6167,90,1.0965,0,9.1609,-7.0374,24,0.8744,7974,4.037,-180.2948
rg,1625260627202683616,1,0.9915,-0.3059,0.9705,339,-52.4292,-212.8906,42.9688,90,1.0955,0,-0.7902,-9.2071,24,0.8724,8010,4.037,-177.4042
rg,1625260627202702921,1,1.3071,-0.135,0.918,340,-77.2705,-88.1958,19.9585,90,1.0935,0,-5.9175,-12.3515,24,0.8664,9607,4.037,-175.9083
rg,1625260627202761706,1,0.6682,-0.4265,1.0542,341,-99.0601,30.8228,-5.9814,90,1.0955,0,-5.7277,-16.5746,24,0.8634,8129,4.037,-176.3829
rg,1625260627202786481,1,0.3516,-0.5356,1.0984,342,-94.6655,53.5889,-12.8174,90,1.0945,0,-3.8379,-20.2522,24,0.8564,8142,4.037,-177.7045
rg,1625260627202804691,1,0.1013,-0.5728,1.0378,343,-70.5566,51.3916,-18.0664,90,1.0925,0,-2.2469,-23.3232,24,0.8504,8150,4.037,-179.1182
rg,1625260627202825220,1,0.1277,-0.5378,0.9692,344,-55.6641,43.8843,-16.0522,90,1.0925,0,-1.0937,-25.7225,24,0.8464,8187,4.037,-180.421
rg,1625260627202857079,1,0.1118,-0.6311,1.175,345,-51.2085,41.8701,-17.0288,90,1.0905,0,0.076,-27.6824,24,0.8464,8115,4.037,-181.7233
rg,1625260627202879109,1,0.2905,-0.7205,0.9014,346,-19.165,42.2974,-11.2915,90,1.0905,0,0.7894,-28.8669,24,0.8464,8202,4.037,-182.9201
rg,1625260627202896578,1,-0.062,-0.5857,0.9253,347,-21.7896,66.9556,-9.9487,90,1.0925,0,3.0141,-29.9207,24,0.8454,8146,4.037,-184.5878
rg,1625260627202914213,1,-0.1294,-0.5889,0.8657,348,-15.1367,60.9741,-8.728,90,1.0925,0,4.3427,-30.334,24,0.8474,8157,4.037,-185.5961
rg,1625260627202931330,1,-0.0632,-0.4995,0.8274,349,0.7324,23.6816,-7.6904,90,1.0905,0,4.9763,-30.3888,24,0.8464,8271,4.037,-186.3457
rg,1625260627202950504,1,0.0166,-0.4612,0.8259,350,9.3384,4.0283,-16.1133,90,1.0935,0,4.5533,-30.0138,24,0.8474,8238,4.037,-186.982
rg,1625260627202969735,1,-0.0242,-0.4102,0.7947,351,13.1226,-9.5825,-25.7568,90,1.0925,0,3.5914,-29.4252,24,0.8484,8249,4.037,-187.6786
rg,1625260627202986777,1,-0.0278,-0.4509,0.8484,352,10.9253,-16.9678,-30.0293,90,1.0925,0,2.3386,-28.9623,24,0.8514,8284,4.037,-188.3915
rg,1625260627556110057,1,0.1255,-0.7524,1.1768,353,43.5791,-36.0718,-33.3252,90,1.0905,0,0.1481,-27.3711,25,0.8594,25706,4.037,171.1073
rg,1625260627556142583,1,0.3601,-0.7544,1.217,354,84.2896,-31.25,-32.2266,90,1.0935,-0.001,-2.1852,-23.1856,25,0.8654,12748,4.037,170.4306
rg,1625260627556163019,1,0.8923,-0.6218,0.9536,355,126.709,-4.2114,-30.8228,90,1.0955,0,-3.1171,-18.0943,25,0.8664,7920,4.037,168.0987
rg,1625260627556187368,1,0.6221,-0.2429,0.7751,356,119.9341,83.4351,-62.8662,90,1.0945,0,-1.8692,-13.1427,25,0.8664,7615,4.037,164.7187
rg,1625260627556206153,1,-0.0608,-0.2529,0.7622,357,80.1392,152.0996,-73.1812,90,1.0925,0,3.7135,-10.2163,25,0.8654,7986,4.037,160.6374
rg,1625260627556240979,1,-0.5759,-0.3552,0.7683,358,65.7349,153.3203,-69.458,90,1.0905,0,9.6921,-8.7263,25,0.8614,9349,4.037,157.2043
rg,1625260627556259375,1,-0.6946,-0.2383,0.7502,359,52.6733,101.0742,-52.8564,90,1.0905,0,14.5735,-7.4628,25,0.8584,7701,4.037,154.4509
rg,1625260627556276232,1,-0.4619,-0.3584,0.885,360,35.0342,20.5688,-33.9355,90,1.0905,0,15.6715,-6.9885,24,0.8544,7876,4.037,152.8155
rg,1625260627556293311,1,-0.1831,-0.3748,0.8975,361,34.0576,-9.0942,-27.5269,90,1.0905,0,13.998,-6.4424,24,0.8544,7773,4.037,151.7624
rg,1625260627556310705,1,0.1907,-0.2527,0.8381,362,24.5361,-16.2354,-24.231,90,1.0885,0,12.2505,-6.0799,24,0.8504,7690,4.037,150.7431
rg,1625260627556327933,1,0.2261,-0.386,0.9771,363,4.2114,14.7095,-25.5737,90,1.0895,0,11.7953,-6.7452,24,0.8504,7761,4.037,149.5121
rg,1625260627556345550,1,0.123,-0.4421,1.0103,364,1.9531,27.0996,-29.48,90,1.0885,0,12.0285,-7.6095,24,0.8494,7747,4.037,148.0446
rg,1625260627556362759,1,-0.0703,-0.353,0.9912,365,1.5869,25.8789,-23.6816,90,1.0925,0,12.6022,-8.2614,24,0.8514,7863,4.037,146.8383
rg,1625260627556380283,1,-0.2322,-0.2285,0.9082,366,-4.1504,17.7612,-19.9585,90,1.0925,0,13.0009,-9.2687,24,0.8534,7810,4.037,146.2356
rg,1625260627556397474,1,-0.3318,-0.2332,0.8884,367,-32.0435,3.479,0.7935,90,1.0905,0,13.4115,-10.75,24,0.8494,7812,4.037,146.1927
rg,1625260627556414460,1,-0.3633,-0.2434,0.844,368,-57.6172,-33.0811,29.6021,90,1.0885,0,12.7186,-12.9134,24,0.8444,7828,4.037,147.6087
rg,1625260627556431150,1,-0.1582,-0.1841,0.8069,369,-70.0073,-65.7959,39.3066,90,1.0855,0,8.8055,-15.5753,24,0.8334,7896,4.037,150.2459
rg,1625260627556447673,1,0.3208,0.0063,0.7517,370,-104.187,-98.5107,39.4287,90,1.0755,0,4.3425,-18.833,24,0.8124,7906,4.037,153.0584
rg,1625260627556464641,1,0.3376,0.0974,1.9058,371,-134.6436,-89.6606,16.1743,90,1.0795,0,0.6965,-23.2832,24,0.8144,7936,4.037,155.0382
rg,1625260627556481349,1,0.8352,-0.2278,0.8792,372,-46.2036,-83.4351,-7.019,90,1.0805,0,-4.0032,-24.8997,25,0.8154,12660,4.037,156.1711
rg,1625260627556497816,1,0.4065,-1.0137,1.197,373,-11.4746,-23.9258,-11.8408,90,1.0805,0,-5.485,-25.9331,25,0.8164,7965,4.037,156.1994
rg,1625260627556514414,1,0.6731,-0.2505,0.8044,374,21.6675,-48.2178,-16.1133,90,1.0805,0,-7.3188,-24.9245,25,0.8174,8060,4.037,155.8166
rg,1625260627556547738,1,0.3433,-0.4109,0.8911,375,0.3052,31.7993,-7.9346,90,1.0805,0,-6.7711,-24.7977,25,0.8174,8086,4.037,154.9833
rg,1625260627556575628,1,0.1445,-0.2881,0.8254,376,1.1597,27.1606,-8.3008,90,1.0805,0,-6.0288,-24.4421,24,0.8194,7990,4.037,154.1956
rg,1625260627556592596,1,0.3201,-0.3765,0.8499,377,-4.2725,15.0757,-7.0801,90,1.0805,0,-6.1066,-24.5316,24,0.8204,10152,4.037,153.6813
rg,1625260627556609731,1,0.175,-0.4797,0.9353,378,-5.8594,21.4844,-16.7847,90,1.0825,0,-5.7398,-24.7614,24,0.8254,10017,4.037,152.7173
rg,1625260627556626458,1,0.1294,-0.6624,1.021,379,-1.4648,18.5547,-20.1416,90,1.0825,-0.001,-5.4431,-24.7933,24,0.8284,8101,4.037,151.8202
rg,1625260627556643630,1,0.1575,-0.7368,1.0649,380,15.564,16.5405,-14.2212,90,1.0805,0,-5.142,-24.4807,24,0.8274,7994,4.037,151.0597
rg,1625260627556660264,1,0.2275,-0.7148,1.0276,381,47.2412,16.6016,-11.6577,90,1.0845,-0.001,-4.93,-22.9313,24,0.8324,8169,4.037,150.3952
rg,1625260627556677510,1,0.2803,-0.5815,0.8735,382,65.3076,23.1934,-12.5122,90,1.0845,-0.001,-4.3884,-19.9192,24,0.8344,8051,4.037,149.5389
rg,1625260627556694404,1,0.332,-0.4807,0.7725,383,93.5669,40.3442,-5.3711,90,1.0855,0,-3.5437,-16.5767,24,0.8384,8000,4.037,148.8416
rg,1625260627556711279,1,0.4453,-0.5933,0.832,384,95.2148,74.3408,-10.6812,90,1.0885,-0.001,-1.576,-13.3984,24,0.8424,8225,4.037,147.6761
rg,1625260627897340598,1,-0.2634,-0.3018,0.7078,385,74.4629,127.3193,-44.0674,90,1.0875,0,4.0625,-11.001,24,0.8504,25257,4.037,144.915
rg,1625260627897433041,1,-0.5857,-0.2913,0.6841,386,56.3354,97.9004,-37.7808,81,1.0875,0,8.6589,-8.9388,25,0.8554,9889,4.0414,143.6171
rg,1625260627897500189,1,-1.1379,-0.1611,0.7639,387,-36.1328,14.5874,9.3384,81,1.0905,0.001,10.9477,-10.4019,25,0.8604,10252,4.0414,143.8601
rg,1625260627897530286,1,-0.7729,-0.209,0.8743,388,-62.8052,-103.4546,51.3916,81,1.0915,0,8.4379,-12.5144,25,0.8624,7580,4.0414,146.7011
rg,1625260627897560755,1,-0.3071,-0.2598,0.8611,389,-75.0122,-164.4897,54.8706,81,1.0915,0,3.0155,-15.2907,25,0.8594,7681,4.0414,150.3961
rg,1625260627897588793,1,0.6116,-0.2461,0.895,390,-102.5391,-180.2979,59.6313,81,1.0915,0,-4.4621,-19.4359,24,0.8534,7725,4.0414,154.8645
rg,1625260627897617092,1,0.8879,-0.2905,0.9309,391,-118.2861,-159.4238,49.7437,81,1.0905,0,-10.0629,-24.99,24,0.8444,7706,4.0414,158.0041
rg,1625260627897643536,1,0.9583,-0.5151,1.5186,392,-132.9346,-91.6748,12.5732,81,1.0905,0,-13.86,-30.5269,24,0.8444,8300,4.0414,160.2061
rg,1625260627897695719,1,1.1404,-0.5554,0.8735,393,-7.5684,-25.7568,-2.1973,81,1.0925,0,-16.0473,-30.997,24,0.8404,8176,4.0414,160.6896
rg,1625260627897724426,1,0.1755,-0.7913,0.8962,394,23.8037,75.1953,-13.9771,81,1.0925,0,-13.4542,-29.9322,24,0.8434,11784,4.0414,158.7288
rg,1625260627897750944,1,0.0071,-0.238,0.6311,395,45.2881,40.6494,-13.7939,81,1.0925,0,-11.7972,-27.4636,24,0.8444,9777,4.0414,157.3532
rg,1625260627897776702,1,0.1104,-0.3145,0.6445,396,45.2271,5.188,-15.625,81,1.0925,0,-11.767,-25.4592,24,0.8444,7871,4.0414,156.6762
rg,1625260627897802441,1,0.1707,-0.2207,0.5757,397,44.6777,-8.9722,-16.1743,81,1.0925,0,-12.5634,-23.5316,24,0.8464,7900,4.0414,156.2128
rg,1625260627897843517,1,0.2283,-0.2883,0.5996,398,38.0859,-25.7568,-23.5596,81,1.0935,0,-14.1228,-21.9771,24,0.8474,7910,4.0414,155.744
rg,1625260627897871018,1,0.3027,-0.3694,0.6265,399,40.5273,-33.8135,-22.4609,81,1.0945,-0.001,-16.0403,-20.5831,24,0.8494,8977,4.0414,155.4607
rg,1625260627897898779,1,0.3257,-0.3596,0.5779,400,45.7153,-34.729,-21.1182,81,1.0955,0,-17.827,-18.845,24,0.8524,7765,4.0414,155.2232
rg,1625260627897924054,1,0.3208,-0.3442,0.5718,401,56.0913,-24.9634,-16.2964,81,1.0935,-0.001,-19.2942,-16.9528,24,0.8534,7954,4.0414,155.0272
rg,1625260627897950480,1,0.4106,-0.397,0.6348,402,66.5894,-18.2495,-7.5073,81,1.0965,0,-20.468,-14.8088,24,0.8574,7834,4.0414,155.107
rg,1625260627897975978,1,0.4871,-0.406,0.667,403,72.937,-10.5591,-3.6011,81,1.0975,0,-20.7273,-12.0891,24,0.8604,7996,4.0414,155.2667
rg,1625260627898001921,1,0.5154,-0.4419,0.7561,404,92.5293,25.8179,3.7842,81,1.0965,0,-20.1071,-9.0311,24,0.8614,8021,4.0414,155.4424
rg,1625260627898027234,1,0.5481,-0.4548,0.7244,405,123.5352,57.6172,7.3853,81,1.0985,0,-18.3423,-4.8976,25,0.8654,8001,4.0414,155.7091
rg,1625260627898052825,1,0.5149,-0.4016,0.7058,406,132.6904,73.0591,2.5635,81,1.0995,0,-15.3311,-0.0336,25,0.8684,8041,4.0414,155.6359
rg,1625260627898082960,1,0.2668,-0.2341,0.6387,407,140.7471,96.8018,-5.3101,81,1.0975,0,-11.7504,4.8428,25,0.8674,8035,4.0414,155.7723
rg,1625260627898109663,1,0.0574,-0.1953,0.644,408,137.8174,92.7124,-7.7515,81,1.0985,0,-7.8155,9.4575,25,0.8694,8122,4.0414,156.114
rg,1625260627898136052,1,-0.0103,-0.2136,0.6611,409,136.8408,83.6182,-6.5918,81,1.0985,0,-4.5083,13.8538,24,0.8694,8129,4.0414,156.6941
rg,1625260627898163071,1,-0.0854,-0.1707,0.6829,410,141.3574,57.373,0.5493,81,1.0965,0,-1.8941,18.3916,24,0.8674,8119,4.0414,157.4555
rg,1625260627898188847,1,-0.0276,-0.1018,0.7031,411,146.2402,27.8931,8.1177,81,1.0955,0,-0.8174,23.1825,24,0.8684,8114,4.0414,158.196
rg,1625260627898215347,1,0.1011,-0.0706,0.7659,412,145.9961,16.1743,12.0239,81,1.0965,0,-1.1516,27.9566,24,0.8684,8164,4.0414,158.8314
rg,1625260627898241216,1,0.1777,-0.0234,0.7927,413,150.0244,-5.188,17.8833,81,1.0945,0,-2.1477,32.8221,24,0.8664,8191,4.0414,159.3458
rg,1625260627898268198,1,0.354,0.0598,0.8401,414,150.7568,-13.916,22.2778,81,1.0965,0,-3.9235,37.7976,24,0.8664,8250,4.0414,159.7539
rg,1625260627898294994,1,0.4224,0.062,0.926,415,147.4609,-2.6245,23.4985,81,1.0935,0,-5.4295,42.462,24,0.8654,8657,4.0414,160.4533
rg,1625260627898322347,1,0.3711,0.053,0.9587,416,149.231,11.7188,25.2075,81,1.0965,0,-6.4693,46.9509,24,0.8684,8696,4.0414,161.6083
rg,1625260628257829084,1,0.2856,0.0967,0.9678,417,156.9824,32.0435,35.9497,81,1.0985,0,-7.1814,51.5313,24,0.8704,26735,4.0414,163.677
rg,1625260628257882667,1,0.2642,0.0876,0.988,418,163.5132,35.9497,38.4521,81,1.0985,0.001,-7.9727,56.1727,24,0.8704,10657,4.0414,165.9479
rg,1625260628257903823,1,0.2542,0.095,0.9951,419,172.8516,41.2598,40.5884,81,1.0985,0,-8.8722,61.0057,24,0.8714,7449,4.0414,168.4502
rg,1625260628257924663,1,0.2507,0.1528,0.9634,420,177.1851,43.1519,41.5649,81,1.0995,0,-9.8961,65.9183,24,0.8724,7658,4.0414,171.1269
rg,1625260628257943519,1,0.2354,0.2014,0.9636,421,178.1616,49.6826,39.3677,81,1.0995,0.001,-10.9403,70.7555,24,0.8734,7636,4.0414,-186.1054
rg,1625260628257963321,1,0.1641,0.2661,0.9365,422,178.5889,55.3589,34.4849,81,1.0995,0,-11.7631,75.5015,24,0.8754,7549,4.0414,-183.1878
rg,1625260628257982177,1,0.134,0.3694,0.9363,423,177.002,58.96,32.3486,81,1.1015,0,-12.5742,80.1385,24,0.8774,10316,4.0414,-180.173
rg,1625260628258001219,1,0.1289,0.4351,0.9417,424,176.9409,63.1104,31.311,81,1.1015,0,-13.3922,84.7087,24,0.8784,7725,4.0414,-177.0267
rg,1625260628258020538,1,0.009,0.4944,0.967,425,155.5786,73.8525,30.6396,81,1.1025,0,-14.1892,88.1883,24,0.8774,7863,4.0414,-173.4485
rg,1625260628258038542,1,-0.1047,0.5081,1.0176,426,133.4229,74.646,32.959,81,1.1025,0,-15.0288,90.6626,24,0.8804,7701,4.0414,-169.8369
rg,1625260628258057843,1,-0.1179,0.5222,1.0325,427,126.1597,70.1294,35.8276,81,1.1005,0,-16.0796,92.8128,25,0.8794,7804,4.0414,-166.4186
rg,1625260628258076847,1,-0.0786,0.5991,1.0354,428,107.3608,62.0117,40.4053,81,1.1035,0,-17.4248,94.2666,25,0.8784,7827,4.0414,-163.3508
rg,1625260628258094851,1,-0.0845,0.6367,1.0452,429,97.5952,61.0352,40.4663,81,1.1035,0,-18.7889,94.7962,25,0.8834,7889,4.0414,-160.3381
rg,1625260628258112854,1,-0.1296,0.6208,1.0767,430,73.3032,58.96,40.7715,81,1.1015,0,-20.0799,94.76,25,0.8814,7897,4.0414,-157.2929
rg,1625260628258153069,1,-0.1985,0.5676,1.1245,431,55.2368,51.4526,41.2598,81,1.1035,0,-21.2586,94.0032,24,0.8834,7918,4.0414,-154.4763
rg,1625260628258174188,1,-0.2039,0.5576,1.1313,432,49.1333,44.5557,43.8843,81,1.1035,0,-22.4716,92.948,24,0.8834,7942,4.0414,-152.1238
rg,1625260628258191857,1,-0.1814,0.5256,1.1499,433,41.3818,31.311,45.166,81,1.1015,0,-23.705,91.8147,24,0.8844,8623,4.0414,-149.9832
rg,1625260628258209267,1,-0.1858,0.4719,1.1848,434,35.5835,17.5171,43.396,81,1.1025,0,-24.8365,90.6069,24,0.8834,7939,4.0414,-148.3293
rg,1625260628258226325,1,-0.0981,0.437,1.2139,435,36.377,5.6763,43.7622,81,1.1045,0,-26.1061,89.5717,24,0.8844,8052,4.0414,-147.0888
rg,1625260628258244421,1,-0.0688,0.4258,1.2178,436,39.4287,2.2583,44.0063,81,1.1025,0,-27.408,88.6836,24,0.8834,7985,4.0414,-145.907
rg,1625260628258262276,1,-0.0579,0.4087,1.1958,437,45.3491,1.0376,41.748,81,1.1045,0,-28.6136,88.0225,24,0.8834,8024,4.0414,-144.695
rg,1625260628258279612,1,-0.0552,0.3933,1.1909,438,54.7485,-3.0518,38.5742,81,1.1045,0,-29.69,87.7952,24,0.8854,8078,4.0414,-143.5997
rg,1625260628258297838,1,-0.0518,0.3889,1.1929,439,60.0586,-6.2866,36.499,81,1.1045,0,-30.6839,87.8314,24,0.8854,8147,4.0414,-142.601
rg,1625260628258316620,1,-0.0144,0.3972,1.1851,440,71.3501,-12.8784,33.5083,81,1.1035,0,-31.6091,88.4696,24,0.8844,8132,4.0414,-141.8766
rg,1625260628258334641,1,0.0259,0.4397,1.1382,441,86.6089,-15.1367,30.6396,81,1.1035,0,-32.3093,89.9671,24,0.8854,12114,4.0414,-141.282
rg,1625260628258352126,1,0.0156,0.4954,1.0984,442,94.7266,-15.2588,27.832,81,1.1045,0,-32.9506,91.676,24,0.8864,8366,4.0414,-140.6956
rg,1625260628258369869,1,0.0637,0.5273,1.0781,443,102.2339,-16.1133,26.001,81,1.1045,0,-33.5661,93.7252,24,0.8864,8813,4.0414,-140.1626
rg,1625260628258387038,1,0.1001,0.5884,1.0432,444,109.2529,-10.2539,23.8037,81,1.1045,0,-34.1134,95.942,24,0.8874,8286,4.0414,-139.3743
rg,1625260628258404448,1,0.1003,0.6292,0.9985,445,110.6567,-4.9438,23.9868,81,1.1055,0,-34.6549,98.0243,24,0.8874,8280,4.0414,-138.1171
rg,1625260628258568203,1,0.0815,0.7214,0.9053,446,107.3608,5.188,28.5645,81,1.1065,0,-35.3073,99.8874,24,0.8874,8364,4.0414,-136.7079
rg,1625260628258598610,1,0.0627,0.7688,0.8655,447,93.1396,13.6719,33.0811,81,1.1055,0,-36.1258,100.9926,25,0.8864,8241,4.0414,-134.9496
rg,1625260628258620154,1,0.0186,0.771,0.8425,448,79.2847,20.0806,37.2314,81,1.1055,0,-37.0728,101.3508,25,0.8874,8312,4.0414,-132.8913
rg,1625260628605190710,1,0.1328,0.8755,0.8391,449,48.7671,20.0806,46.875,81,1.1065,0,-38.4719,100.5982,24,0.8854,25099,4.0414,-130.9281
rg,1625260628605293965,1,0.3201,0.9407,0.9795,450,16.4795,56.2744,45.3491,81,1.1055,0,-40.2316,97.241,24,0.8834,13757,4.0414,-126.9272
rg,1625260628605315491,1,0.1785,0.9075,1.0977,451,-6.5918,94.9097,37.7197,81,1.1045,0,-41.4,91.2641,24,0.8814,10514,4.0414,-120.4665
rg,1625260628605335052,1,-0.1133,0.8262,1.2041,452,-22.8271,119.812,27.9541,81,1.1045,0,-41.288,83.578,25,0.8804,7765,4.0414,-112.4146
rg,1625260628605355243,1,-0.301,0.7869,1.2578,453,-29.4189,124.0234,23.1934,81,1.1045,0,-39.9276,75.8039,25,0.8784,7761,4.0414,-104.3378
rg,1625260628605372986,1,-0.5623,0.6929,1.3142,454,-34.9731,103.6987,15.3198,81,1.1035,0.001,-37.7017,69.0976,25,0.8774,7770,4.0414,-97.8187
rg,1625260628605391694,1,-0.6267,0.6138,1.3015,455,-32.7148,66.7114,14.5264,81,1.1035,0,-35.5189,64.0412,25,0.8764,7641,4.0414,-93.456
rg,1625260628605409920,1,-0.6011,0.583,1.2576,456,-29.9072,47.4854,14.0381,81,1.1035,0,-33.6241,60.4297,25,0.8764,8667,4.0414,-90.8841
rg,1625260628605427664,1,-0.5447,0.541,1.1477,457,-23.3765,20.0195,9.6436,81,1.1025,0,-31.8402,57.5141,25,0.8754,8347,4.0414,-89.0823
rg,1625260628605446168,1,-0.4912,0.5007,0.9993,458,-18.8599,-1.8311,6.958,81,1.1055,0,-30.3865,55.4679,25,0.8764,7893,4.0414,-88.3469
rg,1625260628605464820,1,-0.4512,0.4878,0.9385,459,-18.6768,-12.5122,3.7231,81,1.1035,0,-29.3582,54.0072,25,0.8784,7847,4.0414,-88.6063
rg,1625260628605483027,1,-0.2991,0.4568,0.8799,460,-16.4795,-33.6914,0.3662,81,1.1035,0,-28.6352,52.8315,24,0.8794,7868,4.0414,-89.3039
rg,1625260628605501142,1,-0.1746,0.4319,0.8354,461,-11.1694,-45.3491,-6.958,81,1.1055,0,-28.1768,52.1577,24,0.8814,7813,4.0414,-90.6158
rg,1625260628605518737,1,-0.1523,0.428,0.822,462,-8.4839,-48.2788,-9.2163,81,1.1065,0,-27.8277,51.6942,24,0.8824,7861,4.0414,-92.1043
rg,1625260628605603822,1,-0.0027,0.46,0.8376,463,-0.2441,-64.209,-13.1226,81,1.1055,0,-28.0076,51.9138,24,0.8844,12509,4.0414,-94.2852
rg,1625260628605643018,1,0.0898,0.49,0.8535,464,2.4414,-66.8945,-13.4277,81,1.1065,0,-28.5541,52.4928,25,0.8844,7875,4.0414,-96.6337
rg,1625260628605663858,1,0.2605,0.5498,0.8652,465,5.9814,-64.6362,-13.7329,81,1.1065,0,-29.1668,53.174,25,0.8854,7971,4.0414,-98.9468
rg,1625260628605684920,1,0.374,0.5989,0.864,466,3.2349,-55.1147,-12.3291,81,1.1075,0,-29.746,53.6777,25,0.8864,7932,4.0414,-100.9329
rg,1625260628605707095,1,0.4143,0.6089,0.8662,467,0.7935,-47.9126,-11.9019,81,1.1075,0,-30.2479,53.985,25,0.8864,8011,4.0414,-102.6576
rg,1625260628605731959,1,0.4565,0.6174,0.8704,468,-5.4932,-33.6304,-8.1787,81,1.1065,0,-30.5399,53.7293,24,0.8854,9180,4.0414,-103.745
rg,1625260628605756507,1,0.468,0.6091,0.8552,469,-10.5591,-20.813,-3.9673,81,1.1095,0,-30.6933,52.9899,24,0.8864,8047,4.0414,-104.2409
rg,1625260628605778719,1,0.4421,0.5894,0.8472,470,-15.4419,-7.5684,0.1831,81,1.1065,0,-30.6299,51.7431,24,0.8864,10825,4.0414,-104.122
rg,1625260628605798577,1,0.3984,0.5376,0.8418,471,-18.1274,3.2349,3.479,81,1.1095,0,-30.3553,50.0918,24,0.8874,8064,4.0414,-103.4882
rg,1625260628605822902,1,0.3613,0.4858,0.8442,472,-18.0664,7.4463,5.127,81,1.1095,0,-29.924,48.2373,24,0.8884,8142,4.0414,-102.5062
rg,1625260628605844911,1,0.3403,0.4666,0.8535,473,-17.9443,13.1836,6.2256,81,1.1075,0,-29.3834,46.3674,24,0.8874,8119,4.0414,-101.4498
rg,1625260628605866919,1,0.3005,0.4324,0.8557,474,-15.0757,20.1416,4.5166,81,1.1095,-0.001,-28.5306,44.5398,24,0.8884,8146,4.0414,-100.2387
rg,1625260628605886498,1,0.2664,0.4131,0.8757,475,-9.9487,24.5361,1.8311,81,1.1085,-0.001,-27.4097,42.927,24,0.8894,7987,4.0414,-99.0163
rg,1625260628605906856,1,0.2517,0.4094,0.8906,476,-7.019,26.062,1.5869,81,1.1085,0,-26.2165,41.4891,24,0.8874,8173,4.0414,-97.8203
rg,1625260628605926380,1,0.2102,0.4045,0.9094,477,-0.8545,27.771,0.9766,81,1.1095,0,-24.8856,40.3435,24,0.8874,8230,4.0414,-96.6502
rg,1625260628605947869,1,0.1736,0.4084,0.9153,478,3.54,26.8555,-0.7324,81,1.1105,0,-23.4897,39.4881,24,0.8894,8197,4.0414,-95.6257
rg,1625260628606012039,1,0.1624,0.4119,0.9299,479,5.5542,25.5127,-0.9155,81,1.1105,0,-22.1147,38.807,24,0.8884,8211,4.0414,-94.7006
rg,1625260628606036161,1,0.1526,0.4219,0.9294,480,7.8125,20.6909,-1.8311,81,1.1085,0,-20.9129,38.3283,24,0.8874,8232,4.0414,-93.9772
rg,1625260628956003595,1,0.1963,0.4534,0.9141,481,6.5308,11.2915,0.3662,81,1.1085,0,-20.1861,37.9771,24,0.8884,25983,4.0414,-93.4867
rg,1625260628956043774,1,0.2053,0.4475,0.9192,482,5.188,12.146,-0.4272,81,1.1085,0,-19.4573,37.5792,24,0.8884,14211,4.0414,-93.0105
rg,1625260628956064373,1,0.2048,0.4421,0.9226,483,5.0049,11.4136,-0.7935,81,1.1085,0,-18.7675,37.1929,24,0.8884,7539,4.0414,-92.5769
rg,1625260628956083377,1,0.2112,0.436,0.925,484,6.2866,11.4136,-1.1597,81,1.1085,0,-18.1076,36.8692,24,0.8894,7584,4.0414,-92.1657
rg,1625260628956101529,1,0.2083,0.4412,0.9111,485,8.2397,11.2305,-1.5259,81,1.1085,0,-17.4655,36.6707,25,0.8894,9540,4.0414,-91.7914
rg,1625260628956118902,1,0.2117,0.4487,0.9077,486,8.9722,11.2305,-0.9155,81,1.1085,0,-16.8681,36.5268,25,0.8894,7901,4.0414,-91.412
rg,1625260628956136163,1,0.2134,0.4482,0.905,487,11.7188,10.2539,-0.8545,81,1.1085,-0.001,-16.3309,36.5105,25,0.8894,7629,4.0414,-91.0628
rg,1625260628956154890,1,0.2329,0.4668,0.9041,488,14.3433,11.4136,-1.5259,81,1.1085,0,-15.7982,36.6404,25,0.8894,8540,4.0414,-90.7227
rg,1625260628956173171,1,0.2358,0.4778,0.8943,489,14.5874,12.8784,-2.3804,81,1.1075,0,-15.2267,36.808,25,0.8894,7750,4.0414,-90.385
rg,1625260628956191360,1,0.2329,0.4946,0.8904,490,15.564,14.8926,-0.9155,81,1.1065,0,-14.6399,37.0224,25,0.8884,8768,4.0414,-89.9594
rg,1625260628956209234,1,0.2271,0.5146,0.8838,491,15.1978,17.7002,-0.2441,81,1.1095,0,-13.9891,37.2405,25,0.8894,7765,4.0414,-89.4535
rg,1625260628956226922,1,0.2134,0.5193,0.874,492,15.3198,18.5547,-0.6104,81,1.1085,0,-13.2813,37.4784,25,0.8904,7848,4.0414,-88.9431
rg,1625260628956269881,1,0.1885,0.5337,0.8933,493,12.7563,20.0195,-0.7324,81,1.1095,0,-12.5129,37.6067,25,0.8894,7739,4.0414,-88.4014
rg,1625260628956290907,1,0.197,0.519,0.8979,494,11.9629,18.5547,1.0986,81,1.1095,0,-11.8868,37.6676,24,0.8904,7820,4.0414,-87.8331
rg,1625260628956309689,1,0.1887,0.5459,0.9031,495,12.0239,20.3247,0.4883,81,1.1075,0,-11.19,37.7739,24,0.8884,7827,4.0414,-87.2525
rg,1625260628956328156,1,0.1892,0.5469,0.8914,496,9.7656,19.4092,-0.6104,81,1.1095,0,-10.5278,37.8187,24,0.8894,7835,4.0414,-86.736
rg,1625260628956345936,1,0.1677,0.5491,0.8938,497,8.8501,20.0806,-2.4414,81,1.1075,0,-9.7798,37.7839,24,0.8894,7861,4.0414,-86.2405
rg,1625260628956364514,1,0.1631,0.5515,0.9011,498,7.1411,18.3105,-1.8921,81,1.1075,0,-9.1177,37.7441,25,0.8894,7955,4.0414,-85.8006
rg,1625260628956383445,1,0.1533,0.5496,0.8945,499,7.0801,17.0898,-3.2349,81,1.1095,0,-8.4686,37.7233,25,0.8914,7927,4.0414,-85.4389
rg,1625260628956400762,1,0.1584,0.5554,0.8823,500,6.7139,16.0522,-3.7231,81,1.1095,0,-7.855,37.6686,25,0.8914,7908,4.0414,-85.1848
rg,1625260628956419062,1,0.1555,0.5518,0.8855,501,4.5776,15.0757,-5.7373,81,1.1075,0,-7.2642,37.5903,25,0.8894,7982,4.0414,-84.9628
rg,1625260628956436305,1,0.1396,0.5442,0.8777,502,3.2349,11.8408,-6.7749,81,1.1095,0,-6.7426,37.4721,24,0.8914,7941,4.0414,-84.857
rg,1625260628956454142,1,0.1497,0.5457,0.8811,503,2.9907,11.1084,-6.897,81,1.1095,0,-6.3136,37.3242,24,0.8914,8026,4.0414,-84.8346
rg,1625260628956472553,1,0.1699,0.5542,0.8882,504,1.77,9.4604,-8.667,81,1.1075,0,-5.9188,37.1798,24,0.8894,8018,4.0414,-84.8559
rg,1625260628956490983,1,0.1772,0.5417,0.8965,505,0.1831,9.6436,-10.5591,81,1.1075,0,-5.5039,36.9515,24,0.8914,8024,4.0414,-84.9336
rg,1625260628956509208,1,0.1792,0.5452,0.9016,506,0.1831,9.9487,-11.0474,86,1.1095,0,-5.081,36.7558,25,0.8924,8020,4.037,-85.079
rg,1625260628956527342,1,0.1985,0.541,0.9126,507,0.7324,8.3008,-12.207,86,1.1075,0,-4.7427,36.5545,25,0.8904,8122,4.037,-85.2492
rg,1625260628956562569,1,0.2168,0.5498,0.9067,508,1.2817,10.0098,-15.5029,86,1.1075,0,-4.3229,36.41,25,0.8904,8524,4.037,-85.4902
rg,1625260628956583910,1,0.2097,0.5532,0.8975,509,1.4648,11.2305,-18.1274,86,1.1085,0,-3.8067,36.2966,25,0.8904,8181,4.037,-85.7915
rg,1625260628956602303,1,0.2156,0.5498,0.8821,510,1.5869,11.4136,-18.5547,86,1.1095,0,-3.3137,36.2019,24,0.8924,8832,4.037,-86.1062
rg,1625260628956620640,1,0.2109,0.551,0.8665,511,2.1362,11.4136,-20.1416,86,1.1095,0,-2.7769,36.162,24,0.8924,8178,4.037,-86.4767
rg,1625260628956638699,1,0.1924,0.5496,0.8562,512,0.6104,11.2305,-19.8975,86,1.1085,0,-2.2596,36.0589,24,0.8914,8274,4.037,-86.8457
rg,1625260629313556304,1,0.2595,0.52,0.8643,513,2.0752,6.7749,-20.9351,86,1.1085,0,-2.0276,35.9595,24,0.8924,25165,4.037,-87.3533
rg,1625260629313594047,1,0.2664,0.5176,0.8689,514,5.0049,9.7656,-22.644,86,1.1085,0,-1.6262,36.0338,24,0.8924,14909,4.037,-87.7834
rg,1625260629313614829,1,0.2473,0.5312,0.8628,515,7.3242,14.4043,-22.7051,86,1.1085,-0.001,-1.1033,36.1568,24,0.8934,7793,4.037,-88.1704
rg,1625260629313634275,1,0.2087,0.5193,0.8401,516,9.5215,17.1509,-24.6582,86,1.1085,0,-0.3957,36.3612,24,0.8934,8599,4.037,-88.5541
rg,1625260629313652776,1,0.1902,0.5183,0.8115,517,10.6201,16.6626,-24.5361,86,1.1085,0,0.3279,36.6739,24,0.8934,7701,4.037,-88.9649
rg,1625260629313671407,1,0.177,0.5251,0.8086,518,11.7188,15.8081,-26.4893,86,1.1085,0,1.0442,36.9839,24,0.8934,7780,4.037,-89.4329
rg,1625260629313688926,1,0.1665,0.5435,0.8013,519,12.3291,15.0757,-25.8789,86,1.1095,0,1.7223,37.3448,24,0.8934,8489,4.037,-89.894
rg,1625260629313705610,1,0.1887,0.5488,0.783,520,11.9019,13.1226,-27.71,86,1.1095,0,2.3053,37.7008,24,0.8954,8258,4.037,-90.455
rg,1625260629313721739,1,0.1658,0.5454,0.8215,521,11.3525,15.7471,-30.7617,86,1.1065,0,3.0888,37.956,24,0.8934,7844,4.037,-91.0456
rg,1625260629313737941,1,0.1531,0.5308,0.875,522,13.3057,14.0381,-32.6538,86,1.1095,0,3.8775,38.1729,24,0.8954,7865,4.037,-91.7411
rg,1625260629313773942,1,0.1763,0.5383,0.8838,523,15.625,11.7798,-31.0669,86,1.1095,0,4.5801,38.5661,24,0.8954,7874,4.037,-92.4582
rg,1625260629313791108,1,0.2004,0.5671,0.8875,524,20.0195,15.8081,-34.3628,86,1.1075,0,5.33,39.0631,25,0.8944,7924,4.037,-93.1534
rg,1625260629313807274,1,0.1565,0.575,0.8989,525,21.3623,22.0947,-37.4756,86,1.1095,0,6.4229,39.5897,25,0.8944,7974,4.037,-93.7786
rg,1625260629313823383,1,0.1421,0.6001,0.8906,526,22.4609,22.1558,-38.8794,86,1.1095,-0.001,7.548,40.1771,25,0.8944,10918,4.037,-94.4324
rg,1625260629313841106,1,0.1433,0.6357,0.8982,527,21.4233,21.2402,-39.856,86,1.1095,0.001,8.6377,40.7337,25,0.8964,7838,4.037,-95.1257
rg,1625260629313862128,1,0.1399,0.6365,0.8997,528,19.165,21.9727,-41.2598,86,1.1075,0,9.7574,41.1624,25,0.8944,8016,4.037,-95.8364
rg,1625260629313878850,1,0.1179,0.6433,0.8921,529,14.7095,22.7051,-42.7246,86,1.1095,0,10.9412,41.3992,25,0.8954,8067,4.037,-96.567
rg,1625260629313895719,1,0.0981,0.6448,0.884,530,7.1411,18.3716,-41.687,86,1.1095,0,11.9615,41.3058,25,0.8974,8063,4.037,-97.3858
rg,1625260629313912700,1,0.0969,0.6384,0.8909,531,3.6011,16.7847,-42.1143,86,1.1075,0,12.9072,41.0282,24,0.8954,8081,4.037,-98.2751
rg,1625260629313928884,1,0.0901,0.5979,0.8928,532,-3.479,11.9629,-41.8701,86,1.1075,0,13.6697,40.3617,24,0.8964,10545,4.037,-99.3185
rg,1625260629313945495,1,0.0999,0.5647,0.8972,533,-7.3853,7.0801,-40.2832,86,1.1085,0,14.1796,39.4658,24,0.8964,8326,4.037,-100.4756
rg,1625260629313962791,1,0.1135,0.5186,0.8904,534,-9.1553,4.8218,-40.7104,86,1.1085,-0.001,14.5615,38.4248,24,0.8964,8140,4.037,-101.7412
rg,1625260629313980420,1,0.114,0.5039,0.8896,535,-9.3384,3.7231,-39.3677,86,1.1085,0,14.8226,37.3819,25,0.8964,8114,4.037,-103.0516
rg,1625260629313997346,1,0.1267,0.478,0.8882,536,-7.3853,2.7466,-40.8936,86,1.1075,0,15.0455,36.3805,25,0.8964,8748,4.037,-104.4234
rg,1625260629314014197,1,0.1226,0.4668,0.8774,537,-4.3335,3.3569,-42.2363,86,1.1085,0,15.2953,35.5115,25,0.8954,9333,4.037,-105.8396
rg,1625260629314041022,1,0.1382,0.4636,0.8745,538,-1.1597,3.9062,-43.6401,86,1.1095,0,15.5338,34.7819,25,0.8964,8766,4.037,-107.3014
rg,1625260629314058781,1,0.1492,0.4668,0.8755,539,2.5635,4.9438,-43.7622,86,1.1095,0,15.7625,34.2317,24,0.8974,8354,4.037,-108.7505
rg,1625260629314075596,1,0.1494,0.4717,0.8828,540,4.0283,6.0425,-44.5557,86,1.1095,0,16.0262,33.7542,24,0.8964,8298,4.037,-110.2089
rg,1625260629314093077,1,0.1562,0.4778,0.8921,541,5.9204,9.0942,-46.0815,86,1.1085,0,16.394,33.3676,24,0.8954,8336,4.037,-111.6572
rg,1625260629314111893,1,0.1626,0.4849,0.8992,542,7.0801,9.6436,-45.5933,86,1.1095,0,16.7376,33.0462,24,0.8974,8461,4.037,-113.0827
rg,1625260629314128225,1,0.1628,0.4885,0.9006,543,7.0801,11.2915,-45.6543,86,1.1105,0,17.1522,32.7449,24,0.8974,8379,4.037,-114.5105
rg,1625260629314144836,1,0.1487,0.488,0.9077,544,7.6904,11.4746,-46.3867,86,1.1075,0,17.5623,32.449,24,0.8954,8401,4.037,-115.9396
rg,1625260629659247000,1,0.1406,0.5015,0.8796,545,9.5215,7.0801,-42.6025,86,1.1085,0,17.7338,32.2977,24,0.8964,26927,4.037,-117.323
rg,1625260629659278607,1,0.1235,0.5051,0.8579,546,9.8877,5.9814,-42.0532,86,1.1085,0,17.8777,32.1936,24,0.8964,15320,4.037,-118.7042
rg,1625260629659298480,1,0.113,0.4998,0.8555,547,10.9863,4.9438,-40.4053,86,1.1085,0,17.965,32.1368,24,0.8954,7653,4.037,-120.0546
rg,1625260629659317259,1,0.1172,0.4939,0.854,548,12.146,3.7231,-38.5742,86,1.1085,0,17.9588,32.1287,24,0.8954,7634,4.037,-121.3712
rg,1625260629659335594,1,0.1243,0.5046,0.8591,549,12.5732,5.188,-37.7808,86,1.1085,0,17.9735,32.1726,25,0.8954,7640,4.037,-122.6217
rg,1625260629659353205,1,0.1296,0.5027,0.8718,550,13.3667,5.188,-37.2314,86,1.1085,0,17.9517,32.2303,25,0.8964,7657,4.037,-123.8594
rg,1625260629659369982,1,0.124,0.5044,0.8857,551,15.1367,9.0332,-37.1094,86,1.1085,0,18.0905,32.3738,25,0.8954,8737,4.037,-125.0091
rg,1625260629659386425,1,0.0972,0.5215,0.8967,552,16.5405,9.8267,-37.0483,86,1.1095,0,18.3097,32.592,25,0.8934,8241,4.037,-126.1322
rg,1625260629659402869,1,0.0686,0.54,0.8999,553,17.6392,10.1318,-36.499,86,1.1095,0,18.5491,32.8991,25,0.8964,7722,4.037,-127.2352
rg,1625260629659420035,1,0.0371,0.5564,0.8997,554,18.1274,4.6997,-35.0952,86,1.1085,0,18.6699,33.2024,25,0.8964,11523,4.037,-128.3863
rg,1625260629659436404,1,0.0349,0.5625,0.8909,555,17.395,1.5869,-33.6304,86,1.1085,0,18.6551,33.5001,25,0.8954,7812,4.037,-129.544
rg,1625260629659452254,1,0.0354,0.5715,0.8857,556,15.686,-2.9907,-32.5317,86,1.1085,0,18.4737,33.7023,25,0.8964,7833,4.037,-130.7682
rg,1625260629659468976,1,0.0254,0.5583,0.8696,557,12.8784,-6.7749,-31.1279,86,1.1095,0,18.1649,33.7726,24,0.8954,7858,4.037,-132.0321
rg,1625260629659485623,1,0.0483,0.5635,0.884,558,12.3901,-9.6436,-29.9072,86,1.1095,0,17.7009,33.8144,24,0.8964,7874,4.037,-133.3203
rg,1625260629659501826,1,0.0461,0.5518,0.8889,559,10.8643,-11.0474,-28.6865,86,1.1095,0,17.1852,33.7797,24,0.8964,8627,4.037,-134.6035
rg,1625260629659518621,1,0.0674,0.5522,0.9058,560,11.2305,-13.916,-29.4189,86,1.1105,0.001,16.5681,33.7288,24,0.8974,8423,4.037,-135.9795
rg,1625260629659535361,1,0.0686,0.5596,0.9109,561,11.2915,-13.3667,-28.0762,86,1.1095,0,15.9018,33.7172,24,0.8964,7828,4.037,-137.2896
rg,1625260629659601376,1,0.106,0.5796,0.9297,562,12.146,-12.8174,-28.1982,86,1.1075,0,15.2714,33.7791,24,0.8944,7936,4.037,-138.5802
rg,1625260629659619784,1,0.0938,0.5859,0.9287,563,12.0239,-9.7046,-29.48,86,1.1085,0,14.8213,33.8659,24,0.8944,8342,4.037,-139.8361
rg,1625260629659636876,1,0.0859,0.592,0.9194,564,11.9019,-8.0566,-29.48,86,1.1105,0,14.4588,33.9848,25,0.8964,8216,4.037,-141.0458
rg,1625260629659653320,1,0.0715,0.5911,0.9067,565,10.9863,-6.7749,-30.5176,86,1.1105,-0.001,14.2431,34.0421,25,0.8964,8078,4.037,-142.2263
rg,1625260629659670227,1,0.0447,0.5911,0.8909,566,7.4463,-5.0049,-30.5786,86,1.1085,0,14.109,34.0264,25,0.8944,7898,4.037,-143.3922
rg,1625260629659686577,1,0.0312,0.5728,0.8818,567,4.0283,-8.667,-29.48,86,1.1105,0,13.859,33.845,25,0.8964,8082,4.037,-144.6095
rg,1625260629659720539,1,0.0359,0.5728,0.8835,568,2.9297,-12.6953,-26.4893,86,1.1105,0,13.3363,33.5664,25,0.8964,8254,4.037,-145.8375
rg,1625260629659737613,1,0.0461,0.5637,0.8801,569,-0.3052,-16.2964,-23.8037,86,1.1085,0,12.6952,33.2417,25,0.8944,8155,4.037,-147.0297
rg,1625260629659754093,1,0.0664,0.554,0.8633,570,-2.6855,-19.7754,-22.2168,86,1.1095,0,11.8762,32.848,25,0.8964,8072,4.037,-148.2374
rg,1625260629659770296,1,0.0859,0.5403,0.8708,571,-3.54,-21.7285,-21.0571,86,1.1105,-0.001,10.8787,32.3963,25,0.8954,8246,4.037,-149.4324
rg,1625260629659787629,1,0.1045,0.54,0.8745,572,-4.5776,-23.9258,-19.9585,86,1.1085,0,9.8436,31.9613,25,0.8944,8025,4.037,-150.6414
rg,1625260629659803720,1,0.1453,0.5391,0.8848,573,-5.3711,-25.1465,-17.5781,86,1.1105,0,8.665,31.5316,25,0.8944,8257,4.037,-151.786
rg,1625260629659819756,1,0.1558,0.5288,0.9053,574,-5.5542,-23.1934,-16.0522,86,1.1105,0,7.5397,31.1067,25,0.8954,8245,4.037,-152.8329
rg,1625260629659835717,1,0.1453,0.5259,0.9148,575,-5.249,-21.8506,-16.9678,86,1.1085,0,6.5381,30.7145,25,0.8944,8254,4.037,-153.877
rg,1625260629659851567,1,0.1631,0.5359,0.9075,576,-4.4556,-23.0103,-16.3574,86,1.1105,0,5.4799,30.4147,25,0.8944,8290,4.037,-154.9138
rg,1625260630019156084,1,0.2063,0.5376,0.8926,577,-1.0986,-20.752,-15.686,86,1.1105,0,4.4311,30.3052,24,0.8954,25460,4.037,-155.8755
rg,1625260630019227354,1,0.2083,0.5459,0.8833,578,1.2817,-17.395,-13.9771,86,1.1105,0,3.5758,30.4017,24,0.8954,14721,4.037,-156.6683
rg,1625260630019250116,1,0.2129,0.5481,0.8811,579,3.7842,-14.8926,-13.3057,86,1.1105,0,2.7399,30.5607,24,0.8954,7701,4.037,-157.4274
rg,1625260630019270301,1,0.2075,0.5515,0.8606,580,6.6528,-13.3057,-12.6953,86,1.1105,0,1.9858,30.8704,24,0.8954,7905,4.037,-158.1337
rg,1625260630019290283,1,0.2253,0.574,0.8481,581,10.1318,-12.3291,-11.5356,86,1.1105,0,1.2393,31.373,24,0.8954,9318,4.037,-158.7816
rg,1625260630019309152,1,0.2175,0.5911,0.8394,582,11.7798,-10.5591,-10.498,86,1.1105,0,0.6108,32.0158,24,0.8964,7739,4.037,-159.359
rg,1625260630019383444,1,0.1533,0.6167,0.8003,583,15.2588,-9.9487,-11.2915,86,1.1095,0,0.1543,32.8314,24,0.8944,7913,4.037,-159.9535
rg,1625260630019411377,1,0.1069,0.6641,0.7532,584,16.4795,-18.0664,-8.5449,86,1.1115,0,-0.5052,33.8187,24,0.8974,7720,4.037,-160.6376
rg,1625260630019431915,1,0.1106,0.6975,0.7241,585,15.564,-23.8037,-6.5918,86,1.1125,0,-1.3673,34.8393,24,0.8974,7750,4.037,-161.3986
rg,1625260630019450339,1,0.1467,0.7559,0.7026,586,7.8125,-31.0059,-1.3428,86,1.1125,0,-2.6109,35.6461,24,0.8964,7858,4.037,-162.1731
rg,1625260630019469968,1,0.179,0.7373,0.7227,587,-3.9062,-32.959,3.9062,86,1.1125,0,-4.0527,35.9055,24,0.8984,7845,4.037,-162.8379
rg,1625260630019488912,1,0.1733,0.718,0.7385,588,-8.4839,-32.8369,4.6997,86,1.1095,0,-5.4396,35.9334,24,0.8964,8045,4.037,-163.4827
rg,1625260630019507392,1,0.1616,0.6819,0.7742,589,-14.3433,-36.5601,8.0566,86,1.1125,0,-6.9452,35.6305,24,0.8964,8139,4.037,-164.1015
rg,1625260630019528152,1,0.1755,0.6526,0.792,590,-14.0991,-45.166,8.728,86,1.1115,0,-8.7199,35.3162,24,0.8984,8426,4.037,-164.893
rg,1625260630019547281,1,0.1567,0.6545,0.7788,591,-11.4746,-49.1943,9.3384,86,1.1115,0,-10.5421,35.346,24,0.8984,8433,4.037,-165.9056
rg,1625260630019572156,1,0.1279,0.6868,0.7261,592,-8.1787,-58.7769,6.6528,86,1.1105,0,-12.4747,35.5665,24,0.8974,8490,4.037,-167.1381
rg,1625260630019593064,1,0.2327,0.6799,0.7488,593,-13.7939,-73.4253,7.5073,86,1.1125,0,-15.0441,35.631,24,0.8994,8470,4.037,-168.7078
rg,1625260630019614047,1,0.3577,0.6509,0.7637,594,-17.6392,-71.106,8.0566,86,1.1125,0,-17.7118,35.5146,25,0.9004,8547,4.037,-170.2104
rg,1625260630019634825,1,0.384,0.6333,0.7744,595,-18.6157,-64.9414,7.019,86,1.1125,0,-19.7447,35.0925,25,0.9004,8534,4.037,-171.4349
rg,1625260630019653120,1,0.3687,0.5774,0.8215,596,-23.9258,-49.0723,5.5542,86,1.1115,0,-21.4863,34.4821,25,0.9004,8589,4.037,-172.4374
rg,1625260630019674121,1,0.3438,0.5078,0.8567,597,-21.5454,-37.7808,3.2959,86,1.1115,0,-22.704,33.7593,25,0.9004,8861,4.037,-173.1781
rg,1625260630019724927,1,0.3599,0.5122,0.8367,598,-16.1133,-29.2358,0.4883,86,1.1155,0,-23.5781,33.2845,24,0.9034,8835,4.037,-173.8263
rg,1625260630019750729,1,0.3591,0.5361,0.8088,599,-13.2446,-24.8413,-0.7935,86,1.1155,0,-24.0818,32.9871,24,0.9024,8072,4.037,-174.3545
rg,1625260630019780535,1,0.3484,0.5381,0.8118,600,-13.4888,-15.564,-3.479,86,1.1145,0,-24.3468,32.6674,24,0.9034,8086,4.037,-174.8605
rg,1625260630019800683,1,0.3342,0.5085,0.8137,601,-13.7939,-10.9863,-4.8828,86,1.1145,0,-24.4016,32.2631,25,0.9034,12636,4.037,-175.2872
rg,1625260630019822221,1,0.3564,0.498,0.8347,602,-13.6719,-9.3994,-6.5918,86,1.1145,0,-24.3917,31.8373,25,0.9034,8145,4.037,-175.7069
rg,1625260630019864983,1,0.353,0.4871,0.8418,603,-13.6108,-7.5684,-5.7983,86,1.1145,0,-24.3453,31.3746,25,0.9034,8223,4.037,-176.0654
rg,1625260630019884298,1,0.3638,0.4668,0.8533,604,-11.4136,-3.2959,-6.5308,86,1.1155,0,-24.1654,30.9329,25,0.9034,8210,4.037,-176.3372
rg,1625260630019901758,1,0.364,0.4651,0.8545,605,-7.6294,-0.4883,-5.8594,86,1.1155,0,-23.9125,30.6181,25,0.9044,8237,4.037,-176.5258
rg,1625260630019919812,1,0.3704,0.4785,0.8521,606,-5.7373,0.9155,-4.7607,86,1.1155,0,-23.6537,30.3924,25,0.9044,8416,4.037,-176.66
rg,1625260630019938607,1,0.3484,0.5081,0.8215,607,-3.54,4.0894,-3.1738,86,1.1145,0,-23.2923,30.3091,25,0.9034,8717,4.037,-176.708
rg,1625260630019956995,1,0.3137,0.5247,0.7979,608,-5.0049,4.7607,1.0986,86,1.1165,0,-22.9444,30.1674,25,0.9044,8302,4.037,-176.6085
rg,1625260630369105140,1,0.2976,0.5095,0.8064,609,-8.4839,0.1221,7.1411,86,1.1165,0,-22.9507,29.7619,25,0.9044,25201,4.037,-176.3389
rg,1625260630369156632,1,0.3342,0.4929,0.825,610,-8.0566,-3.9673,10.437,86,1.1165,0,-23.139,29.356,25,0.9044,14764,4.037,-176.045
rg,1625260630369187197,1,0.3413,0.4929,0.8159,611,-6.5308,-2.3193,8.1177,86,1.1165,0,-23.2365,29.0577,24,0.9034,7583,4.037,-175.8122
rg,1625260630369218004,1,0.342,0.4915,0.8137,612,-5.6152,-2.1973,6.2256,86,1.1165,0,-23.3152,28.8587,24,0.9034,7622,4.037,-175.641
rg,1625260630369246475,1,0.3601,0.4856,0.8157,613,-4.6387,-1.1597,4.6997,86,1.1165,0,-23.3401,28.6812,24,0.9034,7580,4.037,-175.5138
rg,1625260630369306160,1,0.3582,0.4839,0.8171,614,-2.8687,3.479,0.9766,86,1.1165,0,-23.1259,28.5941,24,0.9024,7650,4.037,-175.4322
rg,1625260630369335724,1,0.3521,0.4795,0.824,615,-2.2583,5.3711,1.0376,86,1.1175,0,-22.7107,28.5446,25,0.9034,8871,4.037,-175.3528
rg,1625260630369449979,1,0.3542,0.4697,0.8489,616,0.2441,8.4229,-2.4414,86,1.1155,0,-22.2588,28.5319,25,0.9004,7626,4.037,-175.2743
rg,1625260630369484010,1,0.3513,0.4775,0.8604,617,4.3945,9.5215,-4.3945,86,1.1185,0,-21.733,28.7079,25,0.9024,7665,4.037,-175.2478
rg,1625260630369511944,1,0.3391,0.4932,0.8491,618,6.2256,8.4229,-5.0659,86,1.1185,0,-21.2176,29.066,25,0.9014,8194,4.037,-175.3016
rg,1625260630369540248,1,0.3413,0.5264,0.8293,619,6.897,5.0049,-7.4463,86,1.1155,0,-20.8125,29.5288,24,0.8994,7791,4.037,-175.52
rg,1625260630369567736,1,0.3665,0.553,0.8169,620,5.5542,0.4272,-7.9346,86,1.1185,0,-20.6198,30.0244,24,0.8964,7721,4.037,-175.8673
rg,1625260630369594150,1,0.3921,0.5715,0.8013,621,3.479,-0.061,-8.7891,86,1.1175,0,-20.5981,30.3791,24,0.8994,7733,4.037,-176.2429
rg,1625260630369621267,1,0.4006,0.5793,0.8008,622,-1.1597,-3.479,-6.1035,86,1.1165,0,-20.6496,30.6462,24,0.8974,7719,4.037,-176.617
rg,1625260630369648311,1,0.3723,0.5569,0.8096,623,-6.2256,-2.5024,-5.4321,88,1.1195,0,-20.6251,30.6328,25,0.8974,7801,4.0392,-176.923
rg,1625260630369675540,1,0.3318,0.5359,0.7998,624,-7.6294,-7.0801,-2.4414,88,1.1175,0,-20.7503,30.5341,25,0.8964,11713,4.0392,-177.21
rg,1625260630369702306,1,0.3721,0.522,0.8035,625,-8.5449,-14.5264,0.9155,88,1.1175,0,-21.2813,30.384,25,0.8964,7852,4.0392,-177.5248
rg,1625260630369728904,1,0.3962,0.5159,0.8108,626,-8.3008,-15.0146,1.2817,88,1.1175,0,-21.8627,30.2291,25,0.8954,7935,4.0392,-177.8312
rg,1625260630369755447,1,0.4075,0.501,0.8145,627,-9.0942,-14.5874,-0.061,88,1.1175,0,-22.4065,30.0319,24,0.8954,7865,4.0392,-178.1678
rg,1625260630369783047,1,0.4211,0.4861,0.8064,628,-7.9346,-14.7705,1.2207,88,1.1175,0,-23.0181,29.8702,24,0.8944,7857,4.0392,-178.4719
rg,1625260630369830369,1,0.4333,0.4873,0.7993,629,-6.897,-15.1367,-0.5493,88,1.1175,0,-23.5962,29.7836,24,0.8934,9636,4.0392,-178.8415
rg,1625260630369969072,1,0.439,0.4893,0.79,630,-7.2632,-13.1226,-1.1597,88,1.1155,0,-24.0879,29.6964,24,0.8924,7887,4.0392,-179.1992
rg,1625260630370005124,1,0.4448,0.4827,0.7788,631,-7.0801,-10.9253,-2.2583,88,1.1185,0,-24.4869,29.6206,24,0.8924,7945,4.0392,-179.5536
rg,1625260630370036190,1,0.4468,0.4727,0.7722,632,-6.8359,-8.1787,-2.9297,88,1.1185,-0.001,-24.7767,29.5328,24,0.8944,7992,4.0392,-179.8706
rg,1625260630370068034,1,0.4492,0.4707,0.7788,633,-7.1411,-6.7749,-4.1504,88,1.1165,0.001,-24.9829,29.4319,24,0.8914,7891,4.0392,-180.2005
rg,1625260630370234707,1,0.4583,0.4619,0.7769,634,-6.4087,-4.0894,-4.7607,88,1.1185,0.001,-25.1004,29.334,24,0.8914,8068,4.0392,-180.4905
rg,1625260630370305458,1,0.4722,0.4587,0.7812,635,-6.2256,-2.4414,-5.0049,88,1.1185,0,-25.0901,29.2292,24,0.8924,7916,4.0392,-180.7458
rg,1625260630370338433,1,0.4761,0.459,0.7874,636,-5.249,1.0376,-6.1646,88,1.1155,0,-25.0261,29.142,24,0.8914,8324,4.0392,-180.9739
rg,1625260630370372817,1,0.4695,0.45,0.7971,637,-3.7231,5.6763,-8.606,88,1.1175,0,-24.7391,29.0853,24,0.8914,8118,4.0392,-181.1844
rg,1625260630370425848,1,0.4736,0.4531,0.7952,638,-1.709,6.958,-8.1177,88,1.1175,0,-24.4369,29.0998,24,0.8914,8455,4.0392,-181.353
rg,1625260630370454745,1,0.4651,0.4583,0.8066,639,0,9.8877,-9.8877,88,1.1185,0,-23.9811,29.1799,24,0.8924,8154,4.0392,-181.5243
rg,1625260630370490741,1,0.4648,0.4624,0.811,640,0.5493,10.8032,-10.437,88,1.1165,0,-23.4945,29.2808,24,0.8904,8089,4.0392,-181.6955
rg,1625260630718264610,1,0.4617,0.4807,0.8044,641,2.0142,14.2822,-11.4746,88,1.1165,0,-22.8766,29.4655,25,0.8914,25372,4.0392,-181.8458
rg,1625260630718306649,1,0.4468,0.4839,0.8105,642,1.709,14.3433,-9.9487,88,1.1175,0,-22.2752,29.6051,25,0.8924,14349,4.0392,-181.9308
rg,1625260630718326890,1,0.4458,0.4824,0.8132,643,1.9531,15.1978,-12.0239,88,1.1175,0,-21.6235,29.7634,25,0.8924,7678,4.0392,-182.068
rg,1625260630718371728,1,0.4351,0.4756,0.8135,644,1.4648,14.6484,-11.8408,88,1.1165,0,-21.0018,29.8815,25,0.8914,7696,4.0392,-182.1997
rg,1625260630718391951,1,0.4329,0.4744,0.8103,645,1.5259,14.4653,-11.2305,88,1.1175,0,-20.4079,29.9757,25,0.8924,7676,4.0392,-182.3228
rg,1625260630718410523,1,0.4246,0.4609,0.8022,646,0.9155,13.7329,-11.5967,88,1.1175,0,-19.8652,30.047,25,0.8924,11080,4.0392,-182.4524
rg,1625260630718427966,1,0.4226,0.4585,0.8118,647,1.2817,13.4277,-12.2681,88,1.1165,0,-19.3306,30.1228,25,0.8924,7677,4.0392,-182.6053
rg,1625260630718446816,1,0.4233,0.4602,0.8035,648,0.5493,13.916,-13.6108,88,1.1165,0,-18.7805,30.1905,25,0.8914,7756,4.0392,-182.7992
rg,1625260630718463647,1,0.4216,0.4641,0.802,649,0.6714,13.4277,-13.3667,88,1.1165,0,-18.2713,30.2501,25,0.8924,7767,4.0392,-183.0117
rg,1625260630718480199,1,0.4265,0.4736,0.8064,650,-1.2207,13.4888,-14.0991,88,1.1165,0,-17.7655,30.2701,25,0.8924,7740,4.0392,-183.236
rg,1625260630718498401,1,0.4182,0.4812,0.8101,651,-2.7466,14.0991,-14.5264,88,1.1175,0,-17.2274,30.2379,25,0.8924,8980,4.0392,-183.4651
rg,1625260630718516622,1,0.4126,0.4751,0.8223,652,-5.3101,11.4746,-12.3901,88,1.1175,0,-16.8265,30.0704,25,0.8924,8614,4.0392,-183.6654
rg,1625260630718534231,1,0.4097,0.4724,0.8328,653,-5.7983,11.1694,-13.5498,88,1.1155,0,-16.4169,29.8854,24,0.8914,7846,4.0392,-183.9125
rg,1625260630718551210,1,0.4009,0.4688,0.8401,654,-6.6528,8.3008,-14.2822,88,1.1185,0,-16.0876,29.6809,24,0.8904,7909,4.0392,-184.2453
rg,1625260630718568281,1,0.4116,0.4644,0.8352,655,-6.7139,4.3335,-14.2822,88,1.1185,0,-15.9365,29.5002,24,0.8924,8099,4.0392,-184.6628
rg,1625260630718585482,1,0.4172,0.4607,0.8369,656,-6.897,0.1831,-13.3057,88,1.1165,0.001,-15.9672,29.3235,24,0.8934,10394,4.0392,-185.1308
rg,1625260630718602517,1,0.417,0.46,0.8386,657,-6.897,-1.8311,-13.5498,88,1.1165,0,-16.0618,29.1648,25,0.8914,7840,4.0392,-185.6507
rg,1625260630718619810,1,0.436,0.4565,0.8247,658,-6.0425,-3.9062,-14.4653,88,1.1185,0,-16.2578,29.0772,25,0.8914,7976,4.0392,-186.251
rg,1625260630718652600,1,0.4438,0.4426,0.8193,659,-5.7983,-5.127,-14.4653,88,1.1185,0,-16.5152,28.9904,25,0.8924,8127,4.0392,-186.8717
rg,1625260630718674398,1,0.4514,0.4438,0.8176,660,-5.9814,-6.4087,-14.2212,88,1.1165,0,-16.8283,28.912,25,0.8904,8026,4.0392,-187.5127
rg,1625260630718692433,1,0.4573,0.4324,0.8079,661,-5.3711,-5.9204,-15.564,88,1.1195,0,-17.1118,28.8634,24,0.8914,8067,4.0392,-188.1911
rg,1625260630718709672,1,0.4722,0.4224,0.8059,662,-4.1504,-5.9814,-15.3198,88,1.1185,0,-17.4267,28.8488,24,0.8924,8112,4.0392,171.142
rg,1625260630718727429,1,0.4753,0.4219,0.811,663,-4.2114,-4.3945,-16.9678,88,1.1165,0,-17.6441,28.8375,24,0.8904,8100,4.0392,170.4479
rg,1625260630718745168,1,0.4856,0.4163,0.8115,664,-3.2959,-3.54,-17.5171,88,1.1185,0,-17.8345,28.855,24,0.8904,8148,4.0392,169.7537
rg,1625260630718762647,1,0.4927,0.4194,0.8108,665,-1.9531,-1.8921,-17.8223,88,1.1185,0,-17.9662,28.928,24,0.8924,8175,4.0392,169.0793
rg,1625260630718779626,1,0.5037,0.4209,0.8132,666,-1.0986,-0.4883,-17.6392,88,1.1165,0,-18.0643,29.0235,24,0.8904,8121,4.0392,168.4411
rg,1625260630718797494,1,0.5063,0.4238,0.8064,667,0.3052,1.2207,-16.4185,88,1.1185,0,-18.1313,29.1607,24,0.8904,8134,4.0392,167.8801
rg,1625260630718816085,1,0.4983,0.4226,0.801,668,0.9155,4.5166,-15.686,88,1.1155,0,-18.0845,29.2908,24,0.8924,8160,4.0392,167.4155
rg,1625260630718834213,1,0.4976,0.425,0.8054,669,1.1597,4.6997,-15.3809,88,1.1185,0,-18.0232,29.42,24,0.8924,8166,4.0392,166.9686
rg,1625260630718851804,1,0.4949,0.4309,0.8142,670,2.7466,6.6528,-15.625,88,1.1155,0,-17.8834,29.5996,24,0.8914,8246,4.0392,166.5554
rg,1625260630718869320,1,0.4912,0.4287,0.8088,671,3.418,10.0708,-15.9912,88,1.1165,0,-17.6213,29.781,24,0.8924,8262,4.0392,166.204
rg,1625260630718886873,1,0.49,0.4343,0.8086,672,3.7842,10.2539,-13.7939,88,1.1185,0,-17.3108,29.955,24,0.8924,8292,4.0392,165.9345
rg,1625260631073805081,1,0.4822,0.4329,0.8062,673,6.5308,14.2822,-14.5874,88,1.1165,0,-16.935,30.2121,24,0.8924,25451,4.0392,165.7282
rg,1625260631073878530,1,0.4656,0.4382,0.7993,674,7.0801,17.4561,-15.1978,88,1.1165,0,-16.4228,30.4838,24,0.8924,16281,4.0392,165.5685
rg,1625260631073901233,1,0.4583,0.4385,0.8047,675,6.958,18.8599,-15.9912,88,1.1165,0,-15.8469,30.7318,25,0.8924,7577,4.0392,165.4189
rg,1625260631073921249,1,0.4597,0.4448,0.8035,676,7.019,18.7988,-14.7705,88,1.1165,0,-15.3208,30.9731,25,0.8924,7635,4.0392,165.3143
rg,1625260631073943286,1,0.4919,0.4429,0.7966,677,6.8359,21.0571,-14.7705,88,1.1165,0,-14.8063,31.1884,25,0.8924,7579,4.0392,165.2628
rg,1625260631073960726,1,0.4866,0.4385,0.8027,678,6.1646,23.5596,-14.5264,88,1.1165,-0.001,-14.175,31.2871,25,0.8924,7667,4.0392,165.3543
rg,1625260631073979982,1,0.4656,0.438,0.812,679,4.9438,28.2593,-15.1978,88,1.1155,0,-13.3902,31.3523,24,0.8914,8173,4.0392,165.456
rg,1625260631074000128,1,0.4663,0.4353,0.8079,680,4.7607,29.4189,-15.0146,88,1.1175,0,-12.6064,31.4012,24,0.8914,8249,4.0392,165.5892
rg,1625260631074026706,1,0.4741,0.4302,0.8108,681,5.188,29.2969,-13.4277,88,1.1175,0,-11.807,31.4523,24,0.8944,7658,4.0392,165.7816
rg,1625260631074049743,1,0.4692,0.4365,0.8108,682,5.127,31.5552,-15.7471,88,1.1145,0,-10.9992,31.5108,24,0.8924,7691,4.0392,165.9344
rg,1625260631074066256,1,0.4568,0.4268,0.8154,683,5.7373,32.959,-15.3809,88,1.1175,0,-10.1596,31.5608,24,0.8934,7717,4.0392,166.1343
rg,1625260631074084308,1,0.4519,0.4319,0.8154,684,6.2866,32.5928,-14.8926,88,1.1155,0,-9.3634,31.6417,24,0.8924,7782,4.0392,166.3408
rg,1625260631074104621,1,0.4558,0.4392,0.8118,685,6.8359,32.2876,-14.7705,88,1.1175,0,-8.6178,31.7629,24,0.8934,7791,4.0392,166.5424
rg,1625260631074313957,1,0.4551,0.4448,0.812,686,7.5684,32.8369,-14.5874,88,1.1185,0,-7.8277,31.9253,24,0.8954,7805,4.0392,166.7531
rg,1625260631074349690,1,0.4526,0.4426,0.8171,687,7.6904,35.2783,-16.7847,88,1.1155,0,-6.986,32.0762,24,0.8934,7803,4.0392,166.9544
rg,1625260631074396988,1,0.4507,0.4421,0.8228,688,8.3618,35.3394,-15.1978,88,1.1165,0,-6.2004,32.2373,24,0.8934,8277,4.0392,167.2145
rg,1625260631074417393,1,0.4429,0.4482,0.8157,689,8.9722,36.377,-15.3809,88,1.1155,0,-5.3903,32.4323,24,0.8944,7897,4.0392,167.4942
rg,1625260631074435390,1,0.4343,0.4573,0.821,690,8.7891,37.5366,-15.564,88,1.1155,0,-4.5489,32.6309,24,0.8934,7891,4.0392,167.7929
rg,1625260631074453738,1,0.417,0.4619,0.8291,691,8.1177,38.5132,-16.4795,88,1.1175,0,-3.6469,32.7995,25,0.8954,7945,4.0392,168.0857
rg,1625260631074472883,1,0.4099,0.4624,0.8298,692,7.9956,38.5742,-16.2964,88,1.1175,0,-2.758,32.9589,25,0.8954,7930,4.0392,168.3889
rg,1625260631074491787,1,0.4058,0.4683,0.8379,693,7.6904,37.1704,-15.625,88,1.1155,0,-1.9582,33.1088,25,0.8944,7931,4.0392,168.6861
rg,1625260631074509487,1,0.3831,0.4705,0.8418,694,7.0801,36.438,-17.2729,88,1.1165,0,-1.1308,33.2335,25,0.8944,13088,4.0392,168.9141
rg,1625260631074528206,1,0.3755,0.4744,0.845,695,7.2632,35.7056,-17.2729,88,1.1165,0,-0.3487,33.37,24,0.8954,8012,4.0392,169.1273
rg,1625260631074547759,1,0.3701,0.4788,0.8491,696,7.8125,33.8135,-17.8833,88,1.1165,0,0.3762,33.5274,24,0.8954,7964,4.0392,169.2801
rg,1625260631074566830,1,0.3557,0.4856,0.8479,697,6.8359,32.1045,-18.4326,88,1.1165,-0.001,1.0585,33.6546,24,0.8954,8009,4.0392,169.3788
rg,1625260631074586234,1,0.3601,0.4834,0.8525,698,7.019,31.1279,-18.8599,88,1.1165,0,1.6897,33.787,24,0.8954,7944,4.0392,169.4431
rg,1625260631074604842,1,0.3567,0.4893,0.8594,699,7.2632,26.4282,-16.1133,88,1.1145,-0.001,2.0895,33.9164,25,0.8944,9705,4.0392,169.4949
rg,1625260631074623209,1,0.3503,0.4919,0.8564,700,6.1646,25.2075,-16.7847,88,1.1175,0,2.4604,34.0036,25,0.8944,7953,4.0392,169.4987
rg,1625260631074641557,1,0.3472,0.4917,0.853,701,5.4932,23.3154,-16.7236,88,1.1175,0,2.7577,34.0621,25,0.8964,8148,4.0392,169.4627
rg,1625260631074658775,1,0.3452,0.4973,0.8567,702,5.6763,21.4844,-16.0522,88,1.1155,-0.001,2.9763,34.1309,25,0.8964,8178,4.0392,169.4083
rg,1625260631074698641,1,0.3372,0.4885,0.8591,703,3.1738,19.8975,-16.4185,88,1.1175,-0.001,3.1567,34.0752,25,0.8944,7999,4.0392,169.3053
rg,1625260631074722438,1,0.3486,0.4888,0.8577,704,2.8076,16.6016,-15.8081,88,1.1175,0,3.1854,34.0064,25,0.8964,8202,4.0392,169.1472
rg,1625260631422041799,1,0.3464,0.4717,0.8486,705,1.9531,13.3667,-16.2964,88,1.1165,0,3.1104,33.8787,24,0.8944,25310,4.0392,168.898
rg,1625260631422080867,1,0.355,0.4656,0.8491,706,1.8311,11.9629,-16.4185,88,1.1165,0,2.9759,33.7377,24,0.8954,12936,4.0392,168.6115
rg,1625260631422101217,1,0.3586,0.4646,0.8503,707,1.8311,11.4746,-16.4185,88,1.1165,0,2.8229,33.5992,24,0.8954,7869,4.0392,168.3129
rg,1625260631422120789,1,0.3662,0.4607,0.8511,708,2.1973,11.2305,-16.4185,88,1.1165,0,2.6613,33.4628,24,0.8954,7696,4.0392,168.0045
rg,1625260631422139211,1,0.3706,0.4626,0.8474,709,2.1362,11.1694,-15.9912,88,1.1165,0,2.4737,33.3488,25,0.8954,7741,4.0392,167.7115
rg,1625260631422157763,1,0.3694,0.4622,0.8423,710,2.8076,11.2915,-13.9771,88,1.1165,-0.001,2.2513,33.2741,25,0.8964,7727,4.0392,167.4879
rg,1625260631422176593,1,0.3713,0.4629,0.8484,711,2.7466,12.2681,-15.5029,88,1.1165,0,2.1031,33.1942,25,0.8954,7586,4.0392,167.2346
rg,1625260631422195331,1,0.3728,0.4583,0.8457,712,3.1738,13.2446,-15.1367,88,1.1155,0,1.9773,33.1296,24,0.8964,9903,4.0392,167.0142
rg,1625260631422212734,1,0.374,0.4602,0.8496,713,4.0283,14.5264,-16.1743,88,1.1115,0,1.9233,33.1018,24,0.8944,7789,4.0392,166.7868
rg,1625260631422230007,1,0.3711,0.4626,0.8464,714,4.9438,15.3198,-16.0522,88,1.1175,0,1.8994,33.1203,24,0.8964,7804,4.0392,166.5809
rg,1625260631422247151,1,0.3662,0.4661,0.844,715,5.0049,15.8691,-15.625,88,1.1155,0,1.8943,33.1504,24,0.8954,7849,4.0392,166.4019
rg,1625260631422263831,1,0.3652,0.4688,0.8455,716,5.9814,15.7471,-14.9536,88,1.1165,0,1.9055,33.2223,24,0.8954,10828,4.0392,166.2393
rg,1625260631422301120,1,0.3577,0.4727,0.8452,717,6.5308,16.8457,-14.3433,88,1.1155,0,1.9242,33.3224,24,0.8954,8132,4.0392,166.1265
rg,1625260631422319969,1,0.3591,0.4824,0.8418,718,6.5308,16.7236,-14.5264,88,1.1155,0.001,1.9409,33.4408,24,0.8954,7895,4.0392,166.0069
rg,1625260631422336983,1,0.3623,0.4832,0.8411,719,6.3477,17.5781,-15.3198,88,1.1165,0,1.9968,33.5496,24,0.8964,7755,4.0392,165.8816
rg,1625260631422354349,1,0.3464,0.4863,0.8481,720,5.9814,17.8833,-15.2588,88,1.1165,0,2.0953,33.6373,25,0.8964,7951,4.0392,165.7664
rg,1625260631422371363,1,0.3545,0.4849,0.8508,721,6.0425,17.5171,-15.0757,88,1.1165,0,2.1598,33.7187,25,0.8964,8115,4.0392,165.6501
rg,1625260631422387617,1,0.3586,0.4871,0.8579,722,6.1035,17.8223,-15.1367,88,1.1165,0,2.2155,33.8063,25,0.8964,8071,4.0392,165.5398
rg,1625260631422404112,1,0.3755,0.4939,0.8533,723,5.4932,18.6157,-12.6953,88,1.1155,0,2.2243,33.8786,25,0.8954,7983,4.0392,165.5298
rg,1625260631422420718,1,0.3447,0.4824,0.8589,724,5.0659,20.9351,-13.916,88,1.1175,0,2.394,33.9025,25,0.8974,7989,4.0392,165.531
rg,1625260631422437435,1,0.3276,0.4785,0.8579,725,5.127,21.2402,-14.7705,88,1.1175,0,2.6179,33.9198,25,0.8964,8055,4.0392,165.5102
rg,1625260631422454152,1,0.3313,0.4846,0.8579,726,6.4697,18.4326,-14.7095,88,1.1115,0,2.7342,33.9988,25,0.8944,7970,4.0392,165.4286
rg,1625260631422471259,1,0.3354,0.4885,0.855,727,6.4087,17.7002,-13.5498,88,1.1155,0,2.7877,34.0842,25,0.8954,8643,4.0392,165.3704
rg,1625260631422488588,1,0.3315,0.4873,0.8523,728,6.0425,17.334,-14.4653,88,1.1155,0,2.8492,34.1685,24,0.8964,8635,4.0392,165.2983
rg,1625260631422505713,1,0.3276,0.4961,0.8523,729,5.5542,16.7847,-14.1602,88,1.1135,0,2.8981,34.2282,24,0.8944,8681,4.0392,165.202
rg,1625260631422522523,1,0.3242,0.4895,0.8499,730,5.127,16.1743,-14.5874,88,1.1135,0,2.9381,34.2572,24,0.8944,8684,4.0392,165.0779
rg,1625260631422539147,1,0.3276,0.491,0.856,731,4.5166,14.8926,-14.4043,88,1.1155,0,2.9275,34.2559,24,0.8954,8700,4.0392,164.9309
rg,1625260631422569246,1,0.332,0.4895,0.8518,732,3.54,13.7939,-13.0615,88,1.1135,0,2.8397,34.2188,25,0.8944,10639,4.0392,164.8037
rg,1625260631422587594,1,0.3423,0.4873,0.8528,733,2.9297,14.1602,-14.7095,88,1.1155,0,2.7841,34.1519,25,0.8944,8744,4.0392,164.6299
rg,1625260631422615339,1,0.3459,0.479,0.8582,734,3.1738,14.5874,-15.1367,88,1.1155,0,2.7476,34.0759,25,0.8964,8861,4.0392,164.4499
rg,1625260631422634836,1,0.3389,0.4788,0.8538,735,3.3569,14.5874,-14.7095,88,1.1165,0,2.6946,34.0302,25,0.8964,8823,4.0392,164.3029
rg,1625260631422651961,1,0.3403,0.4773,0.8604,736,4.2114,14.6484,-15.1367,88,1.1145,0,2.6745,33.9945,24,0.8944,8276,4.0392,164.1228
rg,1625260631769212706,1,0.3462,0.4604,0.8511,737,6.1035,15.686,-15.1978,88,1.1155,0,2.6689,34.0148,24,0.8954,25747,4.0392,163.9625
rg,1625260631769262820,1,0.3479,0.4709,0.8464,738,6.897,16.7847,-14.2212,88,1.1155,0,2.6753,34.0939,24,0.8954,16045,4.0392,163.8608
rg,1625260631769283281,1,0.3467,0.4705,0.8462,739,7.2021,18.5547,-14.7705,88,1.1155,0,2.7543,34.1825,24,0.8954,8646,4.0392,163.7818
rg,1625260631769302742,1,0.3425,0.4729,0.8447,740,8.2397,19.4702,-15.625,88,1.1155,0,2.8878,34.3148,24,0.8954,7605,4.0392,163.6966
rg,1625260631769322461,1,0.342,0.4785,0.8433,741,8.4229,20.3247,-13.855,91,1.1155,0,3.0066,34.4656,24,0.8954,7654,4.0315,163.6914
rg,1625260631769341143,1,0.3323,0.4729,0.8516,742,8.3008,21.1792,-14.2212,91,1.1155,0,3.2455,34.5959,24,0.8954,7626,4.0315,163.6542
rg,1625260631769359621,1,0.3362,0.4778,0.8594,743,9.0942,21.8506,-15.8081,91,1.1155,0,3.4658,34.7421,24,0.8944,8468,4.0315,163.6216
rg,1625260631769378618,1,0.3381,0.4744,0.8542,744,9.5215,22.4609,-14.9536,91,1.1155,0,3.6709,34.9016,24,0.8944,8314,4.0315,163.6327
rg,1625260631769395910,1,0.3345,0.4744,0.8564,745,10.437,23.3154,-14.5874,91,1.1165,0,3.8962,35.0914,24,0.8964,7736,4.0315,163.6772
rg,1625260631769414925,1,0.3342,0.4805,0.8625,746,10.376,23.7427,-15.0146,91,1.1135,0,4.1425,35.2767,24,0.8944,7801,4.0315,163.7203
rg,1625260631769433144,1,0.333,0.4773,0.8591,747,11.5356,24.0479,-14.6484,91,1.1145,0.001,4.3806,35.5008,24,0.8974,7796,4.0315,163.7844
rg,1625260631769484890,1,0.323,0.4822,0.8596,748,11.8408,24.9634,-15.2588,91,1.1165,0,4.6806,35.7579,24,0.8964,7721,4.0315,163.8473
rg,1625260631769507742,1,0.3206,0.4795,0.8652,749,12.7563,25.0854,-15.4419,91,1.1165,0,4.9964,36.0428,24,0.8964,8294,4.0315,163.9185
rg,1625260631769525589,1,0.3125,0.4915,0.8569,750,12.8174,25.3906,-15.3809,91,1.1125,0,5.3051,36.3198,25,0.8954,7850,4.0315,164.0025
rg,1625260631769544290,1,0.3008,0.4905,0.8562,751,11.8408,24.7803,-16.1133,91,1.1155,0,5.622,36.5428,25,0.8964,7852,4.0315,164.0514
rg,1625260631769563546,1,0.2988,0.4915,0.8511,752,11.8408,23.8647,-15.0146,91,1.1135,0,5.8732,36.7668,25,0.8944,7882,4.0315,164.1169
rg,1625260631769581320,1,0.2952,0.4978,0.8481,753,11.7798,22.8271,-15.9912,91,1.1155,0,6.1126,36.9897,25,0.8944,8096,4.0315,164.1298
rg,1625260631769599928,1,0.304,0.4968,0.8506,754,10.6201,21.8506,-15.0146,91,1.1165,0,6.2726,37.1553,25,0.8964,7911,4.0315,164.1522
rg,1625260631769618721,1,0.2937,0.4907,0.8511,755,10.6812,21.6675,-15.7471,91,1.1145,0,6.4573,37.3014,25,0.8954,7960,4.0315,164.147
rg,1625260631769637088,1,0.2983,0.4888,0.8462,756,10.1318,21.1792,-14.2822,91,1.1155,0,6.5723,37.4265,25,0.8954,8007,4.0315,164.1779
rg,1625260631769655084,1,0.3015,0.4944,0.8538,757,9.7046,21.8506,-15.686,91,1.1165,0,6.7375,37.5292,25,0.8964,8078,4.0315,164.182
rg,1625260631769672820,1,0.3059,0.4941,0.8599,758,10.0708,21.6675,-17.5781,91,1.1145,0,6.9317,37.6281,25,0.8954,8045,4.0315,164.1211
rg,1625260631769691224,1,0.3032,0.4873,0.8406,759,10.8643,21.9116,-16.9678,91,1.1165,0,7.1052,37.7667,25,0.8944,8066,4.0315,164.0873
rg,1625260631769710165,1,0.2986,0.5046,0.8577,760,10.0708,23.5596,-17.4561,91,1.1155,0,7.3584,37.8847,25,0.8964,8106,4.0315,164.0815
rg,1625260631769727828,1,0.2981,0.4934,0.8518,761,11.0474,22.1558,-17.6392,91,1.1155,0,7.5582,38.0176,25,0.8954,8122,4.0315,164.0337
rg,1625260631769745342,1,0.2952,0.5137,0.8599,762,10.6201,23.4375,-17.1509,91,1.1135,0,7.7936,38.1634,24,0.8944,8134,4.0315,164.0381
rg,1625260631769785301,1,0.2939,0.5061,0.8501,763,10.6201,23.2544,-18.3716,91,1.1155,0,8.0407,38.2952,24,0.8964,8126,4.0315,163.9999
rg,1625260631769807726,1,0.2922,0.5066,0.8501,764,9.7046,22.3999,-16.4795,91,1.1165,0,8.2135,38.4192,24,0.8964,8120,4.0315,164.0049
rg,1625260631769826241,1,0.2917,0.5129,0.8508,765,9.3994,23.6206,-18.8599,91,1.1125,0,8.4754,38.5037,24,0.8944,8159,4.0315,163.9639
rg,1625260631769844015,1,0.2688,0.5161,0.8486,766,8.8501,24.9023,-18.9819,91,1.1155,0,8.8151,38.5742,25,0.8944,8130,4.0315,163.9523
rg,1625260631769861659,1,0.2749,0.5127,0.8474,767,8.4229,24.1089,-20.4468,91,1.1165,0,9.0424,38.583,25,0.8954,8218,4.0315,163.9026
rg,1625260631769880619,1,0.2686,0.5159,0.8643,768,8.2397,22.9492,-18.8599,91,1.1135,0,9.3053,38.6004,25,0.8944,8236,4.0315,163.8407
rg,1625260632116952353,1,0.2593,0.5027,0.8337,769,8.667,21.7896,-19.043,91,1.1135,0,9.5289,38.6382,25,0.8944,26244,4.0315,163.7442
rg,1625260632117035820,1,0.2639,0.5171,0.8555,770,8.2397,19.8975,-19.165,91,1.1145,0,9.6924,38.6506,25,0.8944,14674,4.0315,163.5953
rg,1625260632117057576,1,0.2632,0.5093,0.8425,771,7.8735,20.0806,-18.3716,91,1.1145,0,9.8487,38.6629,25,0.8944,7703,4.0315,163.4771
rg,1625260632117077257,1,0.2537,0.5156,0.8577,772,7.2632,20.752,-17.9443,91,1.1145,0,10.0174,38.639,25,0.8934,7661,4.0315,163.386
rg,1625260632117102756,1,0.2458,0.5129,0.863,773,7.2632,20.3857,-18.6768,91,1.1145,0,10.2038,38.5981,25,0.8944,7704,4.0315,163.259
rg,1625260632117123067,1,0.2505,0.5166,0.8574,774,8.2397,20.0195,-18.0664,91,1.1145,0,10.3462,38.6128,25,0.8934,7728,4.0315,163.143
rg,1625260632117143267,1,0.2534,0.5254,0.8584,775,8.0566,20.1416,-18.1885,91,1.1145,0,10.4868,38.6348,25,0.8924,9321,4.0315,163.0285
rg,1625260632117162206,1,0.2451,0.5278,0.8589,776,8.2397,19.7144,-18.5547,91,1.1155,0,10.635,38.6624,25,0.8944,7741,4.0315,162.8916
rg,1625260632117180849,1,0.2383,0.5161,0.8538,777,7.8735,19.3481,-19.043,91,1.1125,0,10.7877,38.6528,25,0.8924,7789,4.0315,162.7262
rg,1625260632117198102,1,0.2417,0.5225,0.8486,778,7.9956,18.6157,-18.9819,91,1.1155,0,10.9031,38.6633,25,0.8924,7763,4.0315,162.5466
rg,1625260632117238501,1,0.2358,0.5408,0.8596,779,8.1787,18.3716,-17.5781,91,1.1155,0,10.9911,38.7085,25,0.8944,7827,4.0315,162.4089
rg,1625260632117258478,1,0.2495,0.5234,0.8535,780,7.5073,16.3574,-18.0054,91,1.1125,0,10.9917,38.6886,24,0.8914,7870,4.0315,162.2015
rg,1625260632117275861,1,0.2395,0.5544,0.8586,781,8.9111,18.2495,-17.2729,91,1.1155,0,11.0603,38.7898,24,0.8904,7853,4.0315,162.0753
rg,1625260632117293448,1,0.26,0.5398,0.8479,782,7.6904,16.8457,-17.6392,91,1.1155,-0.001,11.0538,38.785,24,0.8944,7899,4.0315,161.9131
rg,1625260632117313684,1,0.2656,0.5571,0.8621,783,6.4697,15.9912,-15.564,91,1.1125,0,10.9599,38.787,24,0.8914,7738,4.0315,161.7845
rg,1625260632117333587,1,0.2322,0.5173,0.8516,784,5.5542,20.2026,-17.0288,91,1.1145,0,11.0887,38.7005,24,0.8934,7920,4.0315,161.7053
rg,1625260632117351545,1,0.2083,0.5308,0.8718,785,5.9814,21.9116,-16.8457,91,1.1135,0,11.2185,38.7156,24,0.8914,7960,4.0315,161.6271
rg,1625260632117368927,1,0.2329,0.5427,0.8687,786,8.4839,18.1885,-17.1509,91,1.1135,0,11.2884,38.7649,24,0.8914,12182,4.0315,161.4958
rg,1625260632117387385,1,0.2302,0.5574,0.865,787,9.5825,17.7002,-17.2729,91,1.1135,0,11.3304,38.8616,24,0.8914,8109,4.0315,161.3196
rg,1625260632117405046,1,0.2444,0.5574,0.8733,788,9.0332,18.7378,-16.8457,91,1.1135,0,11.4434,38.9981,24,0.8914,8019,4.0315,161.224
rg,1625260632117423040,1,0.2153,0.5564,0.8525,789,9.5215,20.5078,-17.6392,91,1.1135,0,11.6204,39.1305,24,0.8914,8005,4.0315,161.1474
rg,1625260632117439440,1,0.2214,0.5471,0.8591,790,9.5825,18.1885,-16.4185,91,1.1135,0,11.6776,39.2313,24,0.8914,8223,4.0315,161.0451
rg,1625260632117458472,1,0.2209,0.5649,0.8474,791,10.2539,18.5547,-16.7236,91,1.1145,0,11.7519,39.4023,25,0.8924,8215,4.0315,160.953
rg,1625260632117478450,1,0.2229,0.5581,0.8623,792,9.3994,18.3716,-16.0522,91,1.1125,0,11.8014,39.5056,25,0.8904,8062,4.0315,160.8723
rg,1625260632117496147,1,0.2251,0.5566,0.8462,793,9.8267,18.1885,-15.1367,91,1.1135,0,11.8099,39.6443,25,0.8914,8080,4.0315,160.8199
rg,1625260632117528745,1,0.2124,0.572,0.8506,794,9.3384,18.9209,-15.9912,91,1.1145,0,11.8916,39.779,25,0.8924,8123,4.0315,160.7655
rg,1625260632117546832,1,0.21,0.5645,0.8525,795,9.2163,18.7988,-15.8691,91,1.1125,0,11.9676,39.8876,25,0.8904,8189,4.0315,160.7093
rg,1625260632117564566,1,0.2058,0.5667,0.842,796,8.4839,18.7988,-15.5029,91,1.1145,0,12.0365,39.9823,25,0.8904,8155,4.0315,160.6687
rg,1625260632117582227,1,0.2117,0.5706,0.8406,797,8.606,16.4795,-15.625,91,1.1145,0,12.0241,40.0743,25,0.8924,8223,4.0315,160.5657
rg,1625260632117599387,1,0.2014,0.5764,0.8569,798,7.9956,17.2119,-14.8315,91,1.1145,0,12.0421,40.1435,25,0.8924,8245,4.0315,160.5067
rg,1625260632117616307,1,0.2107,0.5757,0.8667,799,7.3853,15.3198,-14.5264,91,1.1135,0,11.978,40.1586,25,0.8914,8236,4.0315,160.4037
rg,1625260632117633986,1,0.2039,0.5803,0.8494,800,7.019,16.1133,-16.0522,91,1.1145,0,11.9879,40.1825,24,0.8924,8299,4.0315,160.2806
rg,1625260632470698784,1,0.2241,0.574,0.8328,801,6.5308,16.6626,-13.9771,91,1.1135,0,12.0096,40.1882,24,0.8924,25684,4.0315,160.2584
rg,1625260632470751859,1,0.1934,0.5735,0.8579,802,5.0049,16.0522,-15.7471,91,1.1135,0,12.0308,40.1087,24,0.8914,10695,4.0315,160.1383
rg,1625260632470771558,1,0.1899,0.5952,0.8457,803,4.6387,13.7329,-14.3433,91,1.1135,0,11.9507,40.0685,24,0.8924,7577,4.0315,160.0116
rg,1625260632470790849,1,0.2061,0.582,0.8525,804,3.9062,12.5122,-14.4653,91,1.1135,0.001,11.8161,39.9381,24,0.8924,7654,4.0315,159.8376
rg,1625260632470808269,1,0.1914,0.5791,0.8579,805,4.6997,12.3901,-14.7705,91,1.1135,0,11.7117,39.8528,24,0.8924,9581,4.0315,159.6529
rg,1625260632470825022,1,0.1904,0.5894,0.8555,806,4.3335,11.5967,-15.0757,91,1.1135,0,11.5973,39.7719,24,0.8924,7680,4.0315,159.4423
rg,1625260632470841441,1,0.2007,0.5784,0.8606,807,3.9062,9.7656,-14.9536,91,1.1135,0,11.4074,39.643,24,0.8924,7838,4.0315,159.1826
rg,1625260632470902707,1,0.2026,0.5811,0.8521,808,3.8452,8.2397,-13.916,91,1.1135,0,11.1444,39.5317,24,0.8924,11757,4.0315,158.9193
rg,1625260632470920905,1,0.207,0.5745,0.8513,809,2.9297,8.606,-13.916,91,1.1135,0,10.8917,39.3802,25,0.8924,7726,4.0315,158.6643
rg,1625260632470938084,1,0.2061,0.5815,0.8545,810,3.2959,8.3008,-14.0381,91,1.1135,0,10.6457,39.2567,25,0.8924,7743,4.0315,158.3998
rg,1625260632470954503,1,0.2083,0.5784,0.8528,811,2.8076,8.7891,-14.6484,91,1.1135,0,10.433,39.1148,25,0.8924,7771,4.0315,158.1287
rg,1625260632470970811,1,0.2114,0.5745,0.8516,812,2.8687,8.3008,-14.5264,91,1.1135,0,10.1493,38.9761,25,0.8934,7756,4.0315,157.8642
rg,1625260632470987600,1,0.2134,0.5779,0.8508,813,3.2349,8.606,-14.1602,91,1.1115,0,9.9249,38.8677,24,0.8914,8437,4.0315,157.6051
rg,1625260632471004761,1,0.2178,0.572,0.8459,814,2.4414,9.0942,-13.7329,91,1.1155,0,9.7012,38.7328,24,0.8934,7812,4.0315,157.3717
rg,1625260632471021606,1,0.2188,0.5684,0.844,815,2.6855,9.2163,-13.5498,91,1.1145,0,9.4763,38.6232,24,0.8934,7833,4.0315,157.1488
rg,1625260632471038377,1,0.2214,0.5703,0.845,816,2.5024,10.376,-14.0381,91,1.1135,0,9.3078,38.5036,24,0.8924,7977,4.0315,156.9386
rg,1625260632471054704,1,0.2095,0.5632,0.8455,817,2.2583,11.1084,-12.6343,91,1.1135,0,9.1555,38.3755,25,0.8944,7920,4.0315,156.789
rg,1625260632471071197,1,0.2102,0.5693,0.8477,818,2.5024,10.6201,-13.1226,91,1.1145,0,9.0059,38.2664,25,0.8944,7899,4.0315,156.6129
rg,1625260632471087116,1,0.2141,0.5645,0.853,819,2.7466,11.3525,-12.3291,91,1.1145,0,8.8579,38.163,25,0.8924,7938,4.0315,156.4778
rg,1625260632471103034,1,0.2063,0.5557,0.856,820,2.8076,11.2915,-12.9395,91,1.1145,0,8.7433,38.0431,25,0.8934,7919,4.0315,156.3186
rg,1625260632471119138,1,0.2053,0.561,0.8516,821,2.9297,11.2915,-13.7939,91,1.1125,0,8.6551,37.9439,25,0.8924,7929,4.0315,156.1343
rg,1625260632471135224,1,0.2021,0.5576,0.8496,822,3.418,11.2915,-12.5732,91,1.1135,0,8.545,37.87,25,0.8934,7958,4.0315,155.988
rg,1625260632471162299,1,0.2078,0.5576,0.8494,823,3.2959,12.0239,-13.9771,91,1.1135,0,8.4849,37.7908,25,0.8944,7987,4.0315,155.8151
rg,1625260632471179255,1,0.2039,0.5591,0.8608,824,3.1128,12.0239,-13.4888,91,1.1115,0,8.4269,37.6984,25,0.8934,7984,4.0315,155.6558
rg,1625260632471195322,1,0.1951,0.5564,0.8528,825,2.6855,12.085,-13.916,91,1.1125,0,8.3976,37.5953,25,0.8924,8355,4.0315,155.4845
rg,1625260632471211667,1,0.197,0.5598,0.8499,826,3.0518,11.1084,-13.4888,91,1.1135,0,8.3237,37.5192,25,0.8924,8064,4.0315,155.3037
rg,1625260632471227586,1,0.2024,0.5569,0.854,827,3.1128,10.2539,-13.7939,91,1.1155,0,8.2227,37.434,25,0.8954,8172,4.0315,155.0903
rg,1625260632471243894,1,0.2024,0.5625,0.8508,828,3.3569,10.1318,-13.4888,91,1.1125,-0.001,8.114,37.3773,25,0.8934,8072,4.0315,154.8856
rg,1625260632471261647,1,0.2068,0.5593,0.854,829,2.9297,9.2773,-13.3667,91,1.1135,0,7.9706,37.2942,25,0.8934,7972,4.0315,154.6625
rg,1625260632471278511,1,0.2102,0.5652,0.8496,830,2.3193,8.7891,-13.3057,91,1.1155,0,7.8082,37.2053,25,0.8944,8168,4.0315,154.4317
rg,1625260632471295505,1,0.2095,0.5623,0.8494,831,2.2583,8.1787,-12.2681,91,1.1135,0,7.6079,37.1154,25,0.8954,8161,4.0315,154.2186
rg,1625260632471312442,1,0.2153,0.5591,0.8579,832,2.4414,9.2773,-13.855,91,1.1115,0,7.4783,37.0178,25,0.8934,8205,4.0315,153.9795
rg,1625260632821825240,1,0.2109,0.5564,0.8457,833,2.5635,9.3384,-12.6953,91,1.1135,0,7.3314,36.944,25,0.8934,25534,4.0315,153.7802
rg,1625260632821866714,1,0.2153,0.5559,0.8376,834,3.0518,10.3149,-13.0005,91,1.1135,0,7.2163,36.9039,25,0.8944,16954,4.0315,153.596
rg,1625260632821887321,1,0.2175,0.5544,0.8462,835,3.2349,9.5825,-12.3291,91,1.1135,0,7.0672,36.8638,25,0.8944,7662,4.0315,153.4225
rg,1625260632821906390,1,0.2246,0.5559,0.8545,836,2.9907,10.2539,-12.8174,91,1.1135,0,6.9427,36.8054,25,0.8944,7675,4.0315,153.2404
rg,1625260632821948754,1,0.2202,0.5581,0.8499,837,3.54,10.437,-12.3291,91,1.1135,0,6.8245,36.7834,25,0.8944,7719,4.0315,153.0797
rg,1625260632821968064,1,0.2188,0.5557,0.8557,838,3.0518,10.5591,-12.3901,91,1.1135,0,6.7206,36.7317,25,0.8944,7691,4.0315,152.9187
rg,1625260632821987170,1,0.2158,0.5549,0.8599,839,3.7842,10.1318,-12.6953,91,1.1115,0,6.6214,36.7026,24,0.8934,9882,4.0315,152.7368
rg,1625260632822005627,1,0.2117,0.5552,0.8474,840,3.8452,9.7656,-11.5967,91,1.1155,0,6.492,36.6958,24,0.8934,7726,4.0315,152.5833
rg,1625260632822024252,1,0.2126,0.5544,0.8486,841,3.418,10.5591,-12.8174,91,1.1145,0,6.442,36.6678,24,0.8954,7748,4.0315,152.3924
rg,1625260632822041616,1,0.2117,0.5569,0.8486,842,2.7466,10.6812,-13.6108,91,1.1135,0,6.3973,36.6157,24,0.8944,7780,4.0315,152.1965
rg,1625260632822059073,1,0.2139,0.5566,0.8481,843,3.2959,10.3149,-12.6953,91,1.1125,0,6.3159,36.5902,25,0.8944,9900,4.0315,152.0211
rg,1625260632822076937,1,0.207,0.5564,0.8501,844,3.1738,10.498,-12.085,91,1.1145,0,6.2434,36.5607,25,0.8954,7857,4.0315,151.8696
rg,1625260632822093912,1,0.2073,0.5581,0.8452,845,3.1738,9.7046,-12.3901,91,1.1145,0,6.1489,36.5337,25,0.8954,7850,4.0315,151.6895
rg,1625260632822113019,1,0.2112,0.5566,0.8496,846,3.1128,9.6436,-12.6343,91,1.1115,0,6.0597,36.5014,25,0.8944,7842,4.0315,151.4999
rg,1625260632822131995,1,0.2178,0.5564,0.8525,847,3.0518,9.7046,-11.9019,91,1.1145,0,5.9459,36.4671,25,0.8964,7861,4.0315,151.335
rg,1625260632822151435,1,0.2139,0.5676,0.8511,848,3.1128,10.1318,-13.3667,91,1.1145,0,5.8946,36.4551,25,0.8964,7902,4.0315,151.1354
rg,1625260632822169318,1,0.219,0.5613,0.856,849,2.9297,9.9487,-12.4512,91,1.1145,0,5.8076,36.4217,25,0.8944,7925,4.0315,150.9593
rg,1625260632822187071,1,0.2122,0.5588,0.8459,850,2.8687,10.1929,-12.4512,91,1.1145,0,5.7414,36.3955,25,0.8954,7978,4.0315,150.7897
rg,1625260632822204436,1,0.2129,0.5542,0.8542,851,2.8687,11.1694,-13.4888,91,1.1125,0,5.734,36.3508,25,0.8944,7968,4.0315,150.608
rg,1625260632822239405,1,0.2097,0.5642,0.845,852,2.8687,10.9863,-13.1836,91,1.1155,0,5.719,36.3379,25,0.8954,8011,4.0315,150.4345
rg,1625260632822259289,1,0.2075,0.5525,0.8499,853,2.7466,10.1318,-12.4512,91,1.1145,0,5.6635,36.2936,25,0.8954,8001,4.0315,150.2614
rg,1625260632822277358,1,0.2075,0.5562,0.8484,854,3.1128,10.8032,-12.146,91,1.1125,0,5.6245,36.2768,25,0.8944,8032,4.0315,150.1149
rg,1625260632822294796,1,0.2117,0.5635,0.8479,855,3.3569,10.5591,-12.085,91,1.1135,0,5.5977,36.2616,25,0.8954,10862,4.0315,149.9576
rg,1625260632822312994,1,0.2102,0.5583,0.8525,856,3.7842,10.376,-11.8408,91,1.1135,0,5.5367,36.272,25,0.8954,8078,4.0315,149.8106
rg,1625260632822330488,1,0.2122,0.5598,0.8521,857,3.1738,10.2539,-12.146,91,1.1135,0,5.4774,36.2599,25,0.8954,8106,4.0315,149.6514
rg,1625260632822348353,1,0.2151,0.5608,0.8459,858,3.2349,11.5356,-13.1226,91,1.1135,0,5.4596,36.2518,25,0.8954,8191,4.0315,149.4824
rg,1625260632822365698,1,0.2129,0.5642,0.8499,859,3.1738,10.5591,-13.1226,91,1.1135,0,5.4349,36.249,25,0.8964,8202,4.0315,149.2999
rg,1625260632822383359,1,0.2087,0.5593,0.8506,860,3.2959,10.437,-11.5967,91,1.1135,0,5.3787,36.2458,25,0.8954,8391,4.0315,149.1629
rg,1625260632822400686,1,0.2126,0.5588,0.8503,861,3.1738,10.3149,-12.5732,91,1.1145,0,5.3357,36.2343,25,0.8974,8708,4.0315,148.9915
rg,1625260632822417643,1,0.2097,0.5547,0.8538,862,3.479,10.6812,-12.146,82,1.1135,0,5.3008,36.2371,25,0.8964,8252,4.0403,148.8427
rg,1625260632822434988,1,0.2114,0.5647,0.8508,863,3.2959,10.5591,-13.1226,82,1.1145,0,5.2853,36.2411,24,0.8974,9941,4.0403,148.6605
rg,1625260632822452593,1,0.2117,0.5618,0.8521,864,3.418,11.1084,-12.8174,82,1.1125,0,5.2803,36.2439,24,0.8954,8287,4.0403,148.5006
rg,1625260633168607098,1,0.2136,0.5608,0.8447,865,3.418,10.437,-12.8174,82,1.1135,0,5.2471,36.2524,24,0.8964,25559,4.0403,148.3254
rg,1625260633168646252,1,0.2102,0.5569,0.8433,866,3.6621,10.437,-12.207,82,1.1135,-0.001,5.2065,36.2668,24,0.8964,14435,4.0403,148.1696
rg,1625260633168682090,1,0.2124,0.5671,0.8486,867,3.6621,11.1694,-13.2446,82,1.1135,0,5.2151,36.2915,24,0.8964,7481,4.0403,147.9989
rg,1625260633168703010,1,0.2119,0.5613,0.8472,868,3.2349,11.1694,-12.4512,82,1.1135,0,5.2039,36.2916,25,0.8964,7716,4.0403,147.8534
rg,1625260633168722096,1,0.209,0.5679,0.8511,869,3.0518,11.3525,-12.7563,82,1.1135,0,5.215,36.291,25,0.8964,7706,4.0403,147.7029
rg,1625260633168740218,1,0.2104,0.5613,0.8528,870,3.6011,10.8032,-12.8784,82,1.1135,0,5.2071,36.2968,25,0.8964,7700,4.0403,147.5342
rg,1625260633168757970,1,0.2131,0.5627,0.8516,871,2.9907,10.9863,-13.6108,82,1.1125,0,5.2171,36.2805,25,0.8954,11455,4.0403,147.3465
rg,1625260633168775722,1,0.2012,0.5591,0.8516,872,3.479,11.1084,-12.3291,82,1.1145,0,5.224,36.2814,25,0.8974,7688,4.0403,147.2024
rg,1625260633168793844,1,0.2104,0.5627,0.8474,873,3.6011,11.0474,-13.1226,82,1.1145,0,5.2323,36.2791,25,0.8974,7712,4.0403,147.0307
rg,1625260633168810985,1,0.209,0.5667,0.8557,874,2.9907,10.498,-13.0615,82,1.1135,0,5.2234,36.266,25,0.8954,7709,4.0403,146.8492
rg,1625260633168828143,1,0.2117,0.5664,0.8499,875,2.9907,10.8032,-13.1836,82,1.1145,0,5.2199,36.2604,25,0.8974,7734,4.0403,146.6715
rg,1625260633168847470,1,0.2092,0.5605,0.8503,876,2.9297,10.437,-12.9395,82,1.1125,0,5.2029,36.2412,25,0.8954,7752,4.0403,146.4919
rg,1625260633168865778,1,0.2119,0.5696,0.8433,877,3.2349,10.2539,-13.0615,82,1.1135,0,5.1601,36.2458,25,0.8964,7917,4.0403,146.3177
rg,1625260633168883233,1,0.207,0.5613,0.8542,878,2.3804,10.6201,-13.6719,82,1.1135,-0.001,5.1744,36.2003,25,0.8974,7879,4.0403,146.1185
rg,1625260633168902115,1,0.2144,0.5659,0.8479,879,2.1973,10.8643,-13.6108,82,1.1135,0,5.1783,36.1661,25,0.8974,7649,4.0403,145.9282
rg,1625260633168919682,1,0.2107,0.5591,0.8472,880,2.1973,10.6812,-13.3057,82,1.1135,0,5.1309,36.1215,25,0.8964,7905,4.0403,145.741
rg,1625260633168937007,1,0.2092,0.5581,0.8494,881,2.5024,10.3149,-12.8174,82,1.1135,-0.001,5.1128,36.0937,25,0.8974,9711,4.0403,145.5619
rg,1625260633168980831,1,0.2109,0.5562,0.8528,882,2.6245,9.5215,-12.146,82,1.1135,0,5.0475,36.0586,25,0.8974,8712,4.0403,145.3843
rg,1625260633169085359,1,0.2141,0.5618,0.8535,883,2.5024,10.498,-13.1226,82,1.1145,-0.001,5.0341,36.0287,25,0.8954,8451,4.0403,145.1989
rg,1625260633169116100,1,0.2109,0.5576,0.8494,884,2.9297,10.1318,-12.8784,82,1.1135,0,5.0242,36.0056,25,0.8984,7827,4.0403,145.0518
rg,1625260633169145730,1,0.2109,0.5627,0.8491,885,3.2349,10.498,-13.7329,82,1.1125,0,5.0311,36.0123,25,0.8964,8045,4.0403,144.8469
rg,1625260633169164723,1,0.2053,0.5586,0.8513,886,2.4414,10.6201,-13.6108,82,1.1145,0,5.05,35.9773,25,0.8974,8000,4.0403,144.6479
rg,1625260633169192870,1,0.2068,0.5586,0.8477,887,2.5024,11.2305,-13.4277,82,1.1145,0,5.0596,35.9559,25,0.8974,8051,4.0403,144.455
rg,1625260633169226706,1,0.2129,0.5581,0.8523,888,3.1128,11.0474,-13.855,82,1.1125,0,5.0815,35.948,25,0.8964,8077,4.0403,144.2575
rg,1625260633169257892,1,0.2087,0.5574,0.8464,889,3.0518,10.2539,-12.5122,82,1.1145,0,5.0519,35.9458,25,0.8954,8105,4.0403,144.0852
rg,1625260633169276182,1,0.2107,0.5583,0.8452,890,3.0518,10.9863,-12.8784,82,1.1155,0,5.0441,35.9528,25,0.8984,8118,4.0403,143.8953
rg,1625260633169293896,1,0.208,0.5627,0.8511,891,3.418,10.6201,-13.1836,82,1.1125,0,5.0478,35.9681,25,0.8964,8140,4.0403,143.7104
rg,1625260633169311185,1,0.2122,0.5603,0.844,892,3.54,10.6201,-13.1226,82,1.1155,0,5.0384,35.9922,25,0.8964,8182,4.0403,143.528
rg,1625260633169329585,1,0.2136,0.5608,0.8489,893,3.3569,11.4746,-12.4512,82,1.1155,0,5.0399,36.0067,25,0.8964,8158,4.0403,143.3873
rg,1625260633169346948,1,0.2134,0.5627,0.8494,894,3.418,10.376,-12.146,82,1.1135,0,5,36.0247,25,0.8964,8191,4.0403,143.231
rg,1625260633169373446,1,0.2124,0.5579,0.8477,895,3.1738,11.3525,-13.6108,82,1.1145,0,5.0279,36.0233,25,0.8964,8250,4.0403,143.0498
rg,1625260633169393291,1,0.2153,0.5576,0.8469,896,3.2959,11.4746,-12.8174,82,1.1155,0,5.0337,36.0297,25,0.8984,8260,4.0403,142.8973
