name,time,activity,ax,ay,az,batch_val,gx,gy,gz,ibat,index,middle,pitch,roll,temp,thumb,ts,vbat,yaw
lg,1625310062036902452,0,0.4243,-0.053,0.9399,1,3.418,-15.4419,19.2871,71,1.4907,1.4597,-29.0242,-10.0226,27,0.1161,20304,3.9721,33.6612
lg,1625310062036953415,0,0.4026,-0.0508,0.9543,2,3.2959,-12.2681,17.1509,71,1.4907,1.4617,-29.1417,-10.021,27,0.1161,9060,3.9721,34.3893
lg,1625310062036983137,0,0.4019,-0.063,0.9495,3,2.3193,-12.6343,16.7847,71,1.4917,1.4627,-29.2716,-10.0848,28,0.1161,8488,3.9721,35.1196
lg,1625310062037010896,0,0.3821,-0.083,0.9585,4,1.4038,-13.1836,16.3574,71,1.4927,1.4617,-29.3692,-10.2232,28,0.1161,8614,3.9721,35.8573
lg,1625310062037037822,0,0.3904,-0.1011,0.9683,5,1.2207,-11.7188,15.7471,71,1.4917,1.4637,-29.4141,-10.3879,28,0.1161,8541,3.9721,36.5749
lg,1625310062037063933,0,0.4177,-0.0815,0.9941,6,3.7842,-8.7891,13.9771,71,1.4917,1.4627,-29.3908,-10.3411,28,0.1161,8689,3.9721,37.16
lg,1625310062037090637,0,0.4199,-0.0542,0.9951,7,2.9907,-4.8828,11.2915,71,1.4917,1.4617,-29.2435,-10.1864,27,0.1161,8608,3.9721,37.5596
lg,1625310062037117045,0,0.4143,-0.0588,0.9824,8,1.709,0.8545,12.0239,71,1.4917,1.4627,-28.8712,-10.0934,27,0.1161,8590,3.9721,37.9545
lg,1625310062037143045,0,0.4033,-0.0454,0.989,9,0.7324,3.1738,10.6812,71,1.4927,1.4627,-28.4084,-9.9678,27,0.1171,8575,3.9721,38.2561
lg,1625310062037170674,0,0.4043,-0.0378,1.0059,10,-1.5259,3.2349,13.1226,71,1.4927,1.4637,-27.9347,-9.9657,27,0.1161,8586,3.9721,38.6601
lg,1625310062037198174,0,0.4163,-0.0637,0.9932,11,-3.6011,3.9062,14.3433,71,1.4917,1.4637,-27.4731,-10.1291,28,0.1161,8677,3.9721,39.1433
lg,1625310062037224563,0,0.4307,-0.0789,0.9902,12,-4.5776,5.9814,14.3433,71,1.4937,1.4627,-26.9746,-10.3494,28,0.1161,8764,3.9721,39.6229
lg,1625310062037250045,0,0.4351,-0.0811,0.9832,13,-5.9204,11.7798,14.4653,71,1.4927,1.4627,-26.28,-10.5963,28,0.1161,10528,3.9721,40.0573
lg,1625310062037276063,0,0.4116,-0.0786,0.9839,14,-6.0425,15.5029,14.5264,71,1.4937,1.4627,-25.291,-10.804,28,0.1171,8728,3.9721,40.4734
lg,1625310062037301637,0,0.3821,-0.0808,0.9727,15,-5.0049,17.7612,15.2588,71,1.4927,1.4637,-24.3248,-10.9697,28,0.1161,8735,3.9721,40.8781
lg,1625310062037326804,0,0.3689,-0.0735,0.9746,16,-5.5542,13.7329,15.3809,71,1.4937,1.4647,-23.5254,-11.1397,28,0.1171,8759,3.9721,41.3097
lg,1625310062037352822,0,0.3916,-0.0974,0.9692,17,-6.4697,7.8125,16.1743,71,1.4937,1.4637,-23.027,-11.4252,28,0.1171,8793,3.9721,41.8455
lg,1625310062037378859,0,0.3879,-0.1184,0.9751,18,-6.8359,4.2725,16.1133,71,1.4937,1.4627,-22.669,-11.7661,28,0.1171,8798,3.9721,42.4209
lg,1625310062037403952,0,0.3997,-0.1531,0.9841,19,-6.897,3.0518,18.0664,71,1.4927,1.4637,-22.4335,-12.1795,28,0.1171,8855,3.9721,43.103
lg,1625310062037428859,0,0.4189,-0.1265,0.9968,20,-4.7607,7.6904,16.6626,71,1.4927,1.4617,-21.9973,-12.4098,28,0.1171,8839,3.9721,43.659
lg,1625310062037453211,0,0.4263,-0.1172,0.9929,21,-3.8452,10.9863,14.7705,71,1.4907,1.4637,-21.4838,-12.5293,28,0.1171,8867,3.9721,44.0922
lg,1625310062037478359,0,0.3923,-0.1174,0.9851,22,-3.6011,13.0615,14.8315,71,1.4937,1.4637,-20.8488,-12.6235,28,0.1171,8950,3.9721,44.5059
lg,1625310062037503433,0,0.375,-0.0989,0.9937,23,-2.5635,14.3433,13.4277,71,1.4937,1.4637,-20.1634,-12.5971,28,0.1171,8884,3.9721,44.8316
lg,1625310062037528322,0,0.3567,-0.093,0.9854,24,-2.7466,12.6953,14.3433,71,1.4947,1.4637,-19.5261,-12.5775,28,0.1171,8952,3.9721,45.2075
lg,1625310062037552971,0,0.3354,-0.0762,0.9963,25,-4.0283,8.3008,15.0757,71,1.4937,1.4637,-19.0359,-12.5898,27,0.1171,8978,3.9721,45.6432
lg,1625310062037577674,0,0.3289,-0.0776,0.9939,26,-5.3101,-2.0142,18.3716,71,1.4957,1.4637,-18.9245,-12.7287,27,0.1171,9223,3.9721,46.3131
lg,1625310062037603045,0,0.3691,-0.0715,0.9927,27,-4.9438,-9.7046,17.8223,71,1.4957,1.4647,-19.2031,-12.8553,27,0.1171,9144,3.9721,47.0285
lg,1625310062037628100,0,0.394,-0.0732,1.0007,28,-5.6152,-11.2915,19.4092,71,1.4957,1.4647,-19.5593,-13.0398,27,0.1171,9119,3.9721,47.8252
lg,1625310062037653896,0,0.4355,-0.0688,1.0149,29,-5.3711,-4.5776,18.9819,61,1.4947,1.4647,-19.7119,-13.1764,28,0.1181,8921,3.982,48.5345
lg,1625310062037678711,0,0.439,-0.0647,1.0444,30,-4.8218,1.0986,19.8364,61,1.4957,1.4657,-19.6371,-13.1912,28,0.1171,9245,3.982,49.191
lg,1625310062037703637,0,0.439,-0.0022,1.0261,31,-4.5166,14.4653,17.7002,61,1.4957,1.4647,-19.0675,-13.0635,28,0.1171,8996,3.982,49.6108
lg,1625310062037728193,0,-0.3784,-0.7061,0.8618,32,21.0571,69.7632,-15.5029,192,1.4577,1.4477,-15.1779,-12.837,28,0.1271,14286,3.8401,48.653
lg,1625310062413554285,0,-0.1882,-0.7622,0.6851,33,4.0894,-41.1377,-24.5361,192,1.4637,1.4387,-15.4115,-14.413,28,0.1241,26668,3.8401,49.1676
lg,1625310062413605581,0,-0.0508,-0.8228,0.7178,34,-1.9531,-17.0288,4.2114,192,1.4627,1.4347,-14.8074,-16.0129,28,0.1231,9430,3.8401,49.8222
lg,1625310062413627100,0,-0.0989,-0.8613,0.8115,35,-16.1133,15.7471,15.0757,192,1.4637,1.4307,-13.2651,-17.9348,28,0.1241,8596,3.8401,50.5194
lg,1625310062413646674,0,-0.2061,-0.7075,0.79,36,-12.3291,26.9775,28.7476,192,1.4637,1.4307,-10.9844,-19.5027,28,0.1251,7888,3.8401,51.4788
lg,1625310062413666007,0,-0.3577,-0.6626,0.7209,37,-19.165,1.8921,31.9214,192,1.4647,1.4347,-9.3265,-21.3178,28,0.1261,8651,3.8401,52.8122
lg,1625310062413684915,0,-0.3291,-0.8047,0.7009,38,-33.9966,-57.4951,44.6167,192,1.4647,1.4387,-9.7735,-24.1107,28,0.1271,8622,3.8401,55.5262
lg,1625310062413702767,0,-0.1536,-0.772,0.6528,39,-32.959,-79.0405,48.4619,192,1.4627,1.4427,-11.6062,-27.022,28,0.1281,8634,3.8401,59.1654
lg,1625310062413721044,0,-0.0691,-0.7737,0.6379,40,-33.2031,-99.4873,51.9409,192,1.4597,1.4447,-13.5254,-30.0163,28,0.1281,9743,3.8401,63.1117
lg,1625310062413738655,0,0.2095,-0.6941,0.7559,41,-25.1465,-90.3931,43.335,192,1.4587,1.4427,-15.6338,-32.3834,28,0.1281,9279,3.8401,66.6966
lg,1625310062413756248,0,0.1182,-0.8042,0.5327,42,-19.2871,-41.9312,25.0244,192,1.4597,1.4407,-16.177,-34.6008,28,0.1281,8727,3.8401,68.7811
lg,1625310062413774563,0,0.0283,-0.7373,0.5503,43,3.479,18.4937,23.1934,192,1.4577,1.4377,-14.5057,-35.2987,28,0.1281,8370,3.8401,69.3348
lg,1625310062413792711,0,-0.2202,-0.7039,0.6882,44,20.5078,91.5527,33.6914,192,1.4577,1.4387,-9.7237,-34.6661,28,0.1271,8766,3.8401,68.4182
lg,1625310062413810711,0,-0.259,-0.6533,0.7517,45,29.9683,97.4731,39.978,192,1.4587,1.4387,-4.6852,-33.5982,28,0.1271,8045,3.8401,67.591
lg,1625310062413828100,0,-0.1907,-0.6113,0.874,46,24.231,61.7676,39.5508,192,1.4577,1.4417,-1.1811,-32.676,28,0.1271,8055,3.8401,67.5692
lg,1625310062413845341,0,-0.0938,-0.7456,1.012,47,16.9678,42.7246,27.8931,192,1.4577,1.4407,1.0678,-32.1372,28,0.1281,8428,3.8401,67.5958
lg,1625310062413862674,0,-0.0649,-0.7686,1.0786,48,20.0806,43.9453,15.4419,192,1.4597,1.4397,2.4707,-31.4619,28,0.1291,9073,3.8401,66.4824
lg,1625310062413879785,0,-0.0957,-0.7271,0.9656,49,23.1934,45.5933,-26.4282,192,1.4627,1.4377,3.559,-30.8438,28,0.1291,8585,3.8401,64.6216
lg,1625310062413896896,0,-0.1436,-0.7488,0.908,50,27.0386,56.0913,-58.2886,192,1.4667,1.4307,4.4315,-30.3178,28,0.1271,8875,3.8401,61.4449
lg,1625310062413914193,0,-0.3101,-0.7634,0.3513,51,14.8926,23.0713,-64.5752,192,1.4647,1.4237,4.5483,-31.1541,28,0.1231,8872,3.8401,58.6476
lg,1625310062413930915,0,-0.3105,-0.7666,0.6521,52,16.4795,41.2598,-42.1143,192,1.4617,1.4197,7.0718,-31.5368,28,0.1211,8884,3.8401,56.7476
lg,1625310062413947693,0,-0.4219,-0.8521,0.8826,53,-18.5547,55.0537,16.5405,192,1.4627,1.4157,9.7499,-32.8278,28,0.1231,10444,3.8401,56.0624
lg,1625310062413964341,0,-0.5066,-0.6443,0.7058,54,-18.1885,7.4463,31.8604,192,1.4637,1.4187,11.4063,-33.7168,28,0.1251,8926,3.8401,56.9173
lg,1625310062413982526,0,-0.5554,-0.6338,0.7117,55,-25.4517,-17.7002,44.4336,192,1.4637,1.4267,12.4994,-34.6371,28,0.1261,9010,3.8401,58.7617
lg,1625310062414000155,0,-0.5098,-0.7607,0.8352,56,-41.3208,-92.4683,54.1382,192,1.4607,1.4327,11.202,-35.7409,28,0.1261,8637,3.8401,62.6864
lg,1625310062414017174,0,-0.2615,-0.8008,0.6836,57,-50.9644,-173.1567,47.5464,192,1.4567,1.4357,6.919,-37.3952,28,0.1281,8654,3.8401,68.3078
lg,1625310062414034915,0,0.1936,-0.6138,0.3518,58,-20.813,-197.937,-6.4087,192,1.4557,1.4327,-0.2692,-38.7948,28,0.1281,9112,3.8401,72.9062
lg,1625310062414052730,0,0.0911,-1.0122,0.7556,59,-38.0859,-72.6929,1.8311,192,1.4547,1.4307,-2.5948,-40.9146,28,0.1281,9149,3.8401,74.8354
lg,1625310062414071415,0,-0.0618,-0.9089,0.3147,60,-10.0708,-46.814,-2.5635,192,1.4547,1.4307,-2.0034,-41.7473,28,0.1281,9057,3.8401,75.1161
lg,1625310062414088563,0,-0.1553,-0.679,0.4744,61,18.4326,19.7144,23.9868,192,1.4537,1.4317,-0.2866,-41.5196,28,0.1281,9023,3.8401,75.3264
lg,1625310062414105452,0,0.0168,-0.6873,0.7727,62,7.019,-6.3477,38.0859,192,1.4527,1.4337,0.5045,-41.2321,28,0.1281,9017,3.8401,76.6353
lg,1625310062414123655,0,0.0881,-0.8469,0.7051,63,1.77,-10.9863,36.5601,192,1.4547,1.4347,0.9411,-41.4879,28,0.1291,9030,3.8401,78.0189
lg,1625310062414142304,0,0.0063,-0.792,0.7585,64,15.8081,16.2354,28.7476,192,1.4537,1.4347,2.1338,-41.0234,28,0.1291,9078,3.8401,78.4492
lg,1625310062796121989,0,0.0127,-0.791,0.7659,65,14.4653,19.4702,18.0054,192,1.4617,1.4387,2.9566,-40.5416,28,0.1321,29119,3.8401,78.4784
lg,1625310062796240081,0,-0.033,-0.8274,0.688,66,16.9678,56.5796,4.1504,192,1.4647,1.4387,4.7309,-40.329,28,0.1321,9276,3.8401,77.1104
lg,1625310062796262637,0,-0.0718,-0.8027,0.6804,67,22.3389,73.2422,6.2256,192,1.4657,1.4387,7.1991,-39.8341,28,0.1321,8462,3.8401,75.3828
lg,1625310062796283952,0,-0.178,-0.7134,0.748,68,27.2827,88.623,5.8594,192,1.4667,1.4387,10.1684,-39.2031,28,0.1311,8500,3.8401,73.2614
lg,1625310062796302433,0,-0.2715,-0.7268,0.6553,69,19.104,67.5659,2.9297,192,1.4667,1.4387,12.5398,-39.0955,28,0.1311,9974,3.8401,71.551
lg,1625310062796326044,0,-0.4038,-0.752,0.7661,70,-2.6855,38.8184,13.4888,192,1.4697,1.4387,14.3936,-39.5334,28,0.1331,9890,3.8401,70.9219
lg,1625310062796343952,0,-0.3442,-0.6885,0.8032,71,-11.3525,-13.1836,36.6821,192,1.4667,1.4407,15.0638,-39.6319,28,0.1341,8539,3.8401,72.4299
lg,1625310062796362248,0,-0.3916,-0.7268,0.8748,72,-25.3296,-34.1187,44.7388,192,1.4617,1.4437,15.3186,-40.0247,28,0.1341,8604,3.8401,74.7612
lg,1625310062796380415,0,-0.1406,-0.6899,1.0981,73,-28.0762,-60.1807,45.5322,192,1.4607,1.4457,14.2984,-40.0358,28,0.1351,8607,3.8401,77.8938
lg,1625310062796402248,0,-0.1536,-0.5657,0.2837,74,-4.3945,-102.9663,-21.6064,192,1.4607,1.4407,10.6324,-40.6515,28,0.1341,8718,3.8401,79.7371
lg,1625310062796421692,0,-0.0693,-0.8101,0.7915,75,-12.2681,-20.6299,-9.2773,192,1.4607,1.4397,9.4869,-41.2856,28,0.1331,8644,3.8401,79.9694
lg,1625310062796443692,0,-0.4702,-0.7739,0.5813,76,3.418,59.082,-28.4424,192,1.4597,1.4407,11.1341,-42.0059,28,0.1331,8643,3.8401,77.4353
lg,1625310062796465026,0,-0.4709,-0.7026,0.6404,77,20.9351,78.4912,-1.4648,192,1.4597,1.4427,13.8753,-41.541,28,0.1331,8689,3.8401,75.2662
lg,1625310062796482729,0,-0.3594,-0.5806,0.7646,78,10.5591,30.5786,19.8364,192,1.4587,1.4407,15.5728,-40.9982,28,0.1331,8902,3.8401,75.0898
lg,1625310062796502100,0,-0.1448,-0.8066,0.8184,79,-8.1177,-15.8691,31.0669,192,1.4587,1.4457,15.5782,-41.0803,28,0.1341,13048,3.8401,76.4576
lg,1625310062796521174,0,-0.1023,-0.8276,0.7874,80,-6.6528,-22.3389,24.4141,192,1.4587,1.4477,14.9814,-41.0984,28,0.1341,8781,3.8401,77.5102
lg,1625310062796542211,0,-0.0288,-0.7861,0.7417,81,1.3428,-7.5073,16.7236,192,1.4587,1.4487,14.6665,-41.0768,28,0.1351,8754,3.8401,78.1775
lg,1625310062796560415,0,-0.0635,-0.8157,0.7356,82,4.0283,17.2729,11.9019,192,1.4597,1.4487,15.0502,-41.2125,28,0.1361,8802,3.8401,78.0065
lg,1625310062796578100,0,-0.0664,-0.8418,0.7788,83,8.8501,28.1372,7.4463,192,1.4617,1.4487,15.626,-41.2377,28,0.1361,8854,3.8401,77.4044
lg,1625310062796598637,0,0.0576,-0.7271,0.7385,84,20.3857,31.25,-4.5166,192,1.4637,1.4477,15.7112,-40.82,28,0.1351,9732,3.8401,76.3698
lg,1625310062796615877,0,0.0168,-0.8081,0.6267,85,14.5874,49.4385,-21.3013,192,1.4627,1.4467,15.9934,-41.2452,28,0.1321,8875,3.8401,74.2262
lg,1625310062796633692,0,-0.0195,-0.8611,0.6064,86,15.4419,65.4297,-20.5078,192,1.4607,1.4447,16.865,-41.8448,28,0.1281,8893,3.8401,71.6293
lg,1625310062796651563,0,-0.0698,-0.7925,0.5813,87,24.7192,97.1069,-12.6953,192,1.4577,1.4407,19.2471,-42.3626,28,0.1281,9258,3.8401,68.3327
lg,1625310062796669044,0,-0.3635,-0.7412,0.6099,88,5.249,113.8306,4.6997,192,1.4577,1.4407,22.745,-43.6065,28,0.1281,8935,3.8401,65.0417
lg,1625310062796686785,0,-0.5532,-0.7,0.8157,89,-7.9346,85.2051,37.1094,192,1.4587,1.4417,26.3826,-44.3918,28,0.1301,8948,3.8401,63.6509
lg,1625310062796708489,0,-0.7639,-0.6094,0.7458,90,-21.7285,19.043,49.1333,192,1.4587,1.4457,28.7672,-44.6133,28,0.1311,8956,3.8401,64.7105
lg,1625310062796727266,0,-0.7944,-0.6077,0.7266,91,-43.457,-90.332,66.8335,192,1.4557,1.4487,28.4906,-43.7449,28,0.1311,9002,3.8401,69.8575
lg,1625310062796746248,0,-0.1921,-0.5273,1.2842,92,-44.1284,-185.3638,68.2373,192,1.4527,1.4487,24.1564,-41.1133,28,0.1341,9081,3.8401,78.1129
lg,1625310062796764544,0,-0.1626,-0.5676,0.5054,93,-27.5879,-235.5347,19.8975,192,1.4517,1.4447,16.5531,-41.4475,28,0.1331,9108,3.8401,84.8244
lg,1625310062796782859,0,0.1396,-0.9702,0.7769,94,-56.4575,-216.7358,4.5776,192,1.4517,1.4437,9.4056,-42.7116,28,0.1331,9070,3.8401,90.8199
lg,1625310062796801748,0,-0.0488,-0.9553,0.4023,95,-18.2495,-94.8486,-21.2402,192,1.4527,1.4457,5.8453,-44.1043,28,0.1341,9073,3.8401,92.682
lg,1625310062796819211,0,0.0928,-0.6816,0.5686,96,23.4375,-17.0288,13.916,192,1.4537,1.4457,5.2754,-43.3138,28,0.1341,9138,3.8401,93.5315
lg,1625310063169997674,0,-0.0991,-0.821,0.7041,97,21.6064,60.2417,6.1035,192,1.4557,1.4527,7.1496,-42.3751,28,0.1361,27748,3.8401,91.9606
lg,1625310063170058544,0,-0.1921,-0.6226,0.6843,98,27.1606,38.4521,-2.5024,192,1.4577,1.4527,8.4009,-41.4282,28,0.1361,9246,3.8401,90.8499
lg,1625310063170079637,0,-0.052,-0.6355,0.8628,99,24.6582,28.1982,-1.0376,192,1.4617,1.4517,8.8692,-40.3681,28,0.1361,8156,3.8401,90.2972
lg,1625310063170099266,0,-0.103,-0.8193,0.719,100,10.3149,18.7988,-7.019,192,1.4637,1.4507,9.1213,-40.3909,28,0.1351,8561,3.8401,89.5361
lg,1625310063170118692,0,-0.1069,-0.8467,0.6953,101,12.8784,23.1934,-6.2256,192,1.4637,1.4487,10.0858,-40.3826,28,0.1341,8498,3.8401,88.586
lg,1625310063170137599,0,-0.2207,-0.8,0.6633,102,4.3335,41.9922,9.8877,192,1.4627,1.4487,11.6904,-40.7434,28,0.1341,8518,3.8401,87.7087
lg,1625310063170156285,0,-0.3765,-0.7925,0.7981,103,-17.6392,40.1611,44.4336,192,1.4637,1.4507,14.3284,-41.5283,28,0.1361,8631,3.8401,87.9612
lg,1625310063170174674,0,-0.4678,-0.6606,0.7532,104,-20.813,4.2114,55.2979,192,1.4607,1.4527,16.3419,-41.916,28,0.1361,10672,3.8401,89.5575
lg,1625310063170192581,0,-0.4609,-0.6555,0.7283,105,-34.729,-56.8237,56.5186,192,1.4597,1.4547,16.5265,-42.3487,28,0.1361,9110,3.8401,92.8971
lg,1625310063170210414,0,-0.1096,-0.6443,0.9084,106,-25.0854,-105.957,37.5977,192,1.4577,1.4557,13.9831,-41.9725,28,0.1381,8598,3.8401,97.0874
lg,1625310063170228748,0,-0.1328,-0.7834,0.5581,107,-28.5034,-114.3188,16.7236,192,1.4577,1.4567,10.8436,-42.8113,28,0.1381,8610,3.8401,100.6367
lg,1625310063170247118,0,0.0627,-0.9072,0.6467,108,-20.1416,-86.4258,14.3433,192,1.4567,1.4567,8.1851,-43.6036,28,0.1381,8533,3.8401,103.3805
lg,1625310063170265914,0,-0.115,-0.8477,0.5132,109,0.3052,4.0283,-8.8501,192,1.4567,1.4567,8.002,-44.2305,28,0.1381,8675,3.8401,102.9262
lg,1625310063170283970,0,-0.2153,-0.7153,0.605,110,16.3574,40.9546,9.9487,192,1.4567,1.4577,9.6436,-43.916,28,0.1391,8632,3.8401,102.0311
lg,1625310063170301637,0,-0.1973,-0.6814,0.678,111,17.2119,33.02,14.1602,192,1.4577,1.4567,11.0052,-43.301,28,0.1391,8686,3.8401,101.5222
lg,1625310063170319655,0,-0.1741,-0.7546,0.7183,112,8.3618,11.7188,11.2305,192,1.4577,1.4577,11.59,-43.0795,28,0.1381,8729,3.8401,101.5054
lg,1625310063170337174,0,-0.1729,-0.7712,0.6584,113,11.0474,-9.6436,4.8218,192,1.4597,1.4577,11.3647,-42.8019,28,0.1381,8959,3.8401,101.868
lg,1625310063170354396,0,-0.0725,-0.6196,0.7207,114,15.564,-22.522,7.9956,192,1.4607,1.4557,10.6391,-41.9216,28,0.1401,8755,3.8401,102.7444
lg,1625310063170371896,0,-0.0769,-0.7261,0.7795,115,13.7329,-15.8081,12.4512,192,1.4627,1.4557,10.4245,-41.6452,28,0.1411,8816,3.8401,103.3166
lg,1625310063170389859,0,-0.2002,-0.863,0.7231,116,-10.8032,-2.8076,20.0806,192,1.4617,1.4547,10.8658,-42.2717,28,0.1411,8823,3.8401,103.9411
lg,1625310063170406951,0,-0.252,-0.7625,0.8281,117,-13.1836,-5.5542,44.9219,192,1.4607,1.4587,11.9796,-42.5028,28,0.1421,8836,3.8401,105.4447
lg,1625310063170423933,0,-0.2207,-0.4722,0.7397,118,-0.3052,-15.7471,21.7285,192,1.4597,1.4597,12.1872,-41.8861,28,0.1421,8860,3.8401,106.6201
lg,1625310063170440877,0,-0.1582,-0.8083,0.8286,119,-26.2451,-37.5977,27.6489,192,1.4597,1.4607,11.6466,-42.6324,28,0.1421,8822,3.8401,108.4737
lg,1625310063170458525,0,-0.0942,-0.8423,0.7847,120,-13.1226,-37.5977,20.6299,192,1.4587,1.4607,11.8096,-43.0584,28,0.1431,8878,3.8401,109.0666
lg,1625310063170475822,0,-0.1416,-0.7917,0.7163,121,-1.0376,29.0527,17.6392,192,1.4587,1.4597,12.9645,-43.3441,28,0.1421,8933,3.8401,108.7378
lg,1625310063170493340,0,-0.2576,-0.7,0.74,122,6.1035,55.2979,15.0757,192,1.4597,1.4617,14.9045,-43.3147,28,0.1411,9420,3.8401,107.7655
lg,1625310063170510192,0,-0.2368,-0.7627,0.8098,123,2.8076,31.7993,11.6577,192,1.4617,1.4607,16.0262,-43.3383,28,0.1411,9108,3.8401,107.2117
lg,1625310063170527562,0,-0.1208,-0.7749,0.8149,124,1.6479,7.019,-4.0283,192,1.4627,1.4607,15.725,-43.3589,28,0.1411,9091,3.8401,106.8889
lg,1625310063170544711,0,-0.0427,-0.7778,0.7441,125,9.9487,9.3384,-27.0386,192,1.4647,1.4577,14.7223,-43.3549,28,0.1381,9127,3.8401,105.7782
lg,1625310063170561525,0,-0.0544,-0.886,0.6523,126,10.0708,16.7847,-45.8374,192,1.4627,1.4537,13.4807,-43.8102,28,0.1361,8452,3.8401,103.8299
lg,1625310063170578451,0,-0.071,-0.8794,0.459,127,16.2964,4.9438,-49.3774,192,1.4597,1.4497,11.7952,-44.2603,28,0.1331,8840,3.8401,102.2826
lg,1625310063170668785,0,-0.0894,-0.7915,0.3748,128,13.2446,14.3433,-30.2124,192,1.4587,1.4437,11.1447,-44.7823,28,0.1321,8469,3.8401,100.8309
lg,1625310063546639562,0,-0.509,-0.6821,0.791,129,-19.4702,24.1699,60.2417,86,1.4597,1.4567,13.2762,-45.0108,28,0.1371,26806,3.9468,102.8475
lg,1625310063546692877,0,-0.1946,-0.5598,1.2625,130,-26.5503,-92.4683,53.6499,86,1.4567,1.4557,11.9907,-44.3041,28,0.1391,9771,3.9468,107.2704
lg,1625310063546723451,0,-0.0642,-0.8022,0.6438,131,-38.6353,-142.9443,0.1221,86,1.4567,1.4527,7.6353,-45.4134,28,0.1391,8272,3.9468,111.3187
lg,1625310063546754636,0,0.0635,-0.9902,0.7781,132,-49.6826,-111.8164,4.0894,86,1.4557,1.4507,4.2722,-47.2898,28,0.1371,8237,3.9468,114.6637
lg,1625310063546783173,0,-0.1316,-0.8806,0.4097,133,-7.1411,-7.4463,-15.3809,86,1.4557,1.4497,3.7609,-48.2657,28,0.1371,7943,3.9468,114.4203
lg,1625310063546809636,0,-0.1875,-0.6411,0.7068,134,24.5972,64.27,18.5547,86,1.4557,1.4497,6.3179,-47.1604,28,0.1381,8651,3.9468,113.027
lg,1625310063546836451,0,-0.22,-0.5806,0.7476,135,16.4185,64.4531,21.5454,86,1.4557,1.4507,8.7156,-47.0116,28,0.1381,8426,3.9468,112.2288
lg,1625310063546863155,0,-0.3521,-0.7329,0.6345,136,-6.1035,38.0249,26.4893,86,1.4557,1.4527,10.9597,-47.3926,28,0.1381,7941,3.9468,111.8113
lg,1625310063546889173,0,-0.3379,-0.8154,0.6831,137,-2.5635,6.4697,36.1328,86,1.4557,1.4537,12.4577,-47.4224,28,0.1391,8000,3.9468,112.5956
lg,1625310063546916118,0,-0.1743,-0.7634,0.7148,138,-1.5869,-17.6392,34.729,86,1.4557,1.4547,12.4274,-47.1136,28,0.1401,8764,3.9468,114.6138
lg,1625310063546942340,0,0.0039,-0.8503,0.7065,139,-7.4463,-48.7061,35.9497,86,1.4577,1.4547,11.6615,-47.0139,28,0.1411,11638,3.9468,117.0475
lg,1625310063546968562,0,0.0562,-0.9077,0.6775,140,-7.2632,-45.0439,32.959,86,1.4597,1.4557,10.9906,-47.0721,28,0.1411,8063,3.9468,118.7451
lg,1625310063546994229,0,0.1345,-0.9067,0.6721,141,6.897,-15.2588,24.5361,86,1.4617,1.4557,10.5997,-46.8286,28,0.1411,8099,3.9468,119.8304
lg,1625310063547020655,0,0.2114,-0.7297,0.6221,142,21.3013,12.5122,12.085,86,1.4647,1.4557,10.4037,-46.0819,28,0.1421,8492,3.9468,119.7723
lg,1625310063547046210,0,0.0842,-0.8394,0.5669,143,17.7612,45.7764,-0.3052,86,1.4647,1.4577,11.0686,-46.0097,28,0.1401,8926,3.9468,118.347
lg,1625310063547072062,0,0.0068,-0.8279,0.5662,144,30.3345,70.6787,4.9438,86,1.4637,1.4547,12.7227,-45.5747,28,0.1381,13765,3.9468,116.336
lg,1625310063547098377,0,-0.1929,-0.7622,0.6101,145,12.6953,87.0972,13.5498,86,1.4637,1.4537,15.4661,-45.8183,28,0.1391,8567,3.9468,114.1002
lg,1625310063547153192,0,-0.4031,-0.6987,0.7559,146,-2.0752,74.0967,41.687,86,1.4637,1.4547,18.9413,-46.0721,28,0.1401,8947,3.9468,113.1106
lg,1625310063547182803,0,-0.5667,-0.5806,0.709,147,-14.8315,24.9023,58.4717,86,1.4627,1.4567,21.8123,-46.0729,28,0.1421,8594,3.9468,114.154
lg,1625310063547209488,0,-0.2986,-0.5374,1.2922,148,-26.3062,-34.6069,59.5093,86,1.4597,1.4577,22.2242,-45.0814,28,0.1421,11693,3.9468,117.3751
lg,1625310063547235803,0,-0.4194,-0.7666,0.782,149,-30.3955,-86.9141,0.9766,86,1.4597,1.4527,19.7628,-45.2982,28,0.1421,9224,3.9468,120.0675
lg,1625310063547264544,0,-0.2288,-0.9617,1.1079,150,-42.8467,-94.0552,3.9673,86,1.4587,1.4487,16.8302,-45.8902,28,0.1411,8228,3.9468,123.0876
lg,1625310063547290914,0,-0.353,-0.8772,0.6062,151,-15.0146,-72.876,-33.02,86,1.4577,1.4487,13.9367,-46.5183,28,0.1411,8734,3.9468,124.2252
lg,1625310063547316840,0,-0.2832,-0.7324,0.4485,152,19.104,-31.5552,-2.0142,86,1.4587,1.4497,13.1905,-45.9996,28,0.1411,8327,3.9468,125.0003
lg,1625310063547343025,0,-0.1929,-0.6423,0.5469,153,21.2402,-2.4414,18.6768,86,1.4587,1.4507,13.6412,-45.1418,28,0.1411,9093,3.9468,125.5782
lg,1625310063547369247,0,-0.2026,-0.6555,0.5955,154,15.2588,7.8735,24.353,86,1.4577,1.4537,15.1122,-44.6917,28,0.1411,9103,3.9468,125.7228
lg,1625310063547394414,0,-0.2849,-0.7729,0.6865,155,13.1226,23.6816,28.5645,86,1.4587,1.4547,16.593,-44.2607,28,0.1421,8810,3.9468,125.841
lg,1625310063547419581,0,-0.2166,-0.7456,0.7803,156,12.8784,-24.1699,19.8975,86,1.4567,1.4557,16.2382,-43.3466,28,0.1431,8785,3.9468,127.1457
lg,1625310063547444784,0,-0.0039,-0.8083,0.7542,157,9.3384,-65.1855,13.2446,86,1.4617,1.4567,14.0718,-42.5274,28,0.1441,9676,3.9468,129.3462
lg,1625310063547470136,0,0.1313,-0.9197,0.7705,158,11.2915,-50.4761,1.5259,86,1.4637,1.4557,11.8423,-42.0472,28,0.1441,8480,3.9468,130.713
lg,1625310063547497025,0,0.3254,-0.7234,0.7195,159,36.377,-10.2539,-16.9067,86,1.4647,1.4537,9.9692,-40.7543,28,0.1421,8476,3.9468,130.4362
lg,1625310063547523470,0,0.2949,-0.7158,0.6184,160,34.9731,17.7612,-31.3721,86,1.4627,1.4517,9.7964,-40.4751,28,0.1391,8661,3.9468,127.7218
lg,1625310063925046766,0,-0.3528,-0.8394,0.8076,161,3.9673,165.0391,16.1743,86,1.4617,1.4487,15.987,-41.1154,28,0.1391,27536,3.9468,124.3058
lg,1625310063925091136,0,-0.7891,-0.5369,0.7419,162,-3.7842,73.2422,28.7476,86,1.4607,1.4517,19.8804,-41.4386,28,0.1411,8730,3.9468,123.2232
lg,1625310063925135155,0,-0.8958,-0.5293,0.7886,163,-28.3203,-23.6816,45.2271,86,1.4587,1.4537,21.2754,-41.5813,28,0.1411,8623,3.9468,125.4238
lg,1625310063925155988,0,-0.4565,-0.5237,1.1279,164,-40.8325,-132.2021,57.9224,86,1.4567,1.4547,18.8184,-40.6406,28,0.1421,10420,3.9468,131.2282
lg,1625310063925186951,0,-0.3264,-0.8105,0.6389,165,-56.0303,-193.2373,18.5547,86,1.4567,1.4547,13.4822,-41.6663,28,0.1431,8531,3.9468,136.9702
lg,1625310063925207895,0,0.0242,-0.9143,0.5425,166,-33.1421,-166.1377,14.9536,86,1.4567,1.4547,8.4316,-42.7266,28,0.1421,8550,3.9468,141.8124
lg,1625310063925227432,0,0.0027,-0.906,0.511,167,-25.3296,-113.9526,3.6011,86,1.4567,1.4557,6.7293,-43.4337,28,0.1421,8588,3.9468,143.7404
lg,1625310063925246784,0,0.1116,-0.7808,0.6401,168,3.3569,-29.541,26.2451,86,1.4567,1.4567,6.0855,-43.3978,28,0.1421,8565,3.9468,145.2914
lg,1625310063925264821,0,0.1538,-0.8281,0.7351,169,-0.6104,12.5732,27.5269,86,1.4557,1.4567,6.6558,-43.5589,28,0.1431,9997,3.9468,145.724
lg,1625310063925283136,0,0.019,-0.9124,0.6611,170,3.1128,49.1943,19.7144,86,1.4567,1.4567,8.3152,-43.9463,28,0.1431,8553,3.9468,144.874
lg,1625310063925301173,0,-0.1392,-0.8228,0.6582,171,13.7329,68.4814,11.0474,86,1.4567,1.4577,10.5515,-43.9447,28,0.1441,8638,3.9468,143.2229
lg,1625310063925319173,0,-0.2007,-0.7478,0.6018,172,14.4043,57.251,11.2915,86,1.4567,1.4577,12.6109,-43.8144,28,0.1451,8649,3.9468,141.8963
lg,1625310063925336673,0,-0.1572,-0.6477,0.6252,173,7.2632,6.4697,18.0664,86,1.4567,1.4587,13.0534,-43.4767,28,0.1451,8670,3.9468,142.2399
lg,1625310063925354895,0,-0.1062,-0.7417,0.6892,174,-7.019,-8.667,28.8696,86,1.4557,1.4597,13.3014,-43.5611,28,0.1451,10352,3.9468,143.3306
lg,1625310063925375358,0,-0.1667,-0.7656,0.8208,175,-3.2959,1.6479,25.5127,86,1.4557,1.4597,13.8559,-43.4915,28,0.1461,8682,3.9468,144.0505
lg,1625310063925394192,0,-0.2148,-0.7117,0.6968,176,-0.4883,-3.3569,18.0664,86,1.4557,1.4597,14.1861,-43.4302,28,0.1461,8785,3.9468,144.6676
lg,1625310063925412099,0,-0.2986,-0.752,0.6804,177,4.3945,8.1787,17.8223,86,1.4557,1.4607,14.9977,-43.3415,28,0.1461,8718,3.9468,144.9289
lg,1625310063925429914,0,-0.2329,-0.738,0.8081,178,8.4839,14.0991,21.9116,86,1.4557,1.4607,15.8505,-42.7082,28,0.1461,8755,3.9468,145.4338
lg,1625310063925448247,0,-0.1509,-0.7495,0.8857,179,11.1694,4.2114,21.1792,86,1.4567,1.4597,16.2081,-42.004,28,0.1451,8806,3.9468,145.9934
lg,1625310063925466266,0,-0.0679,-0.7971,0.8416,180,11.0474,-1.4648,0.1221,86,1.4567,1.4607,15.6596,-41.6005,28,0.1431,8821,3.9468,146.0212
lg,1625310063925498192,0,-0.0503,-0.8047,0.7983,181,21.4844,17.5781,-28.3813,86,1.4607,1.4597,14.9161,-41.2425,28,0.1421,8829,3.9468,144.6163
lg,1625310063925518099,0,-0.0674,-0.8416,0.8635,182,25.8179,28.1982,-65.4907,86,1.4597,1.4577,13.5764,-41.0156,28,0.1391,8872,3.9468,141.7861
lg,1625310063925535636,0,-0.0957,-0.8557,0.7114,183,31.0669,34.0576,-74.1577,86,1.4557,1.4527,12.2333,-40.9761,28,0.1341,8861,3.9468,138.3698
lg,1625310063925553988,0,-0.1416,-0.7449,0.3096,184,37.2925,22.2778,-79.7119,86,1.4537,1.4467,10.7664,-41.1038,28,0.1311,8898,3.9468,135.1074
lg,1625310063925570673,0,-0.1509,-0.5708,0.4124,185,24.4751,37.7197,-23.9868,86,1.4527,1.4437,11.3297,-40.9634,28,0.1311,9024,3.9468,133.2654
lg,1625310063925587821,0,-0.3208,-0.865,0.7776,186,-15.4419,76.7822,28.6255,86,1.4517,1.4467,14.535,-42.1174,28,0.1321,8966,3.9468,131.9939
lg,1625310063925605303,0,-0.5938,-0.6462,0.6926,187,-1.4038,28.6255,34.1797,86,1.4547,1.4517,16.976,-42.125,28,0.1331,9552,3.9468,132.2414
lg,1625310063925624229,0,-0.5935,-0.5583,0.7788,188,-18.9209,-44.0063,59.1431,86,1.4557,1.4547,17.8321,-41.7185,28,0.1341,9182,3.9468,135.3919
lg,1625310063925643118,0,-0.5959,-0.6667,0.8313,189,-32.7148,-82.3975,61.1572,86,1.4537,1.4567,16.2917,-41.7516,28,0.1351,9037,3.9468,140.9426
lg,1625310063925661025,0,-0.3777,-0.7651,0.7681,190,-44.1284,-168.7012,72.4487,86,1.4517,1.4567,13.3338,-41.862,28,0.1371,9051,3.9468,147.7972
lg,1625310063925679451,0,0.2358,-0.6277,0.5701,191,-14.2212,-217.5903,24.1699,86,1.4507,1.4557,6.425,-41.5181,28,0.1371,9089,3.9468,154.3441
lg,1625310063925697377,0,0.303,-0.9878,0.7197,192,-43.6401,-103.1494,3.9062,86,1.4507,1.4527,2.7211,-43.485,28,0.1371,9470,3.9468,157.2196
lg,1625310064307786654,0,-0.1523,-0.6135,0.6829,193,15.7471,106.1401,27.5269,86,1.4507,1.4567,6.8135,-42.9611,28,0.1391,26155,3.9468,155.1049
lg,1625310064307843969,0,-0.3169,-0.7627,0.7703,194,7.3853,79.895,35.7666,86,1.4507,1.4577,10.485,-42.8954,28,0.1401,11146,3.9468,153.9498
lg,1625310064307879154,0,-0.2437,-0.7063,0.7737,195,6.958,28.6255,28.8086,86,1.4507,1.4587,12.2033,-42.5734,28,0.1411,8487,3.9468,154.0228
lg,1625310064307912488,0,-0.2114,-0.7092,0.7627,196,3.8452,6.958,27.5879,86,1.4517,1.4587,13.005,-42.3437,28,0.1411,8528,3.9468,154.6481
lg,1625310064307944340,0,-0.1228,-0.7849,0.7791,197,-0.1831,-12.6953,23.6206,86,1.4527,1.4587,13.0003,-42.2161,28,0.1421,8523,3.9468,155.6909
lg,1625310064307975284,0,0.002,-0.759,0.7375,198,6.4087,-14.5264,23.0103,86,1.4567,1.4587,12.6702,-41.8524,28,0.1431,9155,3.9468,156.7571
lg,1625310064308037265,0,0.0881,-0.7627,0.7634,199,5.3101,7.1411,11.2305,86,1.4587,1.4587,12.5022,-41.7247,28,0.1431,8802,3.9468,156.8761
lg,1625310064308070988,0,-0.0125,-0.8914,0.6812,200,3.1738,25.1465,5.7983,86,1.4597,1.4587,13.4963,-42.1937,28,0.1421,8623,3.9468,155.6652
lg,1625310064308102228,0,-0.0527,-0.8718,0.665,201,12.6343,63.7817,5.0659,86,1.4607,1.4577,15.0894,-42.5049,27,0.1401,8705,3.9468,153.9437
lg,1625310064308132488,0,-0.104,-0.7883,0.6489,202,17.2119,84.7778,6.1035,86,1.4597,1.4577,17.371,-42.7532,27,0.1381,8636,3.9468,151.6488
lg,1625310064308168951,0,-0.2029,-0.7654,0.5884,203,13.3667,95.2759,13.1226,86,1.4597,1.4587,20.2834,-43.3611,27,0.1381,8666,3.9468,149.1821
lg,1625310064308202895,0,-0.3345,-0.8203,0.7104,204,5.5542,88.2568,18.2495,86,1.4607,1.4587,22.97,-44.3159,27,0.1411,8679,3.9468,147.7454
lg,1625310064308234154,0,-0.4155,-0.7888,0.6853,205,-13.855,48.7061,32.4707,86,1.4627,1.4607,25.2028,-45.248,28,0.1421,8702,3.9468,147.1756
lg,1625310064308265673,0,-0.5361,-0.7061,0.7012,206,-25.3906,16.4185,49.7437,86,1.4607,1.4627,27.1943,-45.791,28,0.1441,8761,3.9468,148.2077
lg,1625310064308296840,0,-0.6338,-0.6079,0.7375,207,-30.7617,-25.8789,61.7676,86,1.4597,1.4627,28.4886,-45.4648,28,0.1441,8720,3.9468,151.1125
lg,1625310064308330265,0,-0.3633,-0.4517,0.7046,208,-5.5542,-100.8911,15.2588,86,1.4577,1.4577,25.9819,-44.0987,28,0.1431,13347,3.9468,154.756
lg,1625310064308363191,0,-0.3423,-0.8757,0.8826,209,-50.5981,-108.8257,5.6152,86,1.4577,1.4567,22.9163,-45.2373,28,0.1431,10113,3.9468,158.0434
lg,1625310064308393673,0,-0.3987,-0.897,0.5151,210,-18.0664,-97.7173,-0.3052,86,1.4577,1.4577,20.1275,-45.4384,28,0.1431,8908,3.9468,160.8048
lg,1625310064308424136,0,-0.1086,-0.7371,0.6409,211,10.9863,-79.2236,25.0244,86,1.4567,1.4587,18.054,-44.1193,28,0.1431,8802,3.9468,163.8677
lg,1625310064308455117,0,0.0198,-0.6655,0.6113,212,0.2441,-46.5088,31.311,86,1.4567,1.4597,16.8333,-43.5482,28,0.1431,9915,3.9468,166.1216
lg,1625310064308486728,0,0.002,-0.8579,0.7256,213,-2.3804,8.1177,32.3486,86,1.4567,1.4597,17.2973,-43.6713,28,0.1441,9055,3.9468,166.7917
lg,1625310064308518617,0,-0.0791,-0.8413,0.7256,214,12.146,25.0244,16.4795,86,1.4547,1.4587,17.9518,-43.474,28,0.1451,8913,3.9468,166.498
lg,1625310064308550432,0,-0.1279,-0.7839,0.7046,215,16.5405,31.25,10.9253,86,1.4567,1.4577,18.7819,-43.0996,28,0.1451,8926,3.9468,165.8918
lg,1625310064308581340,0,-0.1812,-0.7639,0.7468,216,17.1509,32.5317,6.0425,86,1.4587,1.4547,19.5284,-42.7569,28,0.1451,8949,3.9468,165.1052
lg,1625310064308611599,0,-0.063,-0.7192,0.7866,217,18.4326,15.1978,4.1504,86,1.4627,1.4557,19.4506,-42.1007,28,0.1461,8966,3.9468,164.8015
lg,1625310064308674210,0,-0.042,-0.8279,0.6702,218,11.7798,19.2871,-4.8828,86,1.4647,1.4537,19.2214,-42.2258,28,0.1451,8995,3.9468,163.9755
lg,1625310064308709580,0,-0.1411,-0.8953,0.5884,219,9.0942,38.5742,2.0752,86,1.4637,1.4527,19.9647,-42.799,28,0.1441,9037,3.9468,162.7369
lg,1625310064308741173,0,-0.2947,-0.75,0.6575,220,-1.0376,46.9971,8.1177,86,1.4637,1.4527,21.9973,-43.5627,28,0.1451,9017,3.9468,161.8993
lg,1625310064308770636,0,-0.3564,-0.6567,0.6785,221,-7.9346,49.1943,35.1562,86,1.4627,1.4547,24.3228,-44.0366,28,0.1471,9028,3.9468,161.5119
lg,1625310064308799988,0,-0.4797,-0.6455,0.7451,222,-18.4326,17.9443,47.1191,86,1.4607,1.4547,26.2051,-44.2335,28,0.1481,9256,3.9468,162.5065
lg,1625310064308833247,0,-0.3481,-0.6714,0.9758,223,-22.4609,-29.48,40.4053,86,1.4617,1.4597,26.1036,-43.7347,28,0.1491,9119,3.9468,164.9
lg,1625310064308872377,0,-0.3601,-0.7439,0.5505,224,-18.7378,-72.4487,4.3945,86,1.4597,1.4617,23.9631,-43.8689,28,0.1501,9169,3.9468,167.0899
lg,1625310064679168080,0,-0.3232,-0.689,0.6726,225,3.2349,-10.0708,15.1978,86,1.4607,1.4637,24.2518,-43.406,28,0.1511,28140,3.9468,168.0398
lg,1625310064679217562,0,-0.1763,-0.7612,0.7927,226,0.6104,-30.9448,29.9072,86,1.4607,1.4637,23.5693,-42.6276,28,0.1511,11054,3.9468,169.913
lg,1625310064679238450,0,0.0183,-0.8335,0.7607,227,2.7466,-37.7197,16.8457,86,1.4617,1.4627,21.9723,-42.0873,28,0.1511,8436,3.9468,171.4692
lg,1625310064679259617,0,0.0723,-0.8442,0.7422,228,9.6436,-13.2446,-3.9062,86,1.4637,1.4627,20.4951,-41.88,28,0.1511,11571,3.9468,-188.3793
lg,1625310064679278728,0,0.1101,-0.6809,0.6895,229,27.9541,14.5264,-18.6157,86,1.4657,1.4607,19.4028,-41.2155,28,0.1501,8617,3.9468,170.5719
lg,1625310064679298321,0,-0.0764,-0.772,0.5579,230,18.4326,34.668,-26.123,86,1.4657,1.4587,19.1802,-41.6021,28,0.1501,8531,3.9468,168.5928
lg,1625310064679318969,0,-0.2437,-0.8677,0.5686,231,7.5684,55.6641,-7.2632,86,1.4667,1.4597,20.4121,-42.5194,28,0.1501,8557,3.9468,166.5751
lg,1625310064679337617,0,-0.3914,-0.7363,0.6743,232,-8.728,50.7202,35.7666,86,1.4657,1.4617,22.8983,-43.1865,28,0.1521,8538,3.9468,166.1463
lg,1625310064679356654,0,-0.5332,-0.5562,0.8274,233,-7.6904,35.6445,49.3164,86,1.4647,1.4627,25.49,-42.9167,28,0.1521,9247,3.9468,166.7976
lg,1625310064679404302,0,-0.5339,-0.6577,0.8286,234,-26.4282,-49.0112,45.105,86,1.4597,1.4637,25.3288,-42.5207,28,0.1521,8577,3.9468,169.821
lg,1625310064679436284,0,-0.2996,-0.7571,0.6052,235,-25.1465,-94.5435,35.2783,86,1.4587,1.4627,22.0353,-42.1576,28,0.1521,8652,3.9468,-185.9052
lg,1625310064679457599,0,-0.1736,-0.8743,0.7676,236,-38.5742,-123.1079,27.8931,86,1.4577,1.4597,18.6342,-42.4232,28,0.1521,8617,3.9468,-181.5851
lg,1625310064679476302,0,-0.0532,-0.8398,0.5696,237,-16.6626,-83.6182,15.8691,86,1.4577,1.4597,16.0201,-42.7759,28,0.1521,8666,3.9468,-178.893
lg,1625310064679494950,0,-0.144,-0.783,0.6699,238,-0.4272,-21.9116,14.2822,86,1.4567,1.4607,15.4501,-42.7679,28,0.1521,8687,3.9468,-177.9115
lg,1625310064679513839,0,0.0303,-0.8035,0.7991,239,1.2207,-24.353,17.5171,86,1.4577,1.4607,14.5458,-42.4921,27,0.1521,8688,3.9501,-176.7206
lg,1625310064679534413,0,0.0771,-0.8359,0.7712,240,0.6714,-18.1885,13.0615,86,1.4587,1.4617,13.6459,-42.431,27,0.1531,8721,3.9501,-175.8652
lg,1625310064679553950,0,0.0435,-0.8806,0.7131,241,9.8267,23.5596,-4.5166,86,1.4597,1.4637,13.5978,-42.5635,27,0.1531,8702,3.9501,-176.7399
lg,1625310064679572710,0,-0.0476,-0.821,0.7363,242,21.0571,54.1382,-26.8555,86,1.4617,1.4637,14.0203,-42.494,27,0.1531,8780,3.9501,-179.117
lg,1625310064679608913,0,-0.0649,-0.7312,0.644,243,32.1045,56.8237,-45.166,86,1.4637,1.4637,14.0739,-42.1701,28,0.1521,9247,3.9501,-182.133
lg,1625310064679630858,0,-0.144,-0.7429,0.4473,244,30.3955,36.8652,-45.6543,86,1.4617,1.4627,13.7713,-42.1953,28,0.1501,8988,3.9501,-184.7083
lg,1625310064679649043,0,-0.3081,-0.9209,0.6228,245,2.1973,57.1899,5.127,86,1.4617,1.4627,15.6626,-43.0022,28,0.1511,8852,3.9501,-186.2845
lg,1625310064679667858,0,-0.3169,-0.8555,0.7529,246,-3.54,57.7393,27.832,86,1.4637,1.4637,17.8915,-42.793,28,0.1521,8853,3.9501,-186.5321
lg,1625310064679685617,0,-0.4153,-0.4932,0.697,247,6.2256,16.1133,28.3813,86,1.4617,1.4657,19.448,-42.115,28,0.1521,8894,3.9501,-186.0168
lg,1625310064679704432,0,-0.5298,-0.645,0.7952,248,-13.9771,-19.4702,38.3301,86,1.4627,1.4677,20.207,-41.9474,28,0.1521,9122,3.9501,-184.2092
lg,1625310064679722765,0,-0.3208,-0.7427,0.8792,249,-13.9771,-93.0786,21.9116,86,1.4617,1.4677,17.8355,-41.3435,28,0.1531,8357,3.9501,-180.867
lg,1625310064679741265,0,-0.0967,-0.8096,0.6257,250,-23.0103,-116.9434,18.7988,86,1.4607,1.4687,14.3698,-41.6396,28,0.1531,8755,3.9501,-177.1846
lg,1625310064679759099,0,-0.0505,-0.7866,0.4441,251,-12.2681,-88.501,20.874,86,1.4597,1.4687,12.013,-42.0661,28,0.1541,9231,3.9501,-174.2746
lg,1625310064679777580,0,-0.1572,-0.7932,0.6575,252,4.7607,9.5215,24.353,86,1.4607,1.4687,12.8161,-42.0939,28,0.1531,9171,3.9501,-173.8654
lg,1625310064679795784,0,-0.1157,-0.697,0.8516,253,11.2305,20.1416,34.729,86,1.4607,1.4677,14.066,-41.4029,28,0.1541,8439,3.9501,-173.3295
lg,1625310064679813895,0,-0.0544,-0.7825,0.7729,254,0.9766,3.9062,25.4517,86,1.4607,1.4657,14.4106,-41.3471,28,0.1531,8443,3.9501,-172.6878
lg,1625310064679831265,0,-0.0632,-0.8635,0.7229,255,-0.7935,8.728,21.0571,86,1.4607,1.4647,15.0091,-41.6004,28,0.1531,8909,3.9501,-172.8179
lg,1625310064679848710,0,-0.0879,-0.8274,0.7471,256,7.5073,29.8462,12.9395,86,1.4627,1.4627,15.826,-41.6613,28,0.1541,8491,3.9501,-173.3079
lg,1625310065042833154,0,-0.0791,-0.8701,0.6514,257,6.6528,27.9541,10.0098,86,1.4647,1.4647,17.176,-42.5644,28,0.1541,27333,3.9501,-174.101
lg,1625310065042862932,0,-0.2617,-0.7727,0.7109,258,-9.5215,38.3911,41.8701,86,1.4647,1.4657,19.3044,-43.0673,28,0.1551,8764,3.9501,-173.9667
lg,1625310065042883117,0,-0.3369,-0.5154,0.7493,259,-0.3052,33.8135,39.917,86,1.4637,1.4677,21.2434,-42.7404,28,0.1551,7941,3.9501,-173.608
lg,1625310065042902098,0,-0.4573,-0.6294,0.7441,260,-13.1226,15.8081,32.3486,86,1.4627,1.4687,21.5859,-42.9986,28,0.1561,9649,3.9501,-172.2717
lg,1625310065042921080,0,-0.4094,-0.7673,0.7039,261,-16.3574,-48.7671,17.395,86,1.4617,1.4687,20.636,-43.1054,28,0.1571,7948,3.9501,-170.3574
lg,1625310065042939672,0,-0.2322,-0.8179,0.6719,262,-18.4937,-72.6929,19.104,86,1.4617,1.4687,18.7257,-43.2276,28,0.1571,8632,3.9501,-167.754
lg,1625310065042957487,0,-0.158,-0.7756,0.5559,263,-9.5215,-51.5747,16.0522,86,1.4617,1.4687,17.3158,-43.4383,28,0.1571,8691,3.9501,-165.9149
lg,1625310065042975302,0,-0.1853,-0.7458,0.4973,264,-5.3711,-31.6162,20.813,86,1.4617,1.4667,16.7673,-43.7077,28,0.1571,8065,3.9501,-164.5234
lg,1625310065042992506,0,-0.2454,-0.7708,0.657,265,3.54,8.1177,34.3628,86,1.4627,1.4687,17.8229,-43.5509,28,0.1571,8092,3.9501,-163.7847
lg,1625310065043031432,0,-0.1079,-0.7712,0.7871,266,4.4556,-13.2446,35.7056,86,1.4627,1.4687,17.9319,-42.9458,28,0.1571,8087,3.9501,-162.3227
lg,1625310065043049635,0,-0.0227,-0.7896,0.7732,267,3.0518,-20.6299,32.8369,86,1.4627,1.4667,17.5609,-42.4363,27,0.1571,8085,3.9501,-160.7573
lg,1625310065043067043,0,0.0439,-0.8743,0.7493,268,4.5166,-3.8452,21.7896,86,1.4627,1.4667,17.2691,-42.3001,27,0.1571,8169,3.9501,-160.062
lg,1625310065043085321,0,0.0339,-0.7786,0.7681,269,17.6392,24.353,7.2632,86,1.4647,1.4657,17.4387,-41.8521,27,0.1571,8132,3.9501,-160.5623
lg,1625310065043102135,0,0.0359,-0.7073,0.7844,270,20.9351,36.0718,2.8687,86,1.4657,1.4647,17.8307,-41.2931,27,0.1561,8223,3.9501,-161.4848
lg,1625310065043230598,0,-0.1047,-0.7883,0.5991,271,15.1978,36.2549,-4.5776,86,1.4657,1.4657,18.3372,-41.5069,28,0.1561,8194,3.9501,-162.7835
lg,1625310065043273061,0,-0.312,-0.7014,0.7725,272,-2.3804,44.4336,18.2495,86,1.4647,1.4677,20.4511,-41.8221,28,0.1571,13348,3.9501,-163.1746
lg,1625310065043295469,0,-0.3765,-0.5972,0.6943,273,-5.127,32.7148,32.7148,86,1.4627,1.4687,22.3621,-41.9318,28,0.1581,8259,3.9501,-163.0516
lg,1625310065043314617,0,-0.4255,-0.5908,0.9292,274,-10.8643,19.7754,29.2358,86,1.4617,1.4687,23.6842,-41.8291,28,0.1591,8227,3.9501,-162.5331
lg,1625310065043333858,0,-0.5718,-0.8203,0.8865,275,-20.3857,-27.9541,8.3008,86,1.4607,1.4657,23.1405,-42.2368,28,0.1591,8272,3.9501,-161.4569
lg,1625310065043352321,0,-0.4666,-0.8035,0.729,276,-19.3481,-70.1904,8.2397,86,1.4597,1.4627,21.3012,-42.3428,28,0.1581,8256,3.9501,-159.229
lg,1625310065043397950,0,-0.3716,-0.7507,0.5093,277,-15.9302,-86.1206,-1.9531,86,1.4597,1.4607,18.7783,-42.6607,28,0.1581,9092,3.9501,-156.9934
lg,1625310065043419672,0,-0.2109,-0.7783,0.5906,278,-5.6152,-67.4438,20.2026,86,1.4597,1.4607,17.0963,-42.5006,28,0.1581,8873,3.9501,-154.5762
lg,1625310065043439598,0,-0.001,-0.7576,0.6123,279,2.5024,-62.7441,28.4424,86,1.4597,1.4617,15.3534,-42.0058,28,0.1581,8788,3.9501,-152.0443
lg,1625310065043462135,0,0.1619,-0.8557,0.7212,280,2.2583,-25.1465,19.4092,86,1.4607,1.4637,14.2223,-41.8945,28,0.1591,8389,3.9501,-150.8362
lg,1625310065043483209,0,0.1506,-0.8792,0.7124,281,5.7373,-5.9204,13.0615,86,1.4607,1.4657,14.0411,-41.9558,28,0.1581,8436,3.9501,-151.271
lg,1625310065043503969,0,0.032,-0.8508,0.6946,282,17.0898,40.9546,-3.7231,86,1.4607,1.4667,14.5417,-41.9307,28,0.1591,8436,3.9501,-152.605
lg,1625310065043524191,0,-0.1079,-0.7805,0.7275,283,26.3062,73.8525,-13.0615,86,1.4607,1.4657,16.035,-41.7241,28,0.1581,8474,3.9501,-155.1067
lg,1625310065043543043,0,-0.1421,-0.6567,0.8074,284,34.668,83.7402,-23.6206,86,1.4617,1.4677,17.5787,-41.1086,28,0.1561,8498,3.9501,-158.1359
lg,1625310065043563006,0,-0.2009,-0.6597,0.6816,285,32.8369,80.7495,-29.0527,86,1.4597,1.4667,19.0152,-40.9004,28,0.1531,8465,3.9501,-161.3302
lg,1625310065043580506,0,-0.2812,-0.749,0.6462,286,22.3999,64.5752,-27.771,86,1.4587,1.4647,20.1003,-41.2328,28,0.1501,8510,3.9501,-164.1298
lg,1625310065043598821,0,-0.4187,-0.8618,0.7708,287,-4.0283,62.0728,5.3101,86,1.4567,1.4647,22.075,-42.2368,28,0.1501,8780,3.9501,-165.8293
lg,1625310065043617172,0,-0.479,-0.6711,0.7991,288,-9.5215,30.3345,22.7051,86,1.4577,1.4657,23.6747,-42.5815,28,0.1511,8546,3.9501,-165.9569
lg,1625310065410224728,0,-0.4651,-0.7522,0.6169,289,-31.8604,-87.6465,27.6489,86,1.4577,1.4697,20.7162,-42.5751,28,0.1541,27317,3.9501,-161.4812
lg,1625310065410260191,0,-0.0979,-0.7937,0.5964,290,-35.0342,-173.2178,42.6636,86,1.4577,1.4697,16.2109,-42.4128,28,0.1541,8711,3.9501,-155.3713
lg,1625310065410281154,0,0.082,-0.8943,0.3806,291,-22.2168,-136.7798,32.4707,86,1.4577,1.4697,12.3354,-43.067,28,0.1541,7957,3.9501,-150.8195
lg,1625310065410301117,0,0.1384,-0.9731,0.4905,292,-0.5493,-52.6123,36.9263,86,1.4587,1.4697,11.0863,-43.3515,28,0.1551,7951,3.9501,-148.4164
lg,1625310065410320524,0,0.1399,-0.9141,0.5239,293,10.8643,-26.9165,32.8979,86,1.4587,1.4707,10.4987,-43.2488,28,0.1551,7899,3.9501,-146.819
lg,1625310065410359450,0,0.1545,-0.8181,0.5974,294,20.5078,9.6436,37.7808,86,1.4587,1.4707,11.0682,-42.6816,28,0.1551,10432,3.9501,-146.0449
lg,1625310065410379061,0,0.0657,-0.7627,0.6604,295,21.4233,35.7056,28.9307,86,1.4597,1.4697,12.3178,-42.0987,28,0.1551,7924,3.9501,-146.2122
lg,1625310065410397672,0,-0.0779,-0.6953,0.7659,296,28.1982,52.5513,24.231,86,1.4597,1.4697,14.2042,-41.1278,28,0.1541,8148,3.9501,-146.9096
lg,1625310065410415746,0,-0.1758,-0.6233,0.8005,297,24.353,54.5654,23.4375,86,1.4597,1.4697,16.5981,-40.4762,28,0.1551,8011,3.9501,-147.3299
lg,1625310065410433376,0,-0.2998,-0.615,0.9402,298,6.4087,40.8325,38.147,86,1.4597,1.4697,18.7574,-39.8824,28,0.1551,8007,3.9501,-147.131
lg,1625310065410451043,0,-0.3535,-0.6218,0.9143,299,-3.6621,12.0239,35.5835,86,1.4607,1.4707,19.9917,-39.5144,28,0.1561,9373,3.9501,-146.222
lg,1625310065410468191,0,-0.3442,-0.6667,0.8044,300,-9.7656,-11.7188,29.541,86,1.4607,1.4707,20.3082,-39.4546,28,0.1561,8049,3.9501,-144.932
lg,1625310065410486265,0,-0.3042,-0.6638,0.7959,301,-8.667,-15.3809,23.0713,86,1.4607,1.4717,20.2598,-39.3968,28,0.1571,8246,3.9501,-143.7573
lg,1625310065410504061,0,-0.2812,-0.7195,0.8184,302,-8.4839,2.9907,10.6201,86,1.4607,1.4717,20.3884,-39.7103,28,0.1571,8064,3.9501,-143.5137
lg,1625310065410522876,0,-0.2571,-0.7849,0.7476,303,-5.5542,1.5869,0.1831,86,1.4607,1.4717,20.1629,-40.2085,28,0.1571,8192,3.9501,-143.6434
lg,1625310065410540950,0,-0.2371,-0.782,0.7043,304,-3.7842,2.3193,-6.1035,86,1.4607,1.4717,19.7812,-40.7575,28,0.1561,8121,3.9501,-144.0114
lg,1625310065410558506,0,-0.2153,-0.835,0.6519,305,-2.0142,10.0098,-13.916,86,1.4617,1.4727,19.3964,-41.5317,28,0.1551,9077,3.9501,-144.8885
lg,1625310065410576172,0,-0.158,-0.8518,0.6089,306,6.8359,7.0801,-25.5127,86,1.4637,1.4737,18.5137,-42.1053,28,0.1551,8915,3.9501,-146.0645
lg,1625310065410593746,0,-0.1467,-0.8425,0.5251,307,12.5732,-0.4883,-33.02,86,1.4627,1.4717,17.2353,-42.5527,28,0.1531,8563,3.9501,-147.2782
lg,1625310065410612024,0,-0.1453,-0.8354,0.4453,308,16.5405,-3.8452,-32.959,86,1.4617,1.4717,15.696,-42.7893,28,0.1501,8561,3.9501,-148.1776
lg,1625310065410629746,0,-0.1111,-0.783,0.384,309,17.2729,-12.4512,-25.6958,86,1.4607,1.4707,14.3377,-43.0404,28,0.1491,8984,3.9501,-148.8295
lg,1625310065410660339,0,-0.1792,-0.8142,0.4302,310,-3.479,-7.7515,5.249,86,1.4607,1.4707,14.152,-43.8294,28,0.1521,8241,3.9501,-148.6371
lg,1625310065410685413,0,-0.2476,-0.7483,0.7317,311,-5.4932,6.8359,43.5181,86,1.4627,1.4727,15.5156,-43.8271,28,0.1531,8297,3.9501,-147.5524
lg,1625310065410703469,0,-0.3589,-0.771,0.7664,312,-10.2539,16.9067,53.4058,86,1.4617,1.4737,17.8862,-43.9856,28,0.1521,8681,3.9501,-146.4589
lg,1625310065410721802,0,-0.3638,-0.5762,0.958,313,-14.4043,-40.3442,63.5986,86,1.4597,1.4707,18.4905,-43.0668,28,0.1551,9091,3.9501,-143.1872
lg,1625310065410740080,0,-0.2446,-0.4612,0.553,314,-7.9346,-131.5308,23.5596,86,1.4557,1.4677,15.2789,-41.9539,28,0.1551,9098,3.9501,-138.696
lg,1625310065410757894,0,-0.1245,-0.8416,0.6753,315,-39.6729,-126.2207,29.9683,86,1.4577,1.4657,12.0411,-42.8574,28,0.1541,8440,3.9501,-134.3725
lg,1625310065410775598,0,-0.1411,-0.9417,0.7542,316,-8.3008,-52.7954,31.7383,86,1.4557,1.4657,11.158,-43.0299,28,0.1541,10822,3.9501,-132.0226
lg,1625310065410793098,0,0.1531,-0.6941,0.8127,317,10.6201,-38.147,35.2173,86,1.4567,1.4657,10.2397,-42.1047,28,0.1541,9080,3.9501,-129.9022
lg,1625310065410811117,0,0.1936,-0.8269,0.8333,318,-0.8545,23.3154,28.6865,86,1.4577,1.4677,10.9336,-42.1932,28,0.1551,9189,3.9501,-129.6952
lg,1625310065410828709,0,-0.0664,-0.8921,0.6995,319,0.6104,56.6406,17.7612,86,1.4577,1.4687,13.0027,-42.6613,28,0.1551,9133,3.9501,-131.545
lg,1625310065410859080,0,-0.1775,-0.8181,0.6843,320,14.7095,83.374,-0.2441,86,1.4577,1.4687,15.2887,-42.936,28,0.1551,8807,3.9501,-133.9601
lg,1625310065786683394,0,-0.2441,-0.7642,0.7109,321,11.9019,22.0337,1.8311,86,1.4627,1.4687,15.709,-42.7324,28,0.1541,26084,3.9501,-134.5609
lg,1625310065786729079,0,-0.0281,-0.7947,0.668,322,18.4937,0.5493,-15.564,86,1.4607,1.4657,14.7506,-42.4094,28,0.1501,10701,3.9501,-135.1313
lg,1625310065786750302,0,0.001,-0.8457,0.5596,323,25.1465,21.7896,-22.0947,86,1.4577,1.4627,14.2307,-42.2884,28,0.1471,10327,3.9501,-136.5586
lg,1625310065786770431,0,-0.0408,-0.7173,0.5032,324,26.062,51.6357,0,86,1.4567,1.4587,15.3072,-42.1191,28,0.1451,7961,3.9501,-138.1241
lg,1625310065786790098,0,-0.1011,-0.7268,0.6169,325,16.2354,83.1909,23.4375,86,1.4577,1.4557,18.0238,-42.2318,28,0.1461,8279,3.9501,-139.8186
lg,1625310065786808876,0,-0.4033,-0.8108,0.8757,326,-9.7656,105.896,48.4009,86,1.4597,1.4547,22.4483,-43.1679,28,0.1471,8707,3.9501,-141.3785
lg,1625310065786827820,0,-0.6594,-0.635,0.854,327,-6.0425,69.2139,60.6689,86,1.4607,1.4567,26.4782,-43.2137,28,0.1491,8469,3.9501,-141.429
lg,1625310065786846135,0,-0.6797,-0.5215,0.74,328,-13.6108,14.5874,62.5,86,1.4607,1.4597,27.9374,-42.7204,28,0.1501,7976,3.9501,-138.4182
lg,1625310065786865820,0,-0.7407,-0.606,0.7163,329,-38.8184,-52.1851,66.1011,86,1.4577,1.4617,28.5962,-42.3591,28,0.1501,8045,3.9501,-134.5531
lg,1625310065786884413,0,-0.5107,-0.7014,0.769,330,-51.1475,-127.5024,78.125,86,1.4567,1.4627,26.8011,-41.3748,28,0.1521,8046,3.9501,-128.0715
lg,1625310065786903635,0,0.011,-0.7397,0.6934,331,-39.3677,-181.7017,44.4336,86,1.4567,1.4617,21.4647,-40.4419,28,0.1531,8871,3.9501,-121.4965
lg,1625310065786922413,0,0.1606,-0.9128,0.7988,332,-53.9551,-162.1704,32.5928,86,1.4557,1.4617,16.1674,-41.2347,28,0.1531,9078,3.9501,-116.1225
lg,1625310065786957431,0,0.2495,-1.0129,0.6099,333,-29.9683,-89.4165,7.8125,86,1.4557,1.4607,14.6435,-42.6106,28,0.1531,8878,3.9501,-115.8517
lg,1625310065786976876,0,-0.0132,-0.9097,0.5747,334,-0.9155,33.02,-1.4648,86,1.4547,1.4617,15.0312,-43.4992,28,0.1531,8223,3.9501,-116.9818
lg,1625310065786995839,0,-0.2034,-0.7288,0.5671,335,14.4043,71.6553,4.0894,86,1.4557,1.4627,17.1045,-43.7955,28,0.1531,8841,3.9501,-119.0104
lg,1625310065787014413,0,-0.2693,-0.7673,0.6367,336,13.6108,54.8706,4.8828,86,1.4557,1.4637,18.7333,-43.9499,28,0.1541,8173,3.9501,-120.5402
lg,1625310065787031857,0,-0.2698,-0.7678,0.5698,337,13.4277,34.1797,3.54,86,1.4567,1.4637,19.662,-44.1085,28,0.1551,8933,3.9501,-121.5709
lg,1625310065787050228,0,-0.1831,-0.7922,0.7449,338,27.771,4.9438,-9.7046,86,1.4607,1.4647,19.1346,-43.2477,28,0.1551,12885,3.9501,-122.0508
lg,1625310065787067339,0,0.0798,-0.6875,0.8921,339,33.6914,-27.5879,-24.4141,86,1.4627,1.4637,16.7722,-41.6558,28,0.1541,8624,3.9501,-121.9559
lg,1625310065787086005,0,0.1509,-0.7395,0.8052,340,28.1982,-29.9072,-36.9873,86,1.4637,1.4587,13.8927,-40.9469,28,0.1501,9055,3.9501,-122.3887
lg,1625310065787130413,0,0.1687,-0.8997,0.5542,341,24.1699,1.8311,-53.1006,86,1.4617,1.4547,11.6916,-41.0375,28,0.1431,8328,3.9501,-124.2444
lg,1625310065787151728,0,0.0713,-0.8213,0.3525,342,35.2783,53.4058,-48.5229,86,1.4607,1.4517,11.4236,-41.2115,28,0.1421,10248,3.9501,-127.3748
lg,1625310065787170228,0,-0.2324,-0.7124,0.7712,343,1.709,126.8311,0.7324,86,1.4597,1.4517,15.2534,-41.9873,28,0.1451,10274,3.9501,-130.8309
lg,1625310065787188561,0,-0.6035,-0.6475,0.7148,344,-7.6294,121.7651,47.4243,86,1.4637,1.4557,20.7525,-42.9032,28,0.1481,8295,3.9501,-132.829
lg,1625310065787206672,0,-0.8694,-0.6096,0.8894,345,-13.4888,80.4443,64.3311,86,1.4617,1.4597,25.5487,-43.2848,28,0.1491,9109,3.9501,-133.0835
lg,1625310065787225042,0,-0.9121,-0.5623,0.978,346,-18.8599,23.9258,66.4673,86,1.4587,1.4607,28.5187,-42.923,28,0.1501,8434,3.9501,-131.4444
lg,1625310065787242468,0,-0.3716,-0.4729,1.2222,347,-37.5366,-141.7847,64.4531,86,1.4587,1.4577,25.5926,-40.5878,28,0.1511,8839,3.9501,-124.6061
lg,1625310065787260968,0,-0.2288,-0.8716,0.5842,348,-59.021,-204.0405,16.9678,86,1.4577,1.4577,19.416,-41.152,28,0.1491,8489,3.9501,-118.5419
lg,1625310065787278635,0,-0.0347,-0.9912,0.3618,349,-28.0762,-138.2446,12.6343,86,1.4577,1.4577,15.0451,-42.144,28,0.1501,8553,3.9501,-114.6701
lg,1625310065787295876,0,-0.1101,-0.9526,0.4331,350,-16.9678,-76.1108,8.4839,86,1.4567,1.4567,14.0995,-42.0811,28,0.1511,8835,3.9501,-113.0601
lg,1625310065787313950,0,0.1633,-0.6145,0.6396,351,7.5684,-7.8125,27.9541,86,1.4557,1.4587,13.6677,-41.5839,28,0.1501,10691,3.9501,-112.0096
lg,1625310065787332079,0,0.0991,-0.76,0.6628,352,-4.9438,17.7002,21.5454,80,1.4557,1.4607,14.5939,-42.2767,28,0.1501,8553,3.9578,-112.6358
lg,1625310066162905524,0,-0.1204,-0.8015,0.6541,353,26.1841,65.1245,-13.6719,80,1.4607,1.4627,15.9308,-42.2029,28,0.1541,27917,3.9578,-115.0224
lg,1625310066162940450,0,-0.1484,-0.7659,0.7581,354,35.1562,55.3589,-15.8081,80,1.4627,1.4627,16.8273,-41.4901,28,0.1541,10455,3.9578,-117.0912
lg,1625310066162960894,0,-0.0959,-0.7351,0.6775,355,37.3535,44.3726,-31.9214,80,1.4647,1.4607,16.8693,-40.8763,28,0.1511,8462,3.9578,-119.3885
lg,1625310066162985357,0,-0.0786,-0.7974,0.5947,356,32.959,47.9126,-37.8418,80,1.4627,1.4567,16.849,-40.7869,28,0.1461,8448,3.9578,-122.043
lg,1625310066163005875,0,-0.0913,-0.7961,0.5237,357,34.9121,56.5796,-39.1846,80,1.4607,1.4517,17.102,-40.8452,28,0.1421,7926,3.9578,-125.0186
lg,1625310066163024579,0,-0.1079,-0.6643,0.48,358,31.5552,80.5664,-9.0942,80,1.4607,1.4477,18.9224,-40.8966,28,0.1371,10321,3.9578,-127.6898
lg,1625310066163042913,0,-0.3347,-0.7112,0.7837,359,0.6104,118.2861,39.978,80,1.4607,1.4437,23.4495,-41.6598,28,0.1391,13717,3.9578,-129.7734
lg,1625310066163089950,0,-0.6667,-0.8286,0.8096,360,-12.3901,106.6284,61.2793,80,1.4617,1.4437,28.4801,-42.8098,28,0.1411,8643,3.9578,-131.0161
lg,1625310066163109968,0,-0.7883,-0.7234,0.7644,361,-12.2681,67.4438,61.5845,80,1.4637,1.4457,32.6827,-43.2076,28,0.1411,8339,3.9578,-131.0184
lg,1625310066163128801,0,-0.9458,-0.5051,0.6602,362,-27.4048,-28.3813,67.627,80,1.4637,1.4497,34.3082,-42.2756,28,0.1441,8779,3.9578,-127.5993
lg,1625310066163147727,0,-0.9009,-0.5615,0.7327,363,-57.8613,-130.0049,108.3984,80,1.4597,1.4527,33.6472,-39.8869,28,0.1441,8811,3.9578,-119.4196
lg,1625310066163166690,0,-0.5234,-0.7251,0.6938,364,-78.186,-258.1177,130.127,80,1.4547,1.4537,28.605,-36.925,28,0.1461,8612,3.9578,-107.3255
lg,1625310066163184190,0,0.3489,-0.7766,0.9033,365,-58.1055,-316.4062,82.2754,80,1.4547,1.4517,18.7618,-34.979,28,0.1461,8842,3.9578,-96.451
lg,1625310066163205079,0,0.4646,-0.958,0.6123,366,-56.0303,-280.9448,50.5371,80,1.4547,1.4487,11.4752,-36.5576,28,0.1461,8641,3.9578,-90.0845
lg,1625310066163224505,0,0.3301,-1.063,0.5198,367,-21.0571,-40.8325,-13.6719,80,1.4547,1.4477,8.8625,-38.3014,28,0.1471,10653,3.9578,-89.7038
lg,1625310066163243579,0,0.1296,-1.0071,0.5476,368,0.1221,34.729,-15.1367,80,1.4557,1.4497,10.4875,-38.6647,28,0.1471,8894,3.9578,-91.8642
lg,1625310066163263172,0,-0.0977,-0.708,0.4939,369,28.8086,90.1489,-4.3945,80,1.4547,1.4477,13.0329,-38.6558,28,0.1471,8479,3.9578,-94.4289
lg,1625310066163285098,0,-0.2913,-0.6609,0.5012,370,26.9165,103.8208,8.667,80,1.4547,1.4517,16.7329,-38.7335,28,0.1471,8121,3.9578,-96.9629
lg,1625310066163303616,0,-0.3955,-0.6951,0.5828,371,24.231,98.938,18.0054,80,1.4547,1.4537,20.3928,-38.5957,28,0.1481,8173,3.9578,-98.705
lg,1625310066163320561,0,-0.3704,-0.6802,0.7141,372,30.4565,72.5098,24.292,80,1.4547,1.4537,23.2627,-37.9855,28,0.1481,8937,3.9578,-99.8933
lg,1625310066163338098,0,-0.238,-0.6589,0.843,373,27.0386,21.3013,20.3247,80,1.4567,1.4557,24.0012,-36.844,28,0.1491,8938,3.9578,-99.7582
lg,1625310066163355301,0,-0.0784,-0.7742,0.8535,374,19.104,-5.7983,11.7188,80,1.4597,1.4567,23.3131,-36.0806,28,0.1491,8380,3.9578,-99.2941
lg,1625310066163373431,0,0.0276,-0.8,0.7788,375,20.0806,2.5024,-7.9956,80,1.4627,1.4567,22.2646,-35.8202,28,0.1501,9125,3.9578,-99.8046
lg,1625310066163392968,0,0.0107,-0.8337,0.7202,376,18.1274,22.3999,-8.9111,80,1.4647,1.4577,22.7709,-36.1937,28,0.1491,8673,3.9578,-101.4914
lg,1625310066163412061,0,-0.0593,-0.8242,0.6453,377,25.4517,70.6177,-6.4087,80,1.4647,1.4577,24.1469,-36.6579,28,0.1481,8325,3.9578,-103.8072
lg,1625310066163429209,0,-0.1978,-0.7498,0.6511,378,31.8604,117.9199,-8.7891,80,1.4637,1.4567,27.1865,-37.4068,28,0.1451,9070,3.9578,-107.4913
lg,1625310066163449894,0,-0.334,-0.7451,0.7026,379,27.9541,137.3901,-3.2349,80,1.4617,1.4557,31.0529,-38.623,28,0.1421,9096,3.9578,-111.6696
lg,1625310066163467394,0,-0.4597,-0.7214,0.6787,380,16.6016,113.4644,7.6294,80,1.4617,1.4547,34.4905,-39.9965,28,0.1421,9231,3.9578,-114.9934
lg,1625310066163486616,0,-0.5435,-0.7148,0.645,381,3.7842,85.3271,13.7939,80,1.4617,1.4537,36.5294,-41.1421,28,0.1441,8823,3.9578,-115.8617
lg,1625310066163506283,0,-0.6301,-0.7268,0.7415,382,-22.522,22.644,42.9077,80,1.4637,1.4537,38.12,-41.6405,28,0.1471,8838,3.9578,-115.076
lg,1625310066163528505,0,-0.7192,-0.6772,0.6267,383,-37.6587,-37.1094,64.5142,80,1.4627,1.4567,38.7035,-41.0325,28,0.1481,9215,3.9578,-111.4778
lg,1625310066163546394,0,-0.7183,-0.6057,0.6511,384,-44.9219,-92.3462,91.4307,80,1.4587,1.4577,38.2322,-38.7638,28,0.1481,8902,3.9578,-104.8952
lg,1625310066541589597,0,0.1416,-1.041,0.9148,385,-57.5562,-138.6108,13.0005,80,1.4557,1.4517,33.5623,-39.4614,28,0.1481,28783,3.9578,-103.2943
lg,1625310066541640857,0,-0.2185,-0.8713,0.5417,386,9.6436,-8.7891,-15.7471,80,1.4557,1.4537,32.1134,-40.0791,28,0.1481,8845,3.9578,-104.0639
lg,1625310066541662820,0,-0.1331,-0.6658,0.6565,387,16.6626,-1.5869,-7.7515,80,1.4557,1.4547,30.9415,-39.7716,28,0.1491,8661,3.9578,-104.4244
lg,1625310066541682949,0,-0.1982,-0.7385,0.5906,388,11.1084,4.8218,-5.4932,80,1.4547,1.4567,30.714,-40.2686,28,0.1501,8654,3.9578,-105.2423
lg,1625310066541736727,0,-0.2517,-0.7729,0.5942,389,9.7046,36.2549,-1.1597,80,1.4547,1.4577,31.1594,-40.9974,28,0.1511,8332,3.9578,-106.6582
lg,1625310066541759764,0,-0.291,-0.7368,0.7449,390,21.8506,35.7056,-8.4229,80,1.4557,1.4587,31.3925,-41.0045,28,0.1511,8877,3.9578,-108.1374
lg,1625310066541778264,0,-0.2537,-0.7139,0.7197,391,18.7988,7.6294,-16.1133,80,1.4567,1.4607,30.5191,-40.8257,28,0.1521,9356,3.9578,-109.0237
lg,1625310066541797264,0,-0.2673,-0.8022,0.7109,392,13.7329,-2.1973,-21.7285,80,1.4597,1.4607,29.2424,-40.9493,28,0.1531,8775,3.9578,-109.8815
lg,1625310066541829227,0,-0.2251,-0.7913,0.7754,393,17.7002,-8.7891,-23.3154,80,1.4617,1.4607,27.5121,-40.587,28,0.1531,8399,3.9578,-110.4673
lg,1625310066541849635,0,-0.0964,-0.7134,0.7058,394,25.3906,-16.8457,-28.8696,80,1.4617,1.4607,25.4036,-39.9955,28,0.1521,8017,3.9578,-111.0596
lg,1625310066541868727,0,-0.0647,-0.7681,0.6506,395,16.6626,-5.4321,-32.7148,80,1.4657,1.4597,23.566,-40.1344,28,0.1501,8814,3.9578,-112.1824
lg,1625310066541888227,0,-0.0408,-0.8147,0.6028,396,19.5923,26.2451,-26.123,80,1.4647,1.4567,22.8817,-40.5469,28,0.1481,8437,3.9578,-114.0143
lg,1625310066541906709,0,-0.0701,-0.7849,0.5627,397,17.7612,39.978,-25.6348,80,1.4637,1.4507,22.7048,-41.1796,28,0.1461,8094,3.9578,-116.2157
lg,1625310066541925505,0,-0.2217,-0.7673,0.5725,398,7.019,75.4395,1.77,80,1.4637,1.4537,24.6213,-42.251,28,0.1471,8880,3.9578,-118.547
lg,1625310066541944801,0,-0.3936,-0.8279,0.78,399,-12.4512,64.8193,29.2358,80,1.4657,1.4527,27.0816,-43.359,28,0.1491,8552,3.9578,-119.6305
lg,1625310066541963190,0,-0.5977,-0.7483,0.7114,400,-16.9678,47.8516,38.9404,80,1.4667,1.4547,29.12,-44.0167,28,0.1501,8565,3.9578,-118.7547
lg,1625310066541981394,0,-0.6165,-0.7021,0.7393,401,-29.7852,-15.3809,55.2368,80,1.4647,1.4577,30.2871,-44.021,28,0.1511,8931,3.9578,-116.419
lg,1625310066541999431,0,-0.5962,-0.6191,0.7373,402,-36.2549,-89.2334,68.6646,80,1.4597,1.4607,29.0949,-42.4016,28,0.1531,9090,3.9578,-111.0357
lg,1625310066542017579,0,-0.2053,-0.7747,0.3933,403,-37.0483,-199.2798,13.6108,80,1.4597,1.4587,23.0424,-41.9234,28,0.1541,8349,3.9578,-105.0477
lg,1625310066542036283,0,0.1243,-0.8894,0.5598,404,-30.5786,-172.7295,15.1978,80,1.4597,1.4567,17.2431,-41.9291,28,0.1541,8309,3.9578,-99.9027
lg,1625310066542054764,0,0.0688,-0.8352,0.3447,405,-15.686,-128.2959,-4.8218,80,1.4597,1.4577,15.3096,-42.7484,28,0.1531,8307,3.9578,-99.0151
lg,1625310066542072986,0,-0.0991,-0.7612,0.5762,406,7.5684,11.9629,12.085,80,1.4597,1.4597,15.6226,-42.8398,28,0.1531,8328,3.9578,-99.0934
lg,1625310066542100449,0,-0.0391,-0.6787,0.7769,407,15.0146,15.8081,26.7334,80,1.4597,1.4607,16.2761,-42.0576,28,0.1531,9049,3.9578,-98.7025
lg,1625310066542123153,0,0.0391,-0.8018,0.7356,408,5.4321,18.3105,30.3345,80,1.4597,1.4627,16.9133,-41.9315,28,0.1531,8970,3.9578,-98.3387
lg,1625310066542141283,0,-0.0249,-0.8757,0.7212,409,6.7139,30.7617,23.7427,80,1.4597,1.4637,18.0465,-41.9278,28,0.1551,8453,3.9578,-99.0652
lg,1625310066542159320,0,-0.0798,-0.8201,0.7566,410,20.4468,49.9268,11.3525,80,1.4607,1.4637,19.2805,-41.6619,28,0.1561,8438,3.9578,-100.1868
lg,1625310066542177764,0,-0.1279,-0.7332,0.6921,411,28.1982,54.5654,5.6152,80,1.4637,1.4627,20.5807,-41.1986,28,0.1571,8483,3.9578,-101.6177
lg,1625310066542196468,0,-0.0032,-0.6663,0.8176,412,27.2827,42.9688,-6.7749,80,1.4667,1.4607,20.9002,-40.5201,28,0.1561,8453,3.9578,-103.0152
lg,1625310066542214042,0,-0.0378,-0.7336,0.6624,413,22.0337,43.5791,-13.916,80,1.4687,1.4577,21.356,-41.0536,28,0.1551,8743,3.9578,-105.048
lg,1625310066542234079,0,-0.0942,-0.8254,0.6067,414,18.7988,63.9648,-9.2773,80,1.4687,1.4497,22.4055,-41.6169,28,0.1531,8522,3.9578,-107.3644
lg,1625310066542253283,0,-0.2637,-0.7849,0.7058,415,11.3525,102.1118,8.9722,80,1.4687,1.4507,25.3265,-42.5159,28,0.1531,8583,3.9578,-110.1721
lg,1625310066542271579,0,-0.4902,-0.761,0.7593,416,-13.0615,89.1724,39.917,80,1.4697,1.4507,28.9627,-43.7827,28,0.1551,8543,3.9578,-111.6547
lg,1625310066917886153,0,-0.6365,-0.614,0.7224,417,-33.5693,-36.1938,62.1338,80,1.4637,1.4587,29.7302,-43.5092,28,0.1571,25434,3.9578,-108.4262
lg,1625310066918007727,0,-0.2554,-0.7036,0.7556,418,-34.3018,-132.9346,41.4429,80,1.4617,1.4597,26.361,-42.2661,28,0.1581,14059,3.9578,-102.9328
lg,1625310066918032597,0,-0.0408,-0.9062,0.7134,419,-44.4946,-135.9863,30.3345,80,1.4607,1.4577,22.2553,-42.3801,28,0.1591,9303,3.9578,-98.1042
lg,1625310066918052023,0,-0.0588,-0.8708,0.5139,420,-17.395,-74.4629,9.0942,80,1.4607,1.4587,19.6204,-42.9,28,0.1591,8749,3.9578,-95.9183
lg,1625310066918071171,0,-0.0957,-0.842,0.5671,421,-6.7749,-29.48,7.2632,80,1.4607,1.4587,19.0877,-43.0209,28,0.1591,8525,3.9578,-95.5481
lg,1625310066918110079,0,-0.0833,-0.8145,0.6965,422,6.4087,-3.7231,9.8267,80,1.4607,1.4607,18.6731,-42.8903,28,0.1591,8640,3.9578,-95.2241
lg,1625310066918129486,0,0.002,-0.8455,0.6433,423,11.9019,-0.9766,2.3193,80,1.4617,1.4617,17.9833,-42.7833,28,0.1581,10210,3.9578,-95.2555
lg,1625310066918148819,0,-0.103,-0.856,0.6025,424,25.7568,37.0483,-20.5078,80,1.4647,1.4637,18.0332,-42.7662,28,0.1581,13174,3.9578,-97.1014
lg,1625310066918166634,0,-0.0881,-0.5261,0.4919,425,36.0718,27.9541,-24.0479,80,1.4667,1.4637,17.1281,-41.6879,28,0.1581,8618,3.9578,-98.2638
lg,1625310066918183801,0,-0.1282,-0.5706,0.5989,426,29.1138,22.7661,-22.0337,80,1.4677,1.4637,16.8949,-40.9821,28,0.1591,8643,3.9578,-99.6085
lg,1625310066918200764,0,-0.2898,-0.8359,0.6538,427,6.897,34.1187,7.9956,80,1.4677,1.4647,18.0695,-41.342,28,0.1601,8629,3.9578,-100.4263
lg,1625310066918217838,0,-0.4172,-0.7222,0.7566,428,-7.2632,31.4941,36.438,80,1.4657,1.4657,20.1136,-41.6225,28,0.1601,9392,3.9578,-100.1836
lg,1625310066918234968,0,-0.4529,-0.5503,0.9136,429,-4.8218,13.7939,51.3916,80,1.4637,1.4677,22.0017,-40.9379,28,0.1611,9283,3.9578,-98.7753
lg,1625310066918252079,0,-0.5845,-0.6797,0.7344,430,-15.625,-55.603,18.9819,80,1.4627,1.4667,21.1484,-40.8148,28,0.1621,8720,3.9578,-96.6095
lg,1625310066918270116,0,-0.4333,-0.7825,0.8159,431,-29.2358,-94.6655,27.4048,80,1.4627,1.4647,18.0026,-40.5455,28,0.1621,8732,3.9578,-92.6584
lg,1625310066918287616,0,-0.2473,-0.7854,0.677,432,-13.7329,-95.9473,16.9067,80,1.4617,1.4637,15.3637,-40.5294,28,0.1621,8774,3.9578,-89.6184
lg,1625310066918304745,0,-0.1968,-0.7734,0.7456,433,-5.127,-55.6641,16.3574,80,1.4607,1.4657,13.9059,-40.4381,28,0.1621,9037,3.9578,-87.6641
lg,1625310066918322931,0,0.0842,-0.7922,0.7451,434,-5.0049,-61.4624,15.0146,80,1.4627,1.4657,11.7199,-40.4167,28,0.1621,8816,3.9578,-85.6183
lg,1625310066918341894,0,0.2244,-0.9199,0.7004,435,-2.6855,-15.7471,6.4087,80,1.4647,1.4667,10.5433,-40.8787,28,0.1611,8886,3.9578,-85.0966
lg,1625310066918359208,0,0.085,-0.9299,0.7078,436,4.9438,23.4375,-3.6011,80,1.4657,1.4657,11.2374,-41.1877,28,0.1601,8843,3.9578,-86.9947
lg,1625310066918376227,0,-0.0491,-0.813,0.6831,437,25.2686,81.9092,-32.7759,80,1.4667,1.4647,12.4903,-41.1843,28,0.1581,11723,3.9578,-90.2789
lg,1625310066918393690,0,-0.1196,-0.8289,0.5669,438,25.6348,72.4487,-40.8325,80,1.4657,1.4627,13.3643,-41.4498,28,0.1551,8895,3.9578,-93.6263
lg,1625310066918410801,0,-0.1289,-0.804,0.4607,439,28.5034,55.1758,-45.166,80,1.4647,1.4597,13.6393,-41.7666,28,0.1521,8926,3.9578,-96.7046
lg,1625310066918427264,0,-0.1406,-0.6885,0.4209,440,29.7852,57.312,-22.9492,80,1.4617,1.4527,14.5988,-41.7911,28,0.1501,8962,3.9578,-99.1444
lg,1625310066918443727,0,-0.1697,-0.717,0.6116,441,14.2212,82.2144,24.9023,80,1.4627,1.4527,17.5249,-41.9453,28,0.1501,8992,3.9578,-100.741
lg,1625310066918477801,0,-0.4082,-0.8442,0.8687,442,-7.6904,82.2144,38.8794,80,1.4637,1.4517,21.0262,-42.7029,28,0.1511,9085,3.9578,-101.9014
lg,1625310066918495431,0,-0.605,-0.6946,0.7954,443,-6.1646,35.2783,54.1992,80,1.4657,1.4547,23.8656,-42.6151,28,0.1521,9008,3.9578,-101.1914
lg,1625310066918511912,0,-0.6433,-0.5684,0.7454,444,-13.1226,-13.4888,55.6641,80,1.4657,1.4577,24.3994,-41.9073,28,0.1531,9029,3.9578,-97.692
lg,1625310066918528782,0,-0.6011,-0.6084,0.7654,445,-32.959,-78.6743,70.7397,80,1.4637,1.4617,24.0721,-41.3897,28,0.1541,9083,3.9578,-93.1033
lg,1625310066918546634,0,-0.2271,-0.6716,0.9475,446,-48.7061,-145.4468,74.4019,80,1.4617,1.4617,21.1434,-40.5418,28,0.1561,9660,3.9578,-86.4316
lg,1625310066918563875,0,0.0635,-0.7593,0.5261,447,-31.9824,-166.4429,22.7051,80,1.4617,1.4627,15.7751,-40.737,28,0.1571,9154,3.9578,-81.348
lg,1625310066918580968,0,0.1953,-0.9675,0.5579,448,-30.5786,-87.8296,14.6484,80,1.4577,1.4607,12.5854,-42.0081,28,0.1571,9174,3.9578,-78.693
lg,1625310067294292653,0,-0.394,-0.6785,0.6643,449,13.4888,87.4634,9.0332,80,1.4617,1.4637,15.7448,-42.1512,28,0.1591,26592,3.9578,-80.8749
lg,1625310067294345467,0,-0.3489,-0.8225,0.6836,450,4.9438,25.0854,9.0332,80,1.4617,1.4647,16.8196,-42.3804,28,0.1591,10462,3.9578,-81.386
lg,1625310067294366523,0,-0.2671,-0.7676,0.6475,451,5.8594,7.6904,5.249,80,1.4627,1.4647,16.6632,-42.3022,28,0.1601,8479,3.9578,-81.046
lg,1625310067294386060,0,-0.2175,-0.7505,0.6426,452,5.0049,-24.8413,6.0425,80,1.4637,1.4647,15.9268,-42.1308,28,0.1601,8464,3.9578,-80.2427
lg,1625310067294405171,0,-0.0403,-0.7043,0.624,453,4.5166,-45.6543,12.146,80,1.4647,1.4657,14.3723,-41.7711,28,0.1611,8677,3.9578,-78.6727
lg,1625310067294423467,0,0.0991,-0.7437,0.7266,454,2.8076,-27.771,16.5405,80,1.4657,1.4707,13.2146,-41.5049,28,0.1611,9108,3.9578,-77.4431
lg,1625310067294442356,0,0.061,-0.8203,0.6472,455,6.7139,9.2163,10.0098,80,1.4667,1.4647,13.1124,-41.6276,28,0.1611,8537,3.9578,-77.4816
lg,1625310067294460690,0,-0.1248,-0.834,0.6855,456,7.2021,48.7061,12.3901,80,1.4687,1.4647,14.6319,-41.9211,28,0.1611,8572,3.9578,-78.5224
lg,1625310067294478449,0,-0.2068,-0.8049,0.7319,457,5.8594,55.2368,16.2354,80,1.4687,1.4647,16.5433,-42.1894,28,0.1611,8599,3.9578,-79.6204
lg,1625310067294511153,0,-0.3167,-0.7109,0.7144,458,5.6152,41.8701,23.4985,80,1.4687,1.4667,18.4396,-42.1957,28,0.1611,8687,3.9578,-80.1017
lg,1625310067294528597,0,-0.313,-0.7256,0.7954,459,6.897,14.2822,19.4092,80,1.4687,1.4647,19.2879,-41.8504,28,0.1601,8611,3.9578,-79.8979
lg,1625310067294545782,0,-0.1948,-0.7388,0.8237,460,11.3525,-17.395,-8.1787,86,1.4677,1.4637,18.1823,-41.3152,28,0.1571,8668,3.9501,-79.6663
lg,1625310067294610171,0,-0.1289,-0.7617,0.802,461,11.5356,-23.1323,-22.2168,86,1.4657,1.4607,16.4094,-41.1185,28,0.1521,8667,3.9501,-79.8037
lg,1625310067294632745,0,-0.0806,-0.8528,0.7126,462,12.6953,-10.1929,-45.9595,86,1.4617,1.4567,14.4165,-41.277,28,0.1481,8698,3.9501,-81.0586
lg,1625310067294651745,0,-0.1484,-0.8394,0.5415,463,21.9727,27.2827,-48.1567,86,1.4607,1.4517,13.7388,-41.568,28,0.1451,8737,3.9501,-83.4477
lg,1625310067294674912,0,-0.1975,-0.6187,0.4937,464,17.8833,30.9448,-15.4419,86,1.4617,1.4487,14.2655,-41.5524,28,0.1461,8764,3.9501,-84.8621
lg,1625310067294694116,0,-0.3081,-0.6599,0.6982,465,-1.77,46.7529,8.9722,86,1.4617,1.4497,16.6092,-42.2547,28,0.1491,8786,3.9501,-85.3552
lg,1625310067294711153,0,-0.5181,-0.749,0.6943,466,-17.2729,28.6865,37.0483,86,1.4647,1.4517,18.8537,-43.0161,28,0.1501,8764,3.9501,-85.0826
lg,1625310067294729190,0,-0.7822,-0.6638,0.7871,467,-22.2168,-22.583,60.8521,86,1.4657,1.4587,20.5649,-42.9357,28,0.1521,12295,3.9501,-82.5023
lg,1625310067294748264,0,-0.752,-0.636,0.7595,468,-29.2358,-87.4023,62.0117,86,1.4637,1.4597,20.203,-42.5218,28,0.1531,8824,3.9501,-78.0157
lg,1625310067294781245,0,-0.4504,-0.7261,0.6682,469,-52.9175,-204.1626,67.627,86,1.4607,1.4607,16.2065,-42.3391,28,0.1531,8884,3.9501,-70.1769
lg,1625310067294801523,0,0.2346,-0.7458,0.7761,470,-42.7246,-252.4414,48.584,86,1.4597,1.4577,9.0091,-42.2582,28,0.1541,8889,3.9501,-61.7743
lg,1625310067294819393,0,0.561,-1.0994,0.7678,471,-53.5278,-162.8418,38.269,86,1.4577,1.4537,4.1504,-44.1992,28,0.1541,8930,3.9501,-56.2175
lg,1625310067294837504,0,0.3816,-0.9819,0.3728,472,1.2207,-5.6152,10.2539,86,1.4577,1.4517,3.3642,-45.0144,28,0.1541,10183,3.9501,-55.8281
lg,1625310067294855023,0,-0.0696,-0.7976,0.5342,473,32.2266,138.3667,18.3105,86,1.4577,1.4527,7.8175,-44.4888,28,0.1541,8959,3.9501,-59.253
lg,1625310067294873097,0,-0.1877,-0.6899,0.5867,474,35.5835,135.1929,21.6064,86,1.4577,1.4547,11.8289,-43.6598,28,0.1551,9015,3.9501,-61.8138
lg,1625310067294890541,0,-0.2756,-0.668,0.6858,475,24.7803,90.7593,19.4702,86,1.4577,1.4567,15.1493,-43.1462,28,0.1561,9037,3.9501,-63.8057
lg,1625310067294908801,0,-0.3135,-0.8044,0.7349,476,18.5547,58.4717,13.916,86,1.4587,1.4577,17.2619,-42.9171,28,0.1561,9084,3.9501,-65.0927
lg,1625310067294927356,0,-0.2629,-0.7141,0.7168,477,21.4844,22.3389,0.2441,86,1.4597,1.4587,17.8119,-42.3179,28,0.1571,9074,3.9501,-65.7429
lg,1625310067294946301,0,-0.1665,-0.7014,0.7332,478,21.4233,2.9907,0.4883,86,1.4627,1.4587,17.5745,-41.5322,28,0.1571,9052,3.9501,-65.8296
lg,1625310067294965245,0,-0.0217,-0.7134,0.8308,479,18.3105,8.1787,-3.9062,86,1.4657,1.4567,17.0701,-40.86,28,0.1581,9064,3.9501,-66.17
lg,1625310067294983986,0,-0.0151,-0.7961,0.7163,480,16.8457,18.6768,-10.6812,86,1.4667,1.4547,17.2796,-40.9373,28,0.1571,9268,3.9501,-67.6941
lg,1625310067666566875,0,-0.2427,-0.7378,0.6257,481,23.9868,102.2339,-15.7471,86,1.4637,1.4417,20.2683,-41.3751,28,0.1481,27970,3.9501,-70.967
lg,1625310067666616745,0,-0.4106,-0.7344,0.6648,482,15.2588,98.0835,0.4272,86,1.4627,1.4377,23.2783,-42.0495,28,0.1471,9268,3.9501,-73.8577
lg,1625310067666637671,0,-0.533,-0.7805,0.686,483,1.3428,55.3589,16.3574,86,1.4637,1.4357,25.4962,-42.6998,28,0.1481,8439,3.9501,-75.0703
lg,1625310067666659708,0,-0.5854,-0.8494,0.7761,484,-20.3857,-26.2451,35.1562,86,1.4657,1.4337,25.7394,-42.8544,27,0.1481,8490,3.9501,-73.2119
lg,1625310067666679430,0,-0.603,-0.7229,0.5613,485,-32.2876,-100.5249,46.6309,86,1.4667,1.4377,24.3733,-42.5516,27,0.1491,8665,3.9501,-68.8249
lg,1625310067666698449,0,-0.614,-0.6211,0.5115,486,-38.3911,-126.2817,55.7251,86,1.4667,1.4447,22.8858,-42.164,27,0.1511,9095,3.9501,-63.4254
lg,1625310067666716986,0,-0.5852,-0.5571,0.4961,487,-51.3306,-179.5044,88.2568,86,1.4597,1.4487,20.5131,-41.4531,28,0.1521,9142,3.9501,-55.5143
lg,1625310067666735115,0,0.396,-0.7302,1.1824,488,-57.9834,-255.8594,82.4585,86,1.4577,1.4457,13.6637,-40.5521,28,0.1541,9254,3.9501,-45.783
lg,1625310067666757338,0,0.6265,-1.1499,1.0769,489,-57.0679,-163.8794,39.1235,86,1.4577,1.4437,8.4816,-41.9684,28,0.1541,8399,3.9501,-40.2216
lg,1625310067666777930,0,0.6055,-1.1538,0.9177,490,-31.0059,-97.29,14.5874,86,1.4577,1.4437,4.8679,-43.1834,28,0.1541,8104,3.9501,-37.1756
lg,1625310067666798134,0,0.1677,-0.9521,0.5593,491,13.3057,54.5044,-14.8926,86,1.4577,1.4457,5.5132,-43.4545,28,0.1541,8063,3.9501,-39.1688
lg,1625310067666819060,0,-0.019,-0.7017,0.5767,492,33.02,117.8589,-8.667,86,1.4567,1.4477,8.5256,-42.839,28,0.1551,9081,3.9501,-42.7051
lg,1625310067666839060,0,-0.2363,-0.7275,0.6997,493,31.8604,131.2866,-8.728,86,1.4577,1.4497,12.4895,-42.5338,28,0.1561,8571,3.9501,-46.8003
lg,1625310067666858467,0,-0.3496,-0.7537,0.7192,494,26.4893,138.5498,-15.4419,86,1.4577,1.4457,16.3628,-42.6972,28,0.1561,8136,3.9501,-51.1792
lg,1625310067666876597,0,-0.5049,-0.75,0.7168,495,24.6582,107.2388,-28.0151,86,1.4587,1.4507,19.1012,-43.0348,28,0.1571,8504,3.9501,-55.1455
lg,1625310067666896597,0,-0.4805,-0.7273,0.6899,496,21.2402,40.2222,-31.5552,86,1.4607,1.4527,19.6639,-43.0199,28,0.1571,8519,3.9501,-57.3281
lg,1625310067666914912,0,-0.4114,-0.751,0.6724,497,18.2495,10.9863,-30.1514,86,1.4637,1.4527,18.5934,-42.7325,28,0.1571,8906,3.9501,-57.8948
lg,1625310067666932912,0,-0.2217,-0.7476,0.7285,498,20.813,-28.6865,-21.6064,86,1.4667,1.4517,16.9047,-41.9713,28,0.1571,8211,3.9501,-57.7884
lg,1625310067666951726,0,-0.0286,-0.7241,0.5977,499,18.6157,-35.2783,-33.0811,86,1.4677,1.4487,14.3879,-41.5803,28,0.1551,8985,3.9501,-57.9347
lg,1625310067666969560,0,0.0381,-0.8169,0.5322,500,17.334,-20.0806,-39.3677,86,1.4667,1.4447,12.1143,-41.6466,28,0.1521,8992,3.9501,-58.7452
lg,1625310067666987875,0,0.0789,-0.8025,0.4792,501,19.8364,0.3662,-33.3252,86,1.4657,1.4427,11.5765,-41.6548,28,0.1491,8657,3.9501,-60.3557
lg,1625310067667006282,0,0.1094,-0.7341,0.4863,502,26.6113,48.8281,-14.7705,86,1.4657,1.4417,11.9236,-41.5348,28,0.1471,8236,3.9501,-62.2536
lg,1625310067667024486,0,-0.0154,-0.6951,0.5042,503,18.7378,106.5063,5.8594,86,1.4647,1.4427,14.8196,-41.9152,28,0.1471,8310,3.9501,-65.0979
lg,1625310067667042912,0,-0.313,-0.8484,0.8113,504,-9.8267,132.9956,20.752,86,1.4657,1.4437,19.2706,-43.3898,28,0.1501,9082,3.9501,-68.2808
lg,1625310067667063263,0,-0.6094,-0.7476,0.6106,505,-11.6577,129.8828,34.9731,86,1.4687,1.4447,23.7932,-44.8029,28,0.1521,8527,3.9501,-70.1579
lg,1625310067667082763,0,-0.7686,-0.6572,0.6487,506,-15.0146,72.3877,37.7808,86,1.4667,1.4467,27.505,-45.8923,28,0.1541,8416,3.9501,-71.2827
lg,1625310067667128801,0,-0.9524,-0.6133,0.7896,507,-26.7944,-12.9395,64.0259,86,1.4647,1.4527,27.8663,-44.6983,28,0.1551,11381,3.9501,-65.5989
lg,1625310067667152356,0,-0.5093,-0.5491,1.1174,508,-47.6074,-170.7764,89.7217,86,1.4627,1.4527,25.2214,-42.1901,28,0.1551,8496,3.9501,-57.0824
lg,1625310067667171078,0,-0.2769,-0.7302,0.5046,509,-41.8701,-287.2925,25.8789,86,1.4637,1.4537,17.0976,-41.1301,28,0.1561,8544,3.9501,-48.3028
lg,1625310067667204078,0,0.1624,-0.9844,0.5576,510,-54.5044,-291.0767,18.4937,86,1.4637,1.4537,8.0195,-42.2098,28,0.1561,8520,3.9501,-40.0461
lg,1625310067667225634,0,0.1812,-0.9924,0.3777,511,-36.1938,-242.7979,-6.6528,86,1.4627,1.4547,0.213,-44.1767,28,0.1571,8642,3.9501,-33.7142
lg,1625310067667245004,0,0.1372,-0.988,0.416,512,5.3711,-103.3325,-1.9531,86,1.4627,1.4567,-3.0666,-44.8957,28,0.1571,8492,3.9501,-30.867
lg,1625310068047703282,0,0.208,-0.6743,0.8125,513,19.5312,36.5601,36.499,86,1.4617,1.4577,-1.2007,-44.4173,28,0.1581,27433,3.9501,-31.1693
lg,1625310068047738967,0,0.0535,-0.8752,0.7422,514,19.9585,73.6084,21.0571,86,1.4627,1.4577,1.4283,-43.822,28,0.1601,8930,3.9501,-32.6165
lg,1625310068047760171,0,-0.0791,-0.7517,0.761,515,34.9731,103.2104,14.9536,86,1.4637,1.4577,4.9393,-42.5815,28,0.1601,7908,3.9501,-35.0158
lg,1625310068047780041,0,-0.1099,-0.6907,0.7893,516,35.1562,108.6426,11.9019,86,1.4657,1.4567,8.4279,-41.4576,28,0.1611,8308,3.9501,-37.7565
lg,1625310068047799263,0,-0.1995,-0.6892,0.8516,517,28.8086,107.9102,1.4038,86,1.4677,1.4547,11.7728,-40.698,28,0.1601,8771,3.9501,-40.5836
lg,1625310068047818023,0,-0.2568,-0.7859,0.7666,518,19.4702,95.3979,0.3052,86,1.4697,1.4527,14.7115,-40.6934,28,0.1591,9413,3.9501,-43.1748
lg,1625310068047836337,0,-0.3142,-0.8086,0.6978,519,12.146,82.9468,1.3428,86,1.4697,1.4517,17.3079,-41.1469,28,0.1581,8428,3.9501,-45.4828
lg,1625310068047854263,0,-0.47,-0.7327,0.6204,520,-14.5874,57.1289,28.4424,86,1.4707,1.4507,20.1073,-42.2692,28,0.1601,8734,3.9501,-46.294
lg,1625310068047873041,0,-0.4624,-0.7019,0.7332,521,-17.395,45.7764,46.0815,86,1.4707,1.4527,22.8613,-42.9639,28,0.1611,8026,3.9501,-46.1923
lg,1625310068047891134,0,-0.5244,-0.6548,0.7896,522,-23.9868,16.4795,63.1714,86,1.4707,1.4537,25.2253,-43.1584,28,0.1621,8033,3.9501,-44.6147
lg,1625310068047908560,0,-0.5654,-0.7368,0.6865,523,-38.3911,-14.7095,67.749,86,1.4657,1.4567,26.172,-43.5317,28,0.1631,8016,3.9501,-40.891
lg,1625310068047927319,0,-0.2979,-0.7356,1.0964,524,-31.7383,-92.8955,64.27,86,1.4647,1.4567,24.6941,-42.2752,28,0.1641,10507,3.9501,-35.8201
lg,1625310068047945263,0,-0.3115,-0.8115,0.7578,525,-31.189,-124.7559,38.3911,86,1.4637,1.4557,21.6792,-41.7811,28,0.1641,8150,3.9501,-31.0181
lg,1625310068047962911,0,-0.0447,-0.8672,0.6658,526,-36.499,-149.231,31.0669,86,1.4627,1.4577,17.3476,-41.9323,27,0.1641,8523,3.9501,-25.9693
lg,1625310068047980652,0,-0.0181,-0.9448,0.7136,527,-17.0898,-81.665,-0.3052,86,1.4627,1.4577,14.2983,-42.4339,27,0.1651,8992,3.9501,-23.8241
lg,1625310068048000356,0,0.0315,-0.8486,0.5857,528,0.4272,-45.7153,-8.9111,86,1.4637,1.4597,12.1019,-42.7005,27,0.1651,8551,3.9501,-22.9469
lg,1625310068048018615,0,0.0283,-0.8115,0.5913,529,7.6904,-24.7192,-14.5874,86,1.4657,1.4607,10.4528,-42.7852,27,0.1651,8894,3.9501,-22.7907
lg,1625310068048059856,0,-0.0054,-0.8359,0.6104,530,16.5405,18.1274,-22.3999,86,1.4657,1.4617,9.9792,-42.7661,28,0.1641,8615,3.9501,-24.0395
lg,1625310068048080060,0,-0.0896,-0.7605,0.5813,531,25.7568,48.4619,-29.4189,86,1.4677,1.4617,10.4211,-42.5129,28,0.1651,8976,3.9501,-26.3221
lg,1625310068048098060,0,-0.1487,-0.647,0.6418,532,30.3955,56.9458,-35.1562,86,1.4687,1.4617,11.2046,-41.8686,28,0.1641,12979,3.9501,-28.9554
lg,1625310068048115578,0,-0.2202,-0.6177,0.6006,533,26.001,43.7622,-31.0669,86,1.4697,1.4617,11.7871,-41.3798,28,0.1631,10184,3.9501,-31.1144
lg,1625310068048132948,0,-0.2542,-0.6763,0.6101,534,14.9536,30.8228,-16.7236,86,1.4697,1.4607,12.4167,-41.3113,28,0.1631,8894,3.9501,-32.5123
lg,1625310068048150337,0,-0.3457,-0.7644,0.6348,535,-13.5498,15.5029,6.7749,86,1.4697,1.4627,13.3265,-42.2341,28,0.1641,8887,3.9501,-32.8043
lg,1625310068048168319,0,-0.4778,-0.832,0.8315,536,-27.832,17.6392,50.9644,86,1.4707,1.4647,15.5659,-43.1771,28,0.1661,8805,3.9501,-31.7805
lg,1625310068048185560,0,-0.4619,-0.6011,0.7822,537,-24.7192,-22.8882,75.4395,86,1.4677,1.4647,17.3377,-43.1055,28,0.1671,9990,3.9501,-28.7745
lg,1625310068048203689,0,-0.4133,-0.605,0.5974,538,-23.5596,-99.7314,33.3862,86,1.4657,1.4627,15.6866,-43.0204,28,0.1671,9004,3.9501,-24.9324
lg,1625310068048221189,0,-0.2454,-0.8362,0.8398,539,-57.6782,-137.7563,42.2974,86,1.4647,1.4607,11.1204,-43.9681,28,0.1671,9029,3.9501,-18.9021
lg,1625310068048238800,0,0.0581,-0.9207,0.5691,540,-38.269,-166.748,22.583,86,1.4647,1.4577,6.4878,-45.2246,28,0.1661,9040,3.9501,-13.6144
lg,1625310068048256282,0,0.1748,-0.9478,0.6089,541,-13.0615,-80.5664,18.9819,86,1.4647,1.4587,4.1919,-45.9399,28,0.1661,9057,3.9501,-10.816
lg,1625310068048273763,0,0.2417,-0.8401,0.5562,542,2.5024,-14.9536,19.5923,86,1.4647,1.4597,3.6941,-46.118,28,0.1661,11936,3.9501,-9.8655
lg,1625310068048291245,0,0.146,-0.8828,0.5879,543,9.0332,54.4434,21.9727,86,1.4657,1.4607,5.374,-46.2239,28,0.1671,9097,3.9501,-10.862
lg,1625310068048309485,0,0.0049,-0.8228,0.5852,544,20.5078,92.9565,18.0664,86,1.4647,1.4607,8.2338,-45.9868,28,0.1681,9094,3.9501,-13.094
lg,1625310068433153930,0,-0.2478,-0.7166,0.7097,545,28.0151,73.5474,9.8877,86,1.4697,1.4647,10.429,-44.9698,28,0.1681,27792,3.9501,-14.6345
lg,1625310068433223578,0,-0.1001,-0.6702,0.8235,546,30.1514,41.626,1.9531,86,1.4697,1.4637,11.4669,-43.7366,28,0.1651,11849,3.9501,-15.7241
lg,1625310068433282893,0,-0.1021,-0.7871,0.6824,547,19.7754,41.8701,-6.5918,86,1.4677,1.4617,12.2585,-43.435,28,0.1621,8481,3.9501,-17.1439
lg,1625310068433313152,0,-0.158,-0.8142,0.6421,548,21.9727,53.4058,-7.8125,86,1.4667,1.4597,13.9885,-43.3417,28,0.1591,8476,3.9501,-19.4173
lg,1625310068433343152,0,-0.3091,-0.8218,0.6045,549,11.4136,83.4961,-0.7935,86,1.4667,1.4597,17.4139,-44.5526,28,0.1611,9654,3.9501,-21.3288
lg,1625310068433373652,0,-0.5271,-0.7808,0.7576,550,-18.6157,75.9277,43.5791,86,1.4687,1.4617,21.1045,-45.6569,28,0.1621,9078,3.9501,-22.3277
lg,1625310068433402263,0,-0.6663,-0.502,0.6833,551,-12.207,26.9775,56.3354,86,1.4677,1.4637,24.131,-45.4805,28,0.1631,9464,3.9501,-21.3391
lg,1625310068433431189,0,-0.7808,-0.6506,0.668,552,-44.6777,-86.853,73.8525,86,1.4647,1.4667,24.4141,-45.1557,27,0.1651,12710,3.9501,-16.3244
lg,1625310068433459800,0,-0.5566,-0.7185,0.8879,553,-51.6968,-133.2397,79.5898,86,1.4637,1.4647,22.9517,-44.3249,27,0.1661,8618,3.9501,-9.6517
lg,1625310068433488689,0,-0.2305,-0.9023,0.7302,554,-46.2036,-204.1016,44.8608,86,1.4627,1.4607,17.9155,-43.84,27,0.1661,8641,3.9501,-2.3235
lg,1625310068433515800,0,0.2117,-0.9395,0.5972,555,-32.2266,-186.5234,26.6113,86,1.4627,1.4587,12.2433,-44.0595,27,0.1661,8645,3.9501,3.6655
lg,1625310068433543856,0,0.1934,-0.9744,0.5505,556,-10.1318,-62.0117,5.7983,86,1.4637,1.4607,9.8065,-44.726,28,0.1661,8652,3.9501,5.4726
lg,1625310068433572337,0,0.2119,-0.896,0.5332,557,5.8594,-17.8833,7.9956,86,1.4637,1.4617,8.7264,-44.8506,28,0.1661,9032,3.9501,6.1309
lg,1625310068433600745,0,0.002,-0.7798,0.5913,558,19.043,41.2598,0.5493,86,1.4637,1.4617,10.4327,-44.6172,28,0.1671,10570,3.9501,3.9949
lg,1625310068433631448,0,-0.1267,-0.8027,0.6182,559,23.8647,94.0552,-3.54,86,1.4647,1.4607,12.8677,-44.5314,28,0.1671,8719,3.9501,1.1351
lg,1625310068433662430,0,-0.2996,-0.7678,0.6614,560,28.5645,90.6372,-9.0332,86,1.4637,1.4647,15.3308,-44.2684,28,0.1681,8802,3.9501,-1.7901
lg,1625310068433690522,0,-0.3018,-0.657,0.7002,561,31.0669,56.2744,-9.1553,86,1.4667,1.4657,16.7699,-43.5001,28,0.1681,8767,3.9501,-3.6768
lg,1625310068433744282,0,-0.2244,-0.6201,0.6809,562,22.583,15.9912,-9.4604,86,1.4687,1.4657,16.8499,-42.7569,28,0.1691,8806,3.9501,-4.407
lg,1625310068433773893,0,-0.218,-0.6965,0.6741,563,15.3198,10.7422,-3.54,86,1.4697,1.4667,16.9475,-42.8693,28,0.1691,8829,3.9501,-4.6389
lg,1625310068433800782,0,-0.2383,-0.8083,0.6411,564,-3.479,6.6528,13.0005,86,1.4697,1.4627,17.3424,-43.2871,28,0.1691,8833,3.9501,-4.5327
lg,1625310068433828059,0,-0.3208,-0.7139,0.7939,565,-7.7515,22.2778,28.9917,86,1.4667,1.4677,18.7532,-43.4568,28,0.1701,8868,3.9501,-4.2741
lg,1625310068433853393,0,-0.4719,-0.7134,0.7515,566,-18.0054,2.8076,43.0908,86,1.4687,1.4687,20.2436,-43.7511,28,0.1701,8867,3.9501,-3.0324
lg,1625310068433879596,0,-0.3728,-0.6287,0.8303,567,-20.6909,-42.0532,43.457,86,1.4667,1.4687,20.2079,-43.41,28,0.1711,8933,3.9501,-0.3582
lg,1625310068433944633,0,-0.4009,-0.6716,0.647,568,-17.9443,-60.1196,30.3955,86,1.4667,1.4697,19.2367,-43.3222,28,0.1711,8923,3.9501,2.3008
lg,1625310068433981207,0,-0.2148,-0.8394,0.7688,569,-31.6772,-96.1914,35.8887,86,1.4657,1.4687,17.1054,-43.5345,28,0.1711,9057,3.9501,6.1324
lg,1625310068434013245,0,-0.0317,-0.875,0.6484,570,-19.8975,-82.7026,24.8413,86,1.4657,1.4677,14.8154,-43.8646,28,0.1711,9001,3.9501,9.1433
lg,1625310068434042282,0,0.1011,-0.8633,0.7295,571,-5.5542,-34.1797,18.1885,85,1.4667,1.4687,13.5663,-43.9447,28,0.1711,9038,3.9512,10.6026
lg,1625310068434071226,0,0.1223,-0.929,0.7283,572,3.3569,17.2119,5.249,85,1.4667,1.4687,13.4492,-44.2007,28,0.1711,9047,3.9512,10.1899
lg,1625310068434106245,0,-0.0205,-0.8789,0.5679,573,9.7656,35.5835,-4.6997,85,1.4677,1.4697,14.1644,-44.5527,28,0.1711,9067,3.9512,8.0181
lg,1625310068434135263,0,-0.1172,-0.8491,0.5872,574,22.0337,76.2939,-22.3389,85,1.4687,1.4707,15.5724,-44.7868,28,0.1701,9094,3.9512,5.0447
lg,1625310068434162967,0,-0.2737,-0.7773,0.5693,575,27.5879,89.3555,-32.2876,85,1.4687,1.4707,17.1915,-45.0425,28,0.1691,9723,3.9512,1.3641
lg,1625310068434190485,0,-0.324,-0.6538,0.5332,576,36.1328,51.4526,-33.6914,85,1.4697,1.4717,17.8444,-44.5732,28,0.1671,10048,3.9512,-1.2233
lg,1625310068806674004,0,-0.3643,-0.7744,0.6855,577,2.5635,18.8599,10.0708,85,1.4697,1.4697,19.1185,-44.861,28,0.1661,29344,3.9512,-0.9675
lg,1625310068806725207,0,-0.4734,-0.7788,0.8528,578,-16.2354,1.3428,57.8003,85,1.4697,1.4717,21.048,-44.8008,28,0.1681,15188,3.9512,0.7747
lg,1625310068806746967,0,-0.4407,-0.5718,0.7749,579,-19.6533,-46.4478,62.2559,85,1.4677,1.4727,21.6131,-44.0456,28,0.1691,8413,3.9512,4.2023
lg,1625310068806767078,0,-0.4094,-0.6931,0.6487,580,-23.6816,-83.4351,38.208,85,1.4677,1.4707,20.3464,-43.7786,28,0.1701,8483,3.9512,7.8279
lg,1625310068806786522,0,-0.1018,-0.9072,0.8105,581,-33.8745,-129.3335,38.6963,85,1.4667,1.4667,17.091,-43.7112,28,0.1701,8509,3.9512,12.7266
lg,1625310068806807559,0,0.022,-0.9114,0.7114,582,-25.1465,-122.1924,21.9727,85,1.4667,1.4647,14.0974,-44.0812,28,0.1701,8502,3.9512,15.5417
lg,1625310068806826967,0,0.0847,-0.9124,0.6558,583,-9.4604,-49.3774,9.3994,85,1.4677,1.4647,12.2423,-44.4744,28,0.1701,9174,3.9512,17.1392
lg,1625310068806866411,0,0.0164,-0.8906,0.6228,584,3.54,14.6484,5.4321,85,1.4657,1.4657,12.2994,-44.8047,28,0.1711,8579,3.9512,16.7861
lg,1625310068806886559,0,-0.1079,-0.8528,0.6638,585,14.0991,50.2319,-1.0376,85,1.4667,1.4677,13.4267,-44.8564,28,0.1721,8681,3.9512,15.2379
lg,1625310068806905096,0,-0.155,-0.8308,0.6584,586,18.3716,44.6167,-14.3433,85,1.4677,1.4697,14.0792,-44.7923,28,0.1721,8601,3.9512,13.4597
lg,1625310068806923226,0,-0.1697,-0.8345,0.6433,587,19.2261,39.917,-20.1416,85,1.4697,1.4707,14.4453,-44.7513,28,0.1701,8631,3.9512,11.6349
lg,1625310068806940763,0,-0.2175,-0.7913,0.4841,588,24.231,25.9399,-28.2593,85,1.4697,1.4717,14.3463,-44.7118,28,0.1691,8693,3.9512,9.9176
lg,1625310068806959226,0,-0.1143,-0.6182,0.5903,589,35.0342,0.4272,-24.5972,85,1.4717,1.4727,13.4054,-43.5462,28,0.1691,8958,3.9512,9.1626
lg,1625310068806977041,0,-0.093,-0.6643,0.6169,590,20.6299,12.6343,-13.9771,85,1.4707,1.4717,13.0879,-43.0348,28,0.1661,8071,3.9512,8.3551
lg,1625310068806994652,0,-0.0896,-0.7144,0.6436,591,17.7002,24.4751,-6.4087,85,1.4657,1.4687,13.3197,-42.719,27,0.1641,8211,3.9512,7.4317
lg,1625310068807012726,0,-0.1626,-0.7532,0.6658,592,15.625,52.124,2.8076,85,1.4687,1.4687,14.7555,-42.6518,27,0.1621,8169,3.9512,6.0034
lg,1625310068807030429,0,-0.3718,-0.8445,0.833,593,-2.6855,68.2983,17.6392,85,1.4687,1.4687,17.3249,-43.243,27,0.1631,11358,3.9512,4.5727
lg,1625310068807048244,0,-0.5139,-0.7817,0.8726,594,-10.0098,33.8135,45.0439,85,1.4707,1.4707,19.7848,-43.4501,28,0.1641,8302,3.9512,4.9891
lg,1625310068807066763,0,-0.5198,-0.5349,0.6733,595,-9.2773,-2.8076,45.4712,85,1.4697,1.4717,20.2907,-43.0147,28,0.1651,8237,3.9512,7.3445
lg,1625310068807084207,0,-0.5308,-0.6377,0.623,596,-34.79,-82.8247,53.1616,85,1.4697,1.4737,19.7432,-43.096,28,0.1661,12970,3.9512,11.3788
lg,1625310068807117763,0,-0.2087,-0.6697,0.6128,597,-26.9165,-142.2729,31.9824,85,1.4687,1.4747,16.2023,-42.7762,28,0.1681,8956,3.9512,16.3845
lg,1625310068807138578,0,0.0537,-0.9253,0.7627,598,-42.2974,-149.292,30.2124,85,1.4687,1.4737,11.9706,-43.5192,28,0.1691,8641,3.9512,21.4245
lg,1625310068807157744,0,0.1711,-0.9312,0.5898,599,-27.0386,-142.9443,19.9585,85,1.4687,1.4727,7.6372,-44.3572,28,0.1691,8675,3.9512,25.9271
lg,1625310068807179615,0,0.165,-0.9497,0.5635,600,-11.5356,-52.6733,5.8594,85,1.4687,1.4717,5.6922,-45.1983,28,0.1691,9918,3.9512,27.5179
lg,1625310068807211763,0,-0.0225,-0.8555,0.5342,601,10.6812,35.8276,9.7046,85,1.4667,1.4727,6.7998,-45.3496,28,0.1701,9076,3.9512,26.7156
lg,1625310068807230689,0,-0.1335,-0.7559,0.5479,602,21.0571,51.3306,16.4795,85,1.4687,1.4737,8.7604,-44.978,28,0.1701,9096,3.9512,25.6711
lg,1625310068807248967,0,-0.1699,-0.7925,0.5898,603,19.104,38.4521,20.3857,85,1.4697,1.4747,10.4605,-44.6202,28,0.1711,8797,3.9512,25.106
lg,1625310068807267152,0,-0.1873,-0.7798,0.5925,604,20.874,28.7476,20.5078,85,1.4707,1.4747,11.4496,-43.9777,28,0.1711,8413,3.9512,25.1319
lg,1625310068807285022,0,-0.0872,-0.729,0.7192,605,23.1934,9.2773,19.5312,85,1.4707,1.4737,11.9918,-43.0341,28,0.1711,9158,3.9512,25.4357
lg,1625310068807303170,0,0.0007,-0.7224,0.7725,606,20.874,3.2349,21.3623,85,1.4717,1.4727,12.188,-42.0774,28,0.1711,9005,3.9512,25.985
lg,1625310068807322152,0,0.0686,-0.7476,0.8723,607,22.1558,24.7192,17.395,85,1.4717,1.4707,12.7716,-41.1546,28,0.1711,8849,3.9512,25.8509
lg,1625310068807483744,0,-0.0215,-0.8015,0.7915,608,22.2168,52.9175,6.2866,85,1.4737,1.4687,14.0653,-40.7156,28,0.1691,9270,3.9512,24.5775
lg,1625310069184318133,0,-0.4514,-0.6353,0.7717,609,-4.0894,42.2363,53.6499,85,1.4737,1.4717,17.1366,-40.6743,28,0.1711,27252,3.9512,25.1317
lg,1625310069184354837,0,-0.5925,-0.6479,0.7195,610,-18.1885,-2.1973,48.584,85,1.4727,1.4737,18.8967,-40.9398,28,0.1731,8807,3.9512,26.725
lg,1625310069184375466,0,-0.4807,-0.7212,0.7192,611,-19.165,-65.918,32.6538,85,1.4717,1.4747,18.0204,-40.9431,28,0.1731,8654,3.9512,29.5427
lg,1625310069184394874,0,-0.4014,-0.8108,0.7747,612,-31.0059,-86.9751,30.8228,85,1.4707,1.4747,16.2916,-41.3841,28,0.1731,7890,3.9512,32.8526
lg,1625310069184413374,0,-0.2009,-0.8311,0.6157,613,-22.0337,-102.478,25.6348,85,1.4697,1.4737,13.7235,-41.7998,28,0.1731,8244,3.9512,36.3348
lg,1625310069184440670,0,-0.1321,-0.8643,0.7085,614,-8.8501,-59.8145,21.3623,85,1.4697,1.4747,12.2495,-41.9835,28,0.1741,9714,3.9512,38.547
lg,1625310069184459151,0,-0.0786,-0.8113,0.6809,615,-1.8921,-36.9263,11.5356,85,1.4707,1.4747,11.1529,-42.095,28,0.1731,8395,3.9512,39.8418
lg,1625310069184476485,0,-0.0771,-0.822,0.6101,616,1.3428,-15.8081,8.0566,85,1.4707,1.4757,10.6389,-42.356,28,0.1731,13751,3.9512,40.432
lg,1625310069184511318,0,-0.0918,-0.7849,0.6389,617,8.7891,7.2632,4.2114,85,1.4717,1.4757,10.7521,-42.3485,28,0.1741,8351,3.9512,40.2968
lg,1625310069184530059,0,-0.0811,-0.7234,0.6548,618,13.0615,17.5781,4.2725,85,1.4717,1.4757,11.147,-42.1048,28,0.1741,10153,3.9512,39.9022
lg,1625310069184547818,0,-0.0879,-0.7222,0.7312,619,11.3525,19.104,5.5542,85,1.4727,1.4757,11.6109,-41.8135,28,0.1751,8508,3.9512,39.5288
lg,1625310069184565281,0,-0.0935,-0.72,0.7312,620,9.3384,20.874,6.5918,85,1.4727,1.4757,12.2715,-41.7081,28,0.1751,8777,3.9512,39.1203
lg,1625310069184582892,0,-0.2034,-0.7549,0.6953,621,-7.2632,19.7144,21.4844,85,1.4717,1.4767,13.3205,-41.886,28,0.1761,9824,3.9512,39.2539
lg,1625310069184600559,0,-0.1836,-0.6597,0.9717,622,-4.6387,20.5078,26.1841,85,1.4697,1.4777,14.4521,-41.6925,28,0.1751,8792,3.9512,39.5659
lg,1625310069184639892,0,-0.4448,-0.7771,0.8047,623,-22.2168,21.8506,17.8833,85,1.4697,1.4757,15.8581,-42.6724,28,0.1741,8417,3.9512,39.4828
lg,1625310069184663726,0,-0.4536,-0.7153,0.7356,624,-14.6484,-23.9868,6.2256,85,1.4687,1.4697,15.6403,-43.0681,28,0.1721,8829,3.9512,40.3389
lg,1625310069184682244,0,-0.3901,-0.7427,0.7683,625,-17.0288,-44.4336,3.2959,85,1.4677,1.4667,14.4607,-43.5078,28,0.1721,8511,3.9512,41.6723
lg,1625310069184699929,0,-0.2683,-0.8521,0.6875,626,-15.2588,-50.4761,6.2866,85,1.4677,1.4657,13.1586,-44.0177,28,0.1711,8871,3.9512,43.2279
lg,1625310069184717633,0,-0.0903,-0.8442,0.6011,627,-7.0801,-40.5884,8.5449,85,1.4677,1.4667,11.9222,-44.4066,28,0.1711,9839,3.9512,44.5465
lg,1625310069184802911,0,0.0669,-0.8716,0.6553,628,1.5869,-13.1226,5.7373,85,1.4677,1.4677,11.1088,-44.5727,28,0.1731,10947,3.9512,45.0187
lg,1625310069184825226,0,0.1289,-0.855,0.6694,629,9.3384,18.1274,-9.6436,85,1.4687,1.4697,10.6553,-44.6352,28,0.1731,8592,3.9512,44.1634
lg,1625310069184845577,0,0.0737,-0.8652,0.6379,630,13.7939,52.4902,-30.1514,85,1.4697,1.4717,10.7202,-44.8747,28,0.1741,8956,3.9512,41.7208
lg,1625310069184865226,0,-0.0586,-0.8511,0.5334,631,14.4653,90.9424,-53.6499,85,1.4707,1.4737,11.4603,-45.6111,28,0.1731,9022,3.9512,37.453
lg,1625310069184903170,0,-0.1753,-0.8433,0.5708,632,14.7095,107.2388,-61.4014,85,1.4707,1.4747,12.9482,-46.1118,28,0.1731,9019,3.9512,32.4861
lg,1625310069184922559,0,-0.2876,-0.8062,0.4973,633,37.2925,94.7876,-55.7861,85,1.4687,1.4737,14.1176,-46.1166,28,0.1711,9034,3.9512,27.9795
lg,1625310069184941429,0,-0.2366,-0.7751,0.6187,634,57.251,64.209,-51.7578,85,1.4647,1.4717,14.404,-44.8665,28,0.1661,8696,3.9512,24.5429
lg,1625310069184959985,0,-0.1333,-0.6404,0.6184,635,51.0254,48.8892,-37.0483,85,1.4607,1.4687,14.5304,-43.4928,28,0.1601,9090,3.9512,22.0249
lg,1625310069184978281,0,-0.0583,-0.6521,0.5327,636,32.7759,51.2085,-27.1606,85,1.4587,1.4647,14.8548,-43.047,28,0.1551,8713,3.9512,19.6789
lg,1625310069185035522,0,-0.0684,-0.6843,0.5269,637,27.2827,69.6411,-18.6768,85,1.4557,1.4617,16.0261,-42.9992,28,0.1501,8786,3.9512,17.0416
lg,1625310069185060633,0,-0.1345,-0.6838,0.5698,638,19.7144,115.7227,13.0615,85,1.4547,1.4577,19.4438,-43.3894,28,0.1471,9150,3.9512,14.0276
lg,1625310069185079744,0,-0.2922,-0.6741,0.7356,639,13.3667,144.8975,29.0527,85,1.4557,1.4557,24.2769,-44.0803,28,0.1461,8489,3.9512,10.6202
lg,1625310069185097559,0,-0.4741,-0.7056,0.7075,640,7.8125,124.7559,37.7197,85,1.4557,1.4547,28.9017,-45.0062,28,0.1451,8863,3.9512,7.8856
lg,1625310069554987133,0,-0.8906,-0.7063,0.5845,641,-39.1846,-58.8379,91.0645,85,1.4587,1.4577,30.5121,-44.2156,28,0.1511,27264,3.9512,12.7438
lg,1625310069555060985,0,-0.8213,-0.502,0.5676,642,-62.8662,-151.9165,138.855,85,1.4577,1.4597,30.3283,-41.7513,28,0.1531,8743,3.9512,22.3425
lg,1625310069555083577,0,-0.5649,-0.6035,0.6855,643,-81.4209,-225.647,175.6592,85,1.4527,1.4607,28.0658,-38.716,28,0.1531,8291,3.9512,35.1579
lg,1625310069555103411,0,0.3186,-0.8005,1.2903,644,-86.4258,-297.8516,146.8506,85,1.4517,1.4557,20.808,-36.4618,28,0.1551,9790,3.9512,48.3078
lg,1625310069555123059,0,0.6357,-1.02,0.9875,645,-51.3916,-218.2617,47.9736,85,1.4507,1.4537,13.3858,-36.7723,28,0.1551,7976,3.9512,55.2342
lg,1625310069555143373,0,0.1904,-1.1912,0.6899,646,-43.8843,-66.04,2.8687,85,1.4527,1.4537,10.5927,-39.0435,28,0.1541,9248,3.9512,56.7948
lg,1625310069555162485,0,0.1416,-1.0959,0.6497,647,-19.7144,-33.7524,-5.9204,85,1.4527,1.4547,8.762,-40.5411,28,0.1551,8957,3.9512,57.3429
lg,1625310069555180725,0,0.1292,-0.8269,0.4763,648,8.667,2.1973,-21.4844,85,1.4497,1.4557,7.6416,-41.0468,28,0.1561,8030,3.9512,56.5149
lg,1625310069555199392,0,-0.0186,-0.7415,0.407,649,21.6675,87.8296,-25.6958,85,1.4527,1.4557,9.3562,-41.4264,28,0.1571,7998,3.9512,53.2837
lg,1625310069555217688,0,-0.2168,-0.7566,0.3596,650,23.3154,132.9956,-27.0386,85,1.4527,1.4577,14.2183,-42.0387,28,0.1581,8786,3.9512,47.9986
lg,1625310069555250614,0,-0.5601,-0.7202,0.5381,651,36.9263,170.7153,-16.7847,85,1.4527,1.4587,19.4838,-42.4911,28,0.1581,8415,3.9512,42.5814
lg,1625310069555269040,0,-0.6968,-0.5981,0.697,652,41.626,108.7646,-8.7891,85,1.4527,1.4607,23.1322,-41.9981,28,0.1581,8058,3.9512,39.1852
lg,1625310069555288003,0,-0.5791,-0.5974,0.7681,653,34.2407,50.9644,-5.3711,85,1.4537,1.4607,23.193,-40.8825,28,0.1581,8080,3.9512,39.2948
lg,1625310069555305966,0,-0.4724,-0.6736,0.7649,654,12.8784,-51.5137,-2.4414,85,1.4557,1.4617,21.6302,-39.8562,28,0.1581,8859,3.9512,40.6604
lg,1625310069555323892,0,-0.1987,-0.7966,0.7593,655,6.2866,-99.7925,-4.8218,85,1.4607,1.4637,17.9956,-39.0053,28,0.1591,8872,3.9512,43.1033
lg,1625310069555342114,0,0.0581,-0.7805,0.7561,656,14.0381,-89.7217,-14.5264,85,1.4607,1.4637,14.0315,-38.2083,28,0.1591,8483,3.9512,44.8742
lg,1625310069555360559,0,0.1458,-0.8169,0.7244,657,15.8691,-33.0811,-26.9775,85,1.4627,1.4647,11.4994,-37.9841,28,0.1581,8905,3.9512,44.7429
lg,1625310069555378262,0,0.1621,-0.8164,0.7041,658,18.0664,2.0752,-30.0293,85,1.4627,1.4617,10.0543,-37.8906,28,0.1561,8188,3.9512,43.638
lg,1625310069555396540,0,0.0713,-0.8074,0.6416,659,25.2686,73.6084,-33.8745,85,1.4637,1.4617,10.9923,-37.9518,28,0.1551,8178,3.9512,40.6127
lg,1625310069555414540,0,-0.2993,-0.7561,0.5725,660,22.3999,123.3521,-12.3291,85,1.4637,1.4607,15.4767,-38.8065,28,0.1551,13503,3.9512,37.1388
lg,1625310069555432411,0,-0.4419,-0.7781,0.7166,661,-4.9438,133.1177,17.9443,85,1.4647,1.4587,20.3001,-40.2379,28,0.1571,8629,3.9512,34.0627
lg,1625310069555450022,0,-0.6729,-0.686,0.7542,662,-9.0942,94.6655,38.9404,85,1.4657,1.4597,24.6757,-41.1999,28,0.1581,8990,3.9512,32.6314
lg,1625310069555467725,0,-0.7341,-0.6392,0.7163,663,-19.5312,6.6528,48.2788,85,1.4667,1.4617,26.6404,-41.3739,27,0.1591,9619,3.9512,34.0399
lg,1625310069555485781,0,-0.7009,-0.7307,0.6675,664,-39.7949,-81.9702,56.3354,85,1.4667,1.4627,26.0192,-41.2621,27,0.1601,8955,3.9512,38.2527
lg,1625310069555503336,0,-0.458,-0.78,0.6396,665,-52.2461,-153.0151,75.1953,85,1.4637,1.4657,23.3469,-40.8139,27,0.1601,10433,3.9512,45.0153
lg,1625310069555618466,0,-0.1287,-0.7761,0.6011,666,-48.9502,-193.3594,77.7588,85,1.4617,1.4667,18.9262,-40.3768,27,0.1611,9124,3.9512,52.7493
lg,1625310069555641725,0,0.1179,-0.7612,0.7056,667,-49.0112,-192.1387,75.2563,85,1.4607,1.4667,13.9435,-40.2421,28,0.1621,8435,3.9512,59.1723
lg,1625310069555716633,0,0.3481,-0.855,0.6362,668,-34.668,-138.1226,34.3018,85,1.4587,1.4627,9.4783,-41.1483,28,0.1631,8435,3.9512,63.8032
lg,1625310069555756003,0,0.3369,-1.0066,0.7776,669,-21.7285,-31.25,17.6392,85,1.4587,1.4607,8.0895,-42.2247,28,0.1621,8425,3.9512,65.1154
lg,1625310069555777170,0,-0.071,-0.8833,0.646,670,10.2539,70.4956,-7.9956,85,1.4597,1.4617,9.7752,-42.603,28,0.1631,8864,3.9512,62.8833
lg,1625310069555795707,0,-0.179,-0.8091,0.5999,671,24.5361,96.3135,-5.0049,85,1.4597,1.4637,12.6238,-42.653,28,0.1641,8515,3.9512,59.9857
lg,1625310069555814262,0,-0.2224,-0.6853,0.5239,672,29.8462,92.8955,-1.5259,85,1.4617,1.4667,15.3797,-42.4819,28,0.1641,9083,3.9512,57.2593
lg,1625310069931927614,0,-0.4011,-0.7419,0.7224,673,30.5176,81.4209,-21.6064,85,1.4667,1.4667,16.544,-41.904,28,0.1651,27544,3.9512,54.8156
lg,1625310069931964614,0,-0.2959,-0.6931,0.6565,674,16.4185,5.249,-25.8179,85,1.4677,1.4657,16.037,-41.6876,28,0.1641,8670,3.9512,53.8194
lg,1625310069931985392,0,-0.1621,-0.7654,0.5938,675,12.8784,-25.2686,-17.8223,85,1.4677,1.4637,14.5613,-41.5489,28,0.1631,8592,3.9512,53.8499
lg,1625310069932004781,0,-0.1265,-0.7583,0.5757,676,11.7798,-22.4609,-13.4888,85,1.4677,1.4617,14.1486,-41.9141,28,0.1641,8185,3.9512,53.8347
lg,1625310069932023299,0,-0.2395,-0.7874,0.5474,677,-9.5825,6.7749,18.9819,85,1.4697,1.4617,14.8635,-42.7103,28,0.1661,8602,3.9512,54.0983
lg,1625310069932041651,0,-0.4265,-0.7859,0.8035,678,-19.4092,15.686,56.8848,85,1.4697,1.4647,17.0988,-43.1829,28,0.1671,9184,3.9512,55.367
lg,1625310069932060021,0,-0.5808,-0.6338,0.6736,679,-25.6348,-17.9443,69.8242,85,1.4697,1.4667,19.0764,-43.3719,27,0.1671,9625,3.9534,58.0228
lg,1625310069932078207,0,-0.3296,-0.5396,1.1013,680,-25.9399,-69.458,66.5283,85,1.4647,1.4677,18.7287,-42.3918,27,0.1681,10467,3.9534,62.3116
lg,1625310069932098836,0,0.0168,-0.9446,0.7595,681,-52.9785,-145.6909,31.189,85,1.4637,1.4647,13.9439,-43.1886,27,0.1671,13067,3.9534,67.6612
lg,1625310069932116762,0,0.0847,-0.9238,0.5339,682,-32.5317,-153.3203,3.479,85,1.4637,1.4627,8.9357,-44.2622,27,0.1671,8751,3.9534,71.9387
lg,1625310069932135447,0,0.0007,-0.9236,0.449,683,-9.3994,-37.6587,-1.77,85,1.4637,1.4627,7.4863,-45.2587,28,0.1661,8358,3.9534,72.8441
lg,1625310069932154077,0,-0.1917,-0.7512,0.5039,684,15.625,41.3818,10.1318,85,1.4637,1.4627,9.1133,-45.1787,28,0.1661,7977,3.9534,71.888
lg,1625310069932172336,0,-0.2314,-0.7058,0.5972,685,19.3481,55.1758,15.686,85,1.4637,1.4647,11.3025,-44.7757,28,0.1661,8386,3.9534,70.7234
lg,1625310069932191336,0,-0.2939,-0.7427,0.6379,686,11.4136,34.5459,24.353,85,1.4657,1.4657,13.176,-44.5467,28,0.1671,8194,3.9534,70.4025
lg,1625310069932209151,0,-0.2073,-0.8091,0.6855,687,11.4136,4.2725,23.8037,85,1.4637,1.4677,13.8775,-44.1522,28,0.1681,8809,3.9534,70.9324
lg,1625310069932226966,0,-0.0457,-0.8044,0.6716,688,14.7095,-14.1602,17.0288,85,1.4637,1.4687,13.4951,-43.5835,28,0.1681,8468,3.9534,71.7822
lg,1625310069932244762,0,-0.0125,-0.8096,0.6865,689,16.6016,-5.7983,15.1978,85,1.4647,1.4687,13.5606,-43.1561,28,0.1681,8868,3.9534,71.8227
lg,1625310069932262725,0,-0.0437,-0.8391,0.6741,690,19.4702,24.9023,10.1318,85,1.4677,1.4687,14.1211,-42.7917,28,0.1691,8135,3.9534,71.3487
lg,1625310069932280355,0,-0.0361,-0.729,0.7002,691,32.959,50.1099,2.7466,85,1.4687,1.4697,15.191,-41.9371,28,0.1691,8553,3.9534,69.9966
lg,1625310069932297966,0,-0.0999,-0.7319,0.6709,692,34.3018,77.5757,-7.5684,85,1.4697,1.4687,16.9208,-41.4457,28,0.1691,8878,3.9534,67.5489
lg,1625310069932315318,0,-0.166,-0.7742,0.6321,693,30.3345,86.1816,-10.8643,85,1.4707,1.4677,19.0375,-41.479,28,0.1681,8930,3.9534,64.6846
lg,1625310069932333021,0,-0.2283,-0.7886,0.6375,694,33.3862,93.5059,-11.4746,85,1.4697,1.4667,21.2712,-41.5663,28,0.1651,8197,3.9534,61.545
lg,1625310069932351540,0,-0.4016,-0.7915,0.6357,695,19.7754,97.8394,-4.0283,85,1.4707,1.4667,24.0739,-42.295,28,0.1651,8971,3.9534,58.4365
lg,1625310069932369336,0,-0.5303,-0.7383,0.676,696,3.3569,69.8853,23.4375,85,1.4717,1.4667,26.9001,-42.9268,28,0.1671,8968,3.9534,57.0168
lg,1625310069932387392,0,-0.5669,-0.6809,0.7009,697,3.1738,45.3491,31.3721,85,1.4717,1.4677,29.3475,-42.9474,28,0.1681,8309,3.9534,56.6614
lg,1625310069932405336,0,-0.7061,-0.6287,0.6482,698,-6.7749,-3.6011,39.0625,85,1.4717,1.4697,29.9071,-42.3639,28,0.1691,9665,3.9534,58.8074
lg,1625310069932423392,0,-0.7122,-0.6611,0.6631,699,-15.8081,-63.1714,43.0298,85,1.4687,1.4707,29.4691,-41.3789,28,0.1691,8355,3.9534,62.192
lg,1625310069932442077,0,-0.491,-0.7402,0.7295,700,-26.4893,-131.1035,58.3496,85,1.4677,1.4717,26.8597,-39.809,28,0.1701,9097,3.9534,68.0018
lg,1625310069932460392,0,-0.1772,-0.7524,0.6028,701,-19.165,-174.1943,28.2593,85,1.4677,1.4707,21.5877,-38.6746,28,0.1701,9135,3.9534,73.5761
lg,1625310069932478540,0,0.1011,-0.8662,0.7139,702,-27.0386,-161.8652,24.1089,85,1.4667,1.4697,16.1554,-38.5933,28,0.1701,8773,3.9534,78.4669
lg,1625310069932529188,0,0.075,-0.8855,0.6533,703,-16.5405,-140.686,5.249,85,1.4677,1.4687,12.2653,-39.1131,28,0.1701,9205,3.9534,80.7184
lg,1625310069932564855,0,-0.0574,-0.8457,0.6096,704,-4.4556,-58.8989,-4.5776,85,1.4677,1.4677,10.7756,-39.4772,28,0.1701,9893,3.9534,81.2543
lg,1625310070309053538,0,-0.1221,-0.8032,0.5962,705,12.146,-6.1646,3.2959,85,1.4687,1.4677,10.7432,-39.4427,28,0.1681,27030,3.9534,81.3348
lg,1625310070309092327,0,-0.1487,-0.7974,0.5723,706,22.0947,11.2305,6.4697,85,1.4687,1.4677,11.2278,-39.124,28,0.1681,12892,3.9534,81.1451
lg,1625310070309112971,0,-0.1606,-0.7053,0.5623,707,31.4331,19.5923,8.9111,85,1.4697,1.4687,12.0216,-38.3913,28,0.1671,7922,3.9534,80.8321
lg,1625310070309132078,0,-0.1821,-0.687,0.6558,708,31.7383,20.5078,14.9536,85,1.4697,1.4697,12.9885,-37.4381,28,0.1681,7965,3.9534,80.7322
lg,1625310070309151149,0,-0.2024,-0.6936,0.6824,709,29.8462,22.4609,16.9678,85,1.4707,1.4697,14.0636,-36.5568,28,0.1671,7956,3.9534,80.6606
lg,1625310070309169886,0,-0.1863,-0.7371,0.7119,710,30.3345,21.7896,18.3716,85,1.4707,1.4707,15.0525,-35.6957,28,0.1671,8048,3.9534,80.6486
lg,1625310070309188086,0,-0.1873,-0.7407,0.7,711,32.1655,20.5078,16.2964,85,1.4717,1.4717,15.9188,-34.827,28,0.1671,8231,3.9534,80.5929
lg,1625310070309205805,0,-0.1926,-0.7407,0.6831,712,32.5928,23.2544,17.0288,85,1.4717,1.4717,16.9223,-34.0225,28,0.1671,8042,3.9534,80.3703
lg,1625310070309223597,0,-0.2185,-0.749,0.6816,713,34.0576,27.4658,14.2212,85,1.4717,1.4717,17.9744,-33.2484,28,0.1661,8139,3.9534,80.0657
lg,1625310070309241205,0,-0.2493,-0.7439,0.6421,714,36.8652,31.4941,12.3901,85,1.4727,1.4717,19.1706,-32.4976,28,0.1651,8061,3.9534,79.5837
lg,1625310070309259238,0,-0.2871,-0.7271,0.6331,715,40.0391,33.9966,10.3149,85,1.4737,1.4727,20.4593,-31.6818,28,0.1651,10607,3.9534,78.9696
lg,1625310070309277309,0,-0.3438,-0.7273,0.6294,716,42.5415,26.4893,6.2866,85,1.4737,1.4727,21.4903,-30.7918,28,0.1641,8115,3.9534,78.37
lg,1625310070309296102,0,-0.3428,-0.7256,0.6299,717,43.2739,16.4795,4.6997,85,1.4737,1.4707,22.1135,-29.8475,28,0.1641,8289,3.9534,77.921
lg,1625310070309388509,0,-0.355,-0.7339,0.6475,718,42.7856,-14.7095,-0.4883,85,1.4737,1.4717,21.5463,-28.7639,28,0.1631,8090,3.9534,77.9359
lg,1625310070309417911,0,-0.3093,-0.7314,0.6245,719,39.5508,-59.2041,-3.6621,85,1.4737,1.4707,19.3018,-27.6271,28,0.1631,8098,3.9534,78.6952
lg,1625310070309437426,0,-0.2856,-0.7537,0.6187,720,39.0625,-79.895,-8.1177,85,1.4737,1.4697,16.2599,-26.5811,28,0.1621,8393,3.9534,79.6295
lg,1625310070309456996,0,-0.2234,-0.7869,0.6304,721,42.4194,-119.751,-8.9722,85,1.4747,1.4697,11.7244,-25.3947,28,0.1621,8222,3.9534,81.197
lg,1625310070309475788,0,-0.0908,-0.8132,0.5703,722,49.8047,-150.0854,-6.2866,85,1.4737,1.4677,5.9986,-24.1719,28,0.1611,8196,3.9534,83.2858
lg,1625310070309494563,0,-0.0078,-0.7905,0.5381,723,56.3965,-150.2075,-3.6011,85,1.4737,1.4657,0.1051,-23.0322,28,0.1611,8284,3.9534,85.433
lg,1625310070309512004,0,0.1304,-0.7544,0.4988,724,69.8242,-117.4316,3.9062,85,1.4727,1.4647,-4.4891,-21.5564,28,0.1611,8637,3.9534,87.3576
lg,1625310070309531018,0,0.1846,-0.6921,0.4766,725,83.4351,-54.9927,8.5449,85,1.4737,1.4617,-5.2721,-19.2946,28,0.1611,8696,3.9534,88.0826
lg,1625310070309550070,0,0.052,-0.624,0.5056,726,91.6138,13.0615,9.8877,85,1.4727,1.4607,-3.5849,-16.6203,28,0.1611,8662,3.9534,88.1353
lg,1625310070309568196,0,-0.1567,-0.5784,0.6135,727,96.4966,44.1895,11.4746,85,1.4727,1.4607,-1.229,-13.7712,28,0.1601,9089,3.9534,88.1903
lg,1625310070309585619,0,-0.3284,-0.6006,0.7104,728,103.7598,31.0059,14.7705,85,1.4727,1.4607,0.8967,-10.5841,28,0.1591,8690,3.9534,88.5485
lg,1625310070309603837,0,-0.3687,-0.5864,0.8271,729,108.4595,-24.5361,20.874,85,1.4727,1.4607,0.8037,-7.1369,28,0.1591,8335,3.9534,89.5337
lg,1625310070309622149,0,-0.2759,-0.5317,0.8533,730,107.9102,-56.9458,26.062,85,1.4727,1.4607,-1.922,-3.9051,28,0.1581,8961,3.9534,91.0861
lg,1625310070309640089,0,-0.1787,-0.5242,0.8586,731,100.5859,-107.0557,33.2642,85,1.4717,1.4617,-5.8761,-1.0888,28,0.1571,9290,3.9534,92.6477
lg,1625310070309659845,0,-0.0112,-0.561,0.8374,732,96.4966,-127.5024,34.729,85,1.4727,1.4577,-10.7383,1.3188,28,0.1571,9026,3.9534,94.1722
lg,1625310070309701466,0,0.1418,-0.543,0.7732,733,102.9053,-126.9531,30.9448,85,1.4717,1.4627,-15.8413,3.8161,28,0.1571,8472,3.9534,95.4641
lg,1625310070309726424,0,0.2524,-0.4854,0.7961,734,112.4268,-97.8394,28.0151,85,1.4727,1.4627,-19.9103,6.7293,28,0.1571,10315,3.9534,96.6195
lg,1625310070309744310,0,0.283,-0.4189,0.9497,735,116.4551,-40.7104,23.0713,85,1.4727,1.4627,-21.573,9.9212,28,0.1571,8494,3.9534,97.7546
lg,1625310070309762269,0,0.1663,-0.3506,1.1372,736,116.7603,-6.8359,18.9819,85,1.4727,1.4627,-20.2064,13.1534,28,0.1571,8908,3.9534,99.0114
lg,1625310070679983682,0,-0.2356,-0.2805,1.2856,737,105.7129,110.7178,-0.7935,85,1.4717,1.4607,-14.8064,16.0182,28,0.1571,26535,3.9534,100.5281
lg,1625310070680025822,0,-0.3745,-0.2356,1.29,738,97.29,77.0874,-19.2261,85,1.4707,1.4607,-11.7006,18.8301,28,0.1571,16429,3.9534,100.3848
lg,1625310070680061241,0,-0.3972,-0.1943,1.1016,739,86.5479,-1.0376,-28.4424,85,1.4697,1.4597,-10.2292,21.4319,28,0.1571,8051,3.9534,99.5235
lg,1625310070680081515,0,-0.3584,-0.1956,0.9233,740,72.0825,-68.1763,-33.8745,85,1.4697,1.4587,-11.1171,23.5437,28,0.1581,7971,3.9534,97.4187
lg,1625310070680100233,0,-0.3218,-0.1458,0.8909,741,64.6362,-62.6831,-7.9346,85,1.4687,1.4587,-12.1694,25.2037,28,0.1571,9463,3.9534,96.3098
lg,1625310070680118656,0,-0.2947,-0.1382,0.9075,742,58.7158,-64.209,6.7139,85,1.4697,1.4577,-13.5344,26.5045,28,0.1581,7960,3.9534,95.6795
lg,1625310070680136541,0,-0.2412,-0.1968,0.9746,743,42.9077,-70.0684,27.2217,85,1.4687,1.4577,-15.5887,26.8844,28,0.1581,8447,3.9534,95.7126
lg,1625310070680154778,0,-0.1475,-0.3237,1.0818,744,33.3862,-93.6279,38.3911,85,1.4697,1.4577,-18.884,26.6865,28,0.1581,8497,3.9534,95.8133
lg,1625310070680172478,0,-0.0105,-0.4075,1.1038,745,34.0576,-108.0322,42.4805,85,1.4697,1.4587,-23.3894,26.6122,28,0.1581,8430,3.9534,95.7151
lg,1625310070680190253,0,0.1248,-0.3931,1.103,746,42.5415,-132.7515,41.748,85,1.4687,1.4577,-28.4549,26.9303,28,0.1581,13857,3.9534,95.4316
lg,1625310070680208231,0,0.248,-0.3708,1.0891,747,45.9595,-128.479,34.9731,85,1.4687,1.4577,-33.319,27.569,28,0.1581,8069,3.9534,95.0222
lg,1625310070680225598,0,0.3088,-0.3325,1.0742,748,48.0957,-119.5068,33.5693,85,1.4687,1.4577,-37.4489,28.37,28,0.1581,8154,3.9534,94.8453
lg,1625310070680242335,0,0.4016,-0.2927,1.0137,749,51.2695,-97.8394,24.9634,85,1.4687,1.4577,-41.0564,29.3109,28,0.1581,8534,3.9534,94.7113
lg,1625310070680270774,0,0.4436,-0.2288,0.9348,750,53.9551,-60.791,17.5171,85,1.4687,1.4577,-43.2268,30.0884,28,0.1581,9066,3.9534,95.1673
lg,1625310070680288511,0,0.4131,-0.1406,0.9209,751,53.1006,-5.4932,17.0898,85,1.4677,1.4547,-43.3123,29.9528,28,0.1581,10190,3.9534,97.071
lg,1625310070680306619,0,0.2952,-0.1179,0.98,752,46.1426,61.5845,23.8647,85,1.4677,1.4577,-40.8978,28.1935,28,0.1581,8481,3.9534,101.0292
lg,1625310070680323782,0,0.0767,-0.1348,1.0708,753,40.7715,109.436,25.0244,85,1.4697,1.4587,-36.3697,25.8434,28,0.1561,8569,3.9534,105.814
lg,1625310070680341741,0,-0.1248,-0.1411,1.127,754,39.6729,109.6191,22.2168,85,1.4687,1.4577,-31.4607,24.1623,28,0.1571,8647,3.9534,109.8909
lg,1625310070680359127,0,-0.2019,-0.1482,1.1355,755,39.1846,94.2993,21.1182,85,1.4697,1.4577,-27.0253,23.1036,28,0.1561,8337,3.9534,113.2105
lg,1625310070680376457,0,-0.3081,-0.1248,1.1406,756,36.3159,46.6309,19.4092,85,1.4637,1.4577,-24.2214,22.6672,28,0.1571,8611,3.9534,115.3521
lg,1625310070680393194,0,-0.3169,-0.1165,1.1196,757,31.9214,-17.395,23.4375,85,1.4687,1.4567,-23.8707,22.5238,28,0.1561,9283,3.9534,116.4789
lg,1625310070680410321,0,-0.1572,-0.1458,1.092,758,26.6724,-72.998,27.71,85,1.4697,1.4577,-25.8961,22.3813,28,0.1551,9081,3.9534,116.8814
lg,1625310070680427262,0,0.0273,-0.1768,1.0596,759,25.7568,-99.4873,27.5879,85,1.4707,1.4587,-29.1831,22.3089,28,0.1571,9074,3.9534,116.9159
lg,1625310070680533111,0,0.1062,-0.1814,1.0286,760,26.1841,-97.9004,26.7334,85,1.4697,1.4577,-32.4573,22.2367,28,0.1561,8742,3.9534,117.0262
lg,1625310070680553885,0,0.2009,-0.1631,1.0242,761,27.2217,-74.707,24.6582,85,1.4697,1.4577,-34.9171,22.0667,28,0.1551,9204,3.9534,117.5196
lg,1625310070680572196,0,0.2434,-0.1936,1.0493,762,28.6865,-35.7666,19.165,85,1.4667,1.4577,-35.86,21.6169,28,0.1561,8806,3.9534,118.5813
lg,1625310070680648163,0,0.1685,-0.1904,1.1023,763,30.7007,-3.7231,14.4653,85,1.4697,1.4577,-35.3516,21.0493,28,0.1561,9234,3.9534,120.0277
lg,1625310070680666733,0,0.1011,-0.1672,1.1399,764,32.8369,13.3057,11.2305,85,1.4707,1.4587,-34.0312,20.5825,28,0.1561,8855,3.9534,121.5569
lg,1625310070680702763,0,0.0771,-0.1567,1.2852,765,28.6255,19.2261,11.8408,85,1.4697,1.4577,-32.459,20.003,28,0.1561,9257,3.9534,123.1125
lg,1625310070680720926,0,0.1028,-0.2129,1.5349,766,21.9727,32.8369,14.2212,85,1.4697,1.4577,-30.4615,19.0399,28,0.1561,8574,3.9534,124.9238
lg,1625310070680738497,0,0.061,-0.2837,1.8191,767,10.8643,36.9873,0.1831,85,1.4697,1.4577,-28.1067,17.9878,28,0.1551,8940,3.9534,126.0878
lg,1625310070680755771,0,-0.0615,-0.2483,1.1284,768,13.5498,-14.5264,-30.0903,85,1.4687,1.4567,-27.2549,17.924,28,0.1561,9311,3.9534,125.2077
lg,1625310071046769508,0,-0.001,-0.3652,1.0999,769,-20.6909,32.959,21.3623,85,1.4697,1.4577,-25.444,15.127,28,0.1561,29854,3.9534,127.312
lg,1625310071046827442,0,0.0588,-0.3179,1.043,770,0.1221,12.3901,17.1509,85,1.4697,1.4577,-24.4085,13.4396,28,0.1571,8878,3.9534,128.7461
lg,1625310071046859677,0,0.0498,-0.207,0.9736,771,8.7891,12.5122,8.728,85,1.4697,1.4577,-23.2521,12.526,28,0.1561,7979,3.9534,129.6797
lg,1625310071046890801,0,0.0154,-0.2114,1.0374,772,7.4463,20.0195,7.3242,85,1.4697,1.4577,-21.7385,11.6333,28,0.1561,7973,3.9534,130.5651
lg,1625310071046923369,0,-0.009,-0.21,1.0564,773,7.9956,21.1182,6.2866,85,1.4697,1.4577,-20.1637,10.8489,28,0.1571,8007,3.9534,131.3544
lg,1625310071046952438,0,-0.0374,-0.1914,1.0801,774,11.5356,16.4795,4.5166,85,1.4707,1.4577,-18.7434,10.3436,28,0.1561,9348,3.9534,131.9673
lg,1625310071046980284,0,-0.0574,-0.0952,1.0454,775,12.6343,7.4463,2.3193,85,1.4707,1.4587,-17.645,10.1583,28,0.1571,8667,3.9534,132.3259
lg,1625310071047009260,0,-0.0859,-0.0535,1.0537,776,10.2539,6.1646,2.1973,85,1.4707,1.4577,-16.6837,9.7954,28,0.1561,8081,3.9534,132.6484
lg,1625310071047037089,0,-0.1055,-0.0684,1.0505,777,0.4883,0.1221,5.249,85,1.4687,1.4577,-15.8623,9.2031,28,0.1561,8142,3.9534,133.0201
lg,1625310071047064750,0,-0.0774,-0.1409,1.0317,778,-6.0425,-14.9536,12.9395,85,1.4707,1.4587,-15.7712,8.1559,28,0.1551,7991,3.9534,133.6404
lg,1625310071047092486,0,0.0154,-0.166,1.0383,779,-5.7983,-24.8413,16.6016,85,1.4697,1.4577,-16.5328,7.0877,28,0.1551,8154,3.9534,134.3701
lg,1625310071047120184,0,0.074,-0.1733,1.0308,780,-4.6387,-33.5693,18.6157,85,1.4707,1.4587,-17.4778,6.0455,28,0.1561,8140,3.9534,135.1732
lg,1625310071047146698,0,0.1497,-0.177,1.0256,781,-3.7842,-24.0479,20.5688,85,1.4717,1.4587,-18.1641,5.0167,28,0.1551,8146,3.9534,136.1283
lg,1625310071047196226,0,0.1599,-0.1919,1.0522,782,-3.54,-13.916,19.2261,85,1.4707,1.4577,-17.8654,3.9996,28,0.1551,8295,3.9534,137.1334
lg,1625310071047225572,0,0.1392,-0.1853,1.0564,783,-3.1128,12.9395,17.8833,85,1.4707,1.4557,-16.997,3.0726,28,0.1561,8157,3.9534,138.0885
lg,1625310071047253345,0,0.0696,-0.1765,1.0356,784,-1.0986,35.5225,16.6626,85,1.4707,1.4587,-15.107,2.2986,28,0.1551,8133,3.9534,139.001
lg,1625310071047280618,0,-0.0505,-0.1326,1.0386,785,-2.5024,45.7153,17.8223,85,1.4717,1.4587,-12.2278,1.5505,28,0.1561,8215,3.9534,139.9362
lg,1625310071047309353,0,-0.1577,-0.156,1.064,786,-7.5073,58.5327,18.3105,85,1.4717,1.4587,-9.1168,0.7129,28,0.1561,10723,3.9534,140.8064
lg,1625310071047336885,0,-0.1995,-0.1633,1.0679,787,-8.1177,52.4902,18.3716,85,1.4707,1.4577,-6.271,-0.079,28,0.1551,8230,3.9534,141.613
lg,1625310071047362899,0,-0.2507,-0.1797,1.0867,788,-6.7139,24.9023,18.0054,85,1.4707,1.4577,-4.5326,-0.7729,27,0.1561,8990,3.9534,142.364
lg,1625310071047389005,0,-0.2495,-0.1729,1.0688,789,-5.5542,-11.1694,14.2212,85,1.4707,1.4577,-4.2853,-1.3627,27,0.1551,8608,3.9534,142.9652
lg,1625310071047416019,0,-0.1772,-0.1758,1.0508,790,-4.1504,-41.626,13.4888,85,1.4707,1.4577,-5.923,-1.9227,27,0.1551,8339,3.9534,143.5653
lg,1625310071047442366,0,-0.0835,-0.1689,1.0503,791,-3.9062,-60.3638,10.5591,88,1.4707,1.4577,-7.9015,-2.4261,28,0.1551,8833,3.9512,144.111
lg,1625310071047468416,0,-0.0295,-0.1702,1.0291,792,-3.418,-66.5283,8.0566,88,1.4707,1.4577,-10.1601,-2.9106,28,0.1551,8501,3.9512,144.5997
lg,1625310071047605224,0,0.0176,-0.1831,1.0403,793,-3.0518,-65.6738,6.7749,88,1.4707,1.4577,-12.3958,-3.3986,28,0.1551,8395,3.9512,145.0726
lg,1625310071047686413,0,0.0225,-0.1882,1.0337,794,-3.2349,-63.7207,5.249,88,1.4707,1.4577,-14.5185,-3.9219,28,0.1551,8433,3.9512,145.5204
lg,1625310071047719926,0,0.0427,-0.1843,1.0535,795,-2.0752,-59.9365,5.3711,88,1.4707,1.4577,-16.3141,-4.3132,28,0.1551,10955,3.9512,145.9781
lg,1625310071047748698,0,0.0427,-0.187,1.0527,796,-1.4038,-56.8848,6.5308,88,1.4717,1.4587,-18.0022,-4.7414,28,0.1551,8977,3.9512,146.5046
lg,1625310071047944569,0,0.0491,-0.2036,1.0454,797,-2.8687,-58.7158,8.3008,88,1.4717,1.4577,-19.702,-5.2986,28,0.1551,8493,3.9512,147.1506
lg,1625310071047988617,0,0.0894,-0.1904,1.0437,798,-2.6855,-60.1196,10.5591,88,1.4717,1.4577,-21.4596,-5.861,28,0.1551,8545,3.9512,147.9194
lg,1625310071048021259,0,0.1296,-0.1797,1.082,799,-1.8311,-59.4482,11.1084,88,1.4717,1.4577,-23.1814,-6.3695,28,0.1551,8511,3.9512,148.7535
lg,1625310071048052827,0,0.1509,-0.178,1.0781,800,-1.77,-58.3496,11.5967,88,1.4707,1.4557,-24.8324,-6.8914,28,0.1551,8535,3.9512,149.6022
lg,1625310071409106749,0,0.2749,-0.1907,1.0286,801,-2.6855,-37.3535,14.5874,88,1.4717,1.4577,-25.329,-7.4398,28,0.1551,27262,3.9512,150.4681
lg,1625310071409185901,0,0.2876,-0.189,1.0249,802,-0.6104,4.2725,16.0522,88,1.4717,1.4577,-24.6791,-7.8742,28,0.1551,10845,3.9512,151.1977
lg,1625310071409210545,0,0.2283,-0.1885,1.0444,803,0.4883,28.5645,16.4185,88,1.4717,1.4577,-22.9625,-8.1684,28,0.1551,7880,3.9512,151.7738
lg,1625310071409230374,0,0.1533,-0.218,1.0383,804,1.9531,43.0908,15.1367,88,1.4717,1.4577,-20.5954,-8.3838,28,0.1551,7878,3.9512,152.2104
lg,1625310071409249630,0,0.1089,-0.1992,1.0491,805,2.1973,47.9126,14.7705,88,1.4717,1.4577,-18.0376,-8.4988,28,0.1551,8082,3.9512,152.5645
lg,1625310071409268090,0,0.0481,-0.2117,1.0449,806,2.6245,48.3398,14.1602,88,1.4717,1.4577,-15.4407,-8.5957,28,0.1551,8756,3.9512,152.8853
lg,1625310071409287031,0,0.0181,-0.199,1.0256,807,2.9907,42.2974,15.8691,88,1.4727,1.4607,-13.1097,-8.6665,28,0.1551,8555,3.9512,153.2954
lg,1625310071409306897,0,-0.0039,-0.1992,1.0474,808,3.0518,37.9639,15.0757,88,1.4727,1.4587,-10.9781,-8.7021,28,0.1541,8129,3.9512,153.6879
lg,1625310071409326579,0,-0.0076,-0.1953,1.042,809,3.418,27.9541,15.7471,88,1.4687,1.4587,-9.331,-8.7217,28,0.1541,8103,3.9512,154.1622
lg,1625310071409346409,0,-0.0178,-0.1885,1.0566,810,4.5166,19.5923,16.8457,88,1.4727,1.4587,-8.0499,-8.6788,28,0.1551,8113,3.9512,154.7247
lg,1625310071409363776,0,-0.0063,-0.1792,1.0405,811,4.1504,17.334,14.9536,88,1.4727,1.4587,-6.935,-8.6176,28,0.1551,8114,3.9512,155.2217
lg,1625310071409434207,0,-0.0156,-0.1697,1.0427,812,2.9907,8.606,14.8315,88,1.4727,1.4587,-6.1981,-8.5826,28,0.1551,14339,3.9512,155.7631
lg,1625310071409456407,0,-0.022,-0.1648,1.0396,813,1.9531,2.0752,14.2822,88,1.4727,1.4587,-5.7376,-8.5772,28,0.1551,8119,3.9512,156.3203
lg,1625310071409476755,0,-0.0261,-0.1665,1.0486,814,0.4883,0.7935,15.2588,88,1.4727,1.4587,-5.33,-8.6405,28,0.1551,8109,3.9512,156.9243
lg,1625310071409496140,0,-0.0286,-0.1665,1.0559,815,-0.8545,-7.3853,15.0146,88,1.4727,1.4587,-5.2578,-8.7441,28,0.1551,8055,3.9512,157.5663
lg,1625310071409514840,0,-0.0203,-0.1768,1.0442,816,-0.6714,-15.1978,15.564,88,1.4727,1.4587,-5.5087,-8.8696,28,0.1551,8135,3.9512,158.2809
lg,1625310071409535300,0,0.0085,-0.1833,1.0552,817,-0.6714,-22.3389,15.1978,88,1.4727,1.4587,-6.0927,-9.0084,28,0.1551,9814,3.9512,159.0279
lg,1625310071409554407,0,0.0232,-0.1785,1.0322,818,-1.1597,-23.8037,15.5029,88,1.4727,1.4577,-6.7392,-9.1698,28,0.1551,8189,3.9512,159.7989
lg,1625310071409573904,0,0.0232,-0.179,1.0413,819,-1.0376,-26.4282,15.0146,88,1.4717,1.4587,-7.4639,-9.3269,28,0.1541,8231,3.9512,160.5703
lg,1625310071409591956,0,0.0354,-0.1799,1.0386,820,-1.2207,-27.5269,13.1226,88,1.4727,1.4587,-8.2396,-9.4894,28,0.1551,8236,3.9512,161.2774
lg,1625310071409610045,0,0.0483,-0.1765,1.0415,821,-1.1597,-28.6255,13.4277,88,1.4737,1.4587,-9.0783,-9.6635,28,0.1541,8970,3.9512,162.062
lg,1625310071409627357,0,0.0452,-0.1809,1.0588,822,-0.9766,-30.0903,14.4043,88,1.4727,1.4587,-9.9558,-9.864,28,0.1541,9913,3.9512,162.8873
lg,1625310071409645390,0,0.0742,-0.188,1.0698,823,-1.8311,-31.0059,13.7939,88,1.4727,1.4587,-10.8358,-10.0775,28,0.1551,8256,3.9512,163.6588
lg,1625310071409666664,0,0.1133,-0.1672,1.0564,824,-1.6479,-31.9824,15.0146,88,1.4737,1.4587,-11.7921,-10.2604,28,0.1551,8333,3.9512,164.4838
lg,1625310071409684883,0,0.1348,-0.1741,1.0398,825,-1.3428,-30.0903,15.0146,88,1.4737,1.4587,-12.5476,-10.454,28,0.1551,8351,3.9512,165.3109
lg,1625310071409704009,0,0.124,-0.1812,1.0408,826,-1.2207,-23.0713,15.8691,88,1.4737,1.4587,-13.1006,-10.6568,28,0.1551,8452,3.9512,166.1188
lg,1625310071409746835,0,0.1248,-0.1753,1.0378,827,-1.8311,-15.5029,15.0757,88,1.4737,1.4587,-13.3412,-10.85,28,0.1551,8433,3.9512,166.8358
lg,1625310071409774478,0,0.1135,-0.1943,1.0427,828,-1.0986,-10.7422,15.1978,88,1.4737,1.4597,-13.357,-11.0399,28,0.1541,8437,3.9512,167.5297
lg,1625310071409792215,0,0.1152,-0.2017,1.0449,829,-0.7324,-9.3384,15.0146,88,1.4737,1.4587,-13.33,-11.1782,28,0.1551,8414,3.9512,168.1983
lg,1625310071409810749,0,0.1267,-0.1907,1.0479,830,0.061,-8.9722,14.1602,88,1.4727,1.4587,-13.3084,-11.2858,28,0.1551,8455,3.9512,168.8324
lg,1625310071409830171,0,0.1172,-0.2063,1.0393,831,0.7935,-7.2632,15.7471,88,1.4737,1.4587,-13.1884,-11.4075,28,0.1551,8519,3.9512,169.5244
lg,1625310071409850204,0,0.1292,-0.187,1.0596,832,1.0986,-5.3711,16.4185,88,1.4737,1.4587,-13.014,-11.4639,28,0.1551,8503,3.9512,170.2155
lg,1625310071787792213,0,0.1172,-0.1821,1.0493,833,1.5259,1.4648,15.3809,88,1.4737,1.4587,-12.5652,-11.4689,28,0.1551,25505,3.9512,170.8065
lg,1625310071787835593,0,0.0874,-0.1724,1.0359,834,0.1831,5.4932,14.3433,88,1.4737,1.4587,-11.9254,-11.4894,28,0.1551,8929,3.9512,171.3184
lg,1625310071787865532,0,0.0664,-0.1809,1.0415,835,0.8545,7.3853,15.0757,88,1.4737,1.4587,-11.1852,-11.4951,28,0.1541,8663,3.9512,-188.1529
lg,1625310071787894397,0,0.0535,-0.1836,1.0518,836,1.1597,5.3101,14.8926,88,1.4737,1.4587,-10.5282,-11.4854,28,0.1551,8280,3.9512,-187.6147
lg,1625310071787921429,0,0.0583,-0.1868,1.0522,837,0.7935,3.8452,14.4653,88,1.4737,1.4587,-9.9678,-11.4906,28,0.1541,7963,3.9512,-187.0807
lg,1625310071787947739,0,0.041,-0.1912,1.0532,838,1.4648,2.1973,14.2212,88,1.4727,1.4587,-9.4594,-11.4733,28,0.1551,9229,3.9512,-186.5417
lg,1625310071787973124,0,0.0371,-0.177,1.0459,839,0.8545,-2.7466,14.5264,88,1.4747,1.4587,-9.1545,-11.4582,28,0.1551,10201,3.9512,-185.9552
lg,1625310071787999563,0,0.0574,-0.1777,1.042,840,0.7935,-6.2256,14.7095,88,1.4737,1.4587,-9.0396,-11.4525,28,0.1551,7976,3.9512,-185.3327
lg,1625310071788051387,0,0.0559,-0.188,1.043,841,0.7935,-7.3242,15.2588,88,1.4737,1.4587,-9.0104,-11.474,28,0.1551,8334,3.9512,-184.6749
lg,1625310071788078160,0,0.0769,-0.1709,1.0442,842,0.7324,-9.9487,13.6719,88,1.4737,1.4557,-9.0963,-11.4526,28,0.1551,8773,3.9512,-184.0659
lg,1625310071788103618,0,0.0898,-0.176,1.0491,843,0.8545,-11.3525,15.8691,88,1.4747,1.4587,-9.2426,-11.4534,28,0.1551,8475,3.9512,-183.3568
lg,1625310071788130039,0,0.1045,-0.1763,1.0532,844,0.7324,-9.1553,14.7095,88,1.4737,1.4587,-9.3366,-11.4494,28,0.1541,8047,3.9512,-182.7116
lg,1625310071788155127,0,0.1108,-0.1877,1.0652,845,0.4883,-8.728,14.9536,88,1.4737,1.4587,-9.4184,-11.4771,28,0.1541,8820,3.9512,-182.0569
lg,1625310071788179900,0,0.1248,-0.1846,1.0479,846,0.3052,-9.2163,14.2212,88,1.4717,1.4597,-9.5546,-11.5079,28,0.1551,8477,3.9512,-181.4273
lg,1625310071788204581,0,0.1238,-0.1763,1.0354,847,0.2441,-6.6528,16.0522,88,1.4737,1.4597,-9.5717,-11.5364,28,0.1551,8191,3.9512,-180.7481
lg,1625310071788229187,0,0.1218,-0.1851,1.0352,848,0.1221,-4.7607,14.8315,88,1.4747,1.4587,-9.3813,-11.5782,28,0.1541,8872,3.9512,-180.1612
lg,1625310071788253757,0,0.1221,-0.1841,1.0479,849,0.6104,1.0986,14.6484,88,1.4737,1.4587,-9.1062,-11.5783,28,0.1541,8151,3.9512,-179.5996
lg,1625310071788279141,0,0.0996,-0.178,1.0466,850,0.6104,4.2114,15.564,88,1.4747,1.4597,-8.6665,-11.5641,28,0.1541,8625,3.9512,-179.0294
lg,1625310071788304433,0,0.0752,-0.1934,1.0505,851,1.2207,5.0659,15.3198,88,1.4737,1.4587,-8.1602,-11.5498,27,0.1541,8592,3.9512,-178.4709
lg,1625310071788329299,0,0.0745,-0.1748,1.0388,852,1.0376,4.7607,14.7705,88,1.4737,1.4597,-7.688,-11.5262,27,0.1541,8990,3.9512,-177.9986
lg,1625310071788353813,0,0.0601,-0.1685,1.0439,853,0.061,2.9907,14.3433,88,1.4747,1.4597,-7.2794,-11.4974,27,0.1541,8277,3.9512,-177.4687
lg,1625310071788378623,0,0.0415,-0.1772,1.05,854,0,-0.4883,14.3433,88,1.4747,1.4597,-6.9829,-11.4887,27,0.1551,8253,3.9512,-176.9082
lg,1625310071788403507,0,0.0527,-0.1794,1.0442,855,0.6714,-3.418,13.9771,88,1.4747,1.4587,-6.8399,-11.4594,28,0.1541,8987,3.9512,-176.3376
