name,time,activity,ax,ay,az,batch_val,gx,gy,gz,ibat,index,middle,pitch,roll,temp,thumb,ts,vbat,yaw
rg,1625310079780681049,1,0.1943,0.0618,1.019,1,0.4883,-9.5215,16.0522,90,1.1656,1.2266,-24.3188,-3.3704,27,1.0025,20358,4.0315,-72.1184
rg,1625310079780829144,1,0.2061,0.0645,1.0217,2,-1.4648,-13.7329,17.0898,90,1.1656,1.2266,-24.3171,-3.4542,27,1.0025,8727,4.0315,-71.4572
rg,1625310079780855696,1,0.2219,0.0686,1.0188,3,-0.1831,-16.3574,17.0288,90,1.1656,1.2256,-24.4538,-3.4771,27,1.0015,8062,4.0315,-70.7958
rg,1625310079780876712,1,0.2385,0.0676,1.0134,4,-1.0376,-16.7847,17.2729,90,1.1656,1.2246,-24.6381,-3.5428,27,1.0025,8039,4.0315,-70.1214
rg,1625310079780897377,1,0.2444,0.0608,1.0146,5,-1.0376,-16.1133,16.7847,90,1.1656,1.2256,-24.8,-3.6152,27,1.0015,8046,4.0315,-69.4635
rg,1625310079780920485,1,0.2402,0.0671,1.0024,6,-2.1973,-14.6484,16.7236,90,1.1656,1.2246,-24.8948,-3.713,27,1.0015,8063,4.0315,-68.8202
rg,1625310079780937854,1,0.2422,0.0649,1.0059,7,0.061,-15.0757,18.4937,90,1.1656,1.2236,-24.9997,-3.7575,27,1.0015,8062,4.0315,-68.096
rg,1625310079780957185,1,0.2271,0.0635,1.0166,8,-2.0142,-14.4653,19.5312,90,1.1656,1.2226,-25.0355,-3.9064,27,1.0015,8049,4.0315,-67.3265
rg,1625310079780974850,1,0.2253,0.0862,1.0142,9,-1.8921,-15.1978,20.9351,90,1.1656,1.2216,-25.0935,-4.0183,27,1.0015,8295,4.0315,-66.5173
rg,1625310079780994403,1,0.2183,0.0879,1.0142,10,-4.2114,-15.7471,21.0571,90,1.1666,1.2206,-25.1542,-4.2177,27,1.0005,8128,4.0315,-65.7037
rg,1625310079781015493,1,0.2156,0.0737,1.0383,11,-7.3242,-16.5405,21.3013,90,1.1656,1.2196,-25.222,-4.5774,27,1.0005,8173,4.0315,-64.862
rg,1625310079781034732,1,0.2039,0.0396,1.053,12,-7.019,-14.6484,21.3013,90,1.1656,1.2196,-25.1737,-4.9889,27,1.0005,8156,4.0315,-63.9957
rg,1625310079781055230,1,0.1965,0.0422,1.0432,13,-7.9956,-17.0288,21.1792,90,1.1656,1.2186,-25.2227,-5.4181,27,0.9995,8208,4.0315,-63.1314
rg,1625310079781465703,1,0.2021,0.0547,1.0249,14,-7.7515,-19.9585,18.7378,90,1.1666,1.2186,-25.3937,-5.7514,27,0.9995,8151,4.0315,-62.3779
rg,1625310079781526622,1,0.1912,0.0706,1.0073,15,-10.6812,-25.0244,16.7847,90,1.1656,1.2176,-25.7494,-6.1249,27,0.9985,8210,4.0315,-61.7058
rg,1625310079781556175,1,0.1951,0.0764,1.0098,16,-12.207,-27.2217,16.6626,90,1.1656,1.2156,-26.3278,-6.6313,27,0.9975,8215,4.0315,-60.975
rg,1625310079781582116,1,0.2261,0.0852,1.0464,17,-17.2119,-32.8369,17.8833,90,1.1656,1.2156,-26.9976,-7.2643,27,0.9965,8280,4.0315,-60.2231
rg,1625310079781608391,1,0.25,0.1033,1.0645,18,-20.0806,-39.917,20.2637,90,1.1656,1.2136,-27.9424,-8.0366,27,0.9955,8254,4.0315,-59.3344
rg,1625310079781635888,1,0.2661,0.1323,1.0605,19,-26.7334,-46.5698,23.1323,90,1.1656,1.2106,-29.1228,-9.0902,27,0.9945,8261,4.0315,-58.2914
rg,1625310079781659552,1,0.2759,0.1348,1.0522,20,-31.7993,-47.7295,24.4141,90,1.1656,1.2086,-30.301,-10.3711,27,0.9935,8291,4.0315,-57.1679
rg,1625310079781685494,1,0.2888,0.0913,1.051,21,-42.0532,-45.2271,27.771,90,1.1656,1.2046,-31.2993,-12.225,27,0.9915,9350,4.0315,-55.8395
rg,1625310079781711158,1,0.1018,-0.7939,0.6433,22,80.3223,21.9116,0.9155,137,0.8964,0.5102,-29.7198,-10.5881,27,0.7954,12063,4.0073,-55.1279
rg,1625310079781730600,1,0.0076,-0.6628,0.6211,23,82.6416,27.8931,0.061,137,0.9245,0.5303,-27.5469,-8.5871,27,0.7974,8366,4.0073,-54.6237
rg,1625310079781750079,1,-0.1196,-0.5002,0.6011,24,59.4482,11.3525,7.6904,137,0.9445,0.5423,-25.8663,-7.6409,27,0.7994,8194,4.0073,-53.7373
rg,1625310079781774780,1,-0.1536,-0.4712,0.6096,25,23.3154,-62.7441,-5.4932,137,0.9575,0.5563,-27.1289,-8.0143,27,0.8004,8183,4.0073,-53.0536
rg,1625310079781799500,1,-0.0452,-0.6401,0.7402,26,-8.5449,-76.8433,-3.3569,137,0.9505,0.5663,-29.8916,-11.6215,27,0.8014,8361,4.0073,-50.861
rg,1625310079781829311,1,0.2051,-0.7349,0.8345,27,-62.439,-131.3477,36.0718,137,0.9014,0.5773,-33.9551,-17.0741,27,0.7994,8254,4.0073,-47.0548
rg,1625310079781853012,1,0.4858,-0.9077,0.8823,28,-91.3086,-151.4893,14.8315,137,0.8454,0.5753,-38.9816,-23.9355,27,0.7984,8450,4.0073,-43.0326
rg,1625310079781871307,1,0.5649,-1.051,0.7812,29,-94.9097,-91.6748,26.123,137,0.8094,0.5133,-41.2308,-31.2352,27,0.7954,8354,4.0073,-38.7826
rg,1625310079781891397,1,0.3428,-0.946,0.6223,30,-102.8442,-57.251,29.6631,236,0.7874,0.4232,-41.6049,-37.6215,27,0.7844,8683,3.9435,-35.4233
rg,1625310079781908747,1,0.2756,-0.7969,0.6423,31,-55.7251,-60.6079,16.4795,236,0.7914,0.3762,-42.0292,-42.3338,27,0.7814,8302,3.9435,-32.244
rg,1625310079781928708,1,0.2415,-0.6489,0.53,32,72.937,-23.1934,34.5459,236,0.7894,0.3612,-40.8122,-41.3072,27,0.7744,8491,3.9435,-29.7492
rg,1625310080195759438,1,0.2151,-0.4597,0.5737,33,27.3438,-4.3335,14.2212,236,0.7874,0.3452,-39.6392,-41.1919,27,0.7554,24357,3.9435,-28.7833
rg,1625310080195788639,1,0.3752,-0.4285,0.5718,34,2.5635,-38.3911,16.8457,236,0.7884,0.3412,-39.8572,-42.1459,27,0.7504,20774,3.9435,-26.9343
rg,1625310080195809285,1,0.5298,-0.437,0.627,35,-19.5923,-3.6011,18.7988,236,0.7904,0.3442,-39.2531,-43.144,27,0.7484,7795,3.9435,-26.2993
rg,1625310080195848688,1,0.5723,-0.771,0.8967,36,-70.6787,70.3735,9.0332,236,0.7904,0.3482,-36.4572,-44.5173,27,0.7484,7909,3.9435,-28.5366
rg,1625310080195868260,1,0.4297,-0.9846,0.9475,37,-78.9795,101.8066,1.77,236,0.7924,0.3582,-32.8128,-45.7582,27,0.7504,7795,3.9435,-31.9693
rg,1625310080195886777,1,-0.0586,-1.2576,0.9731,38,-38.8184,121.9482,-4.5166,236,0.7934,0.3722,-28.2616,-45.4616,27,0.7534,7944,3.9435,-36.0107
rg,1625310080195905275,1,-0.0593,-0.9329,0.8547,39,18.7378,51.5747,12.5122,236,0.7994,0.3842,-25.2876,-44.2445,27,0.7614,8364,3.9435,-37.1949
rg,1625310080195922921,1,0.0972,-0.7678,0.9541,40,28.8086,18.0664,12.146,236,0.8124,0.4022,-23.8315,-42.7766,27,0.7684,8337,3.9435,-37.4576
rg,1625310080195940179,1,0.3254,-0.8081,0.8145,41,37.4146,-10.3149,18.0054,236,0.8304,0.4272,-23.3313,-41.7116,27,0.7764,8093,3.9435,-36.54
rg,1625310080195957214,1,0.4382,-1.04,0.7283,42,42.2974,-0.1221,7.3853,236,0.8564,0.4542,-22.9898,-40.6475,27,0.7834,8221,3.9435,-36.0832
rg,1625310080195974434,1,0.2046,-0.8167,0.6128,43,58.1665,14.7705,-1.4648,236,0.8804,0.4792,-21.8376,-37.9134,27,0.7874,8289,3.9435,-36.6914
rg,1625310080195991951,1,0.0806,-0.6543,0.6262,44,75.9888,35.5225,-2.1973,236,0.9034,0.5002,-20.1056,-34.8814,27,0.7924,8302,3.9435,-37.5247
rg,1625310080196008949,1,-0.0862,-0.4924,0.5593,45,51.2085,15.0146,6.5918,236,0.9204,0.5173,-18.4464,-33.0652,27,0.7934,8151,3.9435,-37.5405
rg,1625310080196025836,1,-0.1143,-0.4937,0.6531,46,1.77,-38.5742,12.207,236,0.9255,0.5293,-18.4515,-33.5705,27,0.7944,8441,3.9435,-36.1669
rg,1625310080196043316,1,-0.0085,-0.5847,0.7061,47,-29.6631,-75.3784,18.2495,236,0.9044,0.5413,-20.1006,-35.9786,27,0.7964,8127,3.9435,-33.5805
rg,1625310080196071535,1,0.334,-0.8201,0.8623,48,-78.125,-125.7935,29.4189,236,0.8574,0.5443,-23.1058,-40.9968,27,0.7964,8474,3.9435,-29.1207
rg,1625310080196089885,1,0.511,-0.9929,0.7742,49,-92.1021,-104.4922,31.7993,236,0.8164,0.4842,-25.1769,-46.8113,27,0.7934,8250,3.9435,-24.7674
rg,1625310080196106995,1,0.4312,-1.0388,0.7122,50,-96.8018,-54.4434,37.4146,236,0.7884,0.4132,-25.1936,-52.2533,28,0.7874,8220,3.9435,-21.7255
rg,1625310080196124511,1,0.3428,-0.9285,0.6152,51,-60.4248,-58.7769,37.1704,236,0.7794,0.3572,-25.0301,-56.1264,28,0.7734,12624,3.9435,-18.5991
rg,1625310080196141732,1,0.2766,-0.7627,0.4602,52,82.8857,-0.3662,37.4146,236,0.7794,0.3412,-23.509,-53.3192,28,0.7664,8342,3.9435,-17.5895
rg,1625310080196158434,1,0.4167,-0.4541,0.4309,53,97.229,2.6855,62.2559,236,0.7804,0.3382,-21.9673,-50.8428,28,0.7594,8131,3.9435,-16.7335
rg,1625310080196175154,1,0.2295,-0.3474,0.4202,54,56.7627,39.1235,10.0708,236,0.7804,0.3332,-20.69,-47.7649,27,0.7534,8284,3.9435,-17.9009
rg,1625310080196191875,1,-0.0093,-0.2556,0.3865,55,41.3208,51.2085,-9.1553,236,0.7804,0.3322,-18.7216,-44.8951,27,0.7504,8154,3.9435,-19.9386
rg,1625310080196209114,1,-0.0256,-0.2598,0.5259,56,-3.9673,32.4707,8.728,236,0.7814,0.3342,-16.7684,-44.073,27,0.7474,8356,3.9435,-20.8775
rg,1625310080196235592,1,0.2446,-0.4978,0.8196,57,-28.3203,-2.9907,11.9019,236,0.7814,0.3352,-16.9124,-45.8965,27,0.7464,8465,3.9435,-19.9921
rg,1625310080196252887,1,0.3406,-0.7192,0.8901,58,-65.0024,-18.5547,10.8643,236,0.7814,0.3422,-17.0846,-48.4596,27,0.7474,8824,3.9435,-19.1979
rg,1625310080196279606,1,0.3857,-1.1555,1.0425,59,-66.1621,14.3433,6.5918,236,0.7834,0.3502,-16.3868,-50.9855,27,0.7504,8575,3.9435,-19.491
rg,1625310080196297271,1,0.1763,-1.1375,0.8784,60,-11.1084,32.959,3.6011,236,0.7854,0.3642,-15.0789,-51.2072,27,0.7554,8760,3.9435,-20.4535
rg,1625310080196313788,1,0.1643,-0.8384,0.8835,61,28.8086,27.2217,11.2915,236,0.7944,0.3822,-13.7514,-49.5927,27,0.7634,8756,3.9435,-21.1054
rg,1625310080196330138,1,0.2437,-0.71,0.821,62,37.0483,-1.709,11.5967,236,0.8144,0.4052,-13.4065,-47.842,27,0.7734,10774,3.9435,-20.8237
rg,1625310080196346766,1,0.3604,-0.9863,0.7439,63,34.729,-13.9771,11.3525,236,0.8394,0.4372,-13.6858,-46.7451,27,0.7794,8376,3.9435,-20.1141
rg,1625310080196363431,1,0.3062,-1.0061,0.6719,64,45.3491,-7.6904,0.8545,236,0.8654,0.4632,-13.8986,-45.3592,27,0.7834,8603,3.9435,-19.7748
rg,1625310080580865448,1,-0.106,-0.418,0.6221,65,15.3809,-37.9639,10.0708,236,0.8974,0.5102,-13.8416,-44.6121,27,0.7884,26086,3.9435,-18.4798
rg,1625310080580914369,1,0.1184,-0.6772,0.7268,66,-75.1343,-117.0654,17.6392,236,0.8684,0.5193,-16.2458,-48.5747,27,0.7884,8849,3.9435,-14.4788
rg,1625310080580934941,1,0.446,-0.9551,0.8186,67,-103.5156,-145.9351,19.5312,236,0.8294,0.5153,-19.3699,-54.3524,28,0.7884,8154,3.9435,-9.1578
rg,1625310080580955309,1,0.5098,-1.0254,0.7576,68,-103.3936,-124.939,22.0947,236,0.7974,0.4492,-21.398,-60.1754,28,0.7864,8638,3.9435,-4.1714
rg,1625310080580974030,1,0.5337,-1.0859,0.6685,69,-80.8105,-83.4961,39.978,236,0.7744,0.4002,-21.5601,-64.7767,28,0.7784,8464,3.9435,-0.2239
rg,1625310080580992287,1,0.4932,-0.9954,0.5911,70,-45.2271,-59.9365,42.6025,236,0.7734,0.3552,-21.0262,-67.4801,28,0.7744,8482,3.9435,2.7844
rg,1625310080581009952,1,0.3718,-0.9495,0.4736,71,70.8008,9.0942,31.6162,236,0.7744,0.3432,-19.6564,-64.5463,27,0.7714,8360,3.9435,2.9128
rg,1625310080581027561,1,0.1921,-0.5125,0.3298,72,85.4492,39.4287,-7.5684,236,0.7754,0.3412,-19.1148,-60.2869,27,0.7624,16212,3.9435,1.1806
rg,1625310080581044596,1,0.0342,-0.3398,0.2786,73,99.3042,43.7622,-23.4375,236,0.7764,0.3392,-18.4082,-55.245,27,0.7604,8018,3.9435,-1.0192
rg,1625310080581063298,1,-0.0754,-0.0981,0.3193,74,72.2656,58.1055,-2.6855,236,0.7764,0.3412,-16.0573,-50.338,27,0.7564,8071,3.9435,-3.4374
rg,1625310080581080796,1,0.0652,-0.1326,0.5225,75,-13.0615,12.5122,18.1274,236,0.7784,0.3412,-14.9369,-49.4928,27,0.7554,7984,3.9435,-3.7378
rg,1625310080581098387,1,0.1724,-0.3384,0.6968,76,-55.0537,-12.085,14.0381,236,0.7784,0.3482,-14.7667,-50.955,27,0.7564,8138,3.9435,-3.2238
rg,1625310080581116107,1,0.3567,-0.9102,0.9355,77,-90.4541,-4.2725,13.1226,236,0.7784,0.3592,-14.4762,-54.4049,27,0.7584,8660,3.9435,-2.8263
rg,1625310080581133161,1,0.2991,-1.3474,0.9875,78,-51.4526,45.105,14.1602,236,0.7804,0.3722,-12.8179,-56.1373,27,0.7634,8331,3.9435,-4.0364
rg,1625310080581149678,1,0.1335,-1.2019,0.9275,79,27.3438,47.8516,10.498,236,0.7864,0.3942,-11.0842,-54.5973,27,0.7694,8891,3.9435,-5.4383
rg,1625310080581166806,1,0.1426,-0.9993,0.9104,80,57.4951,38.7573,10.437,236,0.8024,0.4122,-9.7193,-51.6675,27,0.7784,8671,3.9435,-6.5327
rg,1625310080581183730,1,0.1943,-0.7161,0.7842,81,89.1113,12.146,6.958,236,0.8264,0.4352,-9.2219,-47.7032,27,0.7844,8290,3.9435,-6.7922
rg,1625310080581200580,1,0.1221,-0.6655,0.5657,82,80.5054,-3.7842,5.127,236,0.8534,0.4552,-9.1267,-44.5976,27,0.7894,8286,3.9435,-6.5258
rg,1625310080581217116,1,0.0332,-0.6475,0.6284,83,66.9556,-12.3901,3.9062,236,0.8744,0.4772,-9.0989,-42.04,27,0.7924,8239,3.9435,-6.0525
rg,1625310080581234762,1,-0.009,-0.6133,0.6636,84,55.4199,-25.4517,3.0518,236,0.8864,0.4922,-9.3996,-39.9722,27,0.7934,8418,3.9435,-5.2701
rg,1625310080581252334,1,-0.0347,-0.5376,0.7119,85,5.3711,-68.9087,5.0049,236,0.8844,0.5042,-10.913,-39.9759,27,0.7954,8286,3.9435,-3.3309
rg,1625310080581269314,1,0.2056,-0.7097,0.7773,86,-60.4248,-125.3052,16.7847,236,0.8514,0.5163,-14.1925,-43.3263,28,0.7964,8382,3.9435,0.6167
rg,1625310080581286571,1,0.3201,-0.7737,0.7976,87,-72.3267,-141.7847,15.1367,236,0.8114,0.4972,-17.9013,-48.0772,28,0.7964,8314,3.9435,5.4497
rg,1625310080581303181,1,0.4766,-0.9165,0.8252,88,-98.4497,-136.5967,23.9258,236,0.7834,0.4232,-20.704,-53.6897,28,0.7944,8445,3.9435,10.5854
rg,1625310080581320160,1,0.5452,-1.0017,0.708,89,-78.4912,-115.6616,39.3066,236,0.7684,0.3612,-22.0757,-58.7032,28,0.7874,8540,3.9435,15.6708
rg,1625310080581337659,1,0.6768,-0.9019,0.7461,90,-14.9536,-82.8857,49.7437,236,0.7724,0.3372,-22.3427,-60.5633,27,0.7854,8497,3.9435,19.7312
rg,1625310080581355009,1,0.5999,-0.897,0.563,91,45.3491,-36.9263,46.0815,236,0.7734,0.3322,-22.0054,-59.6642,27,0.7804,8378,3.9435,22.1037
rg,1625310080581385302,1,0.6089,-0.5598,0.4231,92,59.9365,-0.3662,33.8135,236,0.7744,0.3312,-21.5982,-57.3229,27,0.7754,8563,3.9435,22.7695
rg,1625310080581419002,1,0.2253,-0.2617,0.2771,93,64.8193,57.0068,-24.7803,236,0.7764,0.3282,-21.4891,-53.2452,26,0.7734,8451,3.9435,19.9376
rg,1625310080581436741,1,0.0393,-0.1094,0.2668,94,31.6162,101.7456,-8.1177,236,0.7774,0.3312,-18.7835,-49.5016,26,0.7714,8567,3.9435,15.8864
rg,1625310080581453573,1,0.0522,-0.1367,0.3918,95,-9.4604,109.8022,9.3994,236,0.7794,0.3392,-15.4228,-49.9322,26,0.7714,8527,3.9435,13.0178
rg,1625310080581470460,1,0.2478,-0.8816,0.9783,96,-101.8677,80.5664,9.8267,236,0.7814,0.3472,-12.9421,-53.0904,26,0.7744,10899,3.9435,10.5705
rg,1625310115330494526,3,0.4407,-0.1655,0.9319,97,0.2441,-9.9487,13.7939,61,0.9805,0.6743,-30.5078,-19.2907,27,0.8794,19835,4.0458,-120.8326
rg,1625310115330579674,3,0.4329,-0.1597,0.9231,98,0.9155,-10.8032,15.3198,61,0.9805,0.6773,-30.4924,-19.2797,27,0.8784,8381,4.0458,-120.1991
rg,1625310115330601248,3,0.4375,-0.1653,0.9448,99,0.7935,-10.1929,14.4043,61,0.9805,0.6773,-30.4555,-19.2519,27,0.8794,7749,4.0458,-119.6133
rg,1625310115330621766,3,0.4355,-0.167,0.9448,100,1.2817,-11.2305,15.1367,61,0.9795,0.6763,-30.4452,-19.2337,27,0.8784,7755,4.0458,-118.9768
rg,1625310115330642673,3,0.4282,-0.1643,0.9419,101,0.9155,-10.6201,14.1602,61,0.9805,0.6773,-30.4146,-19.198,27,0.8754,7795,4.0458,-118.3955
rg,1625310115330662506,3,0.436,-0.1619,0.9387,102,1.4648,-11.9019,14.5874,61,0.9805,0.6773,-30.4723,-19.1975,27,0.8794,7925,4.0458,-117.742
rg,1625310115330681858,3,0.437,-0.1584,0.9395,103,0.7935,-12.9395,14.7095,61,0.9795,0.6753,-30.542,-19.1875,27,0.8784,7846,4.0458,-117.1061
rg,1625310115330700395,3,0.4375,-0.1606,0.928,104,1.3428,-13.0005,14.7705,61,0.9805,0.6773,-30.6206,-19.1699,27,0.8764,7971,4.0458,-116.4606
rg,1625310115330718061,3,0.4333,-0.1648,0.9326,105,1.0376,-12.207,15.686,61,0.9805,0.6773,-30.6157,-19.1465,27,0.8804,7874,4.0458,-115.8538
rg,1625310115330760838,3,0.4426,-0.1609,0.9336,106,1.0376,-11.5967,14.5874,61,0.9795,0.6753,-30.6465,-19.1269,27,0.8784,8029,4.0458,-115.2381
rg,1625310115330781579,3,0.4307,-0.1641,0.9397,107,1.1597,-10.1929,14.2822,61,0.9805,0.6773,-30.598,-19.0882,27,0.8794,8363,4.0458,-114.6557
rg,1625310115330800671,3,0.4392,-0.1604,0.9258,108,1.0986,-10.3149,15.1978,61,0.9815,0.6773,-30.5741,-19.0738,27,0.8794,8000,4.0458,-114.0308
rg,1625310115330817893,3,0.436,-0.1582,0.9392,109,0.6714,-11.8408,16.0522,61,0.9805,0.6773,-30.5803,-19.0953,27,0.8784,7868,4.0458,-113.3513
rg,1625310115330835078,3,0.4326,-0.1604,0.9336,110,0.6104,-10.8032,14.8315,61,0.9805,0.6773,-30.5605,-19.0905,27,0.8794,8046,4.0458,-112.7377
rg,1625310115330852319,3,0.4363,-0.1663,0.9314,111,0.6714,-11.4136,15.5029,61,0.9805,0.6773,-30.5626,-19.1191,27,0.8794,8029,4.0458,-112.0769
rg,1625310115330869967,3,0.4355,-0.1672,0.9434,112,1.0986,-11.5967,14.8926,61,0.9805,0.6783,-30.5675,-19.1136,27,0.8804,9475,4.0458,-111.4426
rg,1625310115330886985,3,0.437,-0.1697,0.9387,113,1.0376,-11.4136,15.3198,61,0.9795,0.6773,-30.5656,-19.1274,27,0.8784,7986,4.0458,-110.7879
rg,1625310115330903689,3,0.4436,-0.1724,0.936,114,1.1597,-10.6812,13.9771,61,0.9775,0.6783,-30.5681,-19.1089,27,0.8784,8145,4.0458,-110.199
rg,1625310115330921022,3,0.4287,-0.1699,0.9409,115,1.0376,-11.2915,15.7471,61,0.9815,0.6783,-30.5379,-19.1296,27,0.8804,8281,4.0458,-109.5283
rg,1625310115330938040,3,0.4314,-0.1714,0.9377,116,0.7935,-11.5356,15.9912,61,0.9805,0.6783,-30.5414,-19.1651,27,0.8794,8196,4.0458,-108.844
rg,1625310115330954855,3,0.4353,-0.1646,0.9363,117,0.7935,-11.7798,15.686,61,0.9795,0.6783,-30.5494,-19.1859,27,0.8784,8070,4.0458,-108.1743
rg,1625310115330971725,3,0.4163,-0.1716,0.937,118,-0.1831,-11.4746,15.0757,61,0.9805,0.6783,-30.5129,-19.2427,27,0.8794,8097,4.0458,-107.5293
rg,1625310115330992651,3,0.4233,-0.1672,0.9341,119,0.3052,-11.5356,13.7939,61,0.9815,0.6783,-30.5296,-19.2354,27,0.8794,8152,4.0458,-106.9084
rg,1625310115331011058,3,0.4316,-0.1567,0.9351,120,0.1221,-9.7046,15.564,61,0.9805,0.6773,-30.4545,-19.2667,27,0.8794,33514,4.0458,-106.28
rg,1625310115331029539,3,0.4253,-0.1633,0.9468,121,-0.2441,-8.728,15.625,61,0.9795,0.6743,-30.3232,-19.2879,27,0.8784,8242,4.0458,-105.6672
rg,1625310115331062557,3,0.4229,-0.1694,0.9548,122,-1.0986,-10.1929,16.1743,61,0.9815,0.6783,-30.2308,-19.3748,27,0.8784,8177,4.0458,-105.0028
rg,1625310115331083798,3,0.4106,-0.1611,0.9434,123,-0.3662,-10.9253,15.9912,61,0.9815,0.6763,-30.1595,-19.4133,27,0.8794,8222,4.0458,-104.3449
rg,1625310115331102890,3,0.4209,-0.1489,0.9385,124,-1.77,-12.9395,15.9302,61,0.9815,0.6763,-30.1951,-19.4945,27,0.8794,8358,4.0458,-103.6719
rg,1625310115331120575,3,0.4382,-0.1768,0.9539,125,-2.8076,-12.146,15.686,61,0.9815,0.6763,-30.2133,-19.665,27,0.8784,8298,4.0458,-102.9916
rg,1625310115331138390,3,0.4478,-0.158,0.9392,126,-2.6245,-12.6343,15.0757,61,0.9805,0.6763,-30.2929,-19.7764,27,0.8784,8414,4.0458,-102.3512
rg,1625310115331156297,3,0.4497,-0.1428,0.9465,127,-2.6855,-13.4277,15.9912,61,0.9805,0.6753,-30.3883,-19.874,27,0.8784,8329,4.0458,-101.6801
rg,1625310115331180278,3,0.4619,-0.1555,0.9541,128,-4.5166,-11.4136,15.4419,61,0.9805,0.6763,-30.4232,-20.0425,27,0.8784,8500,4.0458,-101.0518
rg,1625310117093844739,3,-0.0498,-0.6931,0.7832,129,-131.4697,-3.54,7.2021,163,1.1015,0.7524,-29.252,-26.3752,27,0.8714,26873,3.9721,-100.2708
rg,1625310117093883961,3,-0.104,-0.6406,0.7996,130,-131.1646,-16.1133,-3.6621,163,1.1015,0.7774,-28.5904,-32.2116,27,0.8714,9141,3.9721,-99.8608
rg,1625310117093904961,3,-0.1572,-0.5127,0.5664,131,-113.0981,-87.5244,-5.4321,163,1.1025,0.8034,-30.0988,-38.1433,27,0.8724,8093,3.9721,-97.6194
rg,1625310117093924923,3,0.1162,-0.3918,0.5881,132,-113.9526,-127.5635,15.8691,163,1.0985,0.8274,-32.6736,-44.7959,27,0.8734,9735,3.9721,-93.2563
rg,1625310117093943608,3,0.2593,-0.2568,0.5977,133,-152.5269,-101.6846,20.1416,163,1.0975,0.8194,-34.4111,-52.2956,27,0.8724,10411,3.9721,-89.4903
rg,1625310117093961738,3,0.4719,-0.4153,0.949,134,-224.7314,-45.6543,39.978,163,1.0885,0.7494,-33.8582,-61.6594,27,0.8724,8019,3.9721,-87.304
rg,1625310117093979849,3,0.4734,-0.6255,1.0042,135,-242.3096,-0.7935,49.4385,163,1.0735,0.6973,-31.8003,-70.5815,27,0.8724,8190,3.9721,-87.0587
rg,1625310117094021330,3,0.4519,-1.1064,0.9719,136,-237.4878,53.833,54.8706,163,1.0515,0.6633,-28.6664,-78.2188,27,0.8694,8489,3.9721,-89.3237
rg,1625310117094040996,3,-0.0991,-2.0383,1.3208,137,-137.146,95.7031,21.3623,163,1.0345,0.6493,-26.0593,-80.8631,27,0.8634,8615,3.9721,-93.8698
rg,1625310117094058829,3,-0.2273,-1.1538,0.6033,138,-4.4556,30.6396,12.146,163,1.0225,0.6363,-24.0929,-79.72,27,0.8574,8451,3.9721,-95.4512
rg,1625310117094076996,3,-0.1946,-0.9775,0.8958,139,7.5684,4.2114,7.4463,163,1.0145,0.6243,-22.685,-78.0556,27,0.8514,8004,3.9721,-96.0921
rg,1625310117094095199,3,-0.0696,-0.8237,0.7759,140,15.686,-38.147,13.5498,163,1.0115,0.6223,-21.6011,-76.7976,27,0.8494,7856,3.9721,-94.8444
rg,1625310117094113033,3,0.0537,-0.9243,0.5066,141,0.061,-97.7783,-16.7847,163,1.0085,0.6183,-22.4045,-77.6063,27,0.8474,8064,3.9721,-91.1365
rg,1625310117094131458,3,0.1021,-0.9402,0.511,142,8.5449,-102.7222,-30.3955,163,1.0055,0.6123,-23.8031,-78.1725,27,0.8444,7906,3.9721,-87.3073
rg,1625310117094149310,3,0.1653,-0.7849,0.5635,143,45.7153,-61.7065,-15.8691,163,1.0065,0.6123,-24.4696,-76.3588,27,0.8394,7880,3.9721,-85.2168
rg,1625310117094166458,3,0.0894,-0.5251,0.4902,144,52.1851,-21.7896,-2.1362,163,1.0075,0.6103,-24.2032,-73.4198,27,0.8434,8069,3.9721,-84.8117
rg,1625310117094183921,3,0.0742,-0.4504,0.5374,145,38.0859,-12.3291,2.3193,163,1.0085,0.6093,-23.6964,-70.7456,27,0.8434,7914,3.9721,-84.8196
rg,1625310117094201402,3,0.0447,-0.4321,0.5273,146,8.3008,6.7749,23.5596,163,1.0125,0.6123,-22.0724,-69.1482,27,0.8424,8136,3.9721,-85.2622
rg,1625310117094218939,3,0.0679,-0.572,0.6311,147,-7.3242,21.8506,32.6538,163,1.0165,0.6143,-19.4858,-68.4054,27,0.8494,8011,3.9721,-86.5312
rg,1625310117094235994,3,0.0784,-0.6729,0.7112,148,-14.0991,48.5229,45.8984,163,1.0235,0.6203,-16.5521,-67.5867,27,0.8524,8195,3.9721,-88.0457
rg,1625310117094253254,3,0.1692,-1.002,0.907,149,22.3389,69.2749,49.3774,163,1.0365,0.6363,-13.3133,-65.4244,27,0.8594,8020,3.9721,-90.0924
rg,1625310117094273142,3,0.2395,-1.2192,1.032,150,74.646,82.3975,43.457,163,1.0525,0.6653,-10.1256,-61.3612,27,0.8704,8256,3.9721,-92.4544
rg,1625310117094291401,3,0.2673,-1.1787,0.9331,151,107.666,89.0503,37.3535,163,1.0675,0.7133,-7.024,-56.3255,27,0.8784,8130,3.9721,-94.8317
rg,1625310117094308531,3,0.1885,-1.0549,0.7393,152,153.2593,123.6572,15.7471,163,1.0795,0.7544,-3.6258,-49.8171,27,0.8844,9262,3.9721,-98.4353
rg,1625310117094325716,3,-0.0815,-1.0288,0.8679,153,149.6582,162.2314,0.3662,163,1.0845,0.7624,1.0744,-43.7373,27,0.8844,9732,3.9721,-103.1377
rg,1625310117094342660,3,-0.4426,-0.9189,0.7896,154,164.2456,133.5449,2.6855,163,1.0895,0.7614,5.9024,-37.5926,27,0.8854,8357,3.9721,-106.5053
rg,1625310117094359512,3,-0.5349,-0.8301,0.7244,155,174.3164,94.5435,16.7236,163,1.0915,0.7514,9.0789,-31.224,27,0.8874,8203,3.9721,-106.6524
rg,1625310117094376586,3,-0.5117,-0.8325,0.6938,156,157.2876,11.9019,40.1001,163,1.0925,0.7324,10.9062,-25.4101,27,0.8824,8385,3.9721,-105.5231
rg,1625310117094393660,3,-0.3142,-0.9109,0.7454,157,135.8643,-52.6733,55.4199,163,1.0955,0.7043,10.0409,-20.4104,27,0.8824,8230,3.9721,-102.7848
rg,1625310117094422104,3,-0.2715,-0.8865,0.77,158,138.6108,-67.688,69.1528,163,1.0955,0.6803,8.4956,-15.3868,27,0.8824,8407,3.9721,-99.4565
rg,1625310117094453029,3,-0.2483,-0.7378,0.792,159,139.2212,-93.1396,74.4629,163,1.0955,0.6503,5.4048,-10.1524,27,0.8814,8289,3.9721,-95.8246
rg,1625310117094470196,3,0.1619,-0.3462,0.6704,160,132.3242,-191.7725,67.5049,163,1.0945,0.6313,-2.4551,-5.4354,27,0.8794,8461,3.9721,-92.2076
rg,1625310117420834435,3,0.3093,-0.5286,0.748,161,33.6304,45.8984,16.6626,163,1.0965,0.5973,-1.2152,-5.1759,27,0.8784,25325,3.9721,-91.6696
rg,1625310117420876675,3,-0.0012,-0.4946,0.8181,162,16.7236,81.7261,1.9531,163,1.0965,0.5893,2.0814,-5.5022,27,0.8794,10236,3.9721,-91.8758
rg,1625310117420907082,3,-0.2261,-0.5386,0.875,163,4.4556,58.2886,1.4038,163,1.0965,0.5843,4.8119,-6.311,27,0.8784,8127,3.9721,-92.0996
rg,1625310117420936823,3,-0.2488,-0.5996,0.9136,164,1.6479,7.0801,12.085,163,1.0945,0.5813,5.4835,-7.2108,27,0.8784,12774,3.9721,-91.739
rg,1625310117420964619,3,-0.1321,-0.6113,0.916,165,7.019,-35.2173,16.0522,163,1.0955,0.5803,4.2505,-7.8682,27,0.8784,8747,3.9721,-91.0117
rg,1625310117420991989,3,0.0322,-0.5613,0.8787,166,9.6436,-49.9878,15.9912,163,1.0965,0.5863,2.1447,-8.3793,27,0.8784,11767,3.9721,-90.1638
rg,1625310117421018322,3,0.0999,-0.5356,0.8333,167,2.1362,-35.8276,9.4604,163,1.0965,0.5933,0.4867,-9.208,27,0.8784,7897,3.9721,-89.6029
rg,1625310117421044525,3,0.0879,-0.5391,0.8669,168,-6.958,-8.8501,5.3101,163,1.0975,0.5993,-0.0372,-10.3524,27,0.8784,8060,3.9721,-89.3387
rg,1625310117421070136,3,0.0701,-0.5522,0.876,169,-11.9629,-0.3662,3.8452,163,1.0985,0.6093,-0.1738,-11.6701,27,0.8784,8093,3.9721,-89.1828
rg,1625310117421110599,3,-0.0029,-0.5574,0.8467,170,-21.4844,7.8125,-3.54,163,1.1005,0.6243,0.1125,-13.3611,27,0.8784,9737,3.9721,-89.3865
rg,1625310117421137321,3,-0.074,-0.5579,0.8018,171,-36.438,5.9204,-5.3101,163,1.1025,0.6373,0.4545,-15.6383,27,0.8784,8127,3.9721,-89.6564
rg,1625310117421162691,3,-0.1589,-0.5654,0.6997,172,-50.9644,-10.0098,-1.8921,163,1.1035,0.6483,0.429,-18.5497,27,0.8804,8433,3.9721,-89.627
rg,1625310117421188598,3,-0.1741,-0.5596,0.6279,173,-52.3071,-22.8271,3.7231,163,1.1025,0.6583,0.0692,-21.5014,27,0.8794,7879,3.9721,-89.1912
rg,1625310117421213598,3,-0.1111,-0.4631,0.5728,174,-54.8096,-47.1802,19.043,163,1.1055,0.6693,-1.0296,-24.3656,27,0.8804,7899,3.9721,-87.7618
rg,1625310117421244153,3,-0.0056,-0.4209,0.5837,175,-80.5054,-60.5469,22.583,163,1.1055,0.6853,-2.7351,-28.08,27,0.8814,7904,3.9721,-85.8727
rg,1625310117421269671,3,0.0254,-0.4246,0.6221,176,-100.4028,-70.4346,15.2588,163,1.1045,0.7043,-4.8163,-32.4502,27,0.8814,8106,3.9721,-83.9092
rg,1625310117421294930,3,0.1074,-0.4663,0.7559,177,-128.1128,-79.0405,12.207,163,1.1065,0.7244,-7.1886,-37.7514,27,0.8834,8013,3.9721,-81.6776
rg,1625310117421319745,3,0.2358,-0.6304,0.8286,178,-145.1416,-78.125,14.5264,163,1.1075,0.7444,-9.3773,-43.8713,27,0.8854,8171,3.9721,-79.1608
rg,1625310117421344467,3,0.3035,-0.6912,0.8452,179,-160.9497,-79.1626,8.667,163,1.1055,0.7614,-11.501,-50.5738,27,0.8824,8037,3.9721,-76.5747
rg,1625310117421369485,3,0.3662,-0.7791,0.8457,180,-173.8892,-69.458,-3.479,163,1.1055,0.7564,-13.4752,-57.6746,27,0.8784,8203,3.9721,-74.4
rg,1625310117421394393,3,0.2437,-0.7173,0.8132,181,-178.4668,-19.6533,-9.7656,163,1.1015,0.6973,-14.1874,-64.2618,27,0.8734,8083,3.9721,-74.0394
rg,1625310117422424586,3,0.2444,-0.6719,0.9062,182,-162.8418,-7.2021,-4.8828,163,1.0915,0.6493,-14.4662,-69.6676,27,0.8674,8247,3.9721,-74.1263
rg,1625310117422461679,3,0.2356,-0.6555,0.8384,183,-133.2397,22.583,22.7661,163,1.0715,0.6133,-13.337,-73.6325,27,0.8634,8321,3.9721,-75.0227
rg,1625310117422493827,3,0.125,-0.8157,0.7722,184,-138.5498,46.3257,20.5078,163,1.0555,0.5953,-11.883,-77.7388,27,0.8564,8277,3.9721,-76.9129
rg,1625310117422543178,3,-0.2664,-1.1953,1.0286,185,-93.3228,38.0859,7.019,163,1.0375,0.5853,-10.5502,-80.0762,27,0.8474,12148,3.9721,-78.6253
rg,1625310117422573437,3,-0.24,-0.9338,0.6035,186,-20.752,-21.9727,14.0381,163,1.0285,0.5873,-9.2987,-80.179,27,0.8404,8396,3.9721,-77.8126
rg,1625310117422601492,3,-0.1187,-0.8184,0.8364,187,-31.7993,-68.6035,12.085,163,1.0235,0.5873,-8.75,-80.5382,27,0.8374,8280,3.9721,-75.2117
rg,1625310117422628585,3,-0.0259,-0.8125,0.7654,188,-28.6255,-87.4634,11.7798,163,1.0205,0.5893,-8.6108,-81.3379,27,0.8344,8389,3.9721,-71.3024
rg,1625310117422655381,3,0.0842,-0.938,0.6511,189,-34.8511,-103.2715,9.9487,163,1.0175,0.5883,-8.7682,-82.2096,27,0.8314,10094,3.9721,-67.5725
rg,1625310117422683917,3,0.1287,-0.9602,0.584,190,-19.165,-81.3599,6.7749,163,1.0165,0.5843,-8.859,-82.5536,27,0.8294,8944,3.9721,-64.4142
rg,1625310117422713047,3,0.2339,-0.8479,0.592,191,-0.1221,-48.3398,14.4653,163,1.0155,0.5833,-8.734,-81.8149,27,0.8264,8892,3.9721,-62.562
rg,1625310117422741713,3,0.2527,-0.7888,0.6223,192,6.1646,-7.3853,12.3901,163,1.0195,0.5803,-8.5459,-80.4892,27,0.8274,8412,3.9721,-62.3681
rg,1625310117805072588,3,0.0928,-0.7139,0.5979,193,26.9165,50.4761,0.6714,163,1.0375,0.5723,-8.0049,-77.8813,27,0.8364,25237,3.9721,-64.5499
rg,1625310117805114291,3,0.0686,-0.6909,0.6831,194,48.2178,73.0591,4.2114,163,1.0565,0.5793,-7.0391,-74.3397,27,0.8564,9095,3.9721,-67.5423
rg,1625310117805135236,3,0.1372,-0.8447,0.8125,195,90.0269,80.2002,3.2959,163,1.0745,0.6263,-5.9398,-69.3123,27,0.8684,14699,3.9721,-70.7038
rg,1625310117805155161,3,0.1616,-0.9854,0.7969,196,114.8071,122.3145,12.7563,163,1.0865,0.6773,-3.6037,-63.6496,27,0.8764,8328,3.9721,-75.0797
rg,1625310117805174383,3,-0.116,-1.1675,0.9307,197,123.0469,176.3306,2.8076,163,1.0925,0.7153,0.2099,-58.0713,27,0.8774,9973,3.9721,-81.1972
rg,1625310117805193457,3,-0.5479,-1.1414,0.8621,198,127.5635,170.166,-9.7656,163,1.0965,0.7264,3.511,-52.2288,27,0.8754,8375,3.9721,-85.8965
rg,1625310117805211809,3,-0.6194,-0.9978,0.866,199,169.2505,78.064,-1.77,163,1.0985,0.7204,5.6547,-44.6863,27,0.8714,9280,3.9721,-85.7094
rg,1625310117805230420,3,-0.3398,-0.7166,0.7141,200,177.7344,-18.1885,46.814,163,1.0995,0.7023,6.8402,-37.3979,27,0.8674,9193,3.9721,-83.7802
rg,1625310117805247790,3,-0.1445,-0.8958,0.6074,201,149.231,-48.2788,51.1475,163,1.0995,0.6753,6.4664,-31.8322,27,0.8624,8745,3.9721,-81.0659
rg,1625310117805264475,3,-0.0947,-0.8872,0.6833,202,148.0713,-39.7339,62.9883,163,1.1015,0.6553,6.2636,-26.3909,27,0.8594,8556,3.9721,-78.1685
rg,1625310117805284086,3,-0.2578,-0.7034,0.71,203,139.5264,-51.3306,80.8105,163,1.1025,0.6283,6.0307,-21.1099,27,0.8604,8779,3.9721,-74.4245
rg,1625310117805302438,3,0.2183,-0.3816,0.7874,204,130.9204,-99.1821,91.2476,163,1.1025,0.6003,0.086,-15.9542,27,0.8594,8954,3.9721,-69.1847
rg,1625310117805320178,3,0.5273,-0.3459,0.7927,205,115.1123,-209.7168,64.209,163,1.1035,0.5853,-7.979,-12.9694,27,0.8574,8827,3.9721,-66.0246
rg,1625310117805337697,3,0.5576,-0.4795,0.594,206,60.5469,20.5078,14.4043,163,1.1025,0.5663,-8.1534,-11.4138,27,0.8584,14655,3.9721,-65.5343
rg,1625310117805355641,3,0.2407,-0.3945,0.7556,207,30.8838,141.2354,17.334,163,1.1035,0.5583,-2.8108,-10.75,27,0.8584,9069,3.9721,-65.86
rg,1625310117805373567,3,-0.1614,-0.53,0.8345,208,3.7842,153.3813,-3.3569,163,1.1025,0.5553,3.6233,-11.4301,28,0.8594,8889,3.9721,-67.1355
rg,1625310117805413048,3,-0.3782,-0.6421,0.9238,209,1.3428,93.9941,2.4414,163,1.1025,0.5553,7.9024,-12.2988,28,0.8594,9100,3.9721,-67.8771
rg,1625310117805431918,3,-0.3831,-0.6538,0.9399,210,15.9912,14.3433,12.146,163,1.1025,0.5573,9.0019,-12.4384,28,0.8584,9655,3.9721,-67.6375
rg,1625310117805450103,3,-0.2249,-0.5801,0.8745,211,27.4658,-44.9219,16.6626,163,1.1025,0.5633,7.537,-11.998,27,0.8594,9291,3.9721,-66.7203
rg,1625310117805521676,3,-0.0564,-0.4783,0.7861,212,22.8271,-69.7632,19.4702,163,1.1035,0.5713,4.8316,-11.6937,27,0.8604,9103,3.9721,-65.4759
rg,1625310117805539787,3,0.0034,-0.4583,0.7739,213,13.2446,-69.458,19.4092,163,1.1045,0.5813,2.0892,-11.8198,27,0.8604,8499,3.9721,-64.2083
rg,1625310117805558028,3,0.0669,-0.4141,0.7114,214,-7.9956,-48.2788,16.7236,163,1.1045,0.5913,0.0901,-12.8273,27,0.8604,8673,3.9721,-63.1654
rg,1625310117805576139,3,0.0435,-0.3931,0.6726,215,-38.147,-26.7334,13.7939,163,1.1055,0.6053,-0.9407,-15.0297,27,0.8614,9174,3.9721,-62.3705
rg,1625310117805603213,3,0.0142,-0.4265,0.5698,216,-60.5469,-28.3813,16.6626,163,1.1085,0.6163,-1.8426,-18.3045,27,0.8634,9112,3.9721,-61.3916
rg,1625310117805624842,3,0.0461,-0.3962,0.5415,217,-80.8716,-21.0571,18.7988,163,1.1085,0.6253,-2.4537,-22.2557,27,0.8664,9123,3.9721,-60.3683
rg,1625310117805663138,3,0.0012,-0.3904,0.6543,218,-114.9292,-7.8125,12.6343,163,1.1095,0.6383,-2.4316,-27.1929,27,0.8684,9301,3.9721,-59.768
rg,1625310117805681971,3,0.0771,-0.4626,0.7568,219,-125.1831,-6.5918,17.8833,163,1.1105,0.6523,-2.072,-32.7298,27,0.8704,9141,3.9721,-58.8672
rg,1625310117805700490,3,0.1064,-0.498,0.7732,220,-146.1182,4.9438,28.5034,163,1.1105,0.6653,-1.4086,-38.6889,27,0.8724,9359,3.9721,-58.0471
rg,1625310117805718360,3,0.0886,-0.6321,0.9072,221,-172.9126,18.4326,12.5732,163,1.1105,0.6813,-0.6544,-45.4176,27,0.8734,8856,3.9721,-58.1662
rg,1625310117805742304,3,-0.0291,-0.8191,1.0034,222,-184.5093,25.8789,2.8687,163,1.1095,0.6973,0.1821,-52.5148,27,0.8754,9011,3.9721,-58.8798
rg,1625310117805760545,3,-0.1465,-0.9248,1.0518,223,-175.5981,-6.1646,2.5635,163,1.1085,0.7194,0.3578,-59.0649,27,0.8744,10049,3.9721,-58.6296
rg,1625310117805779118,3,-0.1509,-0.9395,1.0059,224,-170.2271,-70.4346,-9.7656,163,1.1075,0.7143,-1.0553,-65.2347,27,0.8714,10777,3.9721,-56.3278
rg,1625310118173280900,3,0.0933,-0.9214,0.5823,225,-82.0312,-122.5586,3.0518,163,1.0865,0.6183,-3.0057,-68.3615,27,0.8634,26027,3.9721,-51.772
rg,1625310118173324178,3,0.1372,-0.8235,0.5706,226,-36.499,-58.7158,19.4702,163,1.0695,0.5903,-2.6399,-69.3645,27,0.8564,12238,3.9721,-50.5294
rg,1625310118173344659,3,-0.0933,-0.8079,0.7288,227,-40.7715,-37.1704,11.5967,163,1.0595,0.5793,-2.4219,-70.219,27,0.8504,8163,3.9721,-49.0125
rg,1625310118173364400,3,-0.0876,-0.812,0.6831,228,-37.2314,-56.9458,13.5498,163,1.0525,0.5683,-2.3817,-71.0026,27,0.8444,8037,3.9721,-46.7165
rg,1625310118173383066,3,0.0398,-0.9148,0.6694,229,-33.8135,-70.4346,23.0103,163,1.0465,0.5663,-2.388,-71.7895,27,0.8404,8029,3.9721,-43.7796
rg,1625310118173402455,3,0.1501,-0.9124,0.5881,230,-17.7002,-51.4526,28.1982,163,1.0435,0.5633,-2.1697,-72.0053,27,0.8374,7902,4.0249,-41.4975
rg,1625310118173420936,3,0.177,-0.8462,0.5593,231,2.2583,-7.4463,27.2217,92,1.0435,0.5633,-1.5392,-71.3225,27,0.8384,10036,4.0249,-40.9011
rg,1625310118173440029,3,0.1467,-0.8,0.5549,232,9.2773,13.6108,24.231,92,1.0455,0.5673,-0.7291,-70.3111,27,0.8354,8417,4.0249,-41.1209
rg,1625310118173458473,3,-0.0059,-0.7559,0.6233,233,14.2822,41.3818,12.0239,92,1.0495,0.5693,0.3309,-68.9507,27,0.8354,8027,4.0249,-42.5177
rg,1625310118173476713,3,-0.0681,-0.7583,0.6289,234,24.6582,42.9688,9.6436,92,1.0535,0.5763,1.4658,-67.2502,27,0.8394,7824,4.0249,-43.9647
rg,1625310118173497787,3,-0.0496,-0.7783,0.6633,235,32.6538,39.5508,8.9722,92,1.0615,0.5843,2.4777,-65.2862,27,0.8454,8075,4.0249,-45.2527
rg,1625310118173516213,3,-0.0222,-0.8342,0.7195,236,51.8188,41.1377,7.5684,92,1.0715,0.6053,3.4146,-62.6422,27,0.8544,8067,4.0249,-46.576
rg,1625310118173534065,3,0.0784,-0.9075,0.7722,237,83.5571,47.3633,11.1084,92,1.0835,0.6423,4.4368,-58.8796,27,0.8664,7890,4.0249,-47.997
rg,1625310118173576583,3,0.1082,-0.9363,0.8232,238,100.5249,61.5845,12.146,92,1.0925,0.6943,5.8124,-54.615,27,0.8734,8055,4.0249,-49.7839
rg,1625310118173597360,3,0.0261,-1.1133,0.9045,239,138.0005,106.4453,11.2305,92,1.0985,0.7244,8.4947,-49.3388,27,0.8784,7909,4.0249,-52.8853
rg,1625310118173616657,3,-0.2666,-1.1694,0.9329,240,147.522,115.0513,-1.1597,92,1.1025,0.7314,11.6537,-44.1288,27,0.8804,8192,4.0249,-56.3301
rg,1625310118173634656,3,-0.3933,-0.9961,0.8521,241,180.7861,52.002,8.0566,92,1.1045,0.7274,13.6279,-37.3679,27,0.8784,9580,4.0249,-57.5006
rg,1625310118173652730,3,-0.3108,-0.9041,0.7327,242,185.4248,22.583,26.6113,92,1.1045,0.7143,15.035,-30.4052,27,0.8764,8293,4.0249,-57.2315
rg,1625310118173671749,3,-0.1841,-0.9453,0.6882,243,188.5376,-0.7324,44.0063,92,1.1075,0.6953,15.6223,-23.3848,27,0.8754,8075,4.0249,-55.8468
rg,1625310118173689452,3,-0.116,-0.9583,0.6248,244,185.4858,-25.0244,49.7437,92,1.1085,0.6763,15.0978,-16.6804,27,0.8744,8199,4.0249,-53.9222
rg,1625310118173707137,3,-0.2024,-0.8245,0.615,245,189.8193,-26.9775,45.166,92,1.1095,0.6623,14.4432,-9.9609,27,0.8724,8056,4.0249,-52.2111
rg,1625310118173725248,3,-0.2417,-0.449,0.6248,246,178.6499,-60.73,67.3828,92,1.1055,0.6463,12.5302,-3.0982,27,0.8704,8259,4.0249,-49.4085
rg,1625310118173743970,3,0.283,-0.1216,0.5552,247,144.7754,-161.6211,63.9648,92,1.1095,0.6343,4.7013,2.7205,27,0.8694,8141,4.0249,-46.9536
rg,1625310118173764229,3,0.5212,-0.1245,0.6301,248,108.5205,-166.1377,41.3208,92,1.1095,0.6243,-1.1675,4.9284,27,0.8684,8335,4.0249,-46.6401
rg,1625310118173782951,3,0.5054,-0.4092,0.5459,249,46.814,-0.9155,6.897,92,1.1085,0.6193,-2.5497,5.5716,27,0.8684,8147,4.0249,-46.3507
rg,1625310118173801266,3,0.0569,-0.4036,0.8179,250,5.5542,170.6543,9.7046,92,1.1105,0.6203,4.1295,4.6131,27,0.8694,13035,4.0249,-45.3037
rg,1625310118173819544,3,-0.3293,-0.5288,0.8708,251,-14.1602,150.4517,-6.8359,92,1.1095,0.6193,10.6915,2.7878,27,0.8684,9397,4.0249,-45.2881
rg,1625310118173838840,3,-0.4619,-0.5718,0.9304,252,-17.4561,119.3848,-2.6855,92,1.1095,0.6213,15.9881,0.8905,27,0.8684,8419,4.0249,-45.4767
rg,1625310118173856117,3,-0.521,-0.6174,1.0127,253,-9.7046,33.2031,11.5967,92,1.1105,0.6233,17.6947,-0.5129,27,0.8684,8308,4.0249,-45.3143
rg,1625310118173875154,3,-0.304,-0.6155,1.0168,254,0,-53.5889,17.9443,92,1.1105,0.6283,15.526,-1.4561,27,0.8694,8469,4.0249,-44.8851
rg,1625310118173910932,3,-0.0515,-0.5259,0.887,255,3.2959,-81.3599,20.4468,92,1.1105,0.6343,11.2413,-2.1986,27,0.8694,8774,4.0249,-44.201
rg,1625310118173930746,3,0.053,-0.4897,0.8447,256,0.3052,-100.4028,21.0571,92,1.1115,0.6423,6.5897,-3.088,27,0.8704,9046,4.0249,-43.366
rg,1625310118551180301,3,0.1255,-0.4067,0.7014,257,-49.0723,-17.1509,12.3901,92,1.1135,0.6703,5.3706,-6.0063,27,0.8724,26300,4.0249,-42.9183
rg,1625310118551230411,3,0.0608,-0.4573,0.72,258,-75.0122,4.3945,14.3433,92,1.1145,0.6803,5.2696,-9.9519,27,0.8754,9608,4.0249,-42.4558
rg,1625310118551251559,3,0.0354,-0.5283,0.6438,259,-89.4165,21.0571,24.5361,92,1.1155,0.6913,6.0153,-14.5509,27,0.8784,14300,4.0249,-41.7651
rg,1625310118551271985,3,-0.0288,-0.5205,0.6848,260,-123.3521,41.3208,21.3013,92,1.1165,0.7033,7.6896,-20.3015,27,0.8804,8716,4.0249,-41.5325
rg,1625310118551291725,3,-0.1614,-0.5442,0.6741,261,-145.4468,40.6494,13.855,92,1.1165,0.7133,9.0729,-27.5572,27,0.8824,8451,4.0249,-41.7029
rg,1625310118551311022,3,-0.2231,-0.5503,0.7014,262,-174.6216,19.6533,10.1929,92,1.1165,0.7264,10.1472,-34.9263,27,0.8854,8309,4.0249,-41.841
rg,1625310118551331355,3,-0.2749,-0.6436,0.7131,263,-175.7202,-21.2402,10.6201,92,1.1165,0.7434,9.977,-42.0427,27,0.8884,8895,4.0249,-41.0284
rg,1625310118551379391,3,-0.2061,-0.7612,0.9148,264,-186.0962,-72.2656,7.3853,92,1.1145,0.7594,8.1713,-48.9977,27,0.8894,10154,4.0249,-38.7129
rg,1625310118551399891,3,-0.0837,-0.9563,0.9624,265,-186.1572,-101.6846,6.2256,92,1.1145,0.7694,5.7271,-55.83,27,0.8894,8902,4.0249,-35.2793
rg,1625310118551418539,3,0.1167,-1.1797,1.1167,266,-172.4854,-131.0425,5.9814,92,1.1135,0.7574,2.8685,-61.9852,27,0.8884,8427,4.0249,-30.6008
rg,1625310118551437261,3,0.1489,-1.2432,0.866,267,-144.8364,-139.0381,1.77,92,1.1085,0.6903,0.0332,-66.3663,27,0.8844,9025,4.0249,-25.2216
rg,1625310118551455187,3,0.1899,-1.1294,0.7488,268,-97.0459,-144.104,2.3804,92,1.0905,0.6403,-2.3145,-69.946,27,0.8764,8471,4.0249,-19.8268
rg,1625310118551473965,3,0.1509,-0.8613,0.5078,269,-41.687,-79.2236,7.9956,92,1.0725,0.6153,-3.2998,-71.3401,27,0.8674,8525,4.0249,-16.7409
rg,1625310118551492335,3,0.0356,-0.6936,0.4646,270,-22.0947,-26.4893,11.1694,92,1.0515,0.5933,-2.9622,-71.4364,27,0.8514,8994,4.0249,-15.6413
rg,1625310118551515723,3,-0.1245,-0.6318,0.6011,271,-24.9023,-12.5122,3.6011,92,1.0365,0.5823,-2.5566,-71.4891,27,0.8354,8237,4.0249,-15.1694
rg,1625310118551534631,3,-0.1609,-0.6965,0.7058,272,-31.7383,-39.0625,10.0708,92,1.0305,0.5743,-2.2082,-71.7954,27,0.8264,8201,4.0249,-13.6038
rg,1625310118551553612,3,-0.051,-0.9602,0.7295,273,-28.3203,-83.4961,20.5688,92,1.0235,0.5733,-2.2642,-72.3056,27,0.8204,8001,4.0249,-10.2001
rg,1625310118551572538,3,0.0198,-1.0107,0.6963,274,-29.4189,-89.2944,20.9961,92,1.0175,0.5693,-2.4667,-72.9576,27,0.8154,8180,4.0249,-6.5647
rg,1625310118551591593,3,0.0522,-0.9639,0.5862,275,-19.4092,-55.2368,19.4092,92,1.0135,0.5623,-2.3688,-73.2566,27,0.8114,8066,4.0249,-4.2484
rg,1625310118551626334,3,0.0969,-0.9216,0.634,276,-3.0518,-19.043,26.5503,92,1.0125,0.5583,-1.682,-72.7075,27,0.8064,8650,4.0249,-3.2415
rg,1625310118551647852,3,0.0393,-0.9128,0.6235,277,3.6011,-2.1973,12.5732,92,1.0135,0.5563,-1.2471,-71.8877,27,0.8064,10400,4.0249,-3.0265
rg,1625310118551666315,3,-0.0156,-0.9055,0.5879,278,5.4321,6.0425,6.0425,92,1.0185,0.5573,-0.8939,-70.9255,27,0.8064,8253,4.0249,-3.2995
rg,1625310118551685129,3,-0.012,-0.8044,0.4985,279,18.0664,3.6621,-2.5024,92,1.0235,0.5543,-0.8756,-69.6855,27,0.8074,8109,4.0249,-3.4783
rg,1625310118551703018,3,0.0461,-0.6841,0.5686,280,35.2173,0.1221,-7.6294,92,1.0345,0.5563,-1.242,-67.5066,27,0.8144,8141,4.0249,-3.607
rg,1625310118551721018,3,0.073,-0.7568,0.6555,281,41.4429,11.7798,-4.0283,92,1.0455,0.5663,-0.8468,-64.8253,27,0.8254,8186,4.0249,-4.6371
rg,1625310118551739721,3,0.0862,-0.8574,0.7104,282,56.3965,46.1426,7.9346,92,1.0575,0.5873,0.1122,-61.983,27,0.8384,8335,4.0249,-6.1608
rg,1625310118551757721,3,0.1245,-1.0134,0.7405,283,80.3833,70.8618,12.7563,92,1.0735,0.6303,1.7206,-58.476,27,0.8514,8201,4.0249,-8.379
rg,1625310118551776221,3,0.1655,-1.1238,0.8198,284,112.3047,112.854,8.728,92,1.0865,0.6793,4.1621,-53.9844,27,0.8624,8263,4.0249,-11.9535
rg,1625310118551794406,3,0.061,-1.0967,0.8367,285,125.3662,148.7427,1.709,92,1.0965,0.7254,7.949,-49.4563,27,0.8674,8437,4.0249,-16.6034
rg,1625310118551811943,3,-0.3171,-1.1548,0.8403,286,175.2319,179.3213,0.8545,92,1.0995,0.7404,13.0496,-43.6,27,0.8664,8318,4.0249,-21.8812
rg,1625310118551829591,3,-0.4583,-0.9893,0.79,287,219.8486,106.9946,27.6489,92,1.1045,0.7484,17.2958,-35.636,27,0.8624,8480,4.0249,-23.8738
rg,1625310118551849054,3,-0.3701,-0.7075,0.6567,288,222.9614,30.1514,42.4194,92,1.1065,0.7514,19.3582,-26.9171,27,0.8644,8343,4.0249,-23.129
rg,1625310118900093347,3,-0.283,-0.8171,0.6067,289,175.293,-21.9116,41.8701,92,1.1095,0.7324,19.3762,-19.9117,27,0.8634,26795,4.0249,-21.3385
rg,1625310118900129051,3,-0.2634,-0.4143,0.6711,290,166.0767,-80.8105,57.4951,92,1.1095,0.7214,16.9202,-12.7343,27,0.8634,9409,4.0249,-18.2164
rg,1625310118900149995,3,0.3855,-0.2058,0.7002,291,89.9658,-149.4751,41.687,92,1.1105,0.7123,9.7939,-8.639,27,0.8644,12058,4.0249,-15.4935
rg,1625310118900170402,3,0.4785,-0.5024,0.7803,292,60.3027,-99.6094,26.123,92,1.1105,0.7063,7.6849,-7.5964,27,0.8644,8911,4.0249,-14.9264
rg,1625310118900189846,3,0.1753,-0.5383,0.8694,293,33.3252,92.8345,2.6245,92,1.1105,0.7053,10.7132,-7.2541,27,0.8654,8331,4.0249,-15.4358
rg,1625310118900229161,3,-0.1792,-0.4956,0.875,294,25.3296,112.5488,-8.606,92,1.1105,0.7033,15.1208,-7.3192,27,0.8654,10093,4.0249,-16.5359
rg,1625310118900249513,3,-0.303,-0.5125,0.8918,295,22.9492,97.3511,-9.1553,92,1.1105,0.7043,18.1952,-7.5868,27,0.8654,8537,4.0249,-17.4057
rg,1625310118900267864,3,-0.4377,-0.5381,0.9092,296,17.8833,37.3535,0.3662,92,1.1105,0.7053,19.8895,-7.8036,27,0.8664,8029,4.0249,-17.8761
rg,1625310118900285771,3,-0.3291,-0.5688,0.9294,297,17.9443,-38.3301,8.4839,92,1.1085,0.7073,18.3575,-7.8201,27,0.8654,9431,4.0249,-17.6151
rg,1625310118900303197,3,-0.1628,-0.5168,0.8433,298,23.0713,-77.9419,15.7471,92,1.1105,0.7103,15.065,-7.5236,27,0.8664,8330,4.0249,-16.826
rg,1625310118900320882,3,-0.0146,-0.3867,0.7693,299,22.522,-84.3506,19.043,92,1.1115,0.7143,11.265,-7.3099,27,0.8664,8731,4.0249,-15.7013
rg,1625310118900338197,3,0.0493,-0.356,0.7913,300,6.7749,-83.313,22.2168,92,1.1095,0.7174,7.5354,-7.4879,27,0.8664,8185,4.0249,-14.5028
rg,1625310118900355900,3,0.1663,-0.3643,0.8254,301,-20.3247,-62.0728,19.3481,92,1.1115,0.7234,4.5056,-8.8079,27,0.8664,8298,4.0249,-13.4535
rg,1625310118900373160,3,0.2107,-0.4441,0.8315,302,-46.2646,-26.6113,13.4277,92,1.1125,0.7294,2.8971,-11.3345,27,0.8674,7785,4.0249,-12.7803
rg,1625310118900389752,3,0.1641,-0.4675,0.8125,303,-54.3213,-5.0049,10.498,92,1.1135,0.7384,2.4235,-14.17,27,0.8684,8354,4.0249,-12.3524
rg,1625310118900407122,3,0.063,-0.4519,0.8445,304,-78.186,22.3389,9.0942,92,1.1125,0.7444,3.1366,-17.824,27,0.8674,8583,4.0249,-12.2654
rg,1625310118900424363,3,0.0012,-0.5991,0.8428,305,-100.4639,24.0479,10.437,92,1.1155,0.7494,4.0559,-22.5052,27,0.8674,8413,4.0249,-12.239
rg,1625310118900441122,3,-0.0349,-0.7378,0.8923,306,-119.4458,29.9072,18.8599,92,1.1165,0.7624,5.3653,-27.9122,27,0.8684,8659,4.0249,-12.1109
rg,1625310118900458807,3,-0.0566,-0.8198,0.9182,307,-130.7373,26.3672,13.3667,92,1.1175,0.7804,5.9039,-34.1969,27,0.8704,8491,4.0249,-12.5503
rg,1625310118900475807,3,-0.2585,-0.7729,0.7,308,-137.2681,-12.146,-18.0664,92,1.1155,0.7954,5.4013,-40.211,27,0.8704,8317,4.0249,-12.9011
rg,1625310118900493288,3,-0.4346,-0.4783,0.3762,309,-68.7866,-100.1587,-17.334,92,1.1175,0.8104,3.1057,-43.1613,27,0.8714,8145,4.0249,-10.8038
rg,1625310118900509769,3,-0.0698,-0.1084,0.2197,310,-41.8701,-140.0757,15.625,92,1.1175,0.8264,0.3994,-44.7066,27,0.8774,8021,4.0249,-5.2297
rg,1625310118900541084,3,0.113,0.0579,0.345,311,-107.5439,-155.3345,50.8423,92,1.1145,0.8314,-3.1297,-47.3806,27,0.8794,8537,4.0249,0.6811
rg,1625310118900559843,3,0.3696,-0.1074,0.707,312,-240.4785,-120.0562,34.1187,92,1.1125,0.8164,-5.9637,-56.0708,27,0.8784,8428,4.0249,5.3004
rg,1625310118900577639,3,0.4785,-0.8652,1.1787,313,-333.5571,-45.4712,36.0107,92,1.1105,0.6993,-5.9339,-69.2184,27,0.8764,11921,4.0249,7.5819
rg,1625310118900594121,3,0.4353,-2.0327,1.6287,314,-314.0259,11.5967,45.5933,92,1.0895,0.6283,-4.2248,-81.0203,27,0.8694,8850,4.0249,7.5392
rg,1625310118900610824,3,-0.113,-2.0037,0.3914,315,-72.3877,8.5449,24.7803,92,1.0615,0.5913,-2.9073,-83.7844,27,0.8564,8146,4.0249,7.3144
rg,1625310118900628454,3,0.0308,-1.1685,0.7407,316,13.2446,18.6768,-11.5967,92,1.0435,0.5833,-3.5603,-80.7114,27,0.8444,9574,4.0249,5.6657
rg,1625310118900659064,3,-0.0725,-0.541,0.5476,317,67.0776,30.3345,-34.9121,92,1.0335,0.5763,-4.362,-76.5807,27,0.8364,9002,4.0249,4.1312
rg,1625310118900678749,3,-0.2083,-0.2881,0.3018,318,65.7349,2.9297,-53.5889,92,1.0275,0.5743,-5.2482,-72.7781,27,0.8284,9107,4.0249,3.4127
rg,1625310118900696286,3,-0.3821,-0.2131,0.2812,319,20.813,20.2026,-39.917,92,1.0225,0.5703,-4.7348,-70.9275,27,0.8214,8571,4.0249,2.0979
rg,1625310118900713897,3,-0.3018,-0.4336,0.6311,320,-57.8003,-13.6108,18.8599,92,1.0205,0.5683,-3.2231,-72.0182,27,0.8154,9331,4.0249,2.7421
rg,1625310119256456505,3,0.1782,-1.0125,0.6079,321,2.1973,-63.4766,33.2642,92,1.0215,0.5583,-2.9599,-71.562,27,0.8144,26878,4.0249,5.5408
rg,1625310119256495504,3,0.075,-0.8428,0.6931,322,41.4429,34.3018,22.644,92,1.0305,0.5563,-1.6975,-69.0373,27,0.8224,14589,4.0249,4.5055
rg,1625310119256516448,3,0.0303,-0.8154,0.6997,323,49.6826,28.9307,13.9771,92,1.0365,0.5663,-0.7464,-66.2545,27,0.8314,7790,4.0249,3.6217
rg,1625310119256535689,3,0.0198,-0.8779,0.7412,324,67.9932,27.3438,11.2305,92,1.0445,0.5863,0.1129,-62.878,27,0.8424,7954,4.0249,2.8157
rg,1625310119256554430,3,0.0544,-0.9395,0.7856,325,78.4302,43.5791,11.2915,92,1.0575,0.6153,1.2378,-59.2466,27,0.8534,7956,4.0249,1.5031
rg,1625310119256572948,3,0.1318,-1.0076,0.8484,326,86.1206,48.2178,11.4746,92,1.0745,0.6533,2.3808,-55.4729,27,0.8624,7786,4.0249,0.121
rg,1625310119256590929,3,0.0542,-1.0825,0.8887,327,115.6616,82.3975,-0.3662,92,1.0905,0.6913,4.1483,-50.8046,27,0.8684,8532,4.0249,-2.5307
rg,1625310119256609800,3,-0.1194,-1.1465,0.8132,328,154.7852,90.3931,2.5635,92,1.0985,0.7133,6.6569,-45.0213,27,0.8694,8394,4.0249,-5.1673
rg,1625310119256627799,3,-0.2263,-1.0403,0.6323,329,166.5649,79.2847,6.7139,92,1.1085,0.7254,8.7504,-38.5542,27,0.8694,9023,4.0249,-6.5187
rg,1625310119256645429,3,-0.177,-0.8062,0.6382,330,189.6973,40.8936,16.7236,92,1.1085,0.7294,10.5217,-31.2626,27,0.8674,9933,4.0249,-6.4762
rg,1625310119256663169,3,-0.1543,-0.7385,0.5581,331,191.04,28.1372,36.7432,92,1.1075,0.7244,12.1881,-24.3317,27,0.8654,7795,4.0249,-5.844
rg,1625310119256680262,3,-0.1826,-0.7307,0.5339,332,159.1797,22.522,37.1094,92,1.1105,0.7093,13.6048,-18.8669,27,0.8644,7973,4.0249,-5.0078
rg,1625310119256696984,3,-0.2065,-0.6685,0.6101,333,150.4517,13.1836,31.25,92,1.1115,0.6983,14.6263,-13.5352,27,0.8634,7923,4.0249,-4.1361
rg,1625310119256713595,3,-0.2905,-0.5388,0.697,334,135.1318,-11.2305,36.8652,92,1.1115,0.6883,14.6675,-8.6568,27,0.8624,8202,4.0249,-2.7748
rg,1625310119256730595,3,-0.1287,-0.4854,0.7705,335,115.1733,-66.5283,52.6123,92,1.1115,0.6803,12.0652,-4.4206,27,0.8624,7860,4.0249,-0.5586
rg,1625310119256747872,3,0.0171,-0.4929,0.7854,336,103.9429,-90.3931,49.7437,92,1.1125,0.6703,7.7595,-0.8923,27,0.8634,8042,4.0249,1.3937
rg,1625310119256765872,3,0.3569,-0.4775,0.8032,337,84.2285,-90.332,33.6304,92,1.1125,0.6593,4.3975,1.1701,27,0.8634,10816,4.0249,2.1815
rg,1625310119256784298,3,0.2861,-0.4773,0.7593,338,66.1621,-10.8643,15.625,92,1.1125,0.6563,3.3802,2.7234,27,0.8634,8752,4.0249,2.6979
rg,1625310119256801909,3,0.0679,-0.4192,0.8359,339,41.9922,50.293,7.1411,92,1.1135,0.6543,5.0865,3.3137,27,0.8644,8030,4.0249,3.0228
rg,1625310119256820335,3,-0.1396,-0.4697,0.8977,340,22.3389,61.4624,4.2114,92,1.1135,0.6573,7.6591,3.0762,27,0.8654,8177,4.0249,3.2259
rg,1625310119256837631,3,-0.2336,-0.5276,0.8794,341,13.855,36.0718,6.897,92,1.1135,0.6613,9.3344,2.4275,27,0.8654,8020,4.0249,3.4047
rg,1625310119256876538,3,-0.2703,-0.5183,0.8582,342,15.686,20.874,9.6436,92,1.1135,0.6663,10.4348,1.896,27,0.8654,8203,4.0249,3.6252
rg,1625310119256897075,3,-0.2585,-0.4011,0.8052,343,15.0757,-16.2354,20.5078,92,1.1135,0.6713,10.0288,1.5879,28,0.8664,9214,4.0238,4.2449
rg,1625310119256915316,3,-0.1328,-0.3333,0.7947,344,-7.6904,-46.875,27.6489,92,1.1145,0.6783,8.1211,0.5171,28,0.8664,8737,4.0238,5.1651
rg,1625310119256932741,3,0.0295,-0.3623,0.7908,345,-33.8135,-57.251,30.1514,92,1.1145,0.6853,5.4816,-1.6522,28,0.8674,8159,4.0238,6.2709
rg,1625310119256950556,3,0.0881,-0.3494,0.7812,346,-49.5605,-51.8188,29.8462,92,1.1155,0.6933,2.9058,-4.4169,28,0.8684,8365,4.0238,7.5044
rg,1625310119256968185,3,0.1643,-0.3838,0.7922,347,-84.4727,-24.4751,25.3296,92,1.1155,0.7033,1.5291,-8.5528,27,0.8694,8346,4.0238,8.5991
rg,1625310119256984982,3,0.1465,-0.5339,0.8074,348,-123.4741,5.9814,19.5923,92,1.1175,0.7133,1.5244,-14.3926,27,0.8724,8414,4.0238,9.3133
rg,1625310119257016611,3,0.0867,-0.699,0.7324,349,-121.8262,24.292,15.9302,92,1.1185,0.7244,2.3901,-20.3348,27,0.8734,10424,4.0238,9.6132
rg,1625310119257035759,3,-0.002,-0.7036,0.8135,350,-125.4883,43.7622,7.5684,92,1.1185,0.7364,4.0227,-26.1484,27,0.8774,8464,4.0238,9.1692
rg,1625310119257053740,3,-0.0781,-0.7283,0.825,351,-136.4746,45.6543,-3.6011,92,1.1195,0.7534,5.5412,-32.2633,27,0.8784,8339,4.0238,8.1056
rg,1625310119257072462,3,-0.2942,-0.7117,0.7588,352,-141.1133,21.3623,-24.292,92,1.1175,0.7694,6.0759,-38.427,27,0.8774,8476,4.0238,6.7527
rg,1625310119620463119,3,-0.2002,-0.3765,0.655,353,-182.7393,-131.1035,-2.6855,92,1.1165,0.7654,2.4709,-45.1246,28,0.8684,26431,4.0238,10.1918
rg,1625310119620515063,3,0.2993,-1.0588,1.5024,354,-267.0288,-173.584,34.8511,92,1.1025,0.6273,-1.3158,-55.3088,28,0.8624,15347,4.0238,16.4503
rg,1625310119620536396,3,0.2217,-1.7498,0.926,355,-154.8462,-174.6216,34.5459,92,1.0815,0.5903,-3.9366,-62.0395,28,0.8564,7885,4.0238,23.1463
rg,1625310119620568841,3,0.3728,-1.6309,0.6521,356,-101.1963,-167.7856,35.2783,92,1.0635,0.5773,-5.2116,-64.893,27,0.8474,8052,4.0238,27.7093
rg,1625310119620590340,3,0.4414,-1.2778,0.6621,357,-20.0195,-23.7427,32.5317,92,1.0505,0.5743,-4.8896,-65.7171,27,0.8394,7888,4.0238,29.1115
rg,1625310119620610581,3,0.1699,-0.9392,0.5007,358,21.4233,78.7354,18.1885,92,1.0385,0.5733,-3.0844,-64.5203,27,0.8324,8027,4.0238,26.5328
rg,1625310119620630266,3,-0.0476,-0.6992,0.4856,359,38.8794,67.5049,-28.1372,92,1.0355,0.5693,-2.6475,-62.4404,27,0.8284,8860,4.0238,23.5957
rg,1625310119620649655,3,-0.1704,-0.4951,0.4192,360,54.2603,31.189,-45.5322,92,1.0355,0.5683,-2.9643,-59.6814,27,0.8264,8057,4.0238,21.6192
rg,1625310119620699877,3,-0.2097,-0.429,0.4248,361,46.3257,32.8979,-35.4614,92,1.0355,0.5693,-2.5431,-57.0493,27,0.8234,7891,4.0238,19.7432
rg,1625310119620722895,3,-0.2708,-0.4255,0.5486,362,12.5122,51.3306,0.3052,92,1.0365,0.5723,-0.4933,-55.7953,27,0.8234,8002,4.0238,18.017
rg,1625310119620743135,3,-0.2288,-0.5996,0.6428,363,-6.2866,37.2314,24.5972,92,1.0395,0.5693,1.742,-55.5543,27,0.8244,7816,4.0238,17.336
rg,1625310119620763802,3,-0.2112,-0.6855,0.6665,364,-9.0332,23.1934,24.1699,92,1.0455,0.5683,3.1407,-55.427,27,0.8284,8477,4.0238,17.3817
rg,1625310119620782580,3,-0.136,-0.8252,0.7703,365,8.7891,13.0005,24.231,92,1.0545,0.5713,4.378,-54.7223,27,0.8354,8059,4.0238,17.5279
rg,1625310119620801283,3,-0.0396,-0.9763,0.874,366,53.9551,34.9731,38.3911,92,1.0665,0.5933,6.3312,-52.3159,27,0.8454,9979,4.0238,17.328
rg,1625310119620819968,3,0.0393,-1.1003,0.9587,367,105.7739,67.1387,43.7012,92,1.0815,0.6313,9.0655,-48.078,27,0.8554,8091,4.0238,16.3719
rg,1625310119620838172,3,0.0498,-1.1287,0.9497,368,128.9062,72.3267,37.3535,92,1.0955,0.6843,11.2847,-42.5457,27,0.8644,7997,4.0238,14.7611
rg,1625310119620856394,3,-0.075,-1.1045,0.873,369,167.3584,67.0166,0.6104,92,1.1015,0.7153,13.0344,-36.601,27,0.8674,8533,4.0238,12.9432
rg,1625310119620874764,3,-0.2793,-1.0371,0.7283,370,182.0679,61.4624,-7.1411,92,1.1075,0.7274,14.9196,-30.4524,27,0.8674,8049,4.0238,11.1366
rg,1625310119620893875,3,-0.4089,-0.791,0.6855,371,203.3691,29.3579,13.1226,92,1.1105,0.7294,16.4857,-23.0601,27,0.8674,8052,4.0238,10.9119
rg,1625310119620912134,3,-0.3513,-0.6919,0.5657,372,199.2798,2.5635,30.5786,92,1.1115,0.7234,17.2647,-15.7976,27,0.8674,8200,4.0238,11.8061
rg,1625310119620930282,3,-0.2393,-0.6797,0.5073,373,157.4707,-34.2407,40.8936,92,1.1145,0.7073,16.3944,-10.3309,27,0.8684,8079,4.0238,13.3832
rg,1625310119620949652,3,-0.1621,-0.6362,0.5903,374,134.9487,-41.2598,47.9736,92,1.1145,0.6963,14.9428,-5.7423,27,0.8684,8290,4.0238,15.1969
rg,1625310119620969097,3,-0.126,-0.5095,0.6521,375,127.2583,-48.7671,47.1191,92,1.1145,0.6903,12.8232,-1.2146,27,0.8674,8121,4.0238,16.9741
rg,1625310119621005800,3,0.0188,-0.4497,0.8083,376,91.0034,-73.7915,54.0771,92,1.1155,0.6833,9.3871,1.7518,27,0.8664,8281,4.0238,18.9077
rg,1625310119621029226,3,0.3062,-0.5513,0.9407,377,65.3687,-76.1108,49.8657,92,1.1165,0.6813,5.3626,3.4255,27,0.8674,8154,4.0238,20.5703
rg,1625310119621047466,3,0.3186,-0.6855,0.9199,378,57.9224,-50.293,35.1562,92,1.1175,0.6773,4.0058,4.4026,27,0.8674,8384,4.0238,21.2142
rg,1625310119621066040,3,0.187,-0.6301,0.8696,379,61.7065,23.4985,12.2681,92,1.1155,0.6713,4.3898,5.4527,27,0.8664,8344,4.0238,21.6786
rg,1625310119621085188,3,-0.0762,-0.4861,0.8342,380,57.5562,55.7861,4.2725,92,1.1165,0.6733,6.6207,6.4619,27,0.8674,8386,4.0238,21.9807
rg,1625310119621103318,3,-0.2268,-0.4436,0.866,381,38.208,39.7949,2.1973,92,1.1175,0.6733,8.4839,6.7888,27,0.8684,8414,4.0238,22.1118
rg,1625310119621121447,3,-0.2617,-0.4778,0.8923,382,25.1465,17.4561,2.9907,92,1.1165,0.6813,8.5397,6.1469,27,0.8684,8579,4.0238,22.0517
rg,1625310119621140225,3,-0.2383,-0.6035,0.9224,383,18.9819,-21.9116,8.606,92,1.1155,0.6863,7.8523,5.5185,27,0.8674,8956,4.0238,22.0929
rg,1625310119621158965,3,-0.1562,-0.5229,0.8562,384,30.1514,-53.3447,16.8457,92,1.1165,0.6933,5.7708,5.4201,27,0.8674,8495,4.0238,22.3756
rg,1625310120006800623,3,0.1372,-0.3025,0.7295,385,-18.1885,-72.6929,28.3203,92,1.1185,0.7153,2.2069,3.7095,27,0.8714,25802,4.0238,23.1767
rg,1625310120006857956,3,0.2441,-0.4822,0.7568,386,-71.5942,-19.2871,18.2495,92,1.1195,0.7304,0.7535,-0.4181,27,0.8734,15667,4.0238,23.8577
rg,1625310120006889289,3,0.1746,-0.5168,0.7065,387,-77.8198,5.6152,14.4043,92,1.1195,0.7374,0.5358,-4.8118,27,0.8754,7925,4.0238,24.4234
rg,1625310120006919270,3,0.0764,-0.4951,0.6255,388,-81.7261,36.9873,19.9585,92,1.1205,0.7444,1.8621,-9.2997,27,0.8764,8635,4.0238,25.0303
rg,1625310120006949011,3,0.0151,-0.5259,0.7124,389,-120.8496,60.5469,17.4561,92,1.1205,0.7534,4.2587,-15.1364,27,0.8784,7954,4.0238,25.1699
rg,1625310120006977770,3,-0.0925,-0.7393,0.866,390,-145.6909,65.4297,6.7139,92,1.1215,0.7704,6.5657,-22.7083,27,0.8794,8457,4.0238,24.1597
rg,1625310120007034473,3,-0.1799,-0.7642,0.8979,391,-177.9175,57.251,-10.498,92,1.1205,0.7874,8.4987,-30.6598,27,0.8764,8648,4.0238,22.6598
rg,1625310120007065028,3,-0.4033,-0.6404,0.7268,392,-158.8745,10.0098,-19.7754,92,1.1185,0.8024,8.9364,-37.5141,27,0.8744,9112,4.0238,21.6813
rg,1625310120007092528,3,-0.3352,-0.4116,0.6343,393,-135.3149,-71.4111,0.7324,92,1.1185,0.8064,7.3653,-42.4715,27,0.8734,8753,4.0238,23.564
rg,1625310120007119509,3,-0.1382,-0.3962,0.7439,394,-149.6582,-82.7637,16.3574,92,1.1175,0.7834,5.5905,-47.5494,27,0.8724,8515,4.0238,26.4567
rg,1625310120007145139,3,0.0247,-0.6753,1.0566,395,-187.9272,-84.7778,23.4985,92,1.1125,0.7083,4.0066,-55.4786,27,0.8704,8793,4.0238,30.2468
rg,1625310120007172046,3,0.113,-0.865,1.1189,396,-239.9292,-102.6001,38.3911,92,1.0965,0.6503,2.8842,-64.3208,27,0.8684,9030,4.0238,34.6247
rg,1625310120007199324,3,0.1086,-1.5916,1.2136,397,-206.2378,-94.7876,32.3486,92,1.0765,0.6183,2.4511,-71.8848,27,0.8634,8536,4.0238,38.658
rg,1625310120007225934,3,0.1001,-1.5845,0.6165,398,-79.7119,-112.0605,23.6816,92,1.0575,0.6003,1.8571,-74.7518,27,0.8544,8527,4.0238,43.2351
rg,1625310120007253027,3,0.1248,-1.073,0.6411,399,-10.437,-41.3208,5.9814,92,1.0375,0.5923,1.3595,-74.4986,27,0.8494,7957,4.0238,44.9121
rg,1625310120007281230,3,0.0889,-0.8577,0.5974,400,11.2305,-10.9863,6.0425,92,1.0245,0.5863,1.3385,-73.1116,27,0.8414,8913,4.0238,45.4213
rg,1625310120007308249,3,-0.0369,-0.5691,0.5308,401,24.7803,-1.6479,-14.7705,92,1.0165,0.5843,0.8169,-71.1097,27,0.8364,8382,4.0238,45.3295
rg,1625310120007334452,3,-0.124,-0.562,0.4456,402,19.165,-9.5825,-16.1133,92,1.0155,0.5793,0.4408,-69.5791,27,0.8344,8571,4.0238,45.4928
rg,1625310120007360785,3,-0.1731,-0.6619,0.5303,403,-1.6479,3.7842,0.9766,92,1.0135,0.5753,0.9681,-68.9333,27,0.8324,10576,4.0238,45.3742
rg,1625310120007387452,3,-0.0962,-0.7087,0.6008,404,8.1177,4.8218,24.7803,92,1.0165,0.5743,2.1556,-67.844,27,0.8324,13226,4.0238,45.5723
rg,1625310120007413211,3,-0.0542,-0.665,0.6267,405,15.2588,8.1177,25.6348,92,1.0205,0.5723,3.2773,-66.3952,27,0.8354,8998,4.0238,45.7011
rg,1625310120007458192,3,-0.0469,-0.6582,0.6582,406,21.7896,19.165,26.7944,92,1.0265,0.5723,4.5571,-64.6975,27,0.8394,8094,4.0238,45.4908
rg,1625310120007498655,3,-0.0547,-0.7319,0.7654,407,36.8042,41.687,26.2451,92,1.0365,0.5803,6.1762,-62.4938,27,0.8494,8713,4.0238,44.52
rg,1625310120007527432,3,-0.0452,-0.9141,0.8618,408,66.7725,51.0864,23.6816,92,1.0525,0.6083,7.8297,-59.355,27,0.8614,9257,4.0238,43.2438
rg,1625310120007568487,3,0.0774,-1.0713,0.9678,409,94.3604,62.8662,21.3013,92,1.0725,0.6583,9.4636,-55.3751,27,0.8724,9829,4.0238,41.6099
rg,1625310120007597728,3,-0.0488,-1.1216,1.0361,410,134.0942,67.1387,-2.5635,92,1.0935,0.7113,10.6938,-50.0826,27,0.8784,9342,4.0238,39.4158
rg,1625310120007624765,3,-0.251,-1.1423,0.8091,411,162.1704,67.3218,-7.6294,92,1.1015,0.7314,12.2672,-44.2323,27,0.8794,9217,4.0238,37.1555
rg,1625310120007654413,3,-0.3645,-1.0256,0.8459,412,181.0913,26.4282,3.7231,92,1.1065,0.7394,13.2822,-37.3797,27,0.8824,9347,4.0238,36.5195
rg,1625310120007683172,3,-0.1799,-0.8145,0.657,413,191.7114,-5.0049,22.644,92,1.1095,0.7464,13.3123,-29.6757,27,0.8844,9264,4.0238,37.956
rg,1625310120007722042,3,-0.1646,-0.7793,0.5872,414,195.1904,-15.8691,39.4287,92,1.1115,0.7384,13.4763,-22.8885,27,0.8844,9400,4.0238,39.6586
rg,1625310120007752875,3,-0.2273,-0.7344,0.594,415,168.0298,-19.3481,46.2036,92,1.1125,0.7244,13.4503,-16.7777,27,0.8834,9265,4.0238,41.4679
rg,1625310120007967577,3,-0.2744,-0.5273,0.6829,416,147.8271,-46.5698,55.1758,92,1.1115,0.7083,12.3855,-11.0792,27,0.8824,9085,4.0238,43.9498
rg,1625310120364930529,3,0.4873,-0.4053,0.696,417,57.312,-60.9131,21.6064,92,1.1145,0.6853,8.6099,-9.2066,27,0.8834,26422,4.0238,45.0858
rg,1625310120365063620,3,0.0403,-0.4346,0.844,418,16.7236,107.666,11.6577,92,1.1145,0.6753,12.4991,-9.2939,27,0.8834,14312,4.0238,44.74
rg,1625310120365088805,3,-0.2654,-0.5212,0.9758,419,-3.9062,105.5298,2.9297,92,1.1145,0.6743,16.7209,-10.3396,27,0.8834,13486,4.0238,43.9527
rg,1625310120365112250,3,-0.4001,-0.6694,0.9941,420,-7.5684,39.6729,5.0049,92,1.1145,0.6783,18.4244,-11.5754,27,0.8824,8120,4.0238,43.5784
rg,1625310120365195953,3,-0.3618,-0.6667,0.9492,421,13.4888,-23.1323,12.5122,92,1.1145,0.6833,17.6308,-11.7221,27,0.8834,7928,4.0238,44.0023
rg,1625310120365219193,3,-0.2727,-0.5608,0.8955,422,21.5454,-47.3633,17.2119,92,1.1145,0.6863,15.832,-11.3409,27,0.8834,7907,4.0238,44.8603
rg,1625310120365238749,3,-0.083,-0.3975,0.7681,423,16.6016,-78.9185,19.8364,92,1.1145,0.6913,12.5139,-10.9677,27,0.8834,7984,4.0238,46.1171
rg,1625310120365258545,3,0.1001,-0.3572,0.7603,424,-10.8643,-76.2939,22.1558,92,1.1155,0.7003,8.8396,-11.7583,27,0.8844,11176,4.0238,47.4808
rg,1625310120365278230,3,0.1829,-0.4231,0.7668,425,-39.5508,-32.4707,15.9302,92,1.1165,0.7103,6.9315,-13.8642,28,0.8844,8021,4.0238,48.3116
rg,1625310120365297933,3,0.0684,-0.491,0.7458,426,-64.0259,18.4937,8.606,92,1.1175,0.7204,7.3001,-17.1549,28,0.8854,7927,4.0238,48.3657
rg,1625310120365317563,3,0.0037,-0.5115,0.7839,427,-74.8291,32.1655,7.8735,92,1.1185,0.7274,8.5191,-20.8329,28,0.8864,8032,4.0238,48.158
rg,1625310120365336063,3,-0.1321,-0.5796,0.7458,428,-85.5713,42.4194,9.0332,92,1.1185,0.7374,10.2019,-24.9579,28,0.8874,8657,4.0238,47.7258
rg,1625310120365354359,3,-0.1895,-0.6316,0.6953,429,-87.5244,27.71,14.0381,92,1.1185,0.7464,11.4975,-29.1139,28,0.8884,8310,4.0238,47.5989
rg,1625310120365372840,3,-0.1882,-0.6328,0.7446,430,-104.0039,12.7563,11.7188,92,1.1195,0.7594,12.1531,-33.6671,28,0.8914,8647,4.0238,47.6479
rg,1625310120365391303,3,-0.1765,-0.6404,0.7632,431,-114.9292,-2.4414,6.958,92,1.1205,0.7744,11.4411,-38.6733,28,0.8934,8307,4.0238,48.3251
rg,1625310120365410895,3,-0.1765,-0.6086,0.7344,432,-125.6714,-41.1987,5.3711,92,1.1185,0.7904,10.307,-43.4734,28,0.8934,8080,4.0238,49.5898
rg,1625310120365429895,3,-0.1414,-0.4893,0.5659,433,-135.1929,-73.1812,5.127,92,1.1195,0.8034,8.4469,-48.3791,27,0.8914,8200,4.0238,51.8879
rg,1625310120365448210,3,-0.0872,-0.4351,0.6548,434,-166.5649,-82.9468,-2.3804,92,1.1195,0.8084,6.2429,-54.1047,27,0.8944,8212,4.0238,54.5287
rg,1625310120365466876,3,-0.0059,-0.4792,0.7222,435,-175.9033,-85.3271,0.6714,92,1.1165,0.7994,4.2159,-60.0454,27,0.8914,8289,4.0238,57.5196
rg,1625310120365498543,3,0.0166,-0.6221,0.8792,436,-201.1108,-67.8101,5.7983,92,1.1175,0.7574,3.0436,-66.9412,27,0.8884,8154,4.0238,60.1352
rg,1625310120365520191,3,0.2595,-0.9856,1.1885,437,-202.0874,-77.8198,22.2778,92,1.1145,0.6883,2.3721,-73.8118,27,0.8874,9312,4.0238,63.4466
rg,1625310120365538709,3,-0.0154,-1.5383,1.0808,438,-135.8643,-58.5938,16.2964,92,1.1065,0.6403,2.3798,-78.3821,27,0.8864,10105,4.0238,65.9116
rg,1625310120365558598,3,-0.0627,-1.2183,0.7041,439,-55.3589,-49.7437,17.5781,92,1.0895,0.6133,2.7108,-79.7678,27,0.8804,8574,4.0238,68.0297
rg,1625310120365580653,3,-0.0432,-1.0823,0.8291,440,-46.814,-40.7715,20.0195,92,1.0745,0.5993,3.2543,-80.4281,27,0.8714,8528,4.0238,69.8276
rg,1625310120365599487,3,-0.092,-0.843,0.6785,441,-28.9917,-44.0674,14.1602,92,1.0595,0.5913,3.6036,-80.3507,27,0.8624,8327,4.0238,71.7269
rg,1625310120365624023,3,-0.082,-0.8667,0.571,442,-21.9116,-73.0591,6.7139,92,1.0505,0.5893,3.431,-80.1156,27,0.8524,8499,4.0238,74.7171
rg,1625310120365645208,3,0.0073,-0.8372,0.4609,443,-8.5449,-76.7212,-0.9766,92,1.0415,0.5853,2.716,-79.5393,27,0.8514,8455,4.0238,77.7805
rg,1625310120365666634,3,0.0479,-0.7515,0.4421,444,6.1646,-71.2891,-1.8921,92,1.0365,0.5793,1.881,-78.3872,27,0.8484,8483,4.0238,80.6031
rg,1625310120365687782,3,0.158,-0.6057,0.4868,445,21.1792,-38.6353,10.1929,92,1.0335,0.5773,1.4299,-76.4623,27,0.8454,8383,4.0238,82.2239
rg,1625310120365712115,3,0.1113,-0.5681,0.4983,446,14.0381,22.7661,16.1743,92,1.0345,0.5743,1.8959,-74.8612,27,0.8454,8574,4.0238,81.5189
rg,1625310120365734467,3,-0.0374,-0.6655,0.5745,447,9.6436,68.6035,14.4653,92,1.0395,0.5723,3.2143,-73.5867,27,0.8484,8475,4.0238,79.0631
rg,1625310120365754282,3,-0.1199,-0.7346,0.6328,448,15.564,83.7402,11.2305,92,1.0465,0.5723,4.7751,-72.2333,27,0.8534,8663,4.0238,76.0383
rg,1625310120761119545,3,-0.0156,-0.9136,0.936,449,112.1826,51.0254,20.752,92,1.0865,0.6423,6.1102,-66.8272,27,0.8814,25529,4.0238,74.4898
rg,1625310120761188729,3,-0.0867,-1.1375,0.9072,450,117.0654,68.5425,-16.2964,92,1.1045,0.7294,6.597,-61.8416,27,0.8914,14769,4.0238,71.7825
rg,1625310120761221248,3,-0.3638,-1.2295,0.8569,451,148.8647,66.3452,-25.6348,92,1.1085,0.7474,7.3555,-55.9713,27,0.8924,8104,4.0238,69.0096
rg,1625310120761291525,3,-0.4165,-1.0747,0.8496,452,171.3257,50.6592,-9.5825,92,1.1115,0.7554,8.6422,-48.1916,27,0.8924,8817,4.0238,68.3948
rg,1625310120761324506,3,-0.3518,-0.9392,0.8315,453,206.665,4.0283,27.3438,86,1.1135,0.7564,9.7886,-39.8473,27,0.8924,8342,4.0271,69.0954
rg,1625310120761354172,3,-0.2593,-0.9082,0.6084,454,205.7495,-24.0479,49.3774,86,1.1155,0.7544,10.3282,-31.8869,27,0.8914,9034,4.0271,71.1928
rg,1625310120761383987,3,-0.2068,-0.8372,0.5459,455,193.2373,-49.5605,64.8804,86,1.1165,0.7484,9.9153,-24.5585,27,0.8904,10316,4.0271,74.2979
rg,1625310120761414802,3,-0.0706,-0.3367,0.5396,456,181.9458,-102.8442,70.1904,86,1.1155,0.7434,6.9488,-16.9973,27,0.8884,9454,4.0271,78.3605
rg,1625310120761443209,3,0.377,-0.0286,0.5957,457,123.4131,-157.2266,65.5518,86,1.1175,0.7364,0.1,-11.3588,27,0.8884,8399,4.0271,82.4276
rg,1625310120761471523,3,0.6003,-0.2795,0.5835,458,40.2832,-58.7158,29.9683,86,1.1185,0.7324,-3.5191,-10.2056,27,0.8894,8886,4.0271,84.0282
rg,1625310120761500282,3,0.4597,-0.4407,0.5969,459,12.8174,37.7197,19.2871,86,1.1185,0.7324,0.4327,-10.9576,27,0.8894,8427,4.0271,83.8893
rg,1625310120761529727,3,0.1201,-0.45,0.8496,460,-6.7139,152.5269,13.6108,86,1.1175,0.7344,6.1972,-11.9169,27,0.8884,8993,4.0271,83.2061
rg,1625310120761558152,3,-0.2976,-0.532,0.9268,461,-21.6064,154.1748,-5.127,86,1.1175,0.7374,12.514,-13.7157,27,0.8884,8820,4.0271,81.5352
rg,1625310120761585245,3,-0.5225,-0.6768,1.0376,462,-26.1841,74.7681,-1.8921,86,1.1185,0.7424,15.8024,-15.6829,27,0.8884,9000,4.0271,80.5116
rg,1625310120761613911,3,-0.4148,-0.7405,1.0293,463,-10.6812,-22.2168,9.9487,86,1.1195,0.7484,15.1843,-16.6968,27,0.8894,8874,4.0271,80.9555
rg,1625310120761652300,3,-0.176,-0.5994,0.8845,464,0.7324,-53.2227,13.1226,86,1.1195,0.7564,12.284,-16.688,27,0.8904,8554,4.0271,82.3591
rg,1625310120761683503,3,-0.064,-0.5193,0.8162,465,9.5215,-86.4868,16.2354,86,1.1175,0.7614,8.8496,-16.6281,27,0.8904,8556,4.0271,83.8695
rg,1625310120761712577,3,0.1135,-0.4287,0.7173,466,-7.1411,-84.7778,14.7095,86,1.1185,0.7674,5.1519,-17.2738,27,0.8914,8604,4.0271,85.3521
rg,1625310120761765151,3,0.1401,-0.4402,0.6853,467,-37.4146,-36.9873,8.3008,86,1.1205,0.7744,3.279,-19.2989,27,0.8924,9333,4.0271,86.0909
rg,1625310120761798058,3,0.0452,-0.5107,0.6995,468,-60.8521,0.3052,7.3242,86,1.1205,0.7804,3.151,-22.3612,27,0.8964,8627,4.0271,86.3292
rg,1625310120761827965,3,-0.0559,-0.5293,0.6409,469,-72.1436,11.1084,10.0708,86,1.1225,0.7904,3.9354,-26.1119,27,0.8984,14443,4.0271,86.5367
rg,1625310120761857224,3,-0.0779,-0.5374,0.688,470,-85.5103,18.0664,14.2212,86,1.1225,0.7984,4.8844,-29.9682,27,0.9004,9021,4.0271,86.6646
rg,1625310120763330101,3,-0.1013,-0.6184,0.7759,471,-105.7739,25.5127,18.7988,86,1.1225,0.8154,6.1807,-34.5065,27,0.9024,9212,4.0271,86.7244
rg,1625310120763380527,3,-0.1914,-0.752,0.7913,472,-125.8545,15.5029,7.3853,86,1.1225,0.8304,6.9983,-39.885,27,0.9024,8680,4.0271,86.5385
rg,1625310120763413786,3,-0.3071,-0.7046,0.7571,473,-133.9111,-22.8271,0.4883,86,1.1215,0.8434,6.7171,-45.2572,27,0.9014,11562,4.0271,87.1458
rg,1625310120763447878,3,-0.2756,-0.6799,0.8137,474,-156.4941,-88.9893,0.5493,86,1.1185,0.8084,4.6867,-51.015,27,0.8974,9229,4.0271,89.8368
rg,1625310120763482600,3,-0.1946,-0.6584,0.8987,475,-182.312,-138.5498,-2.7466,86,1.1095,0.7143,1.6024,-57.4634,27,0.8894,8055,4.0271,94.3104
rg,1625310120763558785,3,-0.0435,-0.6558,0.8503,476,-166.1987,-176.3306,19.6533,86,1.0835,0.6493,-1.136,-63.2878,27,0.8864,9163,4.0271,100.8412
rg,1625310120763590970,3,0.3772,-0.8357,0.8135,477,-130.6152,-183.6548,55.603,86,1.0585,0.6243,-2.7634,-68.0989,27,0.8824,9018,4.0271,108.4537
rg,1625310120763622081,3,0.5496,-0.9028,0.7795,478,-128.9062,-144.4702,62.561,86,1.0345,0.6063,-3.169,-73.2017,27,0.8754,8826,4.0271,114.7489
rg,1625310120763656747,3,0.4324,-1.043,0.5774,479,-95.5811,-17.9443,19.8975,86,1.0165,0.5963,-3.2442,-76.6033,27,0.8644,9204,4.0271,115.64
rg,1625310120763690154,3,0.0793,-1.0576,0.7705,480,-32.1655,63.3545,-3.8452,86,1.0095,0.5943,-2.8407,-76.8643,27,0.8564,8958,4.0271,113.0829
rg,1625310121108582436,3,-0.4382,-0.616,0.5918,481,-2.7466,-7.9956,-5.7983,86,1.0105,0.5823,-2.0172,-75.9382,27,0.8474,26031,4.0271,113.3011
rg,1625310121108621547,3,-0.2351,-0.7014,0.6208,482,-23.0103,-87.2192,5.3101,86,1.0145,0.5783,-2.0237,-75.948,27,0.8474,9666,4.0271,116.7058
rg,1625310121108642288,3,-0.0039,-0.7854,0.6621,483,-17.6392,-103.7598,11.7188,86,1.0245,0.5813,-2.4856,-75.8003,27,0.8524,12281,4.0271,120.8126
rg,1625310121108662343,3,0.2241,-0.7822,0.6641,484,3.54,-85.3271,8.9722,86,1.0385,0.5943,-3.2808,-73.7397,27,0.8634,11545,4.0271,123.0555
rg,1625310121108681676,3,0.27,-0.8447,0.7051,485,52.063,-16.5405,11.7188,86,1.0545,0.6233,-3.4574,-70.8043,27,0.8764,7852,4.0271,123.7646
rg,1625310121108701139,3,0.2952,-1.0942,0.8757,486,73.4253,65.1855,16.7236,86,1.0725,0.6733,-2.2466,-67.0045,27,0.8874,8091,4.0271,121.5082
rg,1625310121108742954,3,0.2637,-1.1052,0.9436,487,85.2051,85.3271,5.3101,86,1.0895,0.7344,-0.7814,-62.8377,28,0.8934,7922,4.0271,118.4704
rg,1625310121108762916,3,-0.0068,-1.1426,0.9219,488,115.1733,112.0605,-19.165,86,1.1005,0.7824,0.7952,-57.7664,28,0.8964,7971,4.0271,114.1944
rg,1625310121108783361,3,-0.5083,-1.1304,0.7478,489,142.4561,125.1221,-16.1743,86,1.1075,0.8004,3.5949,-51.3792,28,0.8944,9972,4.0271,110.8296
rg,1625310121108801787,3,-0.4893,-1.0083,0.7964,490,175.0488,53.0396,10.0098,86,1.1105,0.7974,5.9706,-44.5071,27,0.8924,8511,4.0271,109.5588
rg,1625310121108819509,3,-0.2424,-0.8179,0.7542,491,180.9692,-20.2637,37.6587,86,1.1125,0.7884,6.5932,-37.2093,27,0.8914,8169,4.0271,111.2405
rg,1625310121108837546,3,-0.0439,-0.9072,0.6179,492,175.5981,-35.8887,53.894,86,1.1135,0.7794,6.4565,-30.6329,27,0.8904,7971,4.0271,113.7508
rg,1625310121108854990,3,0.0061,-0.8579,0.5481,493,173.2178,-41.748,51.2695,86,1.1145,0.7724,5.6954,-24.4773,27,0.8884,8145,4.0271,116.2239
rg,1625310121108873897,3,-0.0288,-0.4116,0.6016,494,154.6631,-45.0439,42.0532,86,1.1155,0.7614,4.5113,-18.5024,27,0.8874,8124,4.0271,118.4104
rg,1625310121108891138,3,0.2134,-0.1794,0.584,495,102.6611,-72.6929,44.9219,86,1.1155,0.7524,1.3273,-14.2256,27,0.8824,9382,4.0271,120.9254
rg,1625310121108909026,3,0.3311,-0.4229,0.7107,496,65.3076,-55.3589,36.0718,86,1.1155,0.7464,0.074,-13.3814,27,0.8864,8085,4.0271,122.0552
rg,1625310121108927304,3,0.2356,-0.5847,0.7832,497,20.0195,35.0952,17.0898,86,1.1145,0.7424,1.0597,-13.4503,27,0.8864,8251,4.0271,122.392
rg,1625310121108945267,3,-0.0427,-0.6467,0.8647,498,23.3154,79.834,7.5684,86,1.1175,0.7424,4.2749,-13.4372,27,0.8884,8152,4.0271,121.9245
rg,1625310121108963100,3,-0.2637,-0.6165,0.8958,499,26.062,59.9976,3.54,86,1.1175,0.7424,7.0126,-13.2332,27,0.8874,8351,4.0271,121.4462
rg,1625310121108981026,3,-0.3103,-0.6062,0.8972,500,25.5127,34.3018,5.3101,86,1.1155,0.7424,8.7618,-13.0094,27,0.8874,8126,4.0271,121.2444
rg,1625310121108998118,3,-0.2456,-0.6392,0.8511,501,25.4517,-24.9023,10.376,86,1.1135,0.7444,8.0814,-12.8041,27,0.8864,8342,4.0271,121.7407
rg,1625310121109015433,3,-0.0886,-0.5447,0.7769,502,32.6538,-49.8047,16.6016,86,1.1175,0.7454,6.2011,-12.2245,27,0.8884,8175,4.0271,122.7081
rg,1625310121109032748,3,-0.0222,-0.4619,0.7305,503,29.7241,-53.4668,19.2261,86,1.1185,0.7464,4.0045,-11.9388,27,0.8894,8440,4.0271,123.7818
rg,1625310121109064933,3,0.0964,-0.3867,0.7056,504,8.3618,-40.9546,17.8223,86,1.1165,0.7454,2.1371,-12.197,27,0.8874,8262,4.0271,124.7787
rg,1625310121109084970,3,0.1191,-0.3816,0.7026,505,-21.7896,-0.5493,17.0288,86,1.1185,0.7464,1.8536,-13.6686,27,0.8854,8435,4.0271,125.4292
rg,1625310121109252876,3,0.0439,-0.4338,0.772,506,-52.2461,34.1187,14.7095,86,1.1195,0.7514,3.1352,-16.3504,28,0.8894,8338,4.0271,125.6273
rg,1625310121109278190,3,-0.0071,-0.491,0.8042,507,-66.3452,42.6636,11.6577,86,1.1195,0.7564,4.791,-19.5867,28,0.8914,8499,4.0271,125.5128
rg,1625310121109300005,3,-0.1121,-0.5972,0.8271,508,-86.3037,46.3867,6.8359,86,1.1205,0.7614,6.6712,-23.6982,28,0.8924,8323,4.0271,125.0233
rg,1625310121109321579,3,-0.2209,-0.6733,0.8159,509,-93.3838,34.4238,3.2349,86,1.1205,0.7664,8.168,-28.0896,28,0.8944,10501,4.0271,124.4539
rg,1625310121109342875,3,-0.2603,-0.7798,0.7957,510,-86.792,-5.127,14.2212,86,1.1215,0.7744,8.4805,-32.0845,28,0.8924,8364,4.0271,124.9587
rg,1625310121109362097,3,-0.2029,-0.7793,0.7581,511,-97.5952,-49.3774,1.4038,86,1.1215,0.7864,6.9747,-36.3443,28,0.8984,8611,4.0271,126.0472
rg,1625310121109381560,3,-0.176,-0.7214,0.7227,512,-98.8159,-82.5806,-9.0942,86,1.1215,0.7994,4.2864,-40.438,28,0.9004,8437,4.0271,127.7823
rg,1625310121486039524,3,0.2454,-0.3745,0.563,513,-127.5635,-104.4922,14.7705,86,1.1205,0.8344,0.7111,-45.1185,27,0.9044,26328,4.0271,131.1143
rg,1625310121486090449,3,0.2744,-0.792,0.9602,514,-184.9976,-33.5693,18.1885,86,1.1195,0.8354,0.1388,-53.4767,28,0.8974,11721,4.0271,131.83
rg,1625310121486111579,3,-0.0239,-1.3936,1.4021,515,-211.2427,-12.146,-3.54,86,1.1175,0.7374,-0.2165,-61.5439,28,0.8904,10726,4.0271,132.1633
rg,1625310121486132115,3,-0.1377,-1.4509,0.928,516,-149.9023,-35.4004,3.8452,86,1.1095,0.6393,-0.5382,-65.093,28,0.8784,8723,4.0271,134.5846
rg,1625310121486151467,3,-0.0908,-1.1223,0.7864,517,-72.937,-57.8003,20.2026,86,1.0875,0.5983,-0.3587,-66.9705,28,0.8664,8704,4.0271,136.5321
rg,1625310121486170374,3,-0.0046,-0.9783,0.6113,518,-32.3486,-41.2598,16.9067,86,1.0725,0.5833,-0.3386,-67.9045,28,0.8574,8337,4.0271,138.313
rg,1625310121486189911,3,0.1062,-0.8071,0.4375,519,6.7749,-52.063,-10.6201,86,1.0625,0.5763,-1.7617,-67.4012,28,0.8494,8911,4.0271,140.0779
rg,1625310121486210374,3,-0.0139,-0.636,0.4194,520,26.4282,-11.6577,-24.1089,86,1.0565,0.5753,-2.7176,-65.9068,28,0.8444,9398,4.0271,140.1154
rg,1625310121486229355,3,-0.1721,-0.3823,0.3889,521,35.7056,13.916,-18.4937,86,1.0545,0.5773,-2.371,-63.6399,28,0.8404,8560,4.0271,139.2768
rg,1625310121486247837,3,-0.1643,-0.2996,0.4753,522,6.8359,16.0522,18.7988,86,1.0545,0.5773,-0.6987,-62.2111,27,0.8394,8765,4.0271,139.0076
rg,1625310121486267522,3,-0.0769,-0.4412,0.6968,523,-26.6113,10.0708,34.9731,86,1.0555,0.5803,0.9571,-62.1342,27,0.8394,8533,4.0271,139.287
rg,1625310121486286318,3,0.001,-1.0059,0.9438,524,-39.856,-3.8452,32.1655,86,1.0595,0.5893,1.989,-63.093,27,0.8394,8489,4.0271,140.0228
rg,1625310121486305559,3,-0.0413,-1.1082,0.7439,525,2.5024,6.8359,15.9302,86,1.0675,0.6003,2.6701,-62.7016,27,0.8434,8187,4.0271,140.0777
rg,1625310121486357503,3,-0.0898,-0.9888,0.8748,526,43.0908,38.3911,19.8975,86,1.0775,0.6213,4.1435,-60.4681,27,0.8514,10780,4.0271,139.1281
rg,1625310121486381410,3,-0.0537,-0.8096,0.832,527,75.5615,30.8228,32.3486,86,1.0905,0.6623,5.8271,-56.8342,27,0.8614,8888,4.0271,138.7875
rg,1625310121486413410,3,0.0808,-0.9304,0.8601,528,85.8154,9.1553,26.6113,86,1.1015,0.7163,6.5329,-52.9849,27,0.8724,8681,4.0271,139.1248
rg,1625310121486434447,3,0.0222,-1.1052,0.9182,529,84.0454,10.2539,15.0757,86,1.1065,0.7724,6.7494,-49.2994,27,0.8784,8615,4.0271,138.6099
rg,1625310121486454650,3,-0.0002,-1.1572,0.8884,530,114.6851,15.8691,2.1973,86,1.1095,0.7974,6.9763,-44.8904,27,0.8814,8451,4.0271,138.1761
rg,1625310121486474798,3,-0.1265,-1.1414,0.6907,531,163.269,30.7007,9.0942,86,1.1115,0.8074,8.0741,-38.9927,27,0.8814,8656,4.0271,137.5505
rg,1625310121486493594,3,-0.1731,-0.9707,0.7212,532,204.5288,24.9634,25.9399,86,1.1165,0.8054,9.4968,-31.3605,27,0.8834,8482,4.0271,137.7456
rg,1625310121486512835,3,-0.2363,-0.7932,0.5349,533,214.2334,24.8413,41.8091,86,1.1175,0.7934,11.3027,-23.7021,28,0.8854,8267,4.0271,139.2327
rg,1625310121486531501,3,-0.2209,-0.7312,0.5183,534,194.7021,-3.7231,58.7158,86,1.1195,0.7654,11.1618,-17.0254,28,0.8844,10234,4.0271,141.7601
rg,1625310121486549612,3,-0.0798,-0.4668,0.5564,535,159.5459,-65.1855,60.8521,86,1.1205,0.7434,9.0816,-11.0259,28,0.8844,10261,4.0271,144.6161
rg,1625310121486587445,3,0.1902,-0.2839,0.6099,536,109.1919,-80.0781,50.415,86,1.1205,0.7264,5.3041,-6.8914,27,0.8834,9272,4.0271,147.0061
rg,1625310121486609834,3,0.3198,-0.2993,0.6763,537,79.0405,-63.1104,41.4429,86,1.1215,0.7133,3.6259,-5.5391,27,0.8834,9100,4.0271,148.1303
rg,1625310121486630464,3,0.2322,-0.5188,0.7371,538,37.2314,38.4521,14.8926,86,1.1215,0.7063,4.5213,-5.1096,27,0.8834,8990,4.0271,148.509
rg,1625310121486649889,3,-0.1077,-0.5779,0.8411,539,26.062,98.2056,0.5493,86,1.1215,0.7033,8.5015,-5.2201,27,0.8824,8778,4.0271,148.0856
rg,1625310121486669167,3,-0.363,-0.6057,0.9395,540,26.6113,74.3408,-5.249,86,1.1205,0.7023,11.8401,-5.2585,27,0.8824,10886,4.0271,147.4452
rg,1625310121486688778,3,-0.3804,-0.6338,0.9504,541,26.9775,0.6714,-3.2959,86,1.1195,0.7063,12.1645,-5.2571,27,0.8814,8499,4.0271,147.0918
rg,1625310121486707870,3,-0.241,-0.6248,0.9106,542,33.9966,-50.6592,1.0376,86,1.1225,0.7093,10.2199,-4.9586,27,0.8824,8968,4.0271,147.0844
rg,1625310121486740870,3,-0.0967,-0.4519,0.8252,543,36.377,-80.8716,6.7749,86,1.1225,0.7163,6.8899,-4.3456,27,0.8844,9293,4.0271,147.4584
rg,1625310121486763092,3,0.0254,-0.3074,0.7417,544,14.9536,-91.6748,6.8359,86,1.1235,0.7264,2.9377,-4.4087,27,0.8824,10558,4.0271,147.928
rg,1625310121884731789,3,0.2327,-0.2898,0.6277,545,-87.2192,-38.6353,14.1602,86,1.1245,0.7514,0.6466,-8.607,27,0.8914,26293,4.0271,148.6578
rg,1625310121884776696,3,0.2942,-0.3799,0.5662,546,-125.061,2.6245,25.5127,86,1.1255,0.7634,0.0354,-14.4676,27,0.8934,15593,4.0271,149.6719
rg,1625310121884798844,3,0.3391,-0.4109,0.6541,547,-145.0195,30.0293,28.4424,86,1.1255,0.7734,0.6092,-20.8651,27,0.8944,7869,4.0271,150.4387
rg,1625310121884818918,3,0.2341,-0.5955,0.8411,548,-198.9746,92.3462,14.5874,86,1.1255,0.7804,3.6546,-29.3717,27,0.8954,7878,4.0271,149.4292
rg,1625310121884837510,3,-0.1106,-0.9199,0.9871,549,-218.0786,114.8071,5.249,86,1.1255,0.7924,7.8124,-39.2505,27,0.8964,7832,4.0271,146.3009
rg,1625310121884856195,3,-0.3352,-1.0203,1.0571,550,-218.5059,119.751,-11.2305,86,1.1255,0.8094,11.113,-48.7369,27,0.8964,8050,4.0271,142.5667
rg,1625310121884875806,3,-0.5547,-1.1157,1.0139,551,-179.1992,36.9873,0.1221,86,1.1245,0.8344,12.3646,-56.0716,27,0.8944,8653,4.0271,141.3592
rg,1625310121884894065,3,-0.5291,-1.0137,0.9602,552,-165.5884,-48.7671,-6.0425,86,1.1225,0.8064,11.5017,-61.9795,27,0.8884,9142,4.0271,143.006
rg,1625310121884913158,3,-0.4204,-0.9351,1.01,553,-151.9775,-169.3115,-5.3711,86,1.1165,0.7063,8.6301,-66.2475,27,0.8844,7879,4.0271,149.2346
rg,1625310121884932028,3,-0.1802,-0.8782,0.9661,554,-144.6533,-229.0649,10.1318,86,1.0915,0.6403,5.0561,-69.6686,27,0.8774,8035,4.0271,159.3012
rg,1625310121884949787,3,0.3252,-1.2192,0.5093,555,-87.8906,-258.8501,31.311,86,1.0705,0.6013,2.1804,-72.4282,27,0.8694,12521,4.0271,169.5176
rg,1625310121884968194,3,0.4998,-1.1462,0.2661,556,-8.8501,-158.3862,17.7002,86,1.0525,0.5853,0.0191,-72.7984,27,0.8594,8456,4.0271,-184.2327
rg,1625310121884987768,3,0.48,-0.9243,0.3315,557,39.2456,-93.3228,6.5918,86,1.0445,0.5753,-1.8683,-71.1847,27,0.8524,7950,4.0271,-180.6172
rg,1625310121885074323,3,0.2939,-0.3657,0.3752,558,86.2427,23.5596,-0.8545,86,1.0405,0.5693,-2.6164,-66.7936,27,0.8474,7908,4.0271,-181.5839
rg,1625310121885096823,3,0.0508,-0.2144,0.4121,559,24.1699,104.0649,0.8545,86,1.0395,0.5693,-1.0442,-64.2616,28,0.8444,8166,4.0271,-185.4337
rg,1625310121885117008,3,-0.0662,-0.322,0.4771,560,-18.3105,129.6387,5.9814,86,1.0385,0.5703,1.7111,-63.8691,28,0.8434,7991,4.0271,169.9846
rg,1625310121885136675,3,-0.2305,-0.7568,0.6885,561,-62.1338,133.5449,21.4233,86,1.0395,0.5743,5.1609,-65.988,28,0.8454,9058,4.0271,165.5089
rg,1625310121885156341,3,-0.374,-1.2029,0.905,562,-22.0947,80.2002,26.062,86,1.0425,0.5823,7.7397,-66.6453,28,0.8454,8645,4.0271,163.013
rg,1625310121885207100,3,-0.2805,-0.915,0.7278,563,16.1743,38.4521,16.4185,90,1.0485,0.5923,8.3647,-64.2878,27,0.8534,8107,4.0249,163.1649
rg,1625310121885228322,3,-0.1951,-0.8066,0.8123,564,64.209,-10.8643,10.6201,90,1.0575,0.6113,8.6086,-60.8672,27,0.8614,8408,4.0249,163.8669
rg,1625310121885246433,3,-0.0139,-0.7405,0.7888,565,95.6421,-3.0518,34.1187,90,1.0735,0.6503,9.4064,-56.2103,27,0.8734,8128,4.0249,164.7837
rg,1625310121885264451,3,0.2263,-0.8606,0.7764,566,100.647,-1.77,27.5269,90,1.0935,0.7103,9.4616,-51.7454,27,0.8854,8298,4.0249,165.5172
rg,1625310121885283451,3,0.3079,-1.0129,0.9304,567,94.0552,16.9678,12.3291,90,1.1045,0.7664,9.4183,-47.8507,27,0.8904,8119,4.0249,165.3104
rg,1625310121885302729,3,0.0305,-1.2539,0.8787,568,116.1499,71.167,-19.7144,90,1.1075,0.7874,10.4079,-43.9483,27,0.8914,8370,4.0249,162.6161
rg,1625310121885321062,3,-0.259,-1.2073,0.7803,569,162.2314,78.9795,-13.5498,90,1.1135,0.7964,12.4161,-38.4928,27,0.8934,8255,4.0249,159.9832
rg,1625310121885349543,3,-0.2607,-0.8381,0.7654,570,185.3638,66.5894,6.5308,90,1.1165,0.7854,14.5949,-30.8758,27,0.8934,8420,4.0249,159.801
rg,1625310121885368691,3,-0.2078,-0.5925,0.6941,571,200.3174,25.6958,39.6118,90,1.1155,0.7654,16.1616,-23.0156,27,0.8914,8248,4.0249,160.6783
rg,1625310121885388636,3,-0.179,-0.5491,0.4878,572,148.6206,-3.9062,43.7012,90,1.1195,0.7414,16.5903,-17.5734,27,0.8924,8404,4.0249,162.1653
rg,1625310121885407061,3,-0.0754,-0.6846,0.7,573,108.0933,-21.8506,48.2788,90,1.1195,0.7184,15.8701,-13.7159,27,0.8914,8448,4.0249,164.0281
rg,1625310121885427376,3,-0.0486,-0.6926,0.7573,574,103.0273,-28.2593,51.2695,90,1.1205,0.6943,14.6394,-10.0046,27,0.8894,8468,4.0249,166.0536
rg,1625310121885445783,3,0.0564,-0.5134,0.7754,575,90.5151,-41.3208,48.4009,90,1.1195,0.6753,12.6395,-6.8052,27,0.8874,8319,4.0249,168.0171
rg,1625310121885465450,3,0.1431,-0.4692,0.7615,576,60.5469,-31.1279,31.8604,90,1.1225,0.6623,10.7435,-5.0645,27,0.8844,8535,4.0249,169.2185
rg,1625310122246770248,3,-0.0996,-0.6367,0.8818,577,27.71,25.8179,13.855,90,1.1225,0.6543,11.5061,-5.0335,27,0.8874,25346,4.0249,169.4046
rg,1625310122246813729,3,-0.2026,-0.6301,0.918,578,26.3672,5.6152,10.498,90,1.1225,0.6543,11.7733,-5.0188,27,0.8874,8805,4.0249,169.5862
rg,1625310122246834821,3,-0.1213,-0.6665,0.9272,579,26.7334,-25.6348,12.6343,90,1.1225,0.6603,10.6358,-5.0079,27,0.8884,9541,4.0249,169.9494
rg,1625310122246855025,3,-0.0227,-0.6147,0.8579,580,30.0293,-36.8042,11.1694,90,1.1225,0.6663,8.8984,-4.8832,27,0.8884,8666,4.0249,170.3115
rg,1625310122246896284,3,0.0354,-0.5066,0.7493,581,23.4375,-40.0391,9.8267,90,1.1235,0.6753,6.9463,-4.9897,27,0.8894,11760,4.0249,170.6726
rg,1625310122246918173,3,-0.0549,-0.2988,0.5217,582,3.0518,-20.5688,11.2915,90,1.1245,0.6873,6.7034,-6.2737,27,0.8914,11192,4.0249,171.0434
rg,1625310122246937543,3,-0.0959,-0.2471,0.5417,583,-27.0386,3.3569,16.1133,90,1.1245,0.6973,7.0231,-7.9804,27,0.8934,8699,4.0249,-188.4139
rg,1625310122246956857,3,-0.075,-0.2773,0.6116,584,-70.6787,0.7324,24.6582,90,1.1255,0.7033,7.1983,-11.3157,27,0.8954,8878,4.0249,-187.5179
rg,1625310122246975635,3,-0.0281,-0.4507,0.5537,585,-101.0742,-6.4087,28.0151,90,1.1255,0.7103,7.0473,-16.2611,27,0.8974,8386,4.0249,-186.488
rg,1625310122246994246,3,0.0249,-0.5283,0.7053,586,-132.4463,14.9536,32.4097,90,1.1255,0.7174,7.7054,-22.2006,27,0.8994,8190,4.0249,-185.5369
rg,1625310122247012116,3,-0.0146,-0.6914,0.8472,587,-172.7905,6.5918,16.6626,90,1.1266,0.7234,7.9647,-29.6774,27,0.9034,10017,4.0249,-185.1227
rg,1625310122247030135,3,-0.0215,-0.7766,0.8884,588,-180.9692,-1.2817,10.8643,90,1.1255,0.7384,7.8893,-37.2764,27,0.9054,8595,4.0249,-184.7742
rg,1625310122247048116,3,-0.1758,-0.7007,0.8,589,-178.2227,-22.2168,-3.1128,90,1.1255,0.7564,7.1974,-44.4587,27,0.9054,8502,4.0249,-184.3056
rg,1625310122247066134,3,-0.1411,-0.6157,0.7878,590,-166.626,-56.9458,10.6812,90,1.1266,0.7744,6.0205,-50.608,27,0.9044,8665,4.0249,-182.2923
rg,1625310122247083153,3,-0.0659,-0.6638,0.8901,591,-183.3496,-64.8804,11.6577,90,1.1255,0.7954,4.7851,-57.1366,27,0.9074,8132,4.0249,-179.8478
rg,1625310122247110968,3,-0.1326,-0.8665,1.0332,592,-191.7114,-76.9653,0.1221,90,1.1245,0.7854,3.3618,-63.9845,27,0.9054,8728,4.0249,-177.1117
rg,1625310122247129245,3,-0.0852,-1.2737,1.2219,593,-145.0195,-139.6484,7.9956,90,1.1215,0.7234,1.4285,-68.8456,27,0.9034,8601,4.0249,-171.8212
rg,1625310122247146949,3,0.2058,-1.1323,0.9092,594,-97.5342,-171.5698,17.8833,90,1.1165,0.6563,-0.5417,-71.9947,27,0.8994,8994,4.0249,-165.095
rg,1625310122247164412,3,0.3281,-1.062,0.6709,595,-80.9326,-128.479,23.7427,90,1.1025,0.6203,-1.6362,-74.7679,27,0.8954,9171,4.0249,-159.895
rg,1625310122247181300,3,0.3567,-1.083,0.5315,596,-61.2793,-57.5562,25.3296,90,1.0855,0.6103,-1.7938,-76.8645,27,0.8874,8677,4.0249,-157.4192
rg,1625310122247199300,3,0.21,-1.0564,0.4468,597,-32.7759,24.1699,16.2964,90,1.0715,0.5983,-1.2909,-77.7572,27,0.8774,9342,4.0249,-158.2332
rg,1625310122247216930,3,0.019,-0.8271,0.3889,598,7.0801,68.1763,-2.5635,90,1.0675,0.6023,-0.8005,-76.8996,27,0.8724,8723,4.0249,-160.9296
rg,1625310122247235337,3,-0.1277,-0.5732,0.4102,599,17.395,70.8618,-12.6343,90,1.0675,0.6033,-0.7038,-75.007,27,0.8694,8894,4.0249,-164.0234
rg,1625310122247256059,3,-0.3352,-0.5293,0.4846,600,22.9492,99.0601,-21.2402,90,1.0685,0.6073,0.5362,-73.1204,27,0.8694,13090,4.0249,-168.0576
rg,1625310122247273911,3,-0.4429,-0.6707,0.5156,601,25.2075,101.2573,23.1934,90,1.0715,0.6093,3.6661,-71.5192,27,0.8714,9141,4.0249,-171.6165
rg,1625310122247291263,3,-0.3533,-0.8303,0.6956,602,19.3481,19.2261,28.6255,90,1.0765,0.6153,5.5683,-69.9654,27,0.8744,8773,4.0249,-171.9085
rg,1625310122247308503,3,-0.1736,-0.8726,0.7412,603,34.1187,-29.3579,24.7192,90,1.0845,0.6313,6.2008,-67.6529,27,0.8794,9305,4.0249,-170.3692
rg,1625310122247325522,3,-0.0583,-0.8936,0.7808,604,46.4478,-29.1138,27.0386,90,1.0925,0.6563,6.3631,-64.8757,27,0.8854,8481,4.0249,-168.7885
rg,1625310122247342392,3,0.1682,-0.9253,0.8132,605,66.9556,-5.127,19.3481,90,1.1025,0.7003,6.426,-61.4931,27,0.8924,10088,4.0249,-168.2
rg,1625310122247360521,3,0.1052,-1.0073,0.8772,606,91.4917,44.6777,1.77,90,1.1095,0.7574,6.9588,-57.5112,27,0.8954,9220,4.0249,-169.675
rg,1625310122247570501,3,-0.1707,-1.1611,0.7629,607,132.4463,85.9985,-7.0801,90,1.1155,0.7824,8.681,-52.5913,27,0.8984,8738,4.0249,-172.6801
rg,1625310122247593483,3,-0.4019,-1.1184,0.7734,608,171.4478,59.3872,-2.0142,90,1.1195,0.7894,10.4598,-46.1609,27,0.8984,8975,4.0249,-174.558
rg,1625310122588577678,3,-0.0906,-0.7175,0.5508,609,190.1855,-13.855,38.9404,90,1.1235,0.7664,10.9157,-38.5409,27,0.9024,26003,4.0249,-173.0686
rg,1625310122588616197,3,-0.0244,-0.5891,0.5879,610,158.3862,-25.4517,44.8608,90,1.1245,0.7454,10.765,-32.0912,27,0.9024,10271,4.0249,-171.0517
rg,1625310122588637622,3,-0.0015,-0.3733,0.6431,611,144.2871,-27.2827,41.9312,90,1.1235,0.7314,10.0514,-26.7569,27,0.9014,8962,4.0249,-168.9607
rg,1625310122588657011,3,0.1521,-0.3628,0.7351,612,71.3501,-36.9873,41.3208,90,1.1255,0.7184,8.4835,-23.7024,27,0.9014,13090,4.0249,-166.8571
rg,1625310122588697937,3,0.2703,-0.5645,0.8684,613,36.7432,0.3052,27.3438,90,1.1255,0.7143,9.2974,-22.9594,27,0.9014,9860,4.0249,-166.855
rg,1625310122588717270,3,0.0474,-0.6443,0.8838,614,31.0669,59.8145,13.1836,90,1.1255,0.7123,11.2439,-22.3177,27,0.9004,8040,4.0249,-167.3872
rg,1625310122588735992,3,-0.1826,-0.6125,0.9163,615,28.0151,72.3877,9.3384,90,1.1255,0.7133,13.9895,-21.8162,27,0.9004,8048,4.0249,-168.2397
rg,1625310122588754473,3,-0.2646,-0.6313,0.9045,616,28.8696,58.2886,8.2397,90,1.1255,0.7133,15.5329,-21.1843,27,0.9004,7895,4.0249,-168.6229
rg,1625310122588772344,3,-0.3174,-0.6267,0.9277,617,32.2876,9.7656,9.0332,90,1.1255,0.7143,16.0478,-20.3397,27,0.8994,8785,4.0249,-168.5511
rg,1625310122588789732,3,-0.2488,-0.6218,0.8857,618,37.8418,-40.2222,11.5356,90,1.1266,0.7163,14.5902,-19.1412,27,0.8994,8453,4.0249,-167.6981
rg,1625310122588807603,3,-0.1494,-0.5261,0.8174,619,38.208,-64.5752,14.8926,90,1.1266,0.7194,12.122,-17.8271,27,0.9014,8064,4.0249,-166.4128
rg,1625310122588826306,3,-0.093,-0.468,0.772,620,33.6914,-69.8853,15.3809,90,1.1255,0.7254,9.4105,-16.7424,27,0.9014,7889,4.0249,-165.0815
rg,1625310122588844084,3,0.0349,-0.3721,0.7249,621,-1.1597,-66.8335,18.4326,90,1.1255,0.7324,6.614,-16.9893,28,0.9014,9513,4.0249,-163.6508
rg,1625310122588862065,3,0.0461,-0.3572,0.7061,622,-19.7754,-52.1851,19.043,90,1.1266,0.7394,4.4742,-18.0621,28,0.9024,7992,4.0249,-162.3332
rg,1625310122588879417,3,0.0439,-0.4612,0.8469,623,-54.9927,-24.1089,18.9209,90,1.1266,0.7494,3.5401,-20.5906,28,0.9044,9718,4.0249,-161.3232
rg,1625310122588896806,3,0.0186,-0.6443,0.7563,624,-74.5239,-17.7002,16.7236,90,1.1276,0.7554,2.9676,-24.275,28,0.9054,8277,4.0249,-160.4754
rg,1625310122588913472,3,-0.0015,-0.6497,0.6467,625,-79.9561,-32.8369,6.4087,90,1.1276,0.7654,1.8002,-28.2309,28,0.9084,8244,4.0249,-159.7011
rg,1625310122588930806,3,0.0078,-0.4895,0.5437,626,-92.6514,-52.6123,4.5776,90,1.1286,0.7814,-0.0088,-32.4378,28,0.9104,8610,4.0249,-158.4917
rg,1625310122588947861,3,0.064,-0.3982,0.5166,627,-104.0039,-63.1104,4.5166,90,1.1286,0.7934,-2.3456,-36.5615,28,0.9104,8245,4.0249,-156.8976
rg,1625310122588965657,3,0.1174,-0.2566,0.469,628,-133.8501,-42.4194,1.1597,90,1.1255,0.8074,-4.021,-41.6471,28,0.9094,8179,4.0249,-155.7842
rg,1625310122588983009,3,0.0867,-0.3552,0.7073,629,-211.9751,10.8032,-0.1831,90,1.1286,0.8194,-3.8215,-49.4808,27,0.9084,8335,4.0249,-156.1342
rg,1625310122589019249,3,-0.0774,-0.8257,1.0369,630,-241.272,23.4985,-2.0142,90,1.1276,0.8314,-2.908,-59.5021,27,0.9034,8193,4.0249,-157.2383
rg,1625310122589037842,3,-0.2102,-1.0564,1.1116,631,-276.062,29.1748,-0.9155,90,1.1245,0.7844,-2.0363,-69.8229,27,0.8964,8263,4.0249,-158.375
rg,1625310122589055249,3,-0.4631,-1.7581,1.7014,632,-220.8862,-66.4673,8.5449,90,1.1015,0.6593,-1.9482,-77.8028,27,0.8874,8678,4.0249,-155.796
rg,1625310122589072508,3,-0.0842,-1.2432,0.9451,633,-122.6807,-165.8325,25.8789,90,1.0665,0.6203,-1.8817,-81.9515,27,0.8744,8278,4.0249,-149.131
rg,1625310122589090286,3,0.2024,-1.011,0.6035,634,-58.4717,-167.4194,36.2549,90,1.0445,0.6073,-1.5811,-83.6096,27,0.8664,8547,4.0249,-142.3381
rg,1625310122589193045,3,0.343,-0.9465,0.3135,635,-12.4512,-148.1323,34.4849,90,1.0275,0.6063,-2.4326,-83.185,27,0.8564,8329,4.0249,-137.7152
rg,1625310122589216155,3,0.3835,-0.6567,0.3008,636,15.0757,-70.4956,-13.2446,90,1.0135,0.6023,-4.2891,-82.1134,27,0.8464,8512,4.0249,-135.019
rg,1625310122589238137,3,0.1045,-0.5408,0.5833,637,4.4556,17.7612,-41.626,90,1.0075,0.6043,-5.9873,-80.4018,27,0.8404,8366,4.0249,-136.0845
rg,1625310122589258859,3,-0.2012,-0.7664,0.7661,638,-9.2773,44.9219,-15.4419,90,1.0035,0.6013,-5.6786,-79.2631,27,0.8364,8536,4.0249,-138.1008
rg,1625310122589278748,3,-0.2805,-0.8472,0.667,639,-4.1504,28.1372,-0.3052,90,1.0025,0.5993,-4.6655,-78.4491,27,0.8344,8416,4.0249,-139.2915
rg,1625310122589298544,3,-0.1814,-0.7422,0.5369,640,4.0283,-19.165,16.7236,90,1.0015,0.5973,-3.5637,-77.4154,27,0.8314,8534,4.0249,-138.4705
rg,1625310122964935242,3,0.0085,-0.8728,0.6499,641,2.3804,36.6821,17.8833,90,1.0155,0.5953,-2.4291,-76.308,27,0.8404,26236,4.0249,-139.7994
rg,1625310122964981260,3,-0.0972,-0.8967,0.7083,642,49.2554,48.7671,5.249,90,1.0345,0.6203,-1.4433,-73.3186,27,0.8544,17552,4.0249,-141.6621
rg,1625310122965057278,3,-0.0161,-0.9158,0.8191,643,76.6602,57.0679,8.1177,90,1.0495,0.6493,-0.3315,-69.2453,27,0.8644,7598,4.0249,-143.7434
rg,1625310122965078760,3,-0.0667,-0.9158,0.8286,644,82.5195,61.7065,5.6152,90,1.0685,0.6983,0.7921,-64.877,27,0.8724,8068,4.0249,-146.0007
rg,1625310122965098334,3,-0.0847,-0.9607,0.8413,645,103.5156,60.73,1.5259,90,1.0875,0.7514,2.0753,-60.1565,27,0.8774,8284,4.0249,-148.1153
rg,1625310122965117908,3,-0.1819,-1.0659,0.842,646,126.8311,65.5518,9.9487,90,1.1005,0.7744,4.0249,-54.8569,27,0.8804,8777,4.0249,-150.0948
rg,1625310122965136889,3,-0.1807,-1.0742,0.7673,647,144.7754,18.9819,9.9487,90,1.1065,0.7754,4.9493,-49.0819,27,0.8804,10081,4.0249,-150.4405
rg,1625310122965155852,3,-0.053,-0.9167,0.7141,648,164.4897,7.019,22.3389,90,1.1105,0.7774,5.69,-42.5936,27,0.8834,8918,4.0249,-150.0352
rg,1625310122965174481,3,-0.0889,-0.8264,0.6228,649,174.6216,22.3389,28.6255,90,1.1135,0.7764,7.0739,-35.9997,27,0.8844,11038,4.0249,-149.7583
rg,1625310122965193963,3,-0.1106,-0.7319,0.6548,650,158.9355,3.7231,37.2314,90,1.1155,0.7684,7.9893,-29.9822,27,0.8854,8580,4.0249,-148.6429
rg,1625310122965212426,3,-0.1077,-0.6016,0.6792,651,143.3105,-11.9629,38.208,90,1.1165,0.7624,8.2235,-24.495,27,0.8884,8959,4.0249,-147.1162
rg,1625310122965231685,3,-0.1228,-0.5308,0.7202,652,128.9062,-25.8789,38.8184,90,1.1175,0.7594,7.7971,-19.3739,27,0.8894,8101,4.0249,-145.3141
rg,1625310122965249703,3,-0.0317,-0.4775,0.822,653,96.8018,-41.4429,57.373,90,1.1155,0.7554,6.6848,-15.5974,27,0.8884,8843,4.0249,-142.672
rg,1625310122965268851,3,0.1304,-0.5925,0.8606,654,80.6274,-50.0488,52.7344,90,1.1185,0.7554,4.7441,-12.8616,27,0.8894,8155,4.0249,-140.2218
rg,1625310122965288573,3,0.241,-0.5649,0.8118,655,77.5757,-42.2974,33.6304,90,1.1195,0.7564,2.6627,-10.4853,27,0.8904,8296,4.0249,-138.6423
rg,1625310122965307499,3,0.2195,-0.4861,0.7708,656,71.0449,-22.7661,23.4375,90,1.1165,0.7584,1.2962,-8.4317,27,0.8904,8166,4.0249,-137.617
rg,1625310122965326184,3,0.062,-0.4109,0.7695,657,45.3491,23.5596,18.1885,90,1.1175,0.7624,2.1174,-7.3657,27,0.8894,8720,4.0249,-137.0456
rg,1625310122965343758,3,-0.0984,-0.4526,0.8313,658,17.6392,43.0298,15.1978,90,1.1185,0.7664,4.0525,-7.4567,27,0.8904,8600,4.0249,-136.6955
rg,1625310122965385628,3,-0.2156,-0.5259,0.8459,659,4.9438,23.9868,14.9536,90,1.1195,0.7724,5.4152,-8.1383,27,0.8884,9159,4.0249,-136.2993
rg,1625310122965407924,3,-0.229,-0.4771,0.8191,660,1.2817,-19.2871,19.8975,90,1.1205,0.7784,5.1074,-8.8335,28,0.8924,8959,4.0249,-135.4751
rg,1625310122965426443,3,-0.1917,-0.4131,0.7754,661,-4.6997,-37.4756,22.3999,90,1.1205,0.7854,3.4326,-10.0528,28,0.8934,9131,4.0249,-134.2288
rg,1625310122965445128,3,-0.0627,-0.3193,0.6584,662,-28.0762,-63.9038,27.0386,90,1.1195,0.7904,1.1978,-11.7232,28,0.8934,8283,4.0249,-132.7197
rg,1625310122965463794,3,0.0654,-0.2756,0.5725,663,-65.0024,-65.8569,34.2407,90,1.1215,0.7974,-1.3188,-14.8574,27,0.8944,8842,4.0249,-130.7848
rg,1625310122965483016,3,0.1528,-0.325,0.4651,664,-105.4688,-50.1709,39.3066,90,1.1225,0.8024,-3.2961,-19.8936,27,0.8974,7981,4.0249,-128.6434
rg,1625310122965513812,3,0.2505,-0.4077,0.6211,665,-164.0015,-5.127,40.7104,90,1.1215,0.8174,-3.4341,-27.0129,27,0.8994,13541,4.0249,-127.0035
rg,1625310122965533571,3,0.168,-0.5928,0.6531,666,-215.271,35.4614,20.0195,90,1.1215,0.8324,-2.1068,-36.1611,27,0.9014,9096,4.0249,-127.0091
rg,1625310122965551738,3,-0.1018,-0.8191,0.8708,667,-226.1963,76.0498,-0.4272,90,1.1215,0.8484,0.4401,-45.4091,28,0.9024,8519,4.0249,-129.0186
rg,1625310122965570497,3,-0.3979,-0.9971,1.0398,668,-231.0791,61.9507,-9.2163,90,1.1215,0.8694,2.3205,-54.594,28,0.8994,10201,4.0249,-131.1956
rg,1625310122965588497,3,-0.4973,-1.0728,1.0979,669,-202.5757,-56.8237,-18.1885,90,1.1215,0.8324,1.135,-62.2246,28,0.8944,8506,4.0249,-129.6618
rg,1625310122965619349,3,-0.1519,-1.0759,1.1855,670,-172.3633,-157.0435,5.7983,90,1.1215,0.7023,-1.0808,-68.3167,27,0.8934,9297,4.0249,-123.8592
rg,1625310122965777477,3,0.1211,-1.1609,1.0059,671,-144.043,-185.2417,14.6484,90,1.1085,0.6313,-3.0545,-73.5699,27,0.8904,9950,4.0249,-116.6796
rg,1625310122965804088,3,0.1289,-1.2715,0.8018,672,-137.6953,-166.687,14.2822,90,1.0805,0.6083,-4.1282,-78.2784,27,0.8804,8953,4.0249,-110.869
rg,1625310123334200904,3,0.3274,-0.7612,0.4539,673,59.4482,-32.8979,-23.1934,91,1.0335,0.5923,-6.0926,-74.3083,27,0.8524,26759,4.0238,-111.3617
rg,1625310123334241163,3,-0.0593,-0.3762,0.4045,674,52.6733,45.9595,-52.1851,91,1.0255,0.5873,-7.0833,-70.73,27,0.8464,14743,4.0238,-113.8644
rg,1625310123334262311,3,-0.2817,-0.4246,0.4661,675,10.8032,76.2329,-23.9868,91,1.0255,0.5863,-5.7961,-68.9332,28,0.8444,9677,4.0238,-117.18
rg,1625310123334281996,3,-0.2539,-0.6016,0.6318,676,-1.8311,45.6543,26.123,91,1.0245,0.5803,-3.3308,-67.9506,28,0.8444,7945,4.0238,-118.5903
rg,1625310123334300921,3,-0.1218,-0.8262,0.7988,677,-10.9253,17.0288,34.79,91,1.0265,0.5793,-1.4292,-67.5215,28,0.8464,7825,4.0238,-118.7462
rg,1625310123334320032,3,-0.0898,-0.8687,0.7698,678,4.9438,2.6245,34.2407,91,1.0305,0.5793,0.0988,-66.5742,28,0.8534,7945,4.0238,-118.3291
rg,1625310123334338032,3,-0.0061,-0.8586,0.6765,679,48.2178,0,36.6821,91,1.0365,0.5853,1.4378,-64.0444,27,0.8604,9788,4.0238,-117.7192
rg,1625310123334356865,3,0.0432,-0.792,0.7468,680,77.4536,23.9258,31.6162,91,1.0485,0.6003,2.8509,-60.2696,27,0.8694,7925,4.0238,-117.9673
rg,1625310123334389236,3,0.085,-0.7595,0.7837,681,92.2852,33.8135,31.0669,91,1.0665,0.6213,4.5503,-55.9525,27,0.8784,7870,4.0238,-118.9649
rg,1625310123334409328,3,0.1277,-0.8369,0.8657,682,84.4727,72.5708,23.8037,91,1.0845,0.6613,6.5931,-52.277,27,0.8824,8026,4.0238,-120.7488
rg,1625310123334428143,3,0.0339,-1.1042,0.9917,683,80.9937,95.3979,4.3335,91,1.1005,0.7013,8.8103,-49.2514,27,0.8874,7910,4.0238,-123.6136
rg,1625310123334447143,3,-0.2932,-1.2778,0.8318,684,104.4312,100.647,-2.0142,91,1.1095,0.7384,11.3363,-44.7824,27,0.8904,8723,4.0238,-126.4107
rg,1625310123334465735,3,-0.3411,-1.196,0.76,685,152.0386,66.1011,7.3242,91,1.1135,0.7494,12.8912,-38.3654,27,0.8924,9269,4.0238,-126.837
rg,1625310123334483939,3,-0.1448,-0.8557,0.7151,686,200.9277,19.2871,32.4097,91,1.1165,0.7654,14.0532,-30.6784,27,0.8934,13464,4.0238,-126.3109
rg,1625310123334502828,3,-0.2043,-0.6689,0.6272,687,189.1479,17.5781,47.4854,91,1.1175,0.7684,15.505,-23.4132,27,0.8954,7982,4.0238,-125.0535
rg,1625310123334522142,3,-0.1982,-0.689,0.6106,688,171.9971,3.3569,53.2227,91,1.1195,0.7624,16.2428,-16.8711,27,0.8954,8217,4.0238,-123.2674
rg,1625310123334540198,3,-0.1768,-0.6702,0.822,689,145.9351,-23.5596,55.9082,91,1.1205,0.7554,15.6628,-11.2547,27,0.8954,8094,4.0238,-121.0345
rg,1625310123334576068,3,-0.0657,-0.5669,0.7727,690,127.0752,-58.1055,62.1948,91,1.1205,0.7474,13.3629,-6.4513,27,0.8944,8243,4.0238,-118.4131
rg,1625310123334597290,3,0.2131,-0.4094,0.8076,691,103.3325,-82.3364,46.1426,91,1.1215,0.7364,9.2618,-2.7034,27,0.8944,9177,4.0238,-116.4865
rg,1625310123334615605,3,0.3176,-0.3845,0.7627,692,91.1255,-73.4863,32.8369,91,1.1195,0.7324,5.2734,0.228,27,0.8924,8223,4.0238,-115.27
rg,1625310123334634716,3,0.1953,-0.3992,0.6558,693,51.8799,17.395,13.5498,91,1.1225,0.7294,5.232,1.1926,27,0.8924,8156,4.0238,-114.8304
rg,1625310123334663826,3,-0.0342,-0.3984,0.8132,694,22.3999,74.9512,11.4746,91,1.1215,0.7254,8.1095,1.0996,27,0.8934,8312,4.0238,-114.4043
rg,1625310123334683419,3,-0.1609,-0.4421,0.8704,695,9.5215,80.4443,6.4087,91,1.1215,0.7234,11.589,0.4128,27,0.8924,8204,4.0238,-114.262
rg,1625310123334702345,3,-0.3384,-0.5476,0.9216,696,-5.3711,51.9409,3.2959,91,1.1205,0.7244,13.9508,-0.9209,27,0.8914,8296,4.0238,-114.3725
rg,1625310123334721900,3,-0.375,-0.5708,0.8647,697,-2.6855,-2.6855,8.606,91,1.1225,0.7274,14.1623,-2.1236,27,0.8924,8215,4.0238,-114.306
rg,1625310123334739400,3,-0.2947,-0.3999,0.7666,698,-1.1597,-29.541,12.4512,91,1.1235,0.7314,12.38,-3.0984,27,0.8934,8375,4.0238,-113.6234
rg,1625310123334757437,3,-0.1902,-0.3445,0.7512,699,-13.4888,-68.6646,24.6582,91,1.1215,0.7384,9.7635,-4.2342,27,0.8924,8306,4.0238,-112.6203
rg,1625310123334774881,3,0.0244,-0.365,0.7168,700,-44.3115,-90.5151,26.001,91,1.1235,0.7444,5.8461,-6.6919,27,0.8934,8483,4.0238,-111.3693
rg,1625310123334793715,3,0.2026,-0.4226,0.7791,701,-70.6177,-69.6411,24.4751,91,1.1235,0.7514,2.5311,-10.2246,27,0.8964,8335,4.0238,-110.05
rg,1625310123334811733,3,0.2571,-0.4495,0.7598,702,-82.8247,-43.8232,23.8037,91,1.1245,0.7584,1.4119,-14.8698,27,0.8984,8502,4.0238,-109.1337
rg,1625310123334830381,3,0.2046,-0.5151,0.7249,703,-110.8398,9.7046,15.8691,91,1.1245,0.7644,1.411,-20.0451,27,0.8994,8365,4.0238,-108.6398
rg,1625310123334848918,3,0.0938,-0.6396,0.8115,704,-126.6479,47.3633,16.5405,91,1.1245,0.7754,3.2558,-25.8336,27,0.9024,10467,4.0238,-108.7825
rg,1625310123721582595,3,-0.3623,-0.9856,0.9529,705,-126.4038,29.6631,-17.7002,91,1.1255,0.8114,4.4075,-31.7019,27,0.9054,25666,4.0238,-110.0423
rg,1625310123721629854,3,-0.3884,-0.9058,0.7097,706,-110.5957,-46.0205,-7.3853,91,1.1245,0.8274,3.2906,-36.8262,27,0.9004,12289,4.0238,-109.3298
rg,1625310123721651335,3,-0.2449,-0.55,0.6455,707,-110.4126,-154.48,-18.8599,91,1.1235,0.7954,-1.4491,-41.3053,27,0.8924,13424,4.0238,-106.0422
rg,1625310123721671706,3,-0.1819,-0.314,0.4026,708,-91.9189,-176.2695,1.9531,91,1.1215,0.7244,-5.6856,-45.1402,27,0.8874,9060,4.0238,-101.1731
rg,1625310123721691817,3,0.0796,-0.1611,0.4358,709,-116.9434,-212.6465,39.856,91,1.1195,0.6683,-10.4004,-49.8916,27,0.8874,8810,4.0238,-93.8473
rg,1625310123721710816,3,0.3557,-0.2344,0.6843,710,-148.3154,-212.0972,63.3545,91,1.1065,0.6313,-12.296,-58.4253,27,0.8854,8809,4.0238,-86.7759
rg,1625310123721729446,3,0.6753,-0.9812,1.158,711,-243.8965,-62.9883,78.8574,91,1.0805,0.5973,-10.5135,-68.5217,27,0.8764,9677,4.0238,-83.1427
rg,1625310123721747816,3,0.1418,-2.0613,0.8162,712,-128.8452,-10.8643,41.0767,91,1.0545,0.5933,-8.8276,-73.7948,27,0.8634,8437,4.0238,-82.2081
rg,1625310123721767298,3,0.1104,-1.3413,0.561,713,-17.6392,-14.0381,0.7324,91,1.0335,0.5853,-8.7748,-74.3102,27,0.8494,9096,4.0238,-81.6958
rg,1625310123721786594,3,-0.0747,-0.8486,0.7922,714,35.6445,82.5195,7.3242,91,1.0225,0.5813,-7.0801,-71.3922,27,0.8424,8908,4.0238,-84.946
rg,1625310123721905667,3,-0.1294,-0.7703,0.5046,715,20.3857,43.8843,-12.9395,91,1.0135,0.5753,-6.4066,-69.7749,27,0.8384,8964,4.0238,-86.8489
rg,1625310123721929796,3,-0.2151,-0.7283,0.4175,716,11.8408,0.061,-42.2363,91,1.0105,0.5763,-8.1861,-68.542,27,0.8364,8616,4.0238,-86.6536
rg,1625310123721949482,3,-0.2498,-0.6384,0.415,717,33.4473,-29.2358,-52.5513,91,1.0085,0.5733,-9.5626,-66.8013,27,0.8354,8859,4.0238,-86.4054
rg,1625310123721970907,3,-0.2681,-0.4436,0.4888,718,36.2549,4.6997,-4.2725,91,1.0045,0.5693,-8.4764,-64.4194,27,0.8344,9014,4.0238,-86.7721
rg,1625310123721998648,3,-0.1648,-0.502,0.6262,719,1.0376,3.2959,31.6772,91,1.0055,0.5693,-6.5345,-63.4505,27,0.8364,8869,4.0238,-86.4714
rg,1625310123722018926,3,-0.0723,-0.7476,0.7263,720,-17.6392,-19.165,35.2173,91,1.0025,0.5673,-5.2118,-63.5862,27,0.8394,10389,4.0238,-85.233
rg,1625310123722039444,3,0.03,-0.917,0.7515,721,10.5591,-12.085,35.7666,91,1.0065,0.5703,-4.0091,-62.728,27,0.8464,8599,4.0238,-84.2018
rg,1625310123722059907,3,0.0776,-0.9907,0.8079,722,56.1523,21.1792,34.4849,91,1.0075,0.5853,-2.3795,-59.9985,27,0.8574,9108,4.0238,-84.3226
rg,1625310123722078907,3,0.1191,-0.9734,0.8215,723,76.416,35.3394,30.4565,91,1.0235,0.6183,-1.0012,-55.6527,27,0.8674,8654,4.0238,-85.4225
rg,1625310123722096777,3,0.2014,-0.9849,0.8145,724,114.0747,49.3774,10.376,91,1.0535,0.6783,0.1895,-50.8745,27,0.8754,8881,4.0238,-86.7778
rg,1625310123722116814,3,0.144,-1.1265,0.907,725,138.3057,94.9097,-2.0142,91,1.0845,0.7384,2.4117,-45.424,27,0.8794,8646,4.0238,-89.6736
rg,1625310123722136036,3,-0.2405,-1.207,0.6426,726,153.8086,120.5444,-21.6675,91,1.0955,0.7624,5.6396,-40.1951,27,0.8784,9324,4.0238,-93.607
rg,1625310123722156776,3,-0.4324,-1.0562,0.7686,727,183.3496,73.3643,-2.8687,91,1.1035,0.7674,8.4049,-33.6207,27,0.8774,9260,4.0238,-95.4956
rg,1625310123722178147,3,-0.3604,-0.7002,0.6909,728,202.1484,23.8037,28.3813,91,1.1065,0.7504,10.2553,-25.9131,28,0.8794,8764,4.0238,-95.0103
rg,1625310123722196554,3,-0.2798,-0.5593,0.5212,729,191.6504,5.127,36.1938,91,1.1095,0.7234,11.2711,-19.7269,28,0.8794,9288,4.0238,-93.1512
rg,1625310123722214017,3,-0.2131,-0.5986,0.5862,730,138.916,-13.0005,62.0728,91,1.1105,0.7013,11.5491,-14.6114,28,0.8794,9007,4.0238,-90.7586
rg,1625310123722233757,3,-0.1318,-0.5881,0.7034,731,107.8491,-34.3018,63.7817,91,1.1095,0.6793,10.6891,-10.7396,27,0.8784,9343,4.0238,-88.116
rg,1625310123722285646,3,0.2014,-0.4109,0.8293,732,85.3271,-92.4072,59.2651,91,1.1115,0.6653,6.5624,-7.4988,27,0.8784,8805,4.0238,-85.2954
rg,1625310123722306701,3,0.4854,-0.4844,0.7964,733,53.6499,-59.6313,31.189,91,1.1135,0.6543,3.0993,-6.0462,27,0.8774,9123,4.0238,-83.8803
rg,1625310123722327109,3,0.2319,-0.5942,0.8289,734,28.5645,65.0635,10.0098,91,1.1135,0.6453,5.1135,-5.9919,27,0.8744,9230,4.0238,-83.8158
rg,1625310123722431182,3,-0.1245,-0.5881,0.9167,735,18.0054,105.0415,-2.3193,91,1.1135,0.6443,9.34,-6.3616,27,0.8784,9062,4.0238,-84.4576
rg,1625310123722457423,3,-0.3591,-0.626,0.927,736,14.7705,89.1113,-6.3477,91,1.1145,0.6453,12.1179,-6.9877,27,0.8784,8920,4.0238,-85.0929
rg,1625310124090493532,3,-0.1223,-0.5867,0.8301,737,23.4985,-58.6548,15.8691,91,1.1155,0.6593,9.1616,-6.7924,27,0.8804,28128,4.0238,-84.2253
rg,1625310124090556569,3,0.0225,-0.4685,0.7458,738,23.1934,-86.731,21.9116,91,1.1165,0.6723,5.447,-6.6802,27,0.8814,10819,4.0238,-83.0943
rg,1625310124090579865,3,0.0911,-0.323,0.6104,739,6.0425,-67.688,22.2778,91,1.1165,0.6843,3.2487,-7.8596,27,0.8824,11508,4.0238,-82.0893
rg,1625310124090600902,3,0.0798,-0.3167,0.6272,740,-29.6021,-27.4048,20.2026,91,1.1175,0.6913,1.9149,-9.7256,27,0.8834,7912,4.0238,-81.1576
rg,1625310124090621050,3,0.0903,-0.4211,0.6777,741,-56.7627,-6.4087,21.6064,91,1.1175,0.7003,1.508,-12.8066,27,0.8854,7971,4.0238,-80.2798
rg,1625310124090640976,3,0.0872,-0.4587,0.6694,742,-67.9321,4.2725,21.9116,91,1.1185,0.7063,2.112,-16.8312,27,0.8864,7830,4.0238,-79.5907
rg,1625310124090661346,3,0.0378,-0.4961,0.6091,743,-91.0034,28.1372,23.8037,91,1.1185,0.7133,3.294,-21.2885,27,0.8874,8026,4.0238,-79.0843
rg,1625310124090681216,3,-0.0339,-0.6357,0.8052,744,-132.2632,56.5796,22.9492,91,1.1195,0.7204,5.6701,-27.2238,27,0.8884,8356,4.0238,-79.2163
rg,1625310124090701346,3,-0.2959,-0.8604,0.8718,745,-147.8882,40.8325,-0.4883,91,1.1195,0.7314,7.3737,-33.8703,27,0.8904,8918,4.0238,-80.1532
rg,1625310124090721179,3,-0.3694,-0.8689,0.7847,746,-138.7329,6.2256,-1.4038,91,1.1185,0.7414,7.9386,-39.949,27,0.8904,7877,4.0238,-80.4379
rg,1625310124090740549,3,-0.2905,-0.6687,0.7629,747,-132.019,-55.7861,4.5776,91,1.1195,0.7544,6.7426,-45.0425,27,0.8914,7971,4.0238,-78.7992
rg,1625310124090759660,3,-0.127,-0.6055,0.7263,748,-148.3154,-96.9238,4.6387,91,1.1175,0.7754,4.3289,-50.4502,28,0.8914,8121,4.0238,-75.7656
rg,1625310124090780753,3,-0.0615,-0.6135,0.7031,749,-173.5229,-114.7461,-2.0142,91,1.1125,0.7794,1.5475,-56.8052,28,0.8864,8010,4.0238,-72.0837
rg,1625310124090801253,3,0.0186,-0.6926,0.7649,750,-191.5283,-136.8408,-12.5122,91,1.1045,0.7404,-1.6655,-63.8654,28,0.8824,8176,4.0238,-67.5571
rg,1625310124090821327,3,0.0396,-0.959,1.0117,751,-160.4004,-90.8203,3.6011,91,1.0775,0.6523,-2.9554,-69.5926,27,0.8794,12169,4.0238,-64.1849
rg,1625310124090841438,3,-0.0002,-1.2354,0.989,752,-102.478,-94.5435,23.0103,91,1.0505,0.6153,-3.1664,-73.1657,27,0.8754,8278,4.0238,-60.3446
rg,1625310124090860030,3,0.0286,-1.1221,0.7961,753,-70.0073,-88.7451,15.1978,91,1.0255,0.5913,-3.4573,-75.4322,27,0.8674,8183,4.0238,-56.7994
rg,1625310124090879419,3,-0.0071,-0.9641,0.7104,754,-64.6362,-66.7725,14.0991,91,1.0035,0.5753,-3.1466,-76.7381,27,0.8574,8404,4.0238,-54.4627
rg,1625310124090901345,3,0.0198,-0.9019,0.6287,755,-36.2549,-59.6924,20.3247,91,0.9885,0.5743,-2.8045,-77.4627,28,0.8484,8338,4.0238,-51.999
rg,1625310124090920104,3,0.0645,-0.8145,0.4744,756,-8.1177,-62.9272,2.5024,91,0.9795,0.5683,-3.2977,-77.2135,28,0.8424,10306,4.0238,-49.5516
rg,1625310124090938585,3,0.0903,-0.7075,0.4907,757,8.9722,-38.8184,-1.709,91,0.9745,0.5653,-3.8316,-76.0853,28,0.8364,8489,4.0238,-48.1039
rg,1625310124091010974,3,0.0127,-0.624,0.5288,758,10.8643,-7.019,3.6011,91,0.9725,0.5633,-3.6605,-74.6451,28,0.8324,8321,4.0238,-47.8627
rg,1625310124091041159,3,-0.0186,-0.6248,0.5676,759,7.1411,0.3662,7.3242,91,0.9715,0.5613,-2.947,-73.4636,27,0.8304,8279,4.0238,-47.8957
rg,1625310124091061788,3,-0.0188,-0.7507,0.6274,760,0.9155,4.9438,18.7988,91,0.9715,0.5613,-2.0213,-72.5121,27,0.8294,8386,4.0238,-47.9128
rg,1625310124091083344,3,-0.0178,-0.8855,0.6333,761,8.7891,15.8081,18.2495,91,0.9755,0.5593,-1.0218,-71.4293,27,0.8284,8241,4.0238,-48.3153
rg,1625310124091104806,3,-0.0381,-0.9133,0.6982,762,24.1089,22.8882,6.4697,91,0.9825,0.5623,-0.3637,-69.7082,27,0.8364,8251,4.0238,-49.1056
rg,1625310124091124992,3,-0.0178,-0.8867,0.6831,763,45.105,18.9819,-0.061,91,0.9895,0.5673,-0.0403,-67.2122,27,0.8424,8478,4.0238,-49.8166
rg,1625310124091145788,3,0.0044,-0.8633,0.729,764,79.7729,24.9634,-6.3477,91,1.0035,0.5853,0.1356,-63.3338,27,0.8544,8363,4.0238,-50.8305
rg,1625310124091164713,3,0.0525,-0.7998,0.6765,765,116.8213,42.0532,-4.8828,91,1.0325,0.6213,0.6613,-58.1366,27,0.8664,8347,4.0238,-52.3981
rg,1625310124091183732,3,0.1763,-0.781,0.7102,766,129.6997,56.9458,-2.9297,91,1.0675,0.6763,2.1972,-52.4946,27,0.8744,8402,4.0238,-55.1807
rg,1625310124091203121,3,0.1133,-0.8574,0.8621,767,131.3477,117.5537,-1.77,91,1.0855,0.7234,4.8563,-47.1692,27,0.8774,8425,4.0238,-58.8302
rg,1625310124091222417,3,-0.2275,-1.0728,0.9399,768,124.7559,132.5073,-2.3193,91,1.0905,0.7414,8.6821,-42.6977,27,0.8794,8625,4.0238,-62.6656
rg,1625310124440257477,3,-0.1086,-0.7549,0.7661,769,175.7202,-8.1787,46.0205,91,1.1035,0.7364,9.4715,-35.5005,27,0.8834,25582,4.0238,-61.0325
rg,1625310124440292884,3,-0.1042,-0.7339,0.6821,770,144.9585,-13.3667,46.936,91,1.1075,0.7123,9.9053,-29.8554,27,0.8844,9674,4.0238,-59.2214
rg,1625310124440313829,3,-0.0798,-0.7737,0.7285,771,128.54,-14.7705,53.9551,91,1.1095,0.6933,9.7629,-25.1503,27,0.8844,7948,4.0238,-56.9191
rg,1625310124440333773,3,0.062,-0.51,0.7124,772,116.8213,-68.9697,48.1567,91,1.1115,0.6733,7.4444,-20.4757,27,0.8834,11048,4.0238,-54.1349
rg,1625310124440379384,3,0.3147,-0.2983,0.6377,773,86.3647,-84.4116,37.6587,91,1.1125,0.6633,4.6666,-18.1962,27,0.8824,13118,4.0238,-52.4038
rg,1625310124440400680,3,0.3169,-0.3931,0.6597,774,30.9448,4.2725,21.7285,91,1.1135,0.6553,4.0656,-17.3576,27,0.8824,8518,4.0238,-51.6725
rg,1625310124440419569,3,0.0703,-0.5461,0.8379,775,0,80.9937,17.0288,91,1.1135,0.6533,7.033,-18.0013,27,0.8824,8965,4.0238,-52.0546
rg,1625310124440438383,3,-0.1917,-0.6638,0.9011,776,-7.5684,88.1958,10.1929,91,1.1135,0.6543,10.6104,-19.1261,27,0.8824,8503,4.0238,-52.8922
rg,1625310124440458346,3,-0.3508,-0.6921,0.8928,777,-5.249,71.0449,10.1929,91,1.1135,0.6563,12.8446,-19.768,27,0.8824,8034,4.0238,-53.2526
rg,1625310124440477087,3,-0.3682,-0.6548,0.8748,778,9.7046,22.583,14.2822,91,1.1145,0.6593,14.1304,-19.969,27,0.8824,8546,4.0238,-53.1616
rg,1625310124440495476,3,-0.2766,-0.5132,0.8274,779,9.4604,-28.2593,22.7051,91,1.1125,0.6673,13.456,-19.7432,27,0.8814,9178,4.0238,-51.9976
rg,1625310124440513383,3,-0.0891,-0.4829,0.782,780,-8.2397,-54.0771,25.9399,91,1.1155,0.6733,11.48,-20.1664,27,0.8824,8625,4.0238,-50.3514
rg,1625310124440531012,3,0.0481,-0.4993,0.761,781,-31.0669,-53.833,21.1792,91,1.1155,0.6823,9.2182,-21.6359,27,0.8854,8492,4.0238,-48.8614
rg,1625310124440548679,3,0.0134,-0.4817,0.6316,782,-38.3911,-38.208,18.6157,91,1.1175,0.6923,8.474,-23.9197,27,0.8864,9027,4.0238,-47.9149
rg,1625310124440565975,3,-0.0388,-0.45,0.5581,783,-53.3447,-7.7515,20.0806,90,1.1185,0.7003,8.3314,-26.5039,27,0.8874,8895,4.0238,-47.1297
rg,1625310124440583308,3,-0.0674,-0.4231,0.5374,784,-79.895,-5.7373,25.0244,90,1.1175,0.7083,8.4992,-29.9984,27,0.8884,8743,4.0238,-46.1932
rg,1625310124440600642,3,-0.0569,-0.5066,0.593,785,-123.9624,-22.583,17.0288,90,1.1185,0.7204,7.9389,-35.1934,27,0.8884,8575,4.0238,-45.1755
rg,1625310124440619197,3,0.0149,-0.6028,0.6794,786,-149.9023,-41.8701,12.6953,90,1.1185,0.7304,6.5938,-41.2278,27,0.8954,8430,4.0238,-43.7452
rg,1625310124440637549,3,0.0188,-0.6326,0.7493,787,-156.8604,-34.9121,7.8735,90,1.1185,0.7444,5.6488,-47.4982,27,0.8964,9024,4.0238,-42.9951
rg,1625310124440655326,3,-0.0574,-0.8621,0.9519,788,-166.2598,-25.3296,-3.1738,90,1.1165,0.7574,4.793,-53.8396,27,0.8954,8777,4.0238,-42.2595
rg,1625310124440673363,3,-0.1399,-1.0085,1.0327,789,-172.1191,-52.4902,-14.6484,90,1.1165,0.7764,3.204,-60.2169,27,0.8934,9102,4.0238,-40.7804
rg,1625310124440691141,3,-0.0693,-0.8779,0.9629,790,-171.3257,-98.6938,-6.6528,90,1.1165,0.7674,1.209,-66.2143,27,0.8914,8928,4.0238,-37.3342
rg,1625310124440708511,3,0.1323,-0.8513,0.7485,791,-141.8457,-137.8174,9.2773,90,1.1125,0.6923,-0.733,-71.1619,27,0.8904,9614,4.0238,-32.0407
rg,1625310124440726252,3,0.1841,-0.8538,0.7649,792,-124.3286,-103.3936,12.2681,90,1.1025,0.6293,-1.7732,-75.3235,27,0.8874,10107,4.0238,-27.9407
rg,1625310124440743844,3,0.0896,-0.9431,0.7234,793,-94.8486,-46.936,27.2827,90,1.0685,0.5983,-1.2416,-78.2742,27,0.8804,9116,4.0238,-25.8914
rg,1625310124440775215,3,0.0879,-0.9917,0.6543,794,-45.7764,-43.2739,29.7852,90,1.0355,0.5893,-0.5283,-79.2801,27,0.8754,9047,4.0238,-23.9824
rg,1625310124440794344,3,0.1023,-0.9456,0.6606,795,-35.2783,-39.3066,22.4609,90,1.0145,0.5893,-0.4828,-79.3564,27,0.8674,9188,4.0238,-22.6757
rg,1625310124440811233,3,0.1067,-0.9504,0.6504,796,-11.6577,-18.0054,8.0566,90,0.9985,0.5853,-0.4924,-78.9011,27,0.8594,8193,4.0238,-21.9175
rg,1625310124440829270,3,0.0256,-0.9338,0.5713,797,7.4463,17.8223,-1.9531,90,0.9905,0.5863,-0.4623,-77.79,27,0.8544,8197,4.0238,-22.6391
rg,1625310124440847585,3,-0.0635,-0.8779,0.5332,798,25.2686,26.6724,-13.6719,90,0.9845,0.5833,-0.5983,-76.0122,27,0.8544,8229,4.0238,-23.8042
rg,1625310124440867159,3,-0.1125,-0.8206,0.5063,799,31.9214,28.8696,-18.3716,90,0.9805,0.5843,-0.7266,-74.0203,27,0.8514,8230,4.0238,-25.1096
rg,1625310124440884270,3,-0.2488,-0.6472,0.4897,800,46.0205,36.499,-20.813,90,0.9815,0.5843,-0.3999,-71.3676,27,0.8514,8259,4.0238,-26.7413
rg,1625310124809147029,3,-0.176,-0.6624,0.7766,801,10.1318,3.6621,24.231,90,0.9865,0.5823,0.9598,-69.7967,27,0.8614,26341,4.0238,-26.5618
rg,1625310124809196195,3,-0.0686,-0.8743,0.8591,802,30.2734,-23.6206,27.8931,90,0.9995,0.5923,1.8032,-66.9176,27,0.8734,10426,4.0238,-25.3396
rg,1625310124809228232,3,0.0042,-0.9351,0.8027,803,73.7915,-10.376,30.7617,90,1.0215,0.6153,2.6666,-63.236,27,0.8814,8216,4.0238,-24.4279
rg,1625310124809258009,3,0.1809,-0.9241,0.8901,804,117.3706,16.2354,36.3159,90,1.0555,0.6483,3.8268,-57.8672,27,0.8884,8408,4.0238,-24.2731
rg,1625310124809287361,3,0.2004,-0.9382,0.8018,805,150.3296,61.5234,20.6299,90,1.0845,0.6863,5.395,-51.6576,27,0.8944,8524,4.0238,-25.8217
rg,1625310124809314324,3,0.1155,-1.0122,0.8638,806,149.9634,77.5757,8.0566,90,1.0965,0.7043,7.221,-46.507,27,0.8954,8465,4.0238,-28.1391
rg,1625310124809342490,3,-0.0999,-1.0522,0.8843,807,130.0659,63.5376,-7.9956,90,1.1015,0.7174,8.6894,-41.7269,27,0.8944,9193,4.0238,-30.1805
rg,1625310124809371805,3,-0.2141,-1.064,0.8726,808,163.3301,46.875,-3.1128,90,1.1035,0.7284,10.0749,-35.7691,27,0.8964,9259,4.0238,-31.521
rg,1625310124809426842,3,-0.2366,-0.9075,0.8308,809,181.4575,37.0483,21.9116,90,1.1065,0.7334,11.8288,-29.0034,27,0.8964,9909,4.0238,-31.6561
rg,1625310124809456712,3,-0.2134,-0.7461,0.655,810,160.7056,7.2021,31.4331,90,1.1095,0.7304,12.6808,-23.1397,28,0.8954,8635,4.0238,-30.787
rg,1625310124809484452,3,-0.2705,-0.6033,0.6484,811,137.6343,-7.9956,31.7383,90,1.1115,0.7214,13.0313,-18.1045,28,0.8964,8571,4.0238,-29.6103
rg,1625310124809511860,3,-0.0679,-0.3298,0.6404,812,126.0986,-35.0952,36.1938,90,1.1125,0.7143,10.2656,-13.5763,28,0.8964,8367,4.0238,-27.2907
rg,1625310124809539322,3,0.0867,-0.2568,0.5703,813,90.0269,-101.3794,32.7148,90,1.1115,0.7093,5.8844,-10.1072,28,0.8954,8272,4.0238,-25.2533
rg,1625310124809567582,3,0.2231,-0.2539,0.6357,814,32.5928,-57.6172,18.7378,90,1.1135,0.7103,2.8298,-9.1574,27,0.8954,8249,4.0238,-24.178
rg,1625310124809594341,3,0.124,-0.4512,0.7856,815,-10.7422,20.2637,21.6675,90,1.1145,0.7093,3.3604,-10.3405,27,0.8964,8332,4.0238,-23.4961
rg,1625310124809622618,3,0.0461,-0.5222,0.8586,816,-22.8271,35.7056,17.334,90,1.1145,0.7083,4.8782,-12.1088,27,0.8964,8268,4.0238,-23.1464
rg,1625310124809649748,3,-0.1804,-0.6177,0.9333,817,-28.5034,35.7056,10.2539,90,1.1155,0.7103,6.2272,-14.0531,27,0.8964,10771,4.0238,-23.0462
rg,1625310124809677544,3,-0.1736,-0.6343,0.9548,818,-26.062,8.3008,15.564,90,1.1155,0.7113,6.0223,-15.6906,27,0.8954,8651,4.0238,-22.3713
rg,1625310124809705155,3,-0.0625,-0.6545,0.9365,819,-20.2637,-22.583,18.6768,90,1.1155,0.7133,5.2666,-17.149,27,0.8964,8236,4.0238,-21.4719
rg,1625310124809733729,3,0.0581,-0.6155,0.8906,820,-15.2588,-24.8413,18.8599,90,1.1155,0.7133,4.2324,-18.3515,27,0.8964,8126,4.0238,-20.5063
rg,1625310124809764543,3,0.0769,-0.5828,0.8623,821,-18.0664,-18.4937,16.4185,90,1.1155,0.7163,3.7636,-19.826,27,0.8974,8241,4.0238,-19.8409
rg,1625310124809795191,3,0.0469,-0.5513,0.8206,822,-30.4565,1.5869,15.5029,90,1.1165,0.7224,3.7891,-21.5495,27,0.8994,8136,4.0238,-19.3151
rg,1625310124809827024,3,-0.0479,-0.5559,0.7539,823,-50.354,8.1787,10.1929,90,1.1165,0.7304,4.2164,-24.1165,27,0.8984,8380,4.0238,-19.1042
rg,1625310124809857802,3,-0.1599,-0.5972,0.7268,824,-59.9365,8.9111,16.6016,90,1.1175,0.7374,5.0411,-27.0559,27,0.9014,8230,4.0238,-18.7076
rg,1625310124809920228,3,-0.2095,-0.5872,0.6833,825,-65.8569,-0.061,22.2778,90,1.1185,0.7464,5.1662,-30.4239,27,0.9044,8278,4.0238,-17.6361
rg,1625310124809956413,3,-0.1777,-0.5793,0.6819,826,-83.313,-41.5039,21.3013,90,1.1165,0.7594,4.4626,-33.9886,27,0.9054,8232,4.0238,-16.0653
rg,1625310124809983857,3,-0.0571,-0.5676,0.6655,827,-109.1919,-79.7729,17.7612,90,1.1185,0.7774,2.2927,-38.4438,27,0.9084,8443,4.0238,-13.6193
rg,1625310124810012042,3,0.0276,-0.585,0.5903,828,-130.7983,-111.8164,6.5308,90,1.1125,0.7954,-1.0467,-43.8638,27,0.9084,10139,4.0238,-10.4797
rg,1625310124810061967,3,0.1794,-0.5959,0.6421,829,-152.0996,-125.6104,5.6763,90,1.1185,0.8084,-4.6971,-50.0741,27,0.9084,8487,4.0238,-6.6272
rg,1625310124810090134,3,0.2488,-0.6331,0.7068,830,-162.7808,-116.9434,0.6714,90,1.1185,0.8124,-7.6614,-57.0363,27,0.9064,8309,4.0238,-3.1754
rg,1625310124810116375,3,0.3005,-0.6814,0.761,831,-183.5938,-94.4214,3.6011,90,1.1145,0.7884,-9.725,-64.286,27,0.8984,8453,4.0238,0.1673
rg,1625310124810143356,3,0.2134,-0.9111,0.8994,832,-188.1714,-19.7754,1.2207,90,1.1075,0.7063,-9.9915,-71.1717,28,0.8914,8517,4.0238,0.8019
rg,1625310125195870674,3,-0.033,-0.9495,0.6882,833,-49.1333,1.1597,38.5742,90,1.0255,0.6063,-8.0756,-72.5116,28,0.8794,25723,4.0238,1.1147
rg,1625310125195905229,3,-0.2222,-0.863,0.6951,834,-34.2407,32.5317,21.6675,90,0.9905,0.5983,-6.1345,-72.9234,27,0.8614,9544,4.0238,0.0002
rg,1625310125195925933,3,-0.21,-0.8005,0.5188,835,-22.644,-18.3105,23.6206,90,0.9775,0.5983,-5.5558,-73.3892,27,0.8514,11335,4.0238,2.2534
rg,1625310125195945600,3,-0.1885,-0.7505,0.4863,836,-16.6016,-85.2661,0.6714,90,0.9705,0.5923,-5.8073,-73.7354,27,0.8434,8735,4.0238,5.4882
rg,1625310125195964470,3,-0.0476,-0.7734,0.5618,837,-8.606,-115.8447,9.3384,90,0.9645,0.5803,-6.3974,-73.7812,27,0.8384,8357,4.0238,9.9893
rg,1625310125195982377,3,0.1038,-0.8647,0.6697,838,-10.1318,-97.29,15.2588,90,0.9605,0.5723,-6.8617,-73.7887,27,0.8324,7907,4.0238,13.8277
rg,1625310125196000470,3,0.2068,-0.9399,0.6067,839,1.0376,-58.5327,19.8975,90,0.9605,0.5733,-6.9052,-73.386,27,0.8294,7943,4.0238,16.2355
rg,1625310125196019284,3,0.2432,-0.9651,0.6018,840,8.2397,-34.4238,19.8364,90,0.9615,0.5703,-6.7576,-72.635,27,0.8284,7765,4.0238,17.7185
rg,1625310125196036932,3,0.2283,-0.916,0.5862,841,28.3813,23.1323,12.5122,90,0.9655,0.5663,-6.2063,-70.8137,27,0.8304,7939,4.0238,16.9142
rg,1625310125196076488,3,0.0532,-0.7627,0.5371,842,46.9971,74.7681,1.0986,90,0.9735,0.5643,-5.0169,-68.0196,27,0.8354,7766,4.0238,14.0474
rg,1625310125196096691,3,-0.0149,-0.6831,0.5449,843,57.9834,87.7686,-2.7466,90,0.9865,0.5673,-3.4965,-64.7956,27,0.8464,7941,4.0238,10.724
rg,1625310125196115432,3,-0.1096,-0.687,0.646,844,65.4907,98.7549,5.3101,90,1.0085,0.5733,-1.1417,-61.3291,27,0.8584,9177,4.0238,7.2625
rg,1625310125196133710,3,-0.1519,-0.7122,0.6821,845,72.0215,85.3882,13.0615,90,1.0335,0.5913,1.4094,-57.8628,27,0.8714,9843,4.0238,4.5781
rg,1625310125196151784,3,-0.1047,-0.8313,0.7959,846,76.5381,64.7583,10.7422,90,1.0565,0.6143,3.3475,-54.4183,27,0.8764,7939,4.0238,2.6777
rg,1625310125196169265,3,-0.1655,-0.9565,0.9153,847,70.8618,67.1387,11.4136,90,1.0735,0.6453,5.4924,-51.1789,27,0.8864,8062,4.0238,0.6796
rg,1625310125196186765,3,-0.2271,-0.9824,0.8721,848,92.7124,63.2935,10.6201,90,1.0855,0.6703,7.6204,-47.5475,27,0.8894,7942,4.0238,-0.9621
rg,1625310125196204339,3,-0.2271,-0.9792,0.7229,849,120.6665,39.0625,20.0806,90,1.0955,0.6913,9.3992,-43.0409,28,0.8914,8075,4.0238,-1.5424
rg,1625310125196222487,3,-0.1104,-0.916,0.8894,850,127.5024,21.1182,18.3105,90,1.0995,0.7013,9.9659,-37.6968,28,0.8954,7962,4.0238,-1.0853
rg,1625310125196240042,3,-0.0244,-0.8826,0.8921,851,141.3574,3.1738,27.4658,90,1.1015,0.7073,10.3522,-32.1883,28,0.8954,8195,4.0238,-0.3117
rg,1625310125196257524,3,-0.0017,-0.918,0.7849,852,142.0288,16.1133,19.8975,90,1.1055,0.7184,10.9202,-27.1383,28,0.8934,8008,4.0238,-0.0754
rg,1625310125196275338,3,-0.1858,-0.8176,0.7263,853,143.0664,21.3623,14.0381,90,1.1085,0.7214,11.9087,-22.2265,28,0.8984,8180,4.0238,-0.0783
rg,1625310125196292672,3,-0.2141,-0.73,0.719,854,138.1226,14.8315,22.4609,90,1.1075,0.7163,12.806,-17.4715,28,0.8964,8051,4.0238,0.3952
rg,1625310125196309912,3,-0.2644,-0.604,0.6711,855,108.8867,-10.6201,32.3486,90,1.1135,0.7123,12.9322,-13.742,28,0.8964,8217,4.0238,1.5903
