name,time,activity,ax,ay,az,batch_val,gx,gy,gz,ibat,index,middle,pitch,roll,temp,thumb,ts,vbat,yaw
lg,1625496547389640106,0,0.7437,-0.2246,0.7151,1,28.9307,9.2773,5.7983,71,1.1015,1.0425,-46.8787,-7.4994,24,0.034,19787,4.0018,71.1712
lg,1625496547389691329,0,0.7612,-0.2231,0.7285,2,28.7476,15.0146,6.5308,71,1.1055,1.0455,-46.1825,-6.9344,24,0.035,8553,4.0018,71.7229
lg,1625496547389712217,0,0.7273,-0.2483,0.7388,3,30.0903,21.4844,6.7749,71,1.1085,1.0495,-45.1324,-6.2364,24,0.035,7959,4.0018,72.2632
lg,1625496547389731829,0,0.6824,-0.2375,0.7512,4,32.6538,19.8364,6.4087,71,1.1095,1.0465,-44.1668,-5.5806,24,0.036,7989,4.0018,72.8461
lg,1625496547389750384,0,0.7349,-0.095,0.6948,5,33.1421,18.5547,9.2163,71,1.1125,1.0475,-43.4738,-4.6315,24,0.035,8007,4.0018,73.3208
lg,1625496547389769810,0,0.603,-0.0806,0.8311,6,34.2407,22.2168,4.4556,71,1.1135,1.0505,-42.2332,-3.615,24,0.036,8005,4.0018,73.3256
lg,1625496547389787940,0,0.6011,-0.1143,0.7905,7,18.0664,17.9443,2.9297,71,1.1125,1.0445,-41.2988,-3.1573,24,0.034,8010,4.0018,73.5586
lg,1625496547389805551,0,0.4954,-0.1013,0.8037,8,12.7563,11.7798,1.2207,71,1.1145,1.0475,-40.433,-2.85,24,0.033,8038,4.0018,73.7112
lg,1625496547389822588,0,0.4451,-0.1401,0.7861,9,9.5825,3.6621,-0.6104,71,1.1195,1.0475,-40.3235,-2.8934,24,0.034,8043,4.0018,73.8616
lg,1625496547389841180,0,0.5164,-0.1606,0.7788,10,3.8452,-20.813,-1.0376,71,1.1165,1.0485,-40.8662,-3.123,24,0.033,8505,4.0018,74.1135
lg,1625496547389860310,0,0.6836,-0.1763,0.7495,11,1.5259,-31.8604,-0.6714,71,1.1185,1.0495,-42.1661,-3.5012,24,0.034,8169,4.0018,74.4394
lg,1625496547389879291,0,0.7791,-0.196,0.7236,12,0.9155,-24.6582,0.5493,71,1.1195,1.0515,-43.3068,-3.9778,24,0.034,8052,4.0018,74.852
lg,1625496547389897495,0,0.7695,-0.1909,0.7197,13,2.9907,-12.0239,0.6714,71,1.1215,1.0495,-43.8919,-4.3286,24,0.034,10428,4.0018,75.2228
lg,1625496547389914977,0,0.7485,-0.1829,0.7212,14,2.5635,-7.3242,0.7935,71,1.1245,1.0495,-44.0777,-4.5393,24,0.034,8134,4.0018,75.474
lg,1625496547389932551,0,0.7388,-0.1328,0.7534,15,2.1973,-9.0332,0.4883,71,1.1205,1.0495,-44.423,-4.7149,24,0.034,8177,4.0018,75.6939
lg,1625496547389950569,0,0.7014,-0.1357,0.7769,16,-2.3804,-8.4229,-0.6104,71,1.1235,1.0525,-44.6407,-5.0278,24,0.034,8131,4.0018,75.8512
lg,1625496547389969791,0,0.5906,-0.1094,0.7705,17,-8.667,-3.9062,-1.5259,71,1.1245,1.0495,-44.4967,-5.4591,24,0.036,8176,4.0018,75.8788
lg,1625496547389988977,0,0.5283,-0.1023,0.7729,18,-11.7188,-11.2915,-4.0894,71,1.1235,1.0505,-44.5398,-5.9015,24,0.036,8364,4.0018,75.7771
lg,1625496547390009329,0,0.5208,-0.1487,0.7878,19,-18.3716,-27.71,-7.6904,71,1.1255,1.0545,-45.2067,-6.6681,24,0.036,8485,4.0018,75.67
lg,1625496547390027291,0,0.5327,-0.1479,0.7729,20,-23.9868,-39.6729,-10.6812,71,1.1266,1.0515,-46.3771,-7.579,24,0.037,8288,4.0018,75.4783
lg,1625496547390045254,0,0.5945,-0.1335,0.7715,21,-27.3438,-46.2036,-13.0615,71,1.1286,1.0505,-48.1485,-8.5341,24,0.042,8285,4.0018,75.1123
lg,1625496547390062421,0,0.6013,-0.1204,0.769,22,-33.2031,-54.3823,-16.9067,71,1.1215,1.0505,-49.9612,-9.487,24,0.043,8447,4.0018,74.6185
lg,1625496547390079884,0,0.6667,-0.1567,0.7666,23,-39.978,-60.9131,-23.0103,71,1.1185,1.0545,-52.1108,-10.5705,24,0.038,8444,4.0018,73.9198
lg,1625496547390099329,0,0.7148,-0.1555,0.7419,24,-42.3584,-53.833,-25.4517,71,1.1135,1.0545,-54.0374,-11.5242,24,0.039,8358,4.0018,72.9818
lg,1625496547390116329,0,0.7134,-0.2002,0.7791,25,-44.7388,-50.1709,-25.2075,71,1.1035,1.0505,-55.5926,-12.5188,24,0.04,8401,4.0018,71.9897
lg,1625496547390134384,0,0.6855,-0.189,0.7874,26,-44.4336,-41.0767,-25.2686,71,1.0885,1.0495,-56.7881,-13.4008,24,0.037,8380,4.0018,70.9085
lg,1625496547390152403,0,0.6514,-0.1816,0.7656,27,-42.7246,-38.7573,-23.2544,71,1.0745,1.0485,-57.8146,-14.2473,24,0.038,8390,4.0018,69.9007
lg,1625496547390169477,0,0.6667,-0.1965,0.7805,28,-43.8232,-44.7388,-20.0195,71,1.0525,1.0445,-59.0064,-15.4469,24,0.039,8468,4.0018,69.2718
lg,1625496547390186254,0,0.6804,-0.1865,0.7776,29,-43.0298,-49.6216,-18.3105,71,1.0325,1.0395,-60.5486,-16.8655,24,0.038,8483,4.0018,68.9629
lg,1625496547390203291,0,0.7637,-0.157,0.7598,30,-45.0439,-52.3071,-15.3198,71,1.0165,1.0335,-62.0651,-18.4145,24,0.039,8505,4.0018,68.7794
lg,1625496547390220069,0,0.8518,-0.0994,0.7346,31,-50.4761,-39.7949,-16.2964,71,0.9995,1.0295,-63.2522,-19.5983,24,0.036,8520,4.0018,68.0056
lg,1625496547390239125,0,0.7166,-0.1409,0.7793,32,-57.312,-7.7515,-14.0381,71,0.9785,1.0185,-62.9229,-20.4028,24,0.038,8674,4.0018,66.4871
lg,1625496549103009105,0,0.2891,-0.6016,0.8538,33,-72.5098,-47.8516,-4.8828,107,1.1526,1.0105,-63.1049,-25.495,24,0.027,27471,3.9545,68.7059
lg,1625496549103050383,0,0.2634,-0.9197,0.938,34,-32.2266,-44.1284,-23.3765,107,1.1516,1.0195,-63.3861,-28.2334,24,0.025,8840,3.9545,69.9941
lg,1625496549103070753,0,0.0315,-0.3523,0.5718,35,25.6958,-40.4053,-54.9316,107,1.1536,1.0215,-63.8228,-25.1007,24,0.024,7999,3.9545,67.5738
lg,1625496549103090568,0,0.2373,-0.2522,0.6719,36,9.0332,-65.6738,-26.4893,107,1.1546,1.0225,-64.9944,-24.6503,24,0.021,8303,3.9545,67.5696
lg,1625496549103110550,0,0.7681,-0.46,0.8289,37,-2.3804,-63.6597,-7.9346,107,1.1586,1.0255,-66.3783,-26.8578,24,0.022,7937,3.9545,69.8546
lg,1625496549103129735,0,0.613,-0.4558,0.8726,38,1.8311,7.4463,5.8594,107,1.1596,1.0265,-64.7298,-26.9923,24,0.023,7960,3.9545,70.0636
lg,1625496549103147698,0,0.4399,-0.4966,0.9121,39,4.3945,23.8647,5.9204,107,1.1596,1.0275,-62.2791,-26.5067,24,0.023,7975,3.9545,69.6757
lg,1625496549103165828,0,0.4783,-0.5959,0.9558,40,15.5029,13.916,11.9019,107,1.1626,1.0305,-60.1494,-26.6161,24,0.021,8010,3.9545,70.3953
lg,1625496549103183735,0,0.6438,-0.5693,0.9641,41,32.6538,21.6064,13.3667,107,1.1646,1.0295,-58.0065,-25.7515,24,0.02,8018,3.9545,70.8192
lg,1625496549103200976,0,0.6111,-0.5376,0.9541,42,42.9688,40.7104,15.5029,107,1.1676,1.0225,-55.1917,-24.0973,24,0.021,8020,3.9545,70.7995
lg,1625496549103217550,0,0.4282,-0.5828,1.0032,43,60.5469,62.3779,12.7563,107,1.1676,1.0085,-51.4292,-21.4307,24,0.021,8293,3.9545,70.3128
lg,1625496549103234846,0,0.0725,-0.6067,0.9194,44,89.7217,59.5703,0.6714,107,1.1736,0.9755,-47.5666,-17.7356,24,0.021,8159,3.9545,69.7626
lg,1625496549103252253,0,-0.0308,-0.4919,0.8826,45,98.2056,43.0908,0.3052,107,1.1786,0.9265,-45.1972,-14.5559,24,0.02,7976,3.9545,70.34
lg,1625496549103269216,0,0.0747,-0.4211,0.8142,46,90.6982,-12.8174,14.8315,107,1.1796,0.8804,-44.1205,-12.3642,24,0.024,7911,3.9545,71.8646
lg,1625496549103288753,0,0.3621,-0.3962,0.8315,47,73.1812,-55.8472,26.062,107,1.1846,0.8434,-45.2326,-11.5965,24,0.022,7953,3.9545,74.4393
lg,1625496549103309309,0,0.6221,-0.4084,0.8853,48,65.4297,-65.7959,29.0527,107,1.1866,0.8194,-47.0703,-11.7166,24,0.014,8162,3.9545,77.3965
lg,1625496549103329253,0,0.6973,-0.4075,0.8875,49,54.0771,-55.7251,29.541,107,1.1876,0.8074,-48.5612,-11.9615,24,0.025,8045,3.9545,80.2642
lg,1625496549103347642,0,0.6973,-0.3958,0.8948,50,48.8281,-17.2729,23.6816,107,1.1936,0.8044,-48.542,-11.8054,24,0.027,8190,3.9545,82.3217
lg,1625496549103369753,0,0.5457,-0.2661,0.9136,51,34.668,23.8647,17.9443,107,1.1926,0.8044,-46.7368,-11.2158,24,0.029,8053,3.9545,83.258
lg,1625496549103391179,0,0.4966,-0.2598,0.9387,52,16.2964,31.189,14.3433,107,1.1916,0.8164,-44.6385,-11.1088,24,0.032,8222,3.9545,83.8742
lg,1625496549103409994,0,0.533,-0.3423,0.9539,53,-10.0708,25.1465,6.4087,107,1.1956,0.8404,-42.9527,-11.9676,24,0.03,8097,3.9545,84.2297
lg,1625496549103430216,0,0.4666,-0.3228,0.9158,54,-18.4937,39.7339,-4.2114,107,1.1966,0.8744,-40.7715,-12.602,24,0.03,8226,3.9545,83.7887
lg,1625496549103451587,0,0.2983,-0.2822,0.9172,55,-23.0103,53.5889,-8.728,107,1.1986,0.9245,-37.506,-13.0254,24,0.029,8107,3.9545,82.8426
lg,1625496549103471790,0,-0.0266,-0.3442,0.9243,56,-40.1001,41.0767,-10.8032,107,1.1956,0.9855,-34.5974,-14.3789,24,0.029,8666,3.9545,82.0383
lg,1625496549103489624,0,-0.1096,-0.426,0.9651,57,-51.0864,-10.3149,-6.2256,107,1.1916,1.0205,-33.5929,-16.7499,24,0.028,8141,3.9545,82.1011
lg,1625496549103507124,0,0.0291,-0.4373,0.9312,58,-52.4292,-52.124,-1.3428,124,1.1826,1.0345,-34.3815,-19.6186,24,0.023,8363,3.9171,83.0135
lg,1625496549103528513,0,0.2285,-0.418,0.8718,59,-49.8047,-74.0967,-0.7935,124,1.1676,1.0365,-36.3226,-22.6016,24,0.03,8402,3.9171,84.4248
lg,1625496549103553957,0,0.3196,-0.397,0.8152,60,-47.7295,-72.2656,1.9531,124,1.1436,1.0365,-38.2458,-25.5948,24,0.028,8343,3.9171,86.0746
lg,1625496549103571494,0,0.4753,-0.3069,0.7964,61,-37.6587,-51.9409,4.8218,124,1.1346,1.0345,-39.6403,-27.7749,24,0.027,8430,3.9171,87.3634
lg,1625496549103589605,0,0.2415,-0.3201,0.7698,62,-8.606,-20.6299,-5.9204,124,1.1386,1.0365,-39.5695,-27.9975,24,0.026,8479,3.9171,87.4227
lg,1625496549103606328,0,0.3198,-0.45,0.8655,63,-21.4233,-27.6489,13.9771,124,1.1406,1.0385,-39.4264,-29.6514,24,0.026,8484,3.9171,88.7158
lg,1625496549103627142,0,0.3894,-0.4744,0.9102,64,-21.4233,-33.3252,18.6768,124,1.1466,1.0375,-39.5034,-31.4842,24,0.026,8616,3.9171,90.3541
lg,1625496549465848309,0,0.5974,-0.7764,1.0583,65,44.2505,10.1929,3.8452,124,1.1526,1.0415,-38.4853,-29.878,24,0.026,25359,3.9171,90.4024
lg,1625496549465903864,0,0.21,-0.5188,0.8901,66,95.8252,31.9824,-1.3428,124,1.1736,1.0295,-36.3506,-25.6068,24,0.02,14402,3.9171,89.6443
lg,1625496549465924716,0,0.2756,-0.4834,0.8452,67,92.9565,8.4229,5.249,124,1.1846,1.0135,-35.1628,-22.149,24,0.02,11470,3.9171,89.8549
lg,1625496549465945068,0,0.4492,-0.416,0.8433,68,79.6509,-0.3662,15.2588,124,1.1896,1.0045,-34.5762,-19.5556,24,0.021,7991,3.9171,90.668
lg,1625496549465964587,0,0.5276,-0.416,0.8347,69,72.0825,6.5918,20.6909,124,1.1936,1.0005,-34.1002,-17.3732,24,0.017,7960,3.9171,91.6374
lg,1625496549465983012,0,0.6584,-0.3872,0.822,70,56.0913,27.4048,21.3623,124,1.1956,0.9975,-32.8863,-15.7689,24,0.019,8006,3.9171,92.4097
lg,1625496549466000883,0,0.604,-0.2915,0.7986,71,46.3867,67.0166,14.4653,124,1.1986,0.9925,-30.2546,-13.9976,24,0.023,7883,3.9171,92.3391
lg,1625496549466018568,0,0.3511,-0.2329,0.8188,72,24.292,92.5903,7.1411,124,1.1996,0.9865,-26.287,-12.7932,24,0.025,8987,3.9171,91.718
lg,1625496549466036605,0,0.2678,-0.2402,0.8547,73,11.1084,91.0034,3.9062,124,1.2006,0.9855,-22.3914,-12.7062,24,0.028,8520,3.9171,91.0823
lg,1625496549466055309,0,0.1104,-0.2559,0.8933,74,-14.3433,75.8057,3.418,124,1.2036,0.9885,-19.1814,-13.6722,24,0.029,8248,3.9171,90.7109
lg,1625496549466073587,0,0.0134,-0.2607,0.9026,75,-33.8135,42.7246,5.7373,124,1.2036,0.9935,-16.7571,-15.0497,24,0.03,7945,3.9171,90.5213
lg,1625496549466091920,0,0.0427,-0.2278,0.9102,76,-58.6548,-3.54,2.7466,124,1.2056,1.0065,-16.3037,-17.382,24,0.028,8120,3.9171,90.648
lg,1625496549466110012,0,0.0913,-0.3711,0.9485,77,-73.9136,-22.9492,0.8545,124,1.2076,1.0265,-17.4504,-21.1949,24,0.027,8126,3.9171,91.2317
lg,1625496549466129105,0,0.1431,-0.4563,0.9761,78,-96.3135,-61.7065,-4.4556,124,1.2036,1.0415,-19.3823,-25.4531,24,0.021,8130,3.9171,92.1238
lg,1625496549466147364,0,0.3232,-0.6458,1.0181,79,-97.0459,-82.8857,-5.6763,124,1.1996,1.0525,-22.2291,-30.1046,24,0.019,8241,3.9171,93.6516
lg,1625496549466164846,0,0.5361,-0.697,0.988,80,-72.5098,-61.6455,-5.7983,124,1.1956,1.0545,-24.495,-33.6662,24,0.021,8256,3.9171,94.9361
lg,1625496549466181438,0,0.481,-0.7119,0.9829,81,-51.5137,-27.1606,-8.2397,124,1.1866,1.0475,-25.45,-35.9641,24,0.024,8238,3.9171,95.3564
lg,1625496549466198124,0,-0.0876,-0.4583,0.6685,82,24.292,17.8833,-38.4521,124,1.1886,1.0455,-24.5573,-34.1496,24,0.025,8275,3.9171,93.5037
lg,1625496549466214735,0,0.0117,-0.3044,0.6143,83,15.0757,-18.0664,-17.2119,124,1.1886,1.0455,-24.6321,-33.1261,24,0.023,8320,3.9171,93.1805
lg,1625496549466231920,0,0.2524,-0.3879,0.7144,84,9.3384,-37.9028,-8.3008,124,1.1926,1.0495,-26.0169,-32.8434,24,0.024,8270,3.9171,93.7182
lg,1625496549466249068,0,0.4187,-0.3867,0.8152,85,6.8359,-10.9863,13.3057,124,1.1936,1.0475,-26.0539,-32.5992,24,0.024,8259,3.9171,94.3461
lg,1625496549466266438,0,0.4592,-0.5762,0.9482,86,6.0425,-2.0142,16.4795,124,1.1976,1.0515,-25.6193,-32.5858,25,0.024,8282,3.9171,94.9836
lg,1625496549466284068,0,0.637,-0.6956,1.0498,87,14.8315,-2.5635,13.855,124,1.1996,1.0495,-25.1434,-31.5749,25,0.025,8312,3.9171,95.1888
lg,1625496549466301216,0,0.6094,-0.6904,1.0278,88,47.3633,31.4941,6.5918,124,1.2006,1.0535,-23.9674,-29.5787,25,0.025,8396,3.9171,94.7653
lg,1625496549466318198,0,0.3003,-0.5857,0.8965,89,90.21,69.0308,-3.6011,124,1.2066,1.0515,-21.2696,-25.5419,25,0.024,8391,3.9171,93.3093
lg,1625496549466336272,0,-0.0491,-0.4902,0.8662,90,110.6567,65.6128,-16.8457,124,1.2126,1.0305,-18.2094,-20.7139,24,0.022,8463,3.9171,91.6551
lg,1625496549466354957,0,-0.0818,-0.376,0.8235,91,98.6328,20.813,-11.6577,124,1.2146,0.9915,-16.6741,-16.7233,24,0.02,8938,3.9171,90.994
lg,1625496549466372327,0,0.1682,-0.2805,0.8782,92,69.397,-30.3955,5.8594,124,1.2166,0.9565,-17.5246,-14.1641,24,0.021,8302,3.9171,91.5867
lg,1625496549466389272,0,0.5186,-0.3516,0.9329,93,40.2222,-58.2275,14.2822,124,1.2176,0.9415,-20.0351,-13.172,24,0.02,9129,3.9171,92.8243
lg,1625496549466406716,0,0.6838,-0.3396,0.9412,94,29.6631,-50.415,13.916,124,1.2186,0.9395,-22.6232,-12.4917,24,0.019,8382,3.9171,93.9246
lg,1625496549466424883,0,0.7654,-0.2886,0.9697,95,7.2021,9.7656,8.8501,124,1.2196,0.9455,-22.7292,-12.4497,24,0.024,8538,3.9171,94.2598
lg,1625496549466442124,0,0.5439,-0.2832,0.9778,96,-12.7563,65.0635,-2.5635,124,1.2216,0.9615,-20.431,-12.829,24,0.025,8721,3.9171,93.5909
lg,1625496549832032197,0,-0.0405,-0.3823,0.9019,97,-55.7861,64.0259,-15.4419,124,1.2246,1.0325,-17.7499,-15.4215,24,0.021,25157,3.9171,92.4122
lg,1625496549832064438,0,-0.1958,-0.5413,0.9783,98,-76.7822,2.4414,-22.2778,124,1.2236,1.0505,-16.876,-18.7415,24,0.019,10191,3.9171,91.6268
lg,1625496549832122031,0,-0.22,-0.5857,0.9099,99,-68.5425,-30.6396,-14.2822,124,1.2176,1.0515,-17.1523,-21.9901,24,0.03,12932,3.9171,91.6477
lg,1625496549832144697,0,-0.0774,-0.5022,0.8596,100,-48.8281,-61.7676,-10.5591,124,1.2126,1.0485,-18.7462,-24.4582,24,0.029,8016,3.9171,92.35
lg,1625496549832164346,0,-0.0642,-0.425,0.7644,101,4.3335,-85.7544,-31.1279,124,1.2136,1.0475,-21.4827,-24.5795,24,0.028,7994,3.9171,92.7264
lg,1625496549832184012,0,-0.022,-0.3787,0.739,102,3.479,-86.3647,-17.6392,124,1.2136,1.0485,-24.6196,-24.8207,24,0.025,8037,3.9171,93.6184
lg,1625496549832202568,0,0.5186,-0.3604,0.8152,103,-11.9019,-117.8589,14.2822,124,1.2166,1.0485,-28.8119,-26.5406,24,0.026,8061,3.9171,96.4741
lg,1625496549832221086,0,0.9639,-0.6367,0.9861,104,-17.1509,-93.2007,19.4092,124,1.2146,1.0505,-32.1445,-28.8712,24,0.027,9369,3.9171,99.4051
lg,1625496549832239290,0,0.8501,-0.7405,1.0505,105,17.2119,-2.5024,9.8267,124,1.2186,1.0515,-32.0934,-28.6688,24,0.027,8228,3.9171,99.9962
lg,1625496549832257383,0,0.6179,-0.6543,0.9697,106,39.3677,44.3115,10.8643,124,1.2206,1.0545,-29.8497,-26.9865,24,0.027,8229,3.9171,99.5638
lg,1625496549832275586,0,0.2932,-0.5679,0.9465,107,74.8901,65.0635,5.8594,124,1.2216,1.0555,-26.8225,-23.6894,24,0.022,8229,3.9171,98.6371
lg,1625496549832295753,0,0.0212,-0.635,0.9326,108,105.5908,52.6733,-8.0566,124,1.2266,1.0555,-24.0261,-19.4429,24,0.022,8185,3.9171,97.6932
lg,1625496549832314549,0,-0.0466,-0.5757,0.8672,109,118.3472,38.208,-10.376,124,1.2306,1.0505,-22.5946,-14.9975,24,0.022,8267,3.9171,97.3865
lg,1625496549832333679,0,0.1116,-0.3247,0.8286,110,110.9619,-30.3345,-0.5493,124,1.2316,1.0345,-23.1758,-10.9601,24,0.021,11164,3.9171,97.7879
lg,1625496549832351197,0,0.2317,-0.2476,0.8445,111,95.6421,-49.6826,5.4321,124,1.2326,1.0205,-25.2284,-7.5327,24,0.017,8213,3.9171,98.4274
lg,1625496549832368660,0,0.7827,-0.0383,0.8228,112,34.729,-49.6216,17.6392,124,1.2346,1.0135,-27.8112,-6.4577,24,0.021,12644,3.9171,99.406
lg,1625496549832386068,0,0.9282,-0.3135,0.9673,113,7.6904,-25.1465,16.7847,124,1.2356,1.0145,-28.0324,-7.1362,24,0.026,8267,3.9171,99.7195
lg,1625496549832403290,0,0.8098,-0.269,1,114,-10.0708,50.354,-4.2725,124,1.2356,1.0195,-26.4584,-7.5928,24,0.023,8208,3.9171,99.3691
lg,1625496549832420660,0,0.3669,-0.2644,0.9221,115,-19.3481,103.5767,-16.8457,124,1.2366,1.0305,-22.2495,-8.1419,24,0.023,8246,3.9171,98.1627
lg,1625496549832438438,0,-0.0972,-0.2839,0.8867,116,-34.3018,97.4731,-24.292,124,1.2386,1.0435,-17.4951,-9.3419,24,0.022,8295,3.9171,96.651
lg,1625496549832456216,0,-0.3127,-0.2778,0.8899,117,-42.4194,80.8716,-21.7896,124,1.2386,1.0585,-14.0904,-11.2816,24,0.022,8870,3.9171,95.4867
lg,1625496549832473012,0,-0.5186,-0.2864,0.8921,118,-60.8521,0.5493,-18.3716,124,1.2376,1.0665,-12.6796,-13.7565,24,0.022,8446,3.9171,94.7673
lg,1625496549832489975,0,-0.1411,-0.4441,0.8855,119,-78.6133,-100.708,-11.8408,124,1.2356,1.0695,-15.871,-17.5553,24,0.019,8248,3.9171,95.5086
lg,1625496549832508346,0,0.3025,-0.4897,0.8931,120,-73.1201,-116.7603,1.1597,124,1.2326,1.0695,-20.2655,-21.4312,24,0.021,8378,3.9171,97.3202
lg,1625496549832526160,0,0.3799,-0.4263,0.8726,121,-65.3687,-100.1587,3.7842,124,1.2266,1.0675,-23.9089,-24.9106,24,0.029,8318,3.9171,99.2398
lg,1625496549832542716,0,0.116,-0.4929,0.8572,122,-21.4233,-70.6787,-18.1274,124,1.2286,1.0645,-26.0854,-26.2347,24,0.033,8606,3.9171,99.9478
lg,1625496549832559864,0,0.126,-0.4338,0.8511,123,-13.3057,-89.5996,-7.6294,124,1.2336,1.0695,-28.6758,-27.4863,24,0.03,8400,3.9171,101.476
lg,1625496549832576531,0,0.6719,-0.4465,0.8606,124,-19.6533,-111.145,0.9766,124,1.2326,1.0695,-32.8059,-29.7992,24,0.03,8419,3.9171,104.3286
lg,1625496549832592975,0,0.8931,-0.5413,0.8987,125,-18.6157,-96.9238,13.7939,124,1.2316,1.0695,-36.1132,-32.2813,24,0.03,8447,3.9171,107.3651
lg,1625496549832609753,0,1.0127,-0.697,1.0396,126,5.6152,-18.4326,8.9722,124,1.2336,1.0725,-36.6431,-32.6228,24,0.029,8519,3.9171,108.2651
lg,1625496549832626883,0,0.5786,-0.5776,0.9246,127,39.978,76.355,9.7656,124,1.2366,1.0715,-33.4981,-30.1146,24,0.025,8693,3.9171,106.7085
lg,1625496549832647234,0,0.2324,-0.5344,0.9143,128,61.5234,88.2568,4.3945,124,1.2386,1.0725,-29.505,-26.7416,24,0.029,8571,3.9171,104.9406
lg,1625496550185092160,0,-0.032,-0.4963,0.8069,129,95.0928,32.5317,-5.6152,124,1.2446,1.0415,-27.3406,-22.4092,24,0.021,26472,3.9171,104.0583
lg,1625496550185140345,0,0.2117,-0.3218,0.8528,130,72.5708,-31.189,13.2446,124,1.2456,0.9975,-27.7412,-19.9345,24,0.02,11496,3.9171,105.1021
lg,1625496550185161086,0,0.3721,-0.2917,0.8718,131,59.4482,-49.3164,17.0288,124,1.2476,0.9795,-29.4283,-18.1022,24,0.018,8077,3.9171,106.4924
lg,1625496550185180512,0,0.7009,-0.2109,0.9326,132,30.5176,-54.6875,15.3198,124,1.2486,0.9795,-31.6853,-17.6357,24,0.018,7907,3.9171,107.9558
lg,1625496550185198142,0,0.7524,-0.4448,0.9902,133,4.7607,-2.1362,7.2632,124,1.2486,0.9815,-31.7954,-17.8785,24,0.019,8090,3.9171,108.4423
lg,1625496550185216438,0,0.478,-0.2776,0.9951,134,2.1362,58.0444,-0.5493,124,1.2486,0.9905,-29.3171,-17.2665,24,0.021,9483,3.9171,107.5483
lg,1625496550185234142,0,0.2209,-0.2498,0.8965,135,-18.4937,60.8521,-9.0942,124,1.2496,1.0095,-26.4829,-17.3565,24,0.021,7872,3.9171,106.293
lg,1625496550185251660,0,0.1958,-0.2288,0.873,136,-32.3486,46.5088,-11.4136,124,1.2506,1.0315,-24.2942,-18.0495,24,0.022,7971,3.9171,105.1256
lg,1625496550185269290,0,0.1433,-0.2954,0.929,137,-56.5796,26.5503,-10.8032,124,1.2506,1.0575,-22.808,-19.9486,24,0.021,9014,3.9171,104.281
lg,1625496550185286568,0,-0.043,-0.4221,0.9697,138,-66.7114,12.4512,-7.019,124,1.2496,1.0695,-21.4799,-22.5659,24,0.02,7999,3.9171,103.8376
lg,1625496550185303882,0,0.02,-0.5405,1.0215,139,-67.688,-36.9263,-8.728,124,1.2446,1.0695,-22.1673,-25.5898,24,0.034,9111,3.9171,104.2055
lg,1625496550185320771,0,0.1926,-0.5869,1.0288,140,-61.1572,-57.7393,-12.207,124,1.2356,1.0635,-24.2229,-28.4658,24,0.033,8513,3.9171,104.9402
lg,1625496550185338068,0,0.3384,-0.614,0.9285,141,-21.8506,-50.293,-35.0952,124,1.2316,1.0585,-26.3606,-29.4171,24,0.034,8155,3.9171,104.7442
lg,1625496550185355845,0,0.1731,-0.365,0.6204,142,18.3105,-10.6812,-39.6729,124,1.2326,1.0555,-26.9865,-28.1312,24,0.033,8148,3.9171,103.4428
lg,1625496550185373142,0,0.115,-0.2427,0.603,143,19.3481,6.4087,-25.4517,124,1.2326,1.0565,-26.4529,-26.6269,24,0.031,8125,3.9171,102.2084
lg,1625496550185390808,0,0.0786,-0.2239,0.6948,144,13.1226,11.3525,5.6763,124,1.2316,1.0555,-25.1652,-25.7192,24,0.03,8143,3.9171,102.0441
lg,1625496550185407790,0,0.1804,-0.4226,0.9143,145,-2.3804,-8.9722,22.9492,124,1.2346,1.0585,-24.4915,-26.2215,24,0.031,8216,3.9171,103.1051
lg,1625496550185426308,0,0.498,-0.5916,1.0693,146,-1.4038,-25.9399,24.1699,124,1.2356,1.0605,-25.1782,-26.7235,24,0.031,8232,3.9171,104.6563
lg,1625496550185444919,0,0.5598,-0.668,1.1228,147,18.1274,-27.3438,17.2119,124,1.2376,1.0625,-25.4377,-25.7347,24,0.029,9019,3.9171,105.4241
lg,1625496550185462512,0,0.5247,-0.6729,1.085,148,59.1431,-5.8594,0.6104,124,1.2406,1.0625,-25.5169,-23.6742,24,0.024,8576,3.9171,105.6637
lg,1625496550185478956,0,0.3301,-0.635,1.022,149,97.5342,5.8594,-14.0381,124,1.2466,1.0655,-25.1157,-19.8435,24,0.022,8292,3.9171,105.1524
lg,1625496550185501456,0,0.353,-0.5347,0.9224,150,109.436,2.8687,-15.7471,124,1.2496,1.0655,-24.9444,-15.6091,24,0.023,8373,3.9171,104.6415
lg,1625496550185521308,0,0.3394,-0.4351,0.8862,151,111.0229,11.1084,-15.8691,124,1.2506,1.0675,-24.0799,-11.4389,24,0.022,8325,3.9171,104.1577
lg,1625496550185541012,0,0.4578,-0.1672,0.804,152,89.7827,23.8037,-4.6997,124,1.2496,1.0665,-23.3699,-7.7164,24,0.022,8373,3.9171,103.778
lg,1625496550185558938,0,0.6121,-0.0117,0.8044,153,39.0625,51.2695,0.8545,124,1.2516,1.0685,-21.8794,-5.8329,24,0.022,8390,3.9171,103.447
lg,1625496550185576586,0,0.4788,-0.1394,0.9089,154,-0.4272,72.5708,-9.0332,124,1.2516,1.0705,-19.2565,-5.7119,24,0.022,8379,3.9171,102.7897
lg,1625496550185594456,0,0.4028,-0.1934,0.9148,155,-13.1226,80.9937,-10.5591,124,1.2516,1.0725,-16.2497,-6.2281,24,0.022,8376,3.9171,102.0727
lg,1625496550185611753,0,0.1445,-0.1985,0.8281,156,-32.5317,92.4683,-12.7563,124,1.2526,1.0755,-12.3928,-7.5705,24,0.023,8451,3.9171,101.1689
lg,1625496550185629382,0,-0.2502,-0.2559,0.8818,157,-53.5889,68.5425,-14.5264,124,1.2536,1.0785,-8.7321,-9.8491,24,0.023,8505,3.9171,100.2125
lg,1625496550185646697,0,-0.3867,-0.3604,0.9224,158,-72.1436,-22.0947,-18.2495,124,1.2536,1.0735,-8.6068,-13.0607,24,0.035,9007,3.9171,99.7004
lg,1625496550185663771,0,-0.2651,-0.4326,0.9836,159,-77.6978,-70.0684,-16.5405,124,1.2486,1.0695,-11.1198,-16.717,24,0.034,8535,3.9171,99.8565
lg,1625496550185680994,0,0.0703,-0.4353,1.0188,160,-31.9214,-120.2393,-38.6353,124,1.2476,1.0675,-15.8538,-18.2372,24,0.035,8562,3.9171,99.8775
lg,1625496550531822493,0,0.7039,-0.218,0.7615,161,-22.7051,-90.0269,27.71,124,1.2506,1.0675,-19.8648,-19.7876,24,0.035,24941,3.9171,102.2062
lg,1625496550531863753,0,0.9321,-0.5745,0.9893,162,-29.6631,-76.7212,29.3579,124,1.2526,1.0695,-21.74,-21.81,24,0.035,9129,3.9171,104.2142
lg,1625496550531884364,0,0.7266,-0.6597,1.0518,163,-0.5493,46.3257,28.5645,124,1.2526,1.0725,-19.9456,-22.3389,24,0.034,13756,3.9171,104.7381
lg,1625496550531904493,0,0.3472,-0.4705,0.9602,164,23.4985,86.792,21.6064,124,1.2536,1.0745,-16.3361,-21.3844,24,0.033,8522,3.9171,104.267
lg,1625496550531923567,0,0.1394,-0.5618,0.9856,165,40.8936,61.0352,10.0098,124,1.2556,1.0755,-13.5565,-19.9558,24,0.027,7939,3.9171,103.8588
lg,1625496550531941882,0,0.0576,-0.6384,1.0161,166,52.002,40.7715,1.2817,124,1.2576,1.0755,-11.5903,-18.2603,24,0.027,7971,3.9171,103.4811
lg,1625496550531960327,0,0.0122,-0.5837,0.978,167,75.3784,10.3149,-3.6621,124,1.2586,1.0715,-10.8186,-15.7043,24,0.024,7985,3.9171,103.3264
lg,1625496550531977753,0,0.1248,-0.4734,0.8796,168,74.2798,-23.1323,5.188,124,1.2596,1.0635,-11.5218,-13.3247,24,0.022,9426,3.9171,103.8652
lg,1625496550531996104,0,0.4634,-0.1416,0.8083,169,53.1006,-40.8936,14.2822,88,1.2596,1.0575,-13.687,-11.285,24,0.023,8576,3.9765,104.7571
lg,1625496550532013456,0,0.6965,-0.0779,0.8132,170,25.0244,-39.6118,15.9302,88,1.2586,1.0555,-16.1375,-10.3473,24,0.022,7912,3.9765,105.6602
lg,1625496550532179827,0,0.8796,-0.3313,1.0425,171,-12.7563,6.2866,6.5918,88,1.2606,1.0585,-16.7156,-11.1512,24,0.023,7949,3.9765,105.952
lg,1625496550532240197,0,0.5298,-0.354,1.0251,172,-14.8926,87.8906,1.5869,88,1.2606,1.0645,-13.6392,-11.859,24,0.024,8010,3.9765,105.373
lg,1625496550532260716,0,0.2593,-0.2903,0.8921,173,-16.6016,108.8257,-3.1128,88,1.2606,1.0735,-9.4989,-12.5436,24,0.024,8023,3.9765,104.3637
lg,1625496550532279734,0,-0.3062,-0.3044,0.9004,174,-34.2407,85.144,-10.6201,88,1.2616,1.0795,-5.2545,-13.9815,24,0.024,8013,3.9765,103.1831
lg,1625496550532309234,0,-0.4216,-0.2881,0.9275,175,-52.5513,-1.4648,-5.4321,88,1.2596,1.0815,-4.2765,-16.1745,24,0.038,8016,3.9765,102.9785
lg,1625496550532329734,0,-0.283,-0.353,0.9458,176,-60.1196,-48.8281,-5.0049,88,1.2546,1.0765,-5.4183,-18.7632,24,0.037,8052,3.9765,103.3722
lg,1625496550532351901,0,0.0396,-0.4158,0.9148,177,-60.5469,-94.0552,-3.479,88,1.2496,1.0745,-8.8566,-21.5432,24,0.035,8087,3.9765,104.5684
lg,1625496550532371771,0,0.1799,-0.4661,0.9194,178,-40.9546,-87.4023,-7.9346,88,1.2456,1.0725,-12.2323,-23.577,24,0.038,8106,3.9765,105.6712
lg,1625496550532390475,0,0.0918,-0.3516,0.8975,179,-12.5732,-84.9609,-20.5688,88,1.2446,1.0725,-15.3886,-24.1362,24,0.038,8134,3.9765,106.2954
lg,1625496550532408623,0,0.084,-0.3,0.7957,180,-10.0708,-87.4634,-3.3569,88,1.2476,1.0735,-18.228,-24.7887,24,0.036,9956,3.9765,107.6442
lg,1625496550532426308,0,0.532,-0.3252,0.7876,181,-24.9023,-107.2388,17.7612,88,1.2486,1.0745,-22.3004,-26.6174,24,0.036,8859,3.9765,110.2945
lg,1625496550532443641,0,0.8518,-0.5942,0.9941,182,-24.1699,-69.8242,23.1934,88,1.2496,1.0755,-24.8773,-28.6512,24,0.037,8193,3.9765,112.6731
lg,1625496550532461012,0,0.7908,-0.6643,1.0574,183,-12.146,-29.6021,23.3154,88,1.2496,1.0775,-25.6138,-29.8841,24,0.04,8258,3.9765,114.2551
lg,1625496550532480512,0,0.5439,-0.6331,1.0254,184,22.8882,31.311,18.7988,88,1.2516,1.0785,-23.5984,-28.3132,24,0.036,10184,3.9765,113.9637
lg,1625496550532500308,0,0.2793,-0.5894,0.9705,185,52.8564,46.5088,8.7891,88,1.2546,1.0795,-21.4028,-26.1014,24,0.034,8296,3.9765,113.4333
lg,1625496550532518049,0,-0.0024,-0.5308,0.8992,186,76.9043,40.4663,0.9766,88,1.2566,1.0775,-19.0885,-22.9903,24,0.026,9730,3.9765,112.8442
lg,1625496550532537234,0,0.0208,-0.4614,0.8364,187,75.7446,-1.4648,4.0894,88,1.2596,1.0705,-18.3893,-20.2756,24,0.024,8287,3.9765,113.1251
lg,1625496550532554623,0,0.2515,-0.4011,0.8618,188,69.6411,-22.7661,10.1318,88,1.2606,1.0555,-19.4936,-18.3158,24,0.023,8376,3.9765,114.3247
lg,1625496550532571679,0,0.3569,-0.3423,0.8467,189,55.0537,-45.7153,18.8599,88,1.2596,1.0435,-21.0728,-16.7305,24,0.022,8344,3.9765,115.7266
lg,1625496550532589253,0,0.6699,-0.1545,0.811,190,23.1323,-43.6401,17.1509,88,1.2626,1.0415,-23.2442,-16.0742,24,0.023,8401,3.9765,116.8934
lg,1625496550532606660,0,0.7725,-0.3088,0.9651,191,-12.8174,-8.4839,5.9814,88,1.2626,1.0435,-24.0455,-16.782,24,0.022,8398,3.9765,117.2735
lg,1625496550532625716,0,0.7034,-0.3101,1.0093,192,-20.0806,24.0479,1.1597,88,1.2636,1.0565,-23.2097,-17.6193,24,0.023,8429,3.9765,117.0691
lg,1625496550895197623,0,-0.1531,-0.3157,0.8645,193,-52.1851,34.0576,-10.8032,88,1.2616,1.0815,-20.833,-19.4488,24,0.036,24990,3.9765,116.1774
lg,1625496550895249660,0,-0.2371,-0.4258,0.9395,194,-60.3638,-24.8413,-12.3291,88,1.2556,1.0815,-20.7921,-21.994,24,0.037,11617,3.9765,116.1038
lg,1625496550895270604,0,-0.0833,-0.3804,0.8625,195,-56.2134,-68.9697,-12.5732,88,1.2476,1.0795,-22.7479,-24.6104,24,0.039,8016,3.9765,116.8149
lg,1625496550895290493,0,0.1206,-0.5107,0.8726,196,-39.917,-91.2476,-14.8315,88,1.2436,1.0775,-25.6503,-26.9089,24,0.039,8053,3.9765,118.0552
lg,1625496550895309993,0,0.1663,-0.4346,0.8262,197,-9.5215,-83.8013,-16.1133,88,1.2436,1.0775,-28.2934,-27.8082,24,0.038,7936,3.9765,119.1564
lg,1625496550895328826,0,0.2083,-0.3887,0.8015,198,-11.1084,-84.8389,-7.8125,88,1.2436,1.0775,-30.8131,-28.9126,24,0.033,7976,3.9765,120.6502
lg,1625496550895347826,0,0.5779,-0.4246,0.8296,199,-21.9116,-95.3979,7.019,88,1.2436,1.0785,-33.99,-31.072,24,0.031,8149,3.9765,123.166
lg,1625496550895366863,0,0.697,-0.6003,0.9534,200,-13.3667,-60.2417,8.0566,88,1.2426,1.0785,-35.7551,-32.7201,24,0.038,8135,3.9765,125.0782
lg,1625496550895384271,0,0.5085,-0.6204,0.9409,201,-0.7324,-27.832,9.9487,88,1.2446,1.0795,-35.1659,-32.4747,24,0.038,8165,3.9765,125.6307
lg,1625496550895460863,0,0.3804,-0.5911,0.925,202,40.3442,5.7373,9.0942,88,1.2476,1.0825,-34.1455,-30.9979,24,0.038,13705,3.9765,125.8671
lg,1625496550895485289,0,0.2922,-0.6055,0.8723,203,71.4722,6.6528,-0.3662,88,1.2516,1.0835,-33.1901,-28.2293,24,0.024,8053,3.9765,125.8082
lg,1625496550895505049,0,0.2073,-0.5286,0.8501,204,90.1489,-1.8921,-5.7983,88,1.2556,1.0815,-32.5278,-24.7018,24,0.026,7975,3.9765,125.7214
lg,1625496550895524030,0,0.198,-0.52,0.8315,205,90.271,-10.9253,-4.5166,88,1.2586,1.0705,-32.1893,-21.4514,24,0.023,8066,3.9765,125.9348
lg,1625496550895542789,0,0.3081,-0.365,0.8171,206,77.9419,-33.3862,1.9531,88,1.2596,1.0545,-32.8863,-18.804,24,0.023,8057,3.9765,126.6435
lg,1625496550895560771,0,0.5317,-0.2358,0.8274,207,50.7812,-36.9873,14.0381,88,1.2606,1.0375,-34.057,-17.3153,24,0.022,8104,3.9765,127.7702
lg,1625496550895579067,0,0.7971,-0.228,0.8799,208,29.2969,-34.4238,15.7471,88,1.2606,1.0295,-35.1161,-17.4208,24,0.022,8525,3.9765,128.6245
lg,1625496550895596956,0,0.8167,-0.3635,0.949,209,-7.3853,-1.8921,7.9956,88,1.2606,1.0265,-35.2272,-18.0748,24,0.022,8211,3.9765,129.1013
lg,1625496550895614512,0,0.5864,-0.303,0.9412,210,-17.4561,55.8472,-3.7231,88,1.2626,1.0325,-32.9726,-18.1878,24,0.023,8174,3.9765,128.0773
lg,1625496550895632197,0,0.2485,-0.3071,0.9307,211,-34.729,64.5142,-12.4512,88,1.2666,1.0475,-29.96,-18.777,24,0.023,8192,3.9765,126.5546
lg,1625496550895650049,0,0.1235,-0.3022,0.8684,212,-42.9077,52.8564,-14.0381,88,1.2616,1.0625,-27.2921,-19.8247,24,0.024,8245,3.9765,125.1495
lg,1625496550895667271,0,-0.0139,-0.3435,0.9048,213,-59.2651,19.7144,-12.207,88,1.2626,1.0785,-25.6593,-21.8474,24,0.039,8176,3.9765,124.322
lg,1625496550895685271,0,-0.1221,-0.4915,0.9297,214,-71.0449,-21.9116,-10.6812,88,1.2596,1.0845,-25.4154,-24.8986,24,0.037,8217,3.9765,124.3516
lg,1625496550895703419,0,-0.0549,-0.5173,0.9622,215,-68.4814,-45.5933,-9.1553,88,1.2586,1.0795,-26.2235,-28.1888,24,0.038,8231,3.9765,125.0129
lg,1625496550895721123,0,-0.0896,-0.4998,0.9001,216,1.0986,-76.1719,-45.4712,88,1.2566,1.0805,-28.5728,-28.0898,24,0.038,8284,3.9765,124.8483
lg,1625496550895738975,0,0.0757,-0.3306,0.7209,217,14.2212,-85.8154,-28.6865,88,1.2586,1.0795,-31.2318,-27.7007,24,0.039,8309,3.9765,125.4641
lg,1625496550895756401,0,0.6069,-0.3096,0.78,218,-3.9062,-100.769,-1.0376,88,1.2596,1.0785,-34.9613,-28.8394,24,0.038,8358,3.9765,127.5856
lg,1625496550895773863,0,0.7595,-0.4048,0.833,219,-9.5825,-86.3647,7.019,88,1.2586,1.0805,-37.9701,-30.5499,24,0.038,8509,3.9765,129.9611
lg,1625496550895791493,0,0.7197,-0.5825,0.9341,220,0.9155,-18.0664,10.8032,88,1.2586,1.0825,-38.1663,-31.1436,24,0.041,8413,3.9765,130.9353
lg,1625496550895808678,0,0.49,-0.532,0.8928,221,17.8223,20.752,15.5029,88,1.2606,1.0835,-36.6246,-30.4918,24,0.038,10614,3.9765,131.0558
lg,1625496550895826030,0,0.6021,-0.5359,0.9556,222,24.1699,19.4092,13.3057,88,1.2636,1.0845,-35.3729,-29.5219,24,0.041,8447,3.9765,131.1099
lg,1625496550895843123,0,0.5066,-0.5898,0.9883,223,46.9971,44.4336,6.8359,88,1.2636,1.0875,-33.2253,-27.2903,24,0.039,8469,3.9765,130.4123
lg,1625496550895861493,0,0.3433,-0.6118,0.9634,224,62.8662,56.7017,-0.5493,88,1.2646,1.0875,-30.3654,-23.7146,24,0.034,8548,3.9765,129.0738
lg,1625496551265697826,0,0.2236,-0.2725,0.7808,225,71.6553,-30.3345,-1.3428,88,1.2666,1.0745,-30.901,-20.9061,24,0.024,24838,3.9765,129.4666
lg,1625496551265737511,0,0.5554,-0.2227,0.8147,226,40.3442,-52.3682,6.5918,88,1.2686,1.0685,-33.2209,-19.6282,24,0.024,11524,3.9765,130.4687
lg,1625496551265757456,0,0.8169,-0.3464,0.9197,227,3.1128,-28.3813,4.2725,88,1.2686,1.0665,-33.291,-19.8355,24,0.023,10589,3.9765,130.3903
lg,1625496551265776715,0,0.6541,-0.3362,0.9351,228,-8.667,33.9355,-4.8828,88,1.2696,1.0705,-32.08,-19.759,24,0.024,7951,3.9765,129.618
lg,1625496551265796808,0,0.2842,-0.3596,0.9038,229,-18.6768,56.6406,-11.5356,88,1.2696,1.0785,-29.4917,-19.866,24,0.027,9639,3.9765,128.2571
lg,1625496551265815456,0,0.0244,-0.3027,0.895,230,-26.1841,38.8184,-10.498,88,1.2706,1.0865,-27.1142,-20.3487,24,0.026,7904,3.9765,127.167
lg,1625496551265833345,0,-0.0027,-0.2769,0.8684,231,-34.6069,18.4937,-8.667,88,1.2706,1.0915,-26.4718,-21.9371,24,0.035,7887,3.9765,126.8763
lg,1625496551265850882,0,0.0525,-0.363,0.8884,232,-56.1523,-28.2593,-7.3853,88,1.2676,1.0925,-26.7186,-24.2588,24,0.039,8205,3.9765,127.0537
lg,1625496551265867382,0,0.1821,-0.4709,0.9329,233,-64.3921,-51.3916,0.3662,88,1.2666,1.0915,-27.8894,-27.3894,24,0.039,7913,3.9765,128.1077
lg,1625496551265884641,0,0.1909,-0.5779,0.9895,234,-28.5645,-64.209,-20.874,88,1.2656,1.0875,-29.8122,-28.9065,24,0.041,7914,3.9765,128.7037
lg,1625496551265916826,0,0.1555,-0.5566,0.8459,235,-1.2817,-60.4248,-27.4048,88,1.2636,1.0855,-31.6253,-29.2794,24,0.037,7981,3.9765,129.0578
lg,1625496551265936456,0,0.2319,-0.3428,0.7375,236,7.4463,-65.5518,-15.9302,88,1.2666,1.0845,-33.5926,-29.2423,24,0.036,8042,3.9765,129.8187
lg,1625496551265954863,0,0.5806,-0.3447,0.7832,237,0.7935,-69.1528,6.7749,88,1.2666,1.0855,-35.8663,-30.0968,24,0.038,8123,3.9765,131.6525
lg,1625496551265972104,0,0.7268,-0.4314,0.8633,238,-2.9907,-57.1289,13.4888,88,1.2676,1.0875,-36.717,-30.9791,24,0.04,8872,3.9765,133.1508
lg,1625496551265989011,0,0.731,-0.5312,0.929,239,9.4604,-1.2817,16.2354,88,1.2686,1.0895,-36.1703,-30.9639,24,0.041,9495,3.9765,133.8346
lg,1625496551266006363,0,0.5344,-0.48,0.9084,240,24.7803,37.8418,18.5547,88,1.2676,1.0905,-34.1475,-29.7475,24,0.037,8362,3.9765,133.5971
lg,1625496551266023678,0,0.4995,-0.4639,0.9031,241,30.2124,43.7622,16.0522,88,1.2696,1.0925,-31.9931,-28.2413,24,0.039,8312,3.9765,133.1887
lg,1625496551266040271,0,0.3328,-0.5088,0.9119,242,47.8516,57.4341,9.3384,88,1.2716,1.0905,-29.2216,-25.9502,24,0.039,8247,3.9765,132.3851
lg,1625496551266057067,0,0.1755,-0.5581,0.9426,243,58.1055,56.8848,3.1128,88,1.2716,1.0905,-26.3319,-23.4019,24,0.032,8198,3.9765,131.5541
lg,1625496551266076011,0,-0.0496,-0.5002,0.8708,244,75.0732,23.6206,-5.7983,88,1.2726,1.0885,-24.4468,-20.4307,24,0.039,8204,3.9765,131.0811
lg,1625496551266092715,0,0.1506,-0.3701,0.8369,245,67.4438,-34.9731,3.418,88,1.2736,1.0755,-25.1215,-18.1633,24,0.024,8242,3.9765,131.8073
lg,1625496551266109548,0,0.3428,-0.271,0.8313,246,57.6782,-49.8047,9.5215,88,1.2746,1.0715,-26.7487,-16.3204,24,0.027,8233,3.9765,132.8698
lg,1625496551266126678,0,0.8308,-0.1123,0.8909,247,8.4229,-53.5889,12.3901,88,1.2726,1.0705,-29.2853,-16.2539,24,0.026,8258,3.9765,133.9538
lg,1625496551266142993,0,0.8167,-0.3188,0.9727,248,-22.644,49.1333,2.9297,88,1.2756,1.0815,-27.7359,-16.975,24,0.028,13521,3.9765,133.4722
lg,1625496551266159234,0,0.5825,-0.3406,0.8999,249,-25.6958,85.022,0.3662,88,1.2756,1.0905,-24.631,-17.6452,24,0.027,8300,3.9765,132.4206
lg,1625496551266175567,0,0.0205,-0.3596,0.8833,250,-34.729,92.1021,-10.8032,88,1.2746,1.0955,-20.3772,-18.5697,24,0.027,8319,3.9765,130.8049
lg,1625496551266192511,0,-0.2776,-0.395,0.9287,251,-48.5229,36.377,-13.4888,88,1.2716,1.0955,-17.8632,-20.3287,24,0.04,8621,3.9765,129.7937
lg,1625496551266210511,0,-0.2996,-0.531,0.9714,252,-49.0723,-5.3101,-17.5171,88,1.2706,1.0895,-18.8981,-20.8846,24,0.039,8361,3.9765,128.9424
lg,1625496551266226789,0,-0.2288,-0.5444,0.887,253,5.5542,-69.8853,-49.0723,88,1.2706,1.0865,-21.5264,-20.5411,24,0.04,9534,3.9765,128.4753
lg,1625496551266243585,0,0.1348,-0.1836,0.6448,254,14.1602,-103.5767,-35.0952,88,1.2696,1.0815,-25.477,-19.8242,24,0.042,8442,3.9765,128.5315
lg,1625496551266260548,0,0.6274,-0.1755,0.6936,255,-1.3428,-100.5249,-4.7607,88,1.2726,1.0855,-29.9122,-20.3156,24,0.043,8460,3.9765,129.8119
lg,1625496551266277234,0,0.7419,-0.4299,0.9316,256,-7.9346,-44.1895,8.3618,88,1.2726,1.0875,-31.666,-21.3546,24,0.039,8507,3.9765,130.9941
lg,1625496551621070437,0,0.5344,-0.5144,0.9807,257,17.9443,27.0386,9.9487,88,1.2726,1.0925,-30.2248,-20.8987,24,0.038,26069,3.9765,131.1151
lg,1625496551621135233,0,0.47,-0.5776,1.0076,258,33.9966,40.0391,6.1035,88,1.2736,1.0935,-28.2461,-19.7413,24,0.04,9055,3.9765,130.9348
lg,1625496551621168067,0,0.1533,-0.5339,0.8748,259,72.998,46.3257,-13.7939,88,1.2766,1.0935,-25.923,-16.7811,24,0.039,11804,3.9765,129.9548
lg,1625496551621200863,0,0.0027,-0.4414,0.8486,260,83.4961,7.8735,-18.0664,88,1.2766,1.0925,-24.8415,-13.5587,24,0.038,10499,3.9765,129.3262
lg,1625496551621230233,0,0.103,-0.3721,0.8564,261,81.1157,-13.1836,-6.897,88,1.2776,1.0875,-25.7663,-11.1589,24,0.026,7910,3.9765,129.8404
lg,1625496551621258882,0,0.4517,-0.2153,0.7676,262,60.3638,-47.1802,7.2021,88,1.2776,1.0825,-27.7098,-9.2343,24,0.026,7956,3.9765,130.6058
lg,1625496551621286659,0,0.8479,-0.0999,0.8503,263,16.6626,-37.6587,11.4746,88,1.2776,1.0795,-29.7743,-8.8639,24,0.025,8095,3.9765,131.3524
lg,1625496551621315382,0,0.9299,-0.1958,0.9111,264,-8.4229,-14.4653,8.606,88,1.2786,1.0805,-29.4222,-10.018,24,0.025,7981,3.9765,131.6079
lg,1625496551621343474,0,0.6804,-0.3335,0.9487,265,-20.0806,55.4199,0,88,1.2776,1.0845,-27.4394,-10.9445,24,0.028,8145,3.9765,131.3196
lg,1625496551621370678,0,0.1248,-0.3484,0.8621,266,-26.9165,87.2192,-0.5493,88,1.2796,1.0925,-23.2845,-12.1464,24,0.03,7977,3.9765,130.7325
lg,1625496551621399122,0,-0.1545,-0.2495,0.834,267,-40.1001,38.3301,-4.2725,88,1.2796,1.0975,-20.5856,-13.7187,24,0.035,8050,3.9765,130.2381
lg,1625496551621426974,0,-0.1726,-0.259,0.8735,268,-51.3306,0.061,-4.1504,88,1.2776,1.0985,-19.4427,-15.8105,24,0.034,8111,3.9765,130.0843
lg,1625496551621454326,0,0.0583,-0.384,0.9333,269,-62.5,-62.5,-1.4038,88,1.2776,1.0985,-21.6055,-18.9491,24,0.035,8083,3.9765,130.9519
lg,1625496551621481622,0,0.3887,-0.5332,1.0229,270,-59.3262,-80.0781,0.061,88,1.2756,1.0965,-24.4712,-22.1341,24,0.043,8550,3.9765,132.304
lg,1625496551621512585,0,0.4045,-0.5571,0.9124,271,-16.5405,-54.9316,-10.6201,88,1.2746,1.0955,-26.5072,-23.3842,24,0.041,8122,3.9765,132.9699
lg,1625496551621541622,0,0.3228,-0.4736,0.7793,272,-3.1128,-35.5835,-7.2021,88,1.2746,1.0955,-27.0697,-23.3301,24,0.044,8164,3.9765,133.3202
lg,1625496551621569437,0,0.2324,-0.3083,0.738,273,5.3711,-24.4751,7.9956,88,1.2756,1.0965,-27.4032,-23.4324,24,0.042,8194,3.9765,134.0733
lg,1625496551621596585,0,0.522,-0.5215,0.9231,274,-0.6714,-37.1094,27.1606,88,1.2766,1.0975,-28.2611,-24.5373,24,0.042,8231,3.9765,135.99
lg,1625496551621625048,0,0.7852,-0.6526,1.0691,275,18.0664,-18.7988,27.0386,88,1.2776,1.0995,-28.64,-24.7748,24,0.043,11117,3.9765,137.5883
lg,1625496551621651567,0,0.6523,-0.6526,1.0535,276,58.2275,35.2173,13.7939,88,1.2786,1.1005,-27.1022,-22.6914,24,0.043,8772,3.9765,137.6469
lg,1625496551621679307,0,0.283,-0.5432,0.8989,277,94.6045,57.9834,-2.8687,88,1.2806,1.1005,-24.5221,-18.8311,24,0.041,8550,3.9765,136.791
lg,1625496551621706678,0,0.2334,-0.5095,0.9229,278,102.5391,48.2788,-4.4556,88,1.2796,1.0945,-22.2753,-14.8535,24,0.03,8293,3.9765,136.1862
lg,1625496551621733530,0,0.2986,-0.3982,0.9124,279,100.5859,26.1841,2.0752,88,1.2826,1.0855,-21.0283,-11.1376,24,0.026,8317,3.9765,136.1608
lg,1625496551621760289,0,0.4915,-0.3152,0.873,280,88.7451,26.4893,19.5312,88,1.2826,1.0835,-20.1342,-8.1425,24,0.025,8369,3.9765,136.9018
lg,1625496551621786845,0,0.7087,-0.0737,0.8572,281,75.0122,36.1938,22.2778,88,1.2826,1.0845,-18.9038,-6.4315,24,0.024,8616,3.9765,137.5512
lg,1625496551621813289,0,0.7,-0.2573,0.946,282,22.0947,61.9507,15.3809,87,1.2826,1.0885,-17.0339,-5.9561,24,0.025,8420,3.9776,138.0055
lg,1625496551621839178,0,0.6318,-0.2515,0.8733,283,8.4839,98.3887,-3.1738,87,1.2846,1.0925,-13.844,-5.8089,24,0.025,8461,3.9776,137.5533
lg,1625496551622054178,0,0.2964,-0.1936,0.7952,284,2.2583,129.2725,-15.9302,87,1.2876,1.0975,-9.0255,-5.7812,24,0.025,8412,3.9776,136.4444
lg,1625496551622272845,0,0.0613,-0.2058,0.8535,285,-3.6621,128.3569,-24.6582,87,1.2846,1.1015,-4.2735,-6.4153,24,0.026,8450,3.9776,134.7931
lg,1625496551622313733,0,-0.1631,-0.2898,0.9434,286,-19.104,71.7773,-37.9639,87,1.2816,1.0995,-1.085,-7.5019,24,0.038,8488,3.9776,132.9619
lg,1625496551622348659,0,-0.0293,-0.4067,0.9734,287,-31.3721,-9.6436,-54.6875,87,1.2816,1.0955,-1.6798,-9.2934,24,0.035,8492,3.9776,130.8642
lg,1625496551622376548,0,0.05,-0.3369,0.8821,288,-17.2729,15.3198,-36.8652,87,1.2786,1.0915,-1.3846,-10.3939,24,0.036,8587,3.9776,129.3198
lg,1625496551973787252,0,-0.7002,-0.0261,0.7373,289,11.7798,7.3242,-24.5361,87,1.2746,1.0885,0.3311,-9.6739,24,0.04,24896,3.9776,128.3076
lg,1625496551973833011,0,0.4246,-0.3389,0.929,290,-32.4097,-167.1143,37.6587,87,1.2756,1.0905,-6.8372,-11.4938,24,0.041,13729,3.9776,131.0301
lg,1625496551973855289,0,1.075,-0.6716,1.1558,291,-20.0806,-134.8877,30.5786,87,1.2766,1.0915,-13.0271,-13.2795,24,0.033,10612,3.9776,133.5049
lg,1625496551973875955,0,0.7878,-0.6936,1.1379,292,32.4097,-16.7236,6.1035,87,1.2786,1.0935,-14.3242,-12.701,24,0.035,9929,3.9776,134.0419
lg,1625496551973896048,0,0.2405,-0.4973,1,293,66.2842,31.9214,1.5259,87,1.2796,1.0955,-12.9945,-10.5499,24,0.037,7978,3.9776,133.9738
lg,1625496551973917029,0,0.1433,-0.415,0.9805,294,66.1621,15.625,0,87,1.2806,1.0965,-12.1802,-8.3823,24,0.034,8030,3.9776,133.9839
lg,1625496551973937178,0,0.4634,-0.2483,0.9539,295,29.6631,-23.4375,8.3618,87,1.2816,1.0975,-13.5689,-7.5299,24,0.025,7909,3.9776,134.5011
lg,1625496551973955844,0,0.7529,-0.2991,0.9858,296,-16.5405,-3.1738,14.4653,87,1.2826,1.0995,-14.4844,-8.6433,24,0.027,9039,3.9776,135.1906
lg,1625496551973975881,0,0.7703,-0.2759,0.8662,297,-26.5503,22.522,17.8833,87,1.2816,1.0995,-14.3491,-10.1208,24,0.031,8226,3.9776,135.8473
lg,1625496551973995085,0,0.5928,-0.2974,0.8889,298,-36.8042,66.8335,15.3198,87,1.2806,1.0985,-12.3178,-11.8964,24,0.041,8061,3.9776,136.021
lg,1625496551974013363,0,-0.0642,-0.479,1.043,299,-5.9814,94.2383,-18.5547,87,1.2816,1.0945,-8.2052,-12.365,24,0.042,8082,3.9776,134.5837
lg,1625496551974032659,0,-0.3228,-0.5002,0.9722,300,13.916,81.4819,-28.9307,87,1.2816,1.0975,-5.0798,-12.0593,24,0.042,8469,3.9776,132.9086
lg,1625496551974051326,0,-0.4895,-0.2212,0.8191,301,17.8223,8.4839,-33.9966,87,1.2796,1.0965,-3.7226,-11.3438,24,0.038,8148,3.9776,131.5224
lg,1625496551974069863,0,-0.0762,-0.238,0.74,302,-0.1831,-77.0874,-17.6392,87,1.2816,1.0955,-6.5067,-11.5967,24,0.039,8120,3.9776,131.462
lg,1625496551974088622,0,0.3257,-0.2004,0.7893,303,-5.3711,-95.7642,-9.8877,87,1.2816,1.0955,-10.9236,-12.1275,24,0.042,8079,3.9776,132.2599
lg,1625496551974107418,0,0.4749,-0.2573,0.8545,304,-9.3384,-88.3179,5.5542,87,1.2806,1.0955,-14.974,-12.8891,24,0.041,8134,3.9776,133.3049
lg,1625496551974126622,0,0.5901,-0.3789,0.9543,305,-8.1787,-49.4385,10.8032,87,1.2826,1.0975,-17.3755,-13.7792,24,0.041,8217,3.9776,134.304
lg,1625496551974144104,0,0.6157,-0.4631,1.021,306,1.5869,-12.3291,14.0991,87,1.2816,1.0965,-18.1679,-14.3111,24,0.041,8211,3.9776,135.1215
lg,1625496551974161770,0,0.6309,-0.499,1.0745,307,8.5449,-1.3428,13.1226,87,1.2816,1.0975,-18.483,-14.5276,24,0.041,8346,3.9776,135.7926
lg,1625496551974180529,0,0.5156,-0.5449,1.0688,308,30.3955,34.0576,9.1553,87,1.2866,1.0975,-17.2779,-13.7916,24,0.042,8292,3.9776,135.9629
lg,1625496551974198604,0,0.231,-0.5215,1.0142,309,59.9365,57.312,-0.1831,87,1.2846,1.1005,-14.839,-11.7885,24,0.038,8296,3.9776,135.5896
lg,1625496551974216622,0,0.0625,-0.5007,0.9146,310,71.3501,54.5654,-6.6528,87,1.2856,1.1015,-12.1032,-9.3702,24,0.042,8310,3.9776,135.0723
lg,1625496551974242992,0,0.0271,-0.3967,0.905,311,76.2329,15.8691,-0.061,87,1.2826,1.1005,-11.0779,-6.8831,24,0.027,8353,3.9776,135.1075
lg,1625496551974264048,0,0.3027,-0.0959,0.8442,312,52.6733,-27.771,6.2256,87,1.2836,1.0995,-12.4868,-4.8407,24,0.025,11145,3.9776,135.4672
lg,1625496551974282900,0,0.6619,-0.1272,0.9241,313,-9.3994,-27.6489,5.127,87,1.2846,1.1025,-14.4445,-5.3871,24,0.025,8465,3.9776,135.8045
lg,1625496551974301844,0,0.6785,-0.2451,0.8989,314,-37.1704,12.6953,7.8735,87,1.2856,1.0995,-14.7439,-7.2623,24,0.03,8441,3.9776,136.1654
lg,1625496551974320418,0,0.2808,-0.313,0.9065,315,-48.584,57.1899,6.1646,87,1.2836,1.1005,-12.5215,-9.6316,24,0.04,11037,3.9776,136.1878
lg,1625496551974339363,0,-0.1301,-0.313,1.0017,316,-49.4995,37.7197,-8.1787,87,1.2796,1.0965,-10.3454,-11.786,24,0.044,9101,3.9776,135.6258
lg,1625496551974358937,0,-0.4036,-0.3689,1.0503,317,-10.437,-14.2212,-27.0386,87,1.2786,1.0935,-9.9836,-12.3152,24,0.04,8536,3.9776,134.719
lg,1625496551974378196,0,-0.3572,-0.3574,0.9155,318,-5.0049,-32.5317,-23.8647,87,1.2776,1.0925,-10.3258,-12.734,24,0.045,8621,3.9776,134.1155
lg,1625496551974395789,0,-0.1877,-0.2109,0.8384,319,-4.9438,-83.374,-11.4746,87,1.2776,1.0915,-12.7936,-13.0429,24,0.043,8566,3.9776,134.4283
lg,1625496551974413474,0,0.4202,-0.1038,0.7561,320,-12.5122,-112.6709,27.8931,87,1.2776,1.0915,-17.5218,-13.9308,24,0.042,8566,3.9776,136.6051
lg,1625496552335313099,0,0.6353,-0.5933,1.0757,321,-0.6104,-20.752,10.437,87,1.2786,1.0925,-16.7321,-13.8358,24,0.043,25598,3.9776,136.916
lg,1625496552335354074,0,0.302,-0.3835,0.8992,322,34.3628,67.8711,11.9019,87,1.2776,1.0935,-14.1195,-12.7396,24,0.043,13101,3.9776,136.895
lg,1625496552335375311,0,0.1819,-0.3948,0.8838,323,37.0483,47.3022,9.8877,87,1.2786,1.0935,-12.0642,-11.7054,24,0.044,8029,3.9776,136.9903
lg,1625496552335395346,0,0.1401,-0.4644,0.9426,324,45.4102,25.7568,6.3477,87,1.2796,1.0955,-10.8445,-10.4781,24,0.044,7919,3.9776,137.1643
lg,1625496552335414752,0,0.0925,-0.4905,0.8906,325,54.5654,19.2871,3.2349,87,1.2816,1.0965,-10.2999,-8.6587,24,0.044,7897,3.9776,137.2732
lg,1625496552335433806,0,0.1038,-0.4766,0.9119,326,66.9556,-5.3101,1.3428,87,1.2826,1.0975,-10.3443,-6.7471,24,0.04,7911,3.9776,137.4931
lg,1625496552335452527,0,0.3071,-0.2598,0.8447,327,61.8286,-30.6396,4.7607,87,1.2826,1.0975,-11.8924,-4.7332,24,0.041,8033,3.9776,137.8759
lg,1625496552335470915,0,0.4846,-0.0793,0.8193,328,22.2168,-33.2642,3.6011,87,1.2826,1.0985,-13.923,-3.929,24,0.026,8138,3.9776,138.1268
lg,1625496552335489063,0,0.6106,-0.1592,0.8962,329,-17.8223,-27.771,6.6528,87,1.2836,1.0985,-15.7775,-4.9419,24,0.027,10415,3.9776,138.5479
lg,1625496552335507007,0,0.5896,-0.2092,0.9014,330,-32.7759,-10.1318,9.5825,87,1.2816,1.0965,-16.7932,-6.655,24,0.041,7969,3.9776,139.0751
lg,1625496552335525895,0,0.2944,-0.2971,0.9397,331,-45.5933,19.9585,8.8501,87,1.2786,1.0955,-15.9553,-8.9694,24,0.045,7973,3.9776,139.4515
lg,1625496552335544616,0,-0.1104,-0.3777,1.1411,332,-33.4473,16.6626,-1.4038,87,1.2766,1.0915,-14.4942,-10.6309,24,0.042,8035,3.9776,139.369
lg,1625496552335562708,0,-0.2378,-0.3435,1.0825,333,-6.6528,-7.0801,-15.3198,87,1.2736,1.0885,-13.8817,-11.0319,24,0.043,8078,3.9776,138.8698
lg,1625496552335580671,0,-0.2839,-0.3621,0.8962,334,3.2959,-56.9458,-17.5781,87,1.2746,1.0875,-15.1089,-11.26,24,0.043,8104,3.9776,138.715
lg,1625496552335599059,0,0.2966,-0.2734,0.8313,335,2.0142,-100.9521,7.8125,87,1.2746,1.0855,-19.129,-11.7916,24,0.044,8077,3.9776,139.9535
lg,1625496552335616633,0,0.575,-0.1597,0.7671,336,2.8687,-96.1914,19.043,87,1.2726,1.0845,-23.3786,-12.2759,24,0.044,8106,3.9776,141.6173
lg,1625496552335633819,0,0.6353,-0.2551,0.9258,337,4.0283,-45.5933,20.0195,87,1.2736,1.0855,-24.2632,-12.7892,24,0.042,11202,3.9776,142.7206
lg,1625496552335651541,0,0.4072,-0.3691,0.9915,338,4.2725,-7.5684,19.4092,87,1.2736,1.0855,-24.2554,-13.2954,24,0.041,8200,3.9776,143.7519
lg,1625496552335669670,0,0.425,-0.3716,0.9778,339,1.9531,-10.9253,20.752,87,1.2736,1.0865,-24.3986,-13.9267,24,0.041,8919,3.9776,144.8741
lg,1625496552335686856,0,0.5208,-0.439,1.0007,340,5.9814,-7.5073,21.1792,87,1.2736,1.0865,-24.5284,-14.4729,24,0.04,8192,3.9776,146.0157
lg,1625496552335704097,0,0.4861,-0.4363,0.9849,341,11.2305,6.2866,22.8882,87,1.2726,1.0875,-23.9336,-14.7281,24,0.037,8311,3.9776,147.0571
lg,1625496552335721283,0,0.3184,-0.406,0.98,342,20.0195,18.8599,24.7192,87,1.2736,1.0875,-22.6733,-14.5765,24,0.037,9171,3.9776,148.0204
lg,1625496552335738654,0,0.2507,-0.4333,0.9656,343,29.1138,5.0659,24.8413,87,1.2736,1.0875,-21.8692,-14.1841,24,0.037,8419,3.9776,149.1611
lg,1625496552335755987,0,0.2729,-0.4165,0.9167,344,40.7715,-13.3057,22.7661,87,1.2756,1.0895,-21.9106,-13.3823,24,0.045,8344,3.9776,150.4104
lg,1625496552335773913,0,0.2854,-0.4062,0.9509,345,44.2505,-21.8506,22.4609,87,1.2766,1.0905,-22.4309,-12.425,24,0.046,8333,3.9776,151.7084
lg,1625496552335791709,0,0.3735,-0.3464,0.8994,346,48.2178,-29.7852,24.4751,87,1.2756,1.0885,-23.345,-11.3532,24,0.043,8544,3.9776,153.1481
lg,1625496552335808803,0,0.4324,-0.2771,0.8445,347,40.9546,-32.0435,27.4658,87,1.2786,1.0895,-24.4918,-10.5686,24,0.041,8402,3.9776,154.6999
lg,1625496552335826173,0,0.4502,-0.2703,0.8909,348,31.189,-26.2451,31.5552,87,1.2776,1.0915,-25.343,-10.235,24,0.029,9494,3.9776,156.3815
lg,1625496552335843914,0,0.4287,-0.2664,0.9058,349,22.583,-16.7236,35.8887,87,1.2786,1.0885,-25.7042,-10.3091,24,0.03,10340,3.9776,158.1852
lg,1625496552335861951,0,0.3738,-0.2573,0.9329,350,14.8315,-15.1367,38.3911,87,1.2816,1.0905,-25.8322,-10.7068,24,0.031,8457,3.9776,160.0757
lg,1625496552335879395,0,0.3455,-0.2756,0.9431,351,10.0708,-16.2964,39.7339,87,1.2776,1.0915,-25.9072,-11.3505,24,0.038,8523,3.9776,162.0488
lg,1625496552336005282,0,0.3191,-0.2925,0.9646,352,5.0049,-23.5596,42.7856,87,1.2786,1.0935,-26.1429,-12.2906,24,0.038,8521,3.9776,164.2276
lg,1625496552709638494,0,0.3093,-0.3262,0.9768,353,0.6714,-37.9639,48.645,87,1.2766,1.0935,-26.806,-13.634,24,0.039,25096,3.9776,166.8392
lg,1625496552709711325,0,0.3264,-0.3025,0.9441,354,0,-41.3818,50.5981,87,1.2736,1.0935,-27.5583,-15.0207,24,0.039,13301,3.9776,169.5804
lg,1625496552709732617,0,0.3169,-0.3125,0.9329,355,-0.7935,-44.1284,50.7202,87,1.2716,1.0935,-28.3106,-16.4848,24,0.039,10739,3.9776,-187.6012
lg,1625496552709770763,0,0.3118,-0.3188,0.9172,356,-1.6479,-48.584,51.6968,87,1.2696,1.0935,-29.1238,-18.0568,24,0.039,8819,3.9776,-184.6411
lg,1625496552709793443,0,0.3301,-0.3423,0.9275,357,-0.6714,-52.2461,52.002,87,1.2686,1.0925,-29.9929,-19.6705,24,0.041,7957,3.9776,-181.5594
lg,1625496552709812053,0,0.3362,-0.3364,0.9336,358,-0.1221,-52.2461,50.9644,87,1.2676,1.0935,-30.7567,-21.27,24,0.04,7944,3.9776,-178.4759
lg,1625496552709831218,0,0.3362,-0.3621,0.9385,359,1.8921,-53.7109,49.4385,87,1.2656,1.0935,-31.5073,-22.7721,24,0.042,9829,3.9776,-175.4021
lg,1625496552709853713,0,0.3367,-0.3806,0.9233,360,5.0049,-55.7861,48.2178,87,1.2646,1.0935,-32.2619,-24.2008,24,0.041,8396,3.9776,-172.2849
lg,1625496552709874155,0,0.3433,-0.3638,0.8826,361,6.958,-55.7251,46.5088,87,1.2636,1.0935,-32.9952,-25.5154,24,0.045,8091,3.9776,-169.215
lg,1625496552709895540,0,0.3242,-0.3628,0.8948,362,8.7891,-55.7861,45.4712,87,1.2616,1.0935,-33.7108,-26.7324,24,0.045,8060,3.9776,-166.1633
lg,1625496552709913909,0,0.3501,-0.3787,0.8909,363,11.0474,-57.8613,44.6777,87,1.2606,1.0935,-34.3892,-27.9068,24,0.045,8041,3.9776,-163.062
lg,1625496552709933611,0,0.3574,-0.3606,0.8821,364,12.5122,-54.3823,43.8843,87,1.2606,1.0925,-34.9138,-28.9259,24,0.045,8140,3.9776,-160.0756
lg,1625496552709953387,0,0.3687,-0.3665,0.8787,365,13.3667,-50.7202,42.1143,87,1.2586,1.0925,-35.307,-29.8321,24,0.044,9217,3.9776,-157.2312
lg,1625496552709971923,0,0.3831,-0.333,0.8755,366,14.9536,-47.7295,40.4663,87,1.2566,1.0925,-35.6307,-30.5039,24,0.044,10236,3.9776,-154.5725
lg,1625496552710007645,0,0.3738,-0.3389,0.8738,367,16.1743,-45.9595,40.1001,87,1.2576,1.0935,-35.7937,-31.072,24,0.045,8186,3.9776,-152.0158
lg,1625496552710029640,0,0.3357,-0.3582,0.8909,368,17.2119,-43.5791,39.6729,87,1.2536,1.0925,-35.8136,-31.5872,24,0.044,8222,3.9776,-149.4778
lg,1625496552710047048,0,0.3323,-0.377,0.8872,369,17.5781,-44.3726,40.5884,87,1.2556,1.0935,-35.8073,-32.1537,24,0.043,8209,3.9776,-146.8576
lg,1625496552710064160,0,0.3374,-0.375,0.875,370,19.5923,-45.7764,40.5273,87,1.2556,1.0925,-35.8483,-32.6494,24,0.044,8285,3.9776,-144.2039
lg,1625496552710081642,0,0.3511,-0.3911,0.8879,371,21.5454,-46.936,40.3442,87,1.2536,1.0915,-35.9247,-33.0926,24,0.044,8285,3.9776,-141.5153
lg,1625496552710099660,0,0.3452,-0.4016,0.8701,372,23.9258,-44.7388,39.917,87,1.2526,1.0935,-35.9135,-33.4267,24,0.042,8332,3.9776,-138.882
lg,1625496552710116642,0,0.3574,-0.3909,0.8584,373,27.71,-45.2881,39.0625,87,1.2576,1.0935,-35.9679,-33.5758,24,0.042,8375,3.9776,-136.2791
lg,1625496552710196373,0,0.335,-0.3867,0.8755,374,32.1655,-43.9453,38.6353,87,1.2546,1.0935,-35.9309,-33.4768,24,0.043,8353,3.9776,-133.7525
lg,1625496552710218147,0,0.3252,-0.3923,0.8701,375,33.0811,-42.7246,38.6963,87,1.2526,1.0915,-35.8384,-33.3424,24,0.042,8389,3.9776,-131.246
lg,1625496552710236369,0,0.3186,-0.4026,0.8816,376,37.4756,-46.6309,38.8184,87,1.2526,1.0915,-35.8585,-33.112,24,0.042,8401,3.9776,-128.6204
lg,1625496552710253832,0,0.322,-0.4089,0.8772,377,42.4805,-48.2178,39.2456,87,1.2546,1.0935,-35.9388,-32.75,24,0.042,8488,3.9776,-125.9176
lg,1625496552710271813,0,0.3491,-0.3452,0.8247,378,44.4946,-47.9736,39.7339,87,1.2546,1.0915,-36.1551,-32.2142,24,0.042,8435,3.9776,-123.2257
lg,1625496552710289369,0,0.366,-0.324,0.8496,379,44.7388,-49.3774,38.7573,87,1.2536,1.0915,-36.4598,-31.6464,24,0.044,8484,3.9776,-120.5978
lg,1625496552710307147,0,0.4287,-0.2874,0.8181,380,38.8184,-46.7529,37.1094,87,1.2536,1.0925,-36.8913,-31.2224,24,0.046,8460,3.9776,-118.1235
lg,1625496552710324980,0,0.4734,-0.3152,0.8513,381,32.7759,-37.1704,35.9497,87,1.2556,1.0905,-37.0594,-30.9374,24,0.047,8513,3.9776,-115.909
lg,1625496552710344385,0,0.4333,-0.3381,0.8667,382,30.6396,-22.2168,33.3252,87,1.2556,1.0925,-36.6723,-30.4792,24,0.048,8525,3.9776,-114.1705
lg,1625496552710362792,0,0.3962,-0.3364,0.8862,383,30.8228,-17.8223,31.6772,87,1.2596,1.0935,-36.028,-29.839,24,0.048,8624,3.9776,-112.6969
lg,1625496552710380958,0,0.3403,-0.3601,0.884,384,32.7148,-18.5547,27.8931,87,1.2566,1.0915,-35.4836,-29.1406,24,0.048,8597,3.9776,-111.2561
lg,1625496553057232086,0,0.3369,-0.3291,0.876,385,34.79,-24.5972,24.4141,87,1.2556,1.0935,-35.2645,-28.3041,24,0.047,26936,3.9776,-109.8498
lg,1625496553057273083,0,0.3469,-0.2957,0.8694,386,34.0576,-23.3765,25.0244,87,1.2556,1.0915,-35.0562,-27.444,24,0.047,9537,3.9776,-108.4791
lg,1625496553057293526,0,0.3799,-0.3188,0.873,387,32.2876,-24.5972,24.7192,87,1.2546,1.0915,-34.9749,-26.7533,24,0.046,8145,3.9776,-107.0455
lg,1625496553057312767,0,0.4099,-0.3621,0.938,388,32.5317,-17.7612,24.4751,87,1.2546,1.0935,-34.5533,-26.0063,24,0.047,14222,3.9776,-105.7836
lg,1625496553057331526,0,0.3643,-0.3755,1.0264,389,34.4238,-9.8267,25.2686,87,1.2546,1.0935,-33.8383,-25.0974,24,0.046,8024,3.9776,-104.626
lg,1625496553057349860,0,0.2971,-0.4053,1.2808,390,39.917,0.7935,28.2593,87,1.2546,1.0935,-32.5176,-23.8227,24,0.048,8069,3.9776,-103.5996
lg,1625496553057368434,0,0.2351,-0.4312,1.6812,391,41.626,16.2964,29.7852,87,1.2556,1.0935,-30.5112,-22.2488,24,0.049,8037,3.9776,-102.836
lg,1625496553057386750,0,0.1472,-0.3948,1.688,392,41.626,37.1704,29.48,91,1.2556,1.0925,-27.7286,-20.4936,24,0.047,8186,3.9732,-102.3963
lg,1625496553057403844,0,0.0557,-0.0671,1.1721,393,29.7241,65.1855,30.8838,91,1.2566,1.0935,-24.0186,-18.5459,24,0.045,10965,3.9732,-102.4862
lg,1625496553057420938,0,0.1541,-0.0364,0.8879,394,-10.0098,27.0386,22.4609,91,1.2566,1.0915,-22.1871,-18.4787,24,0.045,8754,3.9732,-102.2148
lg,1625496553057438292,0,0.3101,-0.3005,0.9624,395,-36.8042,-0.8545,7.4463,91,1.2596,1.0925,-21.9144,-20.0115,24,0.047,7946,3.9732,-101.9217
lg,1625496553057455793,0,0.1799,-0.415,0.9255,396,-39.856,3.8452,0.1221,91,1.2586,1.0905,-21.2807,-21.5857,24,0.047,7971,3.9732,-102.2416
lg,1625496553057473831,0,0.127,-0.448,0.9133,397,-37.9639,0.1221,-11.7798,91,1.2556,1.0905,-20.8967,-23.1126,24,0.046,7991,3.9732,-102.6502
lg,1625496553057490537,0,0.1958,-0.5151,0.8657,398,-33.7524,-28.6255,-16.4795,91,1.2566,1.0935,-21.8161,-24.7135,24,0.046,7984,3.9732,-102.69
lg,1625496553057507243,0,0.3125,-0.5249,0.8286,399,-29.0527,-35.1562,-17.2119,91,1.2546,1.0935,-23.1973,-25.9458,24,0.045,8098,3.9732,-102.5579
lg,1625496553057524615,0,0.3174,-0.5322,0.7961,400,-16.4185,-34.9121,-14.8926,91,1.2516,1.0915,-24.5153,-26.9518,24,0.046,8333,3.9732,-102.3354
lg,1625496553057541487,0,0.4092,-0.5154,0.7874,401,-5.7373,-31.5552,-8.5449,91,1.2536,1.0935,-25.7462,-27.5521,24,0.048,8114,3.9732,-101.9284
lg,1625496553057558193,0,0.4604,-0.488,0.8015,402,9.0942,-22.0337,-4.1504,91,1.2536,1.0935,-26.6111,-27.4594,24,0.046,8668,3.9732,-101.5748
lg,1625496553057575398,0,0.4907,-0.3816,0.7844,403,20.3857,-10.5591,-2.6855,91,1.2526,1.0935,-27.136,-26.6286,24,0.047,8164,3.9732,-101.4969
lg,1625496553057614952,0,0.438,-0.3906,0.8679,404,24.6582,-7.019,-2.8076,91,1.2526,1.0935,-27.3337,-25.5529,24,0.047,10067,3.9732,-101.518
lg,1625496553057633822,0,0.4253,-0.3845,0.9304,405,25.6958,-7.8125,-3.6621,91,1.2526,1.0935,-27.4302,-24.3188,24,0.047,8220,3.9732,-101.613
lg,1625496553057650195,0,0.4282,-0.3459,0.9998,406,27.4658,-7.2021,-1.4648,91,1.2536,1.0935,-27.4991,-23.0341,24,0.048,8218,3.9732,-101.6434
lg,1625496553057671933,0,0.4463,-0.2937,1.0032,407,22.1558,-5.3711,0.4883,91,1.2546,1.0935,-27.5146,-21.922,24,0.049,8241,3.9732,-101.6595
lg,1625496553057690138,0,0.4692,-0.2822,0.9946,408,18.1274,-3.1128,1.9531,91,1.2546,1.0935,-27.3796,-21.0862,24,0.049,8308,3.9732,-101.6931
lg,1625496553057707084,0,0.4773,-0.2385,0.9575,409,8.4839,8.1177,4.0894,91,1.2546,1.0935,-26.9569,-20.4773,24,0.049,8913,3.9732,-101.7856
lg,1625496553057724271,0,0.4246,-0.2742,0.967,410,-3.1738,12.9395,3.1738,91,1.2536,1.0925,-26.2654,-20.3773,24,0.049,8454,3.9732,-101.9447
lg,1625496553057741624,0,0.417,-0.3525,0.9626,411,-10.498,11.7188,2.8076,91,1.2556,1.0935,-25.6188,-20.7498,24,0.049,8348,3.9732,-102.0195
lg,1625496553057758756,0,0.3972,-0.3904,0.9438,412,-10.9863,11.4746,0.8545,91,1.2566,1.0945,-25.005,-21.1808,24,0.049,8553,3.9732,-102.204
lg,1625496553057864134,0,0.3801,-0.429,0.9177,413,-10.1929,10.9253,-1.5869,91,1.2536,1.0925,-24.4428,-21.638,24,0.049,8383,3.9732,-102.3812
lg,1625496553057883282,0,0.3757,-0.4426,0.8894,414,-7.4463,8.9722,-2.7466,91,1.2556,1.0945,-24.001,-22.0182,24,0.049,8440,3.9732,-102.5611
lg,1625496553057901468,0,0.3784,-0.4399,0.8767,415,-0.8545,9.3384,-2.5635,91,1.2546,1.0905,-23.5763,-22.1289,24,0.051,8479,3.9732,-102.7449
lg,1625496553057920412,0,0.3816,-0.4402,0.8687,416,2.3804,10.1318,-2.3193,91,1.2546,1.0945,-23.1446,-21.9856,24,0.05,8449,3.9732,-102.9608
lg,1625496553406491191,0,0.3245,-0.3911,0.8933,417,9.3384,12.6953,-0.1221,91,1.2546,1.0935,-22.484,-21.5937,24,0.05,24839,3.9732,-103.1457
lg,1625496553406569096,0,0.3296,-0.3826,0.915,418,9.8267,10.376,2.7466,91,1.2546,1.0935,-21.8913,-21.2205,24,0.05,8711,3.9732,-103.1839
lg,1625496553406591222,0,0.4119,-0.3765,0.9092,419,9.7046,7.5684,3.2959,91,1.2546,1.0935,-21.5921,-20.89,24,0.05,13962,3.9732,-103.174
lg,1625496553406658120,0,0.4106,-0.3586,0.9185,420,8.7891,9.6436,1.8921,91,1.2546,1.0935,-21.144,-20.4545,24,0.05,9696,3.9732,-103.3035
lg,1625496553406680228,0,0.3643,-0.3198,0.8943,421,9.3384,15.7471,1.709,91,1.2536,1.0945,-20.52,-19.9873,24,0.05,7938,3.9732,-103.4819
lg,1625496553406700856,0,0.2852,-0.321,0.8809,422,5.9204,12.8174,-0.9766,91,1.2536,1.0935,-19.9053,-19.6698,24,0.049,7972,3.9732,-103.708
lg,1625496553406721373,0,0.2573,-0.3599,0.8999,423,2.4414,6.4087,-3.2349,91,1.2536,1.0935,-19.7699,-19.5587,24,0.05,7988,3.9732,-103.819
lg,1625496553406743721,0,0.2874,-0.3662,0.9243,424,1.8311,-4.8828,-4.6997,91,1.2516,1.0925,-19.867,-19.523,24,0.048,9140,3.9732,-103.9109
lg,1625496553406762425,0,0.3088,-0.3496,0.9133,425,1.0376,-11.5356,-6.3477,91,1.2526,1.0935,-20.2872,-19.5022,24,0.05,7887,3.9732,-103.9831
lg,1625496553406781887,0,0.3145,-0.3789,0.8943,426,1.77,-14.6484,-9.0332,91,1.2516,1.0935,-20.8609,-19.5109,24,0.05,10937,3.9732,-104.0903
lg,1625496553406803570,0,0.3181,-0.3809,0.877,427,2.7466,-17.7612,-9.5215,91,1.2516,1.0935,-21.5539,-19.5082,24,0.048,7953,3.9732,-104.1644
lg,1625496553406823310,0,0.3374,-0.3875,0.8745,428,4.5776,-19.165,-10.437,91,1.2506,1.0935,-22.331,-19.422,24,0.048,7981,3.9732,-104.2394
lg,1625496553406842883,0,0.3335,-0.3611,0.8655,429,6.3477,-20.4468,-10.7422,91,1.2496,1.0935,-23.1281,-19.2373,24,0.048,8020,3.9732,-104.3363
lg,1625496553406859904,0,0.3516,-0.3445,0.8606,430,7.8735,-22.644,-10.5591,91,1.2486,1.0935,-24.0199,-18.9773,24,0.048,8061,3.9732,-104.4075
lg,1625496553406902399,0,0.3704,-0.3669,0.8882,431,8.1177,-25.9399,-10.7422,91,1.2476,1.0935,-25.0151,-18.7568,24,0.048,8815,3.9732,-104.4282
lg,1625496553406922601,0,0.3743,-0.3738,0.9131,432,9.1553,-24.7803,-11.0474,91,1.2456,1.0925,-25.8716,-18.4668,24,0.049,8517,3.9732,-104.4868
lg,1625496553406940436,0,0.3657,-0.3562,0.9207,433,10.3149,-22.4609,-10.0708,91,1.2436,1.0915,-26.6223,-18.1122,24,0.05,8110,3.9732,-104.5501
lg,1625496553406957993,0,0.3474,-0.3618,0.9097,434,10.9863,-22.4609,-8.9111,91,1.2446,1.0935,-27.2981,-17.7876,24,0.048,8117,3.9732,-104.5522
lg,1625496553406975124,0,0.3596,-0.3291,0.905,435,9.5825,-24.7803,-7.7515,91,1.2436,1.0945,-28.0565,-17.4953,24,0.049,8130,3.9732,-104.5041
lg,1625496553406993125,0,0.3699,-0.3469,0.9048,436,9.2773,-25.3906,-6.2866,91,1.2406,1.0925,-28.8079,-17.3017,24,0.049,8117,3.9732,-104.3623
lg,1625496553407011311,0,0.3738,-0.3333,0.9006,437,7.4463,-27.771,-5.9814,91,1.2416,1.0935,-29.6309,-17.1834,24,0.049,8177,3.9732,-104.1854
lg,1625496553407028979,0,0.4089,-0.3228,0.8809,438,6.5308,-29.8462,-6.5308,91,1.2396,1.0945,-30.5966,-17.1007,24,0.048,8172,3.9732,-104.006
lg,1625496553407047553,0,0.4236,-0.3401,0.8896,439,5.8594,-28.1372,-7.2632,91,1.2386,1.0935,-31.4851,-17.0552,24,0.046,10561,3.9732,-103.8622
lg,1625496553407065221,0,0.4336,-0.3274,0.9426,440,7.8735,-28.5034,-7.9346,91,1.2376,1.0945,-32.2933,-16.8137,24,0.046,8274,3.9732,-103.7774
lg,1625496553407084184,0,0.3831,-0.365,0.9397,441,11.6577,-19.2871,-5.3101,91,1.2346,1.0895,-32.6329,-16.5499,24,0.045,8341,3.9732,-103.6516
lg,1625496553407102018,0,0.2917,-0.2961,0.8923,442,13.4888,-11.8408,0.6714,91,1.2356,1.0915,-32.4687,-16.1915,24,0.047,8311,3.9732,-103.4177
lg,1625496553407119575,0,0.2878,-0.3203,0.8318,443,12.5732,-18.1885,7.1411,91,1.2356,1.0905,-32.5095,-16.2073,24,0.047,8336,3.9732,-102.7348
lg,1625496553407137927,0,0.3599,-0.2861,0.8105,444,8.3008,-29.541,3.8452,91,1.2376,1.0935,-33.1824,-16.3812,24,0.047,8395,3.9732,-102.0566
lg,1625496553407181070,0,0.5225,-0.3223,0.8899,445,6.897,-41.9312,-0.3052,91,1.2326,1.0935,-34.6094,-16.5603,24,0.047,8381,3.9732,-101.4164
lg,1625496553407202716,0,0.4722,-0.4177,0.9888,446,9.0332,-25.3296,-3.7231,91,1.2336,1.0925,-35.1885,-16.5772,24,0.047,8398,3.9732,-101.0787
lg,1625496553407220495,0,0.2957,-0.3218,0.895,447,18.0664,-2.7466,2.9297,91,1.2336,1.0945,-34.5572,-16.1017,24,0.048,8430,3.9732,-100.8168
lg,1625496553407238940,0,0.2747,-0.2935,0.8552,448,18.7988,-8.8501,5.8594,91,1.2326,1.0945,-34.2839,-15.6786,24,0.047,8508,3.9732,-100.3631
lg,1625496553789755917,0,0.2981,-0.2998,0.8713,449,19.8364,-20.6299,3.479,91,1.2336,1.0935,-34.3938,-15.2782,24,0.046,25855,3.9732,-99.8461
lg,1625496553789803518,0,0.3972,-0.2808,0.9114,450,15.9302,-40.7104,2.4414,91,1.2336,1.0935,-35.4604,-15.0855,24,0.045,14097,3.9732,-99.1626
lg,1625496553789825330,0,0.4788,-0.2581,0.9111,451,15.2588,-40.4663,2.0142,91,1.2336,1.0945,-36.6197,-15.0177,24,0.046,7969,3.9732,-98.6212
lg,1625496553789846014,0,0.5332,-0.3162,0.9426,452,10.6201,-29.7852,0.3052,91,1.2346,1.0945,-37.4216,-14.9857,24,0.047,7980,3.9732,-98.1277
lg,1625496553789866475,0,0.4192,-0.2771,0.927,453,10.437,-12.7563,1.3428,91,1.2346,1.0945,-37.3407,-14.7817,24,0.047,7932,3.9732,-97.8512
lg,1625496553789885475,0,0.3882,-0.2542,0.8989,454,8.9722,-13.7329,0.061,91,1.2346,1.0935,-37.3323,-14.6023,24,0.047,8051,3.9732,-97.7226
lg,1625496553789904697,0,0.3638,-0.2795,0.8994,455,5.8594,-18.2495,-0.8545,91,1.2336,1.0955,-37.4027,-14.6034,24,0.046,8504,3.9732,-97.4582
lg,1625496553789924770,0,0.3596,-0.2764,0.8816,456,4.3945,-24.353,-1.77,91,1.2336,1.0935,-37.7206,-14.6906,24,0.047,9497,3.9732,-97.1553
lg,1625496553789943030,0,0.3555,-0.3123,0.8674,457,3.6621,-31.189,-3.6621,91,1.2336,1.0935,-38.3044,-14.9169,24,0.048,10150,3.9732,-96.7848
lg,1625496553789960235,0,0.4023,-0.3303,0.8674,458,4.2114,-35.5225,-5.3711,91,1.2356,1.0915,-39.1398,-15.1486,24,0.047,8165,3.9732,-96.4075
lg,1625496553789976941,0,0.4092,-0.2966,0.896,459,5.3711,-34.9121,-7.4463,91,1.2366,1.0945,-39.9361,-15.1431,24,0.046,8132,3.9732,-96.2125
lg,1625496553790018641,0,0.4089,-0.2874,0.8982,460,6.5918,-37.5977,-7.9956,91,1.2336,1.0935,-40.8104,-15.0707,24,0.047,8141,3.9732,-96.0228
lg,1625496553790038270,0,0.4626,-0.3179,0.8713,461,7.3242,-42.6636,-9.2163,91,1.2356,1.0935,-41.978,-15.0865,24,0.047,8131,3.9732,-95.7507
lg,1625496553790055531,0,0.5076,-0.3093,0.8718,462,7.5073,-39.917,-8.667,91,1.2366,1.0945,-43.074,-15.0662,24,0.047,8163,3.9732,-95.5
lg,1625496553790073180,0,0.5129,-0.3181,0.8679,463,7.9346,-38.0249,-9.5215,91,1.2376,1.0955,-44.0548,-14.9279,24,0.047,8174,3.9732,-95.3507
lg,1625496553790093271,0,0.5427,-0.313,0.8889,464,8.9722,-33.6914,-9.6436,91,1.2366,1.0955,-44.8869,-14.7542,24,0.049,8225,3.9732,-95.2385
lg,1625496553790110606,0,0.5322,-0.3347,0.8577,465,11.2305,-27.9541,-7.5073,91,1.2376,1.0935,-45.4532,-14.6149,24,0.048,8255,3.9732,-95.0215
lg,1625496553790129051,0,0.5129,-0.3276,0.8621,466,13.0615,-23.4375,-5.6152,91,1.2406,1.0935,-45.7684,-14.4155,24,0.047,8301,3.9732,-94.7759
lg,1625496553790146478,0,0.5222,-0.3215,0.8733,467,13.3057,-22.7051,-4.7607,91,1.2396,1.0955,-46.0422,-14.2112,24,0.047,8327,3.9732,-94.5101
lg,1625496553790163517,0,0.5759,-0.3269,0.8779,468,14.8315,-20.6299,-3.7231,91,1.2396,1.0945,-46.3032,-13.9788,24,0.047,8306,3.9732,-94.2086
lg,1625496553790181130,0,0.5911,-0.311,0.8596,469,17.1509,-12.2681,-1.2817,91,1.2416,1.0935,-46.2579,-13.648,24,0.047,8290,3.9732,-93.9033
lg,1625496553790198187,0,0.5847,-0.314,0.865,470,18.5547,-8.9111,-1.4648,91,1.2416,1.0965,-45.9706,-13.2329,24,0.047,8375,3.9732,-93.6573
lg,1625496553790214615,0,0.5708,-0.3015,0.8657,471,19.4092,-2.7466,-0.3052,91,1.2406,1.0945,-45.5248,-12.7588,24,0.047,8369,3.9732,-93.4297
lg,1625496553790232616,0,0.5417,-0.2896,0.8882,472,17.5781,3.0518,1.0376,91,1.2426,1.0955,-44.7867,-12.1499,24,0.047,10682,3.9732,-93.3522
lg,1625496553790251098,0,0.5227,-0.2236,0.8604,473,16.0522,5.9204,3.6621,91,1.2416,1.0955,-43.9553,-11.7168,24,0.047,8502,3.9732,-93.1378
lg,1625496553790268933,0,0.5205,-0.2407,0.876,474,10.9863,7.8125,3.6011,91,1.2426,1.0955,-43.0598,-11.5235,24,0.047,8482,3.9732,-92.9103
lg,1625496553790303898,0,0.4209,-0.2913,0.8623,475,6.5308,8.7891,2.2583,91,1.2426,1.0955,-41.9907,-11.6231,24,0.048,8536,3.9732,-92.65
lg,1625496553790325174,0,0.4036,-0.2734,0.8618,476,4.9438,0.8545,1.8921,91,1.2426,1.0955,-41.2417,-11.7702,24,0.048,9182,3.9732,-92.3684
lg,1625496553790343545,0,0.4209,-0.2671,0.8628,477,4.1504,-4.8218,0.7935,91,1.2426,1.0955,-40.8127,-12.0485,24,0.048,8973,3.9732,-92.0208
lg,1625496553790360842,0,0.4258,-0.3025,0.8691,478,5.4932,-7.3242,-0.8545,91,1.2416,1.0945,-40.4806,-12.1869,24,0.048,9133,3.9732,-91.7638
lg,1625496553790378732,0,0.4429,-0.2776,0.8701,479,7.2021,-9.3994,-1.5259,91,1.2416,1.0955,-40.2829,-12.1703,24,0.048,8666,3.9732,-91.5711
lg,1625496553790395808,0,0.4517,-0.2737,0.8762,480,7.6904,-13.3667,-1.709,91,1.2436,1.0965,-40.2603,-12.1399,24,0.047,8630,3.9732,-91.3552
lg,1625496554146565645,0,0.5042,-0.2727,0.8906,481,3.9062,-15.0757,-2.1362,91,1.2436,1.0955,-40.422,-12.2898,24,0.049,25088,3.9732,-91.1218
lg,1625496554146612435,0,0.5176,-0.2896,0.8955,482,1.4038,-12.5732,-2.0752,91,1.2436,1.0945,-40.501,-12.5115,24,0.048,9472,3.9732,-90.9195
lg,1625496554146633712,0,0.4707,-0.303,0.886,483,0.4883,-7.2632,-1.1597,91,1.2446,1.0955,-40.2488,-12.798,24,0.049,11852,3.9732,-90.7054
lg,1625496554146653305,0,0.4521,-0.2786,0.8545,484,1.2207,-9.0942,-2.0142,91,1.2446,1.0955,-40.0838,-12.9898,24,0.049,10135,3.9732,-90.5465
lg,1625496554146671844,0,0.499,-0.3115,0.856,485,0.5493,-12.8784,-2.6855,91,1.2446,1.0955,-40.1585,-13.2912,24,0.048,8103,3.9732,-90.3268
lg,1625496554146692047,0,0.5017,-0.2803,0.876,486,0.3662,-12.4512,-2.8687,91,1.2446,1.0945,-40.2176,-13.5477,24,0.048,7988,3.9732,-90.1472
lg,1625496554146710419,0,0.5007,-0.3115,0.8599,487,0.7324,-9.7046,-2.7466,91,1.2446,1.0945,-40.1628,-13.7898,24,0.048,8000,3.9732,-89.9817
lg,1625496554146728921,0,0.5051,-0.2964,0.8518,488,1.8311,-8.667,-2.7466,91,1.2436,1.0945,-40.0894,-13.9357,24,0.048,8026,3.9732,-89.8569
lg,1625496554146773140,0,0.4897,-0.2991,0.8704,489,2.0142,-8.728,-1.709,91,1.2446,1.0945,-39.9628,-14.0952,24,0.048,8681,3.9732,-89.687
lg,1625496554146792381,0,0.5125,-0.2905,0.8694,490,2.9907,-6.958,-1.9531,91,1.2436,1.0945,-39.7996,-14.2266,25,0.048,8666,3.9732,-89.5301
lg,1625496554146810716,0,0.5056,-0.2961,0.8708,491,3.8452,-6.897,-0.9155,91,1.2436,1.0945,-39.635,-14.3011,25,0.048,7971,3.9732,-89.3578
lg,1625496554146828644,0,0.4802,-0.2708,0.833,492,6.0425,-5.3711,0,91,1.2436,1.0945,-39.406,-14.2662,25,0.048,7981,3.9732,-89.184
lg,1625496554146846739,0,0.48,-0.2861,0.866,493,3.3569,-8.1177,-0.6714,91,1.2446,1.0945,-39.2604,-14.3541,25,0.048,10343,3.9732,-88.9999
lg,1625496554146864241,0,0.4714,-0.2878,0.865,494,2.2583,-9.5215,0.4272,91,1.2436,1.0945,-39.1476,-14.5339,24,0.049,8667,3.9732,-88.7414
lg,1625496554146882299,0,0.5051,-0.3079,0.8711,495,1.6479,-11.1084,-0.2441,91,1.2436,1.0945,-39.159,-14.7677,24,0.047,8036,3.9732,-88.4708
lg,1625496554146901022,0,0.4927,-0.2996,0.8528,496,3.1738,-9.2163,0.3052,91,1.2446,1.0935,-39.088,-14.928,24,0.047,8070,3.9732,-88.2056
lg,1625496554146918747,0,0.4841,-0.3091,0.8667,497,2.9297,-9.5215,-0.3662,91,1.2446,1.0935,-39.0056,-15.0866,24,0.047,8070,3.9732,-87.9648
lg,1625496554147004205,0,0.5012,-0.2854,0.8735,498,3.2349,-11.0474,-0.3052,91,1.2446,1.0935,-39.015,-15.1712,24,0.048,8100,3.9732,-87.7485
lg,1625496554147024335,0,0.5112,-0.2913,0.8638,499,3.1738,-11.2915,-0.3052,91,1.2436,1.0935,-39.06,-15.2802,24,0.047,9190,3.9732,-87.5155
lg,1625496554147043243,0,0.5083,-0.2944,0.8545,500,2.2583,-9.3384,-0.061,91,1.2436,1.0935,-39.0287,-15.4292,24,0.048,8127,3.9732,-87.2885
lg,1625496554147061856,0,0.5034,-0.271,0.8442,501,2.0752,-11.6577,0.2441,91,1.2446,1.0935,-39.0917,-15.5549,24,0.048,8155,3.9732,-87.0518
lg,1625496554147079580,0,0.551,-0.321,0.8572,502,0.061,-11.2305,-1.5869,91,1.2446,1.0935,-39.2152,-15.8138,24,0.048,8151,3.9732,-86.8385
lg,1625496554147097545,0,0.5173,-0.3127,0.8464,503,1.0376,-7.1411,-1.5869,91,1.2446,1.0945,-39.1289,-15.9787,24,0.048,8228,3.9732,-86.6934
lg,1625496554147132365,0,0.4932,-0.2954,0.856,504,1.5259,-8.1787,-2.0752,91,1.2426,1.0915,-39.0406,-16.0582,24,0.049,8290,3.9732,-86.5955
lg,1625496554147150571,0,0.4993,-0.324,0.8572,505,1.77,-8.9722,-1.9531,87,1.2446,1.0935,-38.9871,-16.21,24,0.048,8262,3.9765,-86.4347
lg,1625496554147167981,0,0.4973,-0.3206,0.8796,506,2.7466,-8.4839,-2.0142,87,1.2456,1.0905,-38.849,-16.2187,24,0.047,8325,3.9765,-86.3586
lg,1625496554147184909,0,0.5129,-0.3188,0.8379,507,4.0894,-7.9346,-2.2583,87,1.2426,1.0925,-38.8133,-16.2556,24,0.047,8338,3.9765,-86.2299
lg,1625496554147202042,0,0.5356,-0.3193,0.8489,508,4.6997,-5.0659,-0.7935,87,1.2456,1.0945,-38.6833,-16.2748,24,0.048,8333,3.9765,-86.0784
lg,1625496554147219304,0,0.5173,-0.3162,0.8457,509,5.0049,-2.6245,-0.1221,87,1.2456,1.0905,-38.4282,-16.2754,24,0.048,8355,3.9765,-85.9326
lg,1625496554147336677,0,0.5215,-0.2922,0.8726,510,4.7607,-2.6855,0.1831,87,1.2456,1.0935,-38.1932,-16.2556,24,0.048,8377,3.9765,-85.7297
lg,1625496554147364800,0,0.5273,-0.3091,0.845,511,5.6763,-2.5024,1.6479,87,1.2436,1.0885,-37.9543,-16.2624,24,0.048,8388,3.9765,-85.5126
lg,1625496554147385799,0,0.5176,-0.311,0.856,512,5.5542,0.5493,1.6479,87,1.2436,1.0945,-37.5782,-16.2417,24,0.047,8727,3.9765,-85.3429
lg,1625496554510830819,0,0.481,-0.2839,0.8481,513,4.4556,-5.9204,-1.0376,87,1.2436,1.0935,-37.4404,-16.179,24,0.048,26442,3.9765,-85.2508
lg,1625496554510878830,0,0.4749,-0.2837,0.8521,514,4.9438,-6.3477,-0.7324,87,1.2456,1.0935,-37.3053,-16.1079,24,0.047,8949,3.9765,-85.1392
lg,1625496554510910505,0,0.4993,-0.2974,0.8669,515,4.1504,-9.2163,-2.3804,87,1.2456,1.0905,-37.3313,-16.0691,24,0.047,8742,3.9765,-85.0524
lg,1625496554510958109,0,0.4751,-0.2756,0.8618,516,3.2959,-7.5073,-1.5259,87,1.2456,1.0935,-37.2468,-16.0248,24,0.047,10665,3.9765,-84.9792
lg,1625496554510992023,0,0.4893,-0.2915,0.8574,517,2.8687,-10.8643,-1.5259,87,1.2456,1.0935,-37.3209,-16.0726,24,0.046,8029,3.9765,-84.8306
lg,1625496554511023642,0,0.5076,-0.2861,0.8501,518,3.479,-10.1318,-1.3428,87,1.2456,1.0935,-37.4059,-16.0848,24,0.047,8050,3.9765,-84.6895
lg,1625496554511072171,0,0.5205,-0.3049,0.8477,519,2.9297,-9.8877,-1.4648,87,1.2466,1.0935,-37.5008,-16.1637,24,0.046,8028,3.9765,-84.5266
lg,1625496554511091431,0,0.5217,-0.3005,0.8596,520,3.54,-9.2773,-0.6714,87,1.2466,1.0935,-37.5508,-16.2117,24,0.047,8947,3.9765,-84.3484
lg,1625496554511108915,0,0.5369,-0.3037,0.8523,521,2.9297,-7.0801,-1.5259,87,1.2446,1.0925,-37.5589,-16.2517,24,0.047,8950,3.9765,-84.2352
lg,1625496554511126399,0,0.5081,-0.302,0.855,522,3.8452,-3.1128,-1.1597,87,1.2466,1.0925,-37.3554,-16.2253,24,0.047,8077,3.9765,-84.1644
lg,1625496554511143846,0,0.4963,-0.3171,0.8557,523,4.8218,-4.3335,-1.4038,87,1.2466,1.0935,-37.2122,-16.2447,24,0.047,8052,3.9765,-84.0401
lg,1625496554511166196,0,0.5068,-0.3079,0.873,524,5.127,-2.6245,-0.3662,87,1.2466,1.0905,-36.9728,-16.1854,24,0.047,8159,3.9765,-83.939
lg,1625496554511196039,0,0.4839,-0.3044,0.8611,525,4.5166,-3.2959,-0.6714,87,1.2476,1.0935,-36.7414,-16.1523,24,0.046,8112,3.9765,-83.8407
lg,1625496554511215355,0,0.4998,-0.2971,0.8687,526,4.6997,-5.4321,-1.8311,87,1.2476,1.0925,-36.6383,-16.071,24,0.047,8086,3.9765,-83.7841
lg,1625496554511242644,0,0.49,-0.2786,0.8579,527,4.9438,-3.0518,-0.2441,87,1.2466,1.0925,-36.4281,-15.9702,24,0.047,8205,3.9765,-83.7061
lg,1625496554511263292,0,0.4985,-0.2937,0.8511,528,4.1504,-5.7373,-1.2817,87,1.2476,1.0935,-36.3595,-15.942,24,0.047,8213,3.9765,-83.6123
lg,1625496554511281405,0,0.511,-0.3035,0.8638,529,3.8452,-5.8594,-1.6479,87,1.2486,1.0935,-36.3101,-15.9311,24,0.047,9574,3.9765,-83.5258
lg,1625496554511300647,0,0.4785,-0.2834,0.8511,530,4.7607,-0.7935,-0.6104,87,1.2466,1.0935,-36.0141,-15.8334,24,0.047,9932,3.9765,-83.4822
lg,1625496554511325124,0,0.4854,-0.2983,0.8713,531,3.7231,-5.6152,-0.2441,87,1.2486,1.0935,-35.8994,-15.8505,24,0.046,8197,3.9765,-83.3417
lg,1625496554511342775,0,0.5063,-0.3127,0.8723,532,4.0894,-6.7139,0,87,1.2486,1.0925,-35.8562,-15.8494,24,0.047,8239,3.9765,-83.1862
lg,1625496554511360573,0,0.4927,-0.2922,0.8613,533,5.5542,-5.9814,0.2441,87,1.2476,1.0925,-35.7819,-15.8013,24,0.047,8228,3.9765,-83.0228
lg,1625496554511395689,0,0.5046,-0.2886,0.8696,534,4.2725,-7.0801,-0.6714,87,1.2506,1.0935,-35.7779,-15.7724,24,0.047,8297,3.9765,-82.8974
lg,1625496554511414616,0,0.4963,-0.2825,0.8433,535,4.4556,-5.6152,-0.2441,87,1.2496,1.0915,-35.7263,-15.7441,24,0.047,8463,3.9765,-82.7671
lg,1625496554511431785,0,0.479,-0.2839,0.8762,536,4.0283,-5.8594,0.061,87,1.2476,1.0925,-35.616,-15.7216,25,0.047,8358,3.9765,-82.6318
lg,1625496554511448881,0,0.4805,-0.2852,0.8301,537,4.2725,-7.4463,0.3662,87,1.2476,1.0935,-35.6167,-15.7526,25,0.047,8403,3.9765,-82.4361
lg,1625496554511465680,0,0.5017,-0.2993,0.8489,538,4.7607,-10.7422,0,87,1.2496,1.0935,-35.7647,-15.7981,25,0.047,8403,3.9765,-82.2025
lg,1625496554511495856,0,0.4968,-0.2861,0.8586,539,5.0049,-10.437,0.7935,87,1.2496,1.0935,-35.8709,-15.8105,25,0.047,11269,3.9765,-81.9601
lg,1625496554511514062,0,0.5349,-0.3003,0.8499,540,4.1504,-10.1929,1.0376,87,1.2496,1.0935,-36.0373,-15.9035,24,0.047,8801,3.9765,-81.6845
lg,1625496554511608975,0,0.5366,-0.3062,0.8533,541,4.5776,-8.3008,1.0376,87,1.2496,1.0935,-36.1222,-15.9733,24,0.047,8497,3.9765,-81.4286
lg,1625496554511635746,0,0.5393,-0.302,0.8467,542,5.0659,-7.6904,1.5259,87,1.2506,1.0935,-36.1329,-16.0093,24,0.047,8536,3.9765,-81.171
lg,1625496554511788994,0,0.5046,-0.2905,0.8682,543,5.188,-2.9907,1.9531,87,1.2506,1.0935,-35.9303,-15.9832,24,0.047,8557,3.9765,-80.9762
lg,1625496554511812769,0,0.4929,-0.3037,0.8501,544,4.5166,-3.418,2.3193,87,1.2496,1.0935,-35.7403,-16.0474,24,0.046,8642,3.9765,-80.7289
lg,1625496554868529747,0,0.4678,-0.3015,0.854,545,5.0049,-6.2256,1.77,87,1.2506,1.0935,-35.6063,-16.0936,24,0.046,25211,3.9765,-80.4962
lg,1625496554868606935,0,0.4814,-0.3013,0.8701,546,4.0283,-6.1646,1.6479,87,1.2506,1.0915,-35.6224,-16.1272,24,0.047,8804,3.9765,-80.2319
lg,1625496554868631043,0,0.4868,-0.3147,0.8569,547,4.1504,-10.437,1.0376,87,1.2506,1.0935,-35.7048,-16.2423,24,0.048,14181,3.9765,-79.9398
lg,1625496554868650359,0,0.5146,-0.3198,0.8452,548,4.3335,-9.0332,1.2817,87,1.2506,1.0935,-35.7791,-16.3458,24,0.047,10810,3.9765,-79.6547
lg,1625496554868722477,0,0.5085,-0.3196,0.866,549,5.249,-9.2163,1.3428,87,1.2516,1.0925,-35.8352,-16.411,24,0.047,7945,3.9765,-79.3665
lg,1625496554868747251,0,0.4988,-0.3025,0.8608,550,5.3711,-8.9722,1.2207,87,1.2516,1.0935,-35.8726,-16.4255,24,0.048,7990,3.9765,-79.111
lg,1625496554868765383,0,0.5042,-0.3062,0.8542,551,5.0659,-8.0566,1.0986,87,1.2516,1.0935,-35.921,-16.417,24,0.047,8040,3.9765,-78.8884
lg,1625496554868784291,0,0.5266,-0.2969,0.835,552,4.7607,-7.5684,0.7324,87,1.2516,1.0935,-35.988,-16.4374,24,0.047,8025,3.9765,-78.6716
lg,1625496554868801664,0,0.5037,-0.293,0.8542,553,4.7607,-7.5684,1.4648,87,1.2506,1.0925,-35.9816,-16.4521,24,0.046,9615,3.9765,-78.4354
lg,1625496554868819796,0,0.4971,-0.3103,0.8523,554,4.3335,-6.5308,1.5259,87,1.2506,1.0925,-35.9196,-16.5229,24,0.047,8078,3.9765,-78.1836
lg,1625496554868838982,0,0.4917,-0.3008,0.8552,555,4.6997,-7.3853,1.5869,87,1.2516,1.0905,-35.8899,-16.5937,24,0.047,8049,3.9765,-77.9132
lg,1625496554868858223,0,0.52,-0.3157,0.8525,556,4.8218,-8.9111,1.709,87,1.2506,1.0915,-35.9609,-16.6758,24,0.047,8132,3.9765,-77.6151
lg,1625496554868875689,0,0.5151,-0.3267,0.8518,557,4.9438,-7.6294,1.5869,87,1.2526,1.0935,-35.9698,-16.7648,24,0.047,8113,3.9765,-77.3252
lg,1625496554868895004,0,0.4983,-0.3276,0.8496,558,4.4556,-5.4932,1.8921,87,1.2516,1.0935,-35.9106,-16.7204,24,0.047,8131,3.9765,-77.1292
lg,1625496554868913025,0,0.4929,-0.3203,0.8518,559,6.0425,-6.897,0.9766,87,1.2506,1.0915,-35.8605,-16.726,24,0.047,8212,3.9765,-76.8884
lg,1625496554868930694,0,0.5,-0.3071,0.844,560,6.0425,-8.2397,0.8545,87,1.2516,1.0935,-35.8902,-16.712,24,0.047,8167,3.9765,-76.6506
lg,1625496554868948030,0,0.5044,-0.3132,0.8438,561,5.7373,-7.9346,0.8545,87,1.2526,1.0935,-35.9139,-16.7238,24,0.048,12375,3.9765,-76.4076
lg,1625496554868966864,0,0.4963,-0.2983,0.8528,562,5.9814,-6.4697,1.0376,87,1.2516,1.0925,-35.8586,-16.6725,24,0.047,8420,3.9765,-76.2041
lg,1625496554868984663,0,0.5081,-0.3008,0.8438,563,4.4556,-8.667,0.7935,87,1.2526,1.0935,-35.923,-16.7091,24,0.047,8271,3.9765,-75.9718
lg,1625496554869028104,0,0.5215,-0.3242,0.8462,564,3.7842,-8.4229,1.0376,87,1.2526,1.0935,-36.0072,-16.7785,24,0.047,8408,3.9765,-75.7038
lg,1625496554869047586,0,0.509,-0.3025,0.8462,565,6.3477,-8.4839,0.8545,87,1.2516,1.0935,-36.0565,-16.7386,24,0.047,8514,3.9765,-75.4714
lg,1625496554869068733,0,0.4846,-0.3003,0.8494,566,6.0425,-7.9346,0.2441,87,1.2516,1.0935,-36.041,-16.6838,24,0.047,10545,3.9765,-75.279
lg,1625496554869086199,0,0.5063,-0.3062,0.8491,567,5.188,-8.8501,0.3662,87,1.2516,1.0895,-36.0996,-16.6904,24,0.046,8845,3.9765,-75.0584
lg,1625496554869105033,0,0.5212,-0.3223,0.865,568,4.8828,-6.958,-0.6104,87,1.2526,1.0935,-36.1019,-16.6917,24,0.046,8347,3.9765,-74.8958
lg,1625496554869125977,0,0.5081,-0.3147,0.8528,569,6.3477,-6.6528,-0.3052,87,1.2526,1.0895,-36.0791,-16.6332,24,0.047,8370,3.9765,-74.7274
lg,1625496554869144553,0,0.5151,-0.3169,0.8423,570,5.6152,-6.5308,-0.7324,87,1.2546,1.0935,-35.9889,-16.5673,24,0.047,8391,3.9765,-74.6215
lg,1625496554869162814,0,0.5066,-0.3228,0.8557,571,5.249,-5.0049,-1.4648,87,1.2516,1.0925,-35.9132,-16.5289,24,0.047,8392,3.9765,-74.5189
lg,1625496554869180982,0,0.4919,-0.313,0.8555,572,5.6152,-5.249,-0.7935,87,1.2526,1.0935,-35.8175,-16.4746,24,0.047,8494,3.9765,-74.3944
lg,1625496554869199280,0,0.491,-0.3035,0.8486,573,6.1035,-4.8828,-0.5493,87,1.2526,1.0935,-35.7167,-16.3882,24,0.047,8430,3.9765,-74.2735
lg,1625496554869217264,0,0.51,-0.2971,0.854,574,5.4321,-5.6152,-0.1221,87,1.2566,1.0935,-35.6314,-16.3743,24,0.047,8487,3.9765,-74.1173
lg,1625496554869235081,0,0.4983,-0.2991,0.8479,575,5.0659,-5.9204,-0.4272,87,1.2516,1.0915,-35.5923,-16.3335,24,0.047,8492,3.9765,-73.9813
lg,1625496554869252472,0,0.4937,-0.2979,0.8503,576,5.9814,-6.7139,-0.3662,87,1.2536,1.0915,-35.5735,-16.2609,24,0.047,8590,3.9765,-73.8336
lg,1625496555246119500,0,0.5051,-0.3054,0.8521,577,5.127,-8.667,-1.0376,87,1.2536,1.0925,-35.6483,-16.2497,24,0.047,24916,3.9765,-73.691
lg,1625496555246167736,0,0.5186,-0.3093,0.8469,578,5.0659,-7.8125,-0.9766,87,1.2526,1.0935,-35.6731,-16.2382,24,0.047,9220,3.9765,-73.5272
lg,1625496555246212808,0,0.5024,-0.3059,0.8457,579,5.0659,-4.8828,-0.5493,87,1.2526,1.0935,-35.6026,-16.2105,24,0.047,10862,3.9765,-73.3971
lg,1625496555246233531,0,0.5125,-0.3306,0.8591,580,5.7373,-6.7749,-0.2441,87,1.2536,1.0935,-35.6019,-16.23,24,0.048,7984,3.9765,-73.197
lg,1625496555246253736,0,0.4802,-0.3135,0.8481,581,5.7373,-5.0049,-0.2441,87,1.2526,1.0935,-35.5023,-16.1654,24,0.048,7942,3.9765,-73.0347
lg,1625496555246272571,0,0.4836,-0.3176,0.8518,582,6.3477,-5.5542,-0.4883,87,1.2526,1.0935,-35.4183,-16.122,24,0.047,8875,3.9765,-72.8764
lg,1625496555246290297,0,0.5027,-0.3057,0.8613,583,5.9204,-6.7749,-0.7324,87,1.2526,1.0935,-35.417,-16.06,24,0.047,9843,3.9765,-72.7358
lg,1625496555246307911,0,0.498,-0.3259,0.8545,584,5.6152,-6.1646,-0.7935,87,1.2526,1.0935,-35.3857,-16.0636,24,0.047,8087,3.9765,-72.5716
lg,1625496555246324878,0,0.5081,-0.2805,0.8464,585,6.2256,-6.5918,-0.7935,87,1.2526,1.0935,-35.4123,-15.9365,24,0.047,8061,3.9765,-72.4659
lg,1625496555246342345,0,0.5017,-0.3088,0.8594,586,5.3711,-6.897,-0.9155,87,1.2526,1.0935,-35.4515,-15.954,24,0.048,8127,3.9765,-72.297
lg,1625496555246359126,0,0.5081,-0.3086,0.8403,587,5.249,-4.9438,-1.4648,87,1.2526,1.0935,-35.4182,-15.9163,24,0.047,8720,3.9765,-72.1977
lg,1625496555246376408,0,0.5017,-0.3062,0.8467,588,5.4321,-5.4932,-0.5493,87,1.2526,1.0935,-35.3792,-15.8909,24,0.047,8279,3.9765,-72.0537
lg,1625496555246393301,0,0.5171,-0.304,0.8462,589,5.127,-7.9346,-0.4883,87,1.2536,1.0935,-35.4648,-15.893,24,0.047,8198,3.9765,-71.8772
lg,1625496555246409861,0,0.5188,-0.3101,0.8538,590,5.4321,-5.4932,-0.1221,87,1.2536,1.0935,-35.3875,-15.9117,24,0.048,8171,3.9765,-71.6939
lg,1625496555246427586,0,0.5117,-0.2996,0.8542,591,6.1035,-4.5166,-0.3052,87,1.2526,1.0945,-35.3227,-15.8346,24,0.048,8190,3.9765,-71.5657
lg,1625496555246445367,0,0.5127,-0.3157,0.8547,592,6.2256,-4.1504,-0.3052,87,1.2546,1.0945,-35.2435,-15.7928,24,0.048,8251,3.9765,-71.4175
lg,1625496555246462889,0,0.4958,-0.3125,0.8528,593,5.6763,-3.3569,-0.3052,87,1.2536,1.0935,-35.1605,-15.748,24,0.047,8272,3.9765,-71.2795
lg,1625496555246491938,0,0.51,-0.314,0.8516,594,6.5308,-4.0894,0,87,1.2526,1.0925,-35.0809,-15.7036,24,0.047,8293,3.9765,-71.1175
lg,1625496555246510422,0,0.5012,-0.3086,0.8503,595,5.3101,-3.2349,-0.5493,87,1.2536,1.0945,-34.9638,-15.6762,24,0.047,8325,3.9765,-70.9989
lg,1625496555246527445,0,0.5032,-0.323,0.8433,596,5.3101,-4.7607,-0.4883,87,1.2566,1.0935,-34.9162,-15.7053,24,0.048,8312,3.9765,-70.8326
lg,1625496555246543986,0,0.4902,-0.3025,0.8503,597,5.6763,-6.5308,-1.3428,87,1.2536,1.0945,-34.9853,-15.6917,24,0.048,8330,3.9765,-70.6986
lg,1625496555246560712,0,0.4934,-0.3115,0.8506,598,6.0425,-7.1411,-1.77,87,1.2546,1.0905,-35.019,-15.6401,24,0.048,8425,3.9765,-70.5812
lg,1625496555246578123,0,0.5017,-0.2993,0.8398,599,5.9204,-5.3101,-1.9531,87,1.2536,1.0915,-35.0135,-15.5542,24,0.048,8404,3.9765,-70.5085
lg,1625496555246597384,0,0.5137,-0.3,0.8425,600,6.2256,-7.5073,-1.709,87,1.2546,1.0945,-35.1097,-15.4812,24,0.048,8444,3.9765,-70.3946
lg,1625496555246615406,0,0.5137,-0.2871,0.8525,601,6.1035,-6.5308,-2.3804,87,1.2536,1.0915,-35.0976,-15.406,24,0.048,8481,3.9765,-70.3555
lg,1625496555246632872,0,0.5115,-0.2942,0.8572,602,6.1035,-6.1646,-1.9531,87,1.2546,1.0935,-35.039,-15.3125,24,0.048,8927,3.9765,-70.2825
lg,1625496555246650135,0,0.5088,-0.3088,0.8611,603,6.1035,-6.4697,-1.1597,87,1.2546,1.0915,-35.0581,-15.2678,24,0.048,8506,3.9765,-70.1477
lg,1625496555246666769,0,0.4968,-0.3123,0.8635,604,6.7139,-3.9673,-1.5869,87,1.2526,1.0925,-34.9591,-15.178,24,0.048,8582,3.9765,-70.06
lg,1625496555246683440,0,0.4766,-0.2959,0.8511,605,6.4087,-4.0894,-1.3428,87,1.2536,1.0925,-34.8441,-15.082,24,0.048,8580,3.9765,-69.9748
lg,1625496555246700388,0,0.5085,-0.3027,0.8613,606,5.249,-6.4697,-0.4883,87,1.2566,1.0945,-34.8652,-15.0825,24,0.048,9217,3.9765,-69.8137
lg,1625496555246717152,0,0.5198,-0.314,0.8467,607,5.4321,-3.7842,-1.0986,87,1.2556,1.0945,-34.8219,-15.0792,24,0.048,8559,3.9765,-69.6928
lg,1625496555246734266,0,0.4875,-0.3015,0.8457,608,6.5308,-4.1504,-1.709,87,1.2546,1.0925,-34.7439,-14.9908,24,0.048,8618,3.9765,-69.612
lg,1625496555615209025,0,0.4719,-0.3162,0.8584,609,5.9814,0.3662,-1.5869,87,1.2536,1.0945,-34.4476,-14.9263,24,0.047,25131,3.9765,-69.565
lg,1625496555615252006,0,0.4773,-0.2947,0.8408,610,5.3711,-4.6387,-0.8545,87,1.2546,1.0945,-34.3814,-14.9032,24,0.047,10277,3.9765,-69.4434
lg,1625496555615273136,0,0.481,-0.2842,0.8545,611,4.5776,-5.6152,-1.0986,87,1.2546,1.0935,-34.3537,-14.8743,24,0.048,8221,3.9765,-69.3429
lg,1625496555615292971,0,0.5017,-0.2856,0.8481,612,5.0659,-7.5684,-0.6104,87,1.2536,1.0945,-34.4721,-14.9299,24,0.048,8242,3.9765,-69.1378
lg,1625496555615313139,0,0.5203,-0.3215,0.8684,613,3.0518,-7.5684,0.1221,87,1.2546,1.0935,-34.5538,-15.0862,24,0.047,10833,3.9765,-68.9103
lg,1625496555615332900,0,0.4788,-0.3103,0.8638,614,3.418,-0.3052,-0.1221,93,1.2546,1.0935,-34.2847,-15.143,24,0.047,8032,3.971,-68.801
lg,1625496555615350477,0,0.4949,-0.3196,0.8462,615,4.3945,-7.2021,-0.7324,93,1.2546,1.0935,-34.3435,-15.2284,24,0.047,8032,3.971,-68.6135
lg,1625496555615368610,0,0.5215,-0.3123,0.8645,616,3.7842,-6.1646,-1.3428,93,1.2556,1.0945,-34.3997,-15.275,24,0.048,8113,3.971,-68.49
lg,1625496555615386520,0,0.4973,-0.3274,0.8623,617,5.6152,-3.1738,-1.6479,93,1.2546,1.0945,-34.2951,-15.2586,24,0.047,8117,3.971,-68.3962
lg,1625496555615405263,0,0.4675,-0.3096,0.8533,618,6.0425,-5.0049,-3.1738,93,1.2526,1.0935,-34.2373,-15.1648,24,0.048,9801,3.971,-68.3696
lg,1625496555615423211,0,0.4995,-0.311,0.8694,619,3.3569,-8.1177,-1.8921,93,1.2536,1.0935,-34.3329,-15.225,24,0.047,11365,3.971,-68.249
lg,1625496555615443619,0,0.5129,-0.3259,0.8594,620,3.9673,-7.3242,-1.0376,93,1.2566,1.0945,-34.4165,-15.3196,24,0.047,8176,3.971,-68.0741
lg,1625496555615462677,0,0.498,-0.3142,0.8513,621,3.7842,-4.5776,-1.4038,93,1.2556,1.0945,-34.3783,-15.3678,24,0.048,8203,3.971,-67.9649
lg,1625496555615481031,0,0.4915,-0.3154,0.8484,622,3.9673,-7.019,-1.2207,93,1.2546,1.0945,-34.4075,-15.4329,24,0.047,8275,3.971,-67.8146
lg,1625496555615498424,0,0.51,-0.3289,0.8633,623,3.6621,-5.188,-0.6104,93,1.2536,1.0945,-34.391,-15.5316,24,0.048,8152,3.971,-67.6486
lg,1625496555615586219,0,0.4976,-0.3057,0.8579,624,4.4556,-5.3711,-0.8545,93,1.2546,1.0945,-34.3727,-15.5377,24,0.047,8155,3.971,-67.5231
lg,1625496555615608144,0,0.501,-0.3035,0.8496,625,4.7607,-3.479,-0.7324,93,1.2546,1.0945,-34.3084,-15.5092,24,0.047,8204,3.971,-67.4
lg,1625496555615628886,0,0.4917,-0.3071,0.855,626,4.6387,-4.2114,-0.7324,93,1.2536,1.0935,-34.2391,-15.5101,24,0.047,8214,3.971,-67.2801
lg,1625496555615646963,0,0.4905,-0.2996,0.8608,627,3.9062,-4.9438,-0.4883,93,1.2556,1.0945,-34.1917,-15.5278,24,0.047,10515,3.971,-67.1532
lg,1625496555615666631,0,0.4893,-0.29,0.8425,628,3.7842,-6.6528,-0.061,93,1.2556,1.0945,-34.2261,-15.5645,24,0.048,9164,3.971,-66.9894
lg,1625496555615683783,0,0.5122,-0.2969,0.8521,629,3.8452,-7.2021,-0.7935,93,1.2566,1.0945,-34.32,-15.5902,24,0.048,9923,3.971,-66.8488
lg,1625496555615700861,0,0.5132,-0.2905,0.8406,630,3.418,-6.7749,0.061,93,1.2566,1.0935,-34.4003,-15.645,24,0.048,8313,3.971,-66.6777
lg,1625496555615720547,0,0.5208,-0.3066,0.8381,631,3.6621,-6.5918,0.3052,93,1.2566,1.0945,-34.4799,-15.7356,24,0.047,8566,3.971,-66.474
lg,1625496555615740623,0,0.5066,-0.2876,0.8428,632,4.4556,-6.897,0.3662,93,1.2566,1.0945,-34.5021,-15.8075,24,0.048,8379,3.971,-66.2543
lg,1625496555615758200,0,0.5198,-0.3013,0.8464,633,4.6997,-6.958,0.4883,93,1.2566,1.0935,-34.5669,-15.8473,24,0.047,8585,3.971,-66.0462
lg,1625496555615775278,0,0.5088,-0.2976,0.8503,634,4.2725,-7.3853,0.7324,93,1.2556,1.0945,-34.6322,-15.8915,24,0.048,8425,3.971,-65.8335
lg,1625496555615793004,0,0.5244,-0.2825,0.8442,635,4.5776,-5.3101,0.7324,93,1.2576,1.0945,-34.6558,-15.8719,24,0.047,8475,3.971,-65.6688
lg,1625496555615811617,0,0.5127,-0.2878,0.8491,636,4.0283,-6.7139,1.8311,93,1.2576,1.0925,-34.6912,-15.9254,24,0.047,8459,3.971,-65.4275
lg,1625496555615828177,0,0.5076,-0.2952,0.8596,637,3.479,-4.9438,2.3804,93,1.2566,1.0945,-34.5906,-16.0119,24,0.048,8579,3.971,-65.1782
lg,1625496555615846217,0,0.5171,-0.2891,0.8428,638,4.2725,-4.6387,2.3193,93,1.2566,1.0945,-34.6134,-16.0556,24,0.047,10665,3.971,-64.9178
lg,1625496555615876968,0,0.5359,-0.2988,0.855,639,4.0283,-7.3853,1.8921,93,1.2546,1.0935,-34.7088,-16.13,24,0.047,8608,3.971,-64.6558
lg,1625496555615895508,0,0.5332,-0.3101,0.854,640,4.6997,-5.249,2.0752,93,1.2556,1.0945,-34.7092,-16.1923,24,0.047,8652,3.971,-64.3988
lg,1625496555965520166,0,0.5117,-0.3025,0.8464,641,4.6997,-4.6387,1.3428,93,1.2566,1.0945,-34.6643,-16.2169,24,0.047,24921,3.971,-64.1919
lg,1625496555965583297,0,0.5061,-0.3223,0.8574,642,4.7607,-4.9438,1.3428,93,1.2566,1.0945,-34.6051,-16.2805,24,0.047,9190,3.971,-63.9585
lg,1625496555965603835,0,0.491,-0.3103,0.856,643,4.9438,-5.0659,1.8311,93,1.2566,1.0945,-34.5234,-16.3204,24,0.047,8111,3.971,-63.7179
lg,1625496555965623188,0,0.4788,-0.3198,0.8569,644,5.0659,-7.1411,1.0986,93,1.2576,1.0935,-34.5052,-16.3742,24,0.048,11684,3.971,-63.4705
lg,1625496555965641080,0,0.489,-0.3142,0.8516,645,5.4321,-5.8594,1.5869,93,1.2576,1.0945,-34.4597,-16.4039,24,0.047,9915,3.971,-63.2249
lg,1625496555965658491,0,0.4856,-0.3042,0.8503,646,4.4556,-6.8359,1.4038,93,1.2566,1.0945,-34.5244,-16.4786,24,0.047,9721,3.971,-62.9814
lg,1625496555965675606,0,0.5015,-0.3137,0.854,647,4.1504,-9.9487,1.0376,93,1.2566,1.0945,-34.6613,-16.5691,24,0.047,8054,3.971,-62.7088
lg,1625496555965692740,0,0.4929,-0.3179,0.853,648,3.1738,-8.9722,0.7324,93,1.2576,1.0935,-34.7422,-16.6917,24,0.047,10262,3.971,-62.4581
lg,1625496555965710854,0,0.5029,-0.312,0.8391,649,4.3945,-10.5591,0.6714,93,1.2576,1.0945,-34.9158,-16.7697,24,0.048,8611,3.971,-62.1912
lg,1625496555965729800,0,0.519,-0.3062,0.8528,650,3.418,-7.9346,0.4272,93,1.2576,1.0945,-35.0032,-16.8287,24,0.047,8126,3.971,-61.9895
lg,1625496555965747341,0,0.521,-0.3057,0.8589,651,3.8452,-7.9346,1.709,93,1.2576,1.0945,-35.0423,-16.9367,24,0.047,8110,3.971,-61.7081
lg,1625496555965764752,0,0.5295,-0.3191,0.8433,652,2.9907,-6.958,2.3804,93,1.2576,1.0945,-35.0895,-17.0914,25,0.047,8185,3.971,-61.4083
lg,1625496555965825366,0,0.5098,-0.3264,0.8455,653,4.3335,-5.7373,1.3428,93,1.2576,1.0945,-35.0586,-17.1663,25,0.047,8215,3.971,-61.1673
lg,1625496555965845034,0,0.5029,-0.3066,0.8408,654,4.0894,-7.3853,1.3428,93,1.2576,1.0945,-35.0892,-17.2163,25,0.047,9219,3.971,-60.9301
lg,1625496555965862945,0,0.501,-0.3186,0.8464,655,4.6387,-6.958,1.77,93,1.2576,1.0945,-35.084,-17.2759,25,0.047,10310,3.971,-60.6653
lg,1625496555965880689,0,0.5012,-0.312,0.8406,656,5.3711,-6.2256,1.77,93,1.2586,1.0945,-35.0595,-17.2864,24,0.047,8262,3.971,-60.4191
lg,1625496555965897434,0,0.5173,-0.3059,0.8599,657,6.2256,-7.019,1.6479,93,1.2566,1.0935,-35.0803,-17.2325,24,0.047,8268,3.971,-60.1865
lg,1625496555965914234,0,0.5183,-0.3237,0.8506,658,4.8828,-4.2725,2.8687,93,1.2586,1.0945,-34.9871,-17.2964,24,0.047,8314,3.971,-59.9055
lg,1625496555965931682,0,0.4822,-0.2979,0.8455,659,6.7139,-4.8218,2.8687,93,1.2586,1.0945,-34.8629,-17.2299,24,0.046,8331,3.971,-59.6523
lg,1625496555965948519,0,0.4807,-0.314,0.8425,660,5.7373,-5.8594,2.3193,93,1.2576,1.0935,-34.8197,-17.2845,24,0.047,8311,3.971,-59.3607
lg,1625496555965966060,0,0.5056,-0.2961,0.8391,661,4.8218,-7.019,2.8076,93,1.2566,1.0925,-34.8384,-17.3101,24,0.047,8377,3.971,-59.0786
lg,1625496555965983230,0,0.4932,-0.3062,0.8474,662,5.3101,-5.9204,2.3193,93,1.2586,1.0925,-34.7849,-17.3118,24,0.047,8411,3.971,-58.825
lg,1625496555966000586,0,0.4968,-0.324,0.8364,663,5.9204,-7.6294,2.0142,93,1.2596,1.0945,-34.8146,-17.35,24,0.047,8437,3.971,-58.5292
lg,1625496555966020531,0,0.5149,-0.3203,0.8428,664,5.6763,-7.8125,1.9531,93,1.2586,1.0945,-34.902,-17.4236,24,0.047,8403,3.971,-58.2316
lg,1625496555966038793,0,0.5247,-0.3196,0.8567,665,5.7983,-11.1084,1.6479,93,1.2576,1.0935,-35.0962,-17.4517,24,0.047,8512,3.971,-57.9209
lg,1625496555966057851,0,0.5215,-0.3149,0.8564,666,6.897,-4.0894,2.4414,93,1.2576,1.0945,-35.0026,-17.3863,24,0.048,8517,3.971,-57.6829
lg,1625496555966074355,0,0.5093,-0.3052,0.8308,667,5.9814,-4.0283,1.8921,93,1.2586,1.0925,-34.924,-17.3433,24,0.048,8588,3.971,-57.4711
lg,1625496555966116874,0,0.5178,-0.2996,0.8423,668,6.4697,-4.3945,1.2207,93,1.2586,1.0935,-34.8765,-17.2426,24,0.048,8550,3.971,-57.299
lg,1625496555966136006,0,0.5071,-0.3083,0.8633,669,6.4087,-2.7466,1.8921,93,1.2596,1.0945,-34.6913,-17.1833,24,0.048,8545,3.971,-57.0997
lg,1625496555966153176,0,0.5107,-0.3015,0.8511,670,6.1646,-2.9297,2.0752,93,1.2576,1.0945,-34.5645,-17.1084,24,0.048,8586,3.971,-56.9078
lg,1625496555966170180,0,0.5059,-0.3086,0.8528,671,4.6387,-1.6479,1.8311,93,1.2606,1.0935,-34.3838,-17.0965,25,0.048,8668,3.971,-56.7351
lg,1625496555966187517,0,0.5012,-0.3115,0.8379,672,5.188,-3.9673,1.8921,93,1.2596,1.0945,-34.3033,-17.1038,25,0.047,8671,3.971,-56.5149
lg,1625496556324759627,0,0.4878,-0.3066,0.8533,673,6.5918,-3.3569,2.4414,93,1.2586,1.0935,-34.1565,-17.0386,24,0.048,26675,3.971,-56.2927
lg,1625496556324802426,0,0.5039,-0.3076,0.8491,674,6.4697,-4.6387,2.7466,93,1.2586,1.0935,-34.0486,-16.9838,24,0.048,9427,3.971,-56.0396
lg,1625496556324832254,0,0.4956,-0.3191,0.8442,675,6.7749,0,3.6621,93,1.2586,1.0935,-33.7906,-16.9585,24,0.047,8273,3.971,-55.7854
lg,1625496556324861675,0,0.5085,-0.2937,0.8586,676,7.019,-2.9907,3.6011,93,1.2586,1.0945,-33.6752,-16.8689,24,0.048,10375,3.971,-55.5352
lg,1625496556324889578,0,0.501,-0.3115,0.8601,677,7.019,-2.5635,3.479,93,1.2596,1.0945,-33.5286,-16.8192,24,0.048,7988,3.971,-55.271
lg,1625496556324916057,0,0.5029,-0.303,0.8513,678,7.2632,-3.1738,3.6621,93,1.2586,1.0945,-33.4244,-16.7567,24,0.048,8013,3.971,-54.997
lg,1625496556324941259,0,0.4934,-0.3113,0.8591,679,7.9346,-3.6621,3.1128,93,1.2586,1.0945,-33.321,-16.6737,24,0.047,8004,3.971,-54.7326
lg,1625496556324966830,0,0.5017,-0.3159,0.8506,680,6.2866,-2.8687,3.479,93,1.2586,1.0945,-33.2105,-16.6806,24,0.047,8044,3.971,-54.4511
lg,1625496556324994068,0,0.502,-0.311,0.8594,681,7.2632,-4.5776,2.9297,93,1.2586,1.0935,-33.1437,-16.6733,24,0.047,8270,3.971,-54.143
lg,1625496556325020269,0,0.4937,-0.3076,0.8525,682,6.5918,-2.8687,3.7231,93,1.2576,1.0935,-33.0225,-16.6514,24,0.047,8149,3.971,-53.8631
lg,1625496556325069914,0,0.4998,-0.2961,0.8604,683,6.958,-3.2349,3.2349,93,1.2596,1.0945,-32.9331,-16.5706,24,0.047,8116,3.971,-53.6201
lg,1625496556325096208,0,0.4888,-0.3164,0.8591,684,7.0801,-4.0283,3.1738,93,1.2596,1.0945,-32.8527,-16.5436,24,0.046,8121,3.971,-53.3394
lg,1625496556325120984,0,0.488,-0.3149,0.8643,685,7.3242,-3.7231,3.1738,93,1.2576,1.0935,-32.758,-16.4973,24,0.047,8177,3.971,-53.067
lg,1625496556325145464,0,0.4871,-0.303,0.855,686,7.1411,-5.5542,3.6621,93,1.2576,1.0945,-32.7423,-16.4637,24,0.046,8285,3.971,-52.7588
lg,1625496556325169722,0,0.4695,-0.3098,0.843,687,6.8359,-6.3477,3.9673,93,1.2586,1.0945,-32.7298,-16.4854,24,0.047,8184,3.971,-52.4097
lg,1625496556325193666,0,0.479,-0.3262,0.8691,688,6.8359,-6.7749,4.0894,93,1.2586,1.0925,-32.7742,-16.5111,24,0.046,8168,3.971,-52.0332
lg,1625496556325217610,0,0.489,-0.3203,0.8628,689,6.6528,-5.3101,4.8218,93,1.2576,1.0945,-32.7262,-16.5591,24,0.047,8207,3.971,-51.656
lg,1625496556325241331,0,0.498,-0.323,0.8667,690,6.958,-7.5684,4.5776,93,1.2586,1.0945,-32.7812,-16.6062,24,0.047,8301,3.971,-51.2588
lg,1625496556325265478,0,0.4797,-0.3303,0.8579,691,7.8125,-6.3477,5.3101,93,1.2586,1.0945,-32.7505,-16.6535,24,0.046,8283,3.971,-50.8308
lg,1625496556325289903,0,0.4749,-0.3162,0.8411,692,6.958,-7.019,4.4556,93,1.2596,1.0915,-32.7673,-16.6971,24,0.046,10238,3.971,-50.4443
lg,1625496556325313865,0,0.4709,-0.3108,0.8621,693,7.3853,-10.437,4.4556,93,1.2586,1.0945,-32.8868,-16.7165,24,0.045,8438,3.971,-50.0285
lg,1625496556325339345,0,0.469,-0.3135,0.8577,694,6.0425,-11.1084,4.5166,93,1.2576,1.0945,-33.0258,-16.8069,25,0.045,8791,3.971,-49.5942
lg,1625496556325364454,0,0.5288,-0.3389,0.8657,695,5.6152,-12.4512,5.3711,93,1.2586,1.0945,-33.2975,-16.9948,25,0.045,8399,3.971,-49.0741
lg,1625496556325389119,0,0.491,-0.3062,0.8574,696,5.9814,-9.3384,5.0659,93,1.2586,1.0945,-33.2979,-16.9974,25,0.046,8414,3.971,-48.6707
lg,1625496556325413322,0,0.4851,-0.3064,0.8491,697,6.5308,-8.667,4.0283,93,1.2586,1.0945,-33.3737,-17.0188,25,0.046,8466,3.971,-48.3011
lg,1625496556325451199,0,0.4883,-0.3242,0.8669,698,5.4932,-8.8501,3.8452,93,1.2576,1.0945,-33.4385,-17.1065,24,0.045,8395,3.971,-47.9214
lg,1625496556325475994,0,0.4983,-0.3132,0.855,699,5.9204,-9.2163,2.9297,93,1.2566,1.0945,-33.5593,-17.1369,24,0.045,9704,3.971,-47.5891
lg,1625496556325499678,0,0.5242,-0.3137,0.8618,700,7.1411,-9.6436,3.8452,93,1.2576,1.0945,-33.7222,-17.139,24,0.044,8498,3.971,-47.2119
lg,1625496556325523770,0,0.4971,-0.3232,0.8655,701,6.7749,-7.9956,3.6621,93,1.2586,1.0945,-33.7078,-17.1668,24,0.045,8539,3.971,-46.8553
lg,1625496556325548046,0,0.4956,-0.3228,0.8804,702,6.7139,-6.6528,4.3335,93,1.2566,1.0935,-33.6708,-17.1817,24,0.045,8657,3.971,-46.494
lg,1625496556325572157,0,0.5042,-0.3252,0.8599,703,7.019,-7.0801,4.0283,93,1.2566,1.0945,-33.6905,-17.2027,24,0.046,8518,3.971,-46.128
lg,1625496556325595952,0,0.4897,-0.302,0.8521,704,7.3242,-5.6763,3.9062,93,1.2576,1.0945,-33.6449,-17.1466,24,0.046,8584,3.971,-45.816
lg,1625496556695763341,0,0.4724,-0.3054,0.8464,705,6.4087,-8.1787,3.9062,93,1.2576,1.0935,-33.7224,-17.2428,25,0.046,24827,3.971,-45.4217
lg,1625496556695821664,0,0.4976,-0.3054,0.8479,706,4.9438,-7.7515,4.6997,93,1.2586,1.0935,-33.7246,-17.347,25,0.046,9217,3.971,-45.0272
lg,1625496556695841944,0,0.4946,-0.3059,0.8491,707,5.6763,-5.6152,4.4556,93,1.2576,1.0945,-33.6791,-17.3766,24,0.045,14380,3.971,-44.6868
lg,1625496556695861188,0,0.4934,-0.3306,0.8596,708,5.6763,-6.0425,4.1504,93,1.2586,1.0945,-33.6347,-17.4521,24,0.044,8420,3.971,-44.326
lg,1625496556695879210,0,0.4827,-0.3201,0.8491,709,6.6528,-6.7749,4.5776,93,1.2576,1.0945,-33.6073,-17.4863,24,0.044,8141,3.971,-43.9457
lg,1625496556695896307,0,0.491,-0.3293,0.8621,710,6.2256,-8.3618,4.2114,93,1.2576,1.0945,-33.6303,-17.4917,24,0.045,7947,3.971,-43.594
lg,1625496556695912924,0,0.4958,-0.3123,0.8606,711,6.5308,-5.9814,4.6387,93,1.2576,1.0945,-33.5884,-17.4941,24,0.045,7950,3.971,-43.2401
lg,1625496556695929743,0,0.4736,-0.3123,0.8667,712,4.6997,-4.8218,4.3335,93,1.2586,1.0945,-33.4592,-17.5474,24,0.046,8952,3.971,-42.9198
lg,1625496556695966121,0,0.4893,-0.3323,0.8564,713,5.0049,-7.2021,4.8828,93,1.2566,1.0935,-33.4523,-17.6764,24,0.045,8016,3.971,-42.5093
lg,1625496556695983607,0,0.4941,-0.3237,0.8464,714,4.3335,-7.2021,4.4556,93,1.2576,1.0925,-33.4963,-17.7598,25,0.046,7953,3.971,-42.1522
lg,1625496556695999853,0,0.4739,-0.3528,0.8677,715,6.7139,-5.7983,4.3945,93,1.2576,1.0945,-33.3935,-17.8291,25,0.046,11120,3.971,-41.766
lg,1625496556696016507,0,0.52,-0.2732,0.8376,716,6.4087,-11.1084,3.2959,93,1.2586,1.0945,-33.6527,-17.751,25,0.046,8005,3.971,-41.4492
lg,1625496556696033882,0,0.5012,-0.3118,0.8635,717,7.3242,-6.2256,3.9673,93,1.2576,1.0945,-33.6336,-17.6926,25,0.046,8007,3.971,-41.1297
lg,1625496556696050572,0,0.4902,-0.3101,0.8335,718,7.1411,-7.0801,2.8076,93,1.2576,1.0945,-33.6719,-17.6441,24,0.046,8748,3.971,-40.8368
lg,1625496556696066929,0,0.4705,-0.2861,0.8433,719,6.958,-7.2632,4.6387,93,1.2576,1.0945,-33.3055,-17.7527,24,0.046,8042,3.971,-40.4358
lg,1625496556696082842,0,0.502,-0.2937,0.8391,720,6.4087,-11.3525,3.7231,93,1.2576,1.0945,-33.5294,-17.7404,24,0.046,8051,3.971,-40.0667
lg,1625496556696099588,0,0.5198,-0.342,0.8525,721,5.3101,-8.2397,3.0518,93,1.2586,1.0955,-33.6387,-17.8379,24,0.045,8370,3.971,-39.7135
lg,1625496556696116870,0,0.4541,-0.3232,0.8323,722,7.5073,-4.8828,3.7842,93,1.2576,1.0945,-33.5069,-17.8121,24,0.045,8647,3.971,-39.3909
lg,1625496556696134597,0,0.4595,-0.3347,0.8462,723,6.7749,-10.5591,2.9907,93,1.2586,1.0925,-33.7301,-17.9197,24,0.045,8139,3.971,-38.9902
lg,1625496556696151453,0,0.5168,-0.3293,0.8538,724,5.3711,-13.3667,2.9297,93,1.2566,1.0945,-34.0235,-18.0177,24,0.046,8188,3.971,-38.5853
lg,1625496556696168680,0,0.5039,-0.3149,0.8438,725,7.1411,-8.5449,2.5024,91,1.2586,1.0955,-34.1183,-17.9657,24,0.045,8201,3.971,-38.2873
lg,1625496556696185444,0,0.4829,-0.3259,0.8335,726,6.4087,-10.1318,2.5024,91,1.2576,1.0955,-34.2359,-17.9973,24,0.045,8465,3.971,-37.9423
lg,1625496556696202079,0,0.5208,-0.3357,0.8506,727,6.2866,-10.9863,2.1973,91,1.2576,1.0955,-34.4617,-18.047,24,0.045,9415,3.971,-37.5846
lg,1625496556696237513,0,0.5146,-0.3352,0.8542,728,6.1646,-8.4839,2.5024,91,1.2576,1.0955,-34.5396,-18.0751,24,0.045,10057,3.971,-37.2628
lg,1625496556696257201,0,0.5063,-0.3369,0.8452,729,6.958,-6.6528,3.3569,91,1.2566,1.0945,-34.5274,-18.0907,24,0.045,8307,3.971,-36.9221
lg,1625496556696273614,0,0.5098,-0.3196,0.8477,730,6.8359,-6.7139,4.2725,91,1.2566,1.0935,-34.5162,-18.0894,24,0.045,8313,3.971,-36.5645
lg,1625496556696289934,0,0.4878,-0.3477,0.8408,731,6.4087,-4.7607,4.6387,91,1.2576,1.0955,-34.3829,-18.1751,24,0.046,8358,3.971,-36.1755
lg,1625496556696307235,0,0.4856,-0.3154,0.8442,732,6.5308,-5.249,4.2114,91,1.2576,1.0955,-34.3159,-18.2111,24,0.046,8395,3.971,-35.8199
lg,1625496556696323796,0,0.4944,-0.3462,0.8555,733,4.8828,-6.958,4.9438,91,1.2556,1.0945,-34.2675,-18.3599,24,0.046,8402,3.971,-35.3976
lg,1625496556696340338,0,0.5205,-0.3196,0.8569,734,5.6152,-7.019,3.54,91,1.2576,1.0945,-34.2967,-18.3696,24,0.045,8431,3.971,-35.0808
lg,1625496556696358767,0,0.4907,-0.3413,0.8506,735,6.6528,-3.1128,3.54,91,1.2566,1.0955,-34.1204,-18.3645,24,0.046,8432,3.971,-34.7896
lg,1625496556696375273,0,0.4805,-0.3176,0.8347,736,6.8359,-4.6387,2.8076,91,1.2576,1.0955,-34.0552,-18.2981,24,0.046,8478,3.971,-34.5387
lg,1625496557052885191,0,0.4958,-0.3232,0.8479,737,5.0049,-8.9111,1.5869,91,1.2576,1.0955,-34.1504,-18.3175,24,0.046,25480,3.971,-34.272
lg,1625496557052918758,0,0.4973,-0.3354,0.8547,738,5.4321,-9.6436,1.0986,91,1.2576,1.0955,-34.2677,-18.3372,24,0.046,9858,3.971,-34.0029
lg,1625496557052938761,0,0.5005,-0.3425,0.8486,739,4.6387,-9.3384,0.6104,91,1.2576,1.0955,-34.4215,-18.3628,24,0.046,8337,3.971,-33.7666
lg,1625496557052957969,0,0.5066,-0.3347,0.8657,740,6.0425,-8.1787,1.2207,91,1.2576,1.0955,-34.4929,-18.3542,24,0.046,9939,3.971,-33.5106
lg,1625496557052976178,0,0.5056,-0.3157,0.8513,741,6.3477,-6.1035,1.709,91,1.2576,1.0945,-34.4807,-18.2766,24,0.046,8200,3.971,-33.2934
lg,1625496557052993720,0,0.5078,-0.3201,0.8584,742,5.0049,-5.3101,2.0752,91,1.2576,1.0955,-34.4303,-18.2626,24,0.046,8007,3.971,-33.0674
lg,1625496557053030488,0,0.5164,-0.3062,0.8516,743,4.5776,-5.3711,2.8076,91,1.2576,1.0955,-34.3529,-18.2381,24,0.046,8061,3.971,-32.8547
lg,1625496557053048197,0,0.4836,-0.3105,0.8491,744,5.188,-2.9297,2.3193,91,1.2576,1.0945,-34.1809,-18.189,24,0.046,8091,3.971,-32.6618
lg,1625496557053064981,0,0.4858,-0.3198,0.8418,745,5.0659,-5.249,1.709,91,1.2566,1.0955,-34.1196,-18.1801,25,0.046,10361,3.971,-32.4442
lg,1625496557053081431,0,0.4849,-0.3318,0.8374,746,5.4932,-4.6997,2.3193,91,1.2576,1.0945,-34.0311,-18.1995,25,0.045,8504,3.971,-32.1877
lg,1625496557053098141,0,0.498,-0.3154,0.8455,747,5.3101,-5.0049,2.2583,91,1.2576,1.0945,-33.9809,-18.1769,25,0.046,8093,3.971,-31.9579
lg,1625496557053114665,0,0.488,-0.3245,0.8521,748,5.8594,-4.6997,2.3193,91,1.2566,1.0935,-33.8918,-18.149,25,0.046,8002,3.971,-31.7201
lg,1625496557053131412,0,0.4851,-0.3286,0.8528,749,5.249,-4.0894,2.5024,91,1.2586,1.0945,-33.7733,-18.1554,25,0.046,8045,3.971,-31.4775
lg,1625496557053148159,0,0.4766,-0.3328,0.842,750,5.249,-4.3945,2.2583,91,1.2576,1.0945,-33.6668,-18.178,25,0.046,8059,3.971,-31.2304
lg,1625496557053165090,0,0.4866,-0.3328,0.8577,751,5.3711,-5.0659,2.3193,91,1.2576,1.0955,-33.593,-18.1864,25,0.046,8058,3.971,-30.9799
lg,1625496557053181670,0,0.4761,-0.3381,0.856,752,4.3945,-5.7983,1.77,91,1.2586,1.0955,-33.5365,-18.2406,25,0.046,8078,3.971,-30.7353
lg,1625496557053198195,0,0.4766,-0.3235,0.8613,753,4.5776,-7.4463,0.7935,91,1.2566,1.0955,-33.5568,-18.2334,24,0.046,8154,3.971,-30.5345
lg,1625496557053214738,0,0.4812,-0.3191,0.8472,754,4.9438,-8.606,1.0986,91,1.2596,1.0935,-33.6449,-18.2454,24,0.047,8102,3.971,-30.2929
lg,1625496557053231151,0,0.4919,-0.3098,0.8374,755,5.3711,-8.9722,1.4038,91,1.2556,1.0955,-33.7688,-18.2221,24,0.046,8195,3.971,-30.0481
lg,1625496557053247417,0,0.5059,-0.3347,0.8701,756,4.3335,-8.1787,1.1597,91,1.2596,1.0955,-33.8467,-18.26,24,0.046,8182,3.971,-29.8079
lg,1625496557053263460,0,0.5151,-0.321,0.8601,757,5.249,-8.0566,1.2207,91,1.2576,1.0925,-33.89,-18.2155,24,0.047,8199,3.971,-29.6136
lg,1625496557053290218,0,0.499,-0.3245,0.8525,758,5.8594,-5.6763,0.6714,91,1.2566,1.0925,-33.8824,-18.1509,24,0.047,8219,3.971,-29.4382
lg,1625496557053307575,0,0.498,-0.3191,0.8325,759,5.3711,-4.7607,1.3428,91,1.2576,1.0945,-33.8525,-18.1228,24,0.046,8189,3.971,-29.2418
lg,1625496557053324025,0,0.51,-0.3318,0.8682,760,5.0659,-4.2114,1.0986,91,1.2586,1.0955,-33.7888,-18.0952,24,0.046,8300,3.971,-29.0655
lg,1625496557053340846,0,0.49,-0.3376,0.856,761,5.7983,-1.9531,0.7935,91,1.2586,1.0945,-33.6185,-18.0391,24,0.046,12078,3.971,-28.9217
lg,1625496557053357445,0,0.4783,-0.3276,0.865,762,5.3711,-2.8687,0.8545,91,1.2586,1.0945,-33.4609,-17.9789,24,0.047,8285,3.971,-28.7789
lg,1625496557053374006,0,0.4788,-0.3289,0.8525,763,5.7373,-3.3569,0.6104,91,1.2586,1.0945,-33.3405,-17.9109,24,0.047,8312,3.971,-28.6353
lg,1625496557053390549,0,0.4854,-0.3264,0.8416,764,5.4932,-4.8828,0.4272,91,1.2586,1.0945,-33.3125,-17.8739,24,0.047,8442,3.971,-28.4703
lg,1625496557053407055,0,0.4915,-0.3254,0.854,765,5.127,-5.0049,0.4883,91,1.2586,1.0945,-33.2893,-17.8413,24,0.047,9993,3.971,-28.3079
lg,1625496557053423191,0,0.4756,-0.3281,0.8584,766,5.6152,-4.6997,-0.061,91,1.2586,1.0945,-33.2267,-17.7778,24,0.047,9370,3.971,-28.1726
lg,1625496557053439993,0,0.4893,-0.3337,0.8469,767,5.249,-5.5542,0.2441,91,1.2586,1.0945,-33.2311,-17.7692,24,0.047,8934,3.971,-27.9968
lg,1625496557053456832,0,0.4824,-0.3223,0.8535,768,4.6387,-5.6763,0.5493,91,1.2596,1.0955,-33.2201,-17.7601,24,0.047,8465,3.971,-27.8239
lg,1625496557417591163,0,0.5042,-0.3403,0.8499,769,4.7607,-6.4087,0.2441,91,1.2586,1.0935,-33.2806,-17.7908,24,0.047,24845,3.971,-27.6284
lg,1625496557417685777,0,0.4973,-0.3306,0.8464,770,5.9204,-5.188,0.9155,91,1.2586,1.0945,-33.2777,-17.7611,24,0.047,9625,3.971,-27.4318
lg,1625496557417707427,0,0.498,-0.3376,0.8611,771,5.9814,-5.127,0.6104,91,1.2596,1.0945,-33.2518,-17.7147,24,0.047,11833,3.971,-27.2602
lg,1625496557417727282,0,0.4832,-0.3262,0.8579,772,5.7983,-4.0283,1.2817,91,1.2586,1.0945,-33.1648,-17.6722,24,0.047,11699,3.971,-27.0738
lg,1625496557417760849,0,0.4766,-0.3169,0.8572,773,5.249,-4.3335,1.77,91,1.2586,1.0945,-33.0606,-17.6588,24,0.047,7950,3.971,-26.8651
lg,1625496557417780409,0,0.4863,-0.3364,0.8496,774,4.9438,-5.4321,1.0986,91,1.2586,1.0945,-33.0478,-17.6909,24,0.047,7958,3.971,-26.6483
lg,1625496557417798969,0,0.4841,-0.333,0.8523,775,4.8218,-4.9438,0.6714,91,1.2586,1.0945,-33.0162,-17.7015,24,0.047,8011,3.971,-26.4646
lg,1625496557417817917,0,0.4897,-0.3323,0.8501,776,4.6997,-6.3477,0.7935,91,1.2586,1.0945,-33.0504,-17.7613,24,0.047,7997,3.971,-26.2383
lg,1625496557417835663,0,0.5066,-0.3362,0.8682,777,5.5542,-7.3242,-0.1831,91,1.2576,1.0935,-33.1284,-17.7391,25,0.047,9815,3.971,-26.0593
lg,1625496557417855870,0,0.4854,-0.3406,0.8635,778,5.7373,-5.188,0.1831,91,1.2576,1.0945,-33.098,-17.7094,25,0.047,8008,3.971,-25.8904
lg,1625496557417873875,0,0.4976,-0.3306,0.8689,779,5.8594,-6.7749,0.2441,91,1.2596,1.0945,-33.1492,-17.6604,25,0.047,8040,3.971,-25.7115
lg,1625496557417891547,0,0.4851,-0.3354,0.8499,780,6.3477,-5.8594,0.3662,91,1.2596,1.0945,-33.1219,-17.6394,25,0.048,8056,3.971,-25.5119
lg,1625496557417909644,0,0.4697,-0.3303,0.8635,781,4.8218,-5.6763,0.4272,91,1.2586,1.0945,-33.0805,-17.6362,24,0.048,9405,3.971,-25.3361
lg,1625496557417928075,0,0.4846,-0.3362,0.843,782,4.3945,-8.667,0.9766,91,1.2596,1.0945,-33.1942,-17.7198,24,0.048,14340,3.971,-25.074
lg,1625496557417945099,0,0.4897,-0.3447,0.845,783,5.3711,-6.958,0.7935,91,1.2596,1.0945,-33.2461,-17.7622,24,0.048,8128,3.971,-24.8357
lg,1625496557417963048,0,0.4812,-0.3308,0.8513,784,5.127,-7.5684,0.2441,91,1.2596,1.0945,-33.3339,-17.7748,24,0.048,8189,3.971,-24.6
lg,1625496557417982256,0,0.4827,-0.3186,0.8635,785,4.6387,-8.3618,0.7324,91,1.2596,1.0945,-33.4102,-17.7742,24,0.048,8202,3.971,-24.3888
lg,1625496557417999391,0,0.5037,-0.3193,0.8452,786,4.5776,-8.7891,0.4883,91,1.2596,1.0945,-33.5607,-17.7909,24,0.047,8217,3.971,-24.1727
lg,1625496557418016619,0,0.4863,-0.3354,0.8315,787,4.2114,-7.0801,0.3052,91,1.2596,1.0945,-33.618,-17.8573,24,0.048,8682,3.971,-23.9598
lg,1625496557418076166,0,0.4763,-0.3303,0.8586,788,4.0283,-6.5308,0.6104,91,1.2586,1.0945,-33.6496,-17.908,24,0.048,8450,3.971,-23.7553
lg,1625496557418097632,0,0.4905,-0.3262,0.8657,789,5.249,-7.3242,0.4883,91,1.2596,1.0945,-33.6872,-17.8808,24,0.048,8340,3.971,-23.5628
lg,1625496557418115063,0,0.5015,-0.3333,0.8699,790,4.5166,-5.9204,0.3662,91,1.2596,1.0945,-33.6862,-17.8823,24,0.048,8333,3.971,-23.3888
lg,1625496557418132957,0,0.4973,-0.3342,0.8445,791,5.3101,-5.0049,0.6104,91,1.2596,1.0945,-33.6646,-17.8765,25,0.048,8319,3.971,-23.2028
lg,1625496557418151498,0,0.488,-0.3445,0.8469,792,5.5542,-5.3101,0.1831,91,1.2586,1.0935,-33.6373,-17.8763,25,0.048,8408,3.971,-23.0187
lg,1625496557418169503,0,0.4939,-0.322,0.8413,793,5.7983,-3.9062,0.7324,91,1.2576,1.0945,-33.5751,-17.8181,25,0.047,8400,3.971,-22.8586
lg,1625496557418186194,0,0.479,-0.3323,0.8391,794,5.8594,-3.479,1.0376,91,1.2616,1.0955,-33.4657,-17.7922,25,0.048,8583,3.971,-22.6741
lg,1625496557418203422,0,0.4807,-0.3401,0.8313,795,4.9438,-3.1738,0.7324,91,1.2606,1.0945,-33.3615,-17.82,24,0.048,8487,3.971,-22.4932
lg,1625496557418220132,0,0.4783,-0.3115,0.8376,796,5.7983,-3.6011,0.7935,91,1.2626,1.0945,-33.2748,-17.7401,24,0.048,8499,3.971,-22.347
lg,1625496557418237396,0,0.4915,-0.3381,0.8469,797,5.127,-4.7607,0.2441,91,1.2586,1.0945,-33.2502,-17.7423,24,0.048,8456,3.971,-22.1761
lg,1625496557418256474,0,0.4846,-0.3223,0.8552,798,5.249,-4.8218,0.1221,91,1.2626,1.0945,-33.214,-17.6907,24,0.048,8539,3.971,-22.0355
lg,1625496557418273276,0,0.4824,-0.3289,0.8425,799,5.7983,-5.6152,-0.061,91,1.2596,1.0945,-33.2179,-17.649,24,0.048,8512,3.971,-21.8753
lg,1625496557418291374,0,0.4873,-0.325,0.8545,800,5.4932,-5.0659,0,91,1.2606,1.0945,-33.208,-17.621,24,0.048,9265,3.971,-21.7367
lg,1625496557785857977,0,0.4875,-0.3313,0.8484,801,5.0049,-4.8828,0.2441,91,1.2606,1.0945,-33.2104,-17.6003,25,0.048,27168,3.971,-21.5804
lg,1625496557785898447,0,0.489,-0.3442,0.8525,802,4.8828,-4.8828,-0.1831,91,1.2596,1.0935,-33.1864,-17.6176,25,0.047,8901,3.971,-21.4193
lg,1625496557785919505,0,0.4739,-0.3274,0.8442,803,4.6997,-3.9062,0.3052,91,1.2606,1.0935,-33.1044,-17.6133,25,0.047,11707,3.971,-21.2687
lg,1625496557785963675,0,0.4653,-0.3364,0.8547,804,5.0659,-5.127,0.061,91,1.2606,1.0945,-33.0454,-17.6112,24,0.048,10673,3.971,-21.1043
lg,1625496557785984289,0,0.4797,-0.3391,0.864,805,5.249,-5.6152,0.5493,91,1.2606,1.0945,-32.997,-17.6203,24,0.048,7905,3.971,-20.9351
lg,1625496557786004182,0,0.4768,-0.3293,0.8611,806,5.6763,-5.4932,0.4272,91,1.2606,1.0945,-32.9699,-17.5813,24,0.048,7977,3.971,-20.7625
lg,1625496557786023704,0,0.4648,-0.3325,0.8584,807,5.249,-6.897,0.7324,91,1.2606,1.0945,-32.9721,-17.5903,24,0.048,7987,3.971,-20.5489
lg,1625496557786042412,0,0.4871,-0.3425,0.8613,808,5.0659,-7.5073,0.5493,91,1.2606,1.0945,-33.0364,-17.6269,24,0.048,9690,3.971,-20.3239
lg,1625496557786059714,0,0.499,-0.3328,0.8523,809,4.8828,-5.9204,0.4883,91,1.2596,1.0945,-33.0733,-17.6392,24,0.048,8760,3.971,-20.134
lg,1625496557786077219,0,0.4846,-0.3345,0.8594,810,5.188,-6.7139,0.1831,91,1.2596,1.0935,-33.1075,-17.6364,24,0.048,8023,3.971,-19.9473
lg,1625496557786095002,0,0.4885,-0.3301,0.8411,811,6.4697,-7.0801,0.3662,91,1.2616,1.0915,-33.179,-17.596,24,0.048,8028,3.971,-19.7435
lg,1625496557786112859,0,0.4958,-0.3323,0.8535,812,5.7373,-5.188,0.1831,91,1.2616,1.0915,-33.1792,-17.5605,24,0.048,8020,3.971,-19.5782
lg,1625496557786130308,0,0.4966,-0.3291,0.8398,813,5.127,-5.188,0.6104,91,1.2596,1.0935,-33.1903,-17.566,24,0.048,8044,3.971,-19.3901
lg,1625496557786147647,0,0.4741,-0.3083,0.8384,814,5.9814,-4.8218,0.3662,91,1.2616,1.0935,-33.1545,-17.4792,24,0.048,8091,3.971,-19.2457
lg,1625496557786165708,0,0.4829,-0.3259,0.8499,815,5.7983,-4.8828,0.3662,91,1.2606,1.0945,-33.1229,-17.4365,24,0.049,8105,3.971,-19.0806
lg,1625496557786183472,0,0.4719,-0.3137,0.8469,816,5.5542,-6.0425,0.4883,91,1.2616,1.0915,-33.1204,-17.3903,24,0.048,8115,3.971,-18.9075
lg,1625496557786201273,0,0.4895,-0.3125,0.8596,817,5.6763,-7.5073,0.1221,91,1.2616,1.0945,-33.2001,-17.3283,24,0.049,8156,3.971,-18.7375
lg,1625496557786218704,0,0.4839,-0.3323,0.8599,818,5.0049,-6.7139,0.1221,91,1.2596,1.0945,-33.2296,-17.3383,24,0.048,10010,3.971,-18.5506
lg,1625496557786254825,0,0.4849,-0.3335,0.8518,819,5.127,-7.019,-0.061,91,1.2606,1.0925,-33.2811,-17.3511,24,0.048,8242,3.971,-18.362
lg,1625496557786276864,0,0.4902,-0.3318,0.8677,820,5.0659,-7.7515,-0.3662,91,1.2616,1.0945,-33.3513,-17.3274,24,0.048,8240,3.971,-18.1905
lg,1625496557786295221,0,0.4883,-0.3369,0.854,821,5.249,-7.0801,-0.3662,91,1.2596,1.0905,-33.4073,-17.3352,24,0.048,8215,3.971,-18.0109
lg,1625496557786313077,0,0.4954,-0.3274,0.8491,822,4.8828,-6.7749,-0.4883,91,1.2616,1.0955,-33.4722,-17.3326,24,0.049,8242,3.971,-17.8519
lg,1625496557786330527,0,0.4932,-0.3191,0.8486,823,5.0049,-6.0425,0.3052,91,1.2616,1.0925,-33.4961,-17.3197,25,0.048,8282,3.971,-17.678
lg,1625496557786348273,0,0.4856,-0.3303,0.8484,824,5.127,-6.7749,0.3052,91,1.2616,1.0945,-33.5292,-17.3369,25,0.048,8350,3.971,-17.4772
lg,1625496557786365630,0,0.4741,-0.3342,0.8647,825,4.9438,-6.3477,0.1831,91,1.2606,1.0945,-33.5071,-17.3498,25,0.048,8306,3.971,-17.2909
lg,1625496557786383709,0,0.4817,-0.3267,0.8511,826,5.249,-7.7515,0.061,91,1.2616,1.0935,-33.5706,-17.3514,24,0.048,8394,3.971,-17.0941
lg,1625496557786400104,0,0.4995,-0.3345,0.8616,827,4.8218,-7.5073,0,91,1.2616,1.0945,-33.6374,-17.3829,24,0.048,12284,3.971,-16.8942
lg,1625496557786416943,0,0.4907,-0.3237,0.8513,828,4.4556,-8.0566,-0.1831,91,1.2606,1.0945,-33.7281,-17.4035,24,0.048,9053,3.971,-16.7086
lg,1625496557786434023,0,0.4858,-0.3474,0.8674,829,4.6387,-7.6904,0.1221,91,1.2616,1.0945,-33.7656,-17.4648,24,0.048,8462,3.971,-16.4898
lg,1625496557786451343,0,0.4846,-0.3342,0.8354,830,5.188,-6.2866,0.1221,91,1.2616,1.0945,-33.7812,-17.4882,24,0.047,8474,3.971,-16.2937
lg,1625496557786468256,0,0.4919,-0.3459,0.8601,831,5.6763,-7.2632,0.3052,91,1.2616,1.0945,-33.817,-17.509,24,0.049,8598,3.971,-16.0724
lg,1625496557786485095,0,0.4993,-0.3218,0.853,832,5.7983,-6.5918,-0.3052,91,1.2616,1.0945,-33.8614,-17.45,24,0.048,8567,3.971,-15.9192
lg,1625496558155808172,0,0.4834,-0.3481,0.8538,833,5.7983,-6.6528,-0.3052,91,1.2616,1.0945,-33.8676,-17.4592,24,0.048,26518,3.971,-15.727
lg,1625496558155892113,0,0.4795,-0.3367,0.8491,834,5.249,-6.3477,-0.6104,91,1.2576,1.0905,-33.866,-17.4562,24,0.048,9550,3.9721,-15.5667
lg,1625496558155913468,0,0.489,-0.3242,0.8474,835,5.8594,-7.8125,-0.1221,91,1.2616,1.0945,-33.938,-17.4233,24,0.048,12490,3.9721,-15.3795
lg,1625496558155932288,0,0.4819,-0.3342,0.8584,836,4.8218,-7.9346,-0.5493,91,1.2616,1.0945,-33.9896,-17.4386,24,0.048,9997,3.9721,-15.2007
lg,1625496558155950756,0,0.4829,-0.3391,0.853,837,4.6387,-8.1787,-0.2441,91,1.2626,1.0935,-34.0503,-17.4876,24,0.048,8162,3.9721,-14.9946
lg,1625496558155968762,0,0.4973,-0.3311,0.8438,838,4.6997,-8.0566,-0.7324,91,1.2626,1.0945,-34.1489,-17.5066,24,0.048,8028,3.9721,-14.8205
lg,1625496558156040526,0,0.4915,-0.3425,0.8616,839,5.5542,-7.019,-0.4272,91,1.2616,1.0945,-34.1684,-17.5026,24,0.048,8226,3.9721,-14.6405
lg,1625496558156059420,0,0.5068,-0.3313,0.8582,840,5.0659,-6.897,-0.1831,91,1.2626,1.0945,-34.2012,-17.5334,24,0.048,8074,3.9721,-14.4453
lg,1625496558156077278,0,0.4934,-0.3337,0.8577,841,5.4321,-6.6528,-0.4272,91,1.2616,1.0945,-34.2148,-17.5124,24,0.048,9334,3.9721,-14.2812
lg,1625496558156094876,0,0.4944,-0.3313,0.8503,842,5.6763,-5.5542,-0.3662,91,1.2606,1.0945,-34.1953,-17.4756,24,0.048,8620,3.9721,-14.1296
lg,1625496558156111642,0,0.4753,-0.3286,0.853,843,5.5542,-5.9204,-0.6714,91,1.2616,1.0915,-34.1558,-17.4323,24,0.047,7961,3.9721,-13.9905
lg,1625496558156129629,0,0.4817,-0.3174,0.8655,844,5.7983,-7.1411,-0.4272,91,1.2616,1.0945,-34.1933,-17.3915,24,0.047,8006,3.9721,-13.8249
lg,1625496558156146192,0,0.4902,-0.3384,0.8484,845,5.0659,-6.3477,-0.5493,91,1.2606,1.0915,-34.1991,-17.4052,24,0.047,8058,3.9721,-13.6568
lg,1625496558156162384,0,0.4897,-0.3325,0.8384,846,5.6152,-6.7749,0,91,1.2626,1.0915,-34.2251,-17.409,24,0.047,8027,3.9721,-13.4602
lg,1625496558156179946,0,0.4932,-0.3228,0.8552,847,5.6152,-7.9956,-0.3052,91,1.2636,1.0945,-34.3043,-17.4227,24,0.047,8035,3.9721,-13.2554
lg,1625496558156197618,0,0.4907,-0.3374,0.8552,848,5.7983,-8.4229,0.1221,91,1.2616,1.0925,-34.3708,-17.4322,24,0.047,8074,3.9721,-13.031
lg,1625496558156229207,0,0.4897,-0.3167,0.854,849,5.188,-8.0566,0.4272,91,1.2616,1.0945,-34.4058,-17.4659,24,0.047,12190,3.9721,-12.8156
lg,1625496558156247694,0,0.4802,-0.3293,0.8508,850,5.6152,-6.7139,0,91,1.2626,1.0945,-34.3914,-17.4488,24,0.047,8156,3.9721,-12.6308
lg,1625496558156265015,0,0.4951,-0.3286,0.8501,851,5.6152,-6.4697,1.1597,91,1.2616,1.0945,-34.3839,-17.4585,24,0.047,8139,3.9721,-12.3969
lg,1625496558156281337,0,0.4893,-0.3311,0.8455,852,5.7983,-8.2397,0.7935,91,1.2626,1.0945,-34.4409,-17.4764,24,0.048,8222,3.9721,-12.148
lg,1625496558156298362,0,0.4973,-0.3237,0.8569,853,5.249,-7.1411,0.1831,91,1.2616,1.0945,-34.4675,-17.4614,24,0.048,8168,3.9721,-11.9603
lg,1625496558156314665,0,0.499,-0.3284,0.843,854,5.7373,-5.9814,0.7935,91,1.2616,1.0945,-34.4122,-17.4325,24,0.048,10876,3.9721,-11.7618
lg,1625496558156331153,0,0.4795,-0.325,0.8611,855,5.3711,-6.0425,0.6714,91,1.2616,1.0915,-34.354,-17.4182,24,0.047,8233,3.9721,-11.5667
lg,1625496558156347734,0,0.4941,-0.3149,0.8464,856,4.6387,-7.7515,0.061,91,1.2626,1.0945,-34.4159,-17.4189,24,0.048,8259,3.9721,-11.382
lg,1625496558156363741,0,0.5107,-0.3264,0.8433,857,4.5776,-8.606,0.1221,91,1.2616,1.0945,-34.5382,-17.4617,24,0.048,8290,3.9721,-11.1643
lg,1625496558156379878,0,0.4927,-0.3518,0.8545,858,4.7607,-7.8125,0,91,1.2606,1.0935,-34.5738,-17.5397,24,0.048,8331,3.9721,-10.9333
lg,1625496558156396052,0,0.5037,-0.345,0.8494,859,4.6387,-6.897,-0.1831,91,1.2616,1.0945,-34.6031,-17.5944,24,0.048,8396,3.9721,-10.733
lg,1625496558156412743,0,0.5059,-0.3386,0.8379,860,6.0425,-5.4932,0.061,91,1.2626,1.0945,-34.5926,-17.5807,24,0.048,8377,3.9721,-10.5459
lg,1625496558156428954,0,0.4858,-0.3396,0.8335,861,6.1646,-5.5542,0.1221,91,1.2616,1.0945,-34.537,-17.5859,24,0.048,8490,3.9721,-10.349
lg,1625496558156445442,0,0.4937,-0.3225,0.855,862,6.4697,-5.249,0.5493,91,1.2596,1.0935,-34.4787,-17.511,24,0.048,8392,3.9721,-10.1745
lg,1625496558156461949,0,0.4756,-0.3259,0.853,863,5.5542,-5.0659,0.8545,91,1.2616,1.0945,-34.3784,-17.4931,24,0.047,8448,3.9721,-9.9808
lg,1625496558156490188,0,0.4827,-0.3337,0.8552,864,5.4321,-6.4697,0.4883,91,1.2626,1.0925,-34.349,-17.4996,24,0.048,8458,3.9721,-9.7738
lg,1625496558514894376,0,0.4983,-0.3281,0.8369,865,5.8594,-7.5684,0.3052,91,1.2616,1.0945,-34.4145,-17.495,24,0.048,25341,3.9721,-9.5583
lg,1625496558514958349,0,0.4915,-0.3335,0.8574,866,5.0049,-7.2021,0.061,91,1.2626,1.0945,-34.4312,-17.5103,24,0.049,8799,3.9721,-9.3621
lg,1625496558514978834,0,0.5076,-0.343,0.8557,867,5.4321,-5.6763,0.7935,91,1.2626,1.0945,-34.4098,-17.5382,24,0.048,11537,3.9721,-9.141
