name,time,activity,ax,ay,az,batch_val,gx,gy,gz,ibat,index,middle,pitch,roll,temp,thumb,ts,vbat,yaw
lg,1625493577974107791,0,0.6787,-0.2368,0.7656,1,1.2817,-12.6343,-0.3052,76,1.0075,0.4282,-46.6579,-3.1659,26,0.036,19077,3.9347,-155.4322
lg,1625493577974150253,0,0.6523,-0.2217,0.7961,2,1.8921,-3.54,3.1128,76,1.0085,0.4272,-46.4765,-3.7859,26,0.036,8273,3.9347,-154.8316
lg,1625493577974170549,0,0.5923,-0.1895,0.8181,3,2.8076,-6.4087,5.0659,76,1.0085,0.4252,-46.2768,-4.3353,26,0.037,7749,3.9347,-154.1977
lg,1625493577974190067,0,0.595,-0.1384,0.8289,4,0.5493,-10.376,5.188,76,1.0085,0.4222,-46.3851,-4.8904,26,0.036,7879,3.9347,-153.6796
lg,1625493577974209474,0,0.5918,-0.1433,0.8269,5,-5.188,-15.3809,2.7466,76,1.0085,0.4152,-46.5356,-5.4992,26,0.037,7808,3.9347,-153.2734
lg,1625493577974228178,0,0.542,-0.1545,0.8367,6,-10.6201,-12.6343,-0.6714,76,1.0075,0.4082,-46.4806,-6.1835,26,0.037,7843,3.9347,-153.0666
lg,1625493577974246307,0,0.5046,-0.1616,0.812,7,-13.7939,-13.0005,-1.8311,76,1.0035,0.3992,-46.5153,-7.0202,26,0.037,7954,3.9347,-153.0137
lg,1625493577974264159,0,0.48,-0.1594,0.8455,8,-20.813,-23.4375,-4.8828,76,1.0005,0.3922,-46.7787,-7.9487,26,0.038,7894,3.9347,-152.9923
lg,1625493577974281881,0,0.5176,-0.1284,0.8354,9,-27.9541,-37.9028,-10.437,76,0.9935,0.3842,-47.7192,-8.885,26,0.039,8036,3.9347,-153.2539
lg,1625493577974300028,0,0.5452,-0.0955,0.8381,10,-31.6772,-42.2363,-13.6108,76,0.9845,0.3762,-48.9754,-9.8432,26,0.039,7829,3.9347,-153.8766
lg,1625493577974318565,0,0.5957,-0.1072,0.8557,11,-41.3818,-43.0908,-19.104,76,0.9735,0.3672,-50.222,-10.8223,26,0.039,8052,3.9347,-154.6747
lg,1625493577974336546,0,0.5972,-0.1174,0.8389,12,-47.0581,-40.2832,-25.1465,76,0.9585,0.3592,-51.3862,-11.7115,26,0.04,7934,3.9347,-155.8648
lg,1625493577974354287,0,0.5872,-0.1504,0.8284,13,-48.7061,-37.2925,-27.5269,76,0.9395,0.3512,-52.3921,-12.4932,26,0.04,8047,3.9347,-157.3323
lg,1625493577974372194,0,0.5789,-0.1709,0.8708,14,-48.8281,-36.438,-31.311,76,0.9104,0.3442,-53.3168,-13.1583,26,0.04,8399,3.9347,-158.8974
lg,1625493577974389231,0,0.3965,-0.5178,0.8269,15,94.0552,-17.5171,11.1694,96,0.4772,0.2691,-52.8158,-11.3557,26,0.024,13710,3.916,-156.9694
lg,1625493577974407193,0,0.3137,-0.4578,0.8564,16,95.7031,-21.2402,10.5591,96,0.4312,0.2451,-52.3451,-9.3481,26,0.025,8206,3.916,-155.1672
lg,1625493577974424397,0,0.345,-0.416,0.8682,17,93.3228,-27.0996,17.334,96,0.4032,0.2301,-52.1483,-7.7316,26,0.023,8048,3.916,-152.9673
lg,1625493577974442989,0,0.426,-0.3669,0.8403,18,79.2847,-41.5039,20.2026,96,0.3782,0.2211,-52.6966,-6.8303,26,0.022,7987,3.916,-150.5483
lg,1625493577974460026,0,0.5522,-0.3252,0.8262,19,62.0117,-42.4805,23.5596,96,0.3522,0.2161,-53.4903,-6.6961,26,0.025,9031,3.916,-147.989
lg,1625493577974476859,0,0.6355,-0.3137,0.8372,20,42.1753,-25.5127,26.5503,96,0.3372,0.2111,-53.6884,-7.3648,26,0.025,9546,3.916,-145.3896
lg,1625493577974494118,0,0.6714,-0.3018,0.8462,21,31.6772,-15.686,24.6582,96,0.3342,0.2101,-52.8799,-8.3424,26,0.026,8142,3.916,-143.354
lg,1625493577974511173,0,0.6589,-0.3411,0.884,22,11.3525,8.8501,18.2495,96,0.3402,0.2111,-51.7389,-9.4203,26,0.029,8118,3.916,-141.7274
lg,1625493577974529136,0,0.5454,-0.3433,0.8958,23,0.4883,26.9775,6.6528,96,0.3532,0.2151,-49.8036,-10.1152,26,0.035,8206,3.916,-141.1169
lg,1625493577974546506,0,0.4473,-0.2834,0.8755,24,-14.7705,28.9917,-3.1128,96,0.3792,0.2231,-47.7797,-10.7359,26,0.036,8172,3.916,-141.3093
lg,1625493577974563524,0,0.4739,-0.2954,0.8848,25,-24.4751,22.9492,-7.3853,130,0.4142,0.2331,-46.137,-11.5975,26,0.041,8149,3.8401,-141.711
lg,1625493577974581468,0,0.4814,-0.3254,0.8567,26,-39.4897,29.8462,-11.2305,130,0.4512,0.2461,-44.3623,-12.9146,26,0.037,8301,3.8401,-142.3809
lg,1625493577974602671,0,0.3284,-0.3533,0.8708,27,-54.3213,41.0767,-13.5498,130,0.4992,0.2641,-41.9518,-14.6651,26,0.032,8170,3.8401,-143.3373
lg,1625493577974622745,0,0.269,-0.4111,0.9084,28,-58.8989,33.02,-14.2212,130,0.5693,0.2921,-40.2376,-16.9715,26,0.033,8338,3.8401,-144.0002
lg,1625493577974640189,0,0.2415,-0.5325,0.9231,29,-56.8848,9.3384,-15.564,130,0.6593,0.3342,-39.0536,-19.2756,26,0.034,8226,3.8401,-144.5288
lg,1625493577974657041,0,0.2,-0.6074,0.896,30,-41.1987,-6.2256,-17.0288,130,0.7664,0.3842,-38.4684,-21.1876,26,0.032,8368,3.8401,-144.7965
lg,1625493577974674670,0,0.1538,-0.5173,0.8108,31,-28.5645,-19.5923,-16.2964,130,0.8584,0.4342,-38.3384,-22.6237,26,0.032,8250,3.8401,-144.8612
lg,1625493577974692448,0,0.2043,-0.458,0.7793,32,-24.7803,-30.1514,-14.0381,130,0.9225,0.4742,-38.6828,-23.9497,26,0.032,8487,3.8401,-144.685
lg,1625493578375320884,0,0.4539,-0.4192,0.8479,33,7.6904,-21.1182,-8.4229,130,0.9875,0.5263,-39.0659,-23.7716,26,0.027,24325,3.8401,-144.575
lg,1625493578375369457,0,0.5347,-0.4561,0.8799,34,6.2256,-13.6108,-5.5542,130,1.0045,0.5343,-39.221,-23.692,26,0.028,9333,3.8401,-144.4539
lg,1625493578375391568,0,0.3972,-0.429,0.8291,35,13.916,4.4556,-1.0376,130,1.0135,0.5403,-38.4373,-23.2157,26,0.028,15496,3.8401,-144.4861
lg,1625493578375411715,0,0.3962,-0.3926,0.7883,36,17.1509,4.7607,2.3804,130,1.0155,0.5353,-37.6627,-22.6869,26,0.026,7821,3.8401,-144.3767
lg,1625493578375432048,0,0.4089,-0.3948,0.7747,37,22.7051,15.2588,10.1929,130,1.0155,0.5123,-36.4517,-22.0801,26,0.026,8755,3.8401,-144.078
lg,1625493578375469455,0,0.2664,-0.4231,0.813,38,26.2451,20.6299,16.7236,130,1.0045,0.4732,-34.6553,-21.5086,26,0.027,7822,3.8401,-143.5393
lg,1625493578375490047,0,0.2773,-0.5154,0.8779,39,35.0952,8.5449,16.9067,130,0.9565,0.4282,-33.4192,-20.9263,26,0.026,7923,3.8401,-142.6528
lg,1625493578375508806,0,0.3018,-0.5754,0.9771,40,63.9038,-8.8501,10.498,130,0.8614,0.3792,-32.8981,-19.1542,26,0.026,8380,3.8401,-141.7829
lg,1625493578375527288,0,0.3384,-0.5608,1.0188,41,79.7119,-24.5361,7.9956,130,0.7774,0.3442,-33.0907,-16.8126,26,0.031,8515,3.8401,-140.8044
lg,1625493578375544935,0,0.3853,-0.4683,0.9741,42,85.6323,-33.8135,14.4043,130,0.7143,0.3232,-33.7125,-14.4045,26,0.031,7913,3.8401,-139.4728
lg,1625493578375562694,0,0.4509,-0.4343,0.9148,43,84.2896,-35.9497,18.3105,130,0.6673,0.3092,-34.5695,-12.2338,26,0.033,7837,3.8401,-137.9344
lg,1625493578375580176,0,0.5864,-0.364,0.8855,44,73.9136,-31.189,24.231,130,0.6283,0.2981,-35.4833,-10.5415,26,0.033,8047,3.8401,-136.2324
lg,1625493578375597509,0,0.6211,-0.3298,0.8291,45,61.0962,-11.4136,23.7427,130,0.5833,0.2881,-35.7547,-9.2756,26,0.032,11813,3.8401,-134.7244
lg,1625493578375615879,0,0.5337,-0.2852,0.875,46,44.8608,16.7847,23.5596,130,0.5593,0.2841,-34.7318,-8.4392,26,0.033,8043,3.8401,-133.493
lg,1625493578375634601,0,0.4778,-0.2825,0.8413,47,21.3013,36.438,25.8179,130,0.5543,0.2831,-32.8993,-8.5506,26,0.036,9501,3.8401,-132.2812
lg,1625493578375654397,0,0.3647,-0.3545,0.8613,48,13.5498,40.5884,24.8413,130,0.5513,0.2821,-30.5645,-9.1032,26,0.032,8102,3.8401,-131.2117
lg,1625493578375671304,0,0.2361,-0.3499,0.8953,49,8.5449,49.6216,22.3389,130,0.5493,0.2811,-27.8337,-9.6058,26,0.032,7979,3.8401,-130.302
lg,1625493578375689822,0,-0.0122,-0.3503,0.8914,50,5.4932,28.5034,21.6675,130,0.5503,0.2811,-25.4982,-10.2329,26,0.032,8809,3.8401,-129.3284
lg,1625493578375708229,0,0.1895,-0.3606,0.9031,51,1.0376,-37.1704,16.6016,130,0.5563,0.2831,-26.2753,-11.1316,26,0.031,8442,3.8401,-128.0858
lg,1625493578375725247,0,0.343,-0.3591,0.9272,52,-0.5493,-54.9927,15.9302,130,0.5743,0.2871,-28.2104,-12.1461,26,0.029,8197,3.8401,-126.7189
lg,1625493578375743340,0,0.5142,-0.2866,0.9587,53,-8.4229,-45.166,15.564,130,0.6083,0.2961,-29.7825,-13.2157,26,0.031,8005,3.8401,-125.4842
lg,1625493578375761099,0,0.5693,-0.2493,0.9353,54,-27.1606,-18.6768,13.1836,130,0.6483,0.3082,-30.3955,-14.7628,26,0.035,8075,3.8401,-124.6505
lg,1625493578375779839,0,0.5391,-0.26,0.9299,55,-39.4897,-6.5308,10.437,130,0.6953,0.3262,-29.9959,-17.0027,26,0.037,8256,3.8401,-124.3417
lg,1625493578375798320,0,0.4849,-0.28,0.9348,56,-62.3779,19.6533,4.5776,130,0.7704,0.3542,-29.0465,-19.4273,26,0.038,9019,3.8401,-124.4383
lg,1625493578375816783,0,0.3457,-0.4534,0.9333,57,-76.1108,28.9307,-0.4883,130,0.8534,0.3982,-27.5567,-22.4915,26,0.036,9940,3.8401,-124.8111
lg,1625493578375833968,0,0.2275,-0.6086,0.9575,58,-73.1812,17.8223,-7.3242,130,0.9425,0.4482,-26.3992,-25.5405,26,0.036,8176,3.8401,-125.2578
lg,1625493578375851486,0,0.2205,-0.6248,0.9473,59,-50.4761,0.7324,-9.2773,130,1.0025,0.5042,-25.9373,-27.7101,26,0.033,8197,3.8401,-125.5047
lg,1625493578375870893,0,0.1516,-0.8928,0.9604,60,-27.4048,-3.418,-19.4702,130,1.0325,0.5573,-25.5178,-28.7366,26,0.034,8386,3.8401,-126.0973
lg,1625493578375889023,0,0.0864,-0.5725,0.7959,61,38.9404,-25.6348,-44.6167,130,1.0505,0.5863,-26.4631,-26.9523,26,0.032,8275,3.8401,-127.173
lg,1625493578375906819,0,0.2583,-0.2603,0.6604,62,49.1333,-35.2783,-32.7148,130,1.0605,0.6003,-28.0354,-24.4694,26,0.033,8406,3.8401,-127.9067
lg,1625493578375924781,0,0.6165,-0.1406,0.6589,63,33.9966,-27.5879,-12.085,130,1.0685,0.6043,-29.8082,-22.6897,26,0.032,8326,3.8401,-128.1161
lg,1625493578375941855,0,0.6816,-0.2227,0.7227,64,24.7803,-2.8076,-8.728,130,1.0735,0.6043,-30.5175,-21.3393,26,0.033,8495,3.8401,-128.547
lg,1625493578713200575,0,0.2759,-0.4094,0.9109,65,12.085,6.958,13.7329,130,1.0815,0.5603,-29.4643,-21.2154,26,0.03,24431,3.8401,-128.01
lg,1625493578713291295,0,0.5066,-0.5137,0.9683,66,17.7612,-2.1973,14.3433,130,1.0815,0.5163,-28.8949,-20.6274,26,0.027,8593,3.8401,-127.3912
lg,1625493578713325035,0,0.449,-0.5591,1.0166,67,38.9404,16.6626,10.6812,130,1.0565,0.4632,-27.8246,-19.5063,26,0.029,8938,3.8401,-127.0284
lg,1625493578713355035,0,0.0371,-0.5452,0.9905,68,71.0449,25.2686,-3.9062,130,0.9905,0.3972,-26.4542,-16.1704,26,0.032,11131,3.8401,-127.488
lg,1625493578713387331,0,0.1406,-0.4731,1.0032,69,93.9331,-37.5366,-8.3008,130,0.9305,0.3512,-27.2479,-12.8605,26,0.033,10753,3.8401,-127.223
lg,1625493578713415404,0,0.2451,-0.4282,0.9678,70,92.4683,-56.7627,-3.479,130,0.8684,0.3292,-28.9508,-9.825,26,0.033,7988,3.8401,-126.633
lg,1625493578713444385,0,0.418,-0.2991,0.8853,71,77.3315,-55.3589,7.9346,130,0.8114,0.3142,-30.897,-7.4833,26,0.032,9960,3.8401,-125.702
lg,1625493578713471570,0,0.6809,-0.1636,0.8784,72,50.9644,-26.3062,25.8179,130,0.7904,0.3102,-32.0595,-6.2675,26,0.031,7937,3.8401,-124.2958
lg,1625493578713519255,0,0.7119,-0.2881,0.8779,73,24.4751,0.061,22.4609,130,0.7734,0.3071,-32.1898,-6.2893,26,0.033,7974,3.8401,-123.0066
lg,1625493578713550810,0,0.4741,-0.3059,0.9194,74,21.5454,23.4375,21.1792,130,0.7504,0.3001,-30.1787,-6.4044,26,0.034,9218,3.8401,-122.1737
lg,1625493578713579717,0,0.2893,-0.2964,0.9434,75,15.1367,53.1616,14.5264,130,0.7284,0.2941,-27.4792,-6.4618,26,0.035,8054,3.8401,-121.5468
lg,1625493578713608216,0,0.1509,-0.2344,0.9536,76,-0.1831,28.8696,8.728,130,0.7163,0.2901,-25.5702,-6.8922,26,0.037,9265,3.8401,-121.1643
lg,1625493578713634012,0,0.4041,-0.1807,0.9597,77,-24.353,-11.5967,3.1738,130,0.7234,0.2921,-25.8836,-8.1029,26,0.037,7933,3.8401,-120.8926
lg,1625493578713662993,0,0.5107,-0.2024,0.9976,78,-38.0859,-11.9019,0.8545,130,0.7524,0.3001,-26.3793,-9.9081,26,0.037,7865,3.8401,-120.6678
lg,1625493578713690752,0,0.4385,-0.2854,0.9565,79,-62.7441,11.9629,-1.6479,130,0.7954,0.3132,-25.8162,-12.5968,26,0.038,8021,3.8401,-120.727
lg,1625493578713719511,0,0.229,-0.3066,0.9412,80,-76.355,16.9678,-4.1504,130,0.8384,0.3292,-24.6956,-15.7067,26,0.036,7964,3.8401,-121.0038
lg,1625493578713747510,0,0.1357,-0.3589,0.9619,81,-79.2236,7.6904,-5.127,130,0.8794,0.3492,-23.6682,-19.0719,26,0.035,8121,3.8401,-121.1978
lg,1625493578714016432,0,0.0913,-0.4978,1.0337,82,-75.1343,-22.583,-8.0566,130,0.9255,0.3732,-23.878,-22.3454,26,0.037,7994,3.8401,-121.0857
lg,1625493578714057116,0,0.1731,-0.5747,0.988,83,-59.6313,-48.7061,-11.5356,130,0.9775,0.4042,-25.2404,-25.2117,26,0.036,8258,3.8401,-120.5638
lg,1625493578714090357,0,0.2532,-0.5964,0.9749,84,-49.7437,-58.1055,-13.1836,130,1.0235,0.4402,-27.2297,-27.7731,26,0.035,8054,3.8401,-119.8063
lg,1625493578714120541,0,0.4209,-0.5889,0.8508,85,-28.0151,-54.6875,-8.3008,130,1.0555,0.4722,-29.0942,-29.5738,26,0.03,8288,3.8401,-118.8156
lg,1625493578714155504,0,0.3909,-0.457,0.7351,86,-0.3662,-24.1089,-3.2349,130,1.0705,0.4832,-29.7949,-29.8814,26,0.031,8137,3.8401,-118.351
lg,1625493578714187966,0,0.2864,-0.2871,0.6926,87,11.4746,-8.0566,-2.0142,130,1.0765,0.4812,-29.2368,-29.0327,26,0.03,8212,3.8401,-118.3567
lg,1625493578714220558,0,0.2217,-0.4128,0.8069,88,9.7046,-5.6152,11.5356,130,1.0805,0.4712,-28.5968,-28.8363,26,0.03,8154,3.8401,-117.8149
lg,1625493578714250798,0,0.3594,-0.4653,0.9287,89,6.958,-18.2495,25.4517,130,1.0825,0.4592,-28.3579,-29.1309,26,0.031,8310,3.8401,-116.4482
lg,1625493578714287576,0,0.4436,-0.5381,0.9556,90,15.3198,-19.4702,31.9824,130,1.0815,0.4502,-28.1525,-29.3272,26,0.029,8237,3.8401,-114.7465
lg,1625493578714316149,0,0.4265,-0.5012,0.9299,91,23.4985,-19.9585,28.8696,130,1.0725,0.4362,-28.0492,-28.6632,26,0.03,8422,3.8401,-113.2421
lg,1625493578714344760,0,0.4526,-0.4431,0.8916,92,45.0439,-27.1606,25.6348,130,1.0625,0.4202,-28.3707,-27.5289,26,0.031,8510,3.8401,-111.6783
lg,1625493578714374519,0,0.5669,-0.4199,0.8428,93,50.0488,-29.6021,25.5737,130,1.0445,0.4032,-28.9148,-25.9276,26,0.03,8792,3.8401,-110.3625
lg,1625493578714400315,0,0.4636,-0.3816,0.8474,94,59.9976,-10.1929,17.5171,130,1.0105,0.3812,-28.4552,-23.6106,26,0.031,10110,3.8401,-109.9051
lg,1625493578714427203,0,0.386,-0.3774,0.8542,95,61.6455,11.5967,11.9629,130,0.9745,0.3622,-27.602,-21.3002,26,0.033,8503,3.8401,-109.5986
lg,1625493578714456999,0,0.2847,-0.3423,0.8855,96,55.603,11.6577,12.207,130,0.9385,0.3482,-26.5621,-19.2267,26,0.034,8385,3.8401,-109.263
lg,1625493579058907734,0,0.3589,-0.2637,0.8528,97,24.292,-1.3428,19.5923,130,0.8744,0.3302,-26.1811,-18.8863,26,0.035,24979,3.8401,-108.4373
lg,1625493579058944696,0,0.3943,-0.3018,0.8855,98,11.9019,3.2959,18.3105,130,0.8484,0.3232,-25.6134,-18.7012,26,0.035,9290,3.8401,-107.7252
lg,1625493579058965492,0,0.3052,-0.2827,0.9424,99,-0.5493,10.376,15.7471,130,0.8414,0.3202,-24.6832,-18.8512,26,0.036,7868,3.8401,-107.2535
lg,1625493579058985232,0,0.2866,-0.3621,0.97,100,-10.498,1.0376,14.6484,130,0.8534,0.3262,-24.0821,-19.5758,26,0.036,11569,3.8401,-106.6369
lg,1625493579059004658,0,0.439,-0.3535,0.9927,101,-17.9443,-7.2632,9.2773,130,0.8834,0.3362,-24.1624,-20.487,26,0.035,7730,3.8401,-106.1477
lg,1625493579059023232,0,0.4167,-0.3379,0.9216,102,-27.6489,12.2681,2.0142,130,0.9124,0.3522,-23.6254,-21.5243,26,0.037,11899,3.8401,-106.2674
lg,1625493579059041269,0,0.3406,-0.2729,0.8745,103,-39.856,20.5688,-5.5542,130,0.9375,0.3652,-22.8195,-22.716,26,0.037,7719,3.8401,-106.902
lg,1625493579059059528,0,0.2578,-0.2964,0.8574,104,-50.4761,20.752,-9.7656,130,0.9625,0.3822,-22.0734,-24.654,26,0.035,7869,3.8401,-107.7987
lg,1625493579059076990,0,0.2427,-0.3098,0.9009,105,-68.6646,12.5732,-17.6392,130,0.9915,0.4062,-21.6221,-26.8053,26,0.037,7717,3.8401,-108.8165
lg,1625493579059094194,0,0.1951,-0.4883,0.9641,106,-75.0122,-13.1836,-32.8979,130,1.0255,0.4382,-22.251,-29.4188,26,0.036,7864,3.8401,-109.8105
lg,1625493579059111545,0,0.2297,-0.6509,1.0076,107,-69.458,-24.7192,-37.5977,130,1.0575,0.4762,-23.5752,-31.5938,26,0.033,8602,3.8401,-110.6008
lg,1625493579059129675,0,0.1326,-0.8184,1.0083,108,-39.3677,-27.6489,-45.6543,130,1.0785,0.5133,-24.79,-33.045,26,0.033,8641,3.8401,-111.5229
lg,1625493579059146563,0,0.0957,-0.5959,0.8237,109,18.9209,-41.1987,-57.1899,130,1.0925,0.5323,-26.6418,-31.906,26,0.034,7883,3.8401,-112.6193
lg,1625493579059163619,0,0.115,-0.3281,0.6616,110,34.0576,-42.7246,-44.9219,130,1.1015,0.5403,-28.3266,-29.9571,26,0.034,7894,3.8401,-113.4615
lg,1625493579059180285,0,0.4521,-0.1702,0.679,111,28.5034,-45.8984,-28.1982,130,1.1085,0.5423,-30.1565,-28.7648,26,0.034,8558,3.8401,-113.4038
lg,1625493579059196618,0,0.4897,-0.2422,0.7373,112,10.6201,-24.8413,-4.3945,130,1.1115,0.5403,-31.1999,-28.1115,26,0.034,7958,3.8401,-113.244
lg,1625493579059213303,0,0.5076,-0.3547,0.8308,113,-3.1738,-2.3193,5.7983,130,1.1145,0.5253,-30.8445,-28.2656,26,0.035,10952,3.8401,-113.0039
lg,1625493579059230118,0,0.6174,-0.4602,0.9316,114,-0.5493,12.3901,10.8643,130,1.1155,0.4972,-30.1924,-28.2882,26,0.031,8067,3.8401,-112.8782
lg,1625493579059246266,0,0.5347,-0.5618,0.9966,115,18.3105,30.9448,3.8452,130,1.1125,0.4632,-28.8214,-27.347,26,0.031,8139,3.8401,-113.3671
lg,1625493579059262636,0,0.2942,-0.6462,1.0808,116,47.9126,39.0625,-0.4883,130,1.1005,0.4282,-26.8209,-25.2146,26,0.033,7999,3.8401,-114.0875
lg,1625493579059279135,0,0.1267,-0.5964,1.0017,117,65.8569,35.5225,-6.958,130,1.0735,0.3932,-24.8429,-22.4337,26,0.033,8179,3.8401,-114.8804
lg,1625493579059295672,0,0.0801,-0.5378,0.9805,118,86.731,-5.0659,-7.0801,130,1.0405,0.3662,-24.3316,-19.1675,26,0.033,8089,3.8401,-114.9523
lg,1625493579059312079,0,0.3237,-0.4092,0.8821,119,90.1489,-45.105,0.4883,130,1.0015,0.3472,-25.8035,-16.0738,26,0.035,8076,3.8401,-114.2231
lg,1625493579059329042,0,0.4729,-0.3462,0.8584,120,86.2427,-51.6968,6.958,130,0.9535,0.3292,-27.7539,-13.4816,26,0.034,8512,3.8401,-113.1627
lg,1625493579059345542,0,0.6426,-0.2659,0.8223,121,69.1528,-33.0811,13.6719,130,0.8944,0.3142,-29.2687,-11.3238,26,0.034,8237,3.8401,-112.1639
lg,1625493579059362486,0,0.5771,-0.2563,0.8508,122,49.5605,3.9673,12.9395,130,0.8294,0.3021,-29.1636,-9.82,26,0.033,8323,3.8401,-111.5157
lg,1625493579059379486,0,0.3789,-0.2581,0.8928,123,24.5972,32.4097,15.9912,130,0.7924,0.2941,-27.5083,-9.3234,26,0.032,8127,3.8401,-110.9157
lg,1625493579059396152,0,0.282,-0.2949,0.8979,124,12.3901,36.6211,17.2729,130,0.7884,0.2901,-25.5334,-9.4218,26,0.034,8330,3.8401,-110.2483
lg,1625493579059412615,0,0.2649,-0.2532,0.9543,125,-6.0425,12.8174,14.1602,130,0.8004,0.2911,-24.5176,-10.1079,26,0.033,8240,3.8401,-109.6323
lg,1625493579059429133,0,0.5112,-0.2537,0.9802,126,-27.9541,-4.3945,10.9253,130,0.8304,0.2961,-24.6921,-11.6022,26,0.035,8403,3.8401,-109.0519
lg,1625493579059445744,0,0.5713,-0.2222,0.9636,127,-37.9639,0.5493,4.8828,130,0.8724,0.3071,-24.8077,-13.3282,26,0.036,8222,3.8401,-108.7909
lg,1625493579059466151,0,0.5042,-0.2764,0.9163,128,-56.6406,26.001,-2.1362,130,0.9184,0.3202,-23.9378,-15.5604,26,0.036,8440,3.8401,-109.1107
lg,1625493579420178763,0,0.0974,-0.4436,0.9607,129,-77.3315,13.5498,-18.4937,130,1.0545,0.3802,-23.248,-18.7053,26,0.034,23862,3.8401,-109.7005
lg,1625493579420218430,0,0.1306,-0.563,0.9575,130,-60.9131,-39.1846,-14.8315,130,1.0875,0.4222,-24.2793,-21.6149,26,0.032,9499,3.8401,-109.5358
lg,1625493579420239429,0,0.2166,-0.5337,0.9265,131,-51.9409,-44.7998,-14.2822,130,1.1045,0.4542,-25.6311,-24.3444,26,0.031,8086,3.8401,-109.1117
lg,1625493579420258429,0,0.1592,-0.5732,0.8779,132,-10.9863,-46.3257,-21.8506,130,1.1175,0.4832,-27.1572,-25.1174,26,0.032,10250,3.8401,-108.9811
lg,1625493579420276669,0,0.3762,-0.2593,0.7141,133,11.4136,-48.7061,-16.1133,130,1.1266,0.4912,-29.155,-24.8838,26,0.032,10512,3.8401,-108.3064
lg,1625493579420294817,0,0.5496,-0.2407,0.7258,134,3.9062,-49.1943,4.9438,130,1.1296,0.4912,-31.1029,-25.065,26,0.032,7813,3.8401,-107.257
lg,1625493579420313113,0,0.5576,-0.377,0.8467,135,-6.897,-12.7563,14.1602,130,1.1326,0.4872,-31.308,-25.7329,26,0.031,8129,3.8401,-106.4276
lg,1625493579420330743,0,0.4626,-0.4741,0.9075,136,-5.3711,3.6621,18.0054,130,1.1346,0.4742,-30.5773,-26.366,26,0.029,8398,3.8401,-105.7129
lg,1625493579420347224,0,0.4509,-0.5188,0.9148,137,9.5215,7.3853,16.6626,98,1.1356,0.4552,-29.7211,-26.384,26,0.029,7910,3.9028,-105.1094
lg,1625493579420364020,0,0.4214,-0.5305,0.9644,138,19.4092,10.7422,14.7095,98,1.1316,0.4312,-28.7263,-25.8963,26,0.029,7837,3.9028,-104.6722
lg,1625493579420383149,0,0.2825,-0.573,0.939,139,52.7954,16.7847,6.8359,98,1.1215,0.3992,-27.4438,-24.0095,26,0.033,9541,3.9028,-104.59
lg,1625493579420401334,0,0.1567,-0.5044,0.9255,140,78.6743,-1.1597,4.0283,98,1.1035,0.3732,-26.6855,-21.1636,26,0.032,7867,3.9028,-104.2907
lg,1625493579420419612,0,0.2412,-0.3855,0.8987,141,82.4585,-31.25,8.3008,98,1.0735,0.3562,-27.2359,-18.3407,26,0.031,9785,3.9028,-103.4122
lg,1625493579420438093,0,0.3145,-0.3313,0.8845,142,77.4536,-40.1001,12.085,98,1.0475,0.3482,-28.2667,-15.8375,26,0.033,7946,3.9028,-102.3056
lg,1625493579420455852,0,0.5591,-0.2869,0.8599,143,55.1147,-37.9639,20.5078,98,1.0275,0.3452,-29.64,-14.3939,26,0.034,8024,3.9028,-100.9016
lg,1625493579420473741,0,0.7524,-0.2109,0.8589,144,30.0293,-10.1318,18.1885,98,1.0165,0.3442,-30.27,-13.6344,26,0.034,7978,3.9028,-99.9884
lg,1625493579420491185,0,0.7649,-0.178,0.8398,145,13.2446,14.2212,11.2305,98,1.0165,0.3442,-29.7632,-13.3401,26,0.033,8183,3.9028,-99.6085
lg,1625493579420508481,0,0.5017,-0.208,0.9026,146,-7.3853,60.1807,1.2207,98,1.0245,0.3492,-27.3603,-13.3393,26,0.034,8004,3.9028,-100.1988
lg,1625493579420525536,0,0.3123,-0.2751,0.936,147,-30.0903,61.9507,-9.4604,98,1.0445,0.3602,-24.67,-14.1933,26,0.034,8154,3.9028,-101.2123
lg,1625493579420542536,0,0.1743,-0.3298,0.9065,148,-37.1094,54.8706,-13.3667,98,1.0725,0.3762,-22.3519,-15.6005,26,0.035,8913,3.9028,-102.2943
lg,1625493579420559943,0,0.0872,-0.356,0.8975,149,-44.3115,44.9829,-14.5874,98,1.0905,0.3922,-20.382,-17.3158,26,0.036,9592,3.9028,-103.231
lg,1625493579420582183,0,-0.0364,-0.3655,0.9355,150,-47.0581,12.085,-16.9067,98,1.1065,0.4102,-19.2668,-19.065,26,0.039,8063,3.9028,-104.0305
lg,1625493579420600942,0,0.0793,-0.4536,0.8894,151,-50.415,-39.3066,-21.8506,98,1.1195,0.4322,-20.462,-21.2975,26,0.039,8160,3.9028,-104.226
lg,1625493579420618553,0,0.2161,-0.4668,0.8416,152,-49.1943,-52.7344,-22.4609,98,1.1326,0.4492,-22.4077,-23.4454,26,0.036,8167,3.9028,-104.0846
lg,1625493579420635849,0,0.178,-0.4592,0.8291,153,-41.748,-48.0957,-19.3481,98,1.1426,0.4642,-24.0054,-25.3723,26,0.034,8244,3.9028,-103.9034
lg,1625493579420654386,0,0.1475,-0.4338,0.8311,154,-33.3252,-52.4292,-11.8408,98,1.1486,0.4722,-25.4916,-27.0154,26,0.035,8326,3.9028,-103.3208
lg,1625493579420672126,0,0.2915,-0.459,0.8647,155,-28.8696,-72.3267,-3.1738,98,1.1526,0.4772,-27.7362,-28.8188,26,0.038,8296,3.9028,-101.9171
lg,1625493579420690941,0,0.397,-0.5164,0.8901,156,-24.7192,-76.2329,-0.6104,98,1.1566,0.4822,-30.1113,-30.6734,26,0.036,8223,3.9028,-100.1886
lg,1625493579420710644,0,0.5068,-0.5007,0.864,157,-7.019,-71.7773,-0.1831,98,1.1596,0.4882,-32.4209,-31.8209,26,0.035,8372,3.9028,-98.4641
lg,1625493579420728848,0,0.5659,-0.4272,0.833,158,1.709,-50.9033,8.2397,98,1.1616,0.4922,-33.905,-32.4451,26,0.035,8280,3.9028,-96.9387
lg,1625493579420747107,0,0.7974,-0.4756,0.8599,159,4.2114,-42.2974,13.6108,98,1.1636,0.4922,-34.6866,-32.7773,26,0.035,8299,3.9028,-95.6899
lg,1625493579420764977,0,0.8237,-0.4875,0.8594,160,13.6719,-2.3804,14.0991,98,1.1646,0.4832,-34.6578,-32.4677,26,0.034,8506,3.9028,-95.1244
lg,1625493579774572971,0,0.0183,-0.5051,0.874,161,75.0732,53.833,8.1787,98,1.1406,0.4112,-31.3905,-28.8468,26,0.037,24418,3.9028,-96.1256
lg,1625493579774629673,0,0.1145,-0.4617,0.9021,162,78.2471,1.8921,14.0991,98,1.1155,0.3932,-30.102,-25.933,26,0.035,8669,3.9028,-95.6002
lg,1625493579774649951,0,0.3879,-0.4353,0.8818,163,71.8384,-29.4189,21.2402,98,1.0825,0.3802,-30.4611,-23.8204,26,0.036,11564,3.9028,-94.1206
lg,1625493579774672525,0,0.6294,-0.2339,0.8411,164,53.2227,-28.5034,20.1416,98,1.0665,0.3752,-31.4017,-22.0925,26,0.032,7874,3.9028,-92.9007
lg,1625493579774691191,0,0.8093,-0.0806,0.8726,165,31.5552,-19.5923,14.9536,98,1.0785,0.3832,-32.3694,-20.9798,26,0.035,8142,3.9028,-92.1092
lg,1625493579774708339,0,0.7366,-0.2004,0.9177,166,-28.8086,70.0684,-1.8311,98,1.1105,0.4052,-30.023,-21.1554,26,0.035,9799,3.9028,-93.5456
lg,1625493579774725079,0,0.5728,-0.2866,0.8599,167,-43.8843,92.7734,-5.9814,98,1.1336,0.4242,-26.7604,-21.9372,26,0.041,7671,3.9028,-95.4088
lg,1625493579774741783,0,0.2358,-0.3557,0.8457,168,-56.2744,108.0933,-13.855,98,1.1486,0.4392,-22.5102,-23.2119,26,0.041,7861,3.9028,-97.7947
lg,1625493579774759783,0,-0.313,-0.3687,0.9087,169,-57.4341,105.4688,-20.9351,98,1.1576,0.4502,-18.175,-24.4553,26,0.041,7782,3.9028,-100.4755
lg,1625493579774777264,0,-0.4202,-0.3679,0.8662,170,-56.1523,50.7812,-25.3296,98,1.1626,0.4692,-15.4969,-26.2445,26,0.039,9149,3.9028,-102.3314
lg,1625493579774794967,0,-0.064,-0.4832,0.8855,171,-54.5654,-37.8418,-16.9067,98,1.1666,0.4842,-16.3995,-28.534,26,0.036,8166,3.9028,-102.219
lg,1625493579774812171,0,0.083,-0.4927,0.938,172,-27.4658,-59.082,-20.1416,98,1.1696,0.4982,-18.3734,-29.726,26,0.035,7979,3.9028,-101.7628
lg,1625493579774830207,0,0.1372,-0.4871,0.8796,173,-13.855,-67.8101,-21.3013,98,1.1726,0.5082,-20.8957,-30.4662,26,0.035,7904,3.9028,-101.1081
lg,1625493579774848207,0,0.4138,-0.449,0.8945,174,-7.8125,-85.8154,-12.085,98,1.1756,0.5133,-24.134,-31.1757,26,0.034,8058,3.9028,-99.7041
lg,1625493579774871781,0,0.7549,-0.438,0.8735,175,-6.2866,-63.8428,-0.3052,98,1.1756,0.5163,-26.8326,-31.8939,26,0.032,7934,3.9028,-98.2962
lg,1625493579774892595,0,0.7595,-0.4736,0.8938,176,-4.1504,-31.6162,3.3569,98,1.1766,0.5163,-28.1141,-32.3585,26,0.031,8037,3.9028,-97.4566
lg,1625493579774909614,0,0.5767,-0.5391,0.9124,177,2.7466,23.3154,11.6577,98,1.1776,0.5153,-27.0918,-32.1157,26,0.031,7954,3.9028,-97.6131
lg,1625493579774928336,0,0.2905,-0.5005,0.9014,178,10.7422,46.1426,18.1885,98,1.1786,0.5102,-24.6964,-31.3782,26,0.03,8078,3.9028,-98.0696
lg,1625493579774946206,0,0.2502,-0.4995,0.8735,179,14.2212,39.5508,20.3247,98,1.1796,0.5022,-22.5012,-30.6839,26,0.03,7972,3.9028,-98.2318
lg,1625493579774965168,0,0.3208,-0.5205,0.8672,180,24.7192,23.1934,20.5078,98,1.1786,0.4892,-21.0914,-29.7988,26,0.029,8173,3.9028,-97.9709
lg,1625493579774981853,0,0.2141,-0.5452,0.8782,181,43.7012,23.3154,14.3433,98,1.1746,0.4672,-19.6274,-28.1531,26,0.032,8003,3.9028,-97.8855
lg,1625493579774998946,0,0.0835,-0.5486,0.8931,182,63.1104,-0.4883,9.9487,98,1.1576,0.4282,-18.8716,-25.9031,26,0.037,10448,3.9028,-97.4418
lg,1625493579775016501,0,0.1177,-0.5171,0.9006,183,68.4204,-19.165,8.8501,98,1.1326,0.4002,-19.6861,-23.5065,26,0.035,8298,3.9028,-96.3741
lg,1625493579775033834,0,0.2827,-0.4373,0.8904,184,71.228,-49.1333,11.7188,98,1.0975,0.3762,-21.1639,-21.2096,26,0.034,8275,3.9028,-95.0734
lg,1625493579775051167,0,0.4749,-0.3948,0.8594,185,69.2749,-58.4717,10.1318,98,1.0495,0.3542,-23.4236,-19.0596,26,0.033,8289,3.9028,-93.7477
lg,1625493579775068130,0,0.5981,-0.3628,0.8555,186,66.4673,-37.5366,4.3945,98,0.9815,0.3312,-25.1558,-16.8296,26,0.035,10054,3.9028,-93.0076
lg,1625493579775085500,0,0.46,-0.2888,0.918,187,52.4292,3.418,2.7466,98,0.9275,0.3182,-25.0039,-14.7923,26,0.03,8175,3.9028,-92.9237
lg,1625493579775102926,0,0.3928,-0.189,0.929,188,40.7715,14.8926,3.9062,98,0.9084,0.3142,-24.2081,-13.1175,26,0.029,8876,3.9028,-92.9358
lg,1625493579775119666,0,0.4126,-0.2886,0.9524,189,9.8267,14.5874,3.1128,98,0.9265,0.3172,-23.5425,-12.8673,26,0.029,8813,3.9028,-92.8866
lg,1625493579775136721,0,0.533,-0.2671,1.0117,190,-9.5215,25.0854,-0.7935,98,0.9625,0.3282,-22.7065,-13.2071,26,0.029,8431,3.9028,-93.1388
lg,1625493579775153425,0,0.3345,-0.3582,0.9158,191,-20.0806,52.4292,-7.8125,98,0.9995,0.3432,-20.5968,-14.0144,26,0.03,8316,3.9028,-93.8734
lg,1625493579775171406,0,0.1833,-0.3428,0.8921,192,-19.5923,56.4575,-9.7656,98,1.0275,0.3572,-18.1323,-14.748,26,0.038,8343,3.9028,-94.7726
lg,1625493580116616414,0,0.1221,-0.3174,0.9292,193,-37.3535,-30.8838,-19.5312,98,1.0975,0.4022,-19.0891,-16.2586,26,0.041,24601,3.9028,-95.1708
lg,1625493580116664321,0,0.3521,-0.3057,0.908,194,-54.0161,-45.8374,-21.1182,98,1.1316,0.4422,-21.121,-18.4048,26,0.038,10836,3.9028,-95.4158
lg,1625493580116685635,0,0.4707,-0.3826,0.8884,195,-66.7725,-26.3062,-20.0195,98,1.1496,0.4752,-22.5634,-21.0905,26,0.035,10504,3.9028,-95.7722
lg,1625493580116705394,0,0.1543,-0.6016,0.9497,196,-54.9927,4.6997,-29.1748,98,1.1566,0.4922,-22.2608,-23.2721,26,0.034,7884,3.9028,-96.8472
lg,1625493580116724672,0,-0.0535,-0.4729,0.9211,197,-24.6582,-2.8687,-39.4897,98,1.1616,0.5022,-22.6,-23.5795,26,0.035,7750,3.9028,-97.9524
lg,1625493580116742505,0,-0.0374,-0.4797,0.8518,198,-9.8267,-40.4663,-35.1562,98,1.1636,0.5062,-24.693,-24.0922,26,0.034,7929,3.9028,-97.8485
lg,1625493580116760467,0,0.4473,-0.3794,0.8398,199,-8.5449,-59.3262,-14.8926,98,1.1656,0.5092,-27.1301,-24.6468,26,0.034,8115,3.9028,-97.3579
lg,1625493580116779282,0,0.6191,-0.3491,0.8247,200,-8.4839,-27.1606,-3.8452,98,1.1676,0.5092,-28.466,-25.0831,26,0.033,7785,3.9028,-97.0282
lg,1625493580116797356,0,0.6121,-0.3933,0.8547,201,-11.4136,-5.3101,-0.8545,98,1.1686,0.5032,-28.6537,-25.6016,26,0.031,7975,3.9028,-96.9446
lg,1625493580116815263,0,0.4976,-0.5232,0.9482,202,-10.6812,24.353,5.0659,98,1.1696,0.4922,-27.5298,-26.0243,26,0.028,8840,3.9028,-97.16
lg,1625493580116839726,0,0.384,-0.5986,0.9458,203,1.8921,39.6729,8.0566,98,1.1686,0.4762,-25.6299,-26.0017,26,0.028,8262,3.9028,-97.4976
lg,1625493580116858910,0,0.1763,-0.5769,0.9158,204,22.1558,46.3257,15.3198,98,1.1636,0.4502,-23.0629,-25.2664,26,0.027,12188,3.9028,-97.6563
lg,1625493580116878132,0,0.1121,-0.5894,0.929,205,37.7197,24.0479,16.7847,98,1.1526,0.4322,-21.2424,-24.1458,26,0.031,8197,3.9028,-97.3087
lg,1625493580116895465,0,0.0938,-0.5364,0.8452,206,54.1382,-2.5635,15.4419,98,1.1346,0.4102,-20.4759,-22.563,26,0.035,8128,3.9028,-96.524
lg,1625493580116913632,0,0.1626,-0.4949,0.8582,207,59.2651,-22.3389,17.8223,98,1.1115,0.3912,-20.6031,-20.8771,26,0.038,8096,3.9028,-95.3485
lg,1625493580116932650,0,0.416,-0.4688,0.8823,208,61.9507,-49.2554,21.0571,98,1.0855,0.3772,-22.2371,-19.2556,26,0.037,8242,3.9028,-93.6746
lg,1625493580116950113,0,0.5181,-0.4697,0.8652,209,61.1572,-40.5884,21.5454,98,1.0605,0.3682,-23.7201,-17.7269,26,0.036,8154,3.9028,-92.0971
lg,1625493580116967316,0,0.4902,-0.4148,0.8684,210,61.0352,-31.4331,20.9351,98,1.0335,0.3582,-24.5746,-16.1467,26,0.038,8861,3.9028,-90.8541
lg,1625493580116986298,0,0.4995,-0.2607,0.8689,211,49.9878,-19.4092,18.1885,98,1.0195,0.3532,-25.2892,-14.592,26,0.031,8358,3.9028,-89.848
lg,1625493580117004279,0,0.5039,-0.3127,0.855,212,10.7422,1.8311,21.2402,98,1.0275,0.3602,-25.1459,-14.7487,26,0.029,8285,3.9028,-88.8707
lg,1625493580117022501,0,0.4863,-0.3328,0.9619,213,0.7324,13.2446,20.0195,98,1.0435,0.3752,-24.4406,-15.18,26,0.032,8140,3.9028,-88.0981
lg,1625493580117040241,0,0.4751,-0.3787,0.9185,214,-2.8687,20.813,19.165,98,1.0665,0.3912,-23.4809,-15.8016,26,0.032,8278,3.9028,-87.4175
lg,1625493580117057463,0,0.2993,-0.3887,0.8816,215,-2.3804,37.8418,15.1367,98,1.0845,0.4042,-21.6213,-16.2854,26,0.031,8146,3.9028,-87.1137
lg,1625493580117075500,0,0.0657,-0.3423,0.8523,216,-3.479,37.1094,8.0566,98,1.1005,0.4182,-19.4275,-16.6129,26,0.033,8388,3.9028,-87.1497
lg,1625493580117092815,0,0.0188,-0.3472,0.8452,217,-5.3711,20.5078,6.1035,98,1.1165,0.4352,-17.9183,-17.1151,26,0.034,8244,3.9028,-87.0601
lg,1625493580117110222,0,0.1462,-0.3979,0.8782,218,-8.0566,-19.2871,5.4321,98,1.1326,0.4552,-18.2203,-17.8721,26,0.036,8420,3.9028,-86.5084
lg,1625493580117128296,0,0.2378,-0.3167,0.8816,219,-13.7939,-22.8271,4.6997,98,1.1466,0.4732,-18.8633,-18.6488,26,0.038,8272,3.9028,-85.9957
lg,1625493580117146425,0,0.2256,-0.2708,0.834,220,-35.4614,-21.1792,0.7935,98,1.1596,0.4932,-19.4683,-20.1376,26,0.042,8460,3.9028,-85.6779
lg,1625493580117165184,0,0.2583,-0.2808,0.8728,221,-46.4478,-26.7944,-0.6104,98,1.1696,0.5143,-20.3211,-22.0205,26,0.042,8389,3.9028,-85.3265
lg,1625493580117184091,0,0.3677,-0.3088,0.9167,222,-60.9741,-35.4004,0.3662,98,1.1736,0.5383,-21.6263,-24.5299,26,0.041,8371,3.9028,-84.7599
lg,1625493580117202035,0,0.4326,-0.4932,1.0203,223,-67.0166,-35.5835,0.061,98,1.1746,0.5723,-22.8632,-27.501,26,0.042,8836,3.9028,-84.0653
lg,1625493580117220331,0,0.2974,-0.5684,1.0178,224,-28.1982,-25.4517,-21.9727,98,1.1766,0.6103,-23.8274,-28.5579,26,0.041,8419,3.9028,-84.3654
lg,1625493580478328794,0,0.3677,-0.3396,0.7207,225,6.3477,-0.7324,-18.3716,98,1.1826,0.6533,-24.3597,-27.7894,26,0.041,24915,3.9028,-85.1553
lg,1625493580478363683,0,0.2339,-0.304,0.7703,226,3.479,41.5649,1.0376,98,1.1826,0.6453,-22.5326,-27.0681,26,0.039,8667,3.9028,-86.0615
lg,1625493580478383942,0,0.0315,-0.4226,0.8975,227,-10.7422,12.5732,23.3154,98,1.1826,0.6253,-20.8539,-27.6466,26,0.038,12079,3.9028,-85.4567
lg,1625493580478403534,0,0.4573,-0.5684,1.0007,228,-6.8359,-25.2686,25.2075,98,1.1816,0.5993,-21.2943,-28.5149,26,0.037,10071,3.9028,-83.967
lg,1625493580478421571,0,0.5483,-0.5947,1.0029,229,-0.1221,-18.4937,21.9727,98,1.1796,0.5793,-21.6654,-29.0386,26,0.037,7821,3.9028,-82.7274
lg,1625493580478438774,0,0.3906,-0.6663,0.9873,230,23.9258,4.3335,14.2212,98,1.1756,0.5593,-21.0999,-28.4404,26,0.04,7785,3.9028,-82.2091
lg,1625493580478456793,0,0.1814,-0.5798,0.9014,231,47.8516,0.7935,6.0425,98,1.1696,0.5293,-20.5058,-26.7833,26,0.041,8803,3.9028,-81.9255
lg,1625493580478474552,0,0.1985,-0.5513,0.9053,232,51.2695,-12.0239,5.4932,98,1.1626,0.5062,-20.4484,-25.076,26,0.04,7995,3.9028,-81.4182
lg,1625493580478492033,0,0.3269,-0.5237,0.8826,233,54.0161,-27.832,9.2163,98,1.1556,0.4872,-21.1965,-23.4444,26,0.038,8256,3.9028,-80.4884
lg,1625493580478509236,0,0.3572,-0.5574,0.9004,234,58.6548,-22.8271,11.5356,98,1.1476,0.4692,-21.7614,-21.7405,26,0.04,8256,3.9028,-79.531
lg,1625493580478528125,0,0.3445,-0.5088,0.8845,235,60.1196,-21.3623,10.9863,98,1.1466,0.4562,-22.2811,-19.9577,26,0.039,7910,3.9028,-78.6355
lg,1625493580478545291,0,0.4661,-0.3977,0.863,236,44.2505,-19.3481,12.4512,98,1.1536,0.4502,-22.993,-18.6746,26,0.038,8105,3.9028,-77.7814
lg,1625493580478561532,0,0.6904,-0.2825,0.8621,237,20.4468,-10.376,2.7466,98,1.1646,0.4522,-23.9042,-17.9364,26,0.039,7943,3.9028,-77.5387
lg,1625493580478578883,0,0.7109,-0.26,0.895,238,7.019,13.7329,-1.8921,98,1.1766,0.4662,-23.9267,-17.4847,26,0.039,8015,3.9028,-77.8305
lg,1625493580478595883,0,0.4844,-0.1746,0.7864,239,-21.3013,61.1572,-5.8594,98,1.1846,0.4872,-21.9531,-17.7381,26,0.042,7864,3.9028,-78.9564
lg,1625493580478612827,0,0.178,-0.302,0.8372,240,-51.3306,65.8569,-15.2588,98,1.1946,0.5052,-19.2364,-19.3316,26,0.042,8054,3.9028,-80.447
lg,1625493580478629772,0,-0.1714,-0.4302,0.9346,241,-65.6128,36.0718,-23.2544,98,1.1986,0.5213,-17.1261,-21.7035,26,0.043,10241,3.9028,-81.8482
lg,1625493580478647142,0,-0.2849,-0.5383,1.0146,242,-59.6924,4.2725,-27.5879,98,1.2026,0.5353,-16.2272,-23.9963,26,0.042,8134,3.9028,-82.9291
lg,1625493580478664642,0,-0.2729,-0.5073,0.9717,243,-19.4702,-81.1157,-45.8984,98,1.2036,0.5533,-18.7827,-24.8037,26,0.041,8012,3.9028,-83.2392
lg,1625493580478681178,0,0.2236,-0.4683,0.8389,244,-1.5259,-115.9058,-39.4287,98,1.2056,0.5653,-23.4014,-25.2427,26,0.039,8003,3.9028,-82.6055
lg,1625493580478698030,0,0.3967,-0.3948,0.8147,245,-0.1221,-108.1543,-29.1138,98,1.2066,0.5753,-27.7908,-25.6519,26,0.038,8199,3.9028,-81.6955
lg,1625493580478714548,0,0.6477,-0.3447,0.8445,246,-4.1504,-72.4487,-8.667,98,1.2066,0.5833,-30.8281,-26.2199,26,0.038,8035,3.9028,-80.6556
lg,1625493580478731641,0,0.6421,-0.4631,0.8921,247,-5.9204,-23.0713,-1.9531,98,1.2086,0.5863,-31.7454,-26.7033,26,0.036,8116,3.9028,-80.2333
lg,1625493580478748011,0,0.5554,-0.4758,0.9026,248,-3.479,0.4883,1.77,98,1.2096,0.5873,-30.8743,-26.7424,26,0.037,8326,3.9028,-80.311
lg,1625493580478764770,0,0.4377,-0.4841,0.897,249,1.4038,22.7051,6.7749,98,1.2106,0.5863,-29.6369,-26.6499,26,0.036,8159,3.9028,-80.4734
lg,1625493580478781862,0,0.4141,-0.5073,0.8833,250,9.3994,31.189,10.9253,98,1.2116,0.5803,-28.0289,-26.3119,26,0.036,8288,3.9028,-80.5998
lg,1625493580478799492,0,0.3728,-0.5732,0.8772,251,24.9634,40.1001,12.5122,98,1.2116,0.5543,-25.9831,-25.4337,26,0.035,13406,3.9028,-80.7643
lg,1625493580478817362,0,0.2144,-0.5171,0.8999,252,44.4946,45.8984,6.8359,89,1.2096,0.5243,-23.6446,-23.6097,26,0.035,8581,3.9083,-81.2415
lg,1625493580478834361,0,0.0212,-0.4639,0.8098,253,61.4624,23.9258,-4.1504,89,1.2046,0.4902,-21.9671,-21.2089,26,0.035,8188,3.9083,-81.6794
lg,1625493580478851565,0,0.0105,-0.4858,0.822,254,71.5332,-21.9116,-5.6152,89,1.1936,0.4492,-22.0482,-18.7937,26,0.039,8436,3.9083,-81.4144
lg,1625493580478868768,0,0.0894,-0.4343,0.8379,255,73.3643,-43.7622,-3.8452,89,1.1726,0.4162,-23.1132,-16.3957,26,0.039,8309,3.9083,-80.8458
lg,1625493580478885416,0,0.2444,-0.4719,0.8853,256,74.2798,-70.8008,-3.479,89,1.1496,0.3952,-25.5128,-14.2001,26,0.037,8448,3.9083,-79.9702
lg,1625493580829272493,0,0.9087,-0.1572,0.8979,257,3.418,-59.9976,8.4229,89,1.1526,0.3922,-28.4916,-14.3951,26,0.035,25761,3.9083,-78.9948
lg,1625493580829317585,0,0.9897,-0.2593,0.9512,258,-22.644,23.5596,4.2114,89,1.1616,0.4022,-28.1827,-15.2808,26,0.038,8932,3.9083,-79.0688
lg,1625493580829338066,0,0.3569,-0.3733,0.9458,259,-38.8184,104.6143,-3.7842,89,1.1726,0.4152,-23.8681,-16.4512,26,0.04,9878,3.9083,-80.3904
lg,1625493580829357362,0,-0.1492,-0.3745,0.9438,260,-44.9219,79.5898,-7.2632,89,1.1856,0.4352,-19.7167,-17.9621,26,0.043,12323,3.9083,-81.6353
lg,1625493580829376417,0,-0.0571,-0.4158,0.9238,261,-43.9453,8.606,-1.709,89,1.1926,0.4542,-18.53,-19.9045,26,0.041,10793,3.9083,-81.7499
lg,1625493580829394510,0,0.0269,-0.3911,0.8357,262,-36.6211,-15.2588,-0.4272,89,1.1966,0.4632,-18.4435,-21.6386,26,0.041,7802,3.9083,-81.4801
lg,1625493580829412380,0,0.012,-0.3672,0.8145,263,-34.9121,-25.3296,0.1221,89,1.1996,0.4682,-18.7409,-23.1954,26,0.041,7841,3.9083,-81.063
lg,1625493580829430787,0,0.0986,-0.375,0.8767,264,-39.7339,-61.0352,6.897,89,1.2016,0.4692,-20.3364,-25.2132,26,0.04,7757,3.9083,-79.7419
lg,1625493580829448083,0,0.3809,-0.4822,0.9512,265,-41.8091,-80.0171,18.7988,89,1.2026,0.4672,-22.8192,-27.7708,26,0.037,7738,3.9083,-77.458
lg,1625493580829464750,0,0.5002,-0.5408,0.9324,266,-36.2549,-74.1577,24.5361,89,1.2026,0.4652,-24.5981,-29.9314,26,0.036,9080,3.9083,-75.0763
lg,1625493580829481620,0,0.5901,-0.585,0.9805,267,-22.4609,-47.5464,28.6865,89,1.2026,0.4632,-25.736,-31.7758,26,0.036,7819,3.9083,-72.8941
lg,1625493580829498527,0,0.7214,-0.6619,0.957,268,-1.6479,-23.5596,22.9492,89,1.2016,0.4612,-26.2747,-32.5661,26,0.037,8007,3.9083,-71.4245
lg,1625493580829515878,0,0.6523,-0.7065,0.957,269,12.146,-3.8452,16.1743,89,1.1986,0.4572,-26.1486,-32.532,26,0.038,7850,3.9083,-70.6617
lg,1625493580829533415,0,0.2151,-0.6306,0.8865,270,41.1377,32.4707,15.625,89,1.1956,0.4532,-24.1314,-30.9399,26,0.039,8045,3.9083,-70.771
lg,1625493580829556730,0,0.1594,-0.5361,0.8254,271,60.2417,1.3428,14.3433,89,1.1936,0.4522,-23.2114,-28.8292,26,0.039,7955,3.9083,-70.2119
lg,1625493580829577563,0,0.2642,-0.5273,0.8264,272,65.2466,-13.855,14.0381,89,1.1936,0.4532,-23.1143,-26.7003,26,0.037,8051,3.9083,-69.3247
lg,1625493580829596525,0,0.4124,-0.4998,0.7854,273,74.1577,-10.437,12.8784,89,1.1916,0.4532,-23.2985,-24.24,26,0.038,11801,3.9083,-68.5367
lg,1625493580829614284,0,0.4114,-0.4434,0.7683,274,70.9839,-2.0142,12.8784,89,1.1926,0.4542,-23.2328,-21.845,26,0.039,8124,3.9083,-67.901
lg,1625493580829632895,0,0.4602,-0.2488,0.793,275,57.373,6.4697,6.0425,89,1.1956,0.4542,-23.1284,-19.4412,26,0.039,8018,3.9083,-67.8289
lg,1625493580829650821,0,0.6223,-0.2446,0.855,276,21.4233,11.1694,-5.6152,89,1.2006,0.4602,-23.2411,-18.3042,26,0.04,8149,3.9083,-68.2742
lg,1625493580829668173,0,0.6182,-0.2112,0.8528,277,8.5449,26.9775,-9.6436,89,1.2076,0.4712,-22.8003,-17.5054,26,0.041,8039,3.9083,-69.1027
lg,1625493580829685635,0,0.3887,-0.2153,0.8008,278,-19.104,58.2275,-9.3384,89,1.2136,0.4852,-20.4113,-17.6952,26,0.042,10008,3.9083,-70.3055
lg,1625493580829703061,0,0.0942,-0.2915,0.9446,279,-41.8701,51.1475,-13.5498,89,1.2156,0.4992,-18.058,-18.9305,26,0.042,8567,3.9083,-71.5494
lg,1625493580829720450,0,0.0469,-0.4436,1.0479,280,-47.3633,5.188,-14.9536,89,1.2176,0.5233,-17.4495,-20.7742,26,0.042,8341,3.9083,-72.1735
lg,1625493580829737190,0,0.2429,-0.5222,1.0679,281,-45.6543,-15.1978,-15.3809,89,1.2186,0.5603,-18.5035,-22.49,26,0.042,8176,3.9083,-72.3122
lg,1625493580829754060,0,0.3562,-0.5251,1.0322,282,-31.7383,-31.4941,-18.6157,89,1.2186,0.6053,-19.8902,-23.8622,26,0.04,8164,3.9083,-72.4553
lg,1625493580829771005,0,0.3667,-0.5471,0.8782,283,-16.1743,-8.3618,-23.8647,89,1.2176,0.6473,-20.5715,-24.5498,26,0.039,8234,3.9083,-73.1287
lg,1625493580829788189,0,0.1113,-0.4309,0.6985,284,11.4746,28.5645,-23.1323,89,1.2176,0.6733,-19.4114,-23.9054,26,0.04,8204,3.9083,-74.4206
lg,1625493580829805282,0,-0.0974,-0.3076,0.6868,285,17.2119,39.3677,-19.4092,89,1.2186,0.6813,-17.254,-22.7826,26,0.041,8411,3.9083,-75.8177
lg,1625493580829822319,0,-0.2593,-0.2898,0.7454,286,13.2446,-11.6577,-5.3711,89,1.2196,0.6833,-16.4551,-22.185,26,0.039,8261,3.9083,-75.8489
lg,1625493580829839281,0,0.3809,-0.4451,0.873,287,2.5024,-83.1299,12.2681,89,1.2196,0.6833,-19.512,-22.8271,26,0.039,8455,3.9083,-73.9775
lg,1625493580829857559,0,0.6443,-0.5393,0.9385,288,1.9531,-84.3506,16.8457,89,1.2216,0.6783,-22.1683,-23.4666,26,0.039,8332,3.9083,-72.0683
lg,1625493581192638888,0,0.4165,-0.5732,0.9622,289,38.0859,-0.061,19.5312,89,1.2266,0.6373,-21.7971,-22.525,26,0.041,24627,3.9083,-71.1823
lg,1625493581192724627,0,0.3413,-0.5652,0.9373,290,54.6875,-0.9155,16.1133,89,1.2296,0.6163,-21.4203,-20.9295,26,0.043,9671,3.9083,-70.3932
lg,1625493581192745997,0,0.3542,-0.5242,0.886,291,59.7534,-2.6855,15.8081,89,1.2306,0.5963,-21.3343,-19.02,26,0.042,7801,3.9083,-69.5238
lg,1625493581192765164,0,0.4404,-0.4548,0.8472,292,66.1011,-9.4604,12.4512,89,1.2326,0.5703,-21.6745,-16.967,26,0.04,11846,3.9083,-68.7628
lg,1625493581192783460,0,0.5408,-0.2783,0.855,293,61.7065,6.7139,7.5073,89,1.2336,0.5533,-21.6984,-14.6247,26,0.042,8051,3.9083,-68.5264
lg,1625493581192802200,0,0.3682,-0.2568,0.7866,294,52.4292,18.7988,6.2256,89,1.2326,0.5343,-20.6848,-12.9546,26,0.041,7744,3.9083,-68.6068
lg,1625493581192820959,0,0.28,-0.2439,0.8291,295,36.377,31.6162,3.479,89,1.2306,0.5022,-19.1232,-11.6182,26,0.043,9603,3.9083,-68.6882
lg,1625493581192839403,0,0.1121,-0.2698,0.8467,296,24.4751,25.2075,2.0752,89,1.2246,0.4742,-17.5572,-10.9027,26,0.043,8044,3.9083,-68.7082
lg,1625493581192856681,0,0.0601,-0.3108,0.9321,297,15.1978,-7.2021,-1.0376,89,1.2166,0.4502,-17.2983,-10.6094,26,0.044,7955,3.9083,-68.5988
lg,1625493581192874884,0,0.2136,-0.3596,0.9705,298,10.8032,-41.5649,-4.6387,89,1.2046,0.4302,-18.7424,-10.6108,26,0.042,7793,3.9083,-68.3496
lg,1625493581192892736,0,0.2722,-0.3606,1.0256,299,9.2163,-49.8657,-5.6152,89,1.1926,0.4162,-20.6425,-10.5656,26,0.043,7971,3.9083,-68.1057
lg,1625493581192911717,0,0.376,-0.3362,1.0845,300,-3.54,-51.0864,-4.5166,89,1.1916,0.4112,-22.5827,-11.0535,26,0.042,7836,3.9083,-67.7887
lg,1625493581192929421,0,0.4885,-0.3225,1.0466,301,-24.4141,-39.917,-2.3804,89,1.2006,0.4192,-24.2138,-12.3622,26,0.041,7916,3.9083,-67.4438
lg,1625493581192947661,0,0.5312,-0.2759,0.9543,302,-32.7759,-31.25,-1.4648,89,1.2136,0.4442,-25.0295,-14.2492,26,0.045,9101,3.9083,-67.2162
lg,1625493581192964902,0,0.5454,-0.2747,0.9116,303,-50.0488,-7.2021,1.0986,89,1.2226,0.4732,-25.4767,-16.3927,26,0.045,8049,3.9083,-67.0421
lg,1625493581192982161,0,0.5208,-0.2986,0.8904,304,-59.6313,19.8975,-3.1128,89,1.2266,0.4992,-24.8916,-18.6791,26,0.045,8059,3.9083,-67.4029
lg,1625493581192999309,0,0.4172,-0.3345,0.9067,305,-61.2793,38.8184,-8.0566,89,1.2286,0.5203,-22.5448,-20.7888,26,0.042,7931,3.9083,-68.7128
lg,1625493581193016438,0,-0.0083,-0.6501,1.0093,306,-53.772,53.1616,-20.0195,89,1.2306,0.5413,-20.0047,-22.8293,26,0.039,8082,3.9083,-70.183
lg,1625493581193034401,0,-0.2627,-0.5774,0.8674,307,-15.9302,10.437,-31.189,89,1.2306,0.5513,-18.8469,-23.4325,26,0.039,7982,3.9083,-71.4297
lg,1625493581193051660,0,-0.3503,-0.489,0.8345,308,-4.3945,-16.8457,-33.2642,89,1.2316,0.5583,-20.3238,-23.6604,26,0.039,7996,3.9083,-71.4471
lg,1625493581193068400,0,0.2107,-0.3501,0.8027,309,-0.6104,-93.6279,-21.4233,89,1.2326,0.5633,-23.8053,-23.9691,26,0.036,8148,3.9083,-70.6595
lg,1625493581193085382,0,0.6653,-0.3601,0.8123,310,-6.6528,-86.0596,-12.3291,89,1.2326,0.5653,-27.6332,-24.694,26,0.037,8028,3.9083,-69.5786
lg,1625493581193107122,0,0.698,-0.3882,0.8325,311,-7.1411,-55.542,-5.9814,89,1.2336,0.5633,-28.9281,-25.2879,26,0.036,8058,3.9083,-69.1573
lg,1625493581193125714,0,0.5654,-0.4976,0.9226,312,-8.728,-8.3618,0.1831,89,1.2346,0.5553,-29.1954,-25.8338,26,0.035,8236,3.9083,-68.9284
lg,1625493581193142436,0,0.4753,-0.5498,0.9263,313,-1.77,13.0005,6.1035,89,1.2346,0.5443,-28.4066,-26.0927,26,0.034,8105,3.9083,-68.844
lg,1625493581193159344,0,0.4717,-0.5779,0.938,314,4.3945,19.4702,9.2163,89,1.2346,0.5303,-27.0887,-25.7377,26,0.031,8130,3.9083,-68.8573
lg,1625493581193176566,0,0.4307,-0.5698,0.9285,315,23.8037,33.02,10.0098,89,1.2316,0.5082,-25.3079,-24.4447,26,0.03,9673,3.9083,-69.1656
lg,1625493581193193436,0,0.2891,-0.4968,0.8804,316,41.1987,42.7856,4.7607,89,1.2286,0.4842,-23.1332,-22.7897,26,0.033,9813,3.9083,-69.6276
lg,1625493581193209917,0,0.1277,-0.5034,0.8691,317,56.2744,23.6816,-0.7324,89,1.2216,0.4592,-21.6514,-20.698,26,0.032,8420,3.9083,-69.9049
lg,1625493581193226695,0,0.2173,-0.4746,0.8665,318,65.4907,-9.7656,-1.77,89,1.2116,0.4382,-21.682,-18.4426,26,0.036,8213,3.9083,-69.7057
lg,1625493581193242620,0,0.3513,-0.4731,0.866,319,65.1245,-23.7427,-1.709,89,1.1976,0.4212,-22.5314,-16.3402,26,0.041,8836,3.9083,-69.3163
lg,1625493581193259342,0,0.3945,-0.4463,0.8518,320,64.6362,-23.2544,-1.5869,89,1.1826,0.4082,-23.4448,-14.2851,26,0.038,8494,3.9083,-68.9436
lg,1625493581551588604,0,0.3313,-0.1006,0.8103,321,23.8037,5.9814,-8.2397,89,1.1536,0.3922,-23.2359,-12.8827,26,0.04,24035,3.9083,-69.4705
lg,1625493581551630936,0,0.4978,-0.1038,0.8745,322,-15.625,1.9531,-11.1084,89,1.1626,0.3952,-23.5046,-13.078,26,0.04,8835,3.9083,-70.0541
lg,1625493581551651473,0,0.4595,-0.1929,0.9226,323,-32.4707,16.7236,-7.3242,89,1.1806,0.4042,-23.0184,-14.1294,26,0.042,8061,3.9083,-70.5566
lg,1625493581551670899,0,0.2961,-0.2437,0.8652,324,-67.5049,9.5215,-7.6294,89,1.1956,0.4182,-22.5387,-16.7127,26,0.042,9750,3.9083,-70.9665
lg,1625493581551689788,0,0.1365,-0.2993,0.9688,325,-88.9282,5.3101,-5.7983,89,1.2146,0.4572,-21.8242,-20.1468,26,0.036,14822,3.9083,-71.2898
lg,1625493581551707917,0,0.0964,-0.5122,1.0125,326,-90.5762,-13.9771,-3.9673,89,1.2176,0.4762,-21.7351,-24.0506,26,0.033,8025,3.9083,-71.1402
lg,1625493581551726306,0,-0.0901,-0.7769,1.106,327,-65.8569,-27.4048,-21.5454,89,1.2206,0.4912,-23.2056,-24.7638,26,0.029,7925,3.9083,-71.7654
lg,1625493581551744379,0,0.0166,-0.637,0.9043,328,-6.2866,-84.8389,-36.438,89,1.2226,0.4972,-26.0265,-25.5121,26,0.03,7885,3.9083,-71.4531
lg,1625493581551762694,0,0.4424,-0.4246,0.8721,329,12.8174,-95.7642,-19.8364,89,1.2246,0.5002,-29.7395,-25.5062,26,0.029,7829,3.9083,-70.3846
lg,1625493581551779453,0,0.6646,-0.3301,0.8364,330,12.7563,-79.5898,-8.1177,89,1.2256,0.5032,-32.2624,-25.6871,26,0.03,8692,3.9083,-69.2859
lg,1625493581551797379,0,0.7141,-0.3801,0.8542,331,3.2349,-40.4053,0.7324,89,1.2266,0.5042,-33.8899,-25.963,26,0.029,8148,3.9083,-68.4483
lg,1625493581551815693,0,0.4224,-0.4712,0.897,332,3.6621,4.7607,5.249,89,1.2276,0.5042,-33.1768,-25.956,26,0.031,8051,3.9083,-68.283
lg,1625493581551833100,0,0.4712,-0.5012,0.8772,333,9.4604,1.2207,12.085,89,1.2266,0.4992,-32.593,-26.0004,26,0.031,9956,3.9083,-67.7056
lg,1625493581551850674,0,0.5256,-0.5732,0.9116,334,22.1558,20.9961,15.564,89,1.2276,0.4912,-31.3093,-25.4906,26,0.03,8266,3.9083,-67.3388
lg,1625493581551868359,0,0.4548,-0.5554,0.8818,335,30.5786,32.5317,16.7847,89,1.2256,0.4762,-29.548,-24.5818,26,0.032,8009,3.9083,-67.1275
lg,1625493581551888489,0,0.3088,-0.4478,0.8455,336,44.7998,44.1284,15.564,89,1.2246,0.4572,-27.2278,-22.8593,26,0.031,8114,3.9083,-67.2144
lg,1625493581551907118,0,0.2214,-0.395,0.8379,337,56.7017,35.8887,12.146,89,1.2236,0.4392,-25.1762,-20.6605,26,0.033,8033,3.9083,-67.2505
lg,1625493581551924321,0,0.2415,-0.4397,0.8352,338,62.3779,27.4048,8.728,89,1.2256,0.4212,-23.609,-18.4533,26,0.031,8159,3.9083,-67.1588
lg,1625493581551942729,0,0.1438,-0.4602,0.8782,339,78.186,12.8174,1.8921,89,1.2266,0.4022,-22.5084,-15.6951,26,0.029,8057,3.9083,-67.0726
lg,1625493581551960802,0,0.2009,-0.3923,0.8672,340,79.4067,-13.3667,6.4087,89,1.2276,0.3882,-22.5512,-13.0493,26,0.035,8233,3.9083,-66.511
lg,1625493581551979043,0,0.3835,-0.3101,0.8933,341,60.6079,-36.377,13.6719,89,1.2286,0.3822,-23.8337,-11.2333,26,0.03,9709,3.9083,-65.5021
lg,1625493581551996691,0,0.4985,-0.2803,0.9031,342,46.2646,-35.8887,18.1274,89,1.2286,0.3832,-25.4458,-9.9957,26,0.03,8552,3.9083,-64.3648
lg,1625493581552014728,0,0.6912,-0.2124,0.9175,343,22.2778,-24.4751,15.7471,89,1.2296,0.3892,-26.7194,-9.5978,26,0.028,8879,3.9083,-63.4433
lg,1625493581552031783,0,0.6987,-0.2158,0.9565,344,1.8311,21.4844,2.8076,89,1.2326,0.3962,-26.1957,-9.6179,26,0.03,8410,3.9083,-63.4309
lg,1625493581552050301,0,0.3796,-0.2002,0.8716,345,-24.292,52.5513,-1.9531,89,1.2376,0.4062,-24.0166,-10.5077,26,0.031,8233,3.9083,-63.8661
lg,1625493581552067449,0,0.2871,-0.1848,0.855,346,-40.1001,39.978,-5.7373,89,1.2416,0.4172,-22.2311,-12.0091,26,0.033,8430,3.9083,-64.4002
lg,1625493581552084930,0,0.2183,-0.2314,0.9028,347,-62.0728,18.7378,-13.9771,89,1.2436,0.4292,-21.2694,-14.2895,26,0.033,8318,3.9083,-65.142
lg,1625493581552106671,0,-0.0435,-0.49,1.0271,348,-67.1997,17.5171,-13.7329,89,1.2436,0.4492,-19.8511,-17.1567,26,0.031,9371,3.9083,-65.7624
lg,1625493581552124282,0,-0.1375,-0.5923,1.0364,349,-28.5034,-52.6123,-26.4282,89,1.2436,0.4682,-21.1734,-18.6739,26,0.033,8544,3.9083,-65.9775
lg,1625493581552143615,0,0.2502,-0.4302,0.8921,350,-16.2354,-83.0688,-31.311,89,1.2436,0.4812,-24.9934,-19.2011,26,0.035,8347,3.9083,-65.7363
lg,1625493581552161263,0,0.4553,-0.3989,0.8062,351,-0.1221,-95.7642,-26.6113,89,1.2436,0.4902,-29.0139,-19.6193,26,0.029,8396,3.9083,-65.3106
lg,1625493581552181781,0,0.6382,-0.3354,0.8394,352,-0.3052,-52.063,-9.9487,89,1.2456,0.4952,-31.3362,-19.8987,26,0.031,8934,3.9083,-64.8886
lg,1625493581909802533,0,0.5154,-0.5706,0.9448,353,7.8125,31.7383,12.6953,89,1.2476,0.4872,-29.7387,-20.0716,26,0.031,26387,3.9083,-64.5997
lg,1625493581909851792,0,0.4072,-0.5374,0.9402,354,23.9258,49.7437,16.0522,89,1.2486,0.4762,-27.3069,-19.4821,26,0.031,8530,3.9083,-64.4784
lg,1625493581909872680,0,0.3499,-0.5305,0.918,355,32.1045,49.1943,15.4419,89,1.2496,0.4642,-24.9107,-18.5064,26,0.029,8315,3.9083,-64.3875
lg,1625493581909900495,0,0.2854,-0.4702,0.8589,356,46.2646,52.124,11.0474,89,1.2496,0.4522,-22.4683,-16.9857,26,0.029,7858,3.9083,-64.4426
lg,1625493581909920272,0,0.1033,-0.4863,0.8301,357,58.1055,43.7012,5.188,89,1.2486,0.4332,-20.1225,-15.118,26,0.029,11738,3.9083,-64.5237
lg,1625493581909938809,0,0.1494,-0.4326,0.8445,358,67.688,-1.0376,3.7842,89,1.2476,0.4162,-19.8495,-12.9187,26,0.029,10645,3.9083,-64.1981
lg,1625493581909957068,0,0.3015,-0.3918,0.8816,359,67.0166,-25.3906,7.6904,89,1.2426,0.4102,-20.688,-10.8752,26,0.029,7777,3.9083,-63.5011
lg,1625493581909975142,0,0.4719,-0.2981,0.8958,360,59.2041,-27.4658,9.5215,89,1.2336,0.4052,-21.9338,-9.0171,26,0.028,9503,3.9083,-62.7973
lg,1625493581909992679,0,0.7031,-0.0889,0.8699,361,16.2354,-14.4653,1.6479,89,1.2296,0.4032,-23.1467,-8.3228,26,0.028,7891,3.9083,-62.6776
lg,1625493581910011030,0,0.7173,-0.177,0.8772,362,-3.418,5.6763,-3.8452,89,1.2316,0.4072,-23.463,-8.2725,26,0.028,7860,3.9083,-62.9221
lg,1625493581910028808,0,0.5391,-0.1143,0.8804,363,-33.8135,49.6826,-2.6855,89,1.2406,0.4202,-21.2688,-10.1447,26,0.031,10318,3.9083,-63.488
lg,1625493581910047956,0,0.1921,-0.2798,0.8823,364,-57.9224,47.0581,-12.8784,107,1.2456,0.4282,-19.155,-12.4325,26,0.03,7956,3.8973,-64.3168
lg,1625493581910066493,0,-0.0693,-0.2915,0.8896,365,-68.9087,29.8462,-15.0757,107,1.2476,0.4382,-17.2416,-15.1195,26,0.03,7925,3.8973,-65.1778
lg,1625493581910085548,0,-0.2041,-0.2788,0.9438,366,-71.106,17.2119,-12.5122,107,1.2486,0.4542,-16.5683,-18.178,26,0.029,8017,3.8973,-65.4791
lg,1625493581910104177,0,-0.3013,-0.4136,1.0667,367,-24.7192,-57.4341,-29.6021,107,1.2496,0.4702,-17.9333,-19.1568,26,0.03,7941,3.8973,-65.8568
lg,1625493581910123251,0,0.1895,-0.4517,0.9182,368,2.7466,-114.2578,-30.3955,107,1.2506,0.4812,-22.3342,-19.4661,26,0.029,8067,3.8973,-65.3749
lg,1625493581910141658,0,0.6462,-0.2891,0.792,369,8.3618,-114.8071,-21.6064,107,1.2506,0.4922,-26.5961,-19.5605,26,0.03,8652,3.8973,-64.3445
lg,1625493581910160177,0,0.8066,-0.3254,0.8745,370,4.0283,-70.5566,-2.5024,107,1.2506,0.4942,-28.5251,-19.7954,26,0.029,9035,3.8973,-63.8013
lg,1625493581910178269,0,0.6167,-0.3975,0.9204,371,0.061,3.3569,2.3193,107,1.2516,0.4942,-28.4834,-19.9464,26,0.029,7973,3.8973,-63.691
lg,1625493581910196935,0,0.3464,-0.5034,0.9541,372,3.9062,28.8086,10.9863,107,1.2506,0.4942,-26.8373,-20.1283,26,0.029,8152,3.8973,-63.5147
lg,1625493581910214898,0,0.4492,-0.5276,0.9243,373,15.4419,23.9868,15.564,107,1.2516,0.4932,-25.5766,-20.0211,26,0.028,8187,3.8973,-63.0568
lg,1625493581910232768,0,0.4622,-0.4651,0.8938,374,20.813,32.2876,17.5171,107,1.2516,0.4902,-24.0939,-19.5841,26,0.029,8253,3.8973,-62.6878
lg,1625493581910250638,0,0.3564,-0.4233,0.8735,375,24.0479,44.6777,17.395,107,1.2526,0.4872,-22.029,-18.9022,26,0.029,8066,3.8973,-62.5133
lg,1625493581910269471,0,0.2368,-0.4487,0.8833,376,28.0151,41.5649,16.6016,107,1.2526,0.4852,-19.9134,-18.1499,26,0.029,8271,3.8973,-62.2812
lg,1625493581910287508,0,0.2219,-0.4417,0.874,377,31.5552,33.9355,14.4653,107,1.2526,0.4832,-18.1722,-17.2875,26,0.029,8134,3.8973,-62.015
lg,1625493581910304730,0,0.1584,-0.4685,0.8638,378,45.7153,22.644,10.437,107,1.2516,0.4812,-16.8438,-15.9614,26,0.029,8296,3.8973,-61.7218
lg,1625493581910323323,0,0.1802,-0.4385,0.8523,379,60.4858,-3.3569,9.2163,107,1.2526,0.4752,-16.6429,-14.119,26,0.029,8159,3.8973,-61.1778
lg,1625493581910341137,0,0.2563,-0.397,0.8513,380,61.9507,-13.3667,10.376,107,1.2516,0.4692,-17.0656,-12.2016,26,0.029,8367,3.8973,-60.5143
lg,1625493581910358674,0,0.3308,-0.3806,0.8972,381,65.1245,-18.1885,14.6484,107,1.2496,0.4602,-17.7374,-10.2479,26,0.029,8225,3.8973,-59.6406
lg,1625493581910377192,0,0.3999,-0.3594,0.9202,382,65.6128,-19.7754,13.7939,107,1.2466,0.4532,-18.6056,-8.2753,26,0.03,8451,3.8973,-58.8062
lg,1625493581910394988,0,0.4199,-0.2029,0.8738,383,62.8052,-19.2261,12.4512,107,1.2426,0.4462,-19.4193,-6.576,26,0.029,8283,3.8973,-58.1824
lg,1625493581910413155,0,0.4404,-0.1655,0.8445,384,36.9263,-10.9253,9.5825,107,1.2406,0.4432,-20.1122,-5.4234,26,0.03,8492,3.8973,-57.6758
lg,1625493582261953312,0,0.3145,-0.0771,0.8816,385,-48.7671,11.5967,0.4272,107,1.2486,0.4612,-19.6241,-7.336,26,0.031,24252,3.8973,-57.7196
lg,1625493582261997533,0,0.3042,-0.1816,0.8899,386,-77.5146,4.1504,-0.061,107,1.2516,0.4752,-19.4125,-10.5792,26,0.031,8611,3.8973,-57.6952
lg,1625493582262017959,0,0.1785,-0.2532,0.9258,387,-82.6416,12.207,1.1597,107,1.2516,0.4842,-18.574,-14.0391,26,0.031,7789,3.8973,-57.7049
lg,1625493582262037181,0,-0.1418,-0.3643,1.0417,388,-85.7544,3.7231,-2.8076,107,1.2496,0.4942,-17.4687,-17.6103,26,0.03,8278,3.8973,-57.825
lg,1625493582262056718,0,-0.1296,-0.573,1.135,389,-19.7754,-80.9937,-32.1045,107,1.2546,0.5092,-21.4152,-18.5217,26,0.03,11924,3.8973,-57.692
lg,1625493582262074995,0,0.2444,-0.5469,0.936,390,14.7705,-111.145,-35.3394,107,1.2536,0.5203,-25.6972,-18.1561,26,0.029,9702,3.8973,-57.1367
lg,1625493582262093310,0,0.623,-0.3091,0.7869,391,27.3438,-80.2002,-13.4277,107,1.2546,0.5273,-29.3156,-17.422,26,0.029,7986,3.8973,-56.5578
lg,1625493582262112606,0,0.6829,-0.3081,0.8306,392,21.7896,-19.5923,-9.1553,107,1.2546,0.5303,-30.4897,-16.5836,26,0.03,8154,3.8973,-56.6496
lg,1625493582262131198,0,0.5393,-0.3835,0.8828,393,19.5923,12.4512,-7.5684,107,1.2546,0.5313,-28.9085,-15.9298,26,0.029,7905,3.8973,-56.9432
lg,1625493582262149568,0,0.301,-0.46,0.8816,394,25.2686,42.1143,2.0752,107,1.2556,0.5303,-26.8125,-15.2178,26,0.028,8021,3.8973,-57.1235
lg,1625493582262168383,0,0.3054,-0.4331,0.8638,395,29.4189,33.3862,6.2866,107,1.2566,0.5283,-25.1115,-14.4698,26,0.029,8421,3.8973,-57.0175
lg,1625493582262186142,0,0.3508,-0.4272,0.905,396,36.499,37.9639,7.5073,107,1.2566,0.5243,-23.3538,-13.4186,26,0.029,8654,3.8973,-56.9115
lg,1625493582262214734,0,0.3123,-0.3816,0.8811,397,39.7339,41.5649,11.8408,107,1.2566,0.5193,-21.4319,-12.2748,26,0.029,7995,3.8973,-56.6504
lg,1625493582262233993,0,0.2898,-0.3601,0.8806,398,41.3208,34.3018,11.7188,107,1.2566,0.5153,-19.8292,-11.0942,26,0.029,8170,3.8973,-56.3093
lg,1625493582262251752,0,0.2729,-0.3372,0.8792,399,48.1567,24.7803,7.8125,107,1.2576,0.5112,-18.6646,-9.6133,26,0.029,8163,3.8973,-56.0365
lg,1625493582262293696,0,0.2241,-0.3657,0.8633,400,52.8564,20.874,4.8828,107,1.2586,0.5002,-17.623,-8.0613,26,0.03,8152,3.8973,-55.7938
lg,1625493582262313900,0,0.1577,-0.4307,0.9314,401,68.6035,-0.9766,-0.9766,107,1.2586,0.4832,-17.3441,-5.9937,26,0.03,8054,3.8973,-55.6166
lg,1625493582262332196,0,0.2622,-0.3689,0.9343,402,75.3784,-22.644,0.1221,107,1.2566,0.4652,-18.1583,-3.6323,26,0.03,8155,3.8973,-55.3439
lg,1625493582262350473,0,0.2822,-0.321,0.9163,403,75.6226,-27.4658,1.5869,107,1.2536,0.4502,-19.196,-1.2761,26,0.03,8080,3.8973,-55.0308
lg,1625493582262366955,0,0.429,-0.2288,0.926,404,65.979,-32.6538,6.1035,107,1.2486,0.4392,-20.7079,0.7842,26,0.031,8083,3.8973,-54.6098
lg,1625493582262384325,0,0.533,-0.105,0.9172,405,37.9028,-21.0571,7.0801,107,1.2446,0.4332,-21.9204,1.9247,26,0.031,8233,3.8973,-54.2351
lg,1625493582262401621,0,0.5894,-0.1035,0.9001,406,19.104,-11.4136,4.6387,107,1.2456,0.4362,-22.7918,2.3305,26,0.03,8130,3.8973,-53.9463
lg,1625493582262427750,0,0.5068,-0.0491,0.9568,407,-7.6294,19.043,0.9155,107,1.2496,0.4482,-22.2328,1.7995,26,0.031,8325,3.8973,-53.7975
lg,1625493582262446731,0,0.4329,-0.0308,0.8801,408,-47.3022,21.6064,-10.2539,107,1.2546,0.4662,-21.5164,-0.0729,26,0.032,10071,3.8973,-54.1671
lg,1625493582262464990,0,0.1335,-0.1831,0.9412,409,-82.2754,44.6777,-13.1836,107,1.2576,0.4872,-19.2282,-3.582,26,0.031,12039,3.8973,-54.6393
lg,1625493582262501712,0,-0.3379,-0.5698,1.1726,410,-85.6323,46.5698,-11.9019,107,1.2586,0.5002,-16.8837,-7.4689,26,0.031,8707,3.8973,-55.1388
lg,1625493582262521842,0,-0.5559,-0.4011,1.0945,411,-44.6777,-16.6626,-31.9824,107,1.2586,0.5102,-16.2105,-9.3611,26,0.031,8434,3.8973,-56.2458
lg,1625493582263065946,0,-0.0615,-0.4751,0.948,412,-15.3809,-114.0747,-34.8511,107,1.2596,0.5173,-20.1905,-10.4835,26,0.031,8374,3.8973,-56.669
lg,1625493582263097297,0,0.595,-0.3132,0.8916,413,-8.1787,-123.7793,-13.6719,107,1.2606,0.5223,-25.605,-11.2975,26,0.031,8578,3.8973,-56.1185
lg,1625493582263118908,0,0.8516,-0.3899,0.9536,414,-7.9956,-95.7031,-4.7607,107,1.2596,0.5253,-28.4817,-12.1995,26,0.031,8560,3.8973,-55.6181
lg,1625493582263141556,0,0.7412,-0.4541,1.0005,415,-7.3242,-18.2495,-3.6011,107,1.2606,0.5253,-29.4514,-12.9534,26,0.031,8347,3.8973,-55.3775
lg,1625493582263162408,0,0.4678,-0.5161,1.01,416,1.8311,29.6021,0.4883,107,1.2606,0.5253,-28.044,-13.322,26,0.031,9647,3.8973,-55.3773
lg,1625493582597479631,0,0.3621,-0.3979,0.8452,417,26.3062,51.0864,10.1318,107,1.2626,0.5213,-25.7154,-12.7254,26,0.03,24375,3.8973,-55.2213
lg,1625493582597524093,0,0.2053,-0.4412,0.8799,418,29.1748,52.2461,10.437,107,1.2616,0.5163,-23.124,-11.8461,26,0.03,9550,3.8973,-55.0543
lg,1625493582597554834,0,0.1296,-0.4421,0.9116,419,42.4805,42.4805,6.5918,107,1.2636,0.5082,-20.8175,-10.7104,26,0.03,8039,3.8973,-54.8964
lg,1625493582597583370,0,-0.0391,-0.4709,0.9446,420,63.0493,8.3008,-1.6479,107,1.2636,0.4872,-19.8042,-8.7444,26,0.031,11375,3.8973,-54.8017
lg,1625493582597611111,0,0.1782,-0.3982,0.9438,421,72.937,-47.2412,2.8076,107,1.2606,0.4732,-21.2845,-6.5567,26,0.031,7869,3.8973,-54.2068
lg,1625493582597637259,0,0.4187,-0.3772,0.9473,422,72.0215,-65.3076,8.4839,107,1.2556,0.4592,-23.9059,-4.5243,26,0.032,9932,3.8973,-53.3507
lg,1625493582597662406,0,0.5886,-0.1509,0.8923,423,51.5137,-59.3872,11.9629,107,1.2506,0.4502,-26.592,-2.9523,26,0.03,7801,3.8973,-52.5806
lg,1625493582597713795,0,0.6924,-0.1155,0.9001,424,33.9355,-55.603,8.606,107,1.2466,0.4472,-29.3536,-1.7837,26,0.031,7908,3.8973,-52.1134
lg,1625493582597741554,0,0.863,-0.0676,0.9731,425,0.5493,-12.9395,3.1128,107,1.2466,0.4482,-30.3336,-1.9175,26,0.031,8609,3.8973,-51.913
lg,1625493582597768109,0,0.5945,-0.1299,0.9653,426,-34.8511,43.396,2.1362,107,1.2506,0.4572,-28.6409,-3.5302,26,0.031,7935,3.8973,-51.7961
lg,1625493582597793090,0,0.3323,-0.1899,1.002,427,-59.082,48.584,-8.728,107,1.2526,0.4682,-26.323,-5.9193,26,0.031,8117,3.8973,-52.2323
lg,1625493582597819423,0,0.2058,-0.1812,0.9351,428,-69.0918,50.5981,-6.2256,107,1.2566,0.4792,-23.7988,-8.6437,26,0.032,8075,3.8973,-52.7083
lg,1625493582597845071,0,-0.0874,-0.2417,0.9944,429,-80.7495,35.2783,-0.3662,107,1.2566,0.4912,-21.3283,-11.9489,26,0.032,7840,3.8973,-52.9456
lg,1625493582597871534,0,-0.2163,-0.6238,1.1731,430,-80.2002,12.3291,-0.4883,107,1.2576,0.5032,-20.9395,-15.6517,26,0.031,7976,3.8973,-52.6954
lg,1625493582597897330,0,0.1179,-0.6216,1.0203,431,-41.1377,-62.1338,-16.6016,107,1.2586,0.5163,-24.0743,-17.4069,26,0.031,7986,3.8973,-52.126
lg,1625493582597922570,0,0.2366,-0.4924,0.9919,432,-10.8643,-95.7642,-19.2261,107,1.2586,0.5243,-27.9547,-18.2954,26,0.032,8738,3.8973,-51.53
lg,1625493582597947162,0,0.6265,-0.3477,0.9167,433,-0.2441,-85.8765,-6.958,107,1.2586,0.5303,-31.458,-18.8695,26,0.031,7963,3.8973,-50.5248
lg,1625493582597972495,0,0.6377,-0.397,0.9128,434,0.6714,-26.8555,-0.1831,107,1.2596,0.5333,-32.5119,-19.2339,26,0.03,8092,3.8973,-50.0245
lg,1625493582597997773,0,0.3708,-0.4688,0.9504,435,7.3242,11.4746,4.9438,107,1.2596,0.5343,-31.497,-19.2673,26,0.031,9538,3.8973,-49.8188
lg,1625493582598022495,0,0.3074,-0.5112,0.9468,436,11.1694,14.5874,8.5449,107,1.2606,0.5353,-30.2794,-19.307,26,0.031,8271,3.8973,-49.4533
lg,1625493582598047605,0,0.387,-0.4365,0.9082,437,21.6675,15.8691,16.9678,107,1.2606,0.5333,-29.0939,-18.9561,26,0.031,8622,3.8973,-48.8189
lg,1625493582598072142,0,0.4841,-0.3894,0.8887,438,27.832,22.7661,21.3013,107,1.2606,0.5303,-27.8571,-18.3116,26,0.031,8437,3.8973,-48.1413
lg,1625493582598096327,0,0.3923,-0.3867,0.9185,439,34.5459,43.1519,19.8364,107,1.2596,0.5263,-25.724,-17.2328,26,0.031,8270,3.8973,-47.7989
lg,1625493582598120197,0,0.3401,-0.377,0.8882,440,40.3442,49.6216,17.4561,107,1.2606,0.5193,-23.3813,-15.9046,26,0.031,8166,3.8973,-47.5831
lg,1625493582598144475,0,0.1035,-0.4092,0.8914,441,57.0068,44.1284,9.4604,107,1.2596,0.5052,-20.9174,-13.9667,26,0.031,8319,3.8973,-47.5218
lg,1625493582598168771,0,0.0437,-0.3596,0.8857,442,70.4346,7.9956,5.9814,107,1.2576,0.4832,-19.848,-11.5637,26,0.031,8147,3.8973,-47.2103
lg,1625493582598193326,0,0.0916,-0.3396,0.8953,443,71.5942,-11.8408,7.1411,107,1.2526,0.4622,-19.8908,-9.1357,26,0.029,8355,3.8973,-46.7125
lg,1625493582598234288,0,0.2649,-0.293,0.915,444,68.1763,-37.6587,10.7422,107,1.2426,0.4402,-21.1441,-7.0052,26,0.029,8975,3.8973,-45.9088
lg,1625493582598259788,0,0.3962,-0.2275,0.8931,445,58.96,-43.0908,14.0381,107,1.2296,0.4212,-22.8764,-5.238,26,0.03,9935,3.8973,-45.0059
lg,1625493582598284103,0,0.5137,-0.0859,0.936,446,35.4004,-31.7383,13.1226,107,1.2196,0.4122,-24.3159,-4.0988,26,0.03,8297,3.8973,-44.3245
lg,1625493582598307843,0,0.6094,-0.125,0.9709,447,0.7935,-5.6763,6.5918,107,1.2186,0.4122,-24.8159,-4.3137,26,0.03,8444,3.8973,-43.9669
lg,1625493582598332917,0,0.6047,-0.021,0.9822,448,-10.7422,17.5171,4.7607,107,1.2226,0.4172,-24.3682,-4.6881,26,0.03,8318,3.8973,-43.867
lg,1625493582974064314,0,0.1304,-0.1614,0.8899,449,-83.4961,36.8652,-11.1694,107,1.2396,0.4522,-22.3232,-7.9819,26,0.03,24525,3.8973,-44.4496
lg,1625493582974108906,0,-0.2246,-0.2749,0.9419,450,-92.7734,26.4893,-11.4746,107,1.2426,0.4642,-20.0581,-11.7553,26,0.031,8608,3.8973,-45.0454
lg,1625493582974129276,0,-0.3149,-0.6421,1.1396,451,-89.7827,-32.6538,-11.1084,107,1.2476,0.4842,-20.1972,-15.981,26,0.029,11852,3.8973,-44.9724
lg,1625493582974174479,0,0.1516,-0.6787,0.9822,452,-25.4517,-115.4785,-30.0903,107,1.2476,0.5002,-24.4687,-17.8448,26,0.03,11856,3.8973,-44.4975
lg,1625493582974194812,0,0.373,-0.4292,0.8708,453,2.4414,-96.9238,-21.6064,107,1.2486,0.5052,-28.27,-18.2757,26,0.03,9372,3.8973,-43.9261
lg,1625493582974213682,0,0.7429,-0.2598,0.845,454,4.6387,-61.1572,0.8545,107,1.2496,0.5072,-31.024,-18.5026,26,0.03,7937,3.8973,-43.0185
lg,1625493582974232571,0,0.8374,-0.374,0.8684,455,0.6714,-32.3486,3.0518,107,1.2496,0.5062,-30.9979,-18.7896,26,0.029,8055,3.8973,-42.767
lg,1625493582974251811,0,0.5247,-0.5068,0.9424,456,6.2256,44.5557,7.2021,107,1.2506,0.5032,-29.0395,-18.7497,26,0.03,8206,3.8973,-42.9183
lg,1625493582974281570,0,0.1873,-0.4536,0.8967,457,18.3105,57.7393,11.9019,107,1.2506,0.4972,-25.9948,-18.2236,26,0.03,7867,3.8973,-43.0633
lg,1625493582974300792,0,0.2595,-0.4321,0.8687,458,21.4233,42.4805,12.6343,107,1.2516,0.4912,-24.1919,-17.5877,26,0.031,8013,3.8973,-42.8351
lg,1625493582974318385,0,0.325,-0.4626,0.8958,459,31.311,37.2925,13.4888,107,1.2506,0.4812,-22.3712,-16.7652,26,0.03,7901,3.8973,-42.5907
lg,1625493582974336144,0,0.137,-0.4138,0.8472,460,44.3726,37.0483,7.6904,107,1.2506,0.4732,-20.323,-15.3381,26,0.03,8073,3.8973,-42.5597
lg,1625493582974354403,0,0.0496,-0.4392,0.8396,461,49.6216,22.583,2.3804,107,1.2486,0.4632,-19.7549,-13.5048,26,0.031,8260,3.8973,-42.4569
lg,1625493582974371754,0,0.3459,-0.321,0.8594,462,62.3779,-42.3584,-2.5024,107,1.2456,0.4512,-21.4612,-11.3905,26,0.031,10677,3.8973,-42.0778
lg,1625493582974390439,0,0.4927,-0.2373,0.9536,463,53.894,-37.2925,-2.0752,107,1.2436,0.4492,-23.1367,-9.4139,26,0.032,8080,3.8973,-41.8424
lg,1625493582974417902,0,0.7678,-0.1677,0.9512,464,14.3433,-12.085,-2.0752,107,1.2446,0.4552,-24.2186,-8.8559,26,0.032,8183,3.8973,-41.8444
lg,1625493582974459568,0,0.6633,-0.198,0.9219,465,-6.0425,43.1519,-7.5684,107,1.2476,0.4682,-22.9909,-8.9621,26,0.032,8076,3.8973,-42.4169
lg,1625493582974482864,0,0.4668,-0.2009,0.8994,466,-13.9771,68.4814,-8.5449,107,1.2506,0.4792,-20.5004,-9.3462,26,0.032,8215,3.8973,-43.1973
lg,1625493582974501438,0,0.0007,-0.2366,0.8782,467,-28.9917,74.7681,-16.9678,107,1.2526,0.4882,-16.8879,-10.3367,26,0.032,8109,3.8973,-44.3677
lg,1625493582974521160,0,-0.4221,-0.3201,0.9954,468,-2.5024,27.4658,-26.001,107,1.2526,0.4942,-14.5767,-10.375,26,0.033,8260,3.8973,-45.5532
lg,1625493582974540863,0,-0.4067,-0.4707,0.9194,469,1.3428,-22.8882,-30.5786,107,1.2536,0.5032,-14.7908,-10.392,26,0.033,8132,3.8973,-46.5384
lg,1625493582974557900,0,0.2471,-0.2727,0.8958,470,11.7188,-99.6094,-28.9917,107,1.2536,0.5163,-18.9005,-10.051,26,0.033,8398,3.8973,-46.9228
lg,1625493582974575085,0,0.6272,-0.207,0.8096,471,15.1367,-62.1338,-19.8975,107,1.2536,0.5293,-22.1714,-9.4525,26,0.033,8442,3.8973,-47.2669
lg,1625493582974592622,0,0.3613,-0.2192,0.8169,472,10.437,-0.6104,-19.6533,107,1.2536,0.5363,-22.3571,-8.9365,26,0.033,8386,3.8973,-48.0194
lg,1625493582974610381,0,0.2192,-0.2249,0.877,473,8.606,6.897,-17.334,107,1.2546,0.5393,-21.844,-8.522,26,0.033,8284,3.8973,-48.7174
lg,1625493582974627122,0,0.239,-0.2932,0.8472,474,6.4087,2.2583,-6.897,107,1.2546,0.5403,-21.5309,-8.5832,26,0.032,8480,3.8973,-48.8639
lg,1625493582974646103,0,0.3462,-0.304,0.8577,475,7.9956,9.5215,1.3428,107,1.2556,0.5413,-21.1282,-8.6916,26,0.031,8299,3.8973,-48.7096
lg,1625493582974663695,0,0.3418,-0.3049,0.8784,476,9.5825,18.8599,4.2725,107,1.2556,0.5423,-19.9479,-8.6699,26,0.031,8469,3.8973,-48.4939
lg,1625493582974681065,0,0.2932,-0.2839,0.865,477,12.8784,29.4189,7.2021,107,1.2566,0.5443,-18.6678,-8.5697,26,0.032,8355,3.8973,-48.2502
lg,1625493582974698417,0,0.2739,-0.2976,0.8433,478,17.9443,34.8511,8.9111,107,1.2556,0.5443,-17.1848,-8.3299,26,0.032,8565,3.9105,-47.9573
lg,1625493582974715620,0,0.1958,-0.281,0.8328,479,25.2075,41.8701,10.7422,91,1.2576,0.5453,-15.2963,-7.7917,26,0.032,8410,3.9105,-47.6361
lg,1625493582974732731,0,0.1702,-0.2832,0.8279,480,30.3345,40.9546,11.3525,91,1.2576,0.5453,-13.5578,-6.8652,26,0.032,8653,3.9105,-47.329
lg,1625493583300864212,0,0.1526,-0.2195,0.7881,481,62.3169,28.0762,7.3242,91,1.2606,0.5473,-12.3008,-4.7663,26,0.031,25026,3.9105,-47.0635
lg,1625493583300907026,0,0.22,-0.1567,0.7563,482,65.4297,18.9819,8.667,91,1.2636,0.5473,-11.6671,-2.4889,26,0.03,9666,3.9105,-46.7045
lg,1625493583300928304,0,0.3127,-0.1055,0.7175,483,62.9883,18.9819,8.8501,91,1.2616,0.5483,-11.0351,-0.3998,26,0.031,7841,3.9105,-46.2986
lg,1625493583300947470,0,0.2764,-0.0925,0.7014,484,56.1523,47.0581,9.5215,91,1.2656,0.5503,-9.5695,1.5016,26,0.031,10681,3.9105,-45.8486
lg,1625493583301000877,0,0.2346,-0.1047,0.7092,485,55.1758,54.5654,9.0942,91,1.2646,0.5523,-7.7525,3.2576,26,0.031,7931,3.9105,-45.3314
lg,1625493583301020636,0,0.1572,-0.1399,0.7117,486,56.7627,64.4531,5.6152,91,1.2656,0.5543,-5.3918,4.9191,26,0.031,9615,3.9105,-44.8475
lg,1625493583301039580,0,0.085,-0.1401,0.7112,487,59.8755,63.1104,0.061,91,1.2666,0.5553,-2.9487,6.6613,26,0.031,7762,3.9105,-44.5304
lg,1625493583301057506,0,0.0769,-0.1326,0.7036,488,62.9883,57.9224,-1.9531,91,1.2656,0.5563,-0.9417,8.573,26,0.03,7850,3.9105,-44.3467
lg,1625493583301076283,0,0.0535,-0.1523,0.7288,489,68.8477,48.9502,-4.0894,91,1.2666,0.5583,0.8817,10.5282,26,0.031,7793,3.9105,-44.1711
lg,1625493583301093802,0,0.0764,-0.1592,0.7358,490,76.1719,43.0908,-5.6763,91,1.2676,0.5603,2.3488,12.694,26,0.03,8509,3.9105,-44.0638
lg,1625493583301111024,0,0.0928,-0.1501,0.7297,491,80.6885,41.4429,-6.6528,91,1.2676,0.5633,3.6895,15.1555,26,0.03,8457,3.9105,-43.956
lg,1625493583301128486,0,0.0789,-0.1553,0.7451,492,89.7827,39.1235,-8.667,91,1.2666,0.5673,4.9211,17.7153,26,0.03,8562,3.9105,-43.9185
lg,1625493583301145486,0,0.1008,-0.1848,0.7961,493,100.9521,35.7666,-11.4746,91,1.2666,0.5733,5.9773,20.5822,26,0.03,7914,3.9105,-43.9921
lg,1625493583301163782,0,0.1223,-0.1995,0.8652,494,116.272,28.6865,-16.2354,91,1.2666,0.5803,6.7806,23.9422,26,0.03,8086,3.9105,-44.3039
lg,1625493583301181782,0,0.1211,-0.1868,0.8811,495,124.8779,27.5269,-19.043,91,1.2676,0.5883,7.5874,27.5576,26,0.03,7948,3.9105,-44.6859
lg,1625493583301198356,0,0.1484,-0.1831,0.9297,496,141.4795,22.2778,-25.8789,91,1.2676,0.5963,8.2971,31.7113,26,0.031,8120,3.9105,-45.3564
lg,1625493583301215300,0,0.2,-0.1233,0.9287,497,153.0762,16.2354,-35.4004,91,1.2676,0.6063,8.9152,36.2609,26,0.031,7976,3.9105,-46.4086
lg,1625493583301232041,0,0.2571,-0.0769,0.9568,498,156.6162,15.564,-39.2456,91,1.2676,0.6163,9.5499,40.9058,26,0.03,8185,3.9105,-47.515
lg,1625493583301249152,0,0.2847,-0.0386,0.9646,499,164.3066,32.0435,-45.7153,91,1.2686,0.6263,10.8448,45.8501,26,0.032,8035,3.9105,-48.2568
lg,1625493583301282762,0,0.1826,0.0435,1.0278,500,171.0815,51.6968,-54.9316,91,1.2686,0.6423,13.165,51.1064,26,0.031,13910,3.9105,-48.4854
lg,1625493583301302762,0,0.1509,0.0698,1.0471,501,174.2554,54.5654,-57.1289,91,1.2676,0.6503,15.6384,56.4404,26,0.031,8092,3.9105,-48.4764
lg,1625493583301320669,0,0.1001,0.1799,1.0649,502,177.8564,46.9971,-60.8521,91,1.2676,0.6553,18.0788,61.904,26,0.03,8073,3.9105,-48.5834
lg,1625493583301337688,0,0.1123,0.3228,1.0483,503,177.3682,35.0952,-62.8662,91,1.2676,0.6583,20.2441,67.3392,26,0.031,8396,3.9105,-48.9357
lg,1625493583301355891,0,0.1047,0.3804,1.0613,504,174.6826,31.6162,-62.561,91,1.2676,0.6603,22.3169,72.6323,26,0.03,8144,3.9105,-49.2283
lg,1625493583301373039,0,0.0872,0.4165,1.1174,505,161.5601,30.1514,-60.6079,91,1.2676,0.6613,24.3051,77.3427,26,0.035,8185,3.9105,-49.4106
lg,1625493583301390002,0,0.0398,0.4526,1.1692,506,146.2402,28.0151,-56.2744,91,1.2666,0.6613,26.1538,81.4015,26,0.035,8680,3.9105,-49.5309
lg,1625493583301407094,0,0.0481,0.4473,1.2083,507,128.479,17.0898,-43.7622,91,1.2656,0.6613,27.4312,84.5235,26,0.036,8321,3.9105,-50.0105
lg,1625493583301423853,0,0.0642,0.4541,1.2256,508,120.4834,11.3525,-37.7197,91,1.2656,0.6623,28.3809,87.1959,26,0.037,8242,3.9105,-50.7015
lg,1625493583301440575,0,0.1248,0.4929,1.2007,509,103.7598,7.5684,-28.2593,91,1.2656,0.6643,28.8861,89.1365,26,0.036,8260,3.9105,-51.524
lg,1625493583301458631,0,0.1531,0.5063,1.1619,510,87.8296,14.2212,-18.7378,91,1.2646,0.6663,28.9584,90.5965,26,0.038,8361,3.9105,-52.0258
lg,1625493583301475927,0,0.1465,0.4768,1.1609,511,80.0171,17.8223,-13.9771,91,1.2646,0.6693,28.7277,91.6271,26,0.037,8368,3.9105,-52.1441
lg,1625493583301492260,0,0.1274,0.4741,1.1638,512,67.3828,28.2593,-6.0425,91,1.2646,0.6713,28.3521,92.5162,26,0.035,8338,3.9105,-52.0196
lg,1625493583699305247,0,0.0237,0.3618,1.1514,513,48.8892,25.6348,11.1694,91,1.2646,0.6753,27.5451,92.5059,26,0.029,24392,3.9105,-52.0741
lg,1625493583699348820,0,0.0715,0.3567,1.1365,514,45.8374,17.395,16.2964,91,1.2606,0.6753,26.4752,92.206,26,0.029,9717,3.9105,-52.4728
lg,1625493583699382542,0,0.0781,0.3545,1.0764,515,42.6025,19.8364,20.4468,91,1.2646,0.6803,25.2111,91.8438,26,0.037,10041,3.9105,-52.7148
lg,1625493583699402227,0,0.0662,0.3584,1.009,516,37.6587,23.3154,24.231,91,1.2646,0.6833,23.7945,91.3725,26,0.037,10475,3.9105,-52.7431
lg,1625493583699420190,0,0.0862,0.3479,0.9797,517,36.438,24.231,26.6113,91,1.2636,0.6873,22.1681,90.8158,26,0.034,7861,3.9105,-52.5861
lg,1625493583699438079,0,0.0898,0.3599,0.9412,518,31.7383,29.48,31.8604,91,1.2636,0.6903,20.4013,90.247,26,0.029,7772,3.9105,-52.2031
lg,1625493583699456041,0,0.0835,0.3547,0.907,519,28.4424,40.1001,35.8887,91,1.2626,0.6933,18.4986,89.7009,26,0.029,7911,3.9105,-51.2907
lg,1625493583699473893,0,0.0142,0.3875,0.9106,520,26.4893,47.6685,38.4521,91,1.2626,0.6953,16.5764,89.2652,26,0.03,7791,3.9105,-49.5475
lg,1625493583699491097,0,-0.061,0.3828,0.96,521,24.1699,67.2607,41.5039,91,1.2616,0.6973,14.838,88.8053,26,0.03,8490,3.9105,-47.3571
lg,1625493583699509837,0,-0.2107,0.3955,0.9692,522,22.2168,68.5425,44.1284,91,1.2616,0.7003,13.324,88.1667,26,0.03,8070,3.9105,-45.333
lg,1625493583699527930,0,-0.2378,0.3896,0.9944,523,22.3999,52.2461,48.0957,91,1.2606,0.7023,11.7581,87.4397,26,0.03,8830,3.9105,-43.6143
lg,1625493583699546466,0,-0.1807,0.3064,0.9773,524,22.7661,41.0767,49.8657,91,1.2616,0.7043,10.082,86.5305,26,0.03,7943,3.9105,-42.2871
lg,1625493583699565374,0,-0.1589,0.4255,0.9695,525,27.3438,41.1377,47.5464,91,1.2606,0.7053,8.4449,85.8706,26,0.03,8147,3.9105,-40.8624
lg,1625493583699583892,0,-0.1707,0.3948,0.97,526,27.4048,43.9453,47.3022,91,1.2606,0.7073,6.9101,85.1779,26,0.029,8167,3.9105,-39.255
lg,1625493583699602188,0,-0.1824,0.4219,0.9336,527,30.0293,42.7856,43.2739,91,1.2596,0.7083,5.6013,84.6013,26,0.029,9545,3.9105,-37.6322
lg,1625493583699622595,0,-0.1877,0.4814,0.877,528,29.7852,39.4897,39.7339,91,1.2586,0.7093,4.4688,84.0747,26,0.03,9186,3.9105,-36.0874
lg,1625493583699640280,0,-0.188,0.49,0.8357,529,26.7944,36.5601,38.269,91,1.2566,0.7113,3.4332,83.4423,26,0.032,8151,3.9105,-34.6132
lg,1625493583699672595,0,-0.1921,0.5081,0.8213,530,23.6206,35.2783,37.2925,91,1.2566,0.7113,2.4809,82.703,26,0.029,8024,3.9105,-33.1446
lg,1625493583699691409,0,-0.1926,0.5261,0.7798,531,17.0898,35.8887,36.9263,91,1.2546,0.7123,1.6016,81.7559,26,0.03,8202,3.9105,-31.6039
lg,1625493583699708872,0,-0.2534,0.5249,0.7625,532,8.606,37.9639,36.438,91,1.2546,0.7123,0.9515,80.5149,26,0.03,8080,3.9105,-29.9363
lg,1625493583699727909,0,-0.3271,0.4731,0.7964,533,5.3101,36.438,37.2314,91,1.2526,0.7113,0.4914,79.0793,26,0.03,8238,3.9105,-28.282
lg,1625493583699745538,0,-0.3464,0.415,0.8188,534,5.8594,17.5171,40.7104,91,1.2516,0.7103,-0.17,77.6243,26,0.029,8073,3.9105,-27.2992
lg,1625493583699764242,0,-0.2949,0.4116,0.8103,535,11.7798,-3.8452,44.1895,91,1.2496,0.7083,-1.2162,76.4063,26,0.029,8104,3.9105,-27.0626
lg,1625493583699784445,0,-0.2642,0.4397,0.7815,536,14.2212,-8.7891,45.9595,91,1.2476,0.7053,-2.4347,75.4111,26,0.029,8116,3.9105,-26.9365
lg,1625493583699803574,0,-0.2268,0.4807,0.7302,537,16.8457,-19.4702,44.9829,91,1.2436,0.6973,-3.703,74.6979,26,0.033,10231,3.9105,-27.3746
lg,1625493583699823241,0,-0.2231,0.4688,0.7563,538,20.9351,-30.7617,42.4194,91,1.2416,0.6863,-5.0022,74.0701,26,0.029,8225,3.9105,-28.0185
lg,1625493583699842204,0,-0.2915,0.4231,0.7446,539,27.0386,-39.7949,40.8936,91,1.2366,0.6733,-6.1404,73.7277,26,0.028,8553,3.9105,-28.9773
lg,1625493583699860370,0,-0.1467,0.6401,1.6948,540,14.0991,-87.2803,53.4668,91,1.2296,0.6613,-8.8437,72.8115,26,0.028,8242,3.9105,-31.5433
lg,1625493583699877925,0,0.8457,1.27,2.7817,541,-15.686,-129.2114,86.4258,91,1.2156,0.6773,-14.0612,71.2871,26,0.027,8500,3.9105,-35.2182
lg,1625493583699896425,0,0.7515,0.9727,3.2407,542,-125.9766,0.8545,96.7407,91,1.1836,0.6973,-17.7481,63.9425,26,0.026,8325,3.9105,-33.1961
lg,1625493583699914184,0,-0.0193,-0.1333,2.2239,543,-138.855,45.9595,91.2476,91,1.1506,0.7224,-19.6246,55.0341,26,0.027,8548,3.9105,-28.929
lg,1625493583699933906,0,0.1042,-0.0303,1.3152,544,-112.5488,31.0669,107.8491,91,1.1386,0.7384,-21.95,48.3611,26,0.024,8431,3.9105,-24.4316
lg,1625493584023900282,0,0.0447,0.2722,0.7354,545,-22.4609,4.1504,66.5894,91,1.1646,0.7244,-23.14,45.4999,26,0.026,25557,3.9105,-21.9155
lg,1625493584023947059,0,-0.0962,0.2261,0.6953,546,-9.3994,12.3901,57.5562,91,1.1716,0.7053,-23.3267,43.1367,26,0.027,8849,3.9105,-19.3229
lg,1625493584023996540,0,-0.0281,0.2659,0.7358,547,0.2441,-1.8921,56.0913,91,1.1756,0.6933,-23.9831,41.4587,26,0.028,10107,3.9105,-17.1919
lg,1625493584024017670,0,0.061,0.2915,0.7588,548,9.3384,-5.188,50.0488,91,1.1786,0.6903,-24.735,40.3321,26,0.027,7719,3.9105,-15.332
lg,1625493584024036577,0,0.033,0.3472,0.7666,549,12.3291,-4.4556,44.1284,91,1.1796,0.6923,-25.1658,39.5512,26,0.028,7661,3.9105,-13.6812
lg,1625493584024055632,0,0.0254,0.3923,0.8718,550,16.2964,-15.8691,29.4189,91,1.1796,0.6973,-25.5191,39.2887,26,0.028,7835,3.9105,-12.839
lg,1625493584024074076,0,0.0676,0.3872,0.9734,551,20.874,-20.1416,18.7378,91,1.1776,0.7023,-25.8104,39.3172,26,0.027,7696,3.9105,-12.4309
lg,1625493584024092428,0,0.0742,0.4141,1.0779,552,21.3013,-16.2964,11.4136,91,1.1776,0.7103,-25.7913,39.3951,26,0.027,13636,3.9105,-12.1492
lg,1625493584024109650,0,0.083,0.4622,1.1145,553,16.6626,-10.2539,8.2397,91,1.1766,0.7133,-25.5088,39.3233,26,0.027,7769,3.9105,-11.834
lg,1625493584024126742,0,0.053,0.4314,1.1282,554,10.9253,-5.6152,8.1177,91,1.1736,0.7143,-24.9188,38.7204,26,0.028,7989,3.9105,-11.1983
lg,1625493584024144965,0,-0.0071,0.407,1.1145,555,6.0425,3.0518,12.2681,91,1.1726,0.7143,-24.2038,37.9454,26,0.028,9367,3.9105,-10.357
lg,1625493584024162094,0,-0.0852,0.4099,1.0142,556,4.1504,6.0425,15.686,91,1.1716,0.7093,-23.3363,37.1411,26,0.027,7819,3.9105,-9.3776
lg,1625493584024181297,0,-0.1445,0.3892,0.9521,557,3.418,-4.0894,13.855,91,1.1706,0.6973,-22.6431,36.4962,26,0.028,8449,3.9105,-8.7575
lg,1625493584024199242,0,-0.1174,0.3948,0.9373,558,2.5024,-10.7422,12.2681,91,1.1686,0.6833,-22.4472,35.9584,26,0.028,7874,3.9105,-8.5395
lg,1625493584024217038,0,-0.0396,0.3767,0.9158,559,1.2817,-19.5923,11.2305,91,1.1686,0.6733,-22.413,35.4641,26,0.028,8037,3.9105,-8.4223
lg,1625493584024238352,0,-0.0117,0.3582,0.8845,560,0.9766,-17.4561,11.5967,91,1.1686,0.6673,-22.3756,34.9358,26,0.029,7987,3.9105,-8.2329
lg,1625493584024255871,0,-0.022,0.3572,0.8823,561,1.5259,-15.0757,11.1084,91,1.1686,0.6643,-22.1483,34.4215,26,0.027,8110,3.9105,-7.9665
lg,1625493584024291481,0,-0.0081,0.3528,0.8994,562,0.9155,-10.9863,10.5591,91,1.1686,0.6643,-21.8918,33.8589,26,0.028,7977,3.9105,-7.65
lg,1625493584024312981,0,-0.0225,0.3245,0.957,563,1.4038,-7.1411,9.5825,91,1.1686,0.6673,-21.4723,33.207,26,0.028,8085,3.9105,-7.2407
lg,1625493584024332037,0,-0.0247,0.2991,0.9692,564,1.5259,-5.8594,9.2773,91,1.1696,0.6703,-20.99,32.5188,26,0.028,7968,3.9105,-6.763
lg,1625493584024349925,0,-0.0002,0.3074,1.0068,565,2.5635,-2.1973,9.7046,91,1.1696,0.6743,-20.4816,31.8572,26,0.028,8192,3.9105,-6.2302
lg,1625493584024366832,0,-0.0266,0.3325,1,566,1.1597,1.6479,9.5825,91,1.1716,0.6793,-19.7951,31.2016,26,0.027,8034,3.9105,-5.6504
lg,1625493584024384610,0,-0.052,0.3459,1.0056,567,-0.4883,2.5024,9.6436,91,1.1726,0.6813,-19.0993,30.413,26,0.028,8088,3.9105,-5.1512
lg,1625493584024402499,0,-0.0667,0.3557,1.0032,568,-8.0566,0.1221,8.1787,91,1.1726,0.6823,-18.3915,29.5372,26,0.028,8120,3.9105,-4.7061
lg,1625493584024419647,0,-0.062,0.3274,1.0405,569,-14.4653,-2.7466,7.6904,91,1.1726,0.6813,-17.7757,28.3259,26,0.027,11516,3.9105,-4.3096
lg,1625493584024436869,0,-0.0864,0.2922,1.051,570,-18.4326,-3.9062,6.4087,91,1.1726,0.6803,-17.1828,27.0131,26,0.027,8338,3.9105,-3.9955
lg,1625493584024454072,0,-0.0527,0.2478,1.0391,571,-20.3247,-6.7749,5.249,91,1.1716,0.6783,-16.7544,25.6205,26,0.027,8365,3.9105,-3.7675
lg,1625493584024471202,0,-0.0417,0.2148,1.0054,572,-18.3105,-6.1035,4.3945,91,1.1716,0.6783,-16.3205,24.3153,26,0.027,8170,3.9105,-3.5557
lg,1625493584024488220,0,-0.0232,0.2258,1.0051,573,-17.0898,-3.9673,3.479,91,1.1726,0.6783,-15.8431,23.1346,26,0.028,8236,3.9105,-3.361
lg,1625493584024504738,0,-0.0554,0.2234,0.9871,574,-16.2354,0.7324,0.9155,91,1.1716,0.6793,-15.0987,22.0475,26,0.027,8350,3.9105,-3.204
lg,1625493584024521757,0,-0.0344,0.2649,0.9746,575,-17.395,-1.6479,-2.8687,91,1.1706,0.6793,-14.4531,21.1051,26,0.027,8429,3.9105,-3.271
lg,1625493584024538886,0,-0.0276,0.2349,1.0261,576,-21.5454,1.4038,-5.6152,91,1.1706,0.6793,-13.7,19.9559,26,0.027,8266,3.9105,-3.389
lg,1625493584366028587,0,-0.0667,0.2063,1.0515,577,-24.8413,11.0474,-8.0566,91,1.1696,0.6783,-12.5072,18.641,26,0.028,24473,3.9105,-3.4726
lg,1625493584366077290,0,-0.0979,0.1702,1.0442,578,-27.2217,14.0991,-8.9111,91,1.1696,0.6773,-11.1725,17.211,26,0.028,9336,3.9105,-3.5673
lg,1625493584366099605,0,-0.0957,0.1641,1.041,579,-25.2686,13.0005,-9.3994,91,1.1696,0.6773,-9.931,15.9101,26,0.029,9169,3.9105,-3.7251
lg,1625493584366119956,0,-0.0833,0.1885,1.0398,580,-24.231,13.7939,-9.7046,91,1.1696,0.6773,-8.6927,14.7879,26,0.028,7750,3.9105,-3.9265
lg,1625493584366138975,0,-0.1235,0.2183,1.0254,581,-21.3013,15.3809,-12.8784,91,1.1706,0.6783,-7.3665,13.8745,26,0.029,10882,3.9105,-4.2642
lg,1625493584366158419,0,-0.1572,0.2266,1.0259,582,-23.4375,11.7188,-17.0898,91,1.1706,0.6793,-6.1313,12.9469,26,0.029,8817,3.9105,-4.8217
lg,1625493584366176456,0,-0.1367,0.2161,1.0466,583,-24.292,8.667,-19.5312,91,1.1706,0.6793,-5.2004,12.0271,26,0.029,7968,3.9105,-5.5847
lg,1625493584366195659,0,-0.1274,0.2058,1.0444,584,-24.5972,4.8218,-22.9492,91,1.1706,0.6793,-4.3542,11.081,26,0.03,7876,3.9105,-6.449
lg,1625493584366213178,0,-0.1299,0.1892,1.0527,585,-23.9258,2.2583,-25.3906,91,1.1706,0.6793,-3.6338,10.1579,26,0.029,7764,3.9105,-7.4337
lg,1625493584366230326,0,-0.1287,0.1853,1.0645,586,-22.7051,-2.5024,-26.9165,91,1.1706,0.6783,-3.1387,9.3029,26,0.03,9863,3.9105,-8.516
lg,1625493584366247159,0,-0.1248,0.1814,1.0535,587,-22.2778,-3.3569,-28.3203,91,1.1696,0.6783,-2.734,8.5157,26,0.028,7876,3.9105,-9.6624
lg,1625493584366265159,0,-0.1147,0.1855,1.0583,588,-21.3623,-11.4136,-29.9683,91,1.1696,0.6783,-2.6656,7.7772,26,0.029,7813,3.9105,-10.9203
lg,1625493584366283640,0,-0.0774,0.1858,1.0415,589,-20.813,-19.5312,-32.2266,91,1.1696,0.6793,-2.9995,7.1061,26,0.029,7896,3.9105,-12.3075
lg,1625493584366301566,0,-0.0605,0.1958,1.0469,590,-19.7144,-24.0479,-32.8979,91,1.1706,0.6793,-3.5474,6.5377,26,0.029,8037,3.9105,-13.7394
lg,1625493584366319417,0,-0.001,0.1943,1.0486,591,-20.0806,-34.729,-34.4849,101,1.1716,0.6783,-4.8682,6.0201,26,0.03,11506,3.9072,-15.3555
lg,1625493584366338639,0,0.043,0.1863,1.0698,592,-19.2871,-45.8374,-35.5225,101,1.1696,0.6773,-6.4388,5.5612,26,0.03,8790,3.9072,-16.9758
lg,1625493584366359750,0,0.0972,0.1797,1.0806,593,-16.7236,-55.481,-33.9355,101,1.1666,0.6763,-8.457,5.2512,26,0.03,9143,3.9072,-18.5674
lg,1625493584366378028,0,-0.0513,0.1748,1.0825,594,-15.3809,-60.1196,-32.3486,101,1.1636,0.6763,-10.2881,5.0422,26,0.03,8004,3.9072,-20.1168
lg,1625493584366395731,0,0.0974,0.2183,1.0461,595,-13.6108,-97.9004,-29.0527,101,1.1596,0.6743,-14.2928,4.9386,26,0.03,8094,3.9072,-21.4389
lg,1625493584366430231,0,0.2913,0.1887,1.0671,596,-9.0942,-97.7173,-18.1885,101,1.1556,0.6723,-18.1351,5.0872,26,0.029,8061,3.9072,-22.6004
lg,1625493584366451453,0,0.3586,0.1848,1.0537,597,-5.5542,-90.5762,-17.5171,101,1.1516,0.6683,-21.6768,5.4312,26,0.03,8098,3.9072,-23.7574
lg,1625493584366470175,0,0.3562,0.1829,1.0244,598,-4.8828,-87.6465,-16.6016,101,1.1486,0.6613,-24.9355,5.9002,26,0.03,8126,3.9072,-24.9018
lg,1625493584366488267,0,0.3806,0.1772,1.0264,599,-2.5635,-85.8154,-13.5498,101,1.1426,0.6533,-28.0778,6.4103,26,0.03,8289,3.9072,-25.9845
lg,1625493584366512489,0,0.4128,0.1409,1.0337,600,0.5493,-83.4961,-9.7046,101,1.1356,0.6413,-31.0707,6.9259,26,0.03,8329,3.9072,-26.901
lg,1625493584366530970,0,0.4785,0.1531,1.0066,601,8.4839,-72.3267,-6.1035,101,1.1306,0.6283,-33.6537,7.7212,26,0.029,8249,3.9072,-27.6618
lg,1625493584366548674,0,0.467,0.1636,0.9939,602,13.9771,-63.4766,-2.9907,101,1.1245,0.6133,-35.7558,8.6923,26,0.029,8239,3.9072,-28.2921
lg,1625493584366566915,0,0.3762,0.1863,0.9839,603,24.9634,-44.0674,0.8545,101,1.1205,0.5993,-36.8894,9.9579,26,0.029,8269,3.9072,-28.6521
lg,1625493584366584396,0,0.2544,0.2725,0.9548,604,35.2783,-36.8042,4.2725,101,1.1135,0.5833,-37.4878,11.7197,26,0.029,8388,3.9072,-28.9461
lg,1625493584366602118,0,0.2119,0.3323,0.9407,605,41.3818,-39.1846,6.7139,101,1.1085,0.5673,-38.0922,13.7943,26,0.03,8279,3.9072,-29.2629
lg,1625493584366619432,0,0.2183,0.3625,0.9653,606,43.5791,-42.2974,7.5684,101,1.1005,0.5493,-38.7945,15.9591,26,0.03,8547,3.9072,-29.6292
lg,1625493584366636247,0,0.2561,0.3994,1.0137,607,47.5464,-51.5747,8.0566,101,1.0925,0.5313,-39.865,18.3542,26,0.029,8327,3.9072,-30.1675
lg,1625493584366653377,0,0.291,0.4182,1.0198,608,49.1333,-42.4194,9.9487,101,1.0815,0.5123,-40.6186,20.6491,26,0.028,8597,3.9072,-30.5212
lg,1625493584728530319,0,0.1667,0.4673,1.0046,609,51.7578,-20.3857,16.2354,101,1.0435,0.4672,-40.4013,22.6488,26,0.029,24340,3.9072,-30.2382
lg,1625493584728566411,0,0.094,0.4526,0.9849,610,49.7437,-15.3809,20.9961,101,1.0165,0.4462,-39.9961,24.2284,26,0.028,10622,3.9072,-29.5243
lg,1625493584728586911,0,0.0725,0.4861,0.927,611,45.5933,-12.8174,27.2217,101,0.9825,0.4282,-39.576,25.5584,26,0.027,10627,3.9072,-28.6106
lg,1625493584728606207,0,0.0151,0.4871,0.8789,612,39.917,-11.0474,29.2969,101,0.9595,0.4172,-39.063,26.6031,26,0.027,7916,3.9072,-27.5937
lg,1625493584728624337,0,-0.0186,0.4834,0.8831,613,33.6304,-12.5732,29.4189,101,0.9335,0.4062,-38.5756,27.3737,26,0.027,8377,3.9072,-26.5924
lg,1625493584728642392,0,-0.0173,0.468,0.8887,614,30.7007,-15.686,28.9917,101,0.9064,0.3952,-38.2164,28.0201,26,0.028,7715,3.9072,-25.6539
lg,1625493584728660077,0,0.019,0.4465,0.8914,615,25.6348,-15.625,28.1372,101,0.8794,0.3852,-37.9218,28.4134,26,0.027,7804,3.9072,-24.7164
lg,1625493584728676873,0,0.001,0.4207,0.9272,616,23.0103,-9.8267,28.3813,101,0.8544,0.3772,-37.411,28.4944,26,0.028,7777,3.9072,-23.5629
lg,1625493584728694447,0,0.0078,0.4053,0.9226,617,22.7051,-7.2021,28.9917,101,0.8334,0.3712,-36.8507,28.4859,26,0.028,7885,3.9072,-22.3077
lg,1625493584728712095,0,-0.0271,0.4053,0.9075,618,19.3481,3.1128,30.4565,101,0.8144,0.3662,-35.9096,28.2003,26,0.026,7854,3.9072,-20.7708
lg,1625493584728728706,0,-0.0461,0.4121,0.8943,619,15.1978,10.8643,32.1655,101,0.7984,0.3622,-34.7131,27.6852,26,0.026,9242,3.9072,-19.0319
lg,1625493584728746002,0,-0.0354,0.4084,0.8923,620,12.6953,13.916,32.5317,101,0.7824,0.3582,-33.3598,26.9945,26,0.025,7854,3.9072,-17.2331
lg,1625493584728763057,0,-0.0686,0.3997,0.8708,621,6.5308,18.3716,31.3721,101,0.7664,0.3532,-31.8845,26.2144,26,0.025,7987,3.9072,-15.4557
lg,1625493584728779705,0,-0.0488,0.3716,0.8884,622,-1.6479,20.6299,31.0669,101,0.7514,0.3492,-30.3853,25.094,26,0.027,7834,3.9072,-13.6534
lg,1625493584728796724,0,-0.0479,0.3396,0.8943,623,-4.5776,20.874,31.0059,101,0.7364,0.3452,-28.9247,23.776,26,0.027,7956,3.9072,-11.8171
lg,1625493584728827149,0,-0.0166,0.3057,0.947,624,-11.4136,26.4282,31.4331,101,0.7254,0.3422,-27.3172,22.2195,26,0.027,7904,3.9072,-9.9211
lg,1625493584728846945,0,-0.0115,0.2559,0.9841,625,-15.7471,32.959,33.2642,101,0.7174,0.3412,-25.5167,20.403,26,0.024,7995,3.9072,-7.8608
lg,1625493584728865501,0,-0.0078,0.2463,0.9944,626,-17.4561,38.0249,34.729,101,0.7143,0.3412,-23.5598,18.5971,26,0.028,7928,3.9072,-5.7543
lg,1625493584728882704,0,-0.0137,0.2131,1.0386,627,-20.9351,45.8984,35.4614,101,0.7143,0.3422,-21.3137,16.6768,26,0.027,8051,3.9072,-3.5831
lg,1625493584728899667,0,-0.0051,0.1855,1.0662,628,-23.0713,50.5371,35.7056,101,0.7184,0.3452,-18.9277,14.7669,26,0.027,7989,3.9072,-1.4427
lg,1625493584728917167,0,0.001,0.1443,1.1226,629,-23.6206,52.4292,35.5225,101,0.7334,0.3512,-16.4652,12.9364,26,0.025,9344,3.9072,0.5971
lg,1625493584728934667,0,0.0024,0.1548,1.1462,630,-24.0479,53.0396,33.7524,101,0.7504,0.3592,-14.0993,11.2189,26,0.027,9769,3.9072,2.4523
lg,1625493584728951944,0,0.0208,0.1179,1.1763,631,-24.5972,52.1851,31.311,101,0.7734,0.3672,-11.7659,9.6447,26,0.027,8180,3.9072,4.1527
lg,1625493584728969518,0,0.0098,0.0986,1.1724,632,-25.5127,51.5747,28.2593,101,0.7954,0.3762,-9.4647,8.1627,26,0.027,8034,3.9072,5.6489
lg,1625493584728987592,0,-0.0083,0.0916,1.168,633,-26.062,49.7437,25.8179,101,0.8174,0.3852,-7.2715,6.7745,26,0.025,8126,3.9072,6.8657
lg,1625493584729005351,0,-0.0171,0.106,1.1389,634,-29.6631,46.0205,21.0571,101,0.8364,0.3922,-5.2148,5.4195,26,0.026,8083,3.9072,7.909
lg,1625493584729023036,0,-0.0005,0.0769,1.0925,635,-33.3252,39.1846,15.0757,101,0.8514,0.3982,-3.4991,3.9789,26,0.025,8119,3.9072,8.6433
lg,1625493584729039943,0,-0.0068,0.0806,1.0952,636,-34.1797,37.1704,11.8408,101,0.8644,0.4022,-1.9367,2.5628,26,0.024,8106,3.9072,9.0761
lg,1625493584729056536,0,-0.0146,0.0513,1.083,637,-34.729,35.2783,6.6528,101,0.8754,0.4052,-0.4322,1.1771,26,0.025,8154,3.9072,9.3868
lg,1625493584729073406,0,-0.03,0.0518,1.0725,638,-33.5693,30.0293,1.77,101,0.8854,0.4092,0.8447,-0.0984,26,0.025,8710,3.9072,9.4676
lg,1625493584729101554,0,-0.0322,0.0479,1.0535,639,-30.2734,27.0386,-3.9062,101,0.8964,0.4132,1.9564,-1.2025,26,0.025,8164,3.9072,9.3002
lg,1625493584729119553,0,-0.0332,0.0491,1.0417,640,-28.8086,24.231,-5.9204,101,0.9084,0.4182,2.9092,-2.2076,26,0.024,8401,3.9072,9.0397
lg,1625493585063917017,0,-0.009,0.0071,1.0583,641,-19.8975,0,-18.5547,101,0.9435,0.4342,2.7795,-2.9343,26,0.025,24025,3.9072,8.3033
lg,1625493585063968405,0,0.0181,0.0044,1.0762,642,-17.6392,-9.3384,-23.2544,101,0.9555,0.4412,2.2067,-3.5507,26,0.024,9811,3.9072,7.402
lg,1625493585064017053,0,0.0405,-0.0044,1.0894,643,-17.0288,-14.2212,-25.4517,101,0.9645,0.4462,1.4009,-4.1281,26,0.025,7851,3.9072,6.43
lg,1625493585064046719,0,0.1262,-0.0127,1.0845,644,-15.2588,-21.9116,-28.8696,101,0.9745,0.4532,-0.013,-4.5745,26,0.026,7770,3.9072,5.2698
lg,1625493585064075034,0,0.1633,-0.0352,1.0757,645,-13.855,-27.832,-33.02,101,0.9805,0.4562,-1.6955,-4.9622,26,0.025,10401,3.9072,4.0142
lg,1625493585064102700,0,0.1743,-0.0337,1.0881,646,-10.376,-33.0811,-34.79,101,0.9835,0.4592,-3.424,-5.1931,26,0.025,7967,3.9072,2.7412
lg,1625493585064129718,0,0.2051,-0.0398,1.0554,647,-5.7983,-37.2314,-35.8887,101,0.9865,0.4602,-5.3299,-5.2056,26,0.024,7861,3.9072,1.4362
lg,1625493585064156940,0,0.2412,-0.0347,1.0637,648,-0.061,-42.6636,-36.8652,101,0.9885,0.4612,-7.4466,-4.9293,26,0.024,7718,3.9072,0.0975
lg,1625493585064183588,0,0.2678,-0.0344,1.0645,649,3.479,-45.3491,-36.499,101,0.9885,0.4612,-9.6294,-4.4736,26,0.024,7721,3.9072,-1.2397
lg,1625493585064209754,0,0.2839,-0.0083,1.0786,650,8.3618,-47.6074,-35.2783,101,0.9895,0.4622,-11.8234,-3.741,26,0.025,8501,3.9072,-2.5608
lg,1625493585064235754,0,0.3005,0.0459,1.0549,651,11.8408,-51.5747,-33.4473,101,0.9895,0.4622,-14.1109,-2.7439,26,0.025,8139,3.9072,-3.8633
lg,1625493585064261883,0,0.3289,0.061,1.0596,652,13.7939,-53.2227,-32.7759,101,0.9895,0.4612,-16.4392,-1.5558,26,0.024,7854,3.9072,-5.2143
lg,1625493585064287476,0,0.3728,0.1089,1.0471,653,15.9302,-56.5796,-29.6021,101,0.9875,0.4612,-18.833,-0.2624,26,0.024,7847,3.9072,-6.5041
lg,1625493585064352846,0,0.2878,0.1235,1.0215,654,17.5171,-47.9126,-25.7568,101,0.9865,0.4592,-20.6071,1.099,26,0.025,7885,3.9072,-7.7065
lg,1625493585064384290,0,0.3777,0.1521,1.0056,655,17.1509,-61.5845,-23.9258,101,0.9815,0.4562,-23.0195,2.4952,26,0.025,8127,3.9072,-8.9268
lg,1625493585064411623,0,0.4192,0.1545,1.01,656,21.1792,-46.814,-18.1274,101,0.9725,0.4512,-24.8098,3.9544,26,0.025,7962,3.9072,-9.9321
lg,1625493585064438178,0,0.2893,0.1724,0.9792,657,25.3296,-35.8887,-16.7847,101,0.9595,0.4442,-25.8371,5.5867,26,0.025,7962,3.9072,-10.9069
lg,1625493585064463789,0,0.2815,0.2092,0.957,658,29.2358,-37.4146,-15.7471,101,0.9425,0.4342,-26.8583,7.4268,26,0.024,7974,3.9072,-11.914
lg,1625493585064490344,0,0.2424,0.2532,0.9346,659,37.5366,-37.2314,-13.916,101,0.9184,0.4242,-27.7397,9.6465,26,0.025,8211,3.9072,-12.9238
lg,1625493585064515955,0,0.176,0.3086,0.9241,660,45.2881,-38.0859,-12.8174,101,0.8814,0.4092,-28.4522,12.2511,26,0.025,8017,3.9072,-13.9879
lg,1625493585064542381,0,0.1523,0.3462,0.9519,661,50.7202,-41.3208,-10.1929,101,0.8514,0.3982,-29.1827,15.0356,26,0.025,8517,3.9072,-15.0304
lg,1625493585064568695,0,0.1624,0.3911,0.9927,662,53.9551,-42.7856,-9.1553,101,0.8234,0.3882,-29.9748,17.9417,26,0.025,8059,3.9072,-16.0322
lg,1625493585064594528,0,0.1714,0.4153,1.0002,663,57.1899,-42.8467,-5.0049,101,0.7974,0.3802,-30.6987,20.8559,26,0.024,8250,3.9072,-16.9927
lg,1625493585064621917,0,0.1897,0.4851,1.0059,664,58.4717,-35.7666,0.1831,101,0.7724,0.3722,-31.1981,23.7117,26,0.024,8268,3.9072,-17.7085
lg,1625493585064649213,0,0.1431,0.511,1.0098,665,57.1899,-24.8413,4.0894,101,0.7464,0.3632,-31.2341,26.2801,26,0.023,8218,3.9072,-18.0764
lg,1625493585064688250,0,0.124,0.5239,1.0093,666,55.0537,-20.5688,7.0801,101,0.7184,0.3532,-30.9832,28.4828,26,0.024,8818,3.9072,-18.0668
lg,1625493585064720416,0,0.0381,0.533,0.9705,667,50.8423,-17.1509,12.9395,101,0.6893,0.3422,-30.765,30.2499,26,0.025,8506,3.9072,-17.7597
lg,1625493585064745397,0,0.0261,0.521,0.9653,668,44.9219,-15.564,20.0195,101,0.6673,0.3352,-30.5885,31.7195,26,0.024,8254,3.9072,-17.2712
lg,1625493585064791915,0,-0.0171,0.5085,0.9368,669,39.4897,-12.5122,26.7334,101,0.6483,0.3292,-30.3897,32.7553,26,0.025,8457,3.9072,-16.4415
lg,1625493585064821452,0,-0.0444,0.5032,0.9026,670,32.7759,-11.7798,31.1279,101,0.6323,0.3232,-30.2277,33.4238,26,0.026,8317,3.9072,-15.4371
lg,1625493585064847915,0,-0.0349,0.4822,0.8892,671,28.9917,-11.9629,33.2031,101,0.6143,0.3172,-30.1011,33.7102,26,0.025,8477,3.9072,-14.2628
lg,1625493585064874266,0,-0.0178,0.4734,0.8779,672,22.644,-8.8501,33.9355,101,0.5973,0.3112,-29.9754,33.8189,26,0.026,8349,3.9072,-13.0596
lg,1625493585425568892,0,-0.0176,0.3979,0.8989,673,11.9019,8.1177,32.5928,101,0.5643,0.3001,-29.2677,33.1175,26,0.023,24495,3.9072,-11.3805
lg,1625493585425606818,0,-0.0291,0.3752,0.8909,674,7.5684,14.3433,30.9448,101,0.5603,0.2991,-28.2991,32.211,26,0.023,8610,3.9072,-9.6175
lg,1625493585425627429,0,-0.0278,0.3464,0.8975,675,4.8218,20.9351,29.3579,101,0.5623,0.3021,-27.0879,31.1512,26,0.024,14772,3.9072,-7.7641
lg,1625493585425646632,0,-0.0122,0.3218,0.9214,676,0.6104,28.1372,26.9165,101,0.5693,0.3051,-25.628,29.9078,26,0.024,7660,3.9072,-5.8596
lg,1625493585425664836,0,-0.0215,0.3093,0.949,677,-2.4414,30.5786,25.5127,101,0.5783,0.3092,-23.9788,28.4832,26,0.022,7722,3.9072,-3.9825
lg,1625493585425682854,0,0.0017,0.2983,0.9902,678,-7.9346,35.4004,23.3154,101,0.5913,0.3142,-22.2595,27.0289,26,0.026,7633,3.9072,-2.1711
lg,1625493585425700317,0,0.0281,0.2822,1.0588,679,-14.5264,42.1753,23.3154,101,0.6063,0.3202,-20.37,25.3192,26,0.025,7815,3.9072,-0.2873
lg,1625493585425717965,0,0.0098,0.2583,1.1147,680,-20.2026,50.5981,24.5972,101,0.6253,0.3272,-18.1798,23.395,26,0.024,8870,3.9072,1.7162
lg,1625493585425737594,0,-0.011,0.2312,1.1243,681,-23.0103,54.7485,25.2075,101,0.6433,0.3342,-15.8291,21.4506,26,0.024,8189,3.9072,3.7072
lg,1625493585425755779,0,-0.0967,0.1924,1.1609,682,-26.4893,54.1992,24.353,101,0.6703,0.3432,-13.3601,19.4705,26,0.025,7788,3.9072,5.5559
lg,1625493585425773038,0,-0.1016,0.1621,1.1694,683,-27.832,42.3584,20.1416,101,0.6893,0.3512,-11.3114,17.6096,26,0.025,9019,3.9072,6.9875
lg,1625493585425802927,0,-0.0791,0.1287,1.1462,684,-27.1606,32.2876,15.3198,101,0.7063,0.3572,-9.665,15.8992,26,0.024,8126,3.9072,8.0437
lg,1625493585425821019,0,-0.0798,0.0845,1.1514,685,-24.1699,23.0103,10.9863,101,0.7254,0.3642,-8.3651,14.3626,26,0.024,9585,3.9072,8.7889
lg,1625493585425837667,0,-0.0459,0.0813,1.1304,686,-22.7051,18.3105,9.3384,101,0.7434,0.3712,-7.4297,12.9827,26,0.024,7862,3.9072,9.2781
lg,1625493585425854260,0,-0.0334,0.0408,1.1055,687,-17.7002,11.9019,5.6763,101,0.7654,0.3782,-6.6568,11.8032,26,0.025,7855,3.9072,9.6575
lg,1625493585425870889,0,-0.0063,0.0649,1.0632,688,-14.4043,6.958,2.9297,101,0.7864,0.3872,-6.1323,10.8772,26,0.024,8782,3.9072,9.8649
lg,1625493585425888037,0,0.0337,0.084,1.0513,689,-12.5122,3.6621,0.4883,101,0.8084,0.3972,-5.8934,10.1826,26,0.028,8028,3.9072,9.8291
lg,1625493585425905037,0,0.0483,0.0977,1.0381,690,-10.8032,-1.4648,-4.3335,101,0.8314,0.4072,-5.7922,9.5769,26,0.029,7945,3.9072,9.6666
lg,1625493585425921833,0,0.083,0.1042,1.0352,691,-12.5122,-5.9204,-9.3994,101,0.8534,0.4182,-5.9147,8.9658,26,0.028,7942,3.9072,9.2706
lg,1625493585425938407,0,0.1008,0.1077,1.0437,692,-14.5874,-7.9346,-12.3901,101,0.8724,0.4282,-6.3265,8.2188,26,0.027,7935,3.9072,8.6272
lg,1625493585425954925,0,0.1636,0.0798,1.0579,693,-18.3716,-14.0381,-16.4185,101,0.8904,0.4382,-6.8869,7.4147,26,0.028,7950,3.9072,7.9132
lg,1625493585425971295,0,0.2007,0.0481,1.0627,694,-19.043,-13.3667,-20.0195,101,0.9034,0.4472,-7.4674,6.5727,26,0.027,7941,3.9072,7.0706
lg,1625493585425987740,0,0.1848,0.0476,1.0491,695,-18.9209,-12.8174,-20.874,101,0.9164,0.4552,-7.9344,5.7697,26,0.028,7982,3.9072,6.1997
lg,1625493585426003665,0,0.1946,0.0178,1.0544,696,-16.9067,-15.4419,-22.1558,101,0.9275,0.4632,-8.5622,5.0417,26,0.028,8046,3.9072,5.2764
lg,1625493585426019962,0,0.1848,-0.0076,1.0308,697,-13.855,-17.1509,-20.9961,101,0.9395,0.4702,-9.2367,4.4128,26,0.029,8061,3.9072,4.4047
lg,1625493585426036998,0,0.1921,0.0222,1.0361,698,-12.146,-18.0054,-20.5688,101,0.9485,0.4792,-9.9407,3.9492,26,0.028,8120,3.9072,3.5398
lg,1625493585426065072,0,0.2053,0.0146,1.043,699,-7.9346,-20.9351,-19.3481,101,0.9575,0.4862,-10.7671,3.6589,26,0.029,8165,3.9072,2.7201
lg,1625493585426171330,0,0.2686,0.0056,1.0378,700,-3.6011,-23.4375,-17.6392,101,0.9655,0.4932,-11.8009,3.5358,26,0.029,8140,3.9072,1.9668
lg,1625493585426191219,0,0.2507,-0.0083,1.0391,701,-1.3428,-23.8037,-17.0288,101,0.9725,0.4992,-12.7919,3.518,26,0.029,8120,3.9072,1.2367
lg,1625493585426210812,0,0.2583,0.0005,1.0637,702,2.5635,-24.353,-16.1133,101,0.9795,0.5062,-13.7517,3.6473,26,0.03,8137,3.9072,0.544
lg,1625493585426229571,0,0.2666,0.0244,1.0396,703,7.3853,-27.1606,-16.7847,101,0.9865,0.5123,-14.8085,4.0387,26,0.029,8152,3.9072,-0.2007
lg,1625493585426247441,0,0.2827,0.0549,1.043,704,9.7656,-30.0903,-17.334,101,0.9945,0.5183,-16.0706,4.7034,26,0.03,8358,3.9072,-1.0471
lg,1625493585756206454,0,0.3713,0.134,1.0222,705,13.6108,-27.832,-22.1558,94,1.0065,0.5303,-17.2392,5.6466,26,0.03,26164,3.9127,-2.1046
lg,1625493585756249731,0,0.3308,0.1492,1.0337,706,14.4653,-26.4282,-24.4141,94,1.0095,0.5313,-18.1906,6.6697,26,0.03,9613,3.9127,-3.2736
lg,1625493585756271453,0,0.3372,0.1633,1.0432,707,17.5781,-30.7617,-24.231,94,1.0125,0.5323,-19.2604,7.8358,26,0.03,7820,3.9127,-4.4809
lg,1625493585756290490,0,0.3528,0.1882,1.0134,708,20.5078,-35.8887,-23.5596,94,1.0145,0.5333,-20.5159,9.1719,26,0.031,11129,3.9127,-5.7336
lg,1625493585756308360,0,0.3784,0.2253,1.0027,709,22.2168,-40.5884,-22.7051,94,1.0165,0.5333,-21.9357,10.6501,26,0.031,10374,3.9127,-7.0427
lg,1625493585756326360,0,0.4036,0.2507,0.9956,710,24.4141,-40.4053,-19.8364,94,1.0165,0.5333,-23.332,12.2171,26,0.031,7773,3.9127,-8.285
lg,1625493585756343915,0,0.3943,0.2695,0.9927,711,25.8789,-36.8652,-17.7612,94,1.0175,0.5323,-24.5034,13.8191,26,0.032,7780,3.9127,-9.4526
lg,1625493585756361915,0,0.3601,0.2754,0.95,712,27.9541,-32.3486,-14.0381,94,1.0165,0.5303,-25.4241,15.4295,26,0.032,7893,3.9127,-10.45
lg,1625493585756408674,0,0.3059,0.2988,0.9338,713,30.8838,-29.1138,-12.0239,94,1.0165,0.5253,-26.0764,17.131,26,0.032,8478,3.9127,-11.3618
lg,1625493585756429970,0,0.2859,0.3044,0.9351,714,31.189,-29.1748,-11.5356,94,1.0145,0.5183,-26.6599,18.8774,26,0.032,8913,3.9127,-12.2985
lg,1625493585756446822,0,0.2969,0.3669,0.9197,715,32.7759,-32.2266,-11.1694,94,1.0085,0.5082,-27.3166,20.734,26,0.032,8444,3.9127,-13.3087
lg,1625493585756464821,0,0.2791,0.3772,0.9314,716,33.8135,-32.8979,-11.4746,94,1.0005,0.4962,-27.8936,22.6057,26,0.032,8060,3.9127,-14.356
lg,1625493585756483173,0,0.2676,0.3801,0.9565,717,35.6445,-31.7993,-11.1084,94,0.9885,0.4832,-28.3027,24.4432,26,0.032,7883,3.9127,-15.3542
lg,1625493585756500247,0,0.2173,0.3645,0.9829,718,40.8325,-27.0996,-8.1787,94,0.9745,0.4702,-28.4865,26.2886,26,0.031,8039,3.9127,-16.1193
lg,1625493585756517858,0,0.1587,0.3989,0.9832,719,47.1802,-26.8555,-3.2349,94,0.9585,0.4592,-28.5994,28.2978,26,0.032,7863,3.9127,-16.7047
lg,1625493585756536543,0,0.1267,0.3899,0.9934,720,50.415,-27.1606,0,94,0.9445,0.4502,-28.6686,30.3764,26,0.032,8059,3.9127,-17.1935
lg,1625493585756554580,0,0.1001,0.4463,0.9612,721,55.2368,-27.2827,7.6904,94,0.9305,0.4442,-28.8591,32.4836,26,0.031,7924,3.9127,-17.4051
lg,1625493585756572635,0,0.0452,0.4788,0.9465,722,55.8472,-26.5503,16.1133,94,0.9194,0.4372,-29.0867,34.4629,26,0.031,7937,3.9127,-17.3158
lg,1625493585756590116,0,0.0315,0.4983,0.9583,723,51.5137,-28.9917,21.9727,94,0.9064,0.4292,-29.4942,36.1558,26,0.031,10195,3.9127,-17.0894
lg,1625493585756607579,0,0.0408,0.5137,0.9377,724,48.4619,-30.4565,24.353,94,0.8934,0.4232,-30.0448,37.6933,26,0.031,8011,3.9127,-16.8464
lg,1625493585756625727,0,0.0486,0.5144,0.9656,725,42.2363,-27.4048,28.9307,94,0.8784,0.4152,-30.5798,38.7862,26,0.031,8267,3.9127,-16.3459
lg,1625493585756642857,0,0.0403,0.4702,0.9524,726,35.4614,-21.9116,32.5928,94,0.8584,0.4062,-31.0197,39.3399,26,0.029,8111,3.9127,-15.5106
lg,1625493585756661023,0,0.0063,0.4382,0.9512,727,32.2876,-19.6533,33.6914,94,0.8394,0.3982,-31.2917,39.4188,26,0.03,8307,3.9127,-14.3757
lg,1625493585756696467,0,-0.0205,0.4434,0.948,728,27.4048,-12.6953,36.499,94,0.8184,0.3912,-31.4218,39.3505,26,0.03,8203,3.9127,-13.086
lg,1625493585756718689,0,-0.0703,0.4077,0.9136,729,22.4609,-7.6904,37.9639,94,0.7974,0.3832,-31.3585,38.9148,26,0.028,8390,3.9127,-11.5576
lg,1625493585756737004,0,-0.0537,0.384,0.9065,730,18.0054,-7.9346,37.1704,94,0.7834,0.3782,-31.3146,38.3144,26,0.026,8797,3.9127,-10.0548
lg,1625493585756754133,0,-0.0193,0.3777,0.9148,731,14.5264,-4.6387,35.0342,94,0.7714,0.3742,-31.1431,37.5609,26,0.025,8493,3.9127,-8.5222
lg,1625493585756771485,0,-0.02,0.3633,0.9482,732,9.8877,2.1973,31.4941,94,0.7584,0.3712,-30.662,36.5618,26,0.027,8295,3.9127,-6.9037
lg,1625493585756789392,0,0.002,0.3333,0.9817,733,6.7139,8.606,29.0527,94,0.7534,0.3692,-29.9601,35.3532,26,0.024,8446,3.9127,-5.1758
lg,1625493585756807855,0,0.0198,0.3027,0.9905,734,3.7231,16.4795,26.6113,94,0.7504,0.3702,-28.9789,33.9708,26,0.024,8326,3.9127,-3.3358
lg,1625493585756826503,0,0.0229,0.2964,1.0042,735,2.1973,20.6909,25.1465,94,0.7534,0.3722,-27.6724,32.4584,26,0.024,8486,3.9127,-1.4309
lg,1625493585756843873,0,0.012,0.2798,1.0264,736,-0.4272,25.6348,22.2168,94,0.7594,0.3742,-26.2793,31.0254,26,0.025,8642,3.9127,0.3664
lg,1625493586132465374,0,0.0308,0.2773,1.0466,737,-12.6953,39.4897,14.5874,94,0.7894,0.3872,-24.2966,29.2048,26,0.025,24376,3.9127,2.1029
lg,1625493586132505207,0,-0.0161,0.272,1.0659,738,-17.334,44.2505,12.207,94,0.8074,0.3942,-22.0342,27.3316,26,0.024,14026,3.9127,3.7354
lg,1625493586132525374,0,-0.0476,0.2766,1.0872,739,-21.0571,42.1143,10.1318,94,0.8194,0.3992,-19.7882,25.517,26,0.023,7698,3.9127,5.1223
lg,1625493586132544503,0,-0.0715,0.2532,1.1028,740,-24.9634,38.4521,7.5684,94,0.8324,0.4052,-17.6329,23.6888,26,0.021,9147,3.9127,6.2552
lg,1625493586132564095,0,-0.0654,0.2456,1.094,741,-24.4751,33.6914,5.127,94,0.8444,0.4102,-15.8853,22.0729,26,0.022,7717,3.9127,6.9835
lg,1625493586132582762,0,-0.0452,0.2114,1.0911,742,-24.292,21.7285,2.2583,94,0.8564,0.4152,-14.4092,20.5405,26,0.021,7735,3.9127,7.5149
lg,1625493586132696594,0,0.0103,0.1968,1.0957,743,-23.1323,12.5122,-0.6104,94,0.8704,0.4222,-13.3924,19.1578,26,0.023,8300,3.9127,7.7666
lg,1625493586132719724,0,0.0227,0.1924,1.0752,744,-21.6064,8.0566,-2.5024,94,0.8834,0.4292,-12.7483,17.9299,26,0.027,8246,3.9127,7.7795
lg,1625493586132739409,0,0.0776,0.1587,1.0813,745,-20.3247,0.4883,-4.5776,94,0.8964,0.4362,-12.3355,16.7672,26,0.029,7806,3.9127,7.6896
lg,1625493586132759742,0,0.1392,0.1392,1.0706,746,-18.5547,-7.5073,-7.0801,94,0.9104,0.4442,-12.3487,15.7265,26,0.027,7795,3.9127,7.4049
lg,1625493586132783612,0,0.1724,0.1262,1.0703,747,-17.395,-9.3994,-7.8125,94,0.9255,0.4542,-12.5009,14.7583,26,0.027,7963,3.9127,7.0719
lg,1625493586132803019,0,0.2192,0.1157,1.042,748,-15.0757,-11.4746,-10.6812,94,0.9395,0.4632,-12.8122,13.9385,26,0.026,7871,3.9127,6.6042
lg,1625493586132821982,0,0.2332,0.1003,1.0444,749,-14.1602,-14.4653,-11.2305,94,0.9525,0.4742,-13.2576,13.1685,26,0.027,7856,3.9127,6.092
lg,1625493586132840519,0,0.2388,0.1108,1.0186,750,-14.0381,-16.1133,-11.9019,94,0.9665,0.4862,-13.7724,12.476,26,0.028,7903,3.9127,5.5315
lg,1625493586132857944,0,0.2996,0.0703,1.032,751,-13.0615,-14.5874,-12.146,94,0.9775,0.4972,-14.3347,11.7662,26,0.029,7900,3.9127,4.9971
lg,1625493586132875037,0,0.314,0.0737,1.011,752,-13.0005,-9.8877,-11.2915,94,0.9925,0.5112,-14.7457,11.0838,26,0.029,11611,3.9127,4.5341
lg,1625493586132894814,0,0.2844,0.0747,1.0164,753,-12.3901,-7.6904,-11.4746,94,1.0015,0.5203,-14.9944,10.4509,26,0.029,7918,3.9127,4.0785
lg,1625493586132912555,0,0.2935,0.073,1.0076,754,-11.7188,-7.2021,-11.1694,94,1.0095,0.5283,-15.2343,9.861,26,0.029,7945,3.9127,3.637
lg,1625493586132930277,0,0.2981,0.0615,1.0134,755,-11.8408,-5.3711,-9.6436,94,1.0165,0.5373,-15.4252,9.2492,26,0.029,8227,3.9127,3.2731
lg,1625493586132949036,0,0.2917,0.0481,1.0037,756,-10.5591,-6.1035,-7.3853,94,1.0225,0.5453,-15.6491,8.6612,26,0.031,7973,3.9127,3.0003
lg,1625493586132967351,0,0.2756,0.0369,0.9951,757,-8.728,-5.7373,-7.4463,94,1.0285,0.5533,-15.8425,8.1624,26,0.031,8030,3.9127,2.7255
lg,1625493586133024832,0,0.2842,0.0359,1.0071,758,-6.2866,-6.4697,-6.7749,94,1.0325,0.5613,-16.0556,7.7544,26,0.03,8157,3.9127,2.4763
lg,1625493586133052165,0,0.2944,0.0498,1.0232,759,-2.2583,-5.4321,-7.8125,94,1.0375,0.5693,-16.2256,7.5636,26,0.031,8207,3.9127,2.179
lg,1625493586133072146,0,0.2874,0.0823,0.9863,760,-0.1221,-6.5308,-8.606,94,1.0425,0.5773,-16.4954,7.6716,26,0.03,8471,3.9127,1.7896
lg,1625493586133089479,0,0.293,0.0952,1.0144,761,3.7231,-10.437,-9.6436,94,1.0465,0.5843,-16.8613,8.0142,26,0.03,8270,3.9127,1.2907
lg,1625493586133106590,0,0.3054,0.1357,0.9907,762,3.8452,-6.4087,-11.1694,94,1.0505,0.5903,-17.051,8.3028,26,0.03,8141,3.9127,0.7932
lg,1625493586133123590,0,0.2966,0.1899,1.0017,763,2.8687,-3.1128,-14.5874,94,1.0535,0.5943,-17.0505,8.6942,26,0.029,8124,3.9127,0.1422
lg,1625493586133141349,0,0.2991,0.1873,1.0212,764,1.8311,-1.0986,-15.686,94,1.0575,0.5973,-16.9234,8.9953,26,0.029,8310,3.9127,-0.5616
lg,1625493586133158960,0,0.2808,0.175,1.0188,765,1.5259,-0.2441,-17.7002,94,1.0595,0.6003,-16.7475,9.2957,26,0.029,8191,3.9127,-1.3017
lg,1625493586133176367,0,0.2573,0.1868,1.0156,766,3.479,2.6245,-20.6299,94,1.0615,0.6013,-16.3947,9.7138,26,0.029,8398,3.9127,-2.1448
lg,1625493586133193923,0,0.2158,0.1851,0.9976,767,7.2632,-3.6621,-24.5972,94,1.0635,0.6023,-16.1895,10.3232,26,0.03,8214,3.9127,-3.1885
lg,1625493586133211515,0,0.2085,0.2075,0.9958,768,9.7046,-8.667,-26.4282,94,1.0655,0.6043,-16.1462,11.0851,26,0.03,8262,3.9127,-4.3519
lg,1625493586493925055,0,0.2522,0.2749,0.9966,769,16.1133,-43.7012,-32.4097,94,1.0675,0.6063,-17.4878,12.3893,26,0.031,24409,3.9127,-6.0976
lg,1625493586493975148,0,0.3242,0.2686,1.0068,770,15.2588,-57.4951,-31.9214,94,1.0715,0.6073,-19.4189,13.6839,26,0.032,8789,3.9127,-7.9874
lg,1625493586493996703,0,0.394,0.2742,1.0144,771,15.564,-62.3169,-31.8604,94,1.0715,0.6073,-21.6638,15.085,26,0.031,7848,3.9127,-9.9999
lg,1625493586494017092,0,0.468,0.2727,0.9731,772,16.1743,-52.7954,-26.123,94,1.0695,0.6053,-23.5243,16.4054,26,0.031,8280,3.9127,-11.7206
lg,1625493586494040777,0,0.4619,0.2632,0.9299,773,18.3105,-39.5508,-22.644,94,1.0735,0.6063,-24.8384,17.7047,26,0.031,10652,3.9127,-13.1701
lg,1625493586494058869,0,0.3716,0.2734,0.908,774,20.6299,-27.771,-20.2026,94,1.0745,0.6053,-25.4914,19.0075,26,0.032,9385,3.9127,-14.3857
lg,1625493586494080313,0,0.3184,0.2866,0.8989,775,22.8882,-25.6958,-19.165,94,1.0745,0.6023,-25.9204,20.3722,26,0.031,8162,3.9127,-15.5432
lg,1625493586494100072,0,0.259,0.2883,0.8904,776,26.2451,-28.6865,-17.2729,94,1.0745,0.6003,-26.3214,21.8256,26,0.031,7887,3.9127,-16.6697
lg,1625493586494118350,0,0.2612,0.293,0.8928,777,31.9214,-35.3394,-14.5264,94,1.0755,0.5963,-26.9686,23.4752,26,0.032,7999,3.9127,-17.8022
lg,1625493586494136961,0,0.2815,0.3306,0.9175,778,35.2783,-36.7432,-12.146,94,1.0765,0.5933,-27.6904,25.2445,26,0.032,9165,3.9127,-18.8983
lg,1625493586494156905,0,0.3264,0.365,0.9502,779,40.8325,-33.2642,-7.7515,94,1.0755,0.5923,-28.3481,27.1414,26,0.032,8053,3.9127,-19.7863
lg,1625493586494176572,0,0.3582,0.3955,0.9871,780,44.8608,-25.2075,-1.0376,94,1.0755,0.5913,-28.8291,28.9703,26,0.032,9151,3.9127,-20.2513
lg,1625493586494195312,0,0.3381,0.4592,0.9766,781,45.166,-6.5308,6.7749,94,1.0745,0.5903,-28.7357,30.5376,26,0.032,8747,3.9127,-20.0414
lg,1625493586494213886,0,0.2937,0.4778,0.959,782,44.0674,3.0518,10.376,94,1.0745,0.5883,-28.1955,31.8817,26,0.031,8033,3.9127,-19.4694
lg,1625493586494233904,0,0.1719,0.5063,0.938,783,39.4897,16.9067,15.9302,94,1.0745,0.5843,-27.2241,32.8153,26,0.032,8099,3.9127,-18.367
lg,1625493586494252793,0,0.05,0.4883,0.9233,784,32.0435,23.3154,20.752,94,1.0725,0.5793,-25.9571,33.2604,26,0.032,8081,3.9127,-16.9108
lg,1625493586494273200,0,-0.0012,0.4609,0.9392,785,29.7852,19.3481,23.2544,94,1.0725,0.5733,-24.9328,33.4857,26,0.033,8218,3.9127,-15.4293
lg,1625493586494293311,0,-0.0195,0.4246,0.9604,786,24.8413,14.8926,26.9165,94,1.0705,0.5683,-24.0461,33.4907,26,0.032,8141,3.9127,-13.9009
lg,1625493586494311996,0,-0.0623,0.4209,0.9587,787,22.644,16.2354,28.5645,94,1.0695,0.5633,-23.0988,33.3925,26,0.032,8282,3.9127,-12.2959
lg,1625493586494330329,0,-0.0876,0.4197,0.9714,788,22.0337,15.3198,29.1138,94,1.0695,0.5603,-22.155,33.2014,26,0.032,8214,3.9127,-10.7108
lg,1625493586494349959,0,-0.104,0.4175,0.9646,789,17.6392,15.7471,28.6865,94,1.0705,0.5593,-21.205,32.9643,26,0.033,8285,3.9127,-9.1492
lg,1625493586494370051,0,-0.1133,0.3955,0.9907,790,14.5264,15.0757,27.6489,94,1.0705,0.5593,-20.2699,32.5917,26,0.032,8235,3.9127,-7.6365
lg,1625493586494386921,0,-0.1157,0.3962,0.9822,791,9.5215,15.0146,25.4517,94,1.0715,0.5603,-19.3052,32.0974,26,0.032,8315,3.9127,-6.2295
lg,1625493586494408606,0,-0.1152,0.3865,1.0103,792,5.6763,15.0757,24.231,94,1.0725,0.5633,-18.3416,31.4664,26,0.033,8298,3.9127,-4.8735
lg,1625493586494428421,0,-0.1067,0.3469,1.0557,793,-2.3193,14.9536,20.813,94,1.0755,0.5663,-17.3568,30.4943,26,0.033,8419,3.9127,-3.6337
lg,1625493586494450921,0,-0.1436,0.3286,1.05,794,-10.6812,14.3433,17.8833,94,1.0755,0.5693,-16.2786,29.2563,26,0.033,8307,3.9127,-2.536
lg,1625493586494471421,0,-0.1233,0.2927,1.0916,795,-15.564,11.2305,15.2588,94,1.0775,0.5723,-15.4036,27.7365,26,0.033,8379,3.9127,-1.7447
lg,1625493586494490920,0,-0.1074,0.2729,1.0964,796,-23.3765,5.127,12.0239,94,1.0785,0.5753,-14.6444,26.1042,26,0.033,8305,3.9127,-1.0665
lg,1625493586494510680,0,-0.0825,0.2268,1.103,797,-29.2358,1.0376,9.0942,94,1.0795,0.5763,-14.0421,24.2619,26,0.033,8379,3.9127,-0.5709
lg,1625493586494528420,0,-0.0696,0.1677,1.0757,798,-32.1045,-1.9531,6.4697,94,1.0795,0.5763,-13.5402,22.3085,26,0.033,10304,3.9127,-0.2177
lg,1625493586494545753,0,-0.0227,0.1294,1.0503,799,-33.9355,-1.5869,4.6387,94,1.0805,0.5783,-13.1015,20.3022,26,0.032,8540,3.9127,0.0718
lg,1625493586494566309,0,0.0227,0.095,1.0603,800,-32.7148,-2.1362,2.6855,94,1.0805,0.5783,-12.763,18.368,26,0.033,8408,3.9127,0.279
lg,1625493586823922981,0,0.106,0.0637,1.0769,801,-26.062,2.2583,2.7466,94,1.0835,0.5853,-12.4398,16.6973,26,0.033,24711,3.9127,0.5445
lg,1625493586823963814,0,0.0959,0.042,1.0823,802,-21.4233,4.5776,2.7466,94,1.0845,0.5893,-12.0142,15.2276,26,0.033,9063,3.9127,0.827
lg,1625493586823983759,0,0.1221,0.0618,1.0776,803,-18.0664,1.2207,2.3193,94,1.0855,0.5933,-11.7767,14.0053,26,0.033,7938,3.9127,1.03
lg,1625493586824002407,0,0.1626,0.0637,1.0698,804,-15.1978,-2.1973,0.9766,94,1.0865,0.5993,-11.7504,12.9708,26,0.034,10079,3.9127,1.1342
lg,1625493586824020684,0,0.1885,0.0571,1.0754,805,-15.1367,-2.5024,0.5493,94,1.0875,0.6023,-11.82,11.9593,26,0.033,8095,3.9127,1.2177
lg,1625493586824039184,0,0.2341,0.0645,1.0842,806,-12.4512,-2.7466,-1.709,94,1.0885,0.6073,-11.9287,11.1411,26,0.033,11312,3.9127,1.1972
lg,1625493586824057684,0,0.2378,0.0713,1.0625,807,-11.5356,-2.0142,-3.1738,94,1.0895,0.6103,-12.0101,10.4201,26,0.033,7767,3.9127,1.1152
lg,1625493586824075647,0,0.2507,0.0796,1.0481,808,-9.8877,-1.709,-5.5542,94,1.0905,0.6123,-12.093,9.8333,26,0.034,7823,3.9127,0.9304
lg,1625493586824092776,0,0.239,0.084,1.0491,809,-9.2773,-0.6714,-7.8125,94,1.0905,0.6143,-12.045,9.3386,26,0.033,7754,3.9127,0.6437
lg,1625493586824110054,0,0.2278,0.0857,1.0378,810,-7.3853,0.2441,-9.5215,94,1.0915,0.6163,-11.9847,8.9389,26,0.033,7910,3.9127,0.2999
lg,1625493586824127665,0,0.2227,0.1084,1.0452,811,-4.1504,-0.1831,-11.7188,94,1.0905,0.6173,-11.9164,8.7498,26,0.033,8025,3.9127,-0.1492
lg,1625493586824144683,0,0.2246,0.1221,1.0171,812,-0.4883,-0.9155,-14.1602,94,1.0905,0.6193,-11.8811,8.7718,26,0.033,8181,3.9127,-0.7108
lg,1625493586824162627,0,0.2144,0.1465,1.0229,813,1.2817,-1.4038,-14.8926,94,1.0915,0.6213,-11.8352,8.9213,26,0.033,7861,3.9127,-1.3155
lg,1625493586824180127,0,0.2061,0.1506,1.0115,814,3.7231,-1.4648,-16.9678,94,1.0915,0.6233,-11.7654,9.1913,26,0.033,8082,3.9127,-2.0055
lg,1625493586824197479,0,0.1731,0.1685,1.0063,815,5.7373,-2.6855,-19.165,94,1.0925,0.6263,-11.6582,9.5903,26,0.033,9352,3.9127,-2.7976
lg,1625493586824214331,0,0.1787,0.1914,1.0034,816,7.6294,-4.8218,-21.5454,94,1.0925,0.6283,-11.6283,10.1217,26,0.033,9585,3.9127,-3.7074
lg,1625493586824231719,0,0.1526,0.1973,1.0068,817,7.9956,-7.2021,-22.522,94,1.0935,0.6303,-11.6197,10.6691,26,0.033,7948,3.9127,-4.672
lg,1625493586824248793,0,0.1802,0.2168,1.0088,818,8.3008,-11.3525,-25.7568,94,1.0935,0.6323,-11.7968,11.2827,26,0.033,8059,3.9127,-5.8044
lg,1625493586824267219,0,0.1526,0.2148,1.0349,819,8.1787,-13.1836,-28.6865,94,1.0945,0.6343,-11.9363,11.8818,26,0.033,8031,3.9127,-7.064
lg,1625493586824284682,0,0.147,0.2217,0.9968,820,8.1787,-15.3809,-29.8462,91,1.0965,0.6353,-12.132,12.5072,26,0.033,8018,3.9116,-8.3944
lg,1625493586824301941,0,0.1641,0.239,1.0039,821,8.9722,-19.2871,-32.7148,91,1.0975,0.6373,-12.4643,13.2123,26,0.034,11957,3.9116,-9.8825
lg,1625493586824318811,0,0.166,0.2327,1.0061,822,8.4229,-19.104,-32.959,91,1.0975,0.6383,-12.7608,13.8636,26,0.034,8262,3.9116,-11.3766
lg,1625493586824335533,0,0.1516,0.2468,1.0012,823,9.7656,-19.5312,-34.8511,91,1.0985,0.6403,-12.9953,14.6012,26,0.034,8124,3.9116,-12.9583
lg,1625493586824352348,0,0.1528,0.2568,0.9763,824,9.3384,-19.5312,-34.79,91,1.0985,0.6413,-13.211,15.3347,26,0.033,8318,3.9116,-14.5457
lg,1625493586824369422,0,0.1594,0.283,0.9937,825,9.8267,-20.3247,-35.8887,91,1.0995,0.6423,-13.4225,16.1238,26,0.034,9780,3.9116,-16.1958
lg,1625493586824385607,0,0.1621,0.2708,0.9839,826,9.3994,-20.3247,-35.7666,91,1.0995,0.6433,-13.5796,16.8558,26,0.033,8739,3.9116,-17.8375
lg,1625493586824402107,0,0.1619,0.2717,1.0095,827,9.5215,-20.5078,-36.438,91,1.0995,0.6433,-13.737,17.5558,26,0.034,8488,3.9116,-19.5013
lg,1625493586824418292,0,0.157,0.2795,1.0081,828,9.9487,-18.9819,-35.8276,91,1.0995,0.6453,-13.8073,18.256,26,0.034,8378,3.9116,-21.1241
lg,1625493586824434810,0,0.1416,0.2666,1.0051,829,10.1318,-19.3481,-34.668,91,1.0995,0.6453,-13.8547,18.9017,26,0.034,8280,3.9116,-22.6969
lg,1625493586824451699,0,0.137,0.2883,1.0024,830,11.0474,-19.043,-33.9355,91,1.1005,0.6463,-13.869,19.5995,26,0.034,8315,3.9116,-24.2456
lg,1625493586824468736,0,0.1006,0.2886,0.9929,831,11.3525,-19.4092,-33.5693,91,1.1005,0.6473,-13.8077,20.285,26,0.034,8363,3.9116,-25.7826
lg,1625493586824485495,0,0.1082,0.3137,0.9956,832,11.8408,-22.0947,-34.1797,91,1.1015,0.6473,-13.835,21.0293,26,0.034,8351,3.9116,-27.3913
lg,1625493587177813080,0,0.1406,0.2896,1.0193,833,11.6577,-27.5879,-35.7666,91,1.1035,0.6473,-14.0883,21.7105,26,0.034,24584,3.9116,-29.1264
lg,1625493587177939783,0,0.155,0.2808,1.0149,834,11.7188,-27.5879,-36.5601,91,1.1035,0.6473,-14.3271,22.3927,26,0.034,8727,3.9116,-30.8928
lg,1625493587177963431,0,0.1912,0.2727,1.0278,835,13.0005,-25.5737,-37.7808,91,1.1045,0.6463,-14.5211,23.0626,26,0.034,13724,3.9116,-32.6631
lg,1625493587177983060,0,0.176,0.2725,1.0244,836,12.7563,-21.8506,-37.9028,91,1.1045,0.6443,-14.5198,23.6865,26,0.034,7818,3.9116,-34.3738
lg,1625493587178000412,0,0.1875,0.2812,1.0161,837,13.0615,-21.5454,-38.147,91,1.1055,0.6413,-14.5104,24.3227,26,0.034,7769,3.9116,-36.0905
lg,1625493587178017597,0,0.1782,0.2532,1.0044,838,13.0615,-22.0337,-39.4287,91,1.1055,0.6393,-14.4699,24.8942,26,0.033,7967,3.9116,-37.8455
lg,1625493587178034726,0,0.1982,0.2556,1.0098,839,13.855,-23.2544,-39.4897,91,1.1055,0.6373,-14.4965,25.4844,26,0.033,7837,3.9116,-39.6212
lg,1625493587178051893,0,0.2117,0.2402,1.0134,840,15.625,-23.4375,-39.7339,91,1.1055,0.6353,-14.5994,26.1011,26,0.034,8820,3.9116,-41.3992
lg,1625493587178069930,0,0.2458,0.2642,0.9858,841,18.1885,-21.4844,-40.5273,91,1.1045,0.6313,-14.6086,26.8584,26,0.034,8213,3.9116,-43.1813
lg,1625493587178087707,0,0.2173,0.2966,1.0117,842,18.0664,-19.5312,-41.5649,91,1.1055,0.6263,-14.4288,27.6278,26,0.034,7905,3.9116,-44.9687
lg,1625493587178105244,0,0.241,0.2791,1.0498,843,17.5171,-20.0806,-43.0908,91,1.1045,0.6193,-14.2621,28.3003,26,0.034,8931,3.9116,-46.7999
lg,1625493587178124818,0,0.2229,0.2793,1.0745,844,17.8833,-13.9771,-47.9736,91,1.1035,0.6133,-13.7298,28.9484,26,0.033,8024,3.9116,-48.6737
lg,1625493587178143429,0,0.196,0.2866,1.105,845,18.3105,-12.3291,-49.3774,91,1.1015,0.6063,-13.05,29.5667,26,0.034,7972,3.9116,-50.5526
lg,1625493587178163355,0,0.1804,0.2942,1.0483,846,15.0757,-15.8081,-47.3022,91,1.1005,0.5993,-12.5242,30.0528,26,0.034,8025,3.9116,-52.4301
lg,1625493587178182781,0,0.1843,0.2996,1.0452,847,12.6953,-14.5264,-44.9219,91,1.0985,0.5913,-12.0171,30.3963,26,0.033,8025,3.9116,-54.1941
lg,1625493587178201521,0,0.1714,0.3101,1.0618,848,12.9395,-15.7471,-44.5557,91,1.0965,0.5833,-11.5653,30.7407,26,0.033,8570,3.9116,-55.9709
lg,1625493587178241021,0,0.1594,0.3301,1.0662,849,9.3994,-18.4937,-45.7153,91,1.0935,0.5753,-11.1343,30.9625,26,0.034,8582,3.9116,-57.8483
lg,1625493587178264335,0,0.1597,0.3445,1.0708,850,5.7373,-24.9023,-45.7764,91,1.0895,0.5683,-10.9291,31.0695,26,0.034,8084,3.9116,-59.8671
lg,1625493587178282520,0,0.197,0.3528,1.0991,851,4.2114,-27.2827,-46.6309,91,1.0855,0.5593,-10.9609,31.1258,26,0.034,8172,3.9116,-62.0632
lg,1625493587178300150,0,0.2007,0.345,1.1562,852,2.4414,-33.4473,-48.0957,91,1.0815,0.5523,-11.0586,31.0993,26,0.033,8461,3.9116,-64.3347
lg,1625493587178317650,0,0.2332,0.3481,1.197,853,-0.7935,-40.1001,-45.8374,91,1.0765,0.5443,-11.4756,30.9541,26,0.033,10207,3.9116,-66.666
lg,1625493587178336057,0,0.2751,0.3755,1.2175,854,-5.127,-41.626,-41.5039,91,1.0725,0.5383,-12.087,30.6766,26,0.034,8415,3.9116,-68.8846
lg,1625493587178354427,0,0.3359,0.374,1.259,855,-13.7329,-38.0859,-35.2783,91,1.0685,0.5333,-12.7832,30.0099,26,0.034,8239,3.9116,-70.8023
lg,1625493587178372427,0,0.3721,0.407,1.2598,856,-17.8223,-36.0107,-31.5552,91,1.0665,0.5293,-13.5025,28.9381,26,0.034,8270,3.9116,-72.3098
lg,1625493587178389705,0,0.3901,0.4119,1.3066,857,-32.8979,-26.3672,-23.1323,91,1.0635,0.5263,-14.0907,27.4952,26,0.034,8281,3.9116,-73.5554
lg,1625493587178407223,0,0.3877,0.3708,1.3162,858,-47.2412,-16.5405,-14.6484,91,1.0605,0.5233,-14.4945,25.3537,26,0.034,8333,3.9116,-74.285
lg,1625493587178424778,0,0.3545,0.3105,1.3301,859,-58.7769,-14.2212,-7.5684,91,1.0565,0.5203,-14.897,22.6567,26,0.035,8314,3.9116,-74.6874
lg,1625493587178442038,0,0.3611,0.2781,1.3628,860,-63.4766,-16.0522,-4.6997,91,1.0535,0.5163,-15.4154,19.792,26,0.035,8319,3.9116,-74.9952
lg,1625493587178458963,0,0.3691,0.2627,1.3357,861,-70.1294,-21.4233,-1.1597,91,1.0505,0.5143,-16.2018,16.7371,26,0.035,8405,3.9116,-75.2277
lg,1625493587178477056,0,0.3813,0.2305,1.3242,862,-75.8057,-27.2827,1.6479,91,1.0485,0.5123,-17.2516,13.5057,26,0.035,8358,3.9116,-75.382
lg,1625493587178495407,0,0.4177,0.2183,1.302,863,-78.9185,-30.4565,3.54,91,1.0445,0.5102,-18.5788,10.052,26,0.035,8419,3.9116,-75.3473
