name,time,activity,ax,ay,az,batch_val,gx,gy,gz,ibat,index,middle,pitch,roll,temp,thumb,ts,vbat,yaw
rg,1625496565293559215,1,0.1494,0.334,0.9812,1,2.1973,9.7046,-11.5356,102,1.1035,0,6.9057,20.9205,25,0.8244,19389,4.0161,-14.4239
rg,1625496565293595662,1,0.1443,0.3337,0.9832,2,1.6479,10.6201,-12.3901,102,1.1025,0,6.896,20.8574,25,0.8234,8372,4.0161,-14.7471
rg,1625496565293616578,1,0.1436,0.3328,0.9885,3,1.1597,10.3149,-12.0239,102,1.1035,0,6.8725,20.7728,25,0.8244,7846,4.0161,-15.0619
rg,1625496565293636125,1,0.1335,0.3333,0.9893,4,1.8311,10.0098,-12.5732,102,1.1035,0,6.867,20.7156,25,0.8244,7863,4.0161,-15.4021
rg,1625496565293654413,1,0.126,0.3291,0.9985,5,1.8921,8.3618,-11.9019,102,1.1035,0,6.7632,20.6485,25,0.8244,7873,4.0161,-15.7337
rg,1625496565293672775,1,0.116,0.3301,1.0032,6,1.9531,6.2866,-11.9019,102,1.1035,0,6.6522,20.5826,25,0.8244,7872,4.0161,-16.104
rg,1625496565293690545,1,0.1152,0.3347,0.9978,7,2.0752,3.9673,-11.5967,102,1.1035,0,6.455,20.5357,24,0.8244,7906,4.0161,-16.494
rg,1625496565293719772,1,0.1125,0.3359,0.9927,8,1.8921,2.3193,-11.2915,102,1.1035,0,6.1946,20.4961,24,0.8244,7897,4.0161,-16.894
rg,1625496565293738597,1,0.1152,0.3362,0.9924,9,0.9155,0.6104,-12.6343,102,1.1035,0,5.9026,20.4075,24,0.8244,7921,4.0161,-17.3686
rg,1625496565293756996,1,0.1121,0.3364,0.9905,10,0.9766,-0.9766,-11.6577,102,1.1035,0,5.5546,20.3308,24,0.8244,7841,4.0161,-17.8279
rg,1625496565293775765,1,0.1111,0.3464,0.99,11,1.4648,-1.0376,-12.5122,102,1.1035,0,5.232,20.2969,24,0.8244,7921,4.0161,-18.3176
rg,1625496565293794053,1,0.094,0.3394,0.9897,12,-0.1221,-3.7231,-12.085,102,1.1035,0,4.8505,20.1879,24,0.8244,8010,4.0161,-18.8292
rg,1625496565293811342,1,0.0923,0.3442,0.9966,13,0.061,-8.667,-11.9629,102,1.1035,0,4.3016,20.0948,24,0.8234,7999,4.0161,-19.4033
rg,1625496565293828482,1,0.0916,0.3452,1.0066,14,-0.3662,-11.2915,-12.2681,102,1.1035,0,3.6824,19.9859,24,0.8244,7990,4.0161,-20.024
rg,1625496565293848418,1,-0.0962,-0.4539,0.7334,15,-42.2363,42.1143,7.6904,255,1.0855,0,5.3358,16.5891,25,0.7674,12664,3.9083,-19.3199
rg,1625496565293865299,1,-0.1919,-0.2769,0.6311,16,-39.978,50.5371,6.8359,255,1.0855,0,7.6539,13.6597,25,0.7634,8126,3.9083,-18.6679
rg,1625496565293881940,1,-0.4028,-0.2256,0.584,17,-64.6362,49.6216,9.7046,255,1.0825,0,10.5077,10.1014,25,0.7584,7904,3.9083,-18.0496
rg,1625496565293902542,1,-0.4341,-0.3767,0.6538,18,-95.7031,15.0146,10.0708,255,1.0775,0,11.8704,5.0859,25,0.7514,7910,3.9083,-17.8372
rg,1625496565293919682,1,-0.3826,-0.4204,0.7183,19,-104.5532,1.6479,10.7422,255,1.0725,0,12.4842,-0.2141,25,0.7494,7940,3.9083,-17.677
rg,1625496565293936341,1,0.2053,-1.1182,0.9683,20,-47.3633,0.3052,40.3442,255,1.0745,0,11.9131,-3.4793,25,0.7554,7944,3.9083,-16.3871
rg,1625496565293954166,1,0.2512,-0.2024,0.7351,21,-19.2871,31.7993,35.9497,255,1.0755,0,12.1453,-4.4123,25,0.7574,8014,3.9083,-15.0953
rg,1625496565293970733,1,0.0063,-0.9021,0.9983,22,-39.0625,70.3735,19.165,255,1.0765,0,14.6148,-7.2764,25,0.7584,8045,3.9083,-14.8996
rg,1625496565294004366,1,-0.468,-0.5693,0.8013,23,-0.3662,80.6274,23.0713,255,1.0765,0,18.4035,-8.1542,25,0.7594,8011,3.9083,-14.6589
rg,1625496565294021877,1,-0.2891,-0.6477,0.8728,24,2.9907,47.6685,19.8975,255,1.0765,0,20.3376,-8.9622,25,0.7604,8038,3.9083,-14.4782
rg,1625496565294039072,1,-0.2607,-0.5295,0.8091,25,7.019,46.7529,17.6392,255,1.0765,0,22.1423,-9.4894,25,0.7614,8100,3.9083,-14.3906
rg,1625496565294055769,1,-0.3518,-0.5356,0.8003,26,3.8452,52.002,11.2915,255,1.0775,0,24.2415,-10.2496,25,0.7614,8111,3.9083,-14.6579
rg,1625496565294074260,1,-0.4607,-0.6143,0.8252,27,1.1597,38.9404,0.3662,255,1.0775,0,25.8418,-11.3478,25,0.7614,8149,3.9083,-15.387
rg,1625496565294091345,1,-0.5002,-0.6223,0.8298,28,3.479,29.2969,-6.8359,255,1.0785,0,26.9997,-12.4428,25,0.7624,8129,3.9083,-16.3892
rg,1625496565294108226,1,-0.5525,-0.6028,0.8357,29,12.146,2.6245,-19.8364,255,1.0795,0,27.0374,-13.2524,25,0.7624,8170,3.9083,-17.6919
rg,1625496565294125274,1,-0.5388,-0.7578,0.9612,30,23.2544,-20.813,-24.8413,255,1.0815,0,25.9502,-13.6874,25,0.7644,8252,3.9083,-19.0027
rg,1625496565294146006,1,-0.4841,-0.856,1.0007,31,36.3159,-31.25,-24.9634,255,1.0835,0,24.2117,-13.6491,25,0.7664,8276,3.9083,-20.2303
rg,1625496565294163109,1,-0.2546,-0.9109,1.033,32,80.6274,-44.7388,-20.0806,255,1.0855,0,21.8656,-11.7308,25,0.7684,8336,3.9083,-21.1275
rg,1625496565645452313,1,0.0586,-0.5225,0.7219,33,132.8735,53.0396,-49.8657,255,1.0885,0,24.3159,-8.8161,25,0.7724,24740,3.9083,-24.5094
rg,1625496565645484113,1,-0.552,-0.4541,0.719,34,105.5908,92.4683,-59.8755,255,1.0895,0,28.0404,-6.8613,25,0.7734,10585,3.9083,-28.0577
rg,1625496565645504308,1,-0.6628,-0.4482,0.7178,35,95.1538,75.6836,-58.4717,255,1.0895,0,30.289,-5.4431,25,0.7734,7589,3.9083,-31.1121
rg,1625496565645523280,1,-0.6677,-0.4119,0.7485,36,82.0312,24.4751,-50.6592,255,1.0905,-0.001,31.4629,-4.2558,25,0.7744,7657,3.9083,-33.9792
rg,1625496565645542624,1,-0.4949,-0.4082,0.7812,37,67.0776,-15.8691,-39.978,255,1.0915,0,30.7193,-3.4341,25,0.7764,7745,3.9083,-36.2759
rg,1625496565645560708,1,-0.2529,-0.3884,0.8257,38,58.5327,-33.3862,-30.9448,255,1.0925,0,28.8051,-2.7031,25,0.7774,9520,3.9083,-38.1035
rg,1625496565645578237,1,-0.1401,-0.3733,0.8188,39,53.894,-31.9214,-28.8086,255,1.0925,0,26.8897,-2.3458,25,0.7804,8674,3.9083,-39.7215
rg,1625496565645595266,1,-0.0002,-0.3882,0.8816,40,42.4194,-9.8877,-23.5596,255,1.0905,0,25.5023,-2.0348,25,0.7784,7659,3.9083,-41.179
rg,1625496565645612981,1,-0.0906,-0.3528,0.9182,41,27.8931,27.832,-15.8081,255,1.0945,0.001,25.851,-2.0603,25,0.7814,7750,3.9083,-42.279
rg,1625496565645649094,1,-0.2004,-0.324,0.9324,42,19.7754,38.0859,-10.1929,255,1.0945,0,26.8253,-2.2303,25,0.7814,7577,3.9083,-43.1179
rg,1625496565645666605,1,-0.3591,-0.3206,0.9626,43,-8.1787,39.3066,0.1831,255,1.0975,0,28.1285,-3.2623,25,0.7824,7743,3.9083,-43.4987
rg,1625496565645683541,1,-0.4131,-0.3879,0.9546,44,-23.2544,32.8369,7.9346,255,1.0965,0,28.8566,-5.232,25,0.7834,7791,3.9083,-43.3996
rg,1625496565645700534,1,-0.4165,-0.3853,0.8552,45,-44.9829,6.2256,13.916,255,1.0925,0,29.0109,-7.5025,25,0.7774,7810,3.9083,-43.171
rg,1625496565645717137,1,-0.2559,-0.2576,0.7734,46,-68.5425,-25.8179,8.9111,255,1.0915,0,27.6028,-10.4138,25,0.7704,7848,3.9083,-42.8015
rg,1625496565645733482,1,-0.1343,-0.1748,0.7842,47,-81.9092,-34.668,4.6997,255,1.0835,0,25.35,-13.294,25,0.7554,7843,3.9083,-42.1857
rg,1625496565645750234,1,-0.0378,-0.0215,0.8101,48,-104.3701,-30.5176,-6.1035,255,1.0745,0,23.2626,-16.8929,25,0.7464,7862,3.9083,-41.8445
rg,1625496565645766560,1,0.4702,-0.9077,0.9678,49,-33.02,-4.3335,10.2539,255,1.0765,0,21.7613,-19.0355,25,0.7564,7902,3.9083,-41.743
rg,1625496565645782960,1,0.3689,0.0066,0.8147,50,11.0474,5.3101,-5.9814,255,1.0745,0,20.2895,-17.9711,25,0.7594,7892,3.9083,-41.798
rg,1625496565645799397,1,0.0037,-0.8669,1.2966,51,-41.4429,89.5996,-36.5601,255,1.0785,0,22.3875,-21.2806,25,0.7614,7895,3.9083,-44.7798
rg,1625496565645815723,1,-0.5615,-0.5037,0.9907,52,-7.6294,121.1548,-10.0098,255,1.0775,0,26.8774,-22.8041,25,0.7654,7969,3.9083,-47.2797
rg,1625496565645832271,1,-0.6479,-0.5945,1.04,53,-12.3901,101.9897,-2.6245,255,1.0755,0,30.6101,-24.5186,25,0.7644,8013,3.9083,-49.3876
rg,1625496565645848782,1,-0.2893,-0.3425,0.8955,54,-4.5166,42.1753,9.0942,255,1.0785,0,31.7407,-24.7576,25,0.7654,8084,3.9083,-49.7406
rg,1625496565645865163,1,-0.0793,-0.4841,0.9363,55,-17.1509,47.3633,3.7842,255,1.0785,0,32.4565,-25.9718,25,0.7684,8079,3.9083,-50.59
rg,1625496565645881415,1,-0.1895,-0.5317,0.9539,56,-18.3105,56.7627,-5.188,255,1.0765,-0.001,33.4993,-27.6187,25,0.7684,8071,3.9083,-52.0985
rg,1625496565645898130,1,-0.501,-0.5452,0.9224,57,-16.7847,51.3916,-23.1934,255,1.0795,-0.001,34.5086,-29.6188,25,0.7694,7991,3.9083,-54.3348
rg,1625496565645914622,1,-0.6494,-0.5229,0.9053,58,-10.376,19.9585,-29.6021,255,1.0775,0,34.4824,-31.0191,25,0.7704,9450,3.9083,-56.0692
rg,1625496565645930763,1,-0.6707,-0.5532,0.9158,59,-1.2207,-22.3999,-25.2075,255,1.0815,0,33.0955,-31.3301,25,0.7704,9859,3.9083,-56.5436
rg,1625496565645947182,1,-0.4985,-0.6243,0.9368,60,13.7329,-60.2417,-15.564,255,1.0815,0,30.3514,-30.4402,25,0.7744,8202,3.9083,-55.7648
rg,1625496565645963341,1,-0.3311,-0.7256,0.9937,61,26.1841,-73.3643,-8.667,255,1.0845,0,27.0479,-29.0073,25,0.7764,8222,3.9083,-54.5739
rg,1625496565645979815,1,0.1526,-0.8259,1.0481,62,63.8428,-67.8711,3.2959,255,1.0885,0,23.4758,-26.2201,24,0.7784,8192,3.9083,-53.2643
rg,1625496565645996363,1,0.3396,-0.7793,0.947,63,95.2148,-20.5078,-8.1177,255,1.0885,0,21.2,-22.9577,24,0.7804,8245,3.9083,-53.4734
rg,1625496565646012911,1,0.3232,-0.687,0.8999,64,105.5298,13.3667,-18.0664,255,1.0895,0,20.2626,-19.5498,24,0.7814,8243,3.9083,-54.6064
rg,1625496566013307592,1,-0.7092,-0.1602,0.6802,65,83.0688,105.896,-30.2734,255,1.0905,0,24.8416,-17.0669,25,0.7824,24955,3.9083,-57.203
rg,1625496566013362624,1,-0.9692,0.0117,0.6345,66,-4.0894,8.1177,1.9531,255,1.0925,0,26.393,-16.8052,25,0.7844,15744,3.9083,-57.0376
rg,1625496566013384485,1,-0.7285,-0.4031,0.9653,67,-50.6592,-75.7446,8.2397,255,1.0935,0,23.9481,-18.4522,24,0.7854,7738,3.9083,-55.7698
rg,1625496566013405254,1,-0.5618,-0.4482,0.9856,68,-52.1851,-100.0977,12.8174,255,1.0945,0,20.4888,-20.0181,24,0.7874,7741,3.9083,-53.9106
rg,1625496566013426264,1,-0.0134,-0.5803,1.0281,69,-52.6733,-137.085,21.6675,255,1.0955,0,14.9329,-21.6172,24,0.7874,7706,3.9083,-51.1369
rg,1625496566013445756,1,0.2634,-0.5508,1.0288,70,-49.9878,-127.9907,24.6582,255,1.0955,0,9.2099,-23.1802,24,0.7854,7812,3.9083,-48.2385
rg,1625496566013465969,1,0.5281,-0.4238,0.9219,71,-57.6172,-52.3071,20.5078,255,1.0945,0,6.2904,-25.3038,25,0.7814,9465,3.9083,-46.5994
rg,1625496566013485461,1,0.2673,-0.3391,0.8201,72,-74.585,38.9404,5.8594,255,1.0935,0,6.8914,-28.2174,25,0.7724,7758,3.9083,-47.0626
rg,1625496566013504823,1,-0.261,-0.3389,1.3518,73,-85.6934,70.1294,0.4272,255,1.0915,0,10.0249,-31.516,25,0.7734,7754,3.9083,-48.9147
rg,1625496566013656407,1,-0.063,-0.853,0.8088,74,-34.3628,91.6138,7.8735,255,1.0905,0,12.9981,-33.8251,25,0.7744,7846,3.9083,-50.7671
rg,1625496566013687154,1,-0.3381,-0.3684,0.8176,75,-30.3345,76.4771,-6.3477,255,1.0935,-0.001,15.6695,-35.1595,25,0.7774,8212,3.9083,-52.6941
rg,1625496566013712791,1,-0.5813,-0.4932,0.8472,76,-24.231,80.6274,-10.9253,255,1.0915,0,18.1234,-35.6175,25,0.7784,8149,3.9083,-54.4228
rg,1625496566013734300,1,-0.5161,-0.3291,0.7979,77,-3.418,42.1753,-2.0752,255,1.0915,0,19.3465,-36.2764,25,0.7784,8016,3.9083,-55.1593
rg,1625496566013754162,1,-0.3191,-0.51,0.9087,78,-18.6768,20.3857,-2.0752,255,1.0915,-0.001,19.8575,-36.9285,25,0.7794,7884,3.9083,-55.6506
rg,1625496566013833018,1,-0.2092,-0.3828,0.8025,79,-22.2168,20.9961,-9.8267,255,1.0945,0,20.0341,-37.6367,25,0.7814,7741,3.9083,-56.3616
rg,1625496566013858081,1,-0.2346,-0.4578,0.8296,80,-28.7476,28.0762,-15.4419,255,1.0945,0,20.4335,-38.9655,25,0.7834,8005,3.9083,-57.5333
rg,1625496566013933938,1,-0.4668,-0.5754,0.8938,81,-35.3394,32.1655,-28.5645,255,1.0935,0,20.8141,-40.767,25,0.7844,12495,3.9083,-59.2667
rg,1625496566013954226,1,-0.5481,-0.6174,0.9124,82,-32.8979,28.9307,-30.8838,255,1.0945,0,20.9653,-42.2422,25,0.7854,8003,3.9083,-60.8249
rg,1625496566013973440,1,-0.6528,-0.7529,0.9995,83,-16.3574,9.2163,-29.0527,255,1.0955,0,20.7069,-43.1079,25,0.7874,7990,3.9083,-61.9321
rg,1625496566013992469,1,-0.4941,-0.8472,1.0259,84,22.1558,-27.8931,-20.4468,255,1.0975,0,19.3207,-42.0166,25,0.7904,8189,3.9083,-61.7124
rg,1625496566014010498,1,-0.1213,-0.7803,0.9438,85,47.4854,-37.9639,-16.2964,255,1.0985,0,17.2186,-38.9206,25,0.7914,8131,3.9083,-60.8817
rg,1625496566014028676,1,0.061,-0.7725,0.9314,86,85.144,-38.6963,-13.9771,255,1.0995,0,14.9139,-35.2458,25,0.7934,9714,3.9083,-61.0588
rg,1625496566014047908,1,0.1536,-0.6606,0.8386,87,101.3184,-1.6479,-31.9824,255,1.0975,0,13.2644,-31.5847,25,0.7924,8150,3.9083,-62.1806
rg,1625496566014067122,1,-0.0872,-0.4712,0.7439,88,98.6328,50.9644,-42.7246,255,1.0995,0,13.8669,-28.2805,25,0.7934,8102,3.9083,-64.7656
rg,1625496566014087540,1,-0.4268,-0.3633,0.6919,89,91.8579,68.1152,-45.166,255,1.1005,0,16.2911,-25.5875,25,0.7934,8128,3.9083,-67.7867
rg,1625496566014107161,1,-0.5791,-0.2546,0.6545,90,76.1108,70.6177,-40.1001,255,1.0985,0,19.0787,-23.2407,25,0.7914,8211,3.9083,-70.4852
rg,1625496566014147033,1,-0.7671,-0.1118,0.6362,91,44.1284,37.4756,-25.0244,255,1.1005,0,21.2429,-21.6632,25,0.7924,8226,3.9083,-71.9438
rg,1625496566014258504,1,-0.6318,-0.3271,0.8003,92,11.9629,-22.522,-14.2212,255,1.0995,0,20.7788,-21.276,25,0.7934,8218,3.9083,-72.1586
rg,1625496566014283827,1,-0.4729,-0.3154,0.8325,93,6.2866,-47.4854,-8.1177,255,1.0995,0,19.1759,-20.8614,25,0.7934,8195,3.9083,-71.7412
rg,1625496566014304207,1,-0.2117,-0.176,0.824,94,-16.1133,-59.5093,6.2866,255,1.1035,0,16.8532,-20.7924,25,0.7954,8224,3.9083,-70.4822
rg,1625496566014323977,1,-0.0652,-0.3767,0.9141,95,-51.3916,-49.7437,10.9863,255,1.1035,0,14.658,-22.5764,25,0.7984,8262,3.9083,-69.3017
rg,1625496566014341839,1,0.0708,-0.4883,0.8762,96,-79.0405,-32.7148,8.1177,255,1.1055,0,12.8753,-25.778,25,0.7954,8887,3.9083,-68.4899
rg,1625496566343353795,1,-0.2136,-0.2773,1.2048,97,-124.8169,47.1191,3.7842,255,1.0915,0,14.0874,-31.367,24,0.7774,25705,3.9083,-69.3559
rg,1625496566343390169,1,0.1384,0.0503,0.6257,98,-4.5776,51.8188,2.6855,255,1.0895,0,14.999,-30.4547,24,0.7794,14256,3.9083,-70.0418
rg,1625496566343410715,1,-0.5278,-0.8762,1.1038,99,-0.9766,118.7744,-29.2969,255,1.0905,0,18.6577,-31.8419,24,0.7814,7604,3.9083,-73.7427
rg,1625496566343429633,1,-0.7517,-0.5015,0.8,100,18.2495,108.8867,-17.2729,255,1.0895,0,22.7297,-32.2093,24,0.7814,7659,3.9083,-76.8448
rg,1625496566343447792,1,-0.7629,-0.6155,0.9287,101,12.3291,30.4565,-13.4888,255,1.0905,0,23.9206,-32.2336,25,0.7814,7599,3.9083,-78.0659
rg,1625496566343465951,1,-0.1956,-0.4622,0.8601,102,19.8975,-12.7563,-14.9536,255,1.0905,0,22.1052,-31.2396,25,0.7834,7680,3.9083,-77.8245
rg,1625496566343483055,1,-0.0486,-0.5376,0.9004,103,16.7236,-24.5972,-18.0664,255,1.0915,0,20.4354,-30.7023,25,0.7854,9928,3.9083,-78.4786
rg,1625496566343501621,1,-0.1489,-0.4492,0.8157,104,18.1274,4.8218,-31.7993,255,1.0915,0,19.8467,-30.3282,25,0.7874,9441,3.9083,-79.7186
rg,1625496566343519595,1,-0.4316,-0.4275,0.7961,105,10.376,16.6016,-43.5791,255,1.0925,0,19.7549,-30.4896,24,0.7884,7745,3.9083,-81.6437
rg,1625496566343537125,1,-0.5754,-0.4692,0.8428,106,8.9111,5.5542,-36.6211,255,1.0935,0,19.6324,-30.5686,24,0.7904,7709,3.9083,-83.0831
rg,1625496566343554525,1,-0.582,-0.4705,0.8281,107,11.6577,-9.5215,-32.7148,255,1.0935,0,19.1016,-30.3894,24,0.7924,7719,3.9083,-84.0562
rg,1625496566343609909,1,-0.4468,-0.5723,0.8843,108,19.8364,-34.4849,-21.3623,98,1.0955,0,17.6354,-29.7031,24,0.7944,8940,3.9875,-84.1329
rg,1625496566343629752,1,-0.1338,-0.7034,0.9521,109,43.5181,-43.7012,-5.249,98,1.0985,0,15.5723,-28.0414,25,0.7964,8270,3.9875,-83.5306
rg,1625496566343647523,1,0.0669,-0.728,0.958,110,59.2651,-35.6445,-1.4038,98,1.1005,0,13.5594,-25.8936,25,0.7974,7846,3.9875,-83.0267
rg,1625496566343665145,1,0.2075,-0.6851,0.8982,111,84.4727,0.7324,-11.4136,98,1.1015,0,12.4857,-23.0782,25,0.7954,7873,3.9875,-83.5958
rg,1625496566343682415,1,0.0271,-0.5474,0.8301,112,88.9893,61.1572,-26.062,98,1.0995,0,13.8197,-20.3828,25,0.7964,7815,3.9875,-85.6258
rg,1625496566343699723,1,-0.1609,-0.51,0.8154,113,88.8672,88.7451,-29.9072,98,1.0985,0,17.0574,-17.8878,25,0.7984,8017,3.9875,-88.1007
rg,1625496566343716401,1,-0.5063,-0.4309,0.7637,114,81.604,100.0977,-28.5645,98,1.0965,0,21.0565,-15.8217,25,0.7944,9677,3.9875,-90.5993
rg,1625496566343733116,1,-0.6997,-0.2476,0.6931,115,67.1387,67.1387,-20.3247,98,1.0975,0,24.2951,-13.8707,25,0.7944,7918,3.9875,-92.2239
rg,1625496566343749590,1,-0.6936,-0.1021,0.7217,116,38.8184,18.5547,-8.4839,98,1.0985,0,25.682,-12.3642,25,0.7954,7922,3.9875,-92.686
rg,1625496566343819894,1,-0.6472,-0.0923,0.7046,117,20.0806,-3.9673,-1.4648,98,1.0965,0,26.1595,-11.4105,25,0.7944,7928,3.9875,-92.6356
rg,1625496566343855509,1,-0.4639,-0.2668,0.8896,118,-23.6206,-45.9595,8.8501,98,1.1005,0,24.4515,-12.2135,25,0.7964,7926,3.9875,-91.9248
rg,1625496566343875815,1,-0.3208,-0.3577,0.915,119,-36.377,-55.4199,13.3057,98,1.1015,0,21.932,-14.1119,25,0.7994,7976,3.9875,-90.7419
rg,1625496566343985324,1,-0.1865,-0.5466,1.019,120,-64.9414,-68.1152,17.334,98,1.1015,0,19.0164,-16.7535,25,0.7984,8024,3.9875,-89.4588
rg,1625496566344009277,1,0.1118,-0.6401,0.9946,121,-74.1577,-52.7954,16.9067,98,1.1025,0,16.3164,-19.9338,25,0.7934,8110,3.9875,-88.2737
rg,1625496566344028935,1,0.1672,-0.3872,0.9146,122,-82.5195,-7.5684,8.9111,98,1.0965,0,15.1753,-23.2072,25,0.7814,8083,3.9875,-87.8182
rg,1625496566344050037,1,0.0925,-0.2634,0.9751,123,-85.144,22.583,7.6904,98,1.0925,0,15.3353,-26.2873,25,0.7774,8159,3.9875,-87.8123
rg,1625496566344068493,1,0.407,-0.7773,0.8735,124,4.0283,47.3633,11.3525,98,1.0945,0,15.9574,-26.8327,25,0.7814,8094,3.9875,-88.4249
rg,1625496566344092816,1,0.0437,-0.3552,0.7969,125,-9.7656,87.7075,-28.9307,98,1.0945,0,17.7928,-27.8986,25,0.7844,8117,3.9875,-91.1482
rg,1625496566344111974,1,-0.5566,-0.7869,1.1191,126,-5.0659,130.7983,-42.9077,98,1.0935,0,21.6948,-29.821,25,0.7834,8165,3.9875,-95.5197
rg,1625496566344129263,1,-1.0378,-0.4875,0.9324,127,9.1553,92.6514,-20.3247,98,1.0955,0,25.3516,-30.4998,25,0.7844,8187,3.9875,-98.2989
rg,1625496566344153271,1,-0.5264,-0.4668,0.9065,128,11.4136,-16.0522,-11.2915,98,1.0965,0,24.6447,-29.941,25,0.7884,8800,3.9875,-98.3125
rg,1625496566692824666,1,-0.1912,-0.4326,0.8557,129,-4.5776,17.8833,-35.5835,98,1.0975,0,24.5121,-31.1598,25,0.7924,25535,3.9875,-100.4933
rg,1625496566692863075,1,-0.5396,-0.551,0.9353,130,-6.7749,18.4326,-44.7998,98,1.0985,0,24.2647,-32.2636,25,0.7944,8457,3.9875,-102.5796
rg,1625496566692883715,1,-0.6172,-0.6121,0.9536,131,7.8125,-0.7324,-34.4849,98,1.0995,0,23.6665,-32.471,25,0.7964,8126,3.9875,-103.8397
rg,1625496566692903558,1,-0.4653,-0.6931,1.001,132,36.377,-26.9775,-20.2637,98,1.1015,0,22.2138,-31.1524,25,0.7984,9364,3.9875,-104.0014
rg,1625496566692922254,1,-0.2683,-0.7122,1.0042,133,56.9458,-33.9966,-7.5073,98,1.1015,0,20.5001,-28.8861,25,0.7994,7705,3.9875,-103.6196
rg,1625496566692939969,1,0.0967,-0.7625,0.989,134,89.4775,-29.2358,-9.3994,98,1.1015,0,18.3476,-25.6151,25,0.7984,8859,3.9875,-103.5607
rg,1625496566692957961,1,0.1306,-0.5483,0.8621,135,104.9805,15.625,-24.7192,98,1.1015,0,17.5403,-22.0912,25,0.7994,8229,3.9875,-104.8975
rg,1625496566692976083,1,0.0103,-0.4395,0.8164,136,102.5391,45.5322,-30.1514,98,1.0995,0,18.1122,-18.8311,25,0.7984,7699,3.9875,-106.853
rg,1625496566692992669,1,-0.3149,-0.3433,0.7595,137,87.6465,82.4585,-34.8511,98,1.1005,0,20.9218,-16.3719,25,0.7974,7710,3.9875,-109.3866
rg,1625496566693009773,1,-0.6489,-0.1641,0.7285,138,78.186,84.5947,-32.8369,98,1.1005,0,24.3458,-14.4442,25,0.7984,7740,3.9875,-111.4619
rg,1625496566693026913,1,-0.7742,0.001,0.6865,139,50.9033,58.5938,-19.6533,98,1.0985,0,27.3659,-12.6216,25,0.7964,7756,3.9875,-112.7294
rg,1625496566693044573,1,-0.8545,-0.0022,0.7319,140,-4.8218,-5.3101,-2.3804,98,1.1005,0,27.9992,-12.4747,25,0.7994,8018,3.9875,-112.6118
rg,1625496566693061677,1,-0.7678,-0.1213,0.8586,141,-32.959,-43.2129,6.3477,98,1.1025,0,25.6563,-14.0796,25,0.8014,7815,3.9875,-111.4183
rg,1625496566693100401,1,-0.521,-0.3694,0.9548,142,-66.5283,-91.5527,16.8457,98,1.1015,0,22.365,-16.2823,25,0.8014,7865,3.9875,-109.7715
rg,1625496566693120596,1,0.0005,-0.5979,1.0442,143,-81.604,-122.0093,23.9258,98,1.1065,0,17.1846,-19.2218,25,0.8024,7853,3.9875,-107.4116
rg,1625496566693138496,1,0.2729,-0.5911,1.0447,144,-81.7261,-109.9243,26.062,98,1.1045,0,12.3337,-22.2075,25,0.7984,7956,3.9875,-104.8843
rg,1625496566693156137,1,0.5422,-0.4346,1.0005,145,-83.374,-40.9546,21.0571,98,1.1015,0,9.76,-25.2855,25,0.7874,7942,3.9875,-103.3974
rg,1625496566693173666,1,0.3125,-0.3179,1.3235,146,-71.2891,53.2227,12.8174,98,1.1005,0,11.018,-27.7496,25,0.7874,7994,3.9875,-103.8032
rg,1625496566693190511,1,0.5764,-0.792,0.8848,147,-19.2871,81.9702,15.5029,98,1.0995,0,12.8296,-29.232,25,0.7874,7956,3.9875,-104.9308
rg,1625496566693207430,1,-0.0664,-0.2358,0.7217,148,-9.0942,130.9204,-17.7612,98,1.1015,-0.001,16.7079,-29.9809,25,0.7884,7932,3.9875,-108.1465
rg,1625496566693225626,1,-0.8833,-0.5415,0.8889,149,0,158.0811,-22.583,98,1.1015,0,22.5561,-31.452,25,0.7904,7820,3.9875,-112.426
rg,1625496566693248209,1,-1.0593,-0.4099,0.8586,150,2.2583,121.521,-12.5732,98,1.1005,0,27.3617,-32.5841,25,0.7904,7930,3.9875,-115.6855
rg,1625496566693267090,1,-0.3479,-0.4277,0.8799,151,-0.8545,5.9814,-4.3945,98,1.1015,-0.001,25.9759,-31.9754,25,0.7924,11846,3.9875,-114.9958
rg,1625496566693285730,1,-0.0857,-0.4338,0.8933,152,-1.0376,-34.8511,-7.6294,98,1.1015,0,23.8224,-31.5261,25,0.7934,8558,3.9875,-114.3544
rg,1625496566693303278,1,-0.0212,-0.4644,0.886,153,-4.8218,4.8828,-21.1182,98,1.1025,0,22.6703,-31.8957,25,0.7954,8059,3.9875,-115.1752
rg,1625496566693336079,1,-0.3591,-0.4734,0.8574,154,-10.1929,35.5835,-36.0107,98,1.1035,0,22.9886,-33.006,25,0.7974,8256,3.9875,-117.2733
rg,1625496566693355423,1,-0.5085,-0.5215,0.8718,155,-10.5591,36.1328,-37.7808,98,1.1035,0,23.4877,-34.2216,25,0.7994,8158,3.9875,-119.4813
rg,1625496566693372730,1,-0.6672,-0.5613,0.905,156,-0.7935,20.5078,-34.1797,98,1.1035,0,23.7186,-34.8523,25,0.8004,8285,3.9875,-121.1808
rg,1625496566693390315,1,-0.6155,-0.5686,0.9014,157,17.7612,-12.6953,-20.874,98,1.1065,0,23.0727,-34.2097,25,0.8004,8103,3.9875,-121.5696
rg,1625496566693407049,1,-0.271,-0.6128,0.9282,158,39.4897,-37.1094,-5.249,98,1.1075,0,21.3479,-32.3349,25,0.8054,8190,3.9875,-120.8672
rg,1625496566693424486,1,-0.0654,-0.6475,0.9329,159,48.7671,-36.377,-2.6245,98,1.1075,0,19.3501,-30.2421,25,0.8054,8227,3.9875,-120.2037
rg,1625496566693442293,1,0.0762,-0.6494,0.9275,160,69.519,-3.479,-13.1836,98,1.1095,0,18.0795,-27.8011,25,0.8054,8250,3.9875,-120.7041
rg,1625496567048303604,1,-0.3813,-0.4409,0.8264,161,68.1763,63.2935,-29.9683,98,1.1055,0,19.9939,-26.0764,25,0.8034,25342,3.9875,-123.1452
rg,1625496567048363081,1,-0.5337,-0.3503,0.8093,162,54.0771,51.8188,-29.7852,98,1.1055,0,21.7843,-24.5642,25,0.8034,8496,3.9875,-125.2066
rg,1625496567048384943,1,-0.6785,-0.0371,0.7019,163,33.4473,28.0762,-15.7471,98,1.1055,0,23.4433,-23,25,0.8044,7608,3.9875,-126.0636
rg,1625496567048404176,1,-0.7029,-0.0452,0.679,164,8.0566,7.5684,-7.5073,98,1.1065,0,23.3203,-23.1839,25,0.8054,7665,3.9875,-125.4972
rg,1625496567048423076,1,-0.6328,-0.1968,0.8562,165,-42.7246,-41.1377,5.7983,98,1.1085,-0.001,22.4092,-24.1586,25,0.8084,7628,3.9875,-124.4064
rg,1625496567048441013,1,-0.4492,-0.5151,0.9749,166,-71.106,-75.6226,12.4512,98,1.1105,0,19.8863,-26.4565,25,0.8074,7772,3.9875,-122.5862
rg,1625496567048459728,1,-0.2485,-0.6182,1.0015,167,-76.5381,-89.1724,14.7705,98,1.1105,0,16.3391,-29.1872,25,0.8034,7809,3.9875,-120.2364
rg,1625496567048477702,1,0.1221,-0.574,0.9731,168,-82.4585,-79.7729,15.3198,98,1.1005,0,13.0462,-31.9527,25,0.7914,7747,3.9875,-118.0033
rg,1625496567048496380,1,0.2241,-0.2512,1.417,169,-74.4629,-26.6724,18.0054,98,1.1015,0,11.7367,-33.7957,25,0.7884,7765,3.9875,-116.5816
rg,1625496567048515113,1,0.4858,-0.2695,0.8674,170,35.4004,18.3716,6.6528,98,1.1015,0,11.0544,-31.8366,25,0.7904,8695,3.9875,-116.6684
rg,1625496567048532495,1,0.5481,-0.0388,0.5801,171,23.3154,48.1567,-8.667,98,1.0995,0,10.71,-30.3668,25,0.7894,7812,3.9875,-117.8601
rg,1625496567048550469,1,-0.4829,-0.499,0.8284,172,18.3716,166.9312,-30.1514,98,1.1015,0,16.4335,-30.7235,25,0.7894,7764,3.9875,-122.426
rg,1625496567048567870,1,-1.0999,-0.4194,0.8762,173,7.8735,125.4883,-12.3901,98,1.1005,0,21.6592,-31.3013,25,0.7914,11187,3.9875,-125.5784
rg,1625496567048585159,1,-0.6289,-0.3716,0.8506,174,6.897,0,-2.8687,98,1.1005,0,22.0904,-30.7852,25,0.7924,7905,3.9875,-125.5769
rg,1625496567048613667,1,-0.2715,-0.3418,0.8525,175,5.127,-26.6724,-2.3804,98,1.1015,0,20.9084,-30.0291,25,0.7944,7829,3.9875,-124.9434
rg,1625496567048636361,1,-0.0105,-0.3408,0.8528,176,-6.4087,-7.019,-15.564,98,1.1025,0,19.5733,-30.0766,25,0.7964,8085,3.9875,-125.24
rg,1625496567048654206,1,-0.335,-0.4004,0.8555,177,-16.2354,34.6069,-32.4097,98,1.1035,0,20.0953,-31.1752,25,0.7974,7900,3.9875,-127.1075
rg,1625496567048672347,1,-0.5342,-0.4431,0.8887,178,-18.3105,37.8418,-36.7432,98,1.1045,0,21.0949,-32.5925,25,0.7994,8592,3.9875,-129.2729
rg,1625496567048689396,1,-0.7302,-0.5737,0.9573,179,-9.9487,9.7656,-29.8462,98,1.1035,0,21.2417,-33.3935,25,0.8014,8577,3.9875,-130.553
rg,1625496567048707259,1,-0.4956,-0.6045,0.9636,180,11.1694,-35.2783,-14.0381,98,1.1055,0,19.845,-32.7762,25,0.8044,8024,3.9875,-130.2073
rg,1625496567048724937,1,-0.0613,-0.7024,0.9839,181,25.3906,-47.3633,-8.728,98,1.1085,0,17.4084,-30.8146,25,0.8064,8008,3.9875,-129.2087
rg,1625496567048743226,1,0.1482,-0.7039,0.9756,182,62.1338,-38.5132,-2.0752,98,1.1075,0,15.0972,-28.339,25,0.8054,8006,3.9875,-128.5715
rg,1625496567048760775,1,0.1936,-0.5996,0.8801,183,83.1299,21.2402,-15.1367,98,1.1085,0,14.6054,-25.5083,25,0.8064,8066,3.9875,-129.6161
rg,1625496567048781267,1,-0.0703,-0.4626,0.8203,184,85.3271,51.7578,-21.1182,98,1.1085,0,16.5928,-22.9669,25,0.8064,8127,3.9875,-132.0225
rg,1625496567048820251,1,-0.2849,-0.3628,0.7534,185,79.1626,98.999,-29.1138,98,1.1055,0,19.9016,-20.7555,25,0.8044,8128,3.9875,-134.7437
rg,1625496567048841261,1,-0.7615,0.0234,0.6011,186,51.5747,103.2715,-15.1978,98,1.1065,0,24.7837,-18.9054,25,0.8034,8126,3.9875,-136.6524
rg,1625496567048859310,1,-1.0156,-0.0383,0.6562,187,-19.7754,40.3442,-2.8076,98,1.1085,0,27.4876,-19.6382,25,0.8084,8222,3.9875,-137.2161
rg,1625496567048876710,1,-0.9734,-0.3235,0.886,188,-48.4009,-7.3853,1.0376,98,1.1095,0,27.9354,-21.5058,25,0.8084,8418,3.9875,-137.0705
rg,1625496567048893870,1,-0.6851,-0.4092,0.8586,189,-64.8804,-79.7119,14.8926,98,1.1125,0,25.5325,-23.3401,25,0.8084,8217,3.9875,-135.157
rg,1625496567048911271,1,-0.0244,-0.6296,0.9951,190,-80.5054,-119.9341,25.3906,98,1.1115,-0.001,20.6821,-25.6751,25,0.8044,8916,3.9875,-132.13
rg,1625496567048929319,1,0.2949,-0.5002,0.9514,191,-73.7915,-66.2842,27.2217,98,1.1095,0,17.4809,-27.9351,25,0.7994,8297,3.9875,-129.8355
rg,1625496567048947275,1,0.364,-0.4768,1.3838,192,-64.8804,-33.9966,25.9399,98,1.1085,0,15.6189,-29.689,25,0.7994,8301,3.9875,-128.0752
rg,1625496567388764483,1,-0.5298,-0.479,0.7893,193,20.5688,204.6509,-23.7427,98,1.1095,0,22.7332,-30.6397,25,0.8004,25578,3.9875,-133.3181
rg,1625496567388800950,1,-1.1575,-0.3687,0.7944,194,17.7612,76.1108,-9.6436,98,1.1095,-0.001,26.2762,-30.6291,25,0.8014,13995,3.9875,-135.3297
rg,1625496567388821349,1,-0.76,-0.3782,0.8481,195,12.6343,8.4229,-4.7607,98,1.1105,0,26.9782,-30.0578,25,0.8034,7610,3.9875,-135.5964
rg,1625496567388841508,1,-0.156,-0.2881,0.803,196,7.9346,-27.8931,-11.2305,98,1.1105,0,25.1524,-29.2113,25,0.8054,7638,3.9875,-135.2128
rg,1625496567388860204,1,-0.2742,-0.2991,0.7986,197,-10.376,17.395,-31.4331,98,1.1115,0,24.8506,-29.9265,25,0.8074,7659,3.9875,-136.6398
rg,1625496567388878827,1,-0.5803,-0.4749,0.9126,198,-21.1792,26.2451,-42.7856,98,1.1125,0,25.0491,-31.6058,25,0.8094,9438,3.9875,-138.8151
rg,1625496567388896431,1,-0.6782,-0.5051,0.9197,199,-17.334,17.7612,-40.7715,98,1.1135,0,25.0794,-33.0091,25,0.8114,7706,3.9875,-140.7123
rg,1625496567388914127,1,-0.6597,-0.5898,0.9683,200,-4.5166,-9.1553,-28.5645,98,1.1145,0,24.3453,-33.4656,25,0.8114,7761,3.9875,-141.5117
rg,1625496567388931732,1,-0.4097,-0.7053,1.0232,201,24.4751,-30.7007,-12.5732,98,1.1155,0,22.8005,-32.4198,25,0.8124,8703,3.9875,-141.2586
rg,1625496567388998946,1,-0.2256,-0.6794,1.002,202,43.5791,-34.4238,-5.6152,98,1.1135,0,21.0299,-30.5366,25,0.8114,7793,3.9875,-140.7215
rg,1625496567389031747,1,0.1055,-0.6409,0.9609,203,68.9087,-15.1978,-10.9253,98,1.1155,0,19.284,-27.954,25,0.8124,7822,3.9875,-140.8811
rg,1625496567389049740,1,0.0044,-0.4771,0.8411,204,76.0498,11.2915,-19.7754,98,1.1145,0,19.6057,-25.5527,25,0.8134,7855,3.9875,-142.7915
rg,1625496567389067807,1,-0.1438,-0.416,0.8066,205,73.0591,71.4111,-31.189,98,1.1105,0,21.2513,-23.5736,25,0.8104,7863,3.9875,-145.303
rg,1625496567389084541,1,-0.4897,-0.3718,0.7664,206,61.5234,95.0928,-35.3394,98,1.1125,-0.001,24.5201,-22.3757,25,0.8114,7856,3.9875,-148.3559
rg,1625496567389101424,1,-0.7917,-0.1824,0.7048,207,56.0303,90.332,-34.3018,98,1.1105,0,27.7287,-21.3503,25,0.8094,7763,3.9875,-150.673
rg,1625496567389119953,1,-0.876,-0.0598,0.6787,208,32.7759,50.7812,-21.1182,98,1.1115,0,29.3021,-20.6998,25,0.8114,9594,3.9875,-151.3095
rg,1625496567389137317,1,-0.8494,-0.0967,0.7266,209,-13.7939,-14.1602,-5.5542,98,1.1105,0,29.4805,-20.8616,25,0.8124,8142,3.9875,-151.123
rg,1625496567389154588,1,-0.6604,-0.2927,0.8474,210,-47.8516,-62.561,4.1504,98,1.1135,0,27.4898,-22.1168,25,0.8154,7921,3.9875,-149.8672
rg,1625496567389171063,1,-0.5457,-0.3713,0.895,211,-58.96,-78.064,8.8501,98,1.1155,0,24.1691,-23.9523,25,0.8154,8004,3.9875,-147.7876
rg,1625496567389187852,1,-0.168,-0.4526,0.9377,212,-73.6084,-97.229,16.9678,98,1.1135,0,20.3562,-26.0271,25,0.8104,7961,3.9875,-145.3611
rg,1625496567389206900,1,0.1611,-0.4514,0.9429,213,-92.4683,-76.6602,10.0708,98,1.1115,0,16.7314,-29.0825,25,0.8044,8019,3.9875,-143.4466
rg,1625496567389224523,1,0.2026,-0.4321,0.9558,214,-99.6094,-43.2129,6.5918,98,1.1095,0,15.9053,-32.1729,25,0.7994,8014,3.9875,-142.8926
rg,1625496567389243108,1,0.4971,-1.0627,1.1069,215,-37.3535,31.6772,21.1792,98,1.1085,0,16.1687,-34.0984,25,0.8004,8152,3.9875,-142.9817
rg,1625496567389263137,1,0.283,-0.2292,0.6868,216,7.019,79.7119,-6.2256,98,1.1095,0,17.2999,-33.8161,25,0.8024,8163,3.9875,-144.8996
rg,1625496567389295050,1,-0.5825,-0.5771,0.8467,217,-0.4883,117.4316,-29.7241,98,1.1115,0,22.4285,-34.5486,25,0.8034,8094,3.9875,-149.7629
rg,1625496567389312525,1,-0.9026,-0.3655,0.7849,218,26.4893,154.1748,-20.0195,98,1.1085,0,27.9165,-35.1646,25,0.8024,8083,3.9875,-154.28
rg,1625496567389329074,1,-0.999,-0.4868,0.8772,219,20.9961,54.1382,-14.6484,98,1.1125,0,29.9996,-35.0762,25,0.8034,8162,3.9875,-156.1577
rg,1625496567389345901,1,-0.3582,-0.3752,0.8337,220,22.2778,-27.771,-14.8315,98,1.1125,0,28.4242,-33.648,25,0.8054,8652,3.9875,-155.7675
rg,1625496567389376777,1,-0.1594,-0.3882,0.8367,221,19.3481,-29.8462,-18.3716,98,1.1125,0,26.3093,-32.4691,25,0.8084,8286,3.9875,-155.5451
rg,1625496567389394381,1,-0.1223,-0.3643,0.8164,222,12.2681,2.8687,-29.4189,98,1.1095,0,25.0617,-32.1148,25,0.8084,8219,3.9875,-156.5524
rg,1625496567389410801,1,-0.3562,-0.3228,0.7854,223,3.3569,31.311,-44.5557,98,1.1145,0,25.0774,-32.5979,25,0.8124,8249,3.9875,-158.7843
rg,1625496567389428257,1,-0.5178,-0.3191,0.7947,224,-1.5259,37.2314,-48.7671,98,1.1155,0,25.6368,-33.5299,25,0.8134,8275,3.9875,-161.2293
rg,1625496567750441129,1,-0.6477,-0.542,0.9399,225,-10.498,-29.6631,-18.6768,98,1.1165,-0.001,23.8659,-33.1542,25,0.8164,25315,3.9875,-160.4292
rg,1625496567750548475,1,-0.0532,-0.667,1.0015,226,26.5503,-38.208,5.3711,98,1.1175,0,21.868,-31.6909,25,0.8174,9934,3.9875,-159.3584
rg,1625496567750581185,1,0.1475,-0.6299,0.9531,227,47.2412,-2.2583,-5.3101,98,1.1175,0,20.5711,-29.9338,25,0.8174,7626,3.9875,-159.5494
rg,1625496567750611006,1,0.114,-0.5654,0.9009,228,53.3447,28.0762,-10.8643,80,1.1165,0,20.314,-28.2422,25,0.8174,7590,4.0304,-160.5867
rg,1625496567750639199,1,-0.178,-0.4822,0.853,229,50.8423,79.895,-21.1182,80,1.1155,0,22.3387,-27.1329,25,0.8174,7604,4.0304,-163.0086
rg,1625496567750667484,1,-0.5298,-0.3123,0.769,230,43.6401,90.5151,-22.583,80,1.1145,0,25.5486,-26.2824,25,0.8164,8885,4.0304,-165.6001
rg,1625496567750694880,1,-0.71,-0.1516,0.6975,231,32.3486,81.543,-20.5078,80,1.1135,0,28.8682,-25.66,25,0.8154,8206,4.0304,-167.8416
rg,1625496567750722240,1,-0.9473,-0.137,0.7412,232,-13.4277,29.4189,-12.9395,80,1.1155,0,30.5832,-26.3256,24,0.8174,7645,4.0304,-168.7678
rg,1625496567750749044,1,-0.8679,-0.4434,0.9187,233,-46.6919,-40.2832,-5.7373,80,1.1185,0,29.4304,-27.856,24,0.8204,7930,4.0304,-168.144
rg,1625496567750809872,1,-0.6785,-0.5254,0.9648,234,-53.6499,-73.4253,0.5493,80,1.1175,0,26.9575,-29.2507,24,0.8184,7757,4.0304,-166.5336
rg,1625496567750848412,1,-0.158,-0.6519,0.9622,235,-61.5845,-108.2153,6.5308,80,1.1195,0,22.6124,-30.7978,24,0.8164,7686,4.0304,-163.9747
rg,1625496567750878400,1,-0.0278,-0.6433,0.9919,236,-61.8896,-91.6138,5.8594,80,1.1145,0,19.3866,-32.4462,25,0.8094,7728,4.0304,-162.1546
rg,1625496567750905778,1,0.0215,-0.4155,1.4092,237,-45.4102,-47.2412,7.019,80,1.1125,0,17.2014,-33.1714,25,0.8074,7820,4.0304,-160.5973
rg,1625496567750933712,1,0.4663,-0.282,0.8684,238,52.3071,-20.6299,3.8452,80,1.1155,0,15.0171,-30.3764,25,0.8094,7837,4.0304,-159.8843
rg,1625496567750962126,1,0.563,-0.1125,0.6152,239,37.6587,16.0522,-9.8877,80,1.1135,0,13.5017,-28.4515,25,0.8084,7797,4.0304,-160.4449
rg,1625496567750989800,1,-0.3584,-0.3372,0.7434,240,30.0903,144.7754,-31.8604,80,1.1165,0,18.3683,-28.1963,25,0.8094,7865,4.0304,-164.4332
rg,1625496567751018530,1,-1.0447,-0.334,0.7922,241,11.9629,132.5684,-22.1558,80,1.1165,0,23.7835,-28.8484,25,0.8114,7906,4.0304,-167.9439
rg,1625496567751045038,1,-1.0667,-0.2795,0.7771,242,8.8501,75.1953,-20.0806,80,1.1145,0,27.0908,-29.2778,25,0.8104,7980,4.0304,-170.246
rg,1625496567751071731,1,-0.5095,-0.2415,0.783,243,-8.606,-17.5781,-15.3198,80,1.1165,-0.001,26.3834,-29.2554,25,0.8144,10619,4.0304,-170.2453
rg,1625496567751101534,1,-0.2949,-0.29,0.843,244,-27.4048,-16.1743,-23.3765,80,1.1165,0,25.0532,-30.1489,25,0.8154,7776,4.0304,-170.5919
rg,1625496567751204511,1,-0.4917,-0.5769,1.0232,245,-31.9214,0.6104,-32.1655,80,1.1175,0,24.3131,-31.8959,25,0.8184,7980,4.0304,-171.8008
rg,1625496567751243866,1,-0.5649,-0.6917,1.0637,246,-22.583,-6.4087,-31.7993,80,1.1185,0,23.0366,-32.547,25,0.8204,8713,4.0304,-172.4345
rg,1625496567751270559,1,-0.4619,-0.769,1.0701,247,9.3994,-33.2031,-21.9116,80,1.1195,0,21.3003,-32.3021,25,0.8214,8084,4.0304,-172.5084
rg,1625496567751298085,1,-0.1472,-0.6921,0.9922,248,47.6685,-39.4897,-12.3291,80,1.1195,-0.001,19.1361,-30.3577,25,0.8204,8810,4.0304,-172.1268
rg,1625496567751327370,1,0.1277,-0.5964,0.9031,249,72.0825,-7.9346,-12.207,80,1.1195,0,17.6315,-27.7028,25,0.8214,8542,4.0304,-172.4792
rg,1625496567751355544,1,0.0823,-0.51,0.8569,250,74.3408,19.043,-22.0947,80,1.1175,0,17.0533,-25.2175,25,0.8194,8129,4.0304,-173.7216
rg,1625496567751382367,1,-0.3318,-0.207,0.6716,251,61.9507,72.8149,-28.3813,80,1.1195,0,19.5562,-23.1732,25,0.8194,8131,4.0304,-175.9739
rg,1625496567751571496,1,-0.8169,-0.0251,0.6616,252,17.2119,69.5801,-20.3247,80,1.1195,0,23.0002,-22.6439,25,0.8224,8186,4.0304,-177.7486
rg,1625496567751602650,1,-1.0098,-0.1846,0.7466,253,-14.1602,37.5366,-19.165,80,1.1195,0,24.917,-23.8369,25,0.8234,8221,4.0304,-179.1978
rg,1625496567751633601,1,-0.928,-0.5383,0.9507,254,-41.2598,-58.2275,-11.7188,80,1.1205,0,23.2143,-25.4231,25,0.8214,8293,4.0304,-178.6828
rg,1625496567751662848,1,-0.4141,-0.5906,0.9485,255,-49.8657,-122.3755,4.4556,80,1.1235,0,18.8042,-26.7716,25,0.8214,8547,4.0304,-176.2969
rg,1625496567751695909,1,0.0718,-0.5803,0.8813,256,-50.4761,-133.1787,8.1787,80,1.1195,0,13.8373,-28.1725,25,0.8154,8244,4.0304,-173.6722
rg,1625496568088898271,1,0.6802,0.0742,0.5276,257,49.2554,-20.2026,0.061,80,1.1185,-0.001,11.1132,-25.2914,25,0.8144,25599,4.0304,-173.1471
rg,1625496568088927668,1,-0.6467,-0.2212,0.738,258,17.334,134.7656,-16.3574,80,1.1185,0,16.7843,-25.0428,25,0.8144,10617,4.0304,-176.0655
rg,1625496568088948475,1,-0.8796,-0.3083,0.7837,259,5.5542,49.3774,-2.8687,80,1.1185,0,19.6286,-25.022,25,0.8144,7711,4.0304,-177.0241
rg,1625496568088967912,1,-0.5281,-0.2744,0.7737,260,2.1362,-8.3618,2.6855,80,1.1185,0,19.8837,-24.6501,25,0.8154,7614,4.0304,-176.7003
rg,1625496568088986276,1,0.0286,-0.3071,0.8245,261,-7.5073,-26.3062,7.6294,80,1.1185,0,18.2154,-24.5197,25,0.8164,7613,4.0304,-175.8813
rg,1625496568089022595,1,0.0076,-0.2986,0.7983,262,-9.9487,-4.8828,5.8594,80,1.1185,0,18.285,-25.0143,25,0.8174,7709,4.0304,-176.159
rg,1625496568089041644,1,-0.1545,-0.3132,0.791,263,-18.0664,36.8042,-4.7607,80,1.1185,0,19.5634,-25.9583,25,0.8214,9537,4.0304,-176.9963
rg,1625496568089059822,1,-0.3801,-0.3721,0.7964,264,-24.1089,36.3159,-12.6953,80,1.1195,0,20.7749,-27.2836,25,0.8194,9700,4.0304,-178.1628
rg,1625496568089077057,1,-0.3843,-0.3706,0.7837,265,-27.0996,14.2212,-12.3291,80,1.1195,0,21.1637,-28.5497,25,0.8214,12243,4.0304,-178.8867
rg,1625496568089093680,1,-0.3962,-0.3904,0.8069,266,-26.6724,11.4746,-13.7939,80,1.1205,-0.001,21.3959,-29.7747,25,0.8214,7747,4.0304,-179.6039
rg,1625496568089120614,1,-0.4585,-0.4526,0.8459,267,-20.813,0,-12.8784,80,1.1215,-0.001,21.2958,-30.7085,25,0.8234,7824,4.0304,-180.0566
rg,1625496568089138515,1,-0.4067,-0.4895,0.8411,268,-7.9956,-27.0386,-10.1318,80,1.1215,0,20.2137,-30.9209,25,0.8254,7766,4.0304,-179.8236
rg,1625496568089155490,1,-0.3389,-0.5049,0.8545,269,0.1221,-37.7197,-10.1929,80,1.1215,0,18.6568,-30.7446,25,0.8264,7834,4.0304,-179.3642
rg,1625496568089172651,1,-0.229,-0.4661,0.8242,270,23.2544,-47.2412,-8.5449,80,1.1225,-0.001,16.6547,-29.5508,25,0.8274,7868,4.0304,-178.6585
rg,1625496568089193865,1,-0.0481,-0.4512,0.7864,271,33.9966,-48.8281,-5.9814,80,1.1235,0,14.2929,-27.5682,25,0.8284,7861,4.0304,-177.9152
rg,1625496568089211655,1,0.0032,-0.4509,0.7847,272,51.8188,-45.5933,-10.8643,80,1.1215,0,11.9044,-25.4925,25,0.8264,7930,4.0304,-177.5084
rg,1625496568089228722,1,-0.0129,-0.3779,0.7244,273,62.6831,-30.6396,-18.6157,80,1.1245,0,10.0519,-23.1053,25,0.8264,7956,4.0304,-177.7097
rg,1625496568089245901,1,-0.0684,-0.3391,0.6951,274,65.5518,-22.9492,-20.752,80,1.1235,0,8.9471,-20.6056,25,0.8254,7941,4.0304,-178.2775
rg,1625496568089262654,1,-0.1929,-0.2827,0.6653,275,66.3452,-21.1182,-22.7661,80,1.1195,0,8.0864,-18.1347,25,0.8224,7937,4.0304,-178.8698
rg,1625496568089279130,1,-0.3081,-0.2297,0.6423,276,67.3828,-36.499,-22.0947,80,1.1235,0,7.0696,-15.5545,25,0.8224,7939,4.0304,-179.2869
rg,1625496568089295272,1,-0.3376,-0.2009,0.6184,277,68.7866,-48.7061,-20.5688,80,1.1225,0,5.8064,-12.8956,25,0.8224,8002,4.0304,-179.5919
rg,1625496568089311321,1,-0.302,-0.1941,0.6101,278,69.7632,-82.5806,-14.5264,80,1.1215,0,3.221,-10.2732,25,0.8204,7974,4.0304,-179.4943
rg,1625496568089327445,1,-0.1584,-0.2385,0.647,279,71.9604,-107.666,-7.1411,80,1.1225,0,-0.6756,-7.7756,25,0.8214,8029,4.0304,-179.1117
rg,1625496568089343643,1,-0.0896,-0.2522,0.6685,280,76.355,-114.0747,-3.6621,80,1.1215,0,-4.8993,-5.2509,25,0.8214,8009,4.0304,-178.7249
rg,1625496568089359840,1,0.0288,-0.2896,0.7158,281,87.9517,-117.7368,5.249,80,1.1225,0,-9.463,-2.4685,25,0.8194,8059,4.0304,-178.1346
rg,1625496568089377001,1,0.1062,-0.3118,0.7368,282,103.9429,-107.7881,11.9019,80,1.1215,0,-13.6974,0.7627,25,0.8214,8084,4.0304,-177.4491
rg,1625496568089402954,1,0.1331,-0.2922,0.7354,283,111.6333,-101.1963,15.3809,80,1.1225,0.001,-17.4008,4.6556,25,0.8214,8120,4.0304,-176.6699
rg,1625496568089419985,1,0.167,-0.231,0.7341,284,131.3477,-84.6558,20.5078,80,1.1235,0,-20.7392,8.9758,25,0.8224,9712,4.0304,-175.9988
rg,1625496568089436978,1,0.1785,-0.1216,0.677,285,139.5264,-68.9697,23.9868,80,1.1225,0,-23.4222,13.5878,25,0.8234,8161,4.0304,-175.2808
rg,1625496568089453361,1,0.1467,-0.0303,0.6501,286,149.9023,-47.9126,27.6489,80,1.1245,0,-25.1794,18.6283,25,0.8254,8197,4.0304,-174.4087
rg,1625496568089469448,1,0.1255,-0.0042,0.6438,287,155.1514,-38.6353,30.4565,80,1.1245,0,-26.1,23.8383,25,0.8274,8203,4.0304,-173.1922
rg,1625496568089485497,1,0.0408,0.0762,0.6091,288,159.4849,-22.8882,34.1797,80,1.1245,0,-26.7139,29.0348,25,0.8264,8288,4.0304,-171.9178
rg,1625496568444047540,1,-0.0657,0.1497,0.6541,289,139.5874,-36.499,41.1987,80,1.1266,0,-27.6449,33.5265,25,0.8294,25391,4.0304,-170.8177
rg,1625496568444078584,1,0.022,0.1321,0.771,290,133.0566,-49.9878,47.4243,80,1.1266,0,-29.4681,37.5545,25,0.8304,14458,4.0304,-169.864
rg,1625496568444099021,1,0.054,0.1011,0.8284,291,133.0566,-49.5605,48.2178,80,1.1276,0,-31.4961,41.1723,25,0.8304,7634,4.0304,-168.7002
rg,1625496568444118125,1,0.0781,0.0391,0.9377,292,135.498,-45.5322,51.5137,80,1.1276,0,-33.4793,44.6973,25,0.8304,7649,4.0304,-167.4738
rg,1625496568444135896,1,0.0618,0.0498,0.9648,293,154.0527,-42.9688,51.9409,80,1.1276,0,-35.3742,48.8636,25,0.8314,7725,4.0304,-166.2208
rg,1625496568444153223,1,0.0444,0.082,0.9497,294,162.9028,-44.7998,50.0488,80,1.1276,0,-37.2117,54.1258,25,0.8314,7922,4.0304,-165.5726
rg,1625496568444169809,1,0.0374,0.1877,0.9126,295,176.5137,-59.3262,45.7153,80,1.1266,0,-39.1242,59.9463,25,0.8304,7922,4.0304,-165.5981
rg,1625496568444185988,1,0.0862,0.2751,0.877,296,177.1851,-72.3267,42.4805,80,1.1286,0,-41.0881,66.4893,25,0.8304,7755,4.0304,-166.6461
rg,1625496568444201945,1,0.1174,0.3733,0.8342,297,177.1851,-78.7964,41.687,80,1.1306,0,-42.7572,73.7701,25,0.8334,7964,4.0304,-168.7045
rg,1625496568444217902,1,0.1292,0.4294,0.8169,298,177.002,-82.7026,33.6304,80,1.1276,0,-44.0034,81.3242,25,0.8314,7786,4.0304,-171.1604
rg,1625496568444233804,1,0.1646,0.5071,0.7981,299,172.4243,-93.8721,30.0903,80,1.1286,0,-44.825,89.3666,25,0.8314,7818,4.0304,-174.5495
rg,1625496568444259498,1,0.1924,0.522,0.811,300,163.6353,-99.2432,28.2593,80,1.1306,0,-45.2011,97.1086,25,0.8324,7842,4.0304,-178.5387
rg,1625496568444276621,1,0.2405,0.5298,0.8494,301,152.2217,-105.1636,23.6206,80,1.1276,0,-45.1274,104.6702,25,0.8304,8360,4.0304,-182.5987
rg,1625496568444293781,1,0.2832,0.5659,0.8303,302,145.3247,-112.4268,18.3105,80,1.1286,0,-44.4045,112.044,25,0.8304,7864,4.0304,-186.8583
rg,1625496568444310516,1,0.3674,0.6003,0.8096,303,136.5967,-123.6572,15.1367,80,1.1296,0,-43.0785,119.1863,25,0.8324,7935,4.0304,168.6093
rg,1625496568444327084,1,0.4172,0.6184,0.8037,304,132.9346,-125.1221,13.3667,80,1.1306,0,-41.3149,125.8689,25,0.8324,7901,4.0304,164.3976
rg,1625496568444343207,1,0.5107,0.6394,0.7998,305,133.0566,-121.0327,9.0942,80,1.1286,0,-39.3313,131.9581,25,0.8314,7986,4.0304,160.8894
rg,1625496568444359535,1,0.5535,0.6663,0.7847,306,133.1177,-106.9336,7.019,80,1.1306,0,-37.4624,137.3354,25,0.8324,8073,4.0304,158.342
rg,1625496568444375695,1,0.5681,0.6851,0.7668,307,133.0566,-99.1821,5.5542,80,1.1316,-0.001,-35.8721,142.0953,25,0.8324,7994,4.0304,156.6786
rg,1625496568444392041,1,0.5864,0.717,0.7571,308,133.0566,-84.1675,6.5308,80,1.1286,0,-34.4228,146.5851,25,0.8314,7836,4.0304,155.388
rg,1625496568444408442,1,0.5977,0.7368,0.7334,309,133.0566,-71.4722,5.7983,80,1.1306,0,-33.3081,150.7406,25,0.8334,8035,4.0304,154.6387
rg,1625496568444424918,1,0.5952,0.7546,0.7156,310,133.0566,-63.2324,5.188,80,1.1316,-0.001,-32.583,154.6324,25,0.8334,8063,4.0304,154.3383
rg,1625496568444443226,1,0.6138,0.7781,0.7502,311,133.0566,-53.1616,7.6294,80,1.1286,0,-32.0821,158.4778,25,0.8314,7897,4.0304,154.1604
rg,1625496568444459794,1,0.6711,0.761,0.8345,312,133.1177,-34.2407,12.146,80,1.1306,0,-32.4594,162.3671,25,0.8324,8109,4.0304,154.1141
rg,1625496568444475899,1,0.6812,0.7805,0.9434,313,133.1177,-1.77,16.9067,80,1.1306,-0.001,-34.1152,166.1664,25,0.8334,8215,4.0304,154.3332
rg,1625496568444492134,1,0.8269,0.9585,1.1418,314,135.1318,18.3716,34.668,80,1.1306,0,-36.7135,170.5111,25,0.8334,8023,4.0304,153.8861
rg,1625496568444508183,1,2.7092,1.647,1.7512,315,124.3286,-29.6631,98.938,80,1.1306,0,-37.9115,177.1845,25,0.8354,8257,4.0304,149.5435
rg,1625496568444523955,1,4.5349,1.5088,1.7312,316,81.543,99.0601,169.4336,80,1.1316,-0.001,-43.7727,-174.3546,25,0.8354,8307,4.0304,140.8371
rg,1625496568444540523,1,4.9724,1.5947,1.8728,317,-4.2725,855.4077,216.98,80,1.1286,0,-74.4603,-136.5958,25,0.8334,9045,4.0304,98.25
rg,1625496568444556665,1,0.2307,0.7444,0.0981,318,-27.4658,1381.897,3.3569,80,1.1125,-0.001,-48.9779,-13.8606,25,0.8214,8780,4.0304,-30.6833
rg,1625496568444572918,1,-4.9714,1.5486,-1.0369,319,-107.5439,1492.0654,-51.8188,80,1.1025,0,5.3142,-11.5714,25,0.8064,8116,4.0304,-45.5223
rg,1625496568444589209,1,-6.7522,1.198,-1.1423,320,-220.2759,1057.1899,-128.54,80,1.0905,0,28.1604,-27.7052,25,0.8024,8386,4.0304,-60.2353
rg,1625496568793797113,1,-1.9722,0.2576,0.6396,321,-26.001,-349.9146,44.0063,80,1.0965,0,18.0541,-24.7388,25,0.8164,26850,4.0304,-51.4839
rg,1625496568793837265,1,-1.0376,0.0271,0.6204,322,-33.6914,-308.2886,14.3433,80,1.0975,0,8.6539,-24.1886,25,0.8194,13715,4.0304,-45.5267
rg,1625496568793858035,1,-0.8835,0.0913,0.563,323,-19.7144,-302.4902,17.2119,80,1.0985,0,-0.3267,-23.8881,25,0.8224,7711,4.0304,-39.8524
rg,1625496568793877065,1,-0.6816,0.1179,0.5237,324,-11.7188,-326.9653,13.6719,80,1.0995,0,-10.1977,-24.0526,25,0.8234,7650,4.0304,-34.0315
rg,1625496568793895724,1,-0.1804,0.1819,0.5515,325,4.5166,-363.4644,-6.5308,80,1.1015,0,-22.5382,-24.0319,25,0.8254,7860,4.0304,-28.3959
rg,1625496568793914180,1,0.0793,0.2249,0.583,326,14.4653,-359.0698,-16.6626,80,1.1035,0,-35.3289,-23.6231,25,0.8264,7745,4.0304,-24.041
rg,1625496568793932192,1,0.3486,0.3015,0.6394,327,37.8418,-294.4946,-33.2642,80,1.1055,-0.001,-46.597,-23.0793,25,0.8274,9251,4.0304,-20.6489
rg,1625496568793949982,1,0.3975,0.3411,0.6853,328,56.9458,-191.2231,-39.2456,80,1.1055,0,-53.9269,-20.0336,25,0.8274,7598,4.0304,-20.2649
rg,1625496568793967327,1,0.2786,0.3813,0.6782,329,76.2329,-111.5723,-41.3818,80,1.1065,-0.001,-57.8693,-13.7224,25,0.8294,7807,4.0304,-23.0735
rg,1625496568793984784,1,0.2183,0.4177,0.6643,330,85.083,-81.604,-42.2363,80,1.1055,0,-60.2681,-5.511,25,0.8284,7656,4.0304,-27.7548
rg,1625496568794003721,1,0.1584,0.4663,0.6301,331,96.0083,-45.6543,-40.1001,80,1.1095,0,-60.7785,3.9717,25,0.8314,7801,4.0304,-33.4554
rg,1625496568794022529,1,0.1555,0.4924,0.6216,332,99.3652,-31.5552,-37.1094,80,1.1095,0,-59.819,13.3864,25,0.8324,7823,4.0304,-38.9802
rg,1625496568794082729,1,0.1294,0.5227,0.6235,333,103.6987,-10.6812,-39.2456,80,1.1075,0,-58.1361,21.9773,25,0.8314,7860,4.0304,-43.6297
rg,1625496568794102758,1,0.0801,0.5581,0.6316,334,104.187,1.6479,-41.3818,80,1.1085,-0.001,-55.6307,29.5752,25,0.8334,7952,4.0304,-47.2891
rg,1625496568794120937,1,0.0503,0.6018,0.679,335,103.9429,-0.4883,-41.1377,80,1.1105,0,-52.9785,36.3116,25,0.8334,11318,4.0304,-50.1665
rg,1625496568794141300,1,0.144,0.6855,0.7537,336,99.5483,-16.0522,-38.0859,80,1.1105,0,-50.9025,42.5649,25,0.8344,7903,4.0304,-52.8986
rg,1625496568794157738,1,0.2393,0.7183,0.8015,337,96.0693,-23.4375,-34.8511,80,1.1105,0,-49.1545,48.2245,25,0.8354,7974,4.0304,-55.3151
rg,1625496568794175213,1,0.4116,0.7617,0.9106,338,82.7026,-24.5972,-31.25,80,1.1105,0,-47.6998,52.7463,25,0.8364,7986,4.0304,-57.227
rg,1625496568794194373,1,0.5422,0.7908,1.0039,339,69.9463,-11.3525,-27.2827,80,1.1115,0,-46.1852,55.8033,25,0.8364,8772,4.0304,-58.0791
rg,1625496568794210866,1,0.5898,0.8186,1.0508,340,55.1147,14.2212,-22.0947,80,1.1155,0,-44.352,57.0813,25,0.8364,9315,4.0304,-57.4077
rg,1625496568794229045,1,0.5532,0.8298,1.0293,341,47.6685,28.5034,-19.9585,80,1.1135,0,-42.0422,56.8548,25,0.8374,8104,4.0304,-55.457
rg,1625496568794245187,1,0.3862,0.856,0.9504,342,28.9307,47.3022,-15.564,80,1.1105,0,-39.5668,56.1908,25,0.8364,8140,4.0304,-53.314
rg,1625496568794262236,1,0.2351,0.7944,0.8657,343,6.897,51.8799,-9.0332,80,1.1135,0,-37.0608,54.6007,25,0.8374,8114,4.0304,-50.9682
rg,1625496568794280137,1,0.1238,0.6821,0.8289,344,-2.8687,50.7812,-6.0425,80,1.1145,-0.001,-34.7024,52.3511,25,0.8414,8142,4.0304,-48.6765
rg,1625496568794296409,1,0.0791,0.6404,0.8147,345,-16.4795,49.1943,-3.0518,80,1.1115,-0.001,-32.2676,50.0631,25,0.8394,8190,4.0304,-46.5612
rg,1625496568794312514,1,0.0139,0.5725,0.7944,346,-22.3999,46.1426,-0.9766,80,1.1145,0,-29.8784,47.6939,25,0.8404,8216,4.0304,-44.6338
rg,1625496568794328600,1,-0.0283,0.5059,0.8071,347,-26.123,42.2363,-2.9297,80,1.1145,0,-27.483,45.3295,25,0.8424,8129,4.0304,-42.9976
rg,1625496568794365513,1,-0.0508,0.4819,0.8201,348,-24.6582,41.0156,-4.1504,85,1.1155,0,-25.0739,43.1884,25,0.8434,8150,4.026,-41.5672
rg,1625496568794384098,1,-0.0938,0.4436,0.8423,349,-18.2495,37.3535,-8.4229,85,1.1135,0,-22.619,41.4665,25,0.8414,8209,4.026,-40.4716
rg,1625496568794400666,1,-0.1377,0.4363,0.8525,350,-7.019,30.2124,-14.4653,85,1.1145,0,-20.1942,40.4434,25,0.8434,8482,4.026,-39.8642
rg,1625496568794416808,1,-0.1489,0.449,0.8704,351,-0.3662,25.1465,-18.4937,85,1.1155,0,-18.096,40.2058,25,0.8444,8259,4.026,-39.8589
rg,1625496568794432654,1,-0.1311,0.4629,0.8784,352,11.5356,9.7656,-21.9116,85,1.1135,-0.001,-16.267,40.2792,25,0.8434,8253,4.026,-40.1328
rg,1625496569140157972,1,0.0168,0.6379,0.8647,353,29.6021,-5.188,-27.0996,85,1.1155,0,-15.1816,41.4833,25,0.8454,25319,4.026,-41.0446
rg,1625496569140196514,1,0.0527,0.6899,0.8877,354,25.7568,-5.0659,-25.0244,85,1.1155,0,-14.2368,42.4659,24,0.8454,10110,4.026,-41.872
rg,1625496569140216470,1,0.0535,0.7014,0.8914,355,19.7754,-6.4087,-21.7896,85,1.1155,0,-13.3761,43.2698,24,0.8454,7571,4.026,-42.6605
rg,1625496569140238204,1,0.0784,0.7175,0.8706,356,11.8408,-8.606,-18.4937,85,1.1165,0,-12.7429,43.7575,24,0.8464,7761,4.026,-43.415
rg,1625496569140257252,1,0.1096,0.7085,0.8535,357,3.7231,-9.7656,-14.4653,85,1.1165,0,-12.3408,43.8843,24,0.8464,11989,4.026,-44.0809
rg,1625496569140275579,1,0.136,0.6851,0.8457,358,-3.1128,-7.7515,-11.9629,85,1.1165,0,-12.025,43.6742,25,0.8464,7708,4.026,-44.6099
rg,1625496569140292629,1,0.1323,0.6687,0.8396,359,-6.1035,-4.5776,-12.0239,85,1.1165,0,-11.6277,43.3131,25,0.8464,7723,4.026,-45.0502
rg,1625496569140308901,1,0.1108,0.6172,0.8271,360,-10.6201,1.4648,-11.4136,85,1.1165,0,-11.0568,42.6738,25,0.8464,7754,4.026,-45.2951
rg,1625496569140339687,1,0.0759,0.5803,0.8311,361,-11.2305,4.6997,-11.8408,85,1.1165,0,-10.2917,41.9368,25,0.8474,7762,4.026,-45.4058
rg,1625496569140357791,1,0.0549,0.5642,0.8401,362,-11.4136,6.5308,-11.7798,85,1.1155,0,-9.5027,41.1805,25,0.8454,8164,4.026,-45.5293
rg,1625496569140375026,1,0.0491,0.5361,0.8406,363,-7.019,7.1411,-13.2446,85,1.1175,-0.001,-8.6795,40.5797,25,0.8464,8099,4.026,-45.6872
rg,1625496569140392020,1,0.041,0.5298,0.8511,364,-3.9673,7.5073,-13.6719,85,1.1175,-0.001,-7.8755,40.2046,25,0.8474,7638,4.026,-45.9026
rg,1625496569140408903,1,0.043,0.5293,0.8547,365,1.2207,6.0425,-14.9536,85,1.1155,0,-7.0939,39.9477,25,0.8464,7846,4.026,-46.1592
rg,1625496569140425509,1,0.0623,0.5522,0.8528,366,5.9814,5.4321,-16.2354,85,1.1175,0,-6.3701,39.9399,24,0.8484,7877,4.026,-46.4832
rg,1625496569140442243,1,0.064,0.5569,0.8528,367,7.8735,5.4932,-15.686,85,1.1165,0,-5.7229,40.0233,24,0.8484,7886,4.026,-46.7937
rg,1625496569140459034,1,0.0886,0.574,0.8564,368,9.8267,5.249,-16.5405,85,1.1155,0,-5.1052,40.1954,24,0.8464,7895,4.026,-47.1391
rg,1625496569140475139,1,0.0955,0.5928,0.8547,369,10.9863,7.1411,-16.0522,85,1.1185,0,-4.4788,40.4336,24,0.8484,7915,4.026,-47.4233
rg,1625496569140492208,1,0.1042,0.5984,0.8572,370,10.6812,6.897,-15.4419,85,1.1185,0,-3.9171,40.6532,25,0.8484,7984,4.026,-47.6949
rg,1625496569140509072,1,0.1035,0.6008,0.8542,371,9.3994,8.5449,-15.564,85,1.1165,0,-3.3224,40.8156,25,0.8474,8027,4.026,-47.9268
rg,1625496569140525696,1,0.0996,0.6035,0.8499,372,7.6904,10.6812,-14.7705,85,1.1185,0,-2.6993,40.9067,25,0.8494,8006,4.026,-48.0795
rg,1625496569140542283,1,0.0938,0.6057,0.8474,373,7.2021,10.498,-14.9536,85,1.1185,0,-2.0888,40.9802,25,0.8494,8027,4.026,-48.2441
rg,1625496569140558499,1,0.0889,0.6072,0.8403,374,6.897,11.6577,-15.3198,85,1.1135,0,-1.4482,41.0477,25,0.8474,8189,4.026,-48.3909
rg,1625496569140574919,1,0.0813,0.5906,0.8406,375,6.0425,12.146,-14.7705,85,1.1185,0,-0.8178,41.0462,25,0.8494,8049,4.026,-48.5092
rg,1625496569140602891,1,0.0764,0.5952,0.8423,376,6.4087,12.3291,-13.916,85,1.1175,0,-0.2135,41.0737,25,0.8484,8070,4.026,-48.5998
rg,1625496569140620607,1,0.0708,0.5967,0.8364,377,7.3853,12.7563,-15.564,85,1.1185,0,0.4016,41.1187,25,0.8494,9888,4.026,-48.6942
rg,1625496569140636916,1,0.0723,0.6042,0.8433,378,7.8735,12.3901,-15.0146,85,1.1165,0,0.9941,41.2042,25,0.8474,8102,4.026,-48.8198
rg,1625496569140653651,1,0.0737,0.6067,0.8315,379,8.9722,12.9395,-14.2822,85,1.1175,0,1.5561,41.3492,25,0.8474,8118,4.026,-48.9095
rg,1625496569140669516,1,0.0764,0.6074,0.8352,380,9.0332,13.4888,-14.5874,85,1.1195,0,2.1153,41.4867,25,0.8494,8193,4.026,-48.9942
rg,1625496569140778978,1,0.0723,0.6123,0.8389,381,9.3384,13.4277,-14.7705,85,1.1165,0,2.6655,41.6337,25,0.8474,8221,4.026,-49.0862
rg,1625496569140800341,1,0.0779,0.6243,0.8396,382,9.9487,12.8784,-13.916,85,1.1195,0,3.1443,41.819,25,0.8484,8300,4.026,-49.1668
rg,1625496569140818908,1,0.0791,0.6313,0.8374,383,9.3994,13.7939,-13.6108,85,1.1185,0,3.6211,41.9915,25,0.8504,8246,4.026,-49.2126
rg,1625496569140836217,1,0.0798,0.6353,0.8406,384,9.0942,14.7705,-14.1602,85,1.1195,0,4.1223,42.1503,25,0.8494,8288,4.026,-49.248
rg,1625496569493471307,1,0.061,0.6274,0.8308,385,6.7749,15.3198,-13.4277,85,1.1185,0,4.6333,42.2117,25,0.8494,25633,4.026,-49.2473
rg,1625496569493511274,1,0.0552,0.6255,0.8367,386,6.1646,14.8315,-13.2446,85,1.1185,0,5.1233,42.2325,25,0.8504,8468,4.026,-49.2569
rg,1625496569493531490,1,0.0459,0.6204,0.8389,387,5.6152,14.8315,-13.3057,85,1.1185,0,5.6156,42.2183,25,0.8494,7667,4.026,-49.2712
rg,1625496569493550205,1,0.0481,0.6223,0.8423,388,5.249,13.9771,-13.855,85,1.1185,0,6.0738,42.185,25,0.8504,7676,4.026,-49.3274
rg,1625496569493568643,1,0.0452,0.6155,0.8474,389,5.7983,13.6108,-14.4043,85,1.1185,0,6.4618,42.1347,25,0.8504,7645,4.026,-49.425
rg,1625496569493587488,1,0.0427,0.6174,0.8474,390,5.4321,12.5732,-14.3433,85,1.1185,0,6.8701,42.0897,25,0.8504,7692,4.026,-49.5398
rg,1625496569493604538,1,0.0452,0.6123,0.856,391,4.8828,11.2915,-13.916,85,1.1185,0,7.2084,42.0012,25,0.8494,7858,4.026,-49.6813
rg,1625496569493621384,1,0.0444,0.6104,0.8474,392,5.127,11.2305,-15.1367,85,1.1195,0,7.5649,41.9275,25,0.8504,7756,4.026,-49.8624
rg,1625496569493637934,1,0.0522,0.6155,0.8508,393,5.249,10.8032,-15.3198,85,1.1175,-0.001,7.8833,41.8628,25,0.8494,7711,4.026,-50.062
rg,1625496569493655928,1,0.0481,0.6133,0.8467,394,4.5166,9.7656,-15.1367,85,1.1185,0,8.1617,41.7685,25,0.8504,7614,4.026,-50.2861
rg,1625496569493674384,1,0.0608,0.6104,0.842,395,4.5166,9.0942,-15.0146,85,1.1185,0,8.3781,41.6758,25,0.8494,9747,4.026,-50.5263
rg,1625496569493691878,1,0.0642,0.6121,0.842,396,4.5166,8.4229,-14.4653,85,1.1185,0,8.5463,41.5647,25,0.8514,7780,4.026,-50.7702
rg,1625496569493708946,1,0.0693,0.6096,0.8467,397,3.8452,8.2397,-13.7329,85,1.1175,0,8.6699,41.4468,25,0.8504,7883,4.026,-50.9987
rg,1625496569493725644,1,0.073,0.6086,0.8433,398,4.2114,9.3384,-14.4043,85,1.1195,0,8.8305,41.3515,25,0.8514,7823,4.026,-51.2187
rg,1625496569493741916,1,0.0718,0.6106,0.8416,399,3.479,8.606,-14.9536,85,1.1195,0,8.9715,41.2332,25,0.8514,7851,4.026,-51.475
rg,1625496569493758818,1,0.0728,0.6104,0.843,400,3.418,9.0942,-14.4653,85,1.1165,0,9.1145,41.1154,25,0.8504,7868,4.026,-51.7054
rg,1625496569493775071,1,0.0803,0.6052,0.8396,401,4.2114,9.5215,-13.6719,85,1.1195,0,9.2268,41.0342,25,0.8514,7905,4.026,-51.9022
rg,1625496569493791177,1,0.0757,0.6135,0.8396,402,4.5776,10.3149,-14.5264,85,1.1175,0,9.391,40.9842,25,0.8504,7911,4.026,-52.1024
rg,1625496569493809874,1,0.0691,0.6042,0.8328,403,5.0049,10.498,-14.3433,85,1.1195,0,9.5621,40.9466,25,0.8504,7957,4.026,-52.2943
rg,1625496569493828201,1,0.0706,0.6062,0.8354,404,4.5776,11.5967,-14.8926,85,1.1195,-0.001,9.7712,40.8948,25,0.8514,7974,4.026,-52.4748
rg,1625496569493849360,1,0.0671,0.6099,0.8462,405,4.3945,10.437,-13.1226,85,1.1195,0,9.8996,40.8336,25,0.8514,9457,4.026,-52.6343
rg,1625496569493868316,1,0.0674,0.6099,0.8381,406,5.0049,11.2915,-14.2212,85,1.1185,0,10.0758,40.8073,25,0.8524,7994,4.026,-52.8038
rg,1625496569493894955,1,0.064,0.6106,0.8369,407,5.4321,11.3525,-13.4277,85,1.1195,0,10.2335,40.8059,25,0.8524,8045,4.026,-52.9476
rg,1625496569493916429,1,0.063,0.6184,0.8389,408,4.6997,11.7798,-14.4653,85,1.1195,0,10.4276,40.7826,25,0.8524,8121,4.026,-53.1105
rg,1625496569493936848,1,0.0615,0.6169,0.8318,409,5.0659,11.7188,-14.4043,85,1.1195,0,10.613,40.781,25,0.8524,8934,4.026,-53.2728
rg,1625496569493954120,1,0.0544,0.6143,0.8281,410,4.9438,13.0615,-15.686,85,1.1195,0,10.8798,40.7732,25,0.8494,8824,4.026,-53.4394
rg,1625496569493972632,1,0.054,0.6147,0.8308,411,5.0659,11.9019,-14.5874,85,1.1195,0,11.0739,40.7677,25,0.8514,8157,4.026,-53.6047
rg,1625496569493990681,1,0.0471,0.6167,0.843,412,4.3335,12.0239,-13.7329,85,1.1175,0,11.2576,40.7257,25,0.8504,8109,4.026,-53.7436
rg,1625496569494196702,1,0.0525,0.6226,0.8318,413,5.188,11.9629,-14.2212,85,1.1195,0,11.4328,40.741,25,0.8504,8187,4.026,-53.895
rg,1625496569494256533,1,0.0454,0.625,0.8396,414,4.9438,11.3525,-14.2822,85,1.1195,0,11.6001,40.7358,25,0.8504,8594,4.026,-54.0664
rg,1625496569494279506,1,0.0508,0.6252,0.8372,415,5.249,11.4746,-13.7939,85,1.1205,0,11.7405,40.7499,25,0.8524,8235,4.026,-54.2193
rg,1625496569494299666,1,0.0496,0.6267,0.8362,416,5.188,11.1694,-14.2822,85,1.1195,0,11.8727,40.7633,24,0.8524,8286,4.026,-54.3943
rg,1625496569842001976,1,0.0562,0.6228,0.8303,417,3.9062,9.8267,-13.4277,85,1.1195,0,11.9713,40.7074,25,0.8524,25453,4.026,-54.6186
rg,1625496569842052754,1,0.0549,0.6206,0.8389,418,3.2959,9.6436,-13.9771,85,1.1195,0,12.0381,40.6219,25,0.8524,8618,4.026,-54.8297
rg,1625496569842073247,1,0.062,0.6233,0.8345,419,3.418,9.7046,-14.4043,85,1.1195,0,12.0997,40.5526,25,0.8524,7584,4.026,-55.0507
rg,1625496569842155755,1,0.0603,0.6196,0.8333,420,2.8076,10.1929,-14.0381,85,1.1195,0,12.1673,40.4615,25,0.8524,7630,4.026,-55.2488
rg,1625496569842179506,1,0.0566,0.6206,0.8372,421,2.9907,11.1084,-13.855,85,1.1195,0,12.2396,40.4144,25,0.8524,7611,4.026,-55.4273
rg,1625496569842199074,1,0.0591,0.6104,0.8352,422,3.2349,10.7422,-13.9771,85,1.1195,0,12.27,40.3256,25,0.8524,10267,4.026,-55.6207
rg,1625496569842219567,1,0.0657,0.6155,0.8374,423,3.1738,10.0098,-13.1226,85,1.1185,0,12.2901,40.2494,25,0.8514,7875,4.026,-55.7992
rg,1625496569842238079,1,0.0588,0.6152,0.8364,424,3.2349,10.6812,-13.1836,85,1.1205,0,12.3454,40.1826,25,0.8524,7735,4.026,-55.962
rg,1625496569842256406,1,0.0586,0.6165,0.8315,425,3.3569,10.437,-13.9771,85,1.1205,0,12.4049,40.1161,25,0.8524,7878,4.026,-56.1564
rg,1625496569842276213,1,0.0588,0.6145,0.8413,426,2.8076,10.0708,-13.6719,85,1.1195,0,12.4409,40.0494,25,0.8524,7726,4.026,-56.3661
rg,1625496569842295225,1,0.0601,0.6121,0.8423,427,3.6011,10.0708,-12.8784,85,1.1195,0,12.4614,39.9896,25,0.8534,7802,4.026,-56.5394
rg,1625496569842313201,1,0.0583,0.6118,0.8347,428,3.9062,9.9487,-12.9395,85,1.1195,0,12.4816,39.9526,25,0.8534,7792,4.026,-56.7161
rg,1625496569842332638,1,0.0613,0.6108,0.8352,429,3.9062,10.5591,-13.3667,85,1.1195,0,12.5411,39.9037,25,0.8534,7927,4.026,-56.8763
rg,1625496569842351002,1,0.0652,0.6172,0.8374,430,3.6011,10.0708,-13.0005,85,1.1195,0,12.5494,39.864,25,0.8534,7922,4.026,-57.0508
rg,1625496569842369625,1,0.0605,0.6172,0.8347,431,3.418,10.6812,-12.8174,85,1.1205,0,12.5807,39.8268,25,0.8534,7856,4.026,-57.2028
rg,1625496569842387452,1,0.0583,0.6157,0.8318,432,3.6011,9.9487,-12.6343,85,1.1215,0,12.5878,39.7965,25,0.8534,9849,4.026,-57.3683
rg,1625496569842406353,1,0.0625,0.6169,0.8357,433,3.6621,10.1318,-12.6343,85,1.1215,0,12.5539,39.7375,25,0.8544,7911,4.026,-57.516
rg,1625496569842425310,1,0.0645,0.615,0.8455,434,3.479,10.1318,-13.2446,85,1.1185,0,12.5717,39.6834,25,0.8524,7922,4.026,-57.7002
rg,1625496569842463944,1,0.0659,0.6133,0.8369,435,3.418,11.1084,-13.5498,85,1.1215,0,12.6222,39.6405,25,0.8544,8008,4.026,-57.8669
rg,1625496569842485437,1,0.0667,0.6187,0.8359,436,3.0518,11.6577,-13.3667,85,1.1205,0,12.6768,39.6294,25,0.8544,7976,4.026,-58.0249
rg,1625496569842504004,1,0.0649,0.6155,0.8418,437,4.0283,11.2305,-13.5498,85,1.1185,0,12.7296,39.6108,25,0.8524,8041,4.026,-58.1894
rg,1625496569842521757,1,0.0601,0.6128,0.8398,438,3.6621,11.1694,-13.0005,85,1.1215,0,12.7744,39.5792,25,0.8544,8034,4.026,-58.339
rg,1625496569842539011,1,0.0581,0.6143,0.8362,439,3.6621,11.4136,-12.5122,85,1.1215,0,12.8095,39.5726,25,0.8534,8073,4.026,-58.4494
rg,1625496569842557967,1,0.0581,0.6145,0.8374,440,4.3945,11.2915,-14.4043,85,1.1185,0,12.8945,39.5686,25,0.8524,8117,4.026,-58.639
rg,1625496569842592362,1,0.0537,0.6123,0.8376,441,3.9673,11.0474,-13.3667,85,1.1215,-0.001,12.9515,39.549,25,0.8534,8264,4.026,-58.8036
rg,1625496569842620242,1,0.0518,0.615,0.8372,442,3.7231,11.5967,-13.2446,85,1.1215,0,13.0045,39.5337,25,0.8554,7977,4.026,-58.9754
rg,1625496569842638513,1,0.0544,0.6165,0.8362,443,3.6011,10.5591,-12.2681,85,1.1185,0,13.0127,39.515,25,0.8524,8314,4.026,-59.1163
rg,1625496569842656192,1,0.0532,0.6191,0.8335,444,3.418,10.5591,-13.7329,85,1.1215,0,13.0602,39.4876,25,0.8534,8175,4.026,-59.3017
rg,1625496569842673760,1,0.0574,0.6208,0.8318,445,3.0518,10.437,-12.6343,85,1.1205,0.001,13.0653,39.459,25,0.8554,8223,4.026,-59.4545
rg,1625496569842691772,1,0.0532,0.6257,0.8359,446,3.3569,9.5215,-12.7563,85,1.1195,0,13.0544,39.4406,25,0.8534,8080,4.026,-59.6345
rg,1625496569842710543,1,0.0571,0.626,0.8308,447,3.3569,9.5215,-13.1836,85,1.1205,0,13.0461,39.4272,25,0.8524,8293,4.026,-59.8263
rg,1625496569842729278,1,0.061,0.6235,0.8293,448,3.3569,10.498,-14.0991,85,1.1215,0,13.0829,39.4112,25,0.8544,8312,4.026,-60.0221
rg,1625496570195430096,1,0.0618,0.624,0.8267,449,3.7842,10.9253,-14.3433,85,1.1205,0,13.1007,39.3668,25,0.8534,25586,4.026,-60.2031
rg,1625496570195728480,1,0.0618,0.6223,0.8372,450,2.8687,10.376,-13.9771,85,1.1205,0,13.1276,39.3209,25,0.8534,9162,4.026,-60.4014
rg,1625496570195784351,1,0.0586,0.6177,0.8352,451,3.3569,10.2539,-13.0615,85,1.1205,0,13.1326,39.2963,25,0.8544,7697,4.026,-60.5754
rg,1625496570195814063,1,0.0613,0.6169,0.8354,452,3.7842,10.3149,-13.1836,85,1.1205,0,13.1814,39.2604,25,0.8544,7825,4.026,-60.7531
rg,1625496570195844924,1,0.0598,0.6213,0.8403,453,3.6011,10.3149,-13.3057,85,1.1205,0,13.1904,39.246,25,0.8544,7629,4.026,-60.9336
rg,1625496570195874025,1,0.0618,0.6208,0.8384,454,3.54,10.1929,-13.3057,85,1.1215,0,13.1909,39.2307,25,0.8544,8811,4.026,-61.117
rg,1625496570195903201,1,0.0608,0.6157,0.8342,455,3.479,11.4136,-13.9771,85,1.1215,0,13.2473,39.2122,25,0.8554,8296,4.026,-61.2908
rg,1625496570195933006,1,0.062,0.6184,0.8381,456,3.2959,11.1084,-13.916,85,1.1195,0,13.2885,39.1851,25,0.8544,7797,4.026,-61.4708
rg,1625496570195965421,1,0.0608,0.614,0.8374,457,3.479,10.8032,-13.2446,85,1.1215,0,13.304,39.1625,25,0.8524,7770,4.026,-61.6393
rg,1625496570195993708,1,0.0586,0.614,0.8352,458,3.1128,11.4746,-13.6719,85,1.1215,0,13.3428,39.0988,25,0.8554,7771,4.026,-61.8004
rg,1625496570196020792,1,0.0588,0.6157,0.8418,459,2.9297,11.1694,-13.7939,85,1.1195,0,13.3856,39.0527,25,0.8534,7851,4.026,-61.9779
rg,1625496570196048339,1,0.0583,0.6169,0.8406,460,3.2349,11.3525,-13.0615,85,1.1225,0,13.4149,39.0308,25,0.8564,7877,4.026,-62.1266
rg,1625496570196076459,1,0.0532,0.6177,0.8325,461,3.2349,11.2915,-13.7329,85,1.1215,0,13.459,39.0088,25,0.8554,7886,4.026,-62.2974
rg,1625496570196103895,1,0.0566,0.6221,0.842,462,3.3569,11.1084,-13.6108,85,1.1205,0,13.4955,38.9948,25,0.8544,7961,4.026,-62.4687
rg,1625496570196129794,1,0.054,0.6143,0.834,463,3.0518,11.1084,-13.916,85,1.1225,0,13.5428,38.9634,25,0.8564,7880,4.026,-62.6506
rg,1625496570196166041,1,0.0618,0.6213,0.8342,464,3.3569,11.5356,-13.3667,85,1.1205,0,13.5784,38.961,25,0.8554,7955,4.026,-62.8019
rg,1625496570196223485,1,0.0566,0.6191,0.8438,465,3.9062,10.9253,-14.3433,85,1.1185,0,13.623,38.9563,25,0.8544,7983,4.026,-63.0035
rg,1625496570196256678,1,0.0562,0.6201,0.8367,466,3.6011,11.1694,-13.4888,85,1.1225,0,13.6525,38.9585,25,0.8554,8216,4.026,-63.169
rg,1625496570196282929,1,0.0598,0.6155,0.8376,467,3.8452,11.1084,-13.7329,81,1.1205,0,13.6748,38.9574,25,0.8564,8040,4.0304,-63.3464
rg,1625496570196311456,1,0.0627,0.6191,0.8394,468,3.54,10.6812,-13.2446,81,1.1195,0,13.6675,38.9506,25,0.8544,7991,4.0304,-63.5181
rg,1625496570196339207,1,0.0645,0.6177,0.8369,469,3.418,10.5591,-12.9395,81,1.1225,0,13.6452,38.9414,25,0.8554,8040,4.0304,-63.683
rg,1625496570196365994,1,0.0583,0.6194,0.8391,470,3.2959,10.9863,-13.4888,81,1.1225,0,13.6342,38.92,25,0.8554,8539,4.0304,-63.8458
rg,1625496570196395744,1,0.0613,0.6174,0.8418,471,3.1128,10.8643,-13.1226,81,1.1225,0,13.6318,38.8912,25,0.8554,8099,4.0304,-64.0108
rg,1625496570196426530,1,0.0642,0.6155,0.8425,472,3.2349,11.4746,-13.5498,81,1.1195,0,13.6554,38.8666,25,0.8544,8328,4.0304,-64.1743
rg,1625496570196453021,1,0.0632,0.6128,0.8367,473,4.0283,11.5356,-14.2212,81,1.1225,0,13.6979,38.8727,25,0.8554,8099,4.0304,-64.3571
rg,1625496570196480364,1,0.0623,0.6162,0.8367,474,3.418,11.2305,-13.0615,81,1.1215,0,13.7026,38.8672,25,0.8554,12062,4.0304,-64.5094
rg,1625496570196507392,1,0.0569,0.614,0.8337,475,3.6621,11.2305,-13.916,81,1.1215,0,13.7393,38.8651,25,0.8564,8206,4.0304,-64.689
rg,1625496570196534421,1,0.0591,0.6162,0.8354,476,3.6621,10.5591,-13.3057,81,1.1215,0,13.7207,38.8459,25,0.8554,8166,4.0304,-64.8451
rg,1625496570196562652,1,0.0605,0.6196,0.8391,477,4.3945,11.0474,-13.7939,81,1.1215,0,13.7411,38.8765,25,0.8554,8215,4.0304,-65.025
rg,1625496570196587903,1,0.0608,0.6116,0.8364,478,3.8452,10.437,-13.0005,81,1.1215,0,13.7208,38.8754,25,0.8554,8259,4.0304,-65.1978
rg,1625496570196615246,1,0.0571,0.6194,0.8364,479,2.9297,10.437,-12.7563,81,1.1215,0,13.7031,38.8537,25,0.8564,9043,4.0304,-65.3595
rg,1625496570196672005,1,0.0591,0.6128,0.8333,480,3.2959,11.1084,-13.4277,81,1.1215,0,13.7068,38.8705,25,0.8564,8293,4.0304,-65.5275
rg,1625496570547058684,1,0.0635,0.6204,0.8286,481,3.7231,10.376,-13.9771,81,1.1215,0,13.7092,38.8802,25,0.8554,25075,4.0304,-65.7276
rg,1625496570547093895,1,0.0554,0.6179,0.8394,482,3.418,10.498,-13.1836,81,1.1215,0,13.7083,38.8684,25,0.8564,9944,4.0304,-65.9029
rg,1625496570547113963,1,0.0591,0.6182,0.8376,483,2.8076,10.5591,-12.7563,81,1.1215,0,13.6908,38.8392,25,0.8554,7616,4.0304,-66.0623
rg,1625496570547132771,1,0.0588,0.6182,0.8354,484,3.2959,10.8643,-13.6108,81,1.1215,0,13.7051,38.8289,25,0.8564,7648,4.0304,-66.2405
rg,1625496570547150266,1,0.0627,0.6147,0.8372,485,3.54,10.7422,-13.855,81,1.1215,0,13.6891,38.8061,25,0.8564,7646,4.0304,-66.429
rg,1625496570547167741,1,0.0623,0.6208,0.8391,486,3.479,10.376,-12.7563,81,1.1215,0,13.6603,38.8079,25,0.8564,7705,4.0304,-66.5925
rg,1625496570547184736,1,0.0547,0.6113,0.8372,487,2.9907,11.2915,-13.6108,81,1.1215,0,13.6974,38.7746,25,0.8564,8599,4.0304,-66.7632
rg,1625496570547201527,1,0.0583,0.6155,0.8335,488,3.479,10.376,-13.1226,81,1.1225,0,13.6846,38.7725,25,0.8554,9773,4.0304,-66.939
rg,1625496570547218188,1,0.0586,0.6155,0.8367,489,3.6011,10.3149,-13.4277,81,1.1225,0,13.6778,38.7685,25,0.8564,7901,4.0304,-67.1272
rg,1625496570547235256,1,0.0559,0.614,0.834,490,3.418,10.6201,-14.4653,81,1.1205,0,13.712,38.7521,25,0.8554,7716,4.0304,-67.3406
rg,1625496570547252417,1,0.061,0.6187,0.8333,491,3.2959,10.6201,-13.6719,81,1.1205,0,13.7144,38.7469,25,0.8564,7729,4.0304,-67.5263
rg,1625496570547269282,1,0.0615,0.624,0.8306,492,3.2959,11.1084,-13.4888,81,1.1225,0,13.7442,38.7556,25,0.8564,7786,4.0304,-67.7019
rg,1625496570547286073,1,0.064,0.6284,0.8364,493,3.6621,11.4746,-13.7939,81,1.1195,0,13.7698,38.7824,25,0.8554,7823,4.0304,-67.8663
rg,1625496570547303271,1,0.0608,0.6145,0.8342,494,3.6621,10.498,-13.6108,81,1.1225,-0.001,13.7652,38.7813,25,0.8574,7832,4.0304,-68.0555
rg,1625496570547342684,1,0.0586,0.6169,0.8357,495,4.1504,10.9863,-13.0615,81,1.1225,0,13.7671,38.8095,25,0.8574,7728,4.0304,-68.2138
rg,1625496570547362622,1,0.0552,0.6162,0.8372,496,3.7231,11.0474,-14.2822,81,1.1215,0,13.8086,38.8072,25,0.8564,12422,4.0304,-68.4104
rg,1625496570547405053,1,0.0625,0.624,0.8359,497,3.7231,11.4746,-13.6719,81,1.1215,0,13.8493,38.8347,25,0.8564,7954,4.0304,-68.5711
rg,1625496570547425065,1,0.0591,0.6216,0.8379,498,3.6011,10.0708,-13.1836,81,1.1215,0,13.8222,38.8376,25,0.8564,9503,4.0304,-68.7558
rg,1625496570547443984,1,0.0576,0.6216,0.8362,499,2.8076,10.2539,-13.6719,81,1.1215,0,13.8168,38.8083,25,0.8564,7945,4.0304,-68.9508
rg,1625496570547461904,1,0.0642,0.6155,0.8376,500,3.2349,10.8032,-14.2212,81,1.1215,0,13.8286,38.7836,25,0.8564,8019,4.0304,-69.1524
rg,1625496570547479769,1,0.0657,0.6162,0.8328,501,3.54,10.437,-13.1226,81,1.1215,0,13.7974,38.7859,25,0.8564,8377,4.0304,-69.3263
rg,1625496570547497282,1,0.0654,0.6199,0.8362,502,2.9297,10.7422,-13.3057,81,1.1205,0,13.7825,38.7665,25,0.8554,8586,4.0304,-69.4977
rg,1625496570547516146,1,0.0664,0.6155,0.8369,503,3.2349,11.4136,-13.4277,81,1.1225,0,13.7899,38.7542,25,0.8564,8078,4.0304,-69.6578
rg,1625496570547533548,1,0.0605,0.6174,0.8342,504,2.7466,11.4746,-13.6108,81,1.1225,0,13.7812,38.7495,25,0.8574,8102,4.0304,-69.8017
rg,1625496570547550968,1,0.0557,0.6184,0.8433,505,3.6011,11.4136,-13.7939,81,1.1205,0,13.8207,38.7465,25,0.8554,8094,4.0304,-69.9744
rg,1625496570547568703,1,0.0535,0.6152,0.8323,506,3.479,10.8643,-12.5732,81,1.1225,0,13.8147,38.7535,25,0.8574,8123,4.0304,-70.1201
rg,1625496570547586678,1,0.0593,0.6165,0.8313,507,3.7231,11.1694,-13.0005,81,1.1225,0,13.8168,38.7721,25,0.8564,9214,4.0304,-70.2707
rg,1625496570547605061,1,0.0535,0.6208,0.8328,508,3.54,11.1694,-13.3057,81,1.1225,0,13.839,38.7863,25,0.8574,9818,4.0304,-70.4297
rg,1625496570547623166,1,0.0552,0.6194,0.8374,509,3.1738,11.4746,-13.3667,81,1.1215,0,13.8651,38.7784,25,0.8574,8252,4.0304,-70.5847
rg,1625496570547656156,1,0.0601,0.6169,0.8347,510,3.54,10.498,-13.3057,81,1.1205,0,13.8509,38.7785,25,0.8554,8292,4.0304,-70.7634
rg,1625496570547676501,1,0.0566,0.6208,0.8389,511,3.2349,10.9863,-13.4277,81,1.1225,0,13.8631,38.7699,25,0.8574,8249,4.0304,-70.933
rg,1625496570547693569,1,0.0615,0.6165,0.8362,512,3.3569,10.0708,-12.4512,81,1.1225,0,13.8149,38.7529,25,0.8574,8301,4.0304,-71.1125
rg,1625496570895350493,1,0.0608,0.614,0.825,513,3.418,11.4136,-13.3057,81,1.1215,0,13.8284,38.7627,25,0.8564,25095,4.0304,-71.2656
rg,1625496570895398255,1,0.061,0.6116,0.8301,514,3.6621,10.7422,-12.8784,81,1.1215,0,13.8097,38.7697,25,0.8564,14678,4.0304,-71.4251
rg,1625496570895419007,1,0.0613,0.6199,0.8369,515,3.8452,10.6812,-13.4277,81,1.1225,0,13.8042,38.785,25,0.8574,9257,4.0304,-71.6023
rg,1625496570895438001,1,0.0603,0.6162,0.8291,516,3.7842,11.1694,-14.0381,81,1.1215,0,13.8305,38.7994,25,0.8574,7611,4.0304,-71.7854
rg,1625496570895456495,1,0.0574,0.6162,0.8303,517,3.418,11.1694,-13.7939,81,1.1225,0,13.8559,38.7988,25,0.8574,7620,4.0304,-71.9612
rg,1625496570895474841,1,0.0569,0.6174,0.8293,518,3.479,11.0474,-13.855,81,1.1215,0,13.879,38.8029,25,0.8574,9553,4.0304,-72.1413
rg,1625496570895492465,1,0.0527,0.6182,0.8345,519,3.54,11.2915,-13.6719,81,1.1215,0,13.9243,38.8052,25,0.8574,7693,4.0304,-72.3273
rg,1625496570895509663,1,0.062,0.6216,0.8381,520,2.6855,11.2915,-13.4888,81,1.1215,0,13.9336,38.7772,25,0.8574,7719,4.0304,-72.4905
rg,1625496570895528083,1,0.0581,0.6189,0.8394,521,2.9907,10.6201,-13.3667,81,1.1225,0,13.9267,38.7528,25,0.8574,7765,4.0304,-72.6688
rg,1625496570895545651,1,0.0576,0.6211,0.8379,522,3.3569,11.2915,-13.7329,81,1.1225,0,13.951,38.7511,25,0.8564,7738,4.0304,-72.8402
rg,1625496570895564275,1,0.0635,0.6226,0.8354,523,3.0518,11.2305,-12.7563,81,1.1225,0,13.9357,38.7504,25,0.8574,7888,4.0304,-72.9803
rg,1625496570895582213,1,0.0581,0.6125,0.8342,524,3.2959,11.4136,-14.0381,81,1.1235,0,13.9693,38.7342,25,0.8574,7986,4.0304,-73.1609
rg,1625496570895629142,1,0.0591,0.6204,0.832,525,3.3569,10.5591,-13.4888,81,1.1225,0,13.9594,38.7371,25,0.8574,11018,4.0304,-73.3419
rg,1625496570895652764,1,0.061,0.6218,0.8352,526,2.6855,11.2915,-13.5498,81,1.1225,0,13.9609,38.708,25,0.8584,7819,4.0304,-73.4921
rg,1625496570895671554,1,0.062,0.6182,0.8376,527,3.2959,11.6577,-13.3667,81,1.1195,0,13.9767,38.7057,25,0.8564,7855,4.0304,-73.6436
rg,1625496570895693381,1,0.0579,0.614,0.8347,528,2.6855,11.6577,-14.5264,81,1.1235,0,14.0289,38.6664,25,0.8584,7932,4.0304,-73.8333
rg,1625496570895713485,1,0.0586,0.6189,0.8301,529,2.8687,11.0474,-12.8174,81,1.1235,0,14.0158,38.6605,25,0.8584,7915,4.0304,-73.9804
rg,1625496570895731516,1,0.0576,0.6174,0.8386,530,2.7466,11.5967,-13.7329,81,1.1215,0,14.0458,38.632,25,0.8564,7963,4.0304,-74.1461
rg,1625496570895750029,1,0.0608,0.6174,0.8364,531,3.1128,10.9253,-13.0615,81,1.1235,0,14.0301,38.6232,25,0.8574,7981,4.0304,-74.307
rg,1625496570895768097,1,0.0608,0.6135,0.8352,532,3.8452,10.8643,-12.7563,81,1.1225,0,14.0053,38.6406,25,0.8584,8105,4.0304,-74.461
rg,1625496570895786591,1,0.0554,0.6123,0.8391,533,3.6011,10.498,-13.5498,81,1.1175,0,14.0013,38.6316,25,0.8564,8037,4.0304,-74.6517
rg,1625496570895803715,1,0.063,0.6167,0.8345,534,3.0518,11.3525,-13.0005,81,1.1225,0,13.9944,38.625,25,0.8584,8066,4.0304,-74.7992
rg,1625496570895821598,1,0.0605,0.616,0.8384,535,3.2959,10.6812,-13.855,81,1.1235,0,13.9874,38.6191,25,0.8584,8079,4.0304,-74.9911
rg,1625496570895839851,1,0.0681,0.6208,0.8401,536,3.54,11.2915,-13.5498,81,1.1205,0,13.983,38.6278,25,0.8574,8076,4.0304,-75.1578
rg,1625496570895858475,1,0.0627,0.6179,0.8345,537,3.6621,11.4136,-13.4277,81,1.1235,0,13.9899,38.6449,25,0.8584,8106,4.0304,-75.3168
rg,1625496570895876117,1,0.0591,0.6145,0.834,538,3.479,11.1694,-13.7329,81,1.1225,0,14.0028,38.6443,25,0.8584,8122,4.0304,-75.4934
rg,1625496570895893593,1,0.0576,0.6204,0.842,539,3.9062,11.3525,-14.2822,81,1.1205,0,14.0399,38.6577,25,0.8564,8192,4.0304,-75.683
rg,1625496570895930414,1,0.061,0.6179,0.8311,540,3.8452,11.2915,-12.5122,81,1.1215,0,14.0213,38.6918,25,0.8584,8312,4.0304,-75.8147
rg,1625496570895949797,1,0.0586,0.6187,0.8328,541,3.8452,11.3525,-13.7939,81,1.1235,0,14.0255,38.7282,25,0.8594,8207,4.0304,-75.9682
rg,1625496570895967310,1,0.0581,0.6162,0.8352,542,3.8452,11.2915,-13.3667,81,1.1215,0,14.0353,38.7443,25,0.8564,8256,4.0304,-76.1293
rg,1625496570895985211,1,0.0581,0.6211,0.8315,543,3.1128,11.3525,-13.5498,81,1.1205,0,14.0512,38.7432,25,0.8564,8848,4.0304,-76.2914
rg,1625496570896005649,1,0.0581,0.6228,0.832,544,4.0894,11.0474,-12.9395,81,1.1235,0,14.0418,38.7864,25,0.8594,8310,4.0304,-76.4412
rg,1625496571241220869,1,0.0571,0.6228,0.825,545,3.54,11.2915,-13.7939,81,1.1225,0,14.0553,38.7784,25,0.8574,25997,4.0304,-76.6205
rg,1625496571241252211,1,0.0603,0.6226,0.834,546,3.479,10.6201,-12.7563,81,1.1225,0,14.0237,38.7916,25,0.8584,8424,4.0304,-76.7761
rg,1625496571241272372,1,0.0625,0.6165,0.8337,547,3.0518,11.0474,-12.8174,81,1.1225,0,14.0031,38.7789,25,0.8584,7638,4.0304,-76.9252
rg,1625496571241291199,1,0.0554,0.6228,0.8328,548,3.1128,11.6577,-14.3433,81,1.1225,0,14.0554,38.7736,25,0.8584,7595,4.0304,-77.1044
rg,1625496571241309101,1,0.0557,0.6184,0.8369,549,3.6621,11.4136,-12.9395,81,1.1225,0,14.0626,38.7864,25,0.8584,7641,4.0304,-77.2482
rg,1625496571241326836,1,0.0583,0.6155,0.8396,550,3.1738,10.8032,-13.1836,81,1.1225,-0.001,14.0513,38.7646,25,0.8584,7650,4.0304,-77.4178
rg,1625496571241345534,1,0.0562,0.6184,0.8411,551,2.8076,10.7422,-13.6719,81,1.1215,0,14.0555,38.7282,25,0.8574,7701,4.0304,-77.6039
rg,1625496571241363862,1,0.0576,0.6172,0.8352,552,3.0518,11.4136,-14.7095,81,1.1245,0,14.1026,38.7045,25,0.8564,7693,4.0304,-77.8047
rg,1625496571241381597,1,0.0588,0.6157,0.8381,553,3.54,11.1694,-14.1602,81,1.1225,0,14.0542,38.6964,25,0.8594,7769,4.0304,-77.9701
rg,1625496571241398426,1,0.0593,0.6184,0.8391,554,3.6621,10.498,-13.7329,81,1.1215,0,14.0453,38.6973,25,0.8574,7726,4.0304,-78.164
rg,1625496571241441653,1,0.0591,0.6206,0.8352,555,3.2959,11.1084,-13.6719,81,1.1225,0,14.0544,38.697,25,0.8594,7702,4.0304,-78.3379
rg,1625496571241459444,1,0.0618,0.6204,0.8337,556,3.2349,11.3525,-13.4277,81,1.1235,0,14.0589,38.6992,25,0.8594,7758,4.0304,-78.4972
rg,1625496571241476346,1,0.0608,0.6226,0.8362,557,3.3569,11.3525,-14.5874,81,1.1235,0,14.0945,38.6978,25,0.8574,7812,4.0304,-78.6936
rg,1625496571241492712,1,0.0625,0.6182,0.8369,558,3.6011,11.3525,-13.7939,81,1.1225,0,14.1054,38.7034,25,0.8594,7786,4.0304,-78.8668
rg,1625496571241509021,1,0.0598,0.6213,0.8354,559,3.7842,11.1084,-13.4888,81,1.1215,0,14.1062,38.7246,25,0.8574,7830,4.0304,-79.0347
rg,1625496571241525405,1,0.0583,0.6187,0.8289,560,3.418,11.4136,-12.7563,81,1.1235,0,14.1005,38.7421,25,0.8554,7888,4.0304,-79.1701
rg,1625496571241541641,1,0.0664,0.6162,0.8423,561,4.0894,11.3525,-14.0381,81,1.1225,0,14.1089,38.7293,25,0.8584,7908,4.0304,-79.3607
rg,1625496571241557821,1,0.0579,0.6167,0.8398,562,3.54,11.3525,-12.8784,81,1.1205,0,14.1063,38.7319,25,0.8574,7931,4.0304,-79.5061
rg,1625496571241574075,1,0.0596,0.6138,0.8354,563,3.7842,11.2915,-13.855,81,1.1225,0,14.1221,38.7366,25,0.8584,7921,4.0304,-79.6842
rg,1625496571241590089,1,0.0605,0.6204,0.8301,564,3.0518,11.2915,-13.6108,81,1.1235,0,14.129,38.7329,25,0.8574,9958,4.0304,-79.8499
rg,1625496571241606140,1,0.0603,0.6169,0.833,565,3.1128,10.2539,-13.0005,81,1.1225,0,14.0888,38.72,25,0.8584,8031,4.0304,-80.0253
rg,1625496571241622357,1,0.0635,0.6177,0.833,566,2.9297,10.6812,-13.0005,81,1.1225,0,14.0567,38.7045,25,0.8584,11984,4.0304,-80.1892
rg,1625496571241638759,1,0.0681,0.6211,0.8384,567,3.1128,10.6201,-13.2446,81,1.1225,0,14.0212,38.6936,25,0.8584,7970,4.0304,-80.3627
rg,1625496571241654884,1,0.0649,0.6206,0.833,568,3.2349,10.376,-13.0615,81,1.1225,0,13.9808,38.6944,25,0.8584,8041,4.0304,-80.535
rg,1625496571241671083,1,0.0696,0.6206,0.8298,569,3.7231,11.2305,-13.3057,81,1.1225,0,13.9647,38.7224,25,0.8584,8060,4.0304,-80.692
rg,1625496571241743949,1,0.0635,0.6157,0.835,570,3.2959,11.3525,-14.5874,81,1.1225,0,13.998,38.7073,25,0.8594,8067,4.0304,-80.8907
rg,1625496571241763443,1,0.0613,0.614,0.8359,571,3.6011,11.3525,-13.4888,81,1.1235,0,13.9992,38.7313,25,0.8584,9014,4.0304,-81.0562
rg,1625496571241781771,1,0.0603,0.6184,0.8376,572,3.8452,11.4746,-13.855,81,1.1215,0,14.0237,38.7454,25,0.8574,8141,4.0304,-81.2281
rg,1625496571241798895,1,0.0576,0.616,0.8337,573,3.9673,11.5356,-13.1836,81,1.1235,0,14.0376,38.7702,25,0.8584,8135,4.0304,-81.3766
rg,1625496571241815539,1,0.0559,0.6174,0.8354,574,3.6621,12.146,-14.0381,81,1.1245,0,14.0669,38.7905,25,0.8604,8187,4.0304,-81.5407
rg,1625496571241831959,1,0.054,0.6208,0.8354,575,3.479,11.1084,-13.0615,81,1.1215,0,14.0709,38.7987,25,0.8574,8222,4.0304,-81.6948
rg,1625496571241848547,1,0.053,0.6162,0.8333,576,4.0283,11.1694,-13.4277,81,1.1235,0,14.0875,38.8206,25,0.8564,8185,4.0304,-81.8604
rg,1625496571596908955,1,0.0588,0.6155,0.825,577,3.1128,10.437,-13.3667,81,1.1225,0,14.0637,38.8246,25,0.8584,25014,4.0304,-82.0372
rg,1625496571596941649,1,0.0642,0.6233,0.8318,578,2.9907,11.3525,-13.9771,81,1.1225,0,14.0768,38.8158,25,0.8584,9868,4.0304,-82.2119
rg,1625496571596961957,1,0.0608,0.616,0.833,579,2.9907,10.437,-13.0615,81,1.1235,0,14.0449,38.794,25,0.8594,7761,4.0304,-82.3847
rg,1625496571596980618,1,0.0598,0.6211,0.8337,580,4.0894,10.2539,-12.8784,81,1.1225,0,14.0063,38.8254,25,0.8594,7626,4.0304,-82.5543
rg,1625496571596998298,1,0.0632,0.615,0.833,581,3.7842,11.2305,-12.8784,81,1.1225,0,13.9921,38.8397,25,0.8584,7797,4.0304,-82.7008
rg,1625496571597015256,1,0.0583,0.6157,0.8379,582,3.3569,11.2305,-13.6108,81,1.1225,0,14.0074,38.8254,25,0.8594,8067,4.0304,-82.8721
rg,1625496571597032750,1,0.0615,0.6157,0.8374,583,3.7842,11.7188,-14.0991,81,1.1225,0,14.0429,38.8286,25,0.8594,8175,4.0304,-83.0463
rg,1625496571597050097,1,0.0586,0.6204,0.8318,584,3.6011,11.2915,-14.1602,81,1.1235,0,14.0677,38.8195,25,0.8594,8599,4.0304,-83.234
rg,1625496571597084845,1,0.0598,0.6211,0.8364,585,4.2725,11.2915,-13.3667,88,1.1185,0,14.073,38.8562,25,0.8584,8034,4.0238,-83.3933
rg,1625496571597102229,1,0.0535,0.6152,0.8359,586,2.6855,11.2915,-13.7939,88,1.1245,0,14.1017,38.8149,25,0.8584,8051,4.0238,-83.5687
rg,1625496571597118668,1,0.0532,0.6167,0.8391,587,4.0283,11.2305,-13.1226,88,1.1245,0,14.1001,38.8272,25,0.8584,8083,4.0238,-83.7258
rg,1625496571597135145,1,0.0586,0.6211,0.8389,588,3.9062,11.3525,-13.916,88,1.1235,0,14.1225,38.8418,25,0.8594,11135,4.0238,-83.9019
rg,1625496571597151529,1,0.0583,0.6216,0.8394,589,3.3569,11.2915,-14.0991,88,1.1225,0.001,14.1475,38.8321,25,0.8594,8251,4.0238,-84.0855
rg,1625496571597168523,1,0.0588,0.6226,0.8347,590,3.6621,10.8032,-13.4888,88,1.1235,0,14.1396,38.8447,25,0.8594,7668,4.0238,-84.2603
rg,1625496571597185592,1,0.0593,0.6218,0.8384,591,3.1128,11.2915,-14.7705,88,1.1235,0,14.1786,38.8217,25,0.8594,9408,4.0238,-84.465
rg,1625496571597202161,1,0.0554,0.6196,0.8345,592,3.418,11.3525,-14.0991,88,1.1235,0,14.199,38.8268,25,0.8594,7897,4.0238,-84.6444
rg,1625496571597218545,1,0.0601,0.6243,0.8379,593,3.1128,11.4136,-12.8174,88,1.1215,0,14.1891,38.8255,25,0.8584,8653,4.0238,-84.7822
rg,1625496571597234892,1,0.062,0.6157,0.8352,594,3.0518,11.2915,-13.7329,88,1.1225,0,14.194,38.8021,25,0.8584,8480,4.0238,-84.9555
rg,1625496571597251054,1,0.0542,0.6199,0.8352,595,3.2959,11.4136,-14.4653,88,1.1235,0,14.2372,38.7916,25,0.8594,8273,4.0238,-85.1474
rg,1625496571597267345,1,0.0647,0.6199,0.832,596,3.6621,10.9863,-13.4888,88,1.1215,0,14.2189,38.8054,25,0.8584,7913,4.0238,-85.318
rg,1625496571597283581,1,0.0618,0.6182,0.8335,597,3.6011,11.4136,-14.2212,88,1.1205,0,14.2391,38.8081,25,0.8584,8698,4.0238,-85.5022
rg,1625496571597299817,1,0.0591,0.614,0.8318,598,3.6621,10.9253,-13.4277,88,1.1235,0,14.2287,38.8111,25,0.8594,7983,4.0238,-85.675
rg,1625496571597316200,1,0.0605,0.6174,0.8384,599,3.479,10.437,-12.3291,88,1.1225,0,14.2232,38.8191,25,0.8604,8769,4.0238,-85.8169
rg,1625496571597344544,1,0.061,0.6162,0.8376,600,3.6011,11.4136,-13.2446,88,1.1235,0,14.2207,38.8199,25,0.8594,8041,4.0238,-85.972
rg,1625496571597362575,1,0.062,0.6191,0.8372,601,3.6621,11.2915,-13.3667,88,1.1215,0,14.2155,38.8274,25,0.8584,9077,4.0238,-86.1327
rg,1625496571597379792,1,0.0547,0.616,0.8325,602,3.9062,11.5356,-13.5498,88,1.1235,0,14.2375,38.8448,25,0.8604,8084,4.0238,-86.2929
rg,1625496571597396454,1,0.0583,0.6187,0.8296,603,3.479,11.2305,-13.4277,88,1.1245,0,14.265,38.8508,25,0.8594,8189,4.0238,-86.481
rg,1625496571597412949,1,0.0591,0.6184,0.832,604,3.479,10.9863,-13.1226,88,1.1215,0,14.2482,38.8552,25,0.8584,8166,4.0238,-86.6405
rg,1625496571597429480,1,0.062,0.6145,0.832,605,3.6621,11.7188,-13.3667,88,1.1205,0,14.2547,38.8624,25,0.8584,8902,4.0238,-86.7905
rg,1625496571597445864,1,0.0579,0.6169,0.8335,606,3.9673,11.4746,-13.1836,88,1.1245,0,14.2576,38.8839,25,0.8594,8677,4.0238,-86.9403
rg,1625496571597462211,1,0.0627,0.6208,0.8354,607,3.8452,11.3525,-14.7095,88,1.1245,0.001,14.2814,38.9114,25,0.8604,8208,4.0238,-87.1282
rg,1625496571597478373,1,0.0601,0.625,0.8347,608,4.0894,11.2305,-13.9771,88,1.1215,0,14.2918,38.9409,25,0.8584,8081,4.0238,-87.3066
rg,1625496571944627113,1,0.0608,0.6226,0.8198,609,4.0894,11.3525,-13.0615,88,1.1235,0,14.2819,38.9826,25,0.8594,25765,4.0238,-87.451
rg,1625496571944675302,1,0.063,0.6179,0.8311,610,4.1504,11.4746,-12.3291,88,1.1235,0,14.2518,39.0186,25,0.8594,9236,4.0238,-87.572
rg,1625496571944696036,1,0.0659,0.6277,0.8264,611,3.479,11.3525,-13.0005,88,1.1235,-0.001,14.23,39.0443,25,0.8594,7650,4.0238,-87.7116
rg,1625496571944716660,1,0.0608,0.6174,0.8293,612,3.8452,11.9629,-13.0615,88,1.1235,0,14.2398,39.0647,25,0.8594,7505,4.0238,-87.8428
rg,1625496571944735561,1,0.0635,0.6208,0.8333,613,3.7231,12.207,-12.8784,88,1.1235,0,14.2748,39.0985,25,0.8594,7681,4.0238,-87.9472
rg,1625496571944754092,1,0.0618,0.6216,0.8342,614,4.2114,12.085,-11.9629,88,1.1235,0,14.2579,39.1417,25,0.8604,7683,4.0238,-88.0397
rg,1625496571944802004,1,0.0586,0.6172,0.8301,615,3.8452,12.5732,-11.7798,88,1.1235,0,14.258,39.1709,25,0.8604,7720,4.0238,-88.1141
rg,1625496571944823182,1,0.0508,0.6147,0.8352,616,4.3335,12.3901,-11.7188,88,1.1235,0,14.2777,39.1893,25,0.8604,7873,4.0238,-88.2156
rg,1625496571944842306,1,0.0571,0.6143,0.8398,617,3.9673,12.5732,-12.8174,88,1.1225,0,14.3073,39.1949,25,0.8584,7934,4.0238,-88.3276
rg,1625496571944861689,1,0.0593,0.6182,0.8318,618,4.5166,12.3901,-11.9019,88,1.1235,0,14.3018,39.2461,25,0.8594,7939,4.0238,-88.4109
rg,1625496571944894142,1,0.0532,0.6128,0.8384,619,5.0049,12.8174,-12.3291,88,1.1245,0,14.3337,39.2955,25,0.8614,9861,4.0238,-88.501
rg,1625496571944913451,1,0.0525,0.6182,0.835,620,4.7607,11.5356,-12.5732,88,1.1245,0,14.3307,39.3324,25,0.8614,7812,4.0238,-88.6303
rg,1625496571944932334,1,0.0527,0.6157,0.8398,621,4.0283,12.9395,-13.4277,88,1.1195,0,14.3944,39.335,25,0.8584,7804,4.0238,-88.7513
rg,1625496571944951125,1,0.0583,0.615,0.832,622,4.2725,11.6577,-12.0239,88,1.1245,0,14.3683,39.3592,25,0.8614,7858,4.0238,-88.8591
rg,1625496571944968638,1,0.052,0.615,0.8347,623,5.188,11.5356,-12.8174,88,1.1225,0,14.373,39.4083,25,0.8594,7979,4.0238,-88.9962
rg,1625496571944986780,1,0.0571,0.6184,0.8311,624,5.0659,11.2305,-12.146,88,1.1235,0,14.3404,39.4651,25,0.8594,7861,4.0238,-89.117
rg,1625496571945005738,1,0.0625,0.6177,0.8328,625,4.2725,11.3525,-12.5122,88,1.1235,0,14.3112,39.4825,25,0.8614,7985,4.0238,-89.247
rg,1625496571945025028,1,0.0591,0.6145,0.8342,626,4.4556,11.5356,-12.146,88,1.1215,0,14.2865,39.503,25,0.8594,7961,4.0238,-89.3623
rg,1625496571945042578,1,0.0576,0.6135,0.8376,627,4.6997,11.4746,-11.7188,88,1.1245,0,14.2534,39.5291,25,0.8604,7932,4.0238,-89.4671
rg,1625496571945060258,1,0.0627,0.6189,0.8308,628,4.2114,11.3525,-11.1694,88,1.1245,0,14.1928,39.5572,25,0.8614,8094,4.0238,-89.5529
rg,1625496571945077993,1,0.0618,0.6172,0.8381,629,5.4321,11.8408,-11.3525,88,1.1215,0,14.1569,39.6219,25,0.8594,8100,4.0238,-89.6346
rg,1625496571945119462,1,0.0593,0.6204,0.8328,630,5.0049,12.3901,-11.2305,88,1.1245,-0.001,14.1407,39.6844,25,0.8594,8023,4.0238,-89.6945
rg,1625496571945140641,1,0.0554,0.6208,0.8286,631,5.8594,12.2681,-11.4136,88,1.1235,0,14.134,39.783,25,0.8604,7855,4.0238,-89.7617
rg,1625496571945161042,1,0.0571,0.6187,0.8394,632,5.9814,11.7798,-10.6201,88,1.1225,0,14.0898,39.8672,25,0.8594,8049,4.0238,-89.8211
rg,1625496571945179388,1,0.0603,0.6226,0.8333,633,4.8218,11.7798,-11.7188,88,1.1255,0,14.0685,39.9088,25,0.8584,8090,4.0238,-89.9112
rg,1625496571945197808,1,0.0569,0.6255,0.8398,634,4.9438,12.5732,-11.8408,88,1.1245,0,14.0832,39.9543,25,0.8604,8230,4.0238,-89.9848
rg,1625496571945215433,1,0.0559,0.6228,0.8376,635,5.5542,11.3525,-10.8643,88,1.1245,0,14.0314,40.0327,25,0.8614,8697,4.0238,-90.0574
rg,1625496571945234001,1,0.0552,0.6216,0.8433,636,5.3711,12.8174,-11.7188,88,1.1235,0,14.0557,40.0815,25,0.8594,8199,4.0238,-90.1232
rg,1625496571945253014,1,0.0544,0.6243,0.8362,637,5.8594,11.9629,-10.7422,88,1.1245,-0.001,14.0289,40.1641,25,0.8614,8307,4.0238,-90.1774
rg,1625496571945271397,1,0.0532,0.6233,0.8396,638,5.4321,11.4136,-10.9253,88,1.1235,0,14.0462,40.2332,25,0.8604,8073,4.0238,-90.2564
rg,1625496571945289780,1,0.0557,0.6274,0.8381,639,5.4321,12.2681,-11.7188,88,1.1245,0,13.9964,40.278,25,0.8604,9910,4.0238,-90.3327
rg,1625496571945308626,1,0.0613,0.634,0.8411,640,5.7373,11.9019,-11.1694,88,1.1215,-0.001,13.968,40.3556,25,0.8594,8372,4.0238,-90.3987
rg,1625496572299634472,1,0.064,0.6382,0.8262,641,6.4087,13.2446,-9.9487,88,1.1235,0,13.9542,40.4949,25,0.8604,25570,4.0238,-90.3856
rg,1625496572299692956,1,0.0413,0.636,0.8308,642,5.8594,13.3057,-9.7046,88,1.1235,-0.001,13.9858,40.5842,25,0.8604,10595,4.0238,-90.3949
rg,1625496572299718948,1,0.0435,0.6326,0.8281,643,5.4932,12.9395,-9.7656,88,1.1235,0,13.9885,40.6724,25,0.8604,7495,4.0238,-90.3851
rg,1625496572299760121,1,0.0527,0.6257,0.8218,644,4.8828,11.3525,-9.2773,88,1.1235,0,13.9105,40.7229,25,0.8604,7738,4.0238,-90.4035
rg,1625496572299784818,1,0.0461,0.6199,0.8232,645,4.7607,11.4136,-9.2163,88,1.1235,0,13.8495,40.7548,25,0.8604,7642,4.0238,-90.4212
rg,1625496572299821382,1,0.0527,0.6155,0.8213,646,4.8828,11.4136,-8.606,88,1.1245,0,13.7607,40.7897,25,0.8604,7715,4.0238,-90.4209
rg,1625496572299841968,1,0.0569,0.6177,0.822,647,4.6997,12.085,-9.8267,88,1.1225,0,13.7189,40.8143,25,0.8594,10544,4.0238,-90.4395
rg,1625496572299861592,1,0.0544,0.6167,0.8276,648,5.9814,11.2915,-9.7046,88,1.1245,0,13.6572,40.8755,25,0.8614,7769,4.0238,-90.4778
rg,1625496572299880902,1,0.0532,0.6145,0.8318,649,6.1646,11.2305,-9.7046,88,1.1225,0,13.599,40.9317,25,0.8604,7735,4.0238,-90.5198
rg,1625496572299898619,1,0.0596,0.6152,0.8303,650,6.8359,10.0708,-9.9487,88,1.1245,0,13.5011,41.0069,25,0.8614,7732,4.0238,-90.5997
rg,1625496572299916280,1,0.0698,0.6211,0.8315,651,7.2021,10.1318,-9.8877,88,1.1245,0,13.42,41.0861,25,0.8614,7811,4.0238,-90.6865
rg,1625496572299935645,1,0.0703,0.627,0.8379,652,6.958,11.4136,-11.4136,88,1.1215,-0.001,13.3869,41.1693,25,0.8604,7809,4.0238,-90.7719
rg,1625496572299954566,1,0.0708,0.6238,0.8374,653,7.2632,11.3525,-12.146,88,1.1245,0,13.3714,41.2509,25,0.8624,7713,4.0238,-90.8825
rg,1625496572299973727,1,0.071,0.6272,0.8423,654,7.4463,11.3525,-12.5122,88,1.1245,-0.001,13.3425,41.359,25,0.8624,7908,4.0238,-90.9983
rg,1625496572299993702,1,0.0774,0.637,0.8328,655,7.2632,11.4136,-12.146,88,1.1205,0,13.3174,41.4636,25,0.8604,7721,4.0238,-91.0996
rg,1625496572300013160,1,0.073,0.6353,0.8259,656,7.2632,10.6812,-11.2915,88,1.1245,0,13.2571,41.5719,25,0.8604,7881,4.0238,-91.193
rg,1625496572300031729,1,0.062,0.637,0.8269,657,7.0801,11.2305,-10.9863,88,1.1235,0,13.2304,41.6759,25,0.8604,9909,4.0238,-91.2613
rg,1625496572300050001,1,0.053,0.6294,0.8284,658,7.2021,10.7422,-10.6201,88,1.1235,0,13.1993,41.765,25,0.8614,11517,4.0238,-91.335
rg,1625496572300067663,1,0.0549,0.624,0.8291,659,7.8735,9.1553,-10.498,88,1.1235,0,13.1151,41.8579,25,0.8614,8053,4.0238,-91.4508
rg,1625496572300086972,1,0.0603,0.6309,0.8311,660,8.2397,7.2632,-9.7656,88,1.1235,0,12.948,41.965,25,0.8614,8046,4.0238,-91.5936
rg,1625496572300631686,1,0.0669,0.6221,0.8416,661,8.7891,7.2021,-8.7891,88,1.1235,0,12.7468,42.0672,25,0.8614,8046,4.0238,-91.7145
rg,1625496572300662677,1,0.0632,0.6262,0.8267,662,10.8643,8.4839,-9.9487,88,1.1235,0,12.6284,42.2756,25,0.8614,8044,4.0238,-91.8285
rg,1625496572300690798,1,0.063,0.6367,0.8284,663,11.0474,7.6904,-8.2397,88,1.1245,0,12.4478,42.5049,25,0.8604,8891,4.0238,-91.9091
rg,1625496572300713459,1,0.0608,0.6311,0.8289,664,10.8643,8.4229,-8.3008,88,1.1235,0,12.3008,42.713,25,0.8604,8123,4.0238,-91.9725
rg,1625496572300734453,1,0.0596,0.625,0.8284,665,10.8643,7.0801,-6.7139,88,1.1245,0,12.0797,42.9054,25,0.8614,8168,4.0238,-92.0275
rg,1625496572300759297,1,0.0596,0.6262,0.8223,666,10.9253,8.667,-6.3477,88,1.1255,0,11.9491,43.0956,25,0.8624,8174,4.0238,-92.0494
rg,1625496572300863952,1,0.0618,0.6223,0.8301,667,10.8643,8.9111,-6.5308,88,1.1225,0,11.7854,43.278,25,0.8604,8226,4.0238,-92.0481
rg,1625496572300885483,1,0.0662,0.6172,0.8284,668,10.9253,8.4839,-6.897,88,1.1245,0,11.616,43.4444,25,0.8604,8196,4.0238,-92.0703
rg,1625496572300904071,1,0.0725,0.6223,0.8411,669,10.9863,8.4229,-6.4697,88,1.1235,0,11.4417,43.6309,25,0.8624,8214,4.0238,-92.0933
rg,1625496572300923491,1,0.0723,0.6255,0.8379,670,12.2681,8.8501,-7.2021,88,1.1225,0,11.2932,43.8398,25,0.8604,8276,4.0238,-92.1122
rg,1625496572300944152,1,0.0601,0.623,0.8364,671,13.6719,9.3384,-7.0801,88,1.1245,0,11.1864,44.0974,25,0.8604,8325,4.0238,-92.1135
rg,1625496572300965164,1,0.0476,0.6287,0.8264,672,15.0757,8.4839,-6.6528,88,1.1255,0,11.0726,44.4218,25,0.8624,8304,4.0238,-92.1216
rg,1625496572644247092,1,0.0708,0.6423,0.8223,673,17.0288,4.2725,-6.5918,88,1.1245,0,10.7933,44.8188,25,0.8624,25199,4.0238,-92.2425
rg,1625496572644286248,1,0.0671,0.6248,0.8508,674,18.7378,4.1504,-5.9814,88,1.1245,0,10.5158,45.2034,25,0.8624,13515,4.0238,-92.3617
rg,1625496572644306612,1,0.0476,0.6357,0.8516,675,22.583,2.3193,-5.0049,88,1.1245,0,10.2117,45.7401,25,0.8624,9164,4.0238,-92.5024
rg,1625496572644339899,1,0.04,0.6443,0.8467,676,23.3154,0.9155,-6.2866,88,1.1245,0,9.934,46.293,25,0.8624,7659,4.0238,-92.7164
rg,1625496572644359560,1,0.0515,0.6453,0.8342,677,24.9023,-4.2114,-3.7842,88,1.1245,0,9.4311,46.8934,25,0.8624,7614,4.0238,-93.0092
rg,1625496572644378295,1,0.0603,0.6562,0.8271,678,24.6582,-5.127,-3.7231,88,1.1245,0,8.8678,47.5475,25,0.8624,7783,4.0238,-93.2954
rg,1625496572644396198,1,0.0657,0.6606,0.8167,679,26.062,-6.897,-1.709,88,1.1235,0,8.2476,48.1961,25,0.8624,8406,4.0238,-93.6056
rg,1625496572644415211,1,0.0679,0.6677,0.792,680,25.0244,-7.5684,-1.9531,88,1.1245,0,7.5653,48.877,25,0.8624,11228,4.0238,-93.9445
rg,1625496572644439037,1,0.0818,0.6707,0.7886,681,24.4751,-9.5215,-0.9155,88,1.1245,0,6.8724,49.4651,25,0.8634,7795,4.0238,-94.3072
rg,1625496572644456865,1,0.0977,0.6631,0.7876,682,23.1323,-12.0239,-0.5493,88,1.1245,0,6.0993,49.9625,25,0.8634,7738,4.0238,-94.7385
rg,1625496572644656086,1,0.1003,0.6675,0.7805,683,22.0947,-13.4277,0.4883,88,1.1245,0,5.2854,50.4205,25,0.8634,7791,4.0238,-95.1833
rg,1625496572644681282,1,0.1172,0.6765,0.7727,684,21.6675,-13.4277,-2.0142,88,1.1245,0,4.547,50.8703,25,0.8634,7768,4.0238,-95.6876
rg,1625496572644700684,1,0.1404,0.6707,0.7683,685,21.1182,-15.0146,-0.4272,88,1.1245,0,3.7004,51.2847,25,0.8624,10008,4.0238,-96.1997
rg,1625496572644719734,1,0.1436,0.6758,0.7644,686,20.752,-12.8784,-1.5869,88,1.1235,-0.001,2.9722,51.6914,25,0.8634,8269,4.0238,-96.6699
rg,1625496572644739303,1,0.1553,0.6799,0.7646,687,19.8364,-12.085,-1.5259,88,1.1235,0,2.2685,52.0597,25,0.8624,7747,4.0238,-97.1104
rg,1625496572644770016,1,0.1567,0.6711,0.7544,688,19.5312,-10.0708,-2.0752,88,1.1255,0,1.6534,52.4092,25,0.8644,7978,4.0238,-97.4971
rg,1625496572644788307,1,0.1621,0.6604,0.7507,689,19.5312,-8.9722,-2.9907,88,1.1266,0,1.105,52.7376,25,0.8644,8100,4.0238,-97.8682
rg,1625496572644806265,1,0.166,0.6721,0.7522,690,19.2261,-9.4604,-2.8687,88,1.1235,0,0.5586,53.0615,25,0.8634,8113,4.0238,-98.2482
rg,1625496572644850808,1,0.1741,0.6646,0.75,691,19.8364,-9.8877,-4.0894,88,1.1266,0,0.0445,53.3922,25,0.8634,8013,4.0238,-98.6678
rg,1625496572644869580,1,0.1726,0.6523,0.7454,692,19.7754,-8.9111,-3.9062,88,1.1266,0,-0.4315,53.6981,25,0.8644,8050,4.0238,-99.0479
rg,1625496572644887890,1,0.176,0.6555,0.7449,693,18.3716,-7.5684,-4.2725,88,1.1235,0.001,-0.851,53.945,25,0.8634,8167,4.0238,-99.3894
rg,1625496572644905292,1,0.1777,0.667,0.7263,694,19.043,-7.3853,-3.9062,88,1.1245,0,-1.2662,54.258,25,0.8634,8741,4.0238,-99.7137
rg,1625496572644923102,1,0.1787,0.6731,0.7327,695,17.9443,-7.2021,-2.0142,88,1.1235,0,-1.7199,54.5165,25,0.8634,9778,4.0238,-99.9846
rg,1625496572644941319,1,0.2046,0.6692,0.7261,696,18.0054,-5.3711,-3.1738,88,1.1255,0,-2.1345,54.7745,25,0.8654,8164,4.0238,-100.2191
rg,1625496572644959943,1,0.2075,0.6794,0.7317,697,17.7612,-4.0894,-2.8076,88,1.1255,-0.001,-2.484,55.0271,25,0.8654,8198,4.0238,-100.4012
rg,1625496572644980419,1,0.2041,0.6921,0.7256,698,16.4185,-2.5635,-3.3569,88,1.1245,0,-2.7896,55.2378,25,0.8644,8095,4.0238,-100.542
rg,1625496572644999376,1,0.2017,0.6853,0.7029,699,13.855,-0.1831,-4.2725,88,1.1266,0,-3.0027,55.3602,25,0.8654,8239,4.0238,-100.6231
rg,1625496572645600074,1,0.197,0.6951,0.6975,700,13.0005,0.8545,-4.3335,88,1.1266,0,-3.1254,55.4742,25,0.8654,8260,4.0238,-100.6954
rg,1625496572645622271,1,0.199,0.7024,0.7151,701,10.8643,1.709,-5.127,88,1.1235,0,-3.2398,55.4733,25,0.8644,8227,4.0238,-100.7299
rg,1625496572645642525,1,0.2261,0.7007,0.7175,702,10.9863,1.4648,-6.2256,88,1.1266,0.001,-3.3771,55.4751,25,0.8644,8289,4.0238,-100.796
rg,1625496572645663500,1,0.2603,0.7224,0.7261,703,11.8408,2.9907,-6.0425,88,1.1266,0,-3.5413,55.5308,25,0.8654,8167,4.0238,-100.8078
rg,1625496572645682384,1,0.2593,0.7156,0.7239,704,10.8643,6.7749,-6.7139,88,1.1286,-0.001,-3.5783,55.5204,25,0.8664,8347,4.0238,-100.7066
rg,1625496572993558640,1,0.1938,0.7161,0.7427,705,11.6577,18.9819,-9.5215,78,1.1255,0,-3.1364,55.563,25,0.8664,25789,4.0271,-100.2571
rg,1625496572993610273,1,0.1672,0.7158,0.7388,706,14.7705,17.334,-8.728,78,1.1255,0,-2.7032,55.6742,25,0.8654,8466,4.0271,-99.8539
rg,1625496572993633229,1,0.1592,0.7239,0.7485,707,14.2212,16.4795,-8.8501,78,1.1266,0,-2.2813,55.7606,25,0.8654,7671,4.0271,-99.4838
rg,1625496572993653316,1,0.1582,0.7173,0.7715,708,15.564,12.6953,-7.2632,78,1.1255,0,-2.0077,55.8594,25,0.8664,7652,4.0271,-99.2043
rg,1625496572993672385,1,0.1702,0.7217,0.76,709,16.9678,10.9863,-7.1411,78,1.1266,0,-1.8412,56.0874,25,0.8664,7665,4.0271,-99.0214
rg,1625496572993690731,1,0.1697,0.7349,0.7595,710,18.6157,8.3008,-6.7749,78,1.1255,0,-1.7222,56.3458,25,0.8664,7703,4.0271,-98.8792
rg,1625496572993708837,1,0.1646,0.7422,0.7434,711,18.1885,5.5542,-5.9814,78,1.1255,0,-1.6863,56.6136,25,0.8654,7958,4.0271,-98.8112
rg,1625496572993727369,1,0.1812,0.7593,0.7319,712,16.0522,2.6855,-4.3945,78,1.1266,0,-1.8005,56.8309,25,0.8664,8072,4.0271,-98.8044
rg,1625496572993744827,1,0.1611,0.8027,0.6819,713,14.2822,1.8311,-2.9297,78,1.1276,0,-1.9992,56.9865,25,0.8664,7705,4.0271,-98.7557
rg,1625496572993763007,1,0.1553,0.8145,0.6711,714,6.4087,0.4272,0.9155,78,1.1245,0,-2.2729,56.9742,25,0.8654,8064,4.0271,-98.7114
rg,1625496572993782150,1,0.1577,0.7852,0.6738,715,-3.3569,-4.8218,1.9531,78,1.1276,-0.001,-2.6963,56.5344,25,0.8664,7674,4.0271,-98.8163
rg,1625496572993801292,1,0.158,0.783,0.6873,716,-8.4839,-7.019,3.54,78,1.1276,0,-3.2019,55.8792,25,0.8674,7658,4.0271,-98.9545
rg,1625496572993818491,1,0.1736,0.7727,0.6863,717,-15.7471,-12.2681,5.188,78,1.1276,-0.001,-3.8998,54.9626,25,0.8654,7802,4.0271,-99.2226
rg,1625496572993836875,1,0.219,0.7341,0.708,718,-20.813,-16.9678,6.8359,78,1.1276,-0.001,-4.8396,53.8032,25,0.8664,7653,4.0271,-99.5892
rg,1625496572993855351,1,0.2378,0.7178,0.7158,719,-21.9116,-15.7471,6.3477,78,1.1245,0,-5.7483,52.6114,25,0.8654,7851,4.0271,-99.9105
rg,1625496572993873235,1,0.2268,0.6846,0.7268,720,-22.4609,-13.0615,4.1504,78,1.1276,-0.001,-6.4784,51.3745,25,0.8644,7887,4.0271,-100.1814
rg,1625496572993891174,1,0.2112,0.6558,0.731,721,-21.9116,-12.5122,3.1738,78,1.1255,-0.001,-7.077,50.2193,25,0.8684,7772,4.0271,-100.5067
rg,1625496572993941770,1,0.2136,0.6497,0.7156,722,-18.3105,-13.3667,0.4883,78,1.1255,0,-7.649,49.2172,25,0.8664,7913,4.0271,-100.8638
rg,1625496572993964357,1,0.2346,0.6538,0.6873,723,-14.5874,-13.6719,-2.4414,78,1.1276,0,-8.1794,48.4705,25,0.8674,7883,4.0271,-101.3119
rg,1625496572993982018,1,0.2295,0.6545,0.686,724,-12.8784,-12.3291,-3.7842,78,1.1266,0,-8.6078,47.8352,25,0.8684,7938,4.0271,-101.7569
rg,1625496572993999347,1,0.2346,0.6514,0.6711,725,-11.6577,-10.0708,-6.8359,78,1.1245,0,-8.8914,47.2891,25,0.8654,7979,4.0271,-102.2196
rg,1625496572994018137,1,0.2451,0.665,0.6494,726,-11.5356,-7.3853,-9.3384,78,1.1255,0,-9.0487,46.8292,25,0.8674,7995,4.0271,-102.683
rg,1625496572994035762,1,0.2437,0.6655,0.6501,727,-12.0239,-5.6763,-11.5356,78,1.1266,0,-9.1002,46.3333,25,0.8674,8001,4.0271,-103.1545
rg,1625496572994054960,1,0.2246,0.6328,0.6829,728,-10.3149,2.3193,-15.625,78,1.1266,0,-8.7616,45.8312,25,0.8674,8150,4.0271,-103.4996
rg,1625496572994072270,1,0.2202,0.6228,0.7043,729,-8.3618,3.1738,-15.564,78,1.1276,-0.001,-8.4109,45.4726,25,0.8674,8077,4.0271,-103.8267
rg,1625496572994089432,1,0.2253,0.6284,0.7097,730,-2.9297,3.2349,-17.4561,78,1.1266,0,-8.0191,45.2485,25,0.8674,7943,4.0271,-104.2029
rg,1625496572994106871,1,0.2305,0.6501,0.7007,731,1.2817,4.4556,-19.3481,78,1.1266,0,-7.5625,45.2531,25,0.8674,8169,4.0271,-104.6083
rg,1625496572994124662,1,0.2261,0.6597,0.7119,732,2.3193,6.1035,-20.2637,78,1.1266,0,-7.06,45.3762,25,0.8674,8223,4.0271,-104.9729
rg,1625496572994142250,1,0.2253,0.6682,0.7141,733,6.4087,6.1035,-19.3481,78,1.1266,-0.001,-6.5709,45.5766,25,0.8664,9715,4.0271,-105.3299
rg,1625496572994159930,1,0.2207,0.6851,0.7075,734,7.6294,6.5918,-19.7754,78,1.1255,0,-6.0603,45.852,25,0.8654,8153,4.0271,-105.6859
rg,1625496572994177962,1,0.2417,0.7112,0.7104,735,7.9346,5.0659,-18.8599,78,1.1266,0,-5.6716,46.1647,25,0.8654,8294,4.0271,-106.0599
rg,1625496572994195087,1,0.2798,0.7175,0.7305,736,7.2632,4.9438,-18.0664,78,1.1276,0,-5.3919,46.4137,25,0.8674,8321,4.0271,-106.4087
rg,1625496573341818190,1,0.3083,0.7429,0.7502,737,4.1504,8.3618,-16.7236,78,1.1266,0,-5.1081,46.4618,25,0.8674,25624,4.0271,-106.6227
rg,1625496573341853976,1,0.3352,0.759,0.7625,738,-1.8311,11.6577,-15.5029,78,1.1276,0,-4.8185,46.325,25,0.8674,8549,4.0271,-106.703
rg,1625496573341874119,1,0.3372,0.7449,0.7739,739,-6.4087,16.1743,-14.7705,78,1.1276,0,-4.442,45.9617,25,0.8674,7623,4.0271,-106.632
rg,1625496573341893077,1,0.3154,0.7332,0.7734,740,-7.9346,17.8833,-13.1836,78,1.1276,0,-3.9727,45.4568,25,0.8674,9046,4.0271,-106.4363
rg,1625496573341910832,1,0.2844,0.7246,0.7708,741,-10.7422,18.9819,-13.3057,78,1.1276,0,-3.4989,44.9212,25,0.8674,7622,4.0271,-106.2604
rg,1625496573341928679,1,0.2683,0.7139,0.7507,742,-13.855,16.4795,-11.1084,78,1.1276,0,-3.154,44.2965,25,0.8674,7842,4.0271,-106.1044
rg,1625496573341946544,1,0.271,0.7061,0.7451,743,-15.3809,15.0146,-10.0098,78,1.1286,0,-2.9171,43.6226,25,0.8684,7858,4.0271,-105.967
rg,1625496573341964225,1,0.2761,0.6782,0.7429,744,-18.1885,13.0005,-8.1177,78,1.1266,0,-2.8061,42.8333,25,0.8664,7699,4.0271,-105.8384
rg,1625496573341981331,1,0.2688,0.6499,0.7458,745,-20.4468,14.4653,-8.728,78,1.1286,0,-2.6324,41.9332,25,0.8684,7863,4.0271,-105.6958
rg,1625496573341998289,1,0.2612,0.6333,0.7434,746,-19.7144,15.1367,-8.7891,78,1.1255,0,-2.4328,41.0726,25,0.8664,7711,4.0271,-105.5483
rg,1625496573342014581,1,0.2546,0.6196,0.7395,747,-18.7378,15.3809,-10.376,78,1.1276,0,-2.1827,40.2689,25,0.8664,7744,4.0271,-105.4537
rg,1625496573342031244,1,0.2522,0.6182,0.7432,748,-17.8223,14.8926,-9.3994,78,1.1286,0,-1.9195,39.5263,25,0.8674,7797,4.0271,-105.3926
rg,1625496573342047406,1,0.2578,0.6191,0.7397,749,-16.1133,15.0757,-10.9253,78,1.1266,0,-1.6897,38.8879,25,0.8664,7760,4.0271,-105.3446
rg,1625496573342063957,1,0.2656,0.6438,0.7219,750,-14.9536,18.0054,-11.6577,78,1.1276,0,-1.2942,38.3599,25,0.8674,12528,4.0271,-105.2048
rg,1625496573342151785,1,0.2585,0.6497,0.7358,751,-15.8081,21.6064,-11.7798,78,1.1286,0,-0.8547,37.8349,25,0.8684,7842,4.0271,-105.0393
rg,1625496573342174779,1,0.2485,0.6194,0.7568,752,-15.8081,23.2544,-12.3291,78,1.1286,0,-0.3459,37.2493,25,0.8674,7864,4.0271,-104.8583
rg,1625496573342193515,1,0.2473,0.6165,0.7769,753,-14.8926,23.2544,-12.5732,78,1.1286,0,0.1823,36.7502,25,0.8674,7903,4.0271,-104.7431
rg,1625496573342211676,1,0.2451,0.6157,0.7971,754,-12.0239,21.9727,-13.2446,78,1.1286,0,0.6566,36.2983,25,0.8674,7914,4.0271,-104.6404
rg,1625496573342229486,1,0.2534,0.6133,0.8027,755,-8.0566,21.7285,-14.0991,78,1.1286,0,1.11,36.0106,25,0.8684,8127,4.0271,-104.5779
rg,1625496573342248074,1,0.248,0.6099,0.8115,756,-3.8452,21.6675,-15.3809,78,1.1276,0,1.5876,35.8839,25,0.8684,8133,4.0271,-104.5627
rg,1625496573342265699,1,0.2375,0.614,0.8225,757,-1.4038,22.1558,-17.0288,78,1.1276,0,2.128,35.8513,25,0.8674,7981,4.0271,-104.5913
rg,1625496573342283139,1,0.2346,0.6184,0.8191,758,2.1362,20.4468,-17.0898,78,1.1296,0,2.5998,35.9711,25,0.8674,8037,4.0271,-104.6612
rg,1625496573342301449,1,0.2202,0.6252,0.8142,759,5.249,18.6768,-18.4937,78,1.1296,0,3.0593,36.2241,25,0.8684,8059,4.0271,-104.8147
rg,1625496573342319870,1,0.2158,0.6304,0.8137,760,6.7749,18.4937,-18.4937,78,1.1276,0,3.5061,36.5363,25,0.8674,8078,4.0271,-104.9673
rg,1625496573342337013,1,0.2087,0.6445,0.7954,761,8.606,16.3574,-16.4795,78,1.1296,0,3.8326,36.9584,25,0.8674,8096,4.0271,-105.0981
rg,1625496573342353675,1,0.2112,0.6565,0.7866,762,8.3618,14.6484,-17.5781,78,1.1296,0,4.1153,37.3809,25,0.8684,8149,4.0271,-105.297
rg,1625496573342370208,1,0.2087,0.6572,0.79,763,8.4839,14.5264,-17.7612,78,1.1276,0,4.3953,37.7871,25,0.8674,8257,4.0271,-105.4992
rg,1625496573342386666,1,0.1987,0.6567,0.7874,764,8.3618,12.207,-17.8833,78,1.1296,0,4.6159,38.1705,25,0.8674,8160,4.0271,-105.757
rg,1625496573342402940,1,0.2083,0.6663,0.782,765,8.3618,9.0332,-16.7847,78,1.1296,0,4.6847,38.5582,25,0.8694,8218,4.0271,-106.0531
rg,1625496573342432932,1,0.2153,0.6711,0.78,766,6.958,7.6294,-16.0522,78,1.1296,0,4.6636,38.8763,25,0.8694,8171,4.0271,-106.3579
rg,1625496573342461480,1,0.2219,0.6599,0.7893,767,6.897,6.7749,-16.4185,78,1.1276,0,4.6277,39.1542,25,0.8674,8235,4.0271,-106.6951
rg,1625496573342478586,1,0.2197,0.6643,0.7737,768,6.8359,6.1646,-16.9678,78,1.1296,0,4.5906,39.4458,25,0.8694,8284,4.0271,-107.0603
rg,1625496573695533511,1,0.2346,0.6731,0.7673,769,5.7373,2.7466,-17.5171,78,1.1296,0,4.426,39.7025,25,0.8684,27434,4.0271,-107.5255
rg,1625496573695570093,1,0.2419,0.6758,0.7727,770,4.2114,3.9062,-16.6016,78,1.1296,0,4.2748,39.8301,25,0.8694,8432,4.0271,-107.9326
rg,1625496573695589792,1,0.2407,0.6655,0.7812,771,2.1362,4.2725,-16.4185,78,1.1296,0,4.1432,39.8999,25,0.8694,7772,4.0271,-108.325
rg,1625496573695608842,1,0.2375,0.6487,0.7822,772,1.8311,4.6997,-16.5405,78,1.1296,0,4.0349,39.9268,25,0.8694,10308,4.0271,-108.7116
rg,1625496573695629152,1,0.2466,0.6543,0.7708,773,2.6855,4.8828,-16.3574,78,1.1296,0,3.9113,40.0138,25,0.8694,7660,4.0271,-109.0858
rg,1625496573695648443,1,0.2417,0.6462,0.771,774,2.7466,4.9438,-16.8457,78,1.1296,0,3.8063,40.0855,25,0.8694,7986,4.0271,-109.4737
rg,1625496573695666586,1,0.2444,0.6392,0.7771,775,3.7231,5.249,-16.5405,78,1.1286,0,3.7104,40.1752,25,0.8694,8000,4.0271,-109.8451
rg,1625496573695684303,1,0.2393,0.6484,0.7686,776,5.127,6.897,-16.6626,78,1.1296,0,3.6823,40.348,25,0.8694,7613,4.0271,-110.175
rg,1625496573695700984,1,0.2444,0.6509,0.7646,777,6.0425,6.1646,-16.1133,78,1.1296,0,3.6089,40.5606,25,0.8694,8111,4.0271,-110.505
rg,1625496573695717554,1,0.2478,0.658,0.7532,778,4.5166,6.5918,-15.686,78,1.1306,0,3.5322,40.7344,25,0.8684,7812,4.0271,-110.8073
rg,1625496573695772483,1,0.2488,0.6672,0.7598,779,4.0283,7.5684,-16.1133,78,1.1296,0,3.5032,40.8891,25,0.8694,8070,4.0271,-111.095
rg,1625496573695791015,1,0.2432,0.6726,0.7598,780,3.3569,7.6294,-16.3574,78,1.1286,0,3.4973,41.0196,25,0.8694,8431,4.0271,-111.3866
rg,1625496573695807307,1,0.2446,0.6711,0.7695,781,1.8921,7.3242,-15.0757,78,1.1306,0,3.4494,41.0723,25,0.8684,7731,4.0271,-111.6474
rg,1625496573695823488,1,0.2402,0.666,0.7732,782,0.7935,7.6294,-14.7705,78,1.1296,0,3.4131,41.0667,25,0.8694,8210,4.0271,-111.8913
rg,1625496573695839984,1,0.2383,0.6599,0.7788,783,0.1221,7.6294,-15.3198,78,1.1276,0,3.3966,41.0157,25,0.8684,8123,4.0271,-112.1528
rg,1625496573695856516,1,0.2407,0.6567,0.7759,784,-0.2441,7.3242,-15.686,78,1.1296,0,3.374,40.9498,25,0.8684,8120,4.0271,-112.4339
rg,1625496573695874252,1,0.2412,0.6418,0.7783,785,-0.1221,7.5073,-15.3198,78,1.1306,0,3.3432,40.8641,25,0.8704,8554,4.0271,-112.7014
rg,1625496573695891211,1,0.2322,0.6418,0.7756,786,-0.4272,8.1787,-16.2964,78,1.1306,0,3.3464,40.8243,25,0.8704,8569,4.0271,-112.9688
rg,1625496573695908391,1,0.2344,0.6387,0.7827,787,1.0376,7.0801,-15.2588,78,1.1286,0,3.3164,40.7776,25,0.8694,8189,4.0271,-113.2474
rg,1625496573695925109,1,0.2322,0.6362,0.7651,788,2.9907,6.8359,-15.9302,78,1.1286,0,3.2952,40.8298,25,0.8684,10617,4.0271,-113.5519
rg,1625496573695941475,1,0.2405,0.637,0.7642,789,3.7842,6.2866,-16.0522,78,1.1266,0,3.2445,40.9135,25,0.8684,8651,4.0271,-113.874
rg,1625496573695957952,1,0.2476,0.6404,0.7605,790,5.188,7.3242,-16.4185,78,1.1306,0,3.2222,41.0622,25,0.8704,7923,4.0271,-114.1783
rg,1625496573695974688,1,0.2502,0.6418,0.7561,791,5.4932,7.3853,-16.3574,78,1.1306,0,3.1954,41.2284,25,0.8694,8394,4.0271,-114.4772
rg,1625496573695992239,1,0.2581,0.6487,0.7703,792,6.2866,8.3618,-16.6626,78,1.1286,0,3.1992,41.4105,25,0.8684,8351,4.0271,-114.7583
rg,1625496573696008846,1,0.2529,0.6475,0.7637,793,5.9204,9.7656,-17.6392,78,1.1316,0.001,3.2789,41.5786,25,0.8674,8742,4.0271,-115.0292
rg,1625496573696055055,1,0.2566,0.6489,0.7686,794,5.5542,10.6201,-16.7236,78,1.1296,0,3.3522,41.7239,25,0.8704,8304,4.0271,-115.2483
rg,1625496573696082752,1,0.251,0.6501,0.7708,795,5.9204,11.3525,-17.0288,78,1.1286,0,3.4658,41.8773,25,0.8684,8063,4.0271,-115.4556
rg,1625496573696101117,1,0.2568,0.6506,0.7729,796,6.2256,11.8408,-17.1509,78,1.1296,0.001,3.5824,42.035,25,0.8684,8824,4.0271,-115.6518
rg,1625496573696118742,1,0.2473,0.6494,0.7693,797,7.019,12.6343,-17.0898,78,1.1296,0,3.7345,42.2225,25,0.8704,8409,4.0271,-115.8229
rg,1625496573696136219,1,0.2361,0.6467,0.7734,798,7.019,12.6343,-16.1743,78,1.1296,0,3.9188,42.416,25,0.8704,8137,4.0271,-115.9934
rg,1625496573696153621,1,0.24,0.6487,0.7737,799,7.3242,12.5732,-16.3574,78,1.1286,0,4.0539,42.5941,25,0.8684,8494,4.0271,-116.1411
rg,1625496573696170765,1,0.2351,0.6521,0.7634,800,8.728,13.1836,-16.8457,78,1.1306,0,4.2228,42.8414,25,0.8684,8556,4.0271,-116.2832
rg,1625496574044866897,1,0.2361,0.6689,0.7556,801,6.1035,12.2681,-16.0522,78,1.1306,0,4.3606,43.0154,25,0.8704,26248,4.0271,-116.4216
rg,1625496574044912071,1,0.2234,0.6738,0.7727,802,4.8218,11.2305,-14.8926,78,1.1306,0,4.3988,43.096,25,0.8704,10213,4.0271,-116.5419
rg,1625496574044932714,1,0.239,0.6729,0.7786,803,3.479,10.7422,-14.7705,78,1.1306,0,4.4315,43.1264,25,0.8704,7654,4.0271,-116.6845
rg,1625496574044951764,1,0.2341,0.6611,0.7769,804,2.6245,11.4136,-14.8926,78,1.1306,0,4.4916,43.1058,25,0.8704,7668,4.0271,-116.8133
rg,1625496574044969538,1,0.2307,0.6577,0.7756,805,3.1738,11.2305,-15.0146,78,1.1306,0,4.553,43.103,25,0.8704,8019,4.0271,-116.9513
rg,1625496574044987015,1,0.2246,0.6565,0.7786,806,2.7466,11.2305,-15.8081,78,1.1306,0,4.6467,43.0749,25,0.8704,9462,4.0271,-117.1133
rg,1625496574045004529,1,0.2327,0.6501,0.7705,807,3.54,10.5591,-15.1978,78,1.1306,0,4.6797,43.0804,25,0.8694,7948,4.0271,-117.2761
rg,1625496574045022820,1,0.2319,0.6533,0.7578,808,4.3335,10.437,-14.7705,78,1.1316,0,4.6943,43.1415,25,0.8714,7719,4.0271,-117.428
rg,1625496574045065384,1,0.2271,0.6523,0.7617,809,4.8218,10.437,-14.8315,78,1.1296,0,4.7212,43.2123,25,0.8694,7714,4.0271,-117.5817
rg,1625496574045087341,1,0.2307,0.6584,0.7566,810,4.3335,9.5825,-14.8926,78,1.1316,0,4.7167,43.2764,25,0.8714,7803,4.0271,-117.7586
rg,1625496574045105948,1,0.2363,0.6577,0.7625,811,4.1504,9.0942,-14.3433,78,1.1316,0,4.6656,43.3203,25,0.8724,7761,4.0271,-117.9333
rg,1625496574045123869,1,0.2471,0.6582,0.761,812,4.0283,10.376,-15.8081,78,1.1276,0,4.6797,43.3615,25,0.8694,7824,4.0271,-118.1144
rg,1625496574045141309,1,0.2454,0.6577,0.7666,813,4.1504,10.6812,-15.3198,78,1.1306,0,4.6942,43.3989,25,0.8714,7797,4.0271,-118.2732
rg,1625496574045157768,1,0.238,0.6555,0.7671,814,3.6621,11.5967,-15.2588,78,1.1286,0,4.7474,43.413,25,0.8694,7885,4.0271,-118.4051
rg,1625496574045174652,1,0.2341,0.6545,0.7651,815,3.479,11.2915,-15.4419,78,1.1306,0,4.8018,43.4191,25,0.8694,7901,4.0271,-118.5506
rg,1625496574045191667,1,0.2324,0.6543,0.7673,816,4.2114,11.3525,-15.1978,78,1.1316,0,4.8534,43.4512,25,0.8714,7911,4.0271,-118.6876
rg,1625496574045207848,1,0.2317,0.6548,0.769,817,4.4556,11.2305,-14.4043,78,1.1296,0,4.88,43.4917,25,0.8694,7904,4.0271,-118.805
rg,1625496574045224547,1,0.2407,0.6545,0.7649,818,3.7231,11.2305,-13.855,78,1.1326,0,4.8706,43.5086,25,0.8684,7897,4.0271,-118.9055
rg,1625496574045241728,1,0.239,0.6521,0.7673,819,4.5166,11.5356,-15.0757,78,1.1306,0,4.8499,43.5251,25,0.8704,8031,4.0271,-119.0009
rg,1625496574045258372,1,0.2361,0.6516,0.7644,820,5.0049,11.4136,-14.6484,78,1.1306,0,4.8773,43.586,25,0.8704,8060,4.0271,-119.1194
rg,1625496574045275090,1,0.2368,0.6572,0.7673,821,4.7607,11.3525,-14.5874,78,1.1306,0,4.9221,43.6565,25,0.8704,8032,4.0271,-119.2442
rg,1625496574045291790,1,0.2422,0.6572,0.7654,822,5.249,11.6577,-15.0757,78,1.1306,0,4.9555,43.7297,25,0.8714,8027,4.0271,-119.3665
rg,1625496574045308397,1,0.2275,0.6558,0.761,823,5.3101,11.6577,-14.8926,78,1.1306,0,5.0105,43.8065,25,0.8704,8062,4.0271,-119.4825
rg,1625496574045342184,1,0.2295,0.6597,0.7539,824,6.1646,11.9019,-13.916,78,1.1306,0,5.0531,43.9405,25,0.8714,8133,4.0227,-119.6016
rg,1625496574045361790,1,0.2395,0.6648,0.7625,825,5.6763,11.2915,-14.7705,92,1.1306,0,5.0699,44.0364,25,0.8714,8229,4.0227,-119.7213
rg,1625496574045378231,1,0.238,0.6621,0.7695,826,5.7373,12.0239,-14.0381,92,1.1306,0,5.0958,44.1074,25,0.8714,10140,4.0227,-119.801
rg,1625496574045395689,1,0.2388,0.6606,0.7744,827,5.3711,12.3291,-14.8315,92,1.1276,0,5.1471,44.1631,25,0.8694,8198,4.0227,-119.8941
rg,1625496574045413370,1,0.2256,0.6538,0.7668,828,6.7749,12.6953,-15.5029,92,1.1306,0,5.2478,44.2708,25,0.8714,8266,4.0227,-119.9959
rg,1625496574045430292,1,0.2249,0.6558,0.7678,829,6.897,11.7798,-13.855,92,1.1306,0,5.2613,44.4038,25,0.8704,8233,4.0227,-120.081
rg,1625496574045447287,1,0.2292,0.6584,0.7693,830,6.958,12.5732,-14.7705,92,1.1296,0,5.3289,44.5155,25,0.8694,8267,4.0227,-120.1627
rg,1625496574045464042,1,0.2229,0.6511,0.7664,831,8.3618,12.085,-14.7095,92,1.1316,0,5.3885,44.6696,25,0.8704,8278,4.0227,-120.2562
rg,1625496574045481075,1,0.2251,0.6567,0.7671,832,8.9111,12.0239,-15.686,92,1.1316,0,5.4691,44.8453,25,0.8704,8282,4.0227,-120.3772
rg,1625496574399192853,1,0.2371,0.6589,0.7542,833,9.3384,11.5356,-15.564,92,1.1306,0,5.5363,45.0942,25,0.8714,25511,4.0227,-120.4801
rg,1625496574399256763,1,0.2332,0.6599,0.7588,834,9.8877,12.5122,-16.3574,92,1.1306,0,5.6265,45.3096,25,0.8714,12266,4.0227,-120.6005
rg,1625496574399286829,1,0.2251,0.6636,0.7578,835,10.0708,13.0005,-16.5405,92,1.1316,0,5.7498,45.5321,25,0.8714,7648,4.0227,-120.7094
rg,1625496574399316581,1,0.2295,0.6653,0.7605,836,10.8643,13.0005,-15.4419,92,1.1306,0,5.8271,45.7904,25,0.8714,7653,4.0227,-120.7845
rg,1625496574399344703,1,0.2251,0.6648,0.7585,837,10.8032,13.0005,-15.0146,92,1.1316,0,5.9005,46.0291,25,0.8714,7596,4.0227,-120.8462
rg,1625496574399372881,1,0.2244,0.6694,0.759,838,10.9253,13.6719,-15.9302,92,1.1306,0,6.0192,46.2699,25,0.8714,7687,4.0227,-120.9109
rg,1625496574399400597,1,0.218,0.6733,0.7585,839,10.9253,13.2446,-15.686,92,1.1306,0,6.0695,46.5078,25,0.8714,9244,4.0227,-120.9558
rg,1625496574399455879,1,0.2205,0.6726,0.7593,840,10.8643,12.9395,-15.5029,92,1.1296,0,6.1588,46.7317,25,0.8704,7722,4.0227,-121.0252
rg,1625496574399486112,1,0.2258,0.6746,0.7554,841,10.9253,13.0005,-15.1367,92,1.1306,0,6.2243,46.9599,25,0.8714,7721,4.0227,-121.0799
rg,1625496574399513272,1,0.2202,0.6765,0.7537,842,9.7046,13.9771,-16.2354,92,1.1316,0,6.3574,47.1362,25,0.8724,7787,4.0227,-121.1333
rg,1625496574399541228,1,0.2202,0.6746,0.7532,843,10.8032,12.3901,-15.9302,92,1.1316,0,6.4333,47.3428,25,0.8714,9853,4.0227,-121.2241
rg,1625496574399567129,1,0.2178,0.6829,0.7463,844,10.8032,12.6343,-14.9536,92,1.1316,0,6.4747,47.5423,25,0.8714,7763,4.0227,-121.2966
rg,1625496574399594936,1,0.2195,0.6931,0.749,845,10.2539,12.4512,-15.4419,92,1.1306,0,6.5391,47.7494,25,0.8724,7879,4.0227,-121.3649
rg,1625496574399620800,1,0.2153,0.6833,0.7478,846,8.728,11.3525,-14.9536,92,1.1316,0,6.5628,47.8715,25,0.8724,7866,4.0227,-121.4528
rg,1625496574399648275,1,0.2197,0.6897,0.7458,847,7.2021,10.8643,-14.4653,92,1.1306,0,6.5505,47.9413,25,0.8724,7998,4.0227,-121.5396
rg,1625496574399674102,1,0.22,0.6895,0.7507,848,6.8359,10.9253,-15.4419,92,1.1296,0,6.5703,47.9833,25,0.8714,7913,4.0227,-121.6511
rg,1625496574399699503,1,0.2183,0.6838,0.7505,849,7.019,10.2539,-13.6108,92,1.1306,0,6.5191,48.0258,25,0.8694,7883,4.0227,-121.7343
rg,1625496574399725274,1,0.2271,0.6892,0.7461,850,5.8594,11.0474,-14.0381,92,1.1326,0,6.4833,48.0431,25,0.8734,7926,4.0227,-121.8168
rg,1625496574399751360,1,0.2288,0.6919,0.75,851,5.8594,10.5591,-14.0991,92,1.1296,0,6.4389,48.0508,25,0.8704,7986,4.0227,-121.9015
rg,1625496574399777668,1,0.2224,0.6826,0.7471,852,4.9438,10.437,-13.7329,92,1.1326,0,6.3913,48.0116,25,0.8734,7956,4.0227,-121.9809
rg,1625496574399803458,1,0.2258,0.6799,0.7478,853,5.188,11.1084,-13.916,92,1.1326,0,6.3444,47.9894,25,0.8724,8017,4.0227,-122.0503
rg,1625496574399829636,1,0.2285,0.6824,0.75,854,5.5542,10.1929,-13.3667,92,1.1296,0,6.2715,47.9729,25,0.8714,8054,4.0227,-122.1278
rg,1625496574399882531,1,0.2253,0.6812,0.7395,855,5.5542,11.2915,-13.855,92,1.1326,0,6.2476,47.9728,25,0.8724,8038,4.0227,-122.1839
rg,1625496574399912949,1,0.2263,0.6807,0.748,856,5.188,11.1694,-14.5874,92,1.1326,0,6.2252,47.9364,25,0.8734,8030,4.0227,-122.2709
rg,1625496574399938887,1,0.2266,0.6855,0.749,857,5.0659,11.2915,-13.916,92,1.1296,0,6.2067,47.9109,25,0.8714,8072,4.0227,-122.3295
rg,1625496574399964510,1,0.2234,0.6753,0.741,858,5.3711,11.5356,-13.7939,92,1.1326,0,6.1927,47.8951,25,0.8694,8106,4.0227,-122.3782
rg,1625496574399990374,1,0.2236,0.6785,0.7451,859,5.9814,11.3525,-13.916,92,1.1326,0,6.1798,47.9022,25,0.8734,8173,4.0227,-122.4358
rg,1625496574400015423,1,0.2229,0.6819,0.75,860,5.8594,11.3525,-14.0991,92,1.1296,0,6.1768,47.9019,25,0.8714,8144,4.0227,-122.4985
rg,1625496574400042712,1,0.2192,0.6799,0.7485,861,6.3477,11.3525,-14.2212,92,1.1326,0,6.184,47.9195,25,0.8714,8163,4.0227,-122.5646
rg,1625496574400068576,1,0.2188,0.6804,0.7422,862,6.3477,11.1694,-14.5874,92,1.1326,0,6.1959,47.9451,25,0.8744,8167,4.0227,-122.6447
rg,1625496574400199173,1,0.2219,0.6816,0.7468,863,6.1646,11.4136,-14.0991,92,1.1326,0,6.1965,47.9655,25,0.8734,8770,4.0227,-122.7042
rg,1625496574400294278,1,0.2212,0.6848,0.7502,864,7.019,11.4746,-14.6484,92,1.1316,0,6.2143,48.0129,25,0.8724,8270,4.0227,-122.7769
rg,1625496574743406566,1,0.2229,0.6802,0.7329,865,6.897,10.7422,-14.7095,92,1.1316,0,6.1659,48.0894,25,0.8734,25893,4.0227,-122.8378
rg,1625496574743436892,1,0.22,0.6865,0.7405,866,6.6528,10.8032,-14.1602,92,1.1316,0,6.155,48.1333,25,0.8734,8477,4.0227,-122.9146
rg,1625496574743456664,1,0.2202,0.689,0.7373,867,7.019,10.6201,-14.5264,92,1.1316,0,6.1453,48.1975,25,0.8724,7645,4.0227,-123.0053
rg,1625496574743475030,1,0.2231,0.689,0.7451,868,5.9814,11.2305,-14.5874,92,1.1316,0,6.155,48.2079,25,0.8734,7616,4.0227,-123.0801
rg,1625496574743509799,1,0.2241,0.6895,0.7432,869,5.7983,11.0474,-15.1367,92,1.1316,0,6.1734,48.212,25,0.8734,7688,4.0227,-123.1745
rg,1625496574743527609,1,0.2261,0.6902,0.7439,870,5.4932,11.2915,-15.5029,92,1.1316,0,6.205,48.2037,25,0.8734,7673,4.0227,-123.2714
rg,1625496574743544716,1,0.2256,0.6887,0.7458,871,5.9814,11.2305,-14.6484,92,1.1316,0,6.2096,48.2122,25,0.8724,7829,4.0227,-123.3481
rg,1625496574743561638,1,0.2239,0.6885,0.7463,872,4.8828,10.9253,-13.6108,92,1.1326,0,6.1785,48.1773,25,0.8744,7735,4.0227,-123.4062
rg,1625496574743578078,1,0.2234,0.6897,0.7439,873,5.5542,10.5591,-14.5874,92,1.1306,0,6.1685,48.1721,25,0.8724,7753,4.0227,-123.5011
rg,1625496574743594278,1,0.2236,0.688,0.7412,874,5.8594,11.4746,-14.0991,92,1.1326,0,6.1667,48.185,25,0.8744,7743,4.0227,-123.5552
rg,1625496574743610311,1,0.2229,0.6926,0.7371,875,5.9814,11.1084,-14.4043,92,1.1316,0,6.1499,48.2092,25,0.8744,7764,4.0227,-123.6176
rg,1625496574743628695,1,0.2173,0.6907,0.7407,876,5.249,11.1694,-14.8315,92,1.1306,0,6.1761,48.198,25,0.8724,7782,4.0227,-123.6996
rg,1625496574743645061,1,0.219,0.6902,0.7415,877,5.249,10.9863,-14.3433,92,1.1326,0,6.1785,48.1862,25,0.8734,7813,4.0227,-123.7745
rg,1625496574743660983,1,0.2183,0.7002,0.7346,878,5.9204,11.4746,-14.4653,92,1.1316,0,6.1994,48.2291,25,0.8744,7835,4.0227,-123.8352
rg,1625496574743676887,1,0.2183,0.7019,0.7427,879,4.2114,11.2915,-13.6719,92,1.1326,0,6.1941,48.1943,25,0.8724,7836,4.0227,-123.881
rg,1625496574743692679,1,0.2183,0.6958,0.7444,880,4.0894,10.498,-13.1836,92,1.1326,0,6.1523,48.1427,25,0.8744,7879,4.0227,-123.9391
rg,1625496574743708693,1,0.2219,0.696,0.7415,881,3.418,9.8877,-13.0005,92,1.1316,0,6.1192,48.0709,25,0.8744,9157,4.0227,-124.0232
rg,1625496574743725578,1,0.217,0.7007,0.7473,882,3.418,9.4604,-12.3901,92,1.1306,-0.001,6.0336,47.9995,25,0.8734,8764,4.0227,-124.0914
rg,1625496574743743129,1,0.219,0.6941,0.7383,883,2.4414,9.6436,-13.1226,92,1.1316,0,5.9692,47.8936,25,0.8714,7737,4.0227,-124.1737
rg,1625496574743770826,1,0.2126,0.7012,0.7327,884,2.0142,9.5215,-13.7939,92,1.1326,0,5.9603,47.8088,25,0.8744,7958,4.0227,-124.2315
rg,1625496574743789006,1,0.2168,0.7078,0.7366,885,1.1597,9.5215,-13.4277,92,1.1316,0,5.9117,47.682,25,0.8724,7975,4.0227,-124.3243
rg,1625496574743805817,1,0.2192,0.699,0.7371,886,-0.1221,9.7046,-13.3667,92,1.1326,0,5.8606,47.4951,25,0.8744,7989,4.0227,-124.4123
rg,1625496574743822646,1,0.2107,0.6909,0.7471,887,-1.0986,8.5449,-12.3901,92,1.1326,0,5.765,47.2608,25,0.8744,7985,4.0227,-124.5246
rg,1625496574743839308,1,0.2075,0.6885,0.7512,888,-1.2817,8.2397,-12.3901,92,1.1306,0,5.676,47.0038,25,0.8734,8033,4.0227,-124.6359
rg,1625496574743855656,1,0.2192,0.6753,0.7419,889,-0.7324,6.4697,-12.5122,92,1.1316,0,5.5149,46.7664,25,0.8744,10264,4.0227,-124.8045
rg,1625496574743871726,1,0.2302,0.6746,0.7463,890,0.9766,7.019,-12.6953,92,1.1316,0,5.3583,46.6003,25,0.8744,8083,4.0227,-124.9636
rg,1625496574743888055,1,0.2227,0.6746,0.741,891,0.7324,8.3008,-13.3667,92,1.1316,0,5.2412,46.4376,25,0.8744,8114,4.0227,-125.1115
rg,1625496574743904162,1,0.2312,0.6772,0.7405,892,0.7935,9.0332,-13.855,92,1.1316,0,5.135,46.3071,25,0.8744,9728,4.0227,-125.2486
rg,1625496574743920047,1,0.2329,0.6755,0.74,893,0.9155,8.5449,-12.2681,92,1.1326,0,5.0138,46.1733,25,0.8744,8207,4.0227,-125.3521
rg,1625496574743935766,1,0.2275,0.675,0.7451,894,1.5869,9.7046,-13.0005,92,1.1306,0,4.9625,46.0639,25,0.8734,8497,4.0227,-125.4437
rg,1625496574743951650,1,0.23,0.6782,0.7434,895,2.2583,9.4604,-13.1226,92,1.1336,0,4.9052,45.9925,25,0.8754,8899,4.0227,-125.5459
