name,time,activity,ax,ay,az,batch_val,gx,gy,gz,ibat,index,middle,pitch,roll,temp,thumb,ts,vbat,yaw
rg,1625493593983906022,1,0.4604,0.8083,0.4363,1,1.0986,17.4561,-13.4888,61,1.1005,0,-8.9737,64.5349,26,0.7854,19219,4.0227,-49.3291
rg,1625493593983951744,1,0.4575,0.8066,0.4351,2,0.8545,16.1133,-13.916,61,1.1025,0,-8.8812,64.3983,26,0.7864,8221,4.0227,-48.9596
rg,1625493593983972707,1,0.4514,0.8123,0.4387,3,0,15.625,-13.6719,61,1.1025,0,-8.8009,64.2308,26,0.7864,7572,4.0227,-48.6059
rg,1625493593984035169,1,0.4578,0.814,0.4385,4,-3.1738,13.5498,-12.5122,61,1.1025,0,-8.8004,63.9572,26,0.7854,7581,4.0227,-48.3118
rg,1625493593984056225,1,0.4512,0.814,0.4451,5,-5.127,12.6953,-12.146,61,1.1025,0,-8.8112,63.6064,26,0.7874,7644,4.0227,-48.0452
rg,1625493593984075502,1,0.4399,0.814,0.4463,6,-6.2866,13.2446,-12.207,61,1.1015,0,-8.786,63.2169,26,0.7854,7691,4.0227,-47.7655
rg,1625493593984093261,1,0.4309,0.8091,0.4587,7,-9.0332,11.1694,-11.4136,61,1.1025,0,-8.8063,62.7119,26,0.7854,7718,4.0227,-47.5487
rg,1625493593984110576,1,0.4333,0.8086,0.4763,8,-10.498,9.7046,-10.1318,61,1.1035,0,-8.9681,62.0594,26,0.7864,7731,4.0227,-47.3963
rg,1625493593984129669,1,0.4541,0.8115,0.4871,9,-12.8174,7.6904,-9.4604,61,1.1035,0,-9.1413,61.4092,26,0.7864,8666,4.0227,-47.277
rg,1625493593984147557,1,-0.0464,-0.3049,0.9739,10,-5.9814,75.7446,14.7705,111,1.0675,0,-7.9673,58.475,27,0.7764,13938,3.916,-43.9686
rg,1625493593984165835,1,0.043,-0.2534,0.9858,11,-6.5308,75.8667,17.2729,111,1.0705,0,-7.2654,55.6218,26,0.7774,8229,3.916,-40.8984
rg,1625493593984184631,1,0.1399,-0.2429,0.9973,12,-12.5732,73.3643,24.7192,111,1.0695,0,-6.5552,52.6327,26,0.7784,8029,3.916,-37.6415
rg,1625493593984202650,1,0.0916,-0.313,1.0105,13,-19.2261,106.7505,26.7334,111,1.0715,0,-4.8137,49.3261,26,0.7784,8074,3.916,-33.3801
rg,1625493593984220724,1,-0.0266,-0.2773,0.9497,14,-22.644,126.4648,24.5972,111,1.0725,0,-2.0148,46.0858,26,0.7814,8127,3.916,-28.7958
rg,1625493593984241705,1,-0.1316,-0.281,0.926,15,-29.2358,137.3901,20.5078,111,1.0725,0,1.6491,42.8989,27,0.7834,9834,3.916,-24.2969
rg,1625493593984262149,1,-0.2405,-0.2759,0.9082,16,-32.6538,142.2119,15.5029,111,1.0735,0,6.2315,40.0407,27,0.7844,8177,3.916,-20.1277
rg,1625493593984280223,1,-0.4841,-0.3196,0.9321,17,-37.3535,136.3525,4.9438,111,1.0735,0,11.2144,37.3234,27,0.7844,8147,3.916,-16.7363
rg,1625493593984298945,1,-0.6589,-0.4971,1.0374,18,-25.0244,100.2197,0.6714,111,1.0775,0,15.3377,35.0805,27,0.7874,8211,3.916,-14.6512
rg,1625493593984344316,1,-0.6602,-0.5505,1.0759,19,-10.9253,73.6694,1.2207,111,1.0815,0,17.3734,33.7007,26,0.7904,8203,3.916,-13.9996
rg,1625493593984363889,1,-0.3826,-0.6421,1.0808,20,25.3906,18.1885,1.2817,111,1.0855,0,18.2952,32.794,26,0.7914,8470,3.916,-14.1586
rg,1625493593984381926,1,-0.1377,-0.5742,1.033,21,55.9082,-3.418,-16.0522,111,1.0905,0,18.4423,32.7207,26,0.7924,8291,3.916,-15.47
rg,1625493593984399760,1,-0.1775,-0.4707,0.9238,22,70.0073,-1.77,-32.1655,111,1.0925,0,19.0887,33.0856,26,0.7944,8373,3.916,-17.3037
rg,1625493593984417204,1,-0.2319,-0.4343,0.9087,23,71.9604,-1.9531,-35.5835,111,1.0915,0,19.9101,33.5093,26,0.7944,8281,3.916,-19.2729
rg,1625493593984435019,1,-0.2756,-0.3574,0.8621,24,70.0073,-10.0098,-40.2222,111,1.0945,0,20.659,33.795,26,0.7944,8296,3.916,-21.5991
rg,1625493593984453296,1,-0.2998,-0.2336,0.79,25,56.8237,-17.8833,-41.8701,111,1.0965,0,21.2373,33.6114,26,0.7964,8358,3.916,-24.1445
rg,1625493593984470593,1,-0.3132,-0.261,0.7954,26,46.0815,-21.5454,-41.3818,111,1.0985,0,21.4535,32.6686,26,0.7964,8347,3.916,-26.8815
rg,1625493593984489407,1,-0.2961,-0.2539,0.7812,27,36.8652,-30.3955,-36.9873,111,1.0985,0,21.4289,31.61,26,0.7964,8417,3.916,-29.5834
rg,1625493593984507037,1,-0.3162,-0.1277,0.7788,28,26.3062,-33.8745,-26.3062,111,1.0995,0,21.0127,30.5493,26,0.7964,9131,3.916,-31.8529
rg,1625493593984525444,1,-0.29,-0.175,0.8269,29,5.0049,-47.1802,-8.9722,111,1.1035,0,19.6665,28.7321,26,0.7994,8429,3.916,-33.7486
rg,1625493593984544462,1,-0.1865,-0.1855,0.8865,30,-6.4087,-56.7627,-1.9531,111,1.1045,0,17.2653,26.0726,26,0.8014,8392,3.916,-35.3705
rg,1625493593984561722,1,-0.1504,-0.1748,0.9231,31,-32.5928,-63.2324,6.5308,111,1.1045,0,14.665,23.1404,27,0.8034,8436,3.916,-36.6364
rg,1625493593984579110,1,-0.0225,-0.3198,0.9756,32,-57.6172,-59.9365,8.9722,111,1.1065,0,11.9122,19.1805,27,0.8064,8457,3.916,-37.5639
rg,1625493594339384880,1,0.186,-0.2966,1.2747,33,-62.0728,20.1416,12.8784,111,1.0925,0,12.8306,16.0457,26,0.7994,29823,3.916,-36.7362
rg,1625493594339570397,1,0.2791,-0.228,0.7356,34,35.2173,82.4585,10.376,111,1.0935,0,14.7188,16.5671,26,0.8004,8736,3.916,-35.6443
rg,1625493594339603453,1,-0.3164,-0.2805,0.9006,35,22.0337,107.3608,2.0752,111,1.0935,0,19.4452,16.2008,26,0.8014,7777,3.916,-34.8246
rg,1625493594339627397,1,-0.5833,-0.3369,0.9116,36,15.8691,107.5439,-11.9629,111,1.0935,0,24.2662,15.8755,27,0.8034,7823,3.916,-34.4576
rg,1625493594339652860,1,-0.5652,-0.3208,0.9514,37,6.5918,51.7578,-7.4463,111,1.0925,0,26.6679,15.0182,27,0.8044,7937,3.916,-34.6821
rg,1625493594339675527,1,-0.2461,-0.3757,0.9885,38,3.8452,32.0435,-1.4648,111,1.0935,0,27.0683,13.802,27,0.8044,8002,3.916,-35.0326
rg,1625493594339696193,1,-0.0955,-0.3643,0.9856,39,5.188,18.1885,1.4648,111,1.0925,0,27.0809,12.7001,27,0.8054,8059,3.916,-35.4282
rg,1625493594339719841,1,-0.0867,-0.3555,0.9592,40,4.5776,40.2222,-7.2021,111,1.0925,0,28.0048,11.5223,26,0.8064,7925,3.916,-35.9957
rg,1625493594339741582,1,-0.2407,-0.3887,0.9717,41,4.5776,53.2837,-11.7188,111,1.0935,0,30.2955,10.2507,26,0.8084,7939,3.916,-36.8391
rg,1625493594339766656,1,-0.5391,-0.3699,0.948,42,7.019,50.8423,-17.7612,111,1.0925,0,32.4525,9.0784,26,0.8094,8269,3.916,-37.887
rg,1625493594339810155,1,-0.6626,-0.3428,0.9253,43,9.8267,16.7236,-15.8081,111,1.0945,0,33.3787,8.0235,26,0.8114,7985,3.916,-39.1145
rg,1625493594339838266,1,-0.4702,-0.532,1.0627,44,12.6343,-5.4321,-13.2446,111,1.0975,0,32.0417,7.1582,26,0.8144,7985,3.916,-40.468
rg,1625493594339860062,1,-0.2173,-0.5964,1.0801,45,35.2173,-44.4946,-2.7466,111,1.1005,0,29.6653,6.8346,26,0.8144,8053,3.916,-41.6683
rg,1625493594339883896,1,0.1934,-0.5923,1.064,46,65.6128,-30.6396,-11.2305,111,1.1065,0,27.307,7.6224,26,0.8164,8037,3.916,-43.1092
rg,1625493594339903784,1,0.0278,-0.5259,1.0142,47,72.5708,-3.418,-18.8599,111,1.1085,0,27.4419,8.7285,26,0.8174,8120,3.916,-44.7645
rg,1625493594339926803,1,-0.1248,-0.5115,0.998,48,76.9653,40.4053,-29.2969,111,1.1095,0,28.5999,9.8157,26,0.8164,8114,3.916,-46.4835
rg,1625493594339982136,1,-0.3196,-0.4309,0.9336,49,77.0264,43.2129,-31.4331,111,1.1115,0,30.2558,10.9451,26,0.8164,8093,3.916,-48.2327
rg,1625493594340009321,1,-0.5029,-0.104,0.8079,50,63.7207,29.3579,-25.8789,111,1.1135,0,31.7104,12.308,26,0.8184,8304,3.916,-49.4987
rg,1625493594340029987,1,-0.6509,-0.0586,0.7825,51,13.3667,-0.7935,-8.4229,111,1.1145,0,32.0938,12.0395,26,0.8204,8246,3.916,-50.21
rg,1625493594340049710,1,-0.5471,-0.1587,0.9175,52,-30.2124,-41.9922,5.0049,111,1.1135,0,30.4087,9.9049,26,0.8224,9049,3.916,-50.8151
rg,1625493594340069691,1,-0.4507,-0.3027,0.9915,53,-45.5322,-55.1758,9.0332,111,1.1095,0,26.972,6.4921,26,0.8224,8255,3.916,-51.2765
rg,1625493594340090487,1,0.0129,-0.5552,1.145,54,-52.6733,-77.6367,18.7988,111,1.1005,0,22.9214,3.2924,26,0.8174,8204,3.916,-51.3284
rg,1625493594340111376,1,0.3884,-0.4302,1.0698,55,-50.5981,-43.5791,16.7236,111,1.0845,0,19.7307,0.5461,26,0.8014,9402,3.916,-51.0226
rg,1625493594340133135,1,0.2971,-0.3101,1.4546,56,-43.8232,20.1416,7.019,111,1.0795,0,19.379,-1.6093,27,0.7994,8888,3.916,-50.8845
rg,1625493594340152709,1,0.427,-0.0422,0.8342,57,34.1187,68.5425,-8.3008,111,1.0815,0,20.4569,-0.4418,27,0.7994,8390,3.916,-51.3244
rg,1625493594340170079,1,0.167,-0.1077,0.9402,58,12.2681,108.5815,-17.8833,111,1.0805,0,23.6275,-0.5122,27,0.7974,8309,3.916,-52.2248
rg,1625493594340190894,1,-0.79,-0.2507,0.8782,59,24.9634,137.5732,-29.9072,111,1.0825,0,29.7779,-0.6578,27,0.7974,8309,3.916,-53.8334
rg,1625493594340211838,1,-0.7959,-0.1775,0.9053,60,8.606,51.5747,-12.5732,111,1.0825,0,32.2617,-0.999,26,0.7994,8398,3.916,-54.6392
rg,1625493594340234542,1,-0.53,-0.2942,0.9934,61,-3.1738,12.7563,-7.4463,111,1.0825,0,31.2303,-2.0381,26,0.7994,8433,3.916,-55.2176
rg,1625493594340255079,1,-0.0237,-0.2695,1.0073,62,-8.4229,-7.2632,-5.3711,111,1.0815,0,29.8213,-3.0763,26,0.7994,8491,3.916,-55.749
rg,1625493594340274171,1,-0.0383,-0.3416,1.0134,63,-14.5264,27.2827,-13.5498,111,1.0835,0,29.8422,-4.6999,26,0.8004,8466,3.916,-56.7939
rg,1625493594340321189,1,-0.2969,-0.3123,0.9436,64,-15.1367,41.8091,-26.8555,111,1.0835,0,30.8932,-6.6133,26,0.8014,8510,3.916,-58.514
rg,1625493594696909900,1,-0.5466,-0.3972,0.9773,65,-12.4512,14.5874,-26.9165,111,1.0865,0,30.6349,-8.1221,26,0.8094,25565,3.916,-59.9339
rg,1625493594696957659,1,-0.3508,-0.52,1.0554,66,12.7563,-25.4517,-17.7002,111,1.0905,0,29.025,-8.705,26,0.8134,8761,3.916,-60.9662
rg,1625493594696978029,1,-0.0269,-0.5945,1.0642,67,46.3867,-30.9448,-8.8501,111,1.0945,0,26.7656,-7.847,26,0.8164,7890,3.916,-61.608
rg,1625493594696997937,1,0.1035,-0.604,1.0615,68,62.9272,-23.2544,-14.1602,111,1.0975,0,24.62,-6.4284,26,0.8174,7904,3.916,-62.5141
rg,1625493594697016789,1,0.0442,-0.4636,0.9763,69,82.5195,15.8691,-28.4424,111,1.0995,0,24.3732,-4.4054,26,0.8164,8195,3.916,-64.1416
rg,1625493594697035714,1,-0.1755,-0.3518,0.9114,70,82.5806,44.1895,-35.2173,111,1.0995,0,25.5269,-2.5288,26,0.8144,8642,3.916,-66.1151
rg,1625493594697054048,1,-0.3301,-0.2939,0.9116,71,69.9463,45.5933,-37.2925,111,1.0995,0,27.0661,-1.1409,26,0.8124,8570,3.916,-68.1225
rg,1625493594697072029,1,-0.4021,-0.1572,0.8567,72,51.6357,32.1045,-36.8652,111,1.1025,0,28.2426,-0.2385,26,0.8134,10958,3.916,-69.9783
rg,1625493594697089196,1,-0.3386,-0.2891,0.8831,73,26.9165,11.7188,-32.1045,111,1.1045,0,28.4165,-0.6032,26,0.8144,8102,3.916,-71.7967
rg,1625493594697107047,1,-0.342,-0.1809,0.864,74,25.6348,7.3242,-28.7476,111,1.1075,0,28.4563,-0.5621,26,0.8154,8201,3.916,-73.28
rg,1625493594697125121,1,-0.3823,-0.199,0.9163,75,9.5215,2.6245,-19.2871,111,1.1095,0,28.3144,-1.0835,26,0.8164,8000,3.916,-74.391
rg,1625493594697143103,1,-0.3408,-0.1797,0.9143,76,2.1362,-14.4653,-9.9487,111,1.1105,0,27.4123,-1.6201,26,0.8194,8081,3.916,-75.0251
rg,1625493594697160658,1,-0.25,-0.1167,0.9202,77,-7.3242,-24.1089,-5.0049,111,1.1105,0,25.6656,-2.7758,26,0.8214,8412,3.916,-75.1908
rg,1625493594697177510,1,-0.209,-0.1624,0.9473,78,-37.3535,-36.3159,-1.1597,111,1.1085,0,23.6932,-4.5334,26,0.8234,8612,3.916,-75.2593
rg,1625493594697558045,1,-0.1042,-0.2168,0.9478,79,-64.3921,-36.1328,1.2817,111,1.1045,0,21.5844,-7.3616,26,0.8224,8137,3.916,-75.1663
rg,1625493594697605341,1,0.093,-0.3003,0.9819,80,-90.8203,-31.4331,-5.0659,111,1.0935,0,19.299,-11.3667,26,0.8154,8193,3.916,-75.272
rg,1625493594697628711,1,0.137,-0.2854,1.1069,81,-98.0225,-19.7754,-8.9111,111,1.0885,0,17.4484,-15.4398,26,0.8104,8200,3.916,-75.4479
rg,1625493594697648711,1,0.6572,-0.5537,0.8284,82,-3.0518,17.5171,7.5684,111,1.0905,0,16.4696,-16.147,26,0.8124,8315,3.916,-75.5212
rg,1625493594697669340,1,0.092,-0.342,1.0073,83,-8.4229,92.1631,-19.6533,111,1.0935,0,18.9297,-17.162,26,0.8134,8273,3.916,-77.4471
rg,1625493594697689137,1,-0.3884,-0.4575,1.0435,84,10.0098,111.9995,-32.3486,111,1.0925,0,22.5988,-16.8668,26,0.8134,8288,3.916,-79.791
rg,1625493594697709377,1,-0.5698,-0.071,0.8601,85,19.8975,63.5986,-22.1558,111,1.0925,0.001,25.2086,-16.3313,26,0.8134,8304,3.916,-81.3445
rg,1625493594697728914,1,-0.384,-0.2874,0.9739,86,-2.3193,18.4937,-14.8315,111,1.0935,0,25.5612,-16.7931,26,0.8144,8186,3.916,-82.2077
rg,1625493594697746507,1,-0.1797,-0.2144,0.9287,87,-6.958,5.249,-15.8081,111,1.0945,0,24.9905,-17.2162,26,0.8154,8356,3.916,-82.8698
rg,1625493594697765877,1,-0.1487,-0.2432,0.937,88,-9.2163,5.9814,-17.7002,111,1.0935,0,24.3657,-17.806,26,0.8154,8351,3.916,-83.6385
rg,1625493594697784988,1,-0.22,-0.2593,0.9148,89,-16.0522,8.0566,-25.8789,111,1.0935,0,23.8943,-18.841,27,0.8154,9121,3.916,-84.7859
rg,1625493594697805321,1,-0.3652,-0.2561,0.916,90,-22.0337,4.9438,-34.1797,111,1.0925,0,23.5051,-20.1783,27,0.8164,8416,3.916,-86.2091
rg,1625493594697823432,1,-0.4524,-0.3975,0.9807,91,-25.1465,-10.5591,-31.1279,111,1.0955,0,22.6476,-21.6808,27,0.8184,8485,3.916,-87.336
rg,1625493594697842358,1,-0.3674,-0.5261,1.0518,92,-20.5078,-21.3623,-25.5127,111,1.0965,0,20.9599,-22.4819,27,0.8194,8486,3.916,-87.6316
rg,1625493594697859932,1,-0.2512,-0.6152,1.0913,93,1.5869,-38.6963,-13.3057,111,1.0975,0,18.9545,-22.6603,26,0.8204,8517,3.916,-87.6206
rg,1625493594697877710,1,0.0432,-0.6025,1.0459,94,40.2832,-36.7432,-0.3052,111,1.0985,0,16.7829,-21.1805,26,0.8214,8554,3.916,-87.1632
rg,1625493594697895395,1,0.2754,-0.4832,0.9595,95,67.627,-7.5073,-8.9722,111,1.1035,0,15.2065,-18.7753,26,0.8224,8521,3.916,-87.497
rg,1625493594697914228,1,0.0359,-0.3948,0.9368,96,69.8853,44.1284,-24.8413,111,1.1055,0,15.9072,-16.5684,26,0.8214,8584,3.916,-89.0946
rg,1625493595053430204,1,-0.3828,-0.3,0.8938,97,56.7627,41.9312,-28.9917,111,1.1065,0,17.1232,-14.9584,26,0.8184,25876,3.916,-90.4729
rg,1625493595053481314,1,-0.4624,-0.0779,0.8296,98,24.292,12.6953,-14.2212,111,1.1075,0,17.942,-13.852,26,0.8194,10142,3.916,-91.0743
rg,1625493595053502074,1,-0.3696,-0.2422,0.949,99,5.249,-0.061,-11.7798,111,1.1085,0,17.4372,-14.1103,26,0.8204,7852,3.916,-91.2648
rg,1625493595053561870,1,-0.3464,-0.1934,0.9788,100,-11.0474,-18.2495,-4.0894,111,1.1095,0,16.7563,-14.4254,26,0.8224,7809,3.916,-91.206
rg,1625493595053582869,1,-0.2515,-0.1865,0.9912,101,-33.2642,-28.2593,8.606,111,1.1095,0,15.6453,-15.4152,26,0.8244,7915,3.916,-90.5095
rg,1625493595053601388,1,-0.1121,-0.3162,1.0605,102,-46.6919,-36.1938,12.8784,111,1.1075,0,13.7152,-17.5247,26,0.8264,7913,3.916,-89.5529
rg,1625493595053632832,1,0.1252,-0.3704,1.0532,103,-61.1572,-27.6489,11.5356,111,1.1025,0,12.0365,-19.8481,26,0.8234,8129,3.916,-88.7413
rg,1625493595053657499,1,0.1365,-0.3494,1.0071,104,-75.9277,5.6152,5.0049,111,1.0935,0,11.5642,-22.815,26,0.8144,7934,3.916,-88.6083
rg,1625493595053675369,1,0.0361,-0.3103,1.1902,105,-92.3462,33.0811,-7.2632,111,1.0835,0,12.1265,-26.3276,26,0.8054,8070,3.916,-89.3582
rg,1625493595053692924,1,0.0359,-0.6353,1.4045,106,-54.4434,50.9644,-1.6479,111,1.0855,0,13.3668,-28.6346,26,0.8074,8676,3.916,-90.3567
rg,1625493595053710684,1,0.1223,0.157,0.8838,107,13.7329,71.8994,-7.9346,111,1.0845,0,15.04,-27.0441,26,0.8074,9541,3.916,-91.7069
rg,1625493595053731091,1,-0.6357,-0.7039,1.0894,108,9.9487,101.0132,-23.8647,111,1.0865,0,18.6069,-27.6751,26,0.8084,7985,3.916,-94.5934
rg,1625493595053749257,1,-0.5393,-0.1672,0.874,109,25.5737,33.5693,-14.2212,111,1.0855,0,20.0539,-26.4425,26,0.8094,8209,3.916,-95.5786
rg,1625493595053767720,1,-0.4426,-0.385,0.9751,110,14.5264,15.8081,-9.9487,111,1.0875,0,20.5529,-25.9009,26,0.8104,8375,3.916,-96.1886
rg,1625493595053785702,1,-0.1047,-0.2849,0.9531,111,14.6484,-7.4463,-11.1694,111,1.0865,0,19.529,-25.026,26,0.8104,8104,3.916,-96.347
rg,1625493595053804220,1,-0.0684,-0.3047,0.9407,112,10.9863,11.2915,-17.2119,111,1.0865,0,19.0411,-24.572,26,0.8114,8144,3.916,-97.1119
rg,1625493595053822831,1,-0.145,-0.2693,0.9231,113,10.1318,20.6909,-20.813,111,1.0885,0,19.2412,-24.181,26,0.8124,8125,3.916,-98.1566
rg,1625493595053840016,1,-0.3049,-0.2412,0.9021,114,1.6479,25.4517,-31.0669,111,1.0875,0,19.6144,-24.2902,26,0.8134,8129,3.916,-99.6786
rg,1625493595053856961,1,-0.4329,-0.1785,0.8767,115,-8.9111,15.8691,-33.9966,111,1.0895,0,19.8835,-24.6985,26,0.8164,8193,3.916,-101.1095
rg,1625493595053965571,1,-0.5085,-0.2222,0.8936,116,-16.2354,10.5591,-32.8979,111,1.0915,0,19.7338,-25.5466,26,0.8184,8157,3.916,-102.1425
rg,1625493595053987960,1,-0.5325,-0.4297,1.0183,117,-18.2495,-13.0615,-24.7192,111,1.0925,0,19.0659,-26.3996,26,0.8194,8191,3.916,-102.8059
rg,1625493595054007460,1,-0.2866,-0.6599,1.1431,118,5.6152,-40.5273,-9.2773,111,1.0985,0,17.1826,-26.1889,26,0.8234,8258,3.916,-102.4444
rg,1625493595054026349,1,0.1687,-0.6165,1.0703,119,46.6919,-36.377,0.6714,111,1.1015,0,14.9263,-24.2927,26,0.8244,12876,3.916,-101.833
rg,1625493595054046404,1,0.2141,-0.4502,0.9746,120,69.0918,11.6577,-15.3198,111,1.1045,0,14.1093,-21.7517,26,0.8244,8256,3.916,-102.6324
rg,1625493595054065293,1,-0.1306,-0.3792,0.9421,121,69.9463,55.2979,-26.2451,111,1.1055,0,15.5306,-19.4319,26,0.8234,8296,3.916,-104.4617
rg,1625493595054083052,1,-0.2732,-0.3621,0.9111,122,69.1528,58.2275,-28.6255,111,1.1055,0,17.333,-17.3953,26,0.8234,8321,3.916,-106.3156
rg,1625493595054101200,1,-0.449,-0.2661,0.8625,123,62.1338,39.978,-29.541,111,1.1065,0,18.8808,-15.4211,26,0.8224,8336,3.916,-107.9736
rg,1625493595054138903,1,-0.5522,0.0188,0.7856,124,44.3115,10.7422,-18.4937,111,1.1065,0,19.7618,-13.3679,26,0.8224,8510,3.916,-108.6466
rg,1625493595054158885,1,-0.5403,-0.0803,0.8418,125,-7.6294,-31.3721,-3.54,81,1.1085,0,19.0164,-13.3359,26,0.8254,8423,3.9952,-108.3873
rg,1625493595054176033,1,-0.3352,-0.158,0.9253,126,-46.6919,-68.2983,6.4697,81,1.1105,0,16.4621,-14.7583,26,0.8274,9647,3.9952,-107.3773
rg,1625493595054193570,1,-0.2009,-0.2803,1.0088,127,-61.5845,-73.3032,8.606,81,1.1065,0,13.1584,-17.6045,26,0.8284,8456,3.9952,-106.197
rg,1625493595054217699,1,0.0737,-0.5054,1.0674,128,-74.0356,-68.4204,11.7188,81,1.0965,0,10.0847,-20.5829,26,0.8194,8607,3.9952,-104.8825
rg,1625493595421835145,1,0.6929,0.126,0.8774,129,37.4146,50.0488,2.2583,81,1.0925,0,13.3928,-20.1729,26,0.8134,25783,3.9952,-106.9058
rg,1625493595421886367,1,-0.658,-0.1101,0.8115,130,45.2881,125.5493,-22.2778,81,1.0935,0,18.7859,-18.6867,26,0.8144,8728,3.9952,-109.4133
rg,1625493595421908218,1,-0.7878,0.0322,0.7893,131,37.8418,94.2383,-13.7939,81,1.0945,0,23.2111,-17.199,26,0.8154,7865,3.9952,-111.0051
rg,1625493595421928552,1,-0.4944,-0.2449,0.9524,132,7.6904,17.7002,-2.3804,81,1.0945,0,23.9895,-16.9106,26,0.8164,7835,3.9952,-111.2869
rg,1625493595421947792,1,-0.0352,-0.1738,0.9622,133,2.6855,-4.2725,-1.8921,81,1.0955,0,23.0227,-16.7178,26,0.8184,7868,3.9952,-111.3601
rg,1625493595421966589,1,-0.0222,-0.198,0.9255,134,-9.1553,28.6865,-9.3994,81,1.0965,0,23.1663,-17.1733,26,0.8194,10902,3.9952,-112.0327
rg,1625493595421987033,1,-0.1125,-0.2185,0.9351,135,-15.2588,40.5273,-14.1602,81,1.0965,0,23.8878,-18.0513,26,0.8214,8383,3.9952,-113.0836
rg,1625493595422005774,1,-0.2761,-0.2639,0.9436,136,-23.0103,47.4854,-23.5596,81,1.0985,0,25.0482,-19.5446,26,0.8224,8014,3.9952,-114.6911
rg,1625493595422025829,1,-0.4075,-0.2839,0.9456,137,-30.1514,48.584,-24.8413,81,1.1005,0,26.4044,-21.4013,26,0.8254,7975,3.9952,-116.4286
rg,1625493595422043736,1,-0.4832,-0.3442,0.9692,138,-32.2266,44.7998,-23.8037,81,1.1005,0,27.6354,-23.4023,26,0.8264,7955,3.9952,-118.1495
rg,1625493595422061162,1,-0.5112,-0.4412,0.9944,139,-26.001,23.5596,-16.4185,81,1.1035,0,28.1171,-24.9738,26,0.8274,7998,3.9952,-119.2712
rg,1625493595422077755,1,-0.325,-0.6064,1.103,140,-7.8125,1.2817,-8.7891,81,1.1055,0,27.4737,-25.6215,26,0.8304,8019,3.9952,-119.728
rg,1625493595422097069,1,-0.0557,-0.5933,1.0637,141,29.7852,6.1035,-2.9297,81,1.1085,0,26.6875,-24.6954,26,0.8314,8120,3.9952,-120.0438
rg,1625493595422114810,1,-0.0784,-0.5142,1.0146,142,54.8096,34.729,-12.0239,81,1.1105,0,26.8747,-23.1132,26,0.8304,8157,3.9952,-121.2249
rg,1625493595422132977,1,-0.2759,-0.4673,0.9609,143,67.4438,47.3633,-19.2871,81,1.1125,0,27.8368,-21.2849,26,0.8294,9863,3.9952,-122.9003
rg,1625493595422153328,1,-0.3123,-0.4333,0.9277,144,70.1904,43.1519,-21.3013,81,1.1115,0,28.7192,-19.3999,26,0.8284,8124,3.9952,-124.5735
rg,1625493595422204995,1,-0.3955,-0.291,0.865,145,68.2373,34.729,-24.353,81,1.1115,0,29.507,-17.4031,26,0.8274,9048,3.9952,-126.1214
rg,1625493595422228883,1,-0.5364,-0.0818,0.8228,146,47.9126,18.7988,-20.3857,81,1.1125,0,30.1385,-15.6128,26,0.8264,8588,3.9952,-127.0434
rg,1625493595422246180,1,-0.5715,-0.1284,0.8396,147,7.6904,-14.8926,-10.9863,81,1.1125,0,29.5989,-15.1923,26,0.8274,8293,3.9952,-127.2133
rg,1625493595422263846,1,-0.4956,-0.1785,0.9402,148,-8.7891,-34.0576,-8.1787,81,1.1125,0,28.1121,-15.3357,26,0.8294,8231,3.9952,-127.0711
rg,1625493595422281068,1,-0.3411,-0.3442,1.0356,149,-27.2827,-49.8047,-2.9297,81,1.1145,0,25.743,-16.327,26,0.8324,8246,3.9952,-126.6409
rg,1625493595422304661,1,0.0261,-0.3618,1.019,150,-25.0854,-64.5752,-0.1831,81,1.1125,0,22.24,-17.1309,26,0.8354,8315,3.9952,-125.8839
rg,1625493595422323679,1,0.1453,-0.3015,1.009,151,-29.6021,-49.0112,-0.2441,81,1.1075,0,19.1862,-18.1596,26,0.8324,8327,3.9952,-125.2741
rg,1625493595422344105,1,0.1372,-0.3835,0.9851,152,-43.0298,-4.7607,-7.2021,81,1.0965,0,17.8939,-20.064,26,0.8234,8320,3.9952,-125.5194
rg,1625493595422362123,1,-0.0662,-0.4927,1.4729,153,-30.3345,30.8838,-9.2163,81,1.0985,0,18.306,-21.4562,26,0.8234,8311,3.9952,-126.3153
rg,1625493595422379605,1,0.2224,0.1128,0.8406,154,43.457,58.4106,-17.7002,81,1.0995,0,19.0852,-19.1,26,0.8244,8423,3.9952,-127.5417
rg,1625493595422398364,1,-0.1323,-0.2749,0.9609,155,21.4233,102.8442,-21.6064,81,1.0985,0,22.2185,-18.9231,26,0.8234,8368,3.9952,-129.8076
rg,1625493595422416475,1,-0.7036,-0.0786,0.7688,156,44.4946,89.9658,-27.832,81,1.0985,0,26.0568,-17.7054,26,0.8234,8422,3.9952,-132.0377
rg,1625493595422434882,1,-0.5969,-0.1636,0.8909,157,16.5405,30.4565,-15.686,81,1.1005,0,27.314,-17.2558,26,0.8254,8469,3.9952,-132.9957
rg,1625493595422452734,1,-0.238,-0.1724,0.936,158,6.7139,8.9111,-12.6953,81,1.1015,0,26.5223,-17.0701,26,0.8264,8455,3.9952,-133.4496
rg,1625493595422495771,1,-0.1453,-0.1592,0.9597,159,-0.1831,0.1221,-19.043,81,1.1015,0,25.6049,-17.0972,26,0.8264,8496,3.9952,-134.1104
rg,1625493595422518308,1,-0.2456,-0.197,0.926,160,-5.6763,18.7988,-26.3672,81,1.1025,0,25.5673,-17.6916,26,0.8284,8485,3.9952,-135.3785
rg,1625493595763832005,1,-0.3777,-0.4023,1.0396,161,-18.0054,1.4038,-33.8135,81,1.1065,0,24.8787,-19.0828,26,0.8344,23633,3.9952,-136.8426
rg,1625493595763875264,1,-0.3276,-0.5522,1.1047,162,0.2441,-8.3618,-27.0386,81,1.1095,0,23.5144,-19.2088,26,0.8374,10717,3.9952,-137.7885
rg,1625493595763895671,1,-0.2031,-0.5342,1.0837,163,29.48,-23.4375,-22.1558,81,1.1115,0,21.7991,-18.5498,26,0.8374,7964,3.9952,-138.4884
rg,1625493595763942967,1,-0.009,-0.4795,1.0369,164,58.6548,-12.7563,-15.0146,81,1.1145,0,20.3094,-16.6389,26,0.8374,7851,3.9952,-139.0493
rg,1625493595763962523,1,0.043,-0.4395,0.9954,165,68.4204,-1.9531,-18.1885,81,1.1165,0,19.5914,-14.4747,26,0.8374,7871,3.9952,-140.2945
rg,1625493595763980911,1,-0.0664,-0.3442,0.928,166,70.0073,21.7896,-30.4565,81,1.1175,0,19.538,-12.4235,26,0.8364,7853,3.9952,-141.8619
rg,1625493595763998615,1,-0.2788,-0.177,0.8242,167,68.1763,36.0107,-29.6631,81,1.1175,0,20.6573,-10.2205,26,0.8344,7873,3.9952,-143.3987
rg,1625493595764017059,1,-0.4983,0.0554,0.7808,168,57.1289,36.1938,-25.0854,81,1.1165,0,22.1645,-8.3714,26,0.8334,8101,3.9952,-144.1804
rg,1625493595764035374,1,-0.5815,0.123,0.7559,169,19.9585,15.2588,-11.1084,81,1.1165,0,23.3188,-7.1979,26,0.8334,7941,3.9952,-144.5142
rg,1625493595764052855,1,-0.5283,-0.1553,0.9929,170,-28.2593,-30.7617,1.1597,81,1.1185,0,22.279,-8.2979,26,0.8354,7947,3.9952,-144.3102
rg,1625493595764070522,1,-0.2463,-0.1726,1.0044,171,-37.5977,-48.645,8.7891,81,1.1145,0,19.6907,-10.1397,26,0.8364,7940,3.9952,-143.404
rg,1625493595764088040,1,-0.052,-0.3218,1.0779,172,-62.6221,-65.7959,13.855,81,1.1085,0,16.5643,-12.5497,26,0.8334,8074,3.9952,-142.3622
rg,1625493595764105485,1,0.2549,-0.3118,1.0667,173,-73.1812,-38.0859,18.5547,81,1.1025,0,14.1519,-15.307,26,0.8284,8104,3.9952,-141.249
rg,1625493595764123133,1,0.2476,-0.595,1.5952,174,-80.3223,-15.3198,16.4185,81,1.0975,0,13.7827,-18.2161,26,0.8264,8103,3.9952,-140.9491
rg,1625493595764146762,1,0.8035,-0.7666,0.9614,175,4.5776,26.6113,25.6958,81,1.0975,0,13.4818,-18.5536,26,0.8254,8118,3.9952,-140.4517
rg,1625493595764166262,1,0.2693,-0.325,1.0693,176,12.8174,123.4741,3.9673,81,1.0995,0,17.1634,-18.36,26,0.8264,8083,3.9952,-141.9082
rg,1625493595764185429,1,-0.5737,-0.2122,0.8645,177,44.3115,141.8457,-15.8081,81,1.1005,0,22.9516,-17.2788,26,0.8274,8160,3.9952,-144.3444
rg,1625493595764203540,1,-0.7869,0.0081,0.7905,178,43.7012,118.1641,-13.6719,81,1.0985,0,28.1698,-15.877,26,0.8264,8162,3.9952,-146.1949
rg,1625493595764220836,1,-0.7092,-0.2458,0.9373,179,21.3013,37.1704,-5.9814,81,1.1015,0,29.8398,-15.3293,26,0.8274,8135,3.9952,-146.8932
rg,1625493595764238873,1,-0.2009,-0.1292,0.9143,180,12.085,-11.5967,-10.7422,81,1.1025,0,28.5994,-14.688,26,0.8294,8181,3.9952,-147.0713
rg,1625493595764256854,1,-0.1904,-0.2146,0.9424,181,0.8545,3.2349,-18.1274,81,1.1045,0,27.8529,-14.9612,26,0.8304,10118,3.9952,-147.862
rg,1625493595764274391,1,-0.2993,-0.2285,0.9514,182,-0.7935,9.1553,-22.2778,81,1.1065,0,27.4351,-15.6927,26,0.8324,8274,3.9952,-149.0742
rg,1625493595764292428,1,-0.3118,-0.2437,0.9624,183,-8.2397,5.6763,-28.7476,81,1.1065,0,26.9328,-16.5519,26,0.8334,8177,3.9952,-150.3533
rg,1625493595764311150,1,-0.3584,-0.2424,0.9487,184,-13.1226,2.1362,-31.0059,81,1.1095,0,26.3746,-17.5845,26,0.8364,8261,3.9952,-151.6616
rg,1625493595764328298,1,-0.3848,-0.3113,0.9817,185,-15.5029,-2.5024,-25.6348,81,1.1115,0,25.7215,-18.6579,26,0.8384,8296,3.9952,-152.7074
rg,1625493595764344780,1,-0.3262,-0.3821,1.0161,186,-15.625,-7.5073,-22.7661,81,1.1135,0,24.6054,-19.8109,26,0.8404,8283,3.9952,-153.6191
rg,1625493595764362039,1,-0.156,-0.4644,1.061,187,0.9155,-5.6763,-15.5029,81,1.1145,0,23.5166,-20.1581,26,0.8404,8480,3.9952,-154.2373
rg,1625493595764380076,1,0.0371,-0.4546,1.0139,188,25.3906,18.1274,-9.3994,81,1.1185,0,23.0908,-19.5735,26,0.8414,8297,3.9952,-154.9653
rg,1625493595764488372,1,-0.0986,-0.3889,0.9683,189,31.4331,35.8887,-15.0146,81,1.1195,0,24.1873,-18.8624,26,0.8394,8402,3.9952,-156.5652
rg,1625493595764512353,1,-0.2437,-0.3806,0.9644,190,40.2832,66.8335,-20.5688,81,1.1185,0,26.0136,-18.1299,26,0.8374,8371,3.9952,-158.4155
rg,1625493595764563130,1,-0.4224,-0.3616,0.9351,191,44.0674,64.6362,-22.0337,81,1.1195,0,28.0656,-17.3229,26,0.8364,8436,3.9952,-160.2992
rg,1625493595764583890,1,-0.4399,-0.3008,0.9109,192,44.1284,45.8984,-23.4375,81,1.1195,0,29.3997,-16.3831,26,0.8364,8423,3.9952,-161.9501
rg,1625493596119595738,1,-0.3936,-0.249,0.8911,193,24.6582,19.8364,-26.4282,81,1.1195,0,29.3111,-16.235,26,0.8354,25983,3.9952,-163.3572
rg,1625493596119656922,1,-0.2986,-0.3191,0.9858,194,21.6675,5.9204,-25.5127,81,1.1195,0,28.7278,-16.022,26,0.8364,10545,3.9952,-164.5903
rg,1625493596119692200,1,-0.2986,-0.2329,0.9658,195,20.1416,6.5918,-20.1416,81,1.1195,0,28.2831,-15.5696,26,0.8394,7815,3.9952,-165.5037
rg,1625493596119713033,1,-0.3813,-0.1707,0.9355,196,10.3149,5.9814,-15.9302,81,1.1165,0,28.2589,-15.2951,26,0.8424,7809,3.9952,-166.1653
rg,1625493596119758292,1,-0.5269,-0.1709,0.8789,197,-14.8315,0.4883,-1.8921,81,1.1085,0,28.3403,-15.7575,26,0.8444,7882,3.9952,-166.1727
rg,1625493596119778033,1,-0.5063,-0.1667,0.8762,198,-44.7388,-25.8179,4.3945,81,1.0945,0,27.4502,-17.098,27,0.8344,7965,3.9952,-165.5552
rg,1625493596119887421,1,-0.4507,-0.043,1.448,199,-66.7114,-47.4243,5.7373,81,1.0875,0,25.3574,-18.7091,27,0.8304,8387,3.9952,-164.351
rg,1625493596119917125,1,0.3008,0.1609,0.8408,200,-10.1318,-59.2651,22.0337,81,1.0895,-0.001,21.5698,-16.1796,27,0.8324,7962,3.9952,-162.8527
rg,1625493596119937051,1,0.311,-0.0308,1.0056,201,-13.1226,-7.0801,5.127,81,1.0875,0,19.9571,-16.0176,27,0.8294,7766,3.9952,-162.345
rg,1625493596119956514,1,-0.2234,-0.5173,1.0725,202,10.376,24.231,-14.3433,81,1.0875,0,20.3625,-16.3021,26,0.8304,8000,3.9952,-163.3568
rg,1625493596119978699,1,-0.2085,-0.0342,0.9236,203,26.001,6.2866,-20.874,81,1.0875,0,20.548,-14.9884,26,0.8294,7968,3.9952,-163.8688
rg,1625493596119998884,1,-0.2876,-0.1023,0.9434,204,6.7749,15.625,-12.7563,81,1.0845,0,20.8772,-14.6066,26,0.8274,8007,3.9952,-164.441
rg,1625493596120019384,1,-0.2803,-0.0317,0.897,205,-10.1318,13.7939,-10.6201,81,1.0855,0,21.1749,-14.7125,26,0.8294,8009,3.9952,-164.8482
rg,1625493596120037995,1,-0.2817,-0.0764,0.9197,206,-19.2261,12.3291,-10.1929,81,1.0845,0,21.2932,-15.5839,26,0.8274,8067,3.9952,-165.2549
rg,1625493596120055550,1,-0.2441,-0.125,0.9348,207,-31.7383,7.5073,-11.8408,81,1.0835,0,21.1847,-16.7267,26,0.8274,8068,3.9952,-165.7092
rg,1625493596120074031,1,-0.2046,-0.167,0.9434,208,-43.8843,4.5776,-18.9209,81,1.0865,0,20.7719,-18.4905,26,0.8274,8082,3.9952,-166.4331
rg,1625493596120090828,1,-0.2756,-0.2261,0.9602,209,-53.2227,9.6436,-25.7568,81,1.0875,0,20.5828,-20.8072,26,0.8294,12613,3.9952,-167.5267
rg,1625493596120107365,1,-0.3494,-0.3662,1.0198,210,-56.8237,9.1553,-26.2451,81,1.0895,0,20.4133,-23.4383,26,0.8314,8109,3.9952,-168.6926
rg,1625493596120124568,1,-0.3293,-0.5403,1.1038,211,-47.4243,3.479,-19.2261,81,1.0905,0,20.001,-25.7073,26,0.8334,8162,3.9952,-169.5307
rg,1625493596120161179,1,-0.2712,-0.634,1.1448,212,-32.2266,-0.7935,-14.8926,81,1.0915,0,19.3758,-27.3039,26,0.8354,8224,3.9952,-170.1211
rg,1625493596120180457,1,-0.1091,-0.615,1.0867,213,6.5918,3.7231,-7.5073,81,1.0925,0,18.8031,-27.2419,26,0.8374,8185,3.9952,-170.5053
rg,1625493596120197531,1,0.0125,-0.5212,0.9919,214,41.748,25.0244,-5.5542,81,1.0915,0,18.836,-25.8139,26,0.8374,8536,3.9952,-171.2045
rg,1625493596120216012,1,-0.0291,-0.4802,0.9507,215,48.1567,38.3301,-11.3525,81,1.0965,0,19.9009,-24.1387,26,0.8364,8723,3.9952,-172.7068
rg,1625493596120234142,1,-0.2334,-0.394,0.9233,216,55.1147,56.2744,-21.9116,81,1.0975,0,21.337,-22.5326,26,0.8354,8261,3.9952,-174.5098
rg,1625493596120250753,1,-0.3892,-0.3318,0.8745,217,53.2227,48.2178,-23.7427,81,1.1005,0,22.8122,-20.9832,26,0.8344,8289,3.9952,-176.2072
rg,1625493596120267568,1,-0.6184,-0.0442,0.7803,218,38.7573,31.9214,-17.7002,81,1.1005,0,24.3924,-19.3205,26,0.8334,9996,3.9952,-177.17
rg,1625493596120285012,1,-0.8406,0.0269,0.8137,219,-7.9346,-8.9722,-5.3711,81,1.1015,0,24.8539,-19.0415,26,0.8344,8348,3.9952,-176.9957
rg,1625493596120302956,1,-0.8584,-0.1484,0.8982,220,-34.729,-41.2598,3.54,81,1.0985,0,24.0733,-19.8081,26,0.8354,8367,3.9952,-176.117
rg,1625493596120319827,1,-0.3347,-0.3044,0.9871,221,-56.3965,-110.3516,18.8599,81,1.0975,0,19.9735,-21.0316,27,0.8354,8375,3.9952,-173.6391
rg,1625493596120337660,1,0.2375,-0.5359,1.1099,222,-65.5518,-104.9194,17.5171,81,1.0935,0,15.2026,-23.1195,27,0.8344,8406,3.9952,-171.3441
rg,1625493596120355308,1,0.3477,-0.4917,1.062,223,-59.2041,-74.2188,15.5029,81,1.0885,0,12.6866,-24.9711,27,0.8264,8468,3.9952,-170.1249
rg,1625493596120373474,1,0.3218,-0.4128,1.1943,224,-52.002,-8.5449,9.1553,81,1.0855,0,11.513,-26.7016,27,0.8224,8707,3.9952,-169.5682
rg,1625493596476800728,1,-0.6152,-0.3633,0.8433,225,33.8745,114.9292,-5.249,81,1.0855,0,16.5493,-25.1979,26,0.8214,25786,3.9952,-171.6841
rg,1625493596476834580,1,-0.4092,-0.2009,0.8867,226,23.6206,25.3296,-4.6997,81,1.0855,0,17.6996,-23.9656,26,0.8224,11998,3.9952,-172.1656
rg,1625493596476854320,1,-0.1414,-0.2375,0.9312,227,18.0054,13.916,-4.6997,81,1.0865,0,17.6652,-23.0819,26,0.8234,7814,3.9952,-172.4573
rg,1625493596476873691,1,-0.0999,-0.2078,0.9153,228,11.7798,18.9819,-8.4839,81,1.0875,0,17.7817,-22.3775,26,0.8244,7814,3.9952,-172.9668
rg,1625493596476891191,1,-0.1902,-0.2161,0.896,229,4.4556,39.2456,-13.7939,81,1.0885,0,18.7804,-22.2005,26,0.8254,7847,3.9952,-174.0218
rg,1625493596476908246,1,-0.2793,-0.2095,0.8906,230,-4.0894,43.9453,-20.5078,81,1.0905,0,20.0199,-22.5018,26,0.8274,9147,3.9952,-175.4186
rg,1625493596476925764,1,-0.4004,-0.2285,0.9192,231,-14.3433,46.0815,-27.832,81,1.0935,0,21.3941,-23.3954,26,0.8304,10742,3.9952,-177.1695
rg,1625493596476943450,1,-0.4668,-0.2957,0.9531,232,-18.0664,42.2363,-29.7241,81,1.0955,0,22.5925,-24.5882,26,0.8324,7956,3.9952,-178.9957
rg,1625493596476961561,1,-0.4954,-0.4094,1.0186,233,-15.8691,22.0947,-27.5269,81,1.0975,0,22.9838,-25.6858,26,0.8344,7952,3.9952,-180.4425
rg,1625493596477003338,1,-0.3569,-0.554,1.0979,234,2.1362,3.6011,-23.5596,81,1.0995,0,22.4283,-26.0193,26,0.8364,7972,3.9952,-181.4443
rg,1625493596477025505,1,-0.114,-0.6062,1.0759,235,17.6392,0.9155,-20.6909,81,1.1025,0,21.5949,-25.0288,26,0.8374,8530,3.9952,-182.3141
rg,1625493596477043671,1,-0.0696,-0.5205,1.0264,236,49.2554,14.6484,-22.9492,81,1.1035,0,21.0388,-23.562,26,0.8364,8493,3.9952,-183.5092
rg,1625493596477061282,1,-0.2217,-0.4048,0.9373,237,62.8052,41.3818,-32.4097,81,1.1035,0,21.7081,-21.7637,26,0.8364,8644,3.9952,-185.4816
rg,1625493596477079949,1,-0.4106,-0.3215,0.873,238,62.9883,41.5649,-36.8042,81,1.1055,0,22.8075,-19.9918,26,0.8364,8106,3.9952,-187.5837
rg,1625493596477097727,1,-0.4871,-0.2039,0.8274,239,59.1431,34.1797,-34.729,81,1.1065,0,24.1773,-17.8216,26,0.8354,8117,3.9952,170.7346
rg,1625493596477116227,1,-0.6465,0.0466,0.7527,240,31.9824,10.1929,-25.5737,81,1.1065,0,24.9446,-16.3506,26,0.8364,8185,3.9952,169.8244
rg,1625493596477153856,1,-0.687,-0.156,0.9377,241,-14.7705,-31.25,-12.8784,81,1.1105,0,24.0335,-16.7552,26,0.8414,8136,3.9952,169.7787
rg,1625493596477173448,1,-0.6248,-0.1189,0.8662,242,-27.3438,-52.1851,-8.1787,85,1.1105,0,21.5413,-17.8615,26,0.8434,8180,3.9952,170.7131
rg,1625493596477192189,1,-0.2952,-0.3137,0.9949,243,-51.6357,-78.125,3.8452,85,1.1055,0,18.4111,-19.4821,26,0.8404,8381,3.9952,-188.0534
rg,1625493596477210393,1,-0.0112,-0.28,0.9785,244,-59.5093,-67.0776,11.2305,85,1.0975,0,15.3697,-21.2889,26,0.8324,8225,3.9952,-186.5752
rg,1625493596477228022,1,0.2224,-0.5859,1.4258,245,-39.6729,-34.1187,12.6953,85,1.0955,0,13.3898,-22.6533,26,0.8324,8246,3.9952,-185.5602
rg,1625493596477244855,1,0.5596,-0.5178,0.8594,246,21.4844,-22.1558,15.1978,85,1.0945,-0.001,11.2731,-21.8949,27,0.8304,8312,3.9952,-184.7205
rg,1625493596477262615,1,0.1941,-0.3752,1.0972,247,6.958,72.0215,-3.54,85,1.0955,0,13.0776,-21.7514,27,0.8294,8161,3.9952,-185.9312
rg,1625493596477281485,1,-0.4199,-0.1064,0.8542,248,33.6914,93.2617,-14.9536,85,1.0945,0,16.8451,-20.3753,27,0.8294,8305,3.9952,-187.7699
rg,1625493596477297485,1,-0.574,0.019,0.7883,249,28.6865,84.4727,-11.4746,85,1.0915,0,20.7021,-19.3227,27,0.8294,8285,3.9952,170.698
rg,1625493596477317763,1,-0.6013,-0.2048,0.9307,250,3.1738,32.8979,-9.7656,85,1.0935,0,22.2635,-19.259,26,0.8284,8383,3.9952,169.924
rg,1625493596477335707,1,-0.2473,-0.2354,0.9729,251,-2.9297,-2.7466,-11.1694,85,1.0965,0,21.6806,-19.2916,26,0.8304,8416,3.9952,169.5999
rg,1625493596477353818,1,-0.1116,-0.2817,0.9907,252,-4.5776,-2.2583,-12.146,85,1.0965,0,21.1933,-19.5739,26,0.8304,8359,3.9952,168.9057
rg,1625493596477370503,1,-0.1604,-0.2996,0.9854,253,-3.0518,16.1133,-17.6392,85,1.0955,0,21.07,-19.9188,26,0.8304,8422,3.9952,168.0033
rg,1625493596477387410,1,-0.2551,-0.2346,0.9219,254,-2.5635,23.8037,-26.7334,85,1.0965,0,21.3524,-20.3013,26,0.8324,8424,3.9952,166.6601
rg,1625493596477403929,1,-0.3381,-0.2185,0.9187,255,-11.4746,24.4751,-36.7432,85,1.0985,0,21.6797,-21.1551,26,0.8344,11500,3.9952,164.9129
rg,1625493596477421318,1,-0.4436,-0.2263,0.9287,256,-18.3105,18.3716,-40.6494,85,1.1005,0,21.8868,-22.3044,26,0.8354,8546,3.9952,163.1006
rg,1625493596835847598,1,-0.2578,-0.498,1.0608,257,-7.6294,-5.7983,-31.4331,85,1.1055,0,21.0182,-22.6313,27,0.8434,24372,3.9952,161.9227
rg,1625493596835917950,1,-0.0913,-0.5317,1.03,258,39.856,21.9727,-15.4419,85,1.1075,0,20.9539,-21.5098,27,0.8424,15086,3.9952,160.9042
rg,1625493596835938079,1,-0.1506,-0.4546,1.0027,259,58.0444,45.4712,-20.0195,85,1.1085,0,21.8449,-19.8601,27,0.8404,7918,3.9952,159.3569
rg,1625493596835958079,1,-0.3135,-0.384,0.9404,260,67.5049,53.4668,-24.353,85,1.1095,0,23.3534,-17.9339,26,0.8394,7934,3.9952,157.568
rg,1625493596835975894,1,-0.3738,-0.3257,0.9077,261,68.2373,51.2695,-25.9399,85,1.1085,0,24.9121,-15.996,26,0.8374,7895,3.9952,155.7935
rg,1625493596835992635,1,-0.4358,-0.2371,0.8887,262,60.0586,36.8042,-27.832,85,1.1085,0,26.0471,-14.2513,26,0.8344,7946,3.9952,154.1956
rg,1625493596836009246,1,-0.4941,-0.0833,0.8386,263,44.1895,19.165,-24.1699,85,1.1075,0,26.7361,-12.7147,26,0.8334,10006,3.9952,153.0943
rg,1625493596836071005,1,-0.6226,-0.0112,0.8237,264,5.4321,-2.3804,-10.7422,85,1.1085,0,26.9676,-12.2762,26,0.8344,7956,3.9952,152.8414
rg,1625493596836093245,1,-0.6528,-0.0989,0.9595,265,-15.9912,-19.104,-3.9062,85,1.1095,0,26.5005,-12.6199,26,0.8374,7949,3.9952,152.9867
rg,1625493596836111986,1,-0.5833,-0.1531,0.9832,266,-44.1895,-58.2886,8.9722,85,1.1045,0,24.4716,-13.8145,26,0.8384,8119,3.9952,154.0312
rg,1625493596836129893,1,-0.105,-0.3438,1.0581,267,-56.9458,-91.5527,16.6016,85,1.1015,0,20.3693,-15.6046,26,0.8404,8081,3.9952,155.6739
rg,1625493596836147912,1,0.0776,-0.3279,1.0635,268,-60.73,-81.665,17.7612,85,1.0935,0,16.3275,-17.5771,26,0.8354,8190,3.9952,157.3629
rg,1625493596836166152,1,0.2363,-0.3672,1.0706,269,-69.0308,-40.0391,11.5356,85,1.0855,0,13.8955,-20.1147,26,0.8264,8131,3.9952,158.362
rg,1625493596836205967,1,0.4468,-0.676,1.2234,270,-21.4844,7.2632,11.1694,85,1.0875,0,13.1376,-21.2284,26,0.8274,8116,3.9952,158.6151
rg,1625493596836229819,1,0.5562,-0.2061,0.8198,271,28.9917,19.4092,3.2959,85,1.0865,0,15.0489,-20.4771,26,0.8264,8124,3.9952,157.55
rg,1625493596836248374,1,-0.3574,-0.4873,1.0852,272,9.9487,119.5068,-9.3384,85,1.0855,0,19.4322,-20.8538,26,0.8244,9478,3.9952,155.3759
rg,1625493596836266374,1,-0.5383,-0.0691,0.8081,273,44.5557,51.8799,-12.6953,85,1.0845,0,21.7714,-18.9592,26,0.8244,9794,3.9952,154.3076
rg,1625493596836283448,1,-0.364,-0.2271,0.9106,274,27.771,19.2261,-11.4746,85,1.0865,0,22.3267,-17.9249,26,0.8244,8153,3.9952,153.6498
rg,1625493596836300059,1,-0.178,-0.1392,0.8967,275,22.0947,11.1084,-12.4512,85,1.0855,0,22.162,-16.9088,26,0.8264,8211,3.9952,153.1355
rg,1625493596836316707,1,-0.1665,-0.1711,0.9092,276,14.0381,16.9067,-15.0757,85,1.0865,0,22.1634,-16.3973,26,0.8274,8240,3.9952,152.4006
rg,1625493596836333503,1,-0.2698,-0.1533,0.8896,277,1.77,31.5552,-26.5503,85,1.0875,0,22.8484,-16.6213,26,0.8284,11944,3.9952,151.0138
rg,1625493596836350688,1,-0.3257,-0.1873,0.9221,278,-2.3193,28.5645,-28.1982,85,1.0885,0,23.4594,-17.1035,26,0.8304,8189,3.9952,149.5619
rg,1625493596836367596,1,-0.3916,-0.2261,0.9453,279,-10.7422,23.6206,-31.0059,85,1.0905,0,23.9182,-18.0242,27,0.8314,8190,3.9952,148.0191
rg,1625493596836385151,1,-0.4368,-0.2673,0.9482,280,-14.2822,18.0664,-27.8931,85,1.0925,0,24.2398,-19.0735,27,0.8354,8265,3.9952,146.6467
rg,1625493596836402077,1,-0.4248,-0.2974,0.969,281,-15.9302,12.085,-24.7192,85,1.0945,0,23.9661,-20.0797,27,0.8374,8306,3.9952,145.6551
rg,1625493596836418984,1,-0.2195,-0.5361,1.0913,282,6.6528,2.6245,-14.4043,85,1.0965,0,23.3262,-20.3194,27,0.8394,10834,3.9952,144.9221
rg,1625493596836436484,1,-0.1184,-0.5334,1.0837,283,23.6816,9.8267,-11.5967,85,1.0985,0,22.7327,-19.8813,26,0.8404,8882,3.9952,144.1925
rg,1625493596836454021,1,-0.072,-0.467,0.9978,284,49.2554,33.4473,-18.1885,85,1.1005,0,23.0111,-18.6151,26,0.8404,8359,3.9952,142.8719
rg,1625493596836470336,1,-0.248,-0.3596,0.9436,285,60.6079,53.5889,-25.1465,85,1.1025,0,24.3674,-16.999,26,0.8404,8431,3.9952,141.0663
rg,1625493596836486984,1,-0.4338,-0.27,0.8904,286,61.5234,54.8096,-26.5503,85,1.1025,0,26.0229,-15.4688,26,0.8384,8385,3.9952,139.2571
rg,1625493596836503262,1,-0.5361,-0.1355,0.8569,287,51.6968,42.1143,-25.0854,85,1.1035,0,27.6128,-13.8651,27,0.8374,8420,3.9952,137.803
rg,1625493596836534428,1,-0.7253,0.0261,0.7759,288,13.4888,10.1929,-15.8081,85,1.1035,0,28.4843,-13.1885,27,0.8384,8480,3.9952,137.2434
rg,1625493597192405429,1,-0.293,-0.312,1.0088,289,-68.2983,-95.8862,4.2114,85,1.1035,0,23.9368,-15.6309,27,0.8424,25926,3.9952,138.6393
rg,1625493597192435577,1,0.2197,-0.4695,1.3191,290,-73.7915,-67.1997,5.6763,85,1.1005,0,20.2112,-18.3166,27,0.8384,9885,3.9952,139.6866
rg,1625493597192455855,1,0.4478,-0.834,1.4092,291,-37.4146,-46.6309,7.6294,85,1.0995,0,16.7532,-19.8725,27,0.8384,7844,3.9952,140.53
rg,1625493597192475003,1,0.5657,-0.3022,1.0632,292,20.0195,29.6631,0.1221,85,1.0995,0,16.2976,-19.0429,26,0.8364,7857,3.9952,140.1513
rg,1625493597192493484,1,-0.2512,-0.3567,0.8662,293,43.2129,106.5674,-15.0146,85,1.0985,0,20.0752,-18.0822,26,0.8344,7929,3.9952,138.0828
rg,1625493597192511595,1,-0.4788,-0.0647,0.7917,294,48.645,95.9473,-19.2871,85,1.0975,0,23.7396,-16.4432,26,0.8334,8947,3.9952,136.515
rg,1625493597192529595,1,-0.6465,-0.0977,0.8184,295,35.4614,51.8188,-17.1509,85,1.0955,0,26.1026,-15.2629,26,0.8324,8499,3.9952,135.3032
rg,1625493597192546984,1,-0.2783,-0.0696,0.8423,296,19.104,1.8921,-16.6016,85,1.0965,0,25.703,-14.3811,26,0.8334,7913,3.9952,134.7616
rg,1625493597192564095,1,-0.1633,-0.0986,0.8745,297,10.2539,1.77,-18.6768,85,1.0965,0,25.3744,-14.3311,26,0.8344,7915,3.9952,133.8532
rg,1625493597192580780,1,-0.2188,-0.1084,0.8911,298,-1.6479,21.3013,-22.8882,85,1.0955,0,25.5097,-14.601,26,0.8344,8090,3.9952,132.7731
rg,1625493597192597910,1,-0.3665,-0.209,0.9636,299,-18.1885,20.2026,-30.4565,85,1.0985,0,25.7578,-15.8894,26,0.8374,12929,3.9952,131.2788
rg,1625493597192614984,1,-0.3696,-0.2661,1.001,300,-18.1885,14.4043,-29.6631,85,1.0995,0,25.7218,-17.1946,26,0.8404,8002,3.9952,129.8559
rg,1625493597192631372,1,-0.3628,-0.3799,1.0596,301,-17.8833,11.2305,-25.2686,85,1.1005,0,25.5214,-18.534,26,0.8434,8061,3.9952,128.5948
rg,1625493597192647409,1,-0.2874,-0.5283,1.1372,302,-1.8921,10.0708,-16.6626,85,1.1025,0,25.1892,-19.2356,26,0.8454,8107,3.9952,127.6388
rg,1625493597192717520,1,-0.2197,-0.5281,1.1123,303,12.6953,11.8408,-13.6719,85,1.1045,0,24.8639,-19.3026,26,0.8474,8109,3.9952,126.7842
rg,1625493597192736316,1,-0.0654,-0.5049,1.0591,304,41.687,27.832,-10.2539,85,1.1075,0,24.9446,-18.2554,26,0.8474,9171,3.9952,125.8379
rg,1625493597192754576,1,-0.1829,-0.4021,0.9824,305,54.1382,52.3682,-21.4844,85,1.1075,0,26.0752,-16.9626,26,0.8454,8635,3.9952,124.1456
rg,1625493597192772650,1,-0.4153,-0.3035,0.916,306,58.2886,56.5796,-29.1748,85,1.1095,0,27.7937,-15.5831,26,0.8464,8137,3.9952,122.1503
rg,1625493597192790224,1,-0.5046,-0.2439,0.8799,307,56.5796,45.3491,-29.8462,85,1.1085,0,29.269,-14.2012,26,0.8444,8169,3.9952,120.308
rg,1625493597192828501,1,-0.6221,-0.0596,0.8276,308,42.9688,16.3574,-25.5127,85,1.1105,0,29.9678,-12.7681,26,0.8444,8173,3.9952,119.1767
rg,1625493597192846205,1,-0.6431,0.0312,0.8113,309,8.1787,-24.4141,-14.0991,85,1.1095,0,29.2499,-12.102,26,0.8434,10208,3.9952,119.0571
rg,1625493597192864408,1,-0.5125,-0.1853,1.0012,310,-31.6162,-65.3687,-5.3711,85,1.1125,0,26.5559,-13.1018,26,0.8474,8332,3.9952,119.5028
rg,1625493597192884575,1,-0.396,-0.1807,0.9436,311,-40.7715,-79.2236,-2.7466,85,1.1125,0,22.8543,-14.7145,26,0.8494,8250,3.9952,120.4971
rg,1625493597192902834,1,-0.0977,-0.2769,0.9912,312,-61.4014,-82.9468,3.8452,85,1.1075,0,19.0331,-16.7889,26,0.8464,8451,3.9952,121.6227
rg,1625493597192920390,1,0.1184,-0.3191,1.054,313,-72.4487,-55.542,3.2959,85,1.1005,0,16.0035,-19.4101,26,0.8414,8312,3.9952,122.5032
rg,1625493597192938204,1,0.4612,-0.749,1.1731,314,-21.1182,-17.8223,11.6577,85,1.1015,0,14.2279,-20.5673,26,0.8404,8332,3.9952,123.0822
rg,1625493597193014704,1,0.5684,-0.2554,0.9043,315,24.1089,-3.3569,6.0425,85,1.0985,0,12.5683,-19.3742,26,0.8374,8407,3.9952,123.3861
rg,1625493597193033482,1,0.012,-0.4929,1.0779,316,17.395,100.8911,-9.2163,85,1.0985,0,15.7213,-19.3122,26,0.8374,8358,3.9952,121.5986
rg,1625493597193051426,1,-0.4766,-0.0425,0.7896,317,44.3115,96.8018,-13.4888,85,1.0975,0,19.8226,-17.5237,26,0.8374,8399,3.9952,119.9415
rg,1625493597193069093,1,-0.5972,-0.2034,0.8789,318,33.8135,85.022,-11.2915,85,1.0965,0,22.4651,-16.8213,26,0.8374,8401,3.9952,118.8584
rg,1625493597193086519,1,-0.4722,-0.2271,0.9048,319,19.2261,32.0435,-9.3994,85,1.0945,0,23.7495,-16.2544,26,0.8364,8476,3.9952,118.1117
rg,1625493597193104000,1,-0.1875,-0.2341,0.9285,320,13.1226,11.3525,-11.1694,85,1.0965,0,23.558,-15.8817,26,0.8374,8454,3.9952,117.5409
rg,1625493597550935044,1,-0.2043,-0.3032,0.9392,321,14.5264,24.8413,-23.9868,85,1.0965,0,23.7668,-15.8674,26,0.8394,25784,3.9952,116.2181
rg,1625493597551006377,1,-0.2295,-0.2612,0.9312,322,17.7612,29.6631,-30.7617,85,1.0965,0,24.2763,-15.6587,26,0.8414,8747,3.9952,114.6363
rg,1625493597551027284,1,-0.3479,-0.1228,0.8477,323,15.3809,34.729,-33.4473,85,1.0975,0,25.1642,-15.5077,26,0.8424,7901,3.9952,112.9304
rg,1625493597551046562,1,-0.552,-0.0347,0.7991,324,2.4414,27.832,-36.438,85,1.0985,0,26.225,-15.76,26,0.8434,7941,3.9952,111.2394
rg,1625493597551065265,1,-0.6338,-0.0505,0.8159,325,-6.6528,14.0991,-33.2642,85,1.0995,0,26.8636,-16.3145,26,0.8454,7889,3.9952,109.8234
rg,1625493597551260987,1,-0.571,-0.146,0.8987,326,-18.0664,-28.3813,-26.3672,85,1.1005,0,25.6853,-17.1035,26,0.8464,9138,3.9952,109.1835
rg,1625493597551303283,1,-0.3489,-0.3301,1.033,327,-16.2354,-52.1851,-13.5498,85,1.1015,0,23.2241,-17.7216,26,0.8484,9880,3.9952,109.2969
rg,1625493597551349597,1,-0.009,-0.5002,1.092,328,10.7422,-47.2412,-0.4272,85,1.1055,0,20.5486,-17.3606,26,0.8494,7984,3.9952,109.7768
rg,1625493597551372653,1,0.0933,-0.4927,1.0955,329,24.4751,-32.3486,-1.0986,85,1.1065,0,19.0072,-16.2207,26,0.8484,8090,3.9952,109.6719
rg,1625493597551393653,1,0.0496,-0.3806,1.0361,330,40.6494,7.8735,-9.3994,85,1.1055,0,18.3719,-14.9154,26,0.8454,8050,3.9952,109.1363
rg,1625493597551413801,1,-0.1218,-0.314,0.9897,331,43.8843,27.9541,-17.0898,85,1.1075,0,18.8203,-13.5909,26,0.8444,8057,3.9952,108.1055
rg,1625493597551433115,1,-0.2075,-0.2947,0.9409,332,42.2363,29.6021,-19.043,85,1.1065,0,19.5454,-12.4999,26,0.8424,8043,3.9952,106.9197
rg,1625493597551451412,1,-0.3357,-0.2334,0.9153,333,36.499,21.4844,-25.6958,85,1.1065,0,20.1646,-11.5409,26,0.8394,8084,3.9952,105.6366
rg,1625493597551470023,1,-0.3982,-0.2058,0.885,334,30.2124,3.0518,-25.3296,85,1.1075,0,20.2212,-10.7673,26,0.8384,8100,3.9952,104.5333
rg,1625493597551490708,1,-0.3892,-0.1809,0.8672,335,28.5034,-8.728,-24.6582,85,1.1085,0.001,19.3422,-10.0043,26,0.8394,8083,3.9952,103.7516
rg,1625493597551510504,1,-0.2988,-0.1523,0.845,336,25.8789,-29.2358,-22.2778,85,1.1075,0,18.0338,-9.2097,26,0.8384,7962,3.9952,103.0288
rg,1625493597551530207,1,-0.179,-0.1448,0.8408,337,25.8789,-38.7573,-21.5454,85,1.1085,0,16.1269,-8.3877,26,0.8384,8169,3.9952,102.3784
rg,1625493597551547856,1,-0.1023,-0.1594,0.8733,338,25.3906,-41.4429,-19.165,85,1.1095,0,14.0143,-7.6452,26,0.8394,8180,3.9952,101.8245
rg,1625493597551570115,1,-0.0879,-0.1418,0.8792,339,24.5361,-39.6118,-19.2871,85,1.1075,0,12.0172,-6.8577,26,0.8384,8228,3.9952,101.228
rg,1625493597551590170,1,-0.0964,-0.0901,0.9004,340,14.6484,-36.6211,-15.2588,85,1.1095,0,10.2596,-6.3125,26,0.8374,8166,3.9952,100.7907
rg,1625493597551610059,1,-0.1499,-0.1086,0.8855,341,-3.1738,-39.0015,-10.9253,85,1.1115,0,8.6348,-6.5076,26,0.8424,8236,3.9952,100.5231
rg,1625493597551629263,1,-0.1548,-0.1477,0.917,342,-13.0615,-44.6167,-11.2305,85,1.1105,0,6.8464,-7.1624,26,0.8444,8250,3.9952,100.2724
rg,1625493597551691707,1,-0.0942,-0.157,0.8853,343,-18.6157,-51.5137,-7.6904,85,1.1125,0,4.7349,-8.0203,26,0.8474,8257,3.9952,100.2272
rg,1625493597551719725,1,-0.0598,-0.2285,0.9043,344,-18.1274,-44.9219,-6.7139,85,1.1125,0,2.8819,-8.9843,26,0.8494,8283,3.9952,100.2084
rg,1625493597551738151,1,-0.0339,-0.2344,0.9036,345,-13.4888,-42.6025,-5.249,85,1.1105,0,1.0372,-9.7498,26,0.8474,8300,3.9952,100.2687
rg,1625493597551755151,1,0.0828,-0.1611,0.8218,346,13.4277,-33.5693,-2.2583,85,1.1085,0,-0.5612,-9.2642,26,0.8464,14689,3.9952,100.4
rg,1625493597551774151,1,0.0298,-0.0557,0.7991,347,27.4048,-18.0664,-6.8359,85,1.1085,0,-1.3761,-7.9582,26,0.8464,8319,3.9952,100.2354
rg,1625493597551792206,1,-0.1001,-0.0698,0.8101,348,39.2456,-13.2446,-7.0801,85,1.1095,0,-1.6041,-6.2672,26,0.8474,8350,3.9952,100.0223
rg,1625493597551809336,1,-0.1086,-0.1089,0.8416,349,42.9688,-16.6626,-5.8594,85,1.1095,0,-1.9365,-4.591,26,0.8484,8385,3.9952,99.8586
rg,1625493597551829354,1,-0.0215,-0.1562,0.9153,350,45.105,-21.9727,-1.77,85,1.1095,0,-2.6859,-2.993,26,0.8494,8607,3.9952,99.855
rg,1625493597551846262,1,0.0142,-0.0093,0.8311,351,43.396,-17.7612,2.6245,85,1.1095,0,-3.3213,-1.1761,26,0.8484,8699,3.9952,99.9827
rg,1625493597551864187,1,-0.054,-0.0256,0.8672,352,20.0195,-9.8267,6.7749,85,1.1065,0,-3.4368,-0.4146,26,0.8464,8428,3.9952,100.2626
rg,1625493597913507972,1,-0.0002,-0.3743,1.1016,353,13.855,-16.5405,20.9961,85,1.0975,0,-4.312,-0.5686,26,0.8374,25568,3.9952,101.1496
rg,1625493597913560194,1,0.0977,-0.2371,0.967,354,53.2227,4.6997,18.0054,85,1.0965,0,-4.1822,0.9833,26,0.8364,10233,3.9952,101.9109
rg,1625493597913590787,1,-0.1519,-0.1799,0.9229,355,70.1904,8.7891,8.4839,85,1.0955,0,-3.3245,3.2902,26,0.8354,7912,3.9952,102.3088
rg,1625493597913627639,1,-0.1753,-0.146,0.8926,356,78.9795,-10.8643,-0.6714,85,1.0945,0,-3.197,5.9543,26,0.8344,7839,3.9952,102.2883
rg,1625493597913658509,1,-0.1963,-0.0833,0.8628,357,85.144,-18.2495,-3.1738,85,1.0945,0,-3.281,8.9176,26,0.8344,7769,3.9952,102.1082
rg,1625493597913721212,1,-0.2097,0.197,0.7126,358,86.6699,-36.7432,-11.9629,86,1.0945,0,-3.8878,12.6631,26,0.8344,8998,3.9974,101.3709
rg,1625493597913751249,1,-0.1421,0.3037,0.7007,359,64.5142,-59.6924,-21.2402,86,1.0945,0,-5.4215,15.7624,26,0.8374,8445,3.9974,99.9418
rg,1625493597913780897,1,-0.093,0.2678,0.7559,360,48.0957,-63.6597,-25.2686,86,1.0955,0,-7.2048,17.892,26,0.8374,7937,3.9974,98.2292
rg,1625493597913807378,1,-0.0312,0.2017,0.8403,361,25.3906,-64.6362,-29.6021,86,1.0945,0,-8.9072,18.9985,26,0.8384,7893,3.9974,96.2926
rg,1625493597913832952,1,0.0134,-0.0056,1.0303,362,7.9956,-56.5796,-26.7334,86,1.0975,0,-10.3887,18.8487,26,0.8414,8101,3.9974,94.6391
rg,1625493597913859656,1,0.1504,-0.3206,1.2183,363,21.0571,-38.6963,-13.7939,86,1.0995,0,-11.5955,18.614,26,0.8434,9164,3.9974,93.8304
rg,1625493597913885767,1,0.2646,-0.3713,1.252,364,37.9028,-19.8364,-7.9346,86,1.1025,0,-11.675,19.606,26,0.8474,9852,3.9974,93.8938
rg,1625493597913911452,1,0.2427,-0.29,1.2104,365,70.8008,17.4561,-3.8452,86,1.1025,0,-11.0182,21.1662,26,0.8474,8111,3.9974,94.249
rg,1625493597913937841,1,-0.0215,-0.072,1.0986,366,83.9844,46.9971,-4.2114,86,1.1055,0,-8.7875,23.4403,26,0.8464,8066,3.9974,95.0137
rg,1625493597913979692,1,-0.3782,0.2,1.073,367,69.519,45.9595,3.0518,86,1.1075,0,-6.1203,25.6077,26,0.8484,8222,3.9974,95.9912
rg,1625493597914010637,1,-0.5962,0.1123,1.1685,368,23.5596,0,13.6108,86,1.1085,0,-5.1327,25.7949,26,0.8504,8195,3.9974,96.5598
rg,1625493597914038692,1,-0.5132,0.0618,1.1628,369,7.0801,-31.6772,14.8926,86,1.1075,0,-6.5356,24.769,26,0.8514,8067,3.9974,96.3646
rg,1625493597914065599,1,-0.2883,-0.0784,1.2939,370,-17.0898,-83.4961,23.4375,86,1.1015,0,-9.2417,23.0961,26,0.8464,8127,3.9974,95.9678
rg,1625493597914092340,1,0.2476,-0.1328,1.4631,371,-17.8833,-98.3276,23.3154,86,1.0965,0,-13.2692,21.4226,26,0.8404,8227,3.9974,95.5006
rg,1625493597914119155,1,0.74,-0.3367,1.2708,372,46.0815,-51.2085,28.9307,86,1.0955,0,-16.3068,21.9637,26,0.8394,8206,3.9974,96.1049
rg,1625493597914168395,1,0.6343,0.0393,1.3813,373,52.7954,-13.0615,18.3716,86,1.0935,0,-17.4324,23.1709,26,0.8364,8342,3.9974,96.8136
rg,1625493597914197710,1,-0.0603,-0.0562,1.3003,374,56.3965,62.9272,2.8076,86,1.0935,0,-14.4695,24.0756,26,0.8344,8220,3.9974,98.2876
rg,1625493597914225173,1,-0.2422,0.1899,1.2253,375,54.1382,36.3159,-0.3052,86,1.0925,0,-12.194,25.4822,26,0.8344,8241,3.9974,99.0679
rg,1625493597914251747,1,-0.2366,0.1531,1.2505,376,44.0063,28.5034,0.6104,86,1.0915,0,-10.4259,26.3582,26,0.8344,8222,3.9974,99.7699
rg,1625493597914277450,1,-0.1223,0.1606,1.2749,377,25.2686,16.4795,0.061,86,1.0885,0,-9.2407,26.5557,26,0.8334,8235,3.9974,100.2099
rg,1625493597914303450,1,-0.1218,0.1533,1.2847,378,3.9673,23.7427,-6.1035,86,1.0895,0,-7.7314,25.907,26,0.8354,8246,3.9974,100.5364
rg,1625493597914343191,1,-0.0571,0.1306,1.2976,379,-5.9814,24.6582,-6.8359,86,1.0885,0,-6.1618,24.4135,26,0.8364,8361,3.9974,100.8076
rg,1625493597914489560,1,-0.0728,0.1074,1.3145,380,-28.0151,36.5601,-11.6577,86,1.0875,0,-4.2851,22.5094,26,0.8364,8450,3.9974,101.0422
rg,1625493597914524301,1,-0.229,-0.0925,1.4028,381,-46.2036,54.6875,-13.7329,86,1.0895,0,-1.5395,19.6565,26,0.8384,8345,3.9974,101.3811
rg,1625493597914552449,1,-0.3281,-0.2322,1.4331,382,-46.814,51.1475,-15.3198,86,1.0915,0,1.1393,16.7189,26,0.8404,8424,3.9974,101.4539
rg,1625493597914581949,1,-0.291,-0.4036,1.4832,383,-32.959,35.3394,-18.0054,86,1.0915,0,3.071,14.2113,26,0.8424,10868,3.9974,101.1055
rg,1625493597914609412,1,-0.0615,-0.4519,1.4639,384,1.2817,25.6958,-18.3716,86,1.0945,0,4.2253,13.0484,26,0.8434,8492,3.9974,100.5696
rg,1625493598266289043,1,-0.4197,-0.0264,1.1243,385,27.4658,35.5225,-38.6963,86,1.0995,0,6.5961,13.4985,26,0.8414,25160,3.9974,99.3481
rg,1625493598266329321,1,-0.7109,0.072,1.0771,386,-32.5928,-44.9219,-42.2974,86,1.1015,0,6.238,11.6445,26,0.8434,14539,3.9974,97.237
rg,1625493598266350432,1,-0.4023,-0.0952,1.1326,387,-52.002,-118.7744,-38.5742,86,1.1025,0,2.3805,8.7837,26,0.8454,7991,3.9974,94.7885
rg,1625493598266370506,1,-0.0859,-0.1643,1.1692,388,-55.6641,-143.2495,-37.6587,86,1.1015,0,-3.0111,5.9232,26,0.8444,7935,3.9974,92.5329
rg,1625493598266389820,1,0.4209,-0.2334,1.1558,389,-52.9175,-138.4888,-43.1519,86,1.0945,0,-9.0687,3.4337,26,0.8384,10616,3.9974,90.399
rg,1625493598266408117,1,0.3994,-0.2869,1.3064,390,-41.2598,-80.0171,-46.5088,86,1.0915,0,-12.4796,1.5648,26,0.8354,7978,3.9974,88.4671
rg,1625493598266425987,1,0.4565,-0.0115,0.8918,391,18.6768,-46.2646,-43.7622,86,1.0905,0,-14.8265,2.6684,26,0.8324,8080,3.9974,86.6092
rg,1625493598266444691,1,0.1589,0.0742,0.8806,392,15.0146,0.6104,-46.875,86,1.0895,0,-14.5088,3.8419,26,0.8314,7982,3.9974,84.6551
rg,1625493598266462913,1,0.0374,0.1465,0.8391,393,16.6626,3.6011,-45.5322,86,1.0885,0,-13.7498,5.2044,26,0.8304,7986,3.9974,82.7381
rg,1625493598266480190,1,0.1746,0.269,0.7849,394,5.0049,-14.7095,-45.9595,86,1.0875,0,-14.0832,6.412,26,0.8294,8769,3.9974,80.6632
rg,1625493598266498357,1,0.2195,0.165,0.854,395,-12.5122,-2.1362,-43.5181,86,1.0835,0,-13.9727,6.525,26,0.8304,8630,3.9974,78.8267
rg,1625493598266515783,1,0.2402,0.0603,0.9265,396,-22.2168,14.7705,-36.1328,86,1.0865,0,-13.2494,5.8598,26,0.8324,8133,3.9974,77.4415
rg,1625493598266533172,1,0.2471,-0.0054,0.9705,397,-25.2686,22.8271,-34.0576,86,1.0865,0,-12.2558,4.8963,26,0.8344,8090,3.9974,76.1957
rg,1625493598266550486,1,0.1711,-0.0771,1.0391,398,-23.8037,39.7949,-29.0527,86,1.0895,0,-10.4726,3.7923,26,0.8374,8109,3.9974,75.2142
rg,1625493598266567875,1,0.1533,-0.1787,1.1116,399,-15.3198,43.0908,-26.3062,86,1.0925,0.001,-8.5967,2.8308,26,0.8404,8185,3.9974,74.3433
rg,1625493598266584634,1,0.1809,-0.2708,1.1318,400,-8.0566,43.5791,-26.123,86,1.0945,0,-6.7247,2.4886,26,0.8424,8511,3.9974,73.4337
rg,1625493598266601542,1,0.2285,-0.261,1.1018,401,19.2871,49.2554,-25.8179,86,1.0985,0,-4.9,2.8782,26,0.8434,8402,3.9974,72.5455
rg,1625493598266619468,1,0.0586,-0.0461,1.0015,402,35.7056,63.0493,-33.2031,86,1.0985,-0.001,-2.2488,4.1561,26,0.8414,8257,3.9974,71.3928
rg,1625493598266659449,1,-0.377,0.1445,0.9106,403,22.0337,51.0254,-33.8135,86,1.1015,0,0.8272,5.2256,26,0.8414,8108,3.9974,70.2143
rg,1625493598266678541,1,-0.5012,0.2468,0.8657,404,4.6997,18.3716,-32.7148,86,1.1025,0,1.0868,4.5769,26,0.8424,8223,3.9974,68.9409
rg,1625493598266696615,1,-0.2803,-0.0852,1.0667,405,-43.396,-64.5752,-29.48,86,1.1035,0,-0.8762,2.4947,26,0.8434,8317,3.9974,67.588
rg,1625493598266714134,1,0.2078,-0.2129,1.1118,406,-50.5371,-98.938,-29.9072,86,1.1025,0,-5.1655,0.0324,26,0.8444,8317,3.9974,66.3201
rg,1625493598266733300,1,0.4719,-0.2759,1.092,407,-37.9639,-76.1108,-30.5176,86,1.1015,0,-8.904,-1.8541,26,0.8444,8275,3.9974,65.1985
rg,1625493598266750800,1,0.4802,-0.2407,1.1289,408,-29.6631,-54.1992,-29.7852,86,1.0995,0,-11.6521,-3.2144,26,0.8434,8345,3.9974,64.152
rg,1625493598266767930,1,0.5312,-0.2063,0.8989,409,18.5547,-18.7378,-22.7051,86,1.0975,0,-13.1591,-2.6216,26,0.8404,8450,3.9974,63.3277
rg,1625493598266785559,1,0.2966,0.0305,0.8757,410,24.1699,13.855,-27.71,86,1.0965,0,-12.861,-1.219,26,0.8394,8579,3.9974,62.1277
rg,1625493598266802670,1,0.0842,0.0813,0.8289,411,25.7568,13.5498,-32.5928,86,1.0955,0,-12.0505,0.3702,26,0.8394,8456,3.9974,60.7307
rg,1625493598266820078,1,0.1304,0.1257,0.8108,412,24.5972,1.8921,-36.1938,86,1.0925,0,-11.8268,1.9917,26,0.8374,8387,3.9974,59.1838
rg,1625493598266837281,1,0.1863,0.1528,0.7776,413,13.3667,2.5635,-36.0718,86,1.0905,0,-11.7168,3.1809,26,0.8384,8489,3.9974,57.6416
rg,1625493598266867096,1,0.2407,0.0813,0.8323,414,0,11.1084,-33.9966,86,1.0915,0,-11.3639,3.545,26,0.8394,8468,3.9974,56.2632
rg,1625493598266948966,1,0.1899,0.0457,0.8718,415,-3.9673,17.8833,-33.1421,86,1.0905,0,-10.3163,3.5183,26,0.8414,8538,3.9974,55.0484
rg,1625493598266970299,1,0.1335,0.0176,0.9111,416,-7.3853,29.1748,-30.8228,86,1.0885,0,-9.0011,3.3247,26,0.8424,8516,3.9974,53.8883
rg,1625493598626322367,1,0.3088,-0.2878,1.0857,417,28.0762,15.9912,-17.2119,86,1.0965,-0.001,-8.3856,4.5301,26,0.8474,25707,3.9974,53.4394
rg,1625493598626385978,1,0.2341,-0.0891,0.9712,418,58.8989,56.5186,-19.2871,86,1.0995,0,-6.2745,6.5708,26,0.8454,10370,3.9974,52.9386
rg,1625493598626406348,1,-0.2251,0.1594,0.8953,419,49.0723,56.0913,-19.4092,86,1.1005,0,-3.1729,8.6988,26,0.8444,7839,3.9974,52.4665
rg,1625493598626426052,1,-0.3887,0.2952,0.8633,420,34.8511,33.3862,-15.9302,86,1.1015,0,-0.7544,10.4677,26,0.8434,7840,3.9974,52.0558
rg,1625493598626443867,1,-0.3254,0.0369,0.9741,421,-19.4702,-41.0156,-4.2114,86,1.1025,0,-1.5896,9.3877,26,0.8464,8006,3.9974,51.6027
rg,1625493598626461422,1,0.2036,-0.0857,1.042,422,-33.2642,-87.9517,1.0986,86,1.1025,0,-5.4347,7.5453,26,0.8454,8796,3.9974,51.1474
rg,1625493598626479978,1,0.4709,-0.2542,1.1121,423,-37.1094,-79.834,2.0752,86,1.0985,0,-8.5783,5.3682,26,0.8454,8678,3.9974,51.0117
rg,1625493598626497459,1,0.4705,-0.2837,1.1912,424,-29.3579,-40.7715,0.7935,86,1.0955,0,-10.7014,3.5215,26,0.8414,7979,3.9974,51.0278
rg,1625493598626514403,1,0.6592,-0.2119,0.8533,425,37.7808,-12.5122,12.0239,86,1.0955,0,-12.2458,4.3818,26,0.8404,7984,3.9974,51.5789
rg,1625493598626531181,1,0.6067,0.0291,0.9868,426,41.5039,7.0801,10.0098,86,1.0955,0,-11.4915,5.9481,26,0.8394,7970,3.9974,52.0591
rg,1625493598626548922,1,0.1702,0.0613,0.8059,427,54.3213,47.9736,3.1128,86,1.0925,0,-9.6221,7.9824,26,0.8354,7979,3.9974,52.435
rg,1625493598626566366,1,0.0886,0.1562,0.8171,428,48.9502,20.6909,-5.0659,86,1.0935,0,-8.6337,10.0555,26,0.8354,8105,3.9974,52.348
rg,1625493598626583699,1,0.1611,0.0728,0.8708,429,45.105,11.3525,-6.897,86,1.0915,0,-8.4631,11.6622,26,0.8354,8281,3.9974,52.1873
rg,1625493598626600940,1,0.2437,0.063,0.8755,430,43.2739,4.0283,-5.127,86,1.0905,0,-8.5419,13.1191,26,0.8354,8090,3.9974,52.0601
rg,1625493598626617903,1,0.2993,0.0413,0.8914,431,38.6353,15.7471,-4.2114,86,1.0915,0,-8.2899,14.2637,26,0.8374,8076,3.9974,52.1019
rg,1625493598626670829,1,0.2021,0.0471,0.9036,432,36.0718,24.5972,-4.6387,86,1.0925,0,-7.2841,15.179,26,0.8374,8121,3.9974,52.2686
rg,1625493598626689643,1,0.1545,0.0762,0.8977,433,34.4238,29.9683,-5.127,86,1.0925,0,-6.1789,16.1289,26,0.8384,8148,3.9974,52.4481
rg,1625493598626707143,1,0.0793,0.0793,0.8901,434,31.9824,22.2168,-7.3242,86,1.0965,0,-5.2064,16.9678,26,0.8394,8132,3.9974,52.4691
rg,1625493598626723865,1,0.0208,0.115,0.8848,435,28.1372,5.249,-10.2539,86,1.0985,0,-4.7329,17.7355,26,0.8444,8200,3.9974,52.1753
rg,1625493598626740402,1,0.0454,0.0706,0.9192,436,25.9399,-19.6533,-11.5356,86,1.0995,0,-5.2634,18.2995,26,0.8454,8210,3.9974,51.5345
rg,1625493598626757087,1,0.1646,0.0264,0.9551,437,26.123,-40.8325,-13.3667,86,1.1015,0,-6.8215,18.7994,26,0.8474,8232,3.9974,50.5605
rg,1625493598626774606,1,0.2771,-0.0129,0.9836,438,30.1514,-44.6777,-13.0615,86,1.1025,0,-8.7016,19.6651,26,0.8484,9349,3.9974,49.5565
rg,1625493598626792643,1,0.342,0.0029,0.9814,439,45.4712,-42.4194,-9.5215,86,1.1045,0,-10.5861,20.9095,26,0.8494,8216,3.9974,48.703
rg,1625493598626810495,1,0.3662,0.0513,0.9355,440,58.8989,-31.1279,-8.9722,86,1.1045,0,-12.0447,22.7562,26,0.8484,9237,3.9974,48.0058
rg,1625493598626826643,1,0.2856,0.1267,0.886,441,62.9272,-24.5361,-9.6436,86,1.1015,0,-13.0204,24.8678,26,0.8474,8713,3.9974,47.3521
rg,1625493598626842569,1,0.2234,0.1768,0.8489,442,59.6313,-29.6631,-8.667,86,1.1055,0,-14,26.9261,26,0.8464,8383,3.9974,46.6139
rg,1625493598626861254,1,0.2351,0.1726,0.8442,443,59.3872,-36.6211,-7.6294,86,1.1045,0,-15.2135,28.9367,26,0.8444,8291,3.9974,45.7712
rg,1625493598626877957,1,0.3362,0.1777,0.8369,444,57.4341,-49.8047,-4.2725,86,1.1005,0,-17.1165,30.9106,26,0.8434,8309,3.9974,44.7467
rg,1625493598626894550,1,0.4255,0.1907,0.8342,445,55.7251,-48.0957,-2.8687,86,1.1055,0,-19.0773,32.8292,26,0.8434,8376,3.9974,43.7648
rg,1625493598626911661,1,0.4346,0.1982,0.8264,446,55.0537,-45.2881,-0.4883,86,1.1065,0,-20.7854,34.6509,26,0.8434,8342,3.9974,42.9687
rg,1625493598626950698,1,0.4363,0.2126,0.8237,447,53.0396,-37.5977,0.6104,86,1.1045,0,-22.3117,36.3472,26,0.8414,8388,3.9974,42.3152
rg,1625493598626970512,1,0.4258,0.2207,0.821,448,53.772,-34.8511,4.3335,86,1.1055,0,-23.7425,37.9817,26,0.8414,8393,3.9974,41.8544
rg,1625493598990079545,1,0.4055,0.1592,0.8445,449,61.8896,-34.8511,10.6201,86,1.1075,0,-25.3002,39.8447,26,0.8424,25036,3.9974,41.7105
rg,1625493598990136730,1,0.3936,0.238,0.8179,450,76.6602,-33.5693,15.8081,86,1.1085,0,-26.6831,42.3564,26,0.8434,15415,3.9974,41.7402
rg,1625493598990156897,1,0.3274,0.3091,0.7756,451,81.4209,-32.959,21.4233,86,1.1085,0,-28.0756,44.9011,26,0.8424,7850,3.9974,41.7984
rg,1625493598990176267,1,0.3718,0.3369,0.7678,452,81.7261,-43.457,26.3062,86,1.1085,0,-29.9317,47.5806,26,0.8424,7884,3.9974,41.6045
rg,1625493598990194952,1,0.3999,0.3311,0.783,453,79.4678,-46.875,26.7334,86,1.1085,0,-31.9418,50.1985,26,0.8424,7889,3.9974,41.2617
rg,1625493598990212952,1,0.4485,0.3418,0.7883,454,75.5005,-48.7061,26.1841,86,1.1085,0,-33.9083,52.6809,26,0.8424,8083,3.9974,40.8003
rg,1625493598990229804,1,0.4963,0.3101,0.814,455,71.5332,-47.2412,24.5361,86,1.1085,0,-35.8076,54.9116,26,0.8404,10111,3.9974,40.3605
rg,1625493598990246767,1,0.5513,0.2778,0.8555,456,74.585,-43.5181,23.1934,86,1.1065,0,-37.6024,57.1107,26,0.8414,7990,3.9974,40.062
rg,1625493598990264804,1,0.563,0.2507,0.9087,457,81.2988,-30.4565,21.8506,86,1.1105,0,-39.0221,59.1368,26,0.8424,11462,3.9974,40.3509
rg,1625493598990281785,1,0.5496,0.2234,0.9568,458,90.5762,-18.6768,25.4517,86,1.1105,0,-40.2749,60.9947,26,0.8434,8041,3.9974,41.3504
rg,1625493598990299044,1,0.5295,0.2681,0.9475,459,102.417,-7.5684,26.4282,86,1.1105,0,-41.267,62.9859,26,0.8434,8151,3.9974,42.8839
rg,1625493598990315933,1,0.5237,0.3013,0.9216,460,107.7271,-2.7466,28.9917,86,1.1105,0,-42.1573,65.0942,26,0.8434,8163,3.9974,44.641
rg,1625493598990370414,1,0.4731,0.384,0.894,461,111.8164,7.019,31.7993,86,1.1105,0,-42.9293,66.9661,26,0.8434,8118,3.9974,46.9589
rg,1625493598990393414,1,0.4238,0.4224,0.877,462,110.2295,10.376,32.6538,86,1.1105,0,-43.5874,68.6202,26,0.8434,8683,3.9974,49.4782
rg,1625493598990411766,1,0.4031,0.4841,0.8635,463,104.4922,5.9814,31.1279,86,1.1115,0,-44.1749,70.2695,26,0.8444,8451,3.9974,51.7027
rg,1625493598990433359,1,0.416,0.4902,0.8743,464,101.3184,4.5776,28.6865,86,1.1115,0,-44.7053,71.6983,26,0.8434,8849,3.9974,53.75
rg,1625493598990452395,1,0.4214,0.4656,0.9058,465,92.5293,3.418,25.6348,86,1.1115,0,-45.2092,72.8374,26,0.8444,8436,3.9974,55.8681
rg,1625493598990535377,1,0.3926,0.4058,0.979,466,88.9893,3.3569,24.0479,86,1.1105,0,-45.686,73.6077,26,0.8444,8459,3.9974,58.1355
rg,1625493598990565599,1,0.3928,0.3542,1.0269,467,90.6372,3.479,23.9868,86,1.1115,0,-46.2271,74.2775,26,0.8454,8851,3.9974,60.5307
rg,1625493598990584376,1,0.3926,0.3325,1.0593,468,97.29,7.1411,23.2544,86,1.1095,0,-46.7325,74.9752,26,0.8424,9109,3.9974,63.1999
rg,1625493598990603210,1,0.3936,0.3206,1.0647,469,101.8677,9.3384,24.5361,86,1.1105,0,-47.2507,75.7663,26,0.8444,8348,3.9974,66.2135
rg,1625493598990621469,1,0.3774,0.3142,1.0564,470,110.8398,16.7847,23.2544,86,1.1105,0,-47.6933,76.4696,26,0.8454,8359,3.9974,69.5486
rg,1625493598990639765,1,0.3604,0.321,1.0591,471,119.812,21.2402,22.583,86,1.1125,0,-48.0577,77.2944,26,0.8464,8384,3.9974,73.18
rg,1625493598990658580,1,0.3159,0.4084,0.9822,472,133.3618,26.4282,23.0103,86,1.1125,0,-48.2506,78.539,26,0.8474,8487,3.9974,77.0445
rg,1625493598990676135,1,0.2278,0.5564,0.8584,473,133.5449,27.5269,20.3247,86,1.1125,0,-47.9701,80.1921,26,0.8494,8390,3.9974,80.6485
rg,1625493598990694561,1,0.2024,0.6177,0.8059,474,133.1787,21.7896,17.395,86,1.1125,0,-47.5388,82.2509,26,0.8504,8492,3.9974,83.7348
rg,1625493598990712542,1,0.1755,0.6899,0.7891,475,122.1313,10.9863,14.2822,95,1.1135,0,-47.0837,84.3595,26,0.8514,8445,3.9908,86.1352
rg,1625493598990749672,1,0.1902,0.7456,0.7446,476,103.9429,-1.2207,12.085,95,1.1135,0,-46.5947,86.4031,26,0.8514,8528,3.9908,87.6898
rg,1625493598990768894,1,0.1836,0.7512,0.7656,477,78.6743,-5.9204,14.7705,95,1.1135,0,-46.2583,87.5518,26,0.8524,8537,3.9908,89.0083
rg,1625493598990787227,1,0.2271,0.718,0.8008,478,68.4204,-9.0942,15.2588,95,1.1145,0,-46.3301,88.1058,26,0.8534,8566,3.9908,89.9924
rg,1625493598990804820,1,0.353,0.6658,0.8889,479,53.5278,-10.2539,16.7847,95,1.1145,0,-46.506,88.1725,26,0.8534,8589,3.9908,91.2265
rg,1625493598990891894,1,0.4507,0.6233,0.9663,480,50.5981,4.1504,21.3623,95,1.1145,0,-47.0401,87.4114,26,0.8544,8558,3.9908,93.3828
rg,1625493599353054471,1,0.5139,0.5259,1.1685,481,55.9692,67.627,34.4238,95,1.1155,0,-48.0487,83.7438,26,0.8554,25196,3.9908,99.6101
rg,1625493599353109878,1,0.3499,0.5149,1.2341,482,70.5566,112.3657,39.4287,95,1.1155,0,-48.4567,78.3729,26,0.8554,11920,3.9908,108.8199
rg,1625493599353130008,1,0.2607,0.5159,1.2495,483,75.0122,118.8965,42.4805,95,1.1155,0,-48.2326,72.901,26,0.8564,7912,3.9908,118.477
rg,1625493599353148823,1,0.1033,0.5779,1.2163,484,80.5054,117.6758,43.7622,95,1.1155,0,-47.2599,68.0925,26,0.8564,7922,3.9908,127.7867
rg,1625493599353166749,1,-0.03,0.6816,1.1489,485,74.1577,95.2148,40.7715,95,1.1155,0,-45.8611,64.6697,26,0.8564,8036,3.9908,135.2704
rg,1625493599353184989,1,-0.0425,0.7007,1.1392,486,67.1387,76.1719,37.2314,95,1.1155,0,-44.4125,62.1815,26,0.8574,7903,3.9908,141.3304
rg,1625493599353202434,1,0.0374,0.676,1.1309,487,47.9126,38.3911,28.1372,95,1.1135,0,-43.3509,60.6332,26,0.8564,9286,3.9908,145.0956
rg,1625493599353219971,1,0.147,0.6594,1.0967,488,31.4331,13.9771,16.4185,95,1.1115,0,-42.4783,59.5988,26,0.8574,7994,3.9908,147.256
rg,1625493599353238471,1,0.2173,0.6272,1.0654,489,15.686,0,6.7139,95,1.1145,0,-41.6709,58.6233,26,0.8574,8013,3.9908,148.438
rg,1625493599353256193,1,0.2163,0.5991,1.0496,490,10.6812,-4.6997,2.1362,95,1.1155,0,-40.8317,57.7025,26,0.8584,7934,3.9908,149.2471
rg,1625493599353312878,1,0.2937,0.5981,0.9561,491,2.9907,-13.3057,-4.6997,95,1.1145,0,-40.0884,57.0265,26,0.8584,10492,3.9908,149.3513
rg,1625493599353330766,1,0.3806,0.5703,0.8711,492,-2.1973,-10.0708,-8.3008,95,1.1165,-0.001,-39.3622,56.2362,26,0.8584,8044,3.9908,149.4074
rg,1625493599353348452,1,0.3613,0.5413,0.822,493,-9.0332,0.6714,-11.1084,95,1.1165,0,-38.3302,54.9838,26,0.8594,7886,3.9908,149.7966
rg,1625493599353365377,1,0.3398,0.533,0.7986,494,-11.9629,3.2959,-12.5732,95,1.1165,0,-37.1935,53.6579,26,0.8604,8182,3.9908,150.1766
rg,1625493599353382822,1,0.3562,0.5193,0.7603,495,-17.2729,4.6997,-16.7847,95,1.1135,0,-35.9814,52.2745,26,0.8594,8142,3.9908,150.3941
rg,1625493599353399581,1,0.3799,0.4907,0.73,496,-18.0054,9.2163,-19.6533,95,1.1165,0,-34.696,50.8812,26,0.8604,8150,3.9908,150.6309
rg,1625493599353415785,1,0.3777,0.4858,0.7258,497,-17.9443,10.9253,-22.1558,95,1.1165,0,-33.1951,49.5952,26,0.8604,8150,3.9908,150.7377
rg,1625493599353432766,1,0.3557,0.4761,0.7158,498,-16.7847,12.6343,-27.4658,95,1.1155,0,-31.6517,48.445,26,0.8594,8189,3.9908,150.7202
rg,1625493599353449710,1,0.3145,0.5134,0.6594,499,-14.0381,10.3149,-31.1279,95,1.1175,0,-30.0304,47.7336,26,0.8594,8265,3.9908,150.3557
rg,1625493599353466840,1,0.3101,0.512,0.6677,500,-17.2119,0.6714,-35.0952,95,1.1155,0,-28.604,47.1225,26,0.8604,8224,3.9908,149.5151
rg,1625493599353484210,1,0.3311,0.5032,0.6982,501,-16.2354,-4.2725,-35.6445,95,1.1145,0,-27.3958,46.5756,26,0.8584,8185,3.9908,148.5036
rg,1625493599353501395,1,0.3687,0.4973,0.7156,502,-13.3667,-19.104,-42.3584,95,1.1165,0,-26.5287,46.4272,26,0.8604,8235,3.9908,146.8016
rg,1625493599353518840,1,0.4021,0.4958,0.7515,503,-8.606,-33.02,-47.5464,95,1.1165,0,-25.9735,46.6708,26,0.8604,12171,3.9908,144.5136
rg,1625493599353535766,1,0.4802,0.5164,0.7551,504,0.3662,-43.0298,-50.7812,95,1.1165,0,-25.7367,47.4798,26,0.8604,8266,3.9908,141.7903
rg,1625493599353552932,1,0.4951,0.5552,0.7439,505,3.7231,-46.4478,-50.8423,95,1.1165,0,-25.566,48.5199,26,0.8604,8609,3.9908,138.9343
rg,1625493599353582580,1,0.5051,0.5691,0.7388,506,6.897,-49.9268,-52.124,95,1.1165,0,-25.5001,49.8846,26,0.8614,8293,3.9908,135.853
rg,1625493599353600839,1,0.5386,0.6033,0.719,507,9.7656,-54.5654,-50.9644,95,1.1165,0,-25.4838,51.3106,26,0.8614,8314,3.9908,132.716
rg,1625493599353617302,1,0.5825,0.6367,0.6838,508,11.1084,-58.1055,-50.415,95,1.1155,0,-25.5721,52.9017,26,0.8614,8604,3.9908,129.4464
rg,1625493599353634024,1,0.605,0.6736,0.6511,509,10.8032,-55.9692,-47.0581,95,1.1165,0,-25.663,54.4677,26,0.8614,8948,3.9908,126.3215
rg,1625493599353650765,1,0.6267,0.6833,0.6475,510,6.8359,-49.4995,-39.6118,95,1.1165,0,-25.8103,55.6609,26,0.8614,8622,3.9908,123.6405
rg,1625493599353667247,1,0.6543,0.6746,0.6365,511,5.3101,-47.3633,-35.9497,95,1.1165,0,-25.9958,56.4875,26,0.8624,9010,3.9908,121.4357
rg,1625493599353683876,1,0.6604,0.6714,0.6458,512,1.8311,-36.8652,-30.7617,95,1.1155,0,-26.146,57.1107,26,0.8624,8628,3.9908,119.4801
rg,1625493599714775461,1,0.6357,0.6501,0.6277,513,0.1831,-12.5732,-19.104,95,1.1165,0,-25.9882,56.9118,26,0.8634,22823,3.9908,118.9803
rg,1625493599714825813,1,0.5386,0.6147,0.636,514,0.9766,-4.3335,-15.5029,95,1.1165,0,-25.7922,56.6903,26,0.8634,12830,3.9908,118.6626
rg,1625493599714846424,1,0.5293,0.6047,0.644,515,1.0376,-1.9531,-12.5732,95,1.1165,0,-25.6374,56.3772,26,0.8634,7919,3.9908,118.5122
rg,1625493599714865813,1,0.5171,0.5891,0.665,516,1.0376,0.1831,-12.3901,95,1.1165,0,-25.4838,55.9509,26,0.8634,7992,3.9908,118.5438
rg,1625493599714885646,1,0.5083,0.5801,0.6646,517,3.479,2.6245,-9.3384,95,1.1165,0,-25.3166,55.5758,26,0.8634,7868,3.9908,118.6576
rg,1625493599714904183,1,0.4824,0.5681,0.6777,518,8.7891,6.2256,-8.3618,95,1.1175,0,-25.0583,55.3122,27,0.8634,7912,3.9908,118.9382
rg,1625493599714923739,1,0.4729,0.561,0.6868,519,13.7329,9.4604,-9.0942,95,1.1165,0,-24.6936,55.1867,27,0.8634,8688,3.9908,119.3216
rg,1625493599714942553,1,0.4629,0.5662,0.6812,520,16.5405,10.7422,-9.2773,95,1.1165,0,-24.2867,55.1793,27,0.8634,8195,3.9908,119.7325
rg,1625493599714999368,1,0.4399,0.5803,0.675,521,21.0571,12.2681,-6.958,95,1.1155,0,-23.8832,55.3381,27,0.8634,8695,3.9908,120.2395
rg,1625493599715021553,1,0.4397,0.6042,0.6731,522,24.7192,11.9629,-6.7749,95,1.1165,0,-23.4911,55.6872,26,0.8634,8635,3.9908,120.7212
rg,1625493599715039571,1,0.4539,0.6138,0.6738,523,24.292,11.4746,-7.2021,95,1.1165,0,-23.1338,56.037,26,0.8634,8501,3.9908,121.1716
rg,1625493599715089127,1,0.46,0.6147,0.6836,524,24.5361,11.4136,-7.1411,95,1.1165,0,-22.8017,56.3721,26,0.8634,8710,3.9908,121.6307
rg,1625493599715110219,1,0.4866,0.6179,0.6997,525,26.062,11.2915,-8.3008,95,1.1165,0,-22.5348,56.7817,26,0.8634,10526,3.9908,122.082
rg,1625493599715143682,1,0.5039,0.624,0.6943,526,25.9399,12.8174,-9.2163,95,1.1165,0,-22.2019,57.155,26,0.8634,8443,3.9908,122.5506
rg,1625493599715162627,1,0.4993,0.6282,0.6941,527,25.8789,15.4419,-10.8032,95,1.1165,-0.001,-21.7631,57.4979,26,0.8634,8206,3.9908,123.0806
rg,1625493599715191552,1,0.4988,0.6343,0.6826,528,24.7803,16.2354,-12.2681,95,1.1165,0,-21.2786,57.8171,26,0.8634,9209,3.9908,123.5988
rg,1625493599715211330,1,0.498,0.6328,0.6921,529,23.6816,15.9912,-12.5122,95,1.1165,0,-20.7332,58.0419,26,0.8644,8283,3.9908,124.1333
rg,1625493599715231348,1,0.4761,0.6355,0.6877,530,23.4375,18.9209,-13.7329,95,1.1155,0,-20.1397,58.261,26,0.8634,8328,3.9908,124.7217
rg,1625493599715254478,1,0.4111,0.6321,0.7053,531,20.6299,14.9536,-15.1978,95,1.1165,0,-19.4696,58.3765,26,0.8644,9486,3.9908,125.1482
rg,1625493599715272996,1,0.4578,0.6199,0.6948,532,19.043,5.9814,-15.5029,95,1.1155,0,-19.1088,58.5462,26,0.8634,8839,3.9908,125.2353
rg,1625493599715294867,1,0.49,0.6245,0.6826,533,18.8599,4.6387,-15.4419,95,1.1165,0,-18.8568,58.7527,26,0.8654,8655,3.9908,125.264
rg,1625493599715493440,1,0.4658,0.6245,0.6794,534,19.3481,5.8594,-15.5029,95,1.1155,0,-18.5861,58.9428,26,0.8644,8749,3.9908,125.3173
rg,1625493599715518903,1,0.4653,0.6179,0.6719,535,18.7988,4.1504,-16.4185,95,1.1155,0,-18.2952,59.1445,26,0.8644,8834,3.9908,125.3107
rg,1625493599715579217,1,0.4819,0.6194,0.6621,536,19.4702,2.7466,-17.9443,95,1.1155,0,-18.028,59.4136,26,0.8654,8664,3.9908,125.2153
rg,1625493599715601791,1,0.4751,0.6519,0.6289,537,19.4092,3.7842,-18.1885,95,1.1155,0,-17.7206,59.7622,27,0.8654,8923,3.9908,125.1244
rg,1625493599715639921,1,0.4788,0.666,0.6179,538,14.7705,2.0752,-17.8223,95,1.1165,0,-17.4728,59.9684,27,0.8664,9018,3.9908,124.9721
rg,1625493599715660180,1,0.4832,0.6584,0.623,539,11.1694,3.1128,-18.3105,95,1.1165,0,-17.2085,59.9948,27,0.8654,8702,3.9908,124.8556
rg,1625493599715679828,1,0.479,0.6526,0.6287,540,10.0708,3.1128,-17.5781,95,1.1165,0,-16.9913,59.9869,27,0.8654,8545,3.9908,124.7484
rg,1625493599715702124,1,0.499,0.6667,0.6345,541,7.6294,1.5869,-16.1133,95,1.1165,0,-16.8682,59.869,26,0.8664,8627,3.9908,124.62
rg,1625493599715722532,1,0.5249,0.6606,0.6409,542,2.8076,2.6245,-15.3809,95,1.1165,0,-16.8036,59.5342,26,0.8664,8621,3.9908,124.5451
rg,1625493599715741587,1,0.5171,0.6489,0.6406,543,1.8311,5.188,-14.5264,95,1.1165,0,-16.7152,59.123,26,0.8664,8659,3.9908,124.5783
rg,1625493599715762661,1,0.5195,0.6538,0.6445,544,0.9766,5.6152,-13.6719,95,1.1165,0,-16.6733,58.6923,26,0.8664,8696,3.9908,124.6437
rg,1625493600077817688,1,0.5183,0.6487,0.6306,545,0.9155,6.7139,-12.085,95,1.1155,0,-16.6497,58.2627,26,0.8664,24021,3.9908,124.7606
rg,1625493600077861465,1,0.5107,0.6348,0.6323,546,1.0986,6.5918,-9.0942,95,1.1165,0,-16.7268,57.814,26,0.8674,16439,3.9908,124.9373
rg,1625493600077881836,1,0.5081,0.6389,0.637,547,0.8545,8.1787,-8.4229,95,1.1165,0,-16.7771,57.3495,26,0.8674,7879,3.9908,125.178
rg,1625493600077901076,1,0.5063,0.6379,0.6357,548,0.1831,8.5449,-8.9111,95,1.1165,0,-16.7978,56.8754,26,0.8664,7882,3.9908,125.4122
rg,1625493600077946576,1,0.4973,0.6377,0.6274,549,0.4272,9.0942,-7.4463,95,1.1165,0,-16.8413,56.4256,26,0.8664,7834,3.9908,125.6867
rg,1625493600077966132,1,0.4973,0.6304,0.6292,550,-1.4038,8.9111,-8.606,95,1.1165,0,-16.8747,55.9777,26,0.8664,7889,3.9908,125.9523
rg,1625493600077984335,1,0.498,0.6306,0.6331,551,0,9.2163,-8.4229,95,1.1155,0,-16.8879,55.5476,26,0.8664,9250,3.9908,126.1928
rg,1625493600078001650,1,0.4939,0.6365,0.6343,552,-1.0986,8.1787,-7.6904,95,1.1155,0.001,-16.925,55.0839,26,0.8674,8044,3.9908,126.4099
rg,1625493600078019668,1,0.5061,0.6243,0.6304,553,0.061,7.2021,-7.5073,95,1.1155,0,-17.0231,54.6824,26,0.8674,8174,3.9908,126.5928
rg,1625493600078036280,1,0.511,0.6147,0.6348,554,0.9766,8.1177,-8.667,95,1.1165,0,-17.0716,54.3101,26,0.8664,8474,3.9908,126.7786
rg,1625493600078052946,1,0.5022,0.6204,0.6384,555,1.0376,8.3008,-9.3994,95,1.1165,0,-17.0655,53.959,26,0.8674,8241,3.9908,126.9455
rg,1625493600078069298,1,0.4802,0.623,0.6436,556,1.0986,6.3477,-9.1553,95,1.1155,0,-17.0648,53.6335,26,0.8664,8641,3.9908,127.0475
rg,1625493600078085742,1,0.4944,0.6306,0.6296,557,0.9766,3.2959,-9.0942,95,1.1155,0,-17.1681,53.3829,26,0.8674,8487,3.9908,127.0309
rg,1625493600078103187,1,0.5142,0.6267,0.6348,558,0.9766,2.8076,-8.2397,95,1.1165,0,-17.3435,53.1286,26,0.8674,8402,3.9908,127.0191
rg,1625493600078120131,1,0.5095,0.6252,0.6362,559,0.9766,2.9297,-7.2021,95,1.1155,0,-17.504,52.8875,26,0.8674,8783,3.9908,126.9984
rg,1625493600078138316,1,0.4888,0.6238,0.6357,560,1.0376,1.4648,-7.0801,95,1.1155,0,-17.6892,52.6492,26,0.8674,8663,3.9908,126.9671
rg,1625493600078155723,1,0.5339,0.6367,0.6257,561,0.9766,-1.6479,-6.2256,95,1.1155,0,-18.0507,52.4859,26,0.8674,8596,3.9908,126.8375
rg,1625493600078173409,1,0.542,0.6272,0.6228,562,0.9155,1.77,-6.6528,95,1.1155,0,-18.327,52.2859,26,0.8674,8894,3.9908,126.8132
rg,1625493600078190834,1,0.5076,0.6328,0.6238,563,1.0376,3.479,-7.8125,95,1.1135,0,-18.4326,52.0874,26,0.8674,8214,3.9908,126.822
rg,1625493600078218797,1,0.5093,0.6287,0.627,564,0.9766,1.8921,-7.3853,95,1.1145,0,-18.6035,51.9009,26,0.8674,8862,3.9908,126.7805
rg,1625493600078236390,1,0.541,0.6294,0.6248,565,1.0376,1.8311,-6.4087,95,1.1155,0,-18.8599,51.725,26,0.8674,8243,3.9908,126.7574
rg,1625493600078252575,1,0.5227,0.6194,0.6316,566,0,5.127,-8.1787,95,1.1145,0,-18.9395,51.4645,27,0.8674,8495,3.9908,126.8053
rg,1625493600078269149,1,0.5244,0.6165,0.626,567,-0.2441,5.7983,-7.7515,95,1.1155,0,-19.0221,51.1981,27,0.8674,8312,3.9908,126.8805
rg,1625493600078287241,1,0.521,0.6067,0.6287,568,0,5.4932,-7.3242,95,1.1145,0,-19.1165,50.9571,27,0.8684,8341,3.9908,126.9745
rg,1625493600078304056,1,0.5164,0.604,0.6321,569,-0.6714,6.6528,-8.1177,95,1.1155,0,-19.1496,50.6555,26,0.8674,8367,3.9908,127.0696
rg,1625493600078320964,1,0.52,0.6067,0.623,570,1.0986,4.2725,-6.958,95,1.1155,0,-19.2882,50.4716,26,0.8674,8801,3.9908,127.1053
rg,1625493600078337075,1,0.5254,0.6082,0.6284,571,0.9766,4.8828,-7.2021,95,1.1145,0,-19.4033,50.2791,26,0.8684,9014,3.9908,127.1537
rg,1625493600078353019,1,0.52,0.6101,0.625,572,1.0986,5.3711,-8.1787,95,1.1155,-0.001,-19.4629,50.1534,26,0.8674,8754,3.9908,127.1714
rg,1625493600078455519,1,0.5281,0.6233,0.6179,573,0.9155,5.9814,-8.4839,95,1.1155,0.001,-19.5039,50.0129,26,0.8674,8806,3.9908,127.2014
rg,1625493600078484074,1,0.5283,0.6135,0.6245,574,0.8545,5.9814,-7.9346,95,1.1155,0,-19.5638,49.8434,26,0.8684,8969,3.9908,127.2527
rg,1625493600078503204,1,0.5239,0.616,0.6194,575,1.0986,5.3101,-7.3853,95,1.1155,0,-19.6487,49.7046,26,0.8684,9027,3.9908,127.29
rg,1625493600078522981,1,0.5344,0.603,0.6313,576,1.0376,5.188,-7.3242,95,1.1155,0,-19.7566,49.529,26,0.8684,8968,3.9908,127.3364
rg,1625493600573234347,1,0.5322,0.5984,0.6255,577,0.9766,6.3477,-7.9956,95,1.1155,0,-19.8141,49.3532,26,0.8684,24581,3.9908,127.3984
rg,1625493600573277791,1,0.5344,0.6028,0.6206,578,2.8076,7.0801,-8.5449,95,1.1155,0,-19.8378,49.27,26,0.8694,14543,3.9908,127.4601
rg,1625493600573454253,1,0.5288,0.6079,0.6204,579,2.3193,7.6904,-7.6904,95,1.1155,0,-19.8558,49.1642,26,0.8684,7890,3.9908,127.5607
rg,1625493600573486568,1,0.5337,0.6135,0.6128,580,3.2959,8.4839,-9.4604,95,1.1165,0,-19.8092,49.1321,26,0.8694,7891,3.9908,127.6279
rg,1625493600573506938,1,0.5303,0.6101,0.6218,581,3.0518,8.3008,-9.3994,95,1.1155,0,-19.7605,49.0717,26,0.8694,7875,3.9908,127.6974
rg,1625493600573529235,1,0.5251,0.6052,0.6211,582,4.4556,7.6904,-10.6201,95,1.1155,0,-19.6878,49.0806,26,0.8684,7938,3.9908,127.7143
rg,1625493600573548568,1,0.5408,0.6116,0.6243,583,4.5776,7.6904,-9.3994,95,1.1155,0,-19.6287,49.0795,26,0.8684,9189,3.9908,127.7262
rg,1625493600573570846,1,0.5393,0.606,0.6282,584,4.0894,8.4839,-11.1084,95,1.1155,-0.001,-19.5461,49.0602,26,0.8694,8478,3.9908,127.7581
rg,1625493600573590697,1,0.5288,0.6194,0.6116,585,5.4932,9.8877,-12.085,95,1.1155,-0.001,-19.3826,49.1408,26,0.8694,8069,3.9908,127.7908
rg,1625493600573614142,1,0.5383,0.614,0.6196,586,2.9297,8.5449,-11.2915,95,1.1155,0.001,-19.3004,49.1013,27,0.8694,8634,3.9908,127.8109
rg,1625493600573635642,1,0.5405,0.6167,0.6172,587,1.8921,8.3618,-10.0098,95,1.1155,-0.001,-19.2542,49.0366,27,0.8694,8481,3.9908,127.8679
rg,1625493600573655864,1,0.5369,0.6196,0.6272,588,1.77,8.0566,-10.437,95,1.1155,0,-19.2025,48.9486,27,0.8694,8457,3.9908,127.8945
rg,1625493600573708993,1,0.5481,0.6055,0.625,589,1.1597,7.019,-9.8267,95,1.1155,0,-19.2321,48.8266,27,0.8694,8594,3.9908,127.9091
rg,1625493600573729123,1,0.5483,0.6045,0.6265,590,2.4414,8.3008,-10.9863,135,1.1155,0,-19.1923,48.7536,26,0.8694,8451,3.9391,127.9312
rg,1625493600573751215,1,0.543,0.6074,0.6204,591,2.6855,7.8735,-9.6436,135,1.1155,-0.001,-19.198,48.6999,26,0.8694,9464,3.9391,127.9705
rg,1625493600573773567,1,0.5415,0.6079,0.624,592,1.8921,8.3008,-10.437,135,1.1155,0,-19.1736,48.6017,26,0.8704,8287,3.9391,128.0061
rg,1625493600573791160,1,0.5427,0.6094,0.6206,593,2.9297,8.4839,-11.1694,135,1.1155,0,-19.1159,48.5741,26,0.8704,8503,3.9391,128.018
rg,1625493600573848974,1,0.5415,0.6118,0.6104,594,4.0283,8.1787,-10.5591,135,1.1155,-0.001,-19.0903,48.6101,27,0.8694,8348,3.9391,128.0296
rg,1625493600573874085,1,0.5422,0.6077,0.6094,595,2.9907,8.667,-10.8032,135,1.1155,0,-19.0512,48.5955,27,0.8704,8201,3.9391,128.0523
rg,1625493600573893141,1,0.5371,0.6057,0.6228,596,3.1128,8.3008,-10.3149,135,1.1155,0,-19.0196,48.5594,27,0.8704,8413,3.9391,128.0851
rg,1625493600573911807,1,0.5366,0.6101,0.6138,597,4.8218,8.2397,-9.7046,135,1.1155,0,-19.0116,48.6104,27,0.8704,8710,3.9391,128.1248
rg,1625493600573932955,1,0.5476,0.6052,0.6145,598,3.479,7.6904,-9.7656,135,1.1155,0,-19.0402,48.6036,26,0.8694,8847,3.9391,128.1493
rg,1625493600573952677,1,0.5498,0.6094,0.614,599,4.0894,8.728,-10.9863,135,1.1145,0,-19.0048,48.6296,26,0.8694,8738,3.9391,128.17
rg,1625493600573980714,1,0.5452,0.6121,0.6116,600,4.2725,9.3994,-11.5356,135,1.1155,0,-18.9278,48.6682,26,0.8694,8953,3.9391,128.1947
rg,1625493600574004140,1,0.5474,0.6113,0.6121,601,4.6387,9.6436,-11.2915,135,1.1155,0,-18.9456,48.637,26,0.8704,9187,3.9391,128.2361
rg,1625493600574022362,1,0.5508,0.6157,0.6099,602,4.1504,8.667,-10.1929,135,1.1155,0,-18.9389,48.6749,26,0.8704,8805,3.9391,128.2719
rg,1625493600574042140,1,0.5503,0.613,0.6145,603,3.2349,9.5825,-10.498,135,1.1155,0,-18.8971,48.656,26,0.8704,9239,3.9391,128.333
rg,1625493600574063659,1,0.5537,0.6057,0.615,604,3.7842,8.5449,-10.0098,135,1.1155,0,-18.9108,48.6535,26,0.8704,9120,3.9391,128.3784
rg,1625493600574084473,1,0.5518,0.6089,0.6162,605,4.3335,8.4839,-9.3384,135,1.1155,0,-18.9385,48.6706,26,0.8704,8998,3.9391,128.4395
rg,1625493600574104344,1,0.5508,0.6145,0.6003,606,5.0659,9.5825,-10.3149,135,1.1155,0,-18.9128,48.7497,26,0.8704,9094,3.9391,128.4971
rg,1625493600574124992,1,0.5569,0.6108,0.6082,607,3.418,9.9487,-10.6201,135,1.1155,0,-18.8776,48.7401,26,0.8704,9304,3.9391,128.5657
rg,1625493600574147084,1,0.5417,0.613,0.605,608,1.8921,9.7046,-10.1929,135,1.1155,0,-18.8565,48.7283,26,0.8704,8877,3.9391,128.634
rg,1625493600922298924,1,0.5537,0.606,0.6072,609,1.9531,8.667,-8.5449,135,1.1155,0,-18.9165,48.6514,26,0.8714,26500,3.9391,128.7203
rg,1625493600922334683,1,0.5505,0.6055,0.6121,610,1.1597,9.4604,-9.3994,135,1.1155,0,-18.9203,48.5337,26,0.8714,8620,3.9391,128.8103
rg,1625493600922354998,1,0.552,0.6118,0.6045,611,1.6479,8.3618,-8.7891,135,1.1155,0,-18.9742,48.469,26,0.8714,7851,3.9391,128.8725
rg,1625493600922373442,1,0.5547,0.6125,0.6099,612,2.0142,8.8501,-9.7046,135,1.1165,0,-19.0159,48.4284,26,0.8714,7877,3.9391,128.9467
rg,1625493600922391164,1,0.5508,0.6035,0.6145,613,2.1973,9.7046,-9.8267,135,1.1155,0,-18.9965,48.3547,26,0.8714,8694,3.9391,129.0304
rg,1625493600922408386,1,0.5505,0.6084,0.606,614,2.6245,9.0942,-8.7891,135,1.1155,0,-19.0271,48.3201,26,0.8714,7978,3.9391,129.1149
rg,1625493600922425108,1,0.5527,0.6106,0.6038,615,2.0142,9.3994,-10.0098,135,1.1155,0,-19.0158,48.2779,26,0.8714,8243,3.9391,129.1717
rg,1625493600922441942,1,0.5503,0.6111,0.6042,616,3.2349,8.3618,-9.5215,135,1.1155,0,-19.0065,48.2597,26,0.8714,8542,3.9391,129.196
rg,1625493600922458386,1,0.5552,0.6099,0.6116,617,2.8076,9.0332,-10.3149,135,1.1165,0,-18.9955,48.2438,26,0.8714,8187,3.9391,129.2359
rg,1625493600922475034,1,0.551,0.6028,0.6052,618,2.6245,8.667,-9.6436,135,1.1155,0,-19.018,48.2178,26,0.8714,8583,3.9391,129.2831
rg,1625493600922491219,1,0.5474,0.6018,0.6021,619,2.9907,8.667,-9.6436,135,1.1155,0,-19.0363,48.211,26,0.8704,8695,3.9391,129.3287
rg,1625493600922507904,1,0.5515,0.6067,0.6045,620,2.8076,8.9722,-10.6201,135,1.1165,0,-19.0344,48.2734,26,0.8714,8386,3.9391,129.3391
rg,1625493600922524256,1,0.5505,0.6052,0.6042,621,3.9673,8.2397,-10.437,135,1.1155,0,-19.0409,48.3171,26,0.8714,8757,3.9391,129.3493
rg,1625493600922540867,1,0.5554,0.6108,0.5952,622,3.479,10.5591,-12.085,135,1.1155,0,-18.9479,48.3557,26,0.8724,14832,3.9391,129.3796
rg,1625493600922557997,1,0.5593,0.613,0.5925,623,3.6621,9.9487,-12.207,135,1.1165,0,-18.8784,48.4159,26,0.8714,8224,3.9391,129.3852
rg,1625493600922574460,1,0.5562,0.6099,0.5967,624,4.5166,9.8267,-12.2681,135,1.1165,0,-18.8036,48.5021,26,0.8724,8199,3.9391,129.3981
rg,1625493600922611885,1,0.5601,0.6155,0.595,625,5.6152,9.3994,-11.9629,135,1.1165,0,-18.7587,48.6377,26,0.8714,8237,3.9391,129.3963
rg,1625493600922631219,1,0.5642,0.6084,0.5962,626,5.127,10.1318,-12.0239,135,1.1165,0,-18.7072,48.7284,26,0.8714,8291,3.9391,129.4235
rg,1625493600922649885,1,0.5635,0.6094,0.5964,627,4.5166,10.6812,-12.4512,135,1.1155,0,-18.6281,48.7906,26,0.8714,9920,3.9391,129.4578
rg,1625493600922716311,1,0.5532,0.6089,0.5952,628,4.8828,10.9253,-12.085,135,1.1155,0,-18.5394,48.86,26,0.8724,8798,3.9391,129.5111
rg,1625493600922737478,1,0.5642,0.6035,0.595,629,4.8218,10.5591,-11.9629,135,1.1165,-0.001,-18.5287,48.9234,26,0.8724,8714,3.9391,129.5628
rg,1625493600922757033,1,0.5637,0.6101,0.5989,630,5.9204,10.8032,-12.3291,135,1.1155,0,-18.4549,49.0289,26,0.8724,8769,3.9391,129.6095
rg,1625493600922776070,1,0.5605,0.6094,0.5938,631,5.9814,11.1694,-12.3901,135,1.1155,0,-18.3717,49.137,26,0.8724,8933,3.9391,129.6662
rg,1625493600922794755,1,0.5603,0.6047,0.5942,632,6.8359,10.8643,-12.2681,135,1.1165,0,-18.3066,49.2687,26,0.8724,8959,3.9391,129.7215
rg,1625493600922811792,1,0.5598,0.6086,0.5903,633,8.3618,11.4136,-12.5732,135,1.1165,0,-18.2194,49.4664,26,0.8724,8733,3.9391,129.7849
rg,1625493600922828959,1,0.5601,0.605,0.5903,634,8.1177,12.146,-13.0615,135,1.1155,0,-18.1057,49.6378,26,0.8724,8856,3.9391,129.8647
rg,1625493600922845477,1,0.5625,0.6194,0.5854,635,7.8125,11.5356,-11.7798,135,1.1155,0,-17.983,49.8438,26,0.8724,8856,3.9391,129.9518
rg,1625493600922861884,1,0.5635,0.6216,0.5984,636,6.897,12.5732,-12.8784,135,1.1165,0,-17.8607,49.9303,26,0.8734,8756,3.9391,130.0896
rg,1625493600922878347,1,0.5608,0.6184,0.5984,637,6.7139,13.3667,-12.207,135,1.1165,0,-17.7398,50.0167,26,0.8734,9255,3.9391,130.2395
rg,1625493600922895069,1,0.5503,0.6189,0.6028,638,7.0801,13.916,-13.1836,135,1.1165,0,-17.5571,50.1098,26,0.8734,8546,3.9391,130.3848
rg,1625493600922928347,1,0.5527,0.6101,0.5942,639,6.897,12.3901,-13.3057,135,1.1165,0,-17.4352,50.2091,26,0.8734,8624,3.9391,130.479
rg,1625493600922973403,1,0.551,0.6133,0.5986,640,7.2021,12.9395,-13.916,135,1.1165,0,-17.2762,50.3138,26,0.8734,8615,3.9391,130.5774
rg,1625493601268202392,1,0.5481,0.6223,0.5884,641,6.6528,11.7188,-14.3433,135,1.1165,0,-17.136,50.4395,26,0.8724,23502,3.9391,130.6176
rg,1625493601268248595,1,0.5496,0.6301,0.5847,642,7.4463,11.6577,-13.7329,135,1.1165,-0.001,-17.0202,50.6064,26,0.8724,9623,3.9391,130.6691
rg,1625493601268271299,1,0.5503,0.624,0.5906,643,6.4697,11.0474,-13.4888,135,1.1165,0,-16.931,50.6796,26,0.8734,7948,3.9391,130.7369
rg,1625493601268290836,1,0.5532,0.6299,0.5886,644,4.6997,11.5356,-13.2446,135,1.1155,0,-16.8513,50.7007,26,0.8734,9490,3.9391,130.8166
rg,1625493601268310113,1,0.5452,0.6343,0.593,645,4.3945,11.7188,-14.1602,135,1.1155,0,-16.7143,50.7304,26,0.8734,8701,3.9391,130.8665
rg,1625493601268328873,1,0.5503,0.6255,0.5933,646,4.3335,10.437,-12.8174,135,1.1165,0,-16.6729,50.7448,26,0.8734,8369,3.9391,130.9146
rg,1625493601268346335,1,0.5537,0.6187,0.5923,647,3.9062,10.0098,-13.1836,135,1.1155,0,-16.6452,50.7396,26,0.8734,8554,3.9391,130.9419
rg,1625493601268364280,1,0.5566,0.6248,0.5969,648,3.479,10.5591,-13.6719,135,1.1165,0,-16.5936,50.727,26,0.8744,8540,3.9391,130.9674
rg,1625493601268381835,1,0.5601,0.6182,0.5945,649,2.8076,9.9487,-12.4512,135,1.1165,0,-16.6033,50.6698,26,0.8744,8664,3.9391,131.0126
rg,1625493601268400724,1,0.5525,0.6194,0.594,650,4.1504,9.5215,-13.3667,135,1.1165,0,-16.5807,50.6812,26,0.8744,8630,3.9391,131.018
rg,1625493601268418780,1,0.5579,0.6182,0.5793,651,4.0283,10.376,-13.4888,135,1.1155,0,-16.5556,50.7042,27,0.8734,8677,3.9391,131.0412
rg,1625493601268436465,1,0.5591,0.6216,0.5906,652,3.418,10.498,-14.0381,135,1.1165,0,-16.5021,50.691,27,0.8744,8566,3.9391,131.0584
rg,1625493601268456261,1,0.5569,0.6177,0.5908,653,4.0283,10.6201,-14.3433,135,1.1165,0,-16.4474,50.7074,27,0.8744,14555,3.9391,131.07
rg,1625493601268473502,1,0.5559,0.6208,0.5859,654,4.7607,10.498,-14.5264,135,1.1165,0,-16.3813,50.758,26,0.8744,9834,3.9391,131.0722
rg,1625493601268605649,1,0.5635,0.6182,0.5872,655,4.8828,10.2539,-14.0991,135,1.1165,0,-16.3521,50.8048,26,0.8744,8243,3.9391,131.0804
rg,1625493601268649908,1,0.5674,0.6216,0.5806,656,4.9438,9.8267,-13.6108,135,1.1165,0,-16.3589,50.8695,26,0.8744,8262,3.9391,131.0837
rg,1625493601268670334,1,0.5549,0.6201,0.5876,657,4.4556,10.5591,-13.5498,135,1.1165,0,-16.3225,50.8897,26,0.8754,10118,3.9391,131.1181
rg,1625493601268689316,1,0.5569,0.6177,0.5808,658,5.4321,10.498,-14.1602,135,1.1165,0,-16.281,50.9614,26,0.8754,8867,3.9391,131.1327
rg,1625493601268708353,1,0.5579,0.6233,0.585,659,4.9438,10.6812,-13.5498,135,1.1165,0,-16.2492,51.0063,26,0.8754,8419,3.9391,131.1702
rg,1625493601268727964,1,0.5564,0.6162,0.5938,660,5.9814,11.1084,-14.9536,135,1.1165,0,-16.1613,51.0711,26,0.8754,8394,3.9391,131.1932
rg,1625493601268747056,1,0.5515,0.6147,0.5886,661,6.4697,11.2915,-14.8315,135,1.1165,0,-16.0722,51.1565,26,0.8754,8641,3.9391,131.2249
rg,1625493601268765704,1,0.5562,0.614,0.5847,662,8.0566,11.2305,-15.7471,135,1.1165,0,-15.9716,51.3152,26,0.8754,8437,3.9391,131.2309
rg,1625493601268784871,1,0.5559,0.6152,0.5906,663,7.8125,11.1694,-15.0146,135,1.1165,0,-15.9195,51.4737,26,0.8744,9730,3.9391,131.2619
rg,1625493601268803445,1,0.5549,0.6189,0.5854,664,7.3242,11.1694,-15.686,135,1.1165,0.001,-15.8212,51.5973,26,0.8754,8763,3.9391,131.2728
rg,1625493601268821389,1,0.5466,0.6306,0.5852,665,7.8735,12.4512,-16.2354,135,1.1165,0,-15.6528,51.7483,26,0.8744,8806,3.9391,131.3092
rg,1625493601268842111,1,0.5549,0.6355,0.5811,666,7.6904,11.6577,-14.6484,135,1.1165,0,-15.5741,51.8974,26,0.8744,8957,3.9391,131.3593
rg,1625493601268859963,1,0.5615,0.6401,0.5872,667,6.7749,12.5122,-15.8081,135,1.1175,0,-15.4443,52.0019,26,0.8754,9279,3.9391,131.4118
rg,1625493601268879889,1,0.5564,0.6367,0.5786,668,5.7983,12.8174,-15.5029,135,1.1175,0,-15.3218,52.0679,26,0.8754,8770,3.9391,131.4817
rg,1625493601268897241,1,0.5581,0.6316,0.584,669,5.6152,12.085,-15.3809,135,1.1175,0,-15.2507,52.0633,26,0.8764,8682,3.9391,131.5506
rg,1625493601268956315,1,0.5518,0.6309,0.5896,670,5.0049,11.4746,-13.916,135,1.1175,0,-15.2071,52.0683,26,0.8764,8695,3.9391,131.625
rg,1625493601268980870,1,0.5586,0.6372,0.5774,671,5.9204,11.1694,-13.9771,135,1.1175,0,-15.1863,52.1439,26,0.8764,8759,3.9391,131.6797
rg,1625493601269000833,1,0.5515,0.6292,0.583,672,5.7983,10.3149,-13.3667,135,1.1175,0,-15.1966,52.1925,26,0.8764,8742,3.9391,131.7293
rg,1625493601615474541,1,0.5549,0.6284,0.5667,673,5.9204,10.5591,-14.1602,135,1.1165,0,-15.1944,52.2752,26,0.8764,24043,3.9391,131.7606
rg,1625493601615510374,1,0.5459,0.6357,0.563,674,6.7749,11.1694,-14.2822,135,1.1165,0,-15.1535,52.4012,26,0.8764,8835,3.9391,131.8063
rg,1625493601615530614,1,0.5481,0.6345,0.5718,675,5.7983,10.9253,-14.4043,135,1.1175,0,-15.115,52.4692,26,0.8764,8874,3.9391,131.848
rg,1625493601615550114,1,0.5547,0.6416,0.5811,676,5.7983,11.4746,-13.9771,135,1.1175,0,-15.0773,52.5221,27,0.8764,8402,3.9391,131.9214
rg,1625493601615569522,1,0.5503,0.6404,0.5803,677,5.7373,11.9629,-14.4043,135,1.1165,0,-15.0095,52.5682,27,0.8774,8292,3.9391,132.0013
rg,1625493601615587151,1,0.5564,0.6313,0.5879,678,5.188,11.4136,-14.4043,135,1.1165,0,-14.9707,52.5695,27,0.8764,8646,3.9391,132.0708
rg,1625493601615604540,1,0.5549,0.6428,0.5789,679,5.6152,11.6577,-13.3057,135,1.1165,0,-14.9564,52.6111,27,0.8764,8841,3.9391,132.1672
rg,1625493601615622225,1,0.5474,0.6367,0.5833,680,5.7983,12.6343,-14.5874,135,1.1175,0,-14.8671,52.6412,27,0.8774,8372,3.9391,132.2691
rg,1625493601615642040,1,0.5479,0.6367,0.5813,681,5.9814,11.8408,-13.855,135,1.1165,0,-14.8335,52.6831,27,0.8764,9187,3.9391,132.3815
rg,1625493601615659873,1,0.5444,0.6396,0.582,682,6.2866,11.4136,-13.5498,135,1.1175,0,-14.8044,52.7399,27,0.8774,8455,3.9391,132.4686
rg,1625493601615678392,1,0.5496,0.6377,0.5693,683,4.9438,11.3525,-14.2212,135,1.1175,0.001,-14.7765,52.7656,26,0.8774,14655,3.9391,132.5331
rg,1625493601615696373,1,0.5449,0.6433,0.5701,684,5.188,11.5356,-14.0381,135,1.1175,0,-14.7374,52.8041,26,0.8774,8013,3.9391,132.6069
rg,1625493601615741206,1,0.5466,0.6418,0.5757,685,4.2114,12.0239,-14.5874,135,1.1175,0,-14.7551,52.8328,26,0.8774,8218,3.9391,132.6775
rg,1625493601615760928,1,0.5503,0.6404,0.5842,686,4.2725,11.3525,-13.7939,135,1.1175,0,-14.7311,52.8036,26,0.8774,8294,3.9391,132.7601
rg,1625493601615778799,1,0.5447,0.6394,0.5811,687,3.54,11.9629,-13.1836,135,1.1165,0,-14.7058,52.7409,26,0.8764,8190,3.9391,132.8764
rg,1625493601615796373,1,0.5439,0.6389,0.5745,688,3.418,11.4746,-12.9395,135,1.1175,0,-14.7045,52.6889,26,0.8774,8576,3.9391,132.9786
rg,1625493601615812854,1,0.5452,0.6292,0.5825,689,3.2349,11.4746,-13.1836,135,1.1175,0,-14.7003,52.6045,26,0.8774,8764,3.9391,133.0808
rg,1625493601615829502,1,0.5464,0.636,0.5801,690,4.0283,11.2305,-13.0005,135,1.1175,0.001,-14.7025,52.5822,27,0.8774,8677,3.9391,133.171
rg,1625493601615846761,1,0.5457,0.6382,0.5808,691,4.4556,11.4746,-13.4277,135,1.1165,0,-14.6848,52.5688,27,0.8774,8620,3.9391,133.2606
rg,1625493601615863113,1,0.5471,0.6423,0.5735,692,3.8452,11.4746,-13.916,135,1.1175,0,-14.6567,52.5537,27,0.8764,8639,3.9391,133.3328
rg,1625493601615879539,1,0.5449,0.6404,0.5703,693,3.479,10.5591,-13.0005,135,1.1175,0,-14.6806,52.5289,27,0.8764,8724,3.9391,133.3967
rg,1625493601615895909,1,0.551,0.6384,0.5752,694,3.6621,10.5591,-12.085,135,1.1175,0,-14.7418,52.4954,27,0.8774,8669,3.9391,133.4859
rg,1625493601615913076,1,0.5552,0.6406,0.5776,695,3.7231,11.3525,-12.6343,135,1.1175,0,-14.7634,52.4697,27,0.8774,8907,3.9391,133.5851
rg,1625493601615930965,1,0.551,0.6375,0.5791,696,3.9062,12.0239,-14.0381,135,1.1165,0,-14.7222,52.4402,27,0.8774,8727,3.9391,133.6746
rg,1625493601615949113,1,0.55,0.635,0.572,697,4.9438,11.9629,-13.7329,135,1.1175,0,-14.6991,52.4604,27,0.8784,9114,3.9391,133.7668
rg,1625493601615966705,1,0.5469,0.6377,0.5691,698,5.6152,12.085,-14.1602,135,1.1175,0,-14.6545,52.5174,26,0.8774,8804,3.9391,133.8504
rg,1625493601615986687,1,0.5435,0.6475,0.5642,699,5.8594,11.6577,-14.5264,135,1.1175,0,-14.5992,52.6107,26,0.8774,10772,3.9391,133.906
rg,1625493601616040909,1,0.5444,0.6428,0.5718,700,4.3335,11.4136,-14.1602,135,1.1165,0,-14.564,52.6192,26,0.8774,8579,3.9391,133.9698
rg,1625493601616065131,1,0.5513,0.6519,0.573,701,4.7607,11.4746,-13.916,135,1.1165,0,-14.54,52.6542,26,0.8774,8622,3.9391,134.0388
rg,1625493601616083927,1,0.5601,0.6475,0.5801,702,3.9062,11.5356,-12.6343,135,1.1165,0,-14.5705,52.627,26,0.8784,8904,3.9391,134.1472
rg,1625493601616103001,1,0.5505,0.6536,0.5735,703,4.5776,10.9863,-12.2681,135,1.1175,0,-14.6073,52.6496,26,0.8774,9770,3.9391,134.2411
rg,1625493601616122038,1,0.5491,0.645,0.5779,704,3.479,11.8408,-12.5122,174,1.1175,0,-14.6159,52.6014,26,0.8774,9459,3.9105,134.3628
rg,1625493601964293647,1,0.5461,0.6462,0.5659,705,3.9062,10.9253,-13.0005,174,1.1175,0,-14.644,52.6002,26,0.8784,23736,3.9105,134.4368
rg,1625493601964345906,1,0.5471,0.6421,0.5769,706,3.1128,10.9863,-12.207,174,1.1165,0,-14.6497,52.5336,26,0.8774,10027,3.9105,134.5276
rg,1625493601964367184,1,0.5447,0.6387,0.5806,707,2.6245,10.8032,-12.4512,174,1.1175,0,-14.679,52.4493,27,0.8774,8184,3.9105,134.6181
rg,1625493601964386387,1,0.5447,0.6428,0.5776,708,2.8076,10.6812,-12.5122,174,1.1165,0,-14.7068,52.3883,27,0.8784,8248,3.9105,134.6986
rg,1625493601964404461,1,0.5474,0.644,0.5686,709,2.8076,11.5967,-13.4277,174,1.1175,0,-14.6925,52.3456,27,0.8784,8757,3.9105,134.7803
rg,1625493601964421683,1,0.5474,0.6411,0.5784,710,2.5024,10.6201,-12.6343,174,1.1175,0,-14.6957,52.2973,27,0.8784,8824,3.9105,134.8406
rg,1625493601964439295,1,0.5432,0.6453,0.5789,711,3.1738,10.9253,-12.2681,174,1.1165,0,-14.7189,52.2544,26,0.8784,8365,3.9105,134.9317
rg,1625493601964457683,1,0.5491,0.6428,0.5732,712,3.2349,11.5356,-14.0381,174,1.1175,0,-14.6869,52.2285,26,0.8784,12196,3.9105,134.9956
rg,1625493601964473850,1,0.5466,0.6396,0.5725,713,3.0518,10.8643,-14.0991,174,1.1185,0,-14.6695,52.1985,26,0.8794,8266,3.9105,135.0363
rg,1625493601964490128,1,0.5444,0.6445,0.584,714,2.3804,11.1694,-13.3667,174,1.1175,0,-14.6744,52.1301,26,0.8794,8365,3.9105,135.1062
rg,1625493601964542720,1,0.551,0.6438,0.5803,715,2.5635,10.376,-13.7939,174,1.1185,0,-14.6776,52.0794,26,0.8784,8282,3.9105,135.1382
rg,1625493601964565998,1,0.5454,0.6433,0.5811,716,3.2349,11.1084,-14.2822,174,1.1185,0,-14.6372,52.0522,26,0.8794,8732,3.9105,135.1814
rg,1625493601964584387,1,0.5493,0.6472,0.5715,717,3.479,10.7422,-13.1226,174,1.1175,0,-14.6543,52.0539,26,0.8794,9093,3.9105,135.2355
rg,1625493601964603127,1,0.5442,0.645,0.5742,718,2.5635,11.2305,-13.1836,174,1.1185,0,-14.6544,52.0317,26,0.8784,8695,3.9105,135.2765
rg,1625493601964620368,1,0.5474,0.6489,0.573,719,3.1128,10.6201,-14.0381,174,1.1175,0,-14.6389,52.0263,26,0.8784,8877,3.9105,135.303
rg,1625493601964638553,1,0.5474,0.6479,0.5608,720,2.5024,10.3149,-13.855,174,1.1175,0.001,-14.6468,52.0181,26,0.8784,8781,3.9105,135.319
rg,1625493601964656127,1,0.5439,0.6406,0.5779,721,2.1973,10.7422,-13.3057,174,1.1185,0,-14.6491,51.9499,26,0.8784,8269,3.9105,135.3732
rg,1625493601964673442,1,0.5427,0.6392,0.5757,722,2.1973,11.1084,-13.6719,174,1.1175,0,-14.6314,51.8851,27,0.8794,8657,3.9105,135.4282
rg,1625493601964690608,1,0.5442,0.6382,0.5835,723,1.8921,10.6201,-13.7329,174,1.1175,0,-14.6338,51.827,27,0.8794,9538,3.9105,135.4773
rg,1625493601964707164,1,0.5444,0.6409,0.5911,724,2.3804,10.437,-14.4043,174,1.1185,0,-14.6007,51.7606,27,0.8794,8375,3.9105,135.4951
rg,1625493601964725701,1,0.5415,0.6301,0.575,725,2.5024,10.3149,-13.9771,174,1.1175,0,-14.6007,51.7113,27,0.8794,8929,3.9105,135.5155
rg,1625493601964743145,1,0.542,0.6392,0.5728,726,2.7466,9.2163,-12.146,174,1.1175,0,-14.6798,51.6882,26,0.8784,8863,3.9105,135.5413
rg,1625493601964762812,1,0.5415,0.6426,0.5662,727,2.3193,9.8267,-13.3057,174,1.1185,0,-14.7055,51.6682,26,0.8794,8815,3.9105,135.5529
rg,1625493601964781793,1,0.5496,0.6431,0.5735,728,2.1362,10.1929,-13.2446,174,1.1185,0,-14.7202,51.6139,26,0.8794,8665,3.9105,135.5706
rg,1625493601964799978,1,0.553,0.6453,0.573,729,1.8921,10.376,-14.0991,174,1.1185,0,-14.7193,51.573,26,0.8794,8725,3.9105,135.5801
rg,1625493601964837460,1,0.5508,0.6355,0.5781,730,2.2583,10.2539,-13.7939,174,1.1185,0,-14.7319,51.5235,26,0.8794,8894,3.9105,135.5986
rg,1625493601964859200,1,0.5491,0.6394,0.5723,731,2.3804,9.7046,-12.5732,174,1.1185,0,-14.7935,51.4933,26,0.8794,8770,3.9105,135.6255
rg,1625493601964876960,1,0.5532,0.6443,0.5659,732,2.8076,10.9863,-14.3433,174,1.1175,0,-14.7735,51.5009,26,0.8794,9266,3.9105,135.6433
rg,1625493601964893700,1,0.5459,0.6409,0.5674,733,3.54,11.3525,-13.4277,174,1.1185,0,-14.6991,51.5109,27,0.8794,8869,3.9105,135.6884
rg,1625493601964910497,1,0.553,0.6475,0.5671,734,3.1738,10.9253,-12.6343,174,1.1185,0,-14.7314,51.5187,27,0.8794,8872,3.9105,135.749
rg,1625493601965200607,1,0.5527,0.6399,0.575,735,4.1504,11.3525,-13.916,174,1.1165,0,-14.7145,51.5508,27,0.8794,8800,3.9105,135.7958
rg,1625493601965301291,1,0.5479,0.6372,0.5679,736,5.0049,11.8408,-13.4888,174,1.1175,0,-14.6983,51.617,27,0.8794,8736,3.9105,135.868
rg,1625493602308200025,1,0.5493,0.6343,0.5698,737,4.5776,12.0239,-13.3057,174,1.1185,0,-14.6877,51.6533,27,0.8794,23612,3.9105,135.9542
rg,1625493602308244822,1,0.5491,0.6421,0.5815,738,4.9438,12.3291,-13.6108,174,1.1185,-0.001,-14.6449,51.6936,27,0.8794,9351,3.9105,136.0455
rg,1625493602308266173,1,0.5466,0.6484,0.5669,739,5.0659,13.0005,-14.5874,174,1.1175,0,-14.5574,51.773,27,0.8794,7932,3.9105,136.1257
rg,1625493602308285562,1,0.5439,0.6455,0.5706,740,4.6387,13.3667,-14.0381,174,1.1185,0,-14.4765,51.815,27,0.8794,8290,3.9105,136.2361
rg,1625493602308304321,1,0.5403,0.6421,0.5769,741,3.7842,12.085,-13.1226,174,1.1185,0,-14.4512,51.7948,27,0.8794,8347,3.9105,136.3366
rg,1625493602308322655,1,0.5442,0.6472,0.5789,742,3.6621,12.3901,-13.6108,174,1.1175,0,-14.4163,51.777,26,0.8794,8170,3.9105,136.4327
rg,1625493602308339803,1,0.553,0.6484,0.5803,743,2.9297,12.2681,-13.7939,174,1.1185,0,-14.3821,51.7462,26,0.8794,10715,3.9105,136.5163
rg,1625493602308356895,1,0.5452,0.6462,0.5732,744,2.9907,12.6343,-13.7329,174,1.1185,0,-14.3351,51.7242,26,0.8804,10682,3.9105,136.6105
rg,1625493602308406377,1,0.542,0.6487,0.5684,745,3.2349,11.9629,-13.7329,174,1.1185,0,-14.3019,51.7302,26,0.8794,8006,3.9105,136.6792
rg,1625493602308428691,1,0.5403,0.6453,0.5737,746,2.9907,11.0474,-12.9395,174,1.1185,0,-14.3135,51.714,26,0.8804,8061,3.9105,136.7422
rg,1625493602308446043,1,0.5391,0.6482,0.5728,747,3.1738,10.9253,-13.1836,174,1.1185,0,-14.3159,51.7143,26,0.8804,8085,3.9105,136.7931
rg,1625493602308463747,1,0.5427,0.6455,0.5752,748,3.1128,11.0474,-12.4512,174,1.1185,0,-14.3454,51.6984,26,0.8794,8106,3.9105,136.8687
rg,1625493602308482913,1,0.5496,0.6455,0.5745,749,1.8921,11.1694,-13.0005,174,1.1185,0,-14.3663,51.6386,26,0.8794,8512,3.9105,136.9336
rg,1625493602308501561,1,0.5474,0.6448,0.5767,750,2.3804,11.4136,-14.0991,174,1.1185,0,-14.4332,51.6062,26,0.8794,8311,3.9105,136.9806
rg,1625493602308518339,1,0.551,0.6453,0.574,751,2.3193,10.8643,-13.1226,174,1.1185,0,-14.4576,51.5706,26,0.8794,8422,3.9105,137.0306
rg,1625493602308537080,1,0.5442,0.6418,0.5735,752,3.6011,11.1084,-12.3901,174,1.1185,0,-14.4889,51.5762,26,0.8804,8781,3.9105,137.1077
rg,1625493602308554450,1,0.5437,0.6445,0.5627,753,3.3569,11.3525,-14.7095,174,1.1175,0,-14.445,51.6075,26,0.8794,8554,3.9105,137.1278
rg,1625493602308572283,1,0.5432,0.6453,0.5667,754,3.2349,11.3525,-13.855,174,1.1175,0,-14.4251,51.6216,26,0.8794,8558,3.9105,137.1719
rg,1625493602308589635,1,0.5476,0.6543,0.5605,755,3.3569,10.437,-13.4277,174,1.1175,0,-14.4479,51.6554,26,0.8794,8646,3.9105,137.1947
rg,1625493602308606969,1,0.5461,0.645,0.5688,756,3.418,11.3525,-13.4888,174,1.1175,0,-14.4434,51.6685,26,0.8794,8502,3.9105,137.2502
rg,1625493602308623357,1,0.5505,0.6489,0.5654,757,2.3193,10.9863,-13.7329,174,1.1185,0,-14.4474,51.6538,26,0.8804,8475,3.9105,137.2848
rg,1625493602308641728,1,0.5498,0.6426,0.571,758,3.1128,10.6201,-11.8408,174,1.1185,0,-14.5196,51.6428,26,0.8804,8658,3.9105,137.3604
rg,1625493602308659672,1,0.5493,0.6477,0.572,759,2.8076,11.2305,-13.6719,174,1.1185,0,-14.5544,51.618,26,0.8804,8386,3.9105,137.4123
rg,1625493602308693727,1,0.5454,0.6401,0.5771,760,2.5024,11.2305,-14.0991,174,1.1185,0,-14.5267,51.5789,26,0.8804,8435,3.9105,137.4531
rg,1625493602308712635,1,0.5457,0.6428,0.5706,761,3.418,11.4746,-13.6108,174,1.1185,0,-14.512,51.5884,26,0.8804,8431,3.9105,137.5096
rg,1625493602308730098,1,0.5474,0.6411,0.5701,762,3.7231,11.5356,-13.6719,174,1.1185,0,-14.4995,51.6079,26,0.8804,8459,3.9105,137.567
rg,1625493602308746968,1,0.5491,0.6465,0.5737,763,3.2349,12.3901,-14.4653,174,1.1185,0,-14.4397,51.6336,26,0.8804,8513,3.9105,137.6252
rg,1625493602308764079,1,0.5461,0.6482,0.5769,764,3.3569,11.5967,-13.0005,174,1.1185,0,-14.4363,51.6306,26,0.8804,8465,3.9105,137.7029
rg,1625493602308781190,1,0.543,0.6458,0.5725,765,2.9297,11.3525,-13.7939,174,1.1185,0,-14.4137,51.6217,26,0.8804,8505,3.9105,137.7513
rg,1625493602308798172,1,0.5405,0.6431,0.5708,766,3.8452,11.5967,-13.3667,174,1.1185,0,-14.3984,51.6437,26,0.8804,8545,3.9105,137.8187
rg,1625493602308815357,1,0.5469,0.6484,0.5747,767,2.6245,11.2305,-14.0991,174,1.1185,0,-14.3826,51.6441,26,0.8814,8555,3.9105,137.863
rg,1625493602308834005,1,0.5496,0.6414,0.5791,768,3.3569,9.7046,-11.7188,174,1.1185,0,-14.4785,51.6341,26,0.8804,8756,3.9105,137.9156
rg,1625493603991714683,1,0.5393,0.6401,0.572,769,3.6011,12.085,-14.0991,174,1.1185,0,-14.4252,51.64,27,0.8804,24207,3.9105,137.9822
rg,1625493603991759349,1,0.5422,0.6458,0.563,770,3.7842,11.4136,-13.855,174,1.1185,0,-14.3634,51.6974,27,0.8814,8870,3.9105,138.0413
rg,1625493603991779646,1,0.5488,0.6489,0.573,771,4.2725,11.6577,-14.2212,174,1.1185,0,-14.3302,51.744,27,0.8804,8953,3.9105,138.089
rg,1625493603991798645,1,0.5449,0.6445,0.5764,772,3.7842,11.9629,-14.7095,174,1.1185,0,-14.2697,51.7573,26,0.8804,8094,3.9105,138.1383
rg,1625493603991819942,1,0.5388,0.6377,0.5737,773,5.188,11.3525,-14.1602,174,1.1185,0,-14.2405,51.8217,26,0.8814,10579,3.9105,138.1834
rg,1625493603991838256,1,0.5486,0.6458,0.571,774,4.4556,10.9863,-13.1836,174,1.1185,0,-14.2648,51.8685,26,0.8814,8180,3.9105,138.2385
rg,1625493603991881423,1,0.543,0.6445,0.5671,775,4.0894,11.3525,-13.855,174,1.1185,0,-14.2518,51.9049,27,0.8814,8700,3.9105,138.2883
rg,1625493603991900664,1,0.5376,0.6558,0.5732,776,4.3335,11.6577,-13.6108,174,1.1185,0,-14.216,51.9514,27,0.8814,8317,3.9105,138.3535
rg,1625493603991918756,1,0.5459,0.6541,0.5725,777,3.2959,11.5967,-13.7939,174,1.1195,0,-14.1942,51.9556,27,0.8814,7964,3.9105,138.4133
rg,1625493603991936145,1,0.5408,0.644,0.5684,778,3.0518,11.1694,-13.7939,174,1.1185,0,-14.186,51.9454,27,0.8814,9896,3.9105,138.4611
rg,1625493603991953164,1,0.5359,0.6499,0.5637,779,4.5776,10.5591,-13.0005,174,1.1195,0,-14.2073,52.0131,26,0.8804,8708,3.9105,138.5048
rg,1625493603991970386,1,0.5381,0.6504,0.5759,780,3.479,11.1084,-15.0757,174,1.1185,0,-14.1442,52.0223,26,0.8814,8835,3.9105,138.5204
rg,1625493603991988089,1,0.5415,0.6506,0.5667,781,3.7231,10.8643,-14.4043,174,1.1185,0,-14.123,52.0555,26,0.8814,9149,3.9105,138.541
rg,1625493603992004774,1,0.5396,0.6594,0.5615,782,4.0894,9.6436,-13.0615,174,1.1185,0,-14.1689,52.0993,26,0.8804,8384,3.9105,138.5574
rg,1625493603992022682,1,0.5437,0.6514,0.5652,783,3.2349,10.1929,-13.9771,174,1.1185,0,-14.181,52.1166,27,0.8804,8658,3.9105,138.5677
rg,1625493603992039848,1,0.5388,0.6438,0.574,784,3.54,10.8032,-14.7095,174,1.1185,0,-14.1462,52.1181,27,0.8814,8989,3.9105,138.5864
rg,1625493603992056700,1,0.552,0.6504,0.5723,785,2.8076,9.7656,-14.2822,174,1.1195,0,-14.1707,52.1096,27,0.8814,8326,3.9105,138.5787
rg,1625493603992074719,1,0.5486,0.6465,0.573,786,3.2349,9.8267,-13.9771,174,1.1185,0,-14.1991,52.1088,27,0.8814,8944,3.9105,138.5823
rg,1625493603992092200,1,0.5454,0.6436,0.5684,787,2.8687,9.5215,-12.8784,174,1.1195,0,-14.2686,52.0926,27,0.8814,8567,3.9105,138.6029
rg,1625493603992108663,1,0.5442,0.6472,0.5776,788,2.6245,10.437,-13.6108,174,1.1185,0,-14.2782,52.0536,27,0.8814,8694,3.9105,138.6373
rg,1625493603992125904,1,0.5427,0.644,0.5764,789,2.9297,9.5215,-13.7939,174,1.1195,0,-14.3049,52.0341,27,0.8814,15625,3.9105,138.6372
rg,1625493603992154959,1,0.5422,0.6438,0.5693,790,3.418,8.9722,-13.3667,174,1.1195,0,-14.3618,52.0485,27,0.8814,8631,3.9105,138.6266
rg,1625493603992173496,1,0.5396,0.6438,0.5718,791,3.7231,8.667,-13.855,174,1.1195,0,-14.402,52.0756,27,0.8824,8673,3.9105,138.5952
rg,1625493603992190681,1,0.5413,0.6482,0.5779,792,4.0894,9.1553,-13.916,174,1.1195,0,-14.4202,52.1009,27,0.8814,8715,3.9105,138.5818
rg,1625493603992207737,1,0.55,0.6538,0.582,793,3.8452,9.0332,-14.4043,174,1.1195,0.001,-14.4351,52.1292,27,0.8814,8711,3.9105,138.5502
rg,1625493603992224311,1,0.5579,0.6487,0.5745,794,2.7466,10.0708,-14.2822,174,1.1185,0,-14.4515,52.1094,27,0.8814,8667,3.9105,138.5548
rg,1625493603992241274,1,0.5405,0.6472,0.5664,795,3.1738,10.1318,-14.5874,174,1.1195,0,-14.4322,52.1197,27,0.8814,8657,3.9105,138.5506
rg,1625493603992258088,1,0.5447,0.6492,0.5713,796,2.9907,10.1929,-13.9771,174,1.1195,0,-14.4185,52.1236,27,0.8814,8614,3.9105,138.5403
rg,1625493603992274662,1,0.5413,0.6455,0.5781,797,3.3569,8.9722,-13.916,174,1.1185,0,-14.4443,52.1228,27,0.8814,8834,3.9105,138.5211
rg,1625493603992291644,1,0.5425,0.6453,0.573,798,3.0518,9.8877,-14.8926,174,1.1195,0,-14.4221,52.1173,27,0.8814,8738,3.9105,138.505
rg,1625493603992308348,1,0.5564,0.6475,0.5657,799,2.8687,8.8501,-14.3433,174,1.1185,0,-14.4716,52.1266,27,0.8814,8863,3.9105,138.4646
rg,1625493603992325496,1,0.554,0.6448,0.5667,800,2.8076,7.6904,-13.5498,174,1.1175,0,-14.5698,52.1318,27,0.8804,8765,3.9105,138.408
rg,1625493603997364572,1,0.5508,0.6487,0.554,801,3.2349,8.667,-14.0381,174,1.1195,0,-14.5987,52.1281,27,0.8824,26188,3.9105,138.3749
rg,1625493603997406979,1,0.5505,0.6514,0.5652,802,2.5024,9.3994,-13.7939,174,1.1185,0,-14.6319,52.1207,27,0.8814,13286,3.9105,138.3652
rg,1625493603997426276,1,0.5437,0.6489,0.5642,803,4.1504,9.2773,-13.4888,174,1.1195,0,-14.6671,52.1761,27,0.8814,8179,3.9105,138.3597
rg,1625493603997468072,1,0.5481,0.647,0.5662,804,4.0283,8.667,-13.1226,174,1.1195,0,-14.7025,52.1797,27,0.8814,7903,3.9105,138.3798
rg,1625493603997487757,1,0.55,0.6489,0.5688,805,3.7231,9.3384,-13.7329,174,1.1195,0,-14.7339,52.2092,27,0.8814,8343,3.9105,138.3735
rg,1625493603997505831,1,0.5496,0.6523,0.5681,806,4.2725,8.4229,-13.3057,174,1.1195,0,-14.7965,52.2707,27,0.8824,8000,3.9105,138.3471
rg,1625493603997523349,1,0.5586,0.6467,0.5674,807,4.2114,9.0332,-12.5732,174,1.1195,0,-14.8395,52.3207,27,0.8824,7996,3.9105,138.3469
rg,1625493603997540479,1,0.5527,0.6448,0.5786,808,3.8452,9.2773,-13.4277,174,1.1185,0,-14.8782,52.3252,27,0.8824,8499,3.9105,138.3555
rg,1625493603997557738,1,0.5466,0.6443,0.5701,809,4.1504,10.0098,-14.4653,174,1.1195,0,-14.8605,52.3561,27,0.8814,8354,3.9105,138.3586
rg,1625493603997576349,1,0.5461,0.6443,0.5684,810,4.0283,10.437,-14.0381,174,1.1195,0,-14.8469,52.3776,27,0.8824,8400,3.9105,138.3863
rg,1625493603997595534,1,0.5476,0.6599,0.5698,811,3.9062,9.2773,-12.9395,174,1.1195,0,-14.9117,52.3839,27,0.8824,8832,3.9105,138.4151
rg,1625493603997613405,1,0.5383,0.6526,0.5776,812,4.2725,8.667,-11.9629,174,1.1195,0,-14.977,52.411,27,0.8824,8206,3.9105,138.4387
rg,1625493603997631553,1,0.5422,0.6506,0.5679,813,3.8452,9.2163,-12.9395,174,1.1195,0,-15.0111,52.4362,27,0.8824,8100,3.9105,138.4528
rg,1625493603997648868,1,0.5444,0.6401,0.5745,814,3.418,8.7891,-12.3291,174,1.1195,0,-15.1316,52.4256,27,0.8824,8112,3.9105,138.4294
rg,1625493603997665756,1,0.5532,0.6509,0.5706,815,3.2349,7.3853,-12.0239,174,1.1165,0,-15.2369,52.4356,26,0.8814,9892,3.9105,138.3936
rg,1625493603997683460,1,0.5591,0.6533,0.5754,816,3.2959,7.8735,-12.6953,174,1.1185,0,-15.3239,52.4397,26,0.8814,8272,3.9105,138.3729
rg,1625493603997700367,1,0.5571,0.6501,0.5649,817,3.1738,6.7749,-11.4136,174,1.1185,0,-15.4816,52.4535,26,0.8814,8167,3.9105,138.345
rg,1625493603997717330,1,0.5498,0.6519,0.5703,818,4.0283,7.6294,-12.3291,174,1.1195,0,-15.5651,52.4921,26,0.8814,8207,3.9105,138.3247
rg,1625493603997750238,1,0.5457,0.6504,0.5645,819,3.6621,7.9956,-12.4512,164,1.1185,0,-15.6307,52.5201,26,0.8814,8224,3.9149,138.3123
rg,1625493603997768997,1,0.552,0.6477,0.5569,820,2.6855,8.1177,-12.9395,164,1.1185,0,-15.6946,52.5203,26,0.8814,8284,3.9149,138.2896
rg,1625493603997786108,1,0.5508,0.646,0.5632,821,2.6245,8.9111,-12.5732,164,1.1195,0,-15.7433,52.4945,26,0.8824,8319,3.9149,138.3064
rg,1625493603997803737,1,0.55,0.6375,0.563,822,3.6621,8.667,-12.7563,164,1.1185,0,-15.8286,52.4992,26,0.8814,8277,3.9149,138.2738
rg,1625493603997821497,1,0.5498,0.6479,0.5679,823,3.7842,7.019,-11.1694,164,1.1185,0,-15.9556,52.5224,26,0.8814,8276,3.9149,138.2647
rg,1625493603997838793,1,0.5549,0.6467,0.5576,824,4.0894,7.2632,-12.6953,164,1.1195,0,-16.0411,52.5822,26,0.8824,8291,3.9149,138.2213
rg,1625493603997856163,1,0.5527,0.6528,0.5605,825,4.3335,6.3477,-11.7188,164,1.1195,0,-16.1649,52.6548,26,0.8784,9943,3.9149,138.1724
rg,1625493603997872756,1,0.5569,0.6418,0.5659,826,3.54,7.4463,-11.9629,164,1.1155,0,-16.2631,52.6591,26,0.8834,8515,3.9149,138.1628
rg,1625493603997890330,1,0.5659,0.6455,0.5669,827,3.418,8.0566,-12.9395,164,1.1165,0,-16.324,52.6639,26,0.8824,8432,3.9149,138.1479
rg,1625493603997907293,1,0.5647,0.6479,0.5679,828,3.2349,7.5684,-12.5122,164,1.1185,0,-16.4029,52.6647,26,0.8824,8438,3.9149,138.1273
rg,1625493603997925237,1,0.5657,0.6406,0.5657,829,3.54,7.6904,-12.8784,164,1.1175,0,-16.4741,52.6722,26,0.8824,8462,3.9149,138.1038
rg,1625493603997942330,1,0.5554,0.6443,0.5637,830,5.7373,7.5684,-11.5356,164,1.1165,-0.001,-16.5679,52.7668,26,0.8824,8474,3.9149,138.1078
rg,1625493603997960496,1,0.5598,0.634,0.5681,831,4.6997,8.728,-13.7329,164,1.1185,0,-16.5743,52.7984,26,0.8824,8343,3.9149,138.104
rg,1625493603997978404,1,0.5605,0.6426,0.5522,832,5.4321,8.7891,-12.8174,164,1.1185,0,-16.6133,52.8921,26,0.8824,8555,3.9149,138.1142
rg,1625493604089473815,1,0.5835,0.6523,0.5388,833,4.1504,12.2681,-15.1978,164,1.1215,0,-18.4669,56.1987,26,0.8854,20066,3.9149,151.5684
rg,1625493604089510722,1,0.5835,0.6592,0.5454,834,3.6011,12.146,-15.3198,164,1.1205,0,-18.299,56.0862,26,0.8854,8555,3.9149,151.7028
rg,1625493604089564333,1,0.5808,0.6545,0.5444,835,3.2349,12.6343,-15.564,164,1.1205,0,-18.1288,55.9775,26,0.8854,8045,3.9149,151.8503
rg,1625493604089585722,1,0.5801,0.657,0.5474,836,2.8076,11.1694,-15.9912,164,1.1195,0,-17.9776,55.8734,26,0.8844,9490,3.9149,151.9337
rg,1625493604089604407,1,0.5818,0.6489,0.5466,837,2.8687,11.1084,-15.9302,164,1.1195,0,-17.8466,55.7663,27,0.8854,7961,3.9149,152.0163
rg,1625493604089622629,1,0.5833,0.6523,0.5476,838,3.0518,10.437,-16.8457,164,1.1205,0,-17.7167,55.6981,27,0.8864,7994,3.9149,152.0467
rg,1625493604089641055,1,0.5896,0.6541,0.5483,839,2.6855,10.6201,-15.9912,164,1.1195,0,-17.6119,55.6015,27,0.8854,8026,3.9149,152.1041
rg,1625493604089659296,1,0.5955,0.6511,0.5459,840,1.5869,10.376,-16.5405,164,1.1205,0,-17.5129,55.4721,27,0.8854,8021,3.9149,152.137
rg,1625493604089676573,1,0.5906,0.6509,0.5403,841,2.1362,10.3149,-15.8081,164,1.1205,0,-17.4433,55.3733,26,0.8864,7984,3.9149,152.1791
rg,1625493604089693333,1,0.5889,0.6531,0.5459,842,2.1973,11.2305,-16.3574,164,1.1195,0,-17.3241,55.2692,26,0.8854,8049,3.9149,152.239
rg,1625493604089710444,1,0.5872,0.6453,0.5413,843,1.8921,11.2915,-16.6016,164,1.1195,0,-17.2077,55.1553,26,0.8854,8069,3.9149,152.2931
rg,1625493604089727536,1,0.5823,0.6465,0.5378,844,2.1362,11.5967,-16.4795,164,1.1205,0,-17.0922,55.1071,26,0.8864,8088,3.9149,152.3361
rg,1625493604089744147,1,0.5901,0.6445,0.5454,845,2.6245,10.437,-15.3198,164,1.1195,0,-17.0486,55.0202,26,0.8854,8097,3.9149,152.3891
rg,1625493604089760629,1,0.5925,0.6494,0.5383,846,2.5635,11.5356,-16.2354,164,1.1205,-0.001,-16.9563,54.9495,27,0.8854,8148,3.9149,152.4498
rg,1625493604089778814,1,0.5886,0.6562,0.5376,847,2.6855,10.437,-15.9302,164,1.1215,0,-16.8895,54.9234,27,0.8854,7980,3.9149,152.475
rg,1625493604089795740,1,0.5896,0.6572,0.5427,848,3.3569,11.2305,-15.3198,164,1.1195,0,-16.8244,54.8877,27,0.8854,8514,3.9149,152.5435
rg,1625493604089812851,1,0.5889,0.6533,0.5391,849,3.1738,10.7422,-15.625,164,1.1205,0,-16.768,54.8542,27,0.8854,8213,3.9149,152.5866
rg,1625493604089842239,1,0.6023,0.6536,0.5408,850,1.9531,10.437,-14.8315,164,1.1205,0,-16.768,54.7691,26,0.8864,8225,3.9149,152.6379
rg,1625493604089860276,1,0.5984,0.6599,0.5383,851,2.8076,10.9863,-13.916,164,1.1195,0,-16.7744,54.7225,26,0.8854,8256,3.9149,152.7241
rg,1625493604089877462,1,0.5999,0.6528,0.5391,852,3.418,11.9629,-15.0146,164,1.1195,0,-16.7309,54.689,26,0.8854,8276,3.9149,152.8196
rg,1625493604089894091,1,0.5852,0.6555,0.5427,853,3.6011,11.9629,-13.7939,164,1.1205,0,-16.6985,54.6516,26,0.8854,8329,3.9149,152.9445
rg,1625493604089911554,1,0.5911,0.6599,0.5344,854,3.3569,12.2681,-15.625,164,1.1205,0,-16.6144,54.6153,26,0.8864,8335,3.9149,153.0484
rg,1625493604089999035,1,0.5781,0.6562,0.5408,855,2.9297,11.3525,-13.7329,164,1.1215,0,-16.5906,54.5637,26,0.8864,8328,3.9149,153.1507
rg,1625493604090025350,1,0.585,0.6543,0.542,856,2.9297,11.3525,-14.4653,164,1.1205,0,-16.5567,54.5147,26,0.8864,10062,3.9149,153.2355
rg,1625493604090057739,1,0.585,0.658,0.5381,857,2.5024,11.8408,-14.6484,164,1.1205,0,-16.5062,54.4594,26,0.8854,8397,3.9149,153.3276
rg,1625493604090080109,1,0.5891,0.6528,0.5339,858,3.3569,10.6812,-14.4043,164,1.1205,0,-16.5071,54.4505,26,0.8864,8504,3.9149,153.3847
rg,1625493604090099220,1,0.5828,0.6499,0.543,859,4.0283,11.4746,-13.1226,164,1.1205,0,-16.5166,54.4311,26,0.8864,8471,3.9149,153.5055
rg,1625493604090117128,1,0.5876,0.6523,0.5356,860,4.0894,10.437,-13.3057,164,1.1195,0,-16.5552,54.4433,26,0.8854,8456,3.9149,153.5814
rg,1625493604090135035,1,0.5859,0.6497,0.5359,861,4.5776,11.5967,-13.6719,164,1.1195,0,-16.553,54.4614,26,0.8854,8504,3.9149,153.6894
rg,1625493604090154090,1,0.5854,0.6494,0.5288,862,5.4321,11.3525,-13.7939,164,1.1205,0,-16.5572,54.5286,26,0.8864,8475,3.9149,153.7831
rg,1625493604090175035,1,0.5886,0.6553,0.5361,863,5.188,12.2681,-14.4653,164,1.1205,0,-16.5131,54.5746,26,0.8864,8495,3.9149,153.8946
rg,1625493604090193461,1,0.5857,0.645,0.5349,864,5.9204,12.0239,-15.3198,164,1.1205,0,-16.454,54.6438,26,0.8874,14340,3.9149,153.9818
rg,1625493625921236943,3,0.561,0.7107,0.4827,865,3.9062,16.6016,-14.9536,63,1.0945,0,-13.622,58.4446,26,0.8534,19510,4.0227,-151.2545
rg,1625493625921277017,3,0.554,0.7158,0.4863,866,4.6387,17.4561,-13.6719,63,1.0985,0,-13.5316,58.4517,26,0.8554,8551,4.0227,-150.9076
rg,1625493625921297146,3,0.5515,0.7161,0.4973,867,4.5166,17.0898,-13.0615,63,1.0985,0,-13.4215,58.4036,26,0.8554,7821,4.0227,-150.5419
rg,1625493625921316646,3,0.5564,0.7188,0.5054,868,3.7842,18.9209,-14.8315,63,1.0935,0,-13.2585,58.3415,26,0.8544,7852,4.0227,-150.1628
rg,1625493625921334961,3,0.5437,0.7239,0.5093,869,3.7231,20.1416,-13.7939,63,1.0975,0,-13.0816,58.264,26,0.8544,7978,4.0227,-149.7205
rg,1625493625921352517,3,0.54,0.7202,0.5112,870,4.2725,19.7144,-13.0615,63,1.0975,0,-12.932,58.1844,26,0.8554,7948,4.0227,-149.2736
rg,1625493625921370072,3,0.5217,0.7175,0.5132,871,5.0049,19.5923,-12.0239,63,1.0935,0,-12.8017,58.1455,26,0.8534,7922,4.0227,-148.8136
rg,1625493625921386794,3,0.5115,0.7178,0.5066,872,4.5166,18.1274,-12.6953,63,1.0985,0,-12.6688,58.1162,26,0.8544,7994,4.0227,-148.4234
rg,1625493625921418572,3,0.5154,0.7229,0.5042,873,4.3335,16.6626,-11.9019,63,1.0985,0,-12.6024,58.1003,26,0.8554,8015,4.0227,-148.0708
rg,1625493625921436257,3,0.5093,0.7278,0.5027,874,4.2114,15.8081,-12.2681,63,1.0955,0,-12.5294,58.0974,26,0.8534,7986,4.0227,-147.7583
rg,1625493625921452776,3,0.4927,0.719,0.5015,875,2.9907,14.6484,-12.146,63,1.0975,0,-12.4647,58.0446,26,0.8544,8037,4.0227,-147.4819
rg,1625493625921478424,3,0.4941,0.72,0.5068,876,2.7466,13.1226,-10.9863,63,1.0985,0,-12.4618,57.971,26,0.8544,8100,4.0227,-147.2306
rg,1625493625921495202,3,0.4875,0.7214,0.5303,877,1.8311,13.3667,-12.146,63,1.0965,0,-12.3977,57.8352,26,0.8534,8085,4.0227,-146.9905
rg,1625493625921512128,3,0.4802,0.7112,0.543,878,2.5024,11.2305,-10.6812,63,1.0985,0,-12.4176,57.7029,26,0.8544,8081,4.0227,-146.7876
rg,1625493625921529017,3,0.4868,0.7317,0.5432,879,3.6621,11.2915,-11.1694,63,1.0985,0,-12.4013,57.6726,26,0.8544,8068,4.0227,-146.6062
rg,1625493625921545739,3,0.4863,0.7644,0.5405,880,2.9297,10.437,-9.2773,63,1.0985,0,-12.4547,57.6366,26,0.8534,8102,4.0227,-146.4192
rg,1625493625921563368,3,0.4846,0.782,0.5576,881,0.9766,7.6904,-9.8267,63,1.0985,0,-12.52,57.5381,26,0.8544,8158,4.0227,-146.338
rg,1625493625921580646,3,0.4795,0.8013,0.561,882,0.6714,6.7139,-9.6436,63,1.0995,0,-12.6438,57.3267,27,0.8534,8145,4.0227,-146.3608
rg,1625493625921598035,3,0.5005,0.8235,0.5696,883,-6.4087,3.418,-10.6812,63,1.0975,0,-12.7559,57.0112,27,0.8524,8116,4.0227,-146.4573
rg,1625493625921614924,3,0.4932,0.8416,0.5627,884,-14.4043,2.1362,-12.7563,63,1.0985,0,-12.8002,56.4414,27,0.8534,8203,4.0227,-146.6564
rg,1625493625921632350,3,0.4868,0.8486,0.5845,885,-22.7051,-2.4414,-12.4512,63,1.0985,0,-12.9305,55.5667,26,0.8534,8653,4.0227,-147.0079
rg,1625493625921650257,3,-0.3274,-0.4958,0.876,886,-83.7402,184.3262,30.3345,129,0.9745,0,-8.654,48.7991,26,0.7474,11525,3.9633,-139.8845
rg,1625493625921668331,3,-0.4792,-0.4585,0.9202,887,-72.937,152.2827,26.062,129,0.9735,0,-4.1666,43.3132,26,0.7444,8289,3.9633,-134.4958
rg,1625493625921685776,3,-0.4827,-0.5334,0.9038,888,-64.8804,109.4971,8.606,129,0.9725,0,-0.1144,38.6227,26,0.7464,8242,3.9633,-131.2583
rg,1625493625921702831,3,-0.4863,-0.7068,1.0459,889,-56.8237,92.8345,-2.3804,129,0.9745,0,3.7243,34.3994,26,0.7524,8191,3.9633,-129.1491
rg,1625493625921720424,3,-0.4363,-0.9922,1.2117,890,-6.0425,60.791,-19.043,129,0.9855,0,6.7286,32.1144,26,0.7704,9037,3.9633,-128.596
rg,1625493625921752498,3,-0.1917,-0.833,1.092,891,61.4624,31.6772,-31.7383,129,1.0005,0,8.6916,32.3852,26,0.7844,9821,3.9633,-129.2453
rg,1625493625921894720,3,-0.0078,-0.8423,0.9734,892,109.1919,28.1372,-44.0063,129,1.0175,0,10.5152,34.3914,26,0.7954,8381,3.9633,-130.4413
