name,time,activity,ax,ay,az,batch_val,gx,gy,gz,ibat,index,middle,pitch,roll,temp,thumb,ts,vbat,yaw
lg,1624907270694994657,0,0.355,-0.0195,0.8247,1,6.5918,10.437,3.54,97,1.2596,1.1746,-35.3726,-2.2269,33,0.025,19683,3.6333,-86.9026
lg,1624907270695068228,0,0.5256,-0.1182,0.8801,2,-2.7466,-22.7051,2.8687,97,1.2596,1.1736,-36.0776,-2.6729,32,0.024,8518,3.6333,-86.5814
lg,1624907270695131140,0,0.6216,-0.1873,0.9219,3,-3.0518,-19.7754,1.2817,97,1.2596,1.1736,-36.7594,-3.2218,32,0.028,7634,3.6333,-86.2533
lg,1624907270695162577,0,0.5637,-0.2412,0.9089,4,-3.1128,-10.1318,0.7935,97,1.2596,1.1736,-36.644,-3.7219,32,0.026,7651,3.6333,-85.9477
lg,1624907270695191660,0,0.5254,-0.2451,0.897,5,3.1738,0.1221,-0.4272,97,1.2596,1.1746,-36.3703,-4.0741,32,0.026,7613,3.6333,-85.6736
lg,1624907270695220929,0,0.512,-0.1812,0.8438,6,7.6904,-5.6152,-1.0376,97,1.2596,1.1736,-36.3729,-4.0868,32,0.027,7647,3.6333,-85.5027
lg,1624907270695249271,0,0.5046,-0.1895,0.842,7,7.2021,-5.249,-0.061,97,1.2596,1.1736,-36.3601,-4.1427,32,0.028,7988,3.6333,-85.2872
lg,1624907270695277502,0,0.5474,-0.1682,0.8613,8,9.3384,-9.5215,1.8921,97,1.2596,1.1736,-36.5565,-4.1337,32,0.028,7738,3.6333,-84.987
lg,1624907270695304287,0,0.6221,-0.1633,0.8474,9,9.2773,-14.3433,2.1973,97,1.2596,1.1736,-37.0863,-4.1312,32,0.028,7725,3.6333,-84.6626
lg,1624907270695334000,0,0.6726,-0.1692,0.8662,10,9.1553,-11.4136,2.0752,97,1.2596,1.1736,-37.5396,-4.1272,32,0.028,7789,3.6333,-84.3507
lg,1624907270695361879,0,0.6206,-0.1287,0.8462,11,9.5215,1.5259,0.9766,97,1.2596,1.1736,-37.4063,-3.9559,32,0.028,7810,3.6333,-84.1953
lg,1624907270695388626,0,0.5249,-0.1094,0.8662,12,8.667,5.249,0.7935,97,1.2606,1.1726,-36.9266,-3.8065,32,0.028,7801,3.6333,-84.1544
lg,1624907270695415912,0,0.4883,-0.1106,0.9077,13,6.2256,4.8218,-2.0752,97,1.2606,1.1736,-36.3847,-3.6235,32,0.028,7783,3.6333,-84.1905
lg,1624907270695445644,0,0.436,-0.03,0.9094,14,4.0894,-0.6714,-6.7139,97,1.2606,1.1726,-35.9943,-3.1888,33,0.027,7827,3.6333,-84.5658
lg,1624907270695473319,0,0.4072,-0.012,0.9683,15,-24.5361,-45.9595,-32.2876,97,1.2606,1.1726,-37.3662,-3.1666,33,0.021,33215,3.6333,-86.1163
lg,1624907270695504515,0,0.4001,-0.0991,1.0486,16,-27.5879,-51.2695,-35.9497,97,1.2616,1.1726,-38.9794,-3.1304,33,0.026,7938,3.6333,-87.8592
lg,1624907270695530429,0,0.4316,-0.0571,0.9326,17,-31.189,-59.4482,-42.0532,97,1.2616,1.1726,-40.8657,-3.0899,33,0.02,7993,3.6333,-89.8739
lg,1624907270695556213,0,0.4927,-0.0916,0.9392,18,-37.8418,-66.4062,-47.3633,97,1.2616,1.1726,-43.0733,-3.1384,33,0.021,7956,3.6333,-92.1525
lg,1624907270695603981,0,0.5317,-0.0903,0.9131,19,-39.5508,-67.688,-50.0488,97,1.2606,1.1726,-45.3886,-3.1157,32,0.025,8147,3.6333,-94.7799
lg,1624907270695632916,0,0.5774,-0.1221,0.886,20,-46.5088,-61.8896,-54.5654,97,1.2596,1.1726,-47.4601,-3.039,32,0.024,8362,3.6333,-97.5939
lg,1624907270695659830,0,0.6584,0.2251,0.76,21,7.5073,-10.0098,-0.1221,101,1.1926,1.1646,-47.609,-1.8884,33,0.022,13594,3.6465,-98.2182
lg,1624907270695686059,0,0.6731,0.2246,0.7766,22,6.5308,-10.0098,0.061,101,1.1926,1.1646,-47.7174,-0.8292,33,0.022,8472,3.6465,-98.8053
lg,1624907270695712992,0,0.6816,0.2212,0.7651,23,6.3477,-9.4604,0.4272,101,1.1926,1.1646,-47.8494,0.1506,33,0.022,8183,3.6465,-99.3347
lg,1624907270695739777,0,0.6807,0.217,0.749,24,6.7139,-9.3994,-0.3662,101,1.1926,1.1636,-47.9894,1.142,33,0.022,8200,3.6465,-99.8886
lg,1624907270695766692,0,0.6716,0.2026,0.7764,25,6.0425,-5.8594,0.1221,101,1.1926,1.1646,-47.9245,1.9891,33,0.023,8682,3.5838,-100.3438
lg,1624907270695792253,0,0.6631,0.2334,0.7615,26,5.8594,-5.0049,0.061,153,1.1926,1.1646,-47.8305,2.9029,32,0.023,9292,3.5838,-100.8569
lg,1624907270695819094,0,0.6528,0.2319,0.7717,27,5.9204,-5.4321,-0.1831,153,1.1926,1.1646,-47.6896,3.7431,32,0.022,8380,3.5838,-101.3214
lg,1624907270695845063,0,0.6597,0.2263,0.77,28,6.2256,-7.2632,0.5493,153,1.1926,1.1646,-47.6689,4.5572,32,0.023,8543,3.5838,-101.7428
lg,1624907270695870865,0,0.6602,0.2295,0.7737,29,6.4697,-8.3618,0.4883,153,1.1926,1.1646,-47.684,5.3633,32,0.023,8518,3.5838,-102.1577
lg,1624907270695896649,0,0.6516,0.217,0.7771,30,6.1035,-7.6294,0.3052,153,1.1926,1.1646,-47.6476,6.0893,32,0.022,8413,3.5838,-102.5297
lg,1624907270695923842,0,0.6636,0.2175,0.7776,31,5.7373,-8.3008,0.1831,153,1.1926,1.1646,-47.6639,6.8102,32,0.022,8470,3.5838,-102.9272
lg,1624907270695950534,0,0.675,0.2222,0.7554,32,5.9204,-7.6294,0.061,153,1.1926,1.1646,-47.6895,7.5075,32,0.023,8402,3.5838,-103.295
lg,1624907271052535275,0,0.6746,0.217,0.7644,33,6.1035,-6.6528,-0.2441,153,1.1916,1.1636,-47.5855,8.1196,33,0.022,25891,3.5838,-103.6115
lg,1624907271052573960,0,0.6584,0.2214,0.7703,34,5.4321,-6.2866,-0.2441,153,1.1916,1.1636,-47.5066,8.7406,33,0.023,8653,3.5838,-103.9437
lg,1624907271052594942,0,0.6587,0.2278,0.7581,35,5.3711,-6.1646,-0.2441,153,1.1916,1.1636,-47.4399,9.3615,33,0.022,7761,3.5838,-104.2787
lg,1624907271052614608,0,0.6704,0.217,0.7654,36,4.8828,-5.6763,-0.061,153,1.1916,1.1636,-47.3671,9.8845,33,0.022,7874,3.5838,-104.5498
lg,1624907271052634423,0,0.6689,0.2178,0.762,37,5.0049,-5.249,0.2441,153,1.1916,1.1636,-47.2833,10.3792,33,0.022,7784,3.5838,-104.7873
lg,1624907271052653126,0,0.6711,0.2114,0.7815,38,5.249,-5.4321,-0.1221,153,1.1916,1.1636,-47.1844,10.8455,33,0.022,8904,3.5838,-105.0079
lg,1624907271052671365,0,0.666,0.2217,0.7644,39,5.5542,-5.7983,-0.3052,153,1.1926,1.1646,-47.1133,11.3603,33,0.022,8318,3.5838,-105.2633
lg,1624907271052689771,0,0.6672,0.2131,0.7563,40,5.5542,-5.7373,-0.1221,153,1.1926,1.1636,-47.0531,11.8687,33,0.022,7821,3.5838,-105.5099
lg,1624907271052706842,0,0.676,0.218,0.7678,41,5.127,-6.0425,-0.5493,153,1.1926,1.1646,-47.0047,12.3216,33,0.022,7857,3.5838,-105.7424
lg,1624907271052724099,0,0.6658,0.2068,0.7673,42,5.188,-5.6763,-0.1221,153,1.1926,1.1636,-46.9337,12.7033,32,0.023,9122,3.5838,-105.9081
lg,1624907271052740558,0,0.6592,0.2046,0.7656,43,5.4321,-6.3477,-0.3662,153,1.1926,1.1646,-46.8807,13.0905,32,0.023,9900,3.5838,-106.0821
lg,1624907271052756796,0,0.6785,0.2102,0.7622,44,5.5542,-6.7749,-0.2441,153,1.1916,1.1646,-46.8813,13.485,32,0.023,7934,3.5838,-106.2586
lg,1624907271052773181,0,0.668,0.2183,0.772,45,5.3711,-5.7983,-0.061,153,1.1916,1.1646,-46.8121,13.8565,32,0.024,7971,3.5838,-106.4134
lg,1624907271052789252,0,0.6672,0.2095,0.7766,46,5.6763,-6.1035,-0.2441,153,1.1916,1.1646,-46.7505,14.2046,32,0.023,7979,3.5838,-106.5499
lg,1624907271052821244,0,0.6541,0.2144,0.7678,47,5.249,-5.3711,-0.061,153,1.1916,1.1646,-46.6527,14.5288,32,0.023,7985,3.5838,-106.6723
lg,1624907271052850494,0,0.6531,0.2151,0.7532,48,5.9204,-6.0425,-0.1831,153,1.1926,1.1646,-46.6008,14.8932,32,0.023,8030,3.5838,-106.8133
lg,1624907271052869697,0,0.665,0.2197,0.7656,49,5.6152,-6.897,-0.1831,153,1.1926,1.1646,-46.5845,15.2432,32,0.023,8049,3.5838,-106.9599
lg,1624907271052888640,0,0.6755,0.2217,0.7639,50,5.7373,-6.2866,0,153,1.1926,1.1646,-46.5658,15.5771,33,0.024,8080,3.5838,-107.0828
lg,1624907271052907083,0,0.6665,0.2126,0.7722,51,5.5542,-6.4087,-0.1831,153,1.1926,1.1646,-46.5275,15.8644,33,0.023,8086,3.5838,-107.1836
lg,1624907271052924970,0,0.6582,0.2246,0.7705,52,5.6152,-6.6528,-0.5493,153,1.1916,1.1636,-46.4795,16.1982,33,0.024,8124,3.5838,-107.329
lg,1624907271052942060,0,0.6609,0.219,0.7598,53,5.7983,-6.7139,-0.1831,153,1.1916,1.1636,-46.4604,16.504,33,0.024,8197,3.5838,-107.4404
lg,1624907271052959410,0,0.668,0.2197,0.7651,54,5.8594,-6.897,0,153,1.1916,1.1646,-46.4557,16.7917,32,0.024,8176,3.5838,-107.5344
lg,1624907271052976629,0,0.6614,0.2163,0.7656,55,5.9204,-6.7139,-0.5493,153,1.1916,1.1636,-46.4267,17.0799,32,0.023,12442,3.5838,-107.6408
lg,1624907271052993386,0,0.6741,0.2212,0.7559,56,5.7373,-6.7749,0.3052,153,1.1916,1.1636,-46.4404,17.3934,32,0.023,8233,3.5838,-107.7582
lg,1624907271053010031,0,0.6763,0.207,0.7627,57,5.8594,-6.897,-0.8545,153,1.1916,1.1636,-46.4471,17.6447,33,0.024,8235,3.5838,-107.8508
lg,1624907271053026750,0,0.6562,0.217,0.7554,58,6.1646,-6.1646,-0.5493,153,1.1916,1.1636,-46.4015,17.9128,33,0.024,8265,3.5838,-107.9332
lg,1624907271053043043,0,0.6667,0.2183,0.7717,59,5.3711,-5.9814,-0.061,153,1.1906,1.1636,-46.3518,18.1057,33,0.023,8521,3.5838,-107.9703
lg,1624907271053059836,0,0.6626,0.2212,0.7637,60,5.6152,-7.0801,-0.2441,153,1.1916,1.1646,-46.3026,18.3222,33,0.023,8521,3.5838,-108.0085
lg,1624907271053076815,0,0.6555,0.21,0.7754,61,5.6152,-6.1035,-0.1831,153,1.1916,1.1646,-46.2401,18.4853,33,0.023,8426,3.5838,-108.0222
lg,1624907271053093719,0,0.6555,0.2156,0.7668,62,5.5542,-6.2866,0.3052,153,1.1916,1.1646,-46.2017,18.6473,33,0.023,10080,3.5838,-108.0264
lg,1624907271053110327,0,0.6692,0.2195,0.7671,63,4.5776,-4.7607,0.1831,153,1.1916,1.1636,-46.1266,18.761,33,0.023,8396,3.5838,-108.0138
lg,1624907271053127732,0,0.6602,0.2146,0.7676,64,5.5542,-5.5542,0.3052,153,1.1916,1.1646,-46.0724,18.8989,32,0.023,8428,3.5838,-107.9949
lg,1624907271414360903,0,0.668,0.2139,0.76,65,5.4932,-6.1646,0.1831,153,1.1906,1.1636,-46.0622,19.0304,32,0.023,25680,3.5838,-107.988
lg,1624907271414410245,0,0.6594,0.2007,0.7651,66,5.4932,-6.6528,-0.061,153,1.1916,1.1636,-46.0556,19.1443,33,0.023,8662,3.5838,-107.9737
lg,1624907271414434434,0,0.6572,0.2295,0.7634,67,5.7983,-6.897,-0.7324,153,1.1916,1.1636,-46.0346,19.3842,33,0.023,7833,3.5838,-108.0623
lg,1624907271414454731,0,0.6721,0.218,0.7617,68,5.4321,-6.5918,-0.4883,153,1.1916,1.1636,-46.0385,19.5545,33,0.023,7840,3.5838,-108.1025
lg,1624907271414475287,0,0.6536,0.2131,0.7605,69,5.3711,-6.1646,-0.7324,153,1.1906,1.1646,-45.9959,19.7037,33,0.022,7821,3.5838,-108.132
lg,1624907271414495250,0,0.6672,0.2095,0.7622,70,4.6997,-5.4932,-0.1831,153,1.1916,1.1636,-45.9598,19.7781,32,0.023,10158,3.5838,-108.1064
lg,1624907271414515046,0,0.6543,0.2183,0.7739,71,5.4321,-6.4697,0.1831,153,1.1916,1.1636,-45.9254,19.8921,32,0.023,8484,3.5838,-108.0885
lg,1624907271414534249,0,0.675,0.2241,0.7681,72,5.0659,-6.0425,0.1831,153,1.1916,1.1646,-45.9155,20.0062,32,0.023,7891,3.5838,-108.0775
lg,1624907271414553063,0,0.6602,0.2183,0.7502,73,5.4932,-5.7373,-0.5493,153,1.1916,1.1636,-45.902,20.1646,33,0.022,7940,3.5838,-108.1028
lg,1624907271414572247,0,0.6587,0.2134,0.7471,74,5.127,-6.2256,0.061,153,1.1916,1.1636,-45.9043,20.264,33,0.022,7945,3.5838,-108.0851
lg,1624907271414592173,0,0.6589,0.2043,0.7625,75,5.9204,-6.5308,-0.4883,153,1.1916,1.1636,-45.8949,20.3745,33,0.022,7918,3.5838,-108.07
lg,1624907271414610672,0,0.6597,0.2117,0.7607,76,5.3101,-7.2021,-0.4883,153,1.1906,1.1636,-45.92,20.4909,33,0.022,7976,3.5838,-108.0838
lg,1624907271414656900,0,0.6599,0.2126,0.7642,77,5.9204,-7.1411,-0.7935,153,1.1906,1.1636,-45.9235,20.6367,33,0.023,11863,3.5838,-108.1088
lg,1624907271414679643,0,0.6648,0.2227,0.7671,78,5.9204,-7.3242,-0.2441,153,1.1916,1.1636,-45.9473,20.7365,33,0.023,8012,3.5838,-108.0885
lg,1624907271414698679,0,0.667,0.207,0.7678,79,6.2866,-7.6294,-0.3052,153,1.1916,1.1636,-45.9846,20.856,33,0.023,9518,3.5838,-108.0769
lg,1624907271414716937,0,0.6646,0.2163,0.7644,80,5.8594,-6.958,-0.5493,153,1.1916,1.1636,-45.9877,20.9842,33,0.022,8111,3.5838,-108.0837
lg,1624907271414734249,0,0.6689,0.2107,0.749,81,5.9204,-7.2021,-0.3052,153,1.1916,1.1636,-46.0337,21.1028,32,0.021,8182,3.5838,-108.0784
lg,1624907271414751395,0,0.6606,0.208,0.7488,82,5.4932,-6.7139,-0.1831,153,1.1916,1.1636,-46.0496,21.1785,32,0.022,9506,3.5838,-108.0465
lg,1624907271414769171,0,0.6541,0.2214,0.7681,83,6.0425,-7.019,-0.3052,153,1.1916,1.1636,-46.031,21.303,32,0.022,8111,3.5838,-108.0405
lg,1624907271414787299,0,0.687,0.2163,0.7632,84,5.4321,-6.958,-0.4883,153,1.1916,1.1636,-46.0715,21.3986,32,0.023,8164,3.5838,-108.0358
lg,1624907271414805056,0,0.677,0.2327,0.7576,85,4.7607,-6.1035,-0.3052,153,1.1916,1.1636,-46.0638,21.4965,32,0.022,8205,3.5838,-108.0388
lg,1624907271414822275,0,0.6772,0.2236,0.7625,86,4.5776,-5.249,-0.6104,153,1.1916,1.1636,-46.0108,21.4855,32,0.023,8168,3.5838,-107.9374
lg,1624907271414839903,0,0.6553,0.2041,0.77,87,5.249,-4.5776,-0.061,153,1.1916,1.1636,-45.9159,21.466,32,0.022,8210,3.5838,-107.8196
lg,1624907271414857438,0,0.6558,0.2034,0.7522,88,4.4556,-4.3335,0,153,1.1916,1.1636,-45.8411,21.4251,33,0.022,8273,3.5838,-107.7054
lg,1624907271414876344,0,0.6741,0.2175,0.7676,89,4.8218,-5.4321,-0.061,153,1.1916,1.1636,-45.8115,21.4497,33,0.022,8299,3.5838,-107.6411
lg,1624907271414896214,0,0.6492,0.21,0.7603,90,4.5166,-5.0049,0.3052,153,1.1916,1.1636,-45.7448,21.4215,33,0.023,8350,3.5838,-107.5338
lg,1624907271414914250,0,0.6609,0.2124,0.7688,91,5.3101,-6.1035,-0.8545,153,1.1916,1.1636,-45.7117,21.4879,33,0.023,8407,3.5838,-107.5133
lg,1624907271414952174,0,0.6555,0.2063,0.7539,92,5.7373,-6.5308,-0.1831,153,1.1916,1.1636,-45.7192,21.5448,32,0.023,8364,3.5838,-107.461
lg,1624907271414973341,0,0.6577,0.2231,0.7561,93,5.7983,-7.6904,-0.1221,153,1.1916,1.1636,-45.7618,21.6659,32,0.023,8408,3.5838,-107.4639
lg,1624907271414992248,0,0.6631,0.2109,0.752,94,5.8594,-8.2397,-0.4272,153,1.1916,1.1636,-45.8396,21.7731,32,0.021,8381,3.5838,-107.4688
lg,1624907271415009801,0,0.6716,0.2258,0.7654,95,6.1035,-7.0801,-0.3662,153,1.1916,1.1636,-45.861,21.8981,32,0.02,8431,3.5838,-107.4661
lg,1624907271415027614,0,0.6641,0.2207,0.7656,96,6.1035,-7.7515,-0.9155,153,1.1916,1.1636,-45.888,22.0331,32,0.019,8470,3.5838,-107.4921
lg,1624907271770402110,0,0.6851,0.2261,0.761,97,6.2256,-7.5073,-0.3052,153,1.1906,1.1636,-45.9261,22.126,33,0.02,28480,3.5838,-107.4662
lg,1624907271770440535,0,0.6782,0.2134,0.7583,98,5.9814,-6.897,-0.1831,153,1.1906,1.1636,-45.958,22.2118,33,0.02,8700,3.5838,-107.4143
lg,1624907271770461610,0,0.6697,0.2192,0.7563,99,5.3711,-5.9814,-0.6104,153,1.1906,1.1636,-45.9287,22.2484,33,0.02,7902,3.5838,-107.3583
lg,1624907271770481666,0,0.6731,0.2109,0.7649,100,4.8218,-5.4932,-0.3662,153,1.1916,1.1636,-45.8995,22.2354,33,0.023,7846,3.5838,-107.277
lg,1624907271770501202,0,0.6677,0.2148,0.751,101,5.7983,-5.7373,-0.7324,153,1.1906,1.1636,-45.8821,22.3044,33,0.023,7860,3.5838,-107.2389
lg,1624907271770520313,0,0.6602,0.2212,0.749,102,5.249,-6.1035,-0.1831,153,1.1906,1.1636,-45.8671,22.2828,33,0.024,7835,3.5838,-107.141
lg,1624907271770539145,0,0.6602,0.2104,0.7717,103,5.4321,-6.6528,-0.9155,153,1.1916,1.1636,-45.8448,22.3215,33,0.024,7828,3.5838,-107.1062
lg,1624907271770557291,0,0.6653,0.2119,0.7515,104,5.9814,-6.5918,-0.7324,153,1.1916,1.1636,-45.858,22.3982,33,0.024,8067,3.5838,-107.0778
lg,1624907271770574659,0,0.6736,0.2153,0.7593,105,6.2256,-7.6294,-0.3052,153,1.1916,1.1636,-45.9222,22.5019,32,0.023,8063,3.5838,-107.0498
lg,1624907271770592120,0,0.6689,0.2024,0.7644,106,6.1035,-6.7749,-0.4883,153,1.1906,1.1636,-45.9373,22.5291,32,0.024,7926,3.5838,-106.978
lg,1624907271770666763,0,0.6748,0.2139,0.7568,107,5.6763,-7.6904,0,153,1.1916,1.1636,-46.0059,22.5768,32,0.022,7961,3.5838,-106.9309
lg,1624907271770687115,0,0.6638,0.2146,0.7395,108,5.6152,-6.958,-0.3052,153,1.1916,1.1636,-46.0466,22.658,32,0.02,7976,3.5838,-106.8888
lg,1624907271770705188,0,0.6792,0.2141,0.7417,109,5.7373,-7.0801,-0.4272,153,1.1916,1.1636,-46.1091,22.7268,32,0.021,7998,3.5838,-106.8595
lg,1624907271770731175,0,0.6658,0.2244,0.7639,110,5.4321,-6.2866,-0.2441,153,1.1906,1.1636,-46.0859,22.7662,32,0.021,7999,3.5838,-106.8046
lg,1624907271770748487,0,0.6611,0.2158,0.7551,111,6.1035,-7.1411,0.1221,153,1.1906,1.1636,-46.1005,22.7955,32,0.021,8023,3.5838,-106.7381
lg,1624907271770766337,0,0.6738,0.2241,0.7449,112,5.0049,-7.2021,-0.1831,153,1.1916,1.1636,-46.1503,22.8481,32,0.02,8092,3.5838,-106.7136
lg,1624907271770783093,0,0.6821,0.2161,0.7595,113,4.8218,-6.4087,0.1221,153,1.1906,1.1636,-46.1729,22.829,33,0.021,8077,3.5838,-106.6259
lg,1624907271770799813,0,0.6672,0.2214,0.772,114,5.127,-5.6763,-0.1831,153,1.1916,1.1636,-46.1197,22.8233,33,0.021,8095,3.5838,-106.5388
lg,1624907271770818645,0,0.6624,0.2151,0.769,115,5.4321,-5.3711,-0.4272,153,1.1906,1.1636,-46.0528,22.8177,33,0.023,8117,3.5838,-106.446
lg,1624907271770835698,0,0.6594,0.2283,0.7581,116,5.4321,-6.7749,-0.061,153,1.1916,1.1636,-46.0359,22.8461,33,0.022,8766,3.5838,-106.384
lg,1624907271770852954,0,0.6748,0.2136,0.7556,117,5.3711,-6.4087,0.061,153,1.1916,1.1636,-46.0566,22.8469,33,0.022,8323,3.5838,-106.2969
lg,1624907271770870248,0,0.6641,0.2151,0.7434,118,5.7983,-7.019,-0.2441,153,1.1906,1.1636,-46.0915,22.9012,33,0.023,8133,3.5838,-106.2505
lg,1624907271770887412,0,0.6589,0.208,0.7632,119,5.3711,-6.958,-0.1221,153,1.1906,1.1636,-46.0831,22.892,33,0.023,8236,3.5838,-106.1759
lg,1624907271770905985,0,0.6667,0.2102,0.7649,120,5.5542,-6.7749,-0.4883,153,1.1906,1.1636,-46.0835,22.9041,32,0.023,8224,3.5838,-106.1095
lg,1624907271770922334,0,0.6689,0.2126,0.7581,121,5.7983,-7.5684,-0.2441,153,1.1906,1.1636,-46.1278,22.9435,32,0.022,8274,3.5838,-106.0584
lg,1624907271770940573,0,0.6594,0.2217,0.7622,122,6.6528,-8.1177,-0.4272,153,1.1906,1.1636,-46.1613,23.0524,32,0.021,8295,3.5838,-106.0436
lg,1624907271770957570,0,0.6633,0.2144,0.7473,123,6.1035,-7.3853,-0.4272,153,1.1916,1.1636,-46.1542,23.1059,32,0.022,8374,3.5838,-106.0068
lg,1624907271770974901,0,0.6692,0.2256,0.7505,124,5.7373,-7.6904,-0.4272,153,1.1916,1.1636,-46.2001,23.1906,32,0.022,8306,3.5838,-105.9968
lg,1624907271770991342,0,0.6646,0.2236,0.7668,125,6.1035,-8.4229,-0.2441,153,1.1916,1.1636,-46.2463,23.2679,32,0.023,8383,3.5838,-105.9743
lg,1624907271771008432,0,0.6682,0.2107,0.7524,126,5.7983,-6.897,-0.6104,153,1.1916,1.1636,-46.2614,23.2958,32,0.022,8339,3.5838,-105.9172
lg,1624907271771031008,0,0.6675,0.2129,0.7554,127,6.2866,-7.1411,-0.5493,153,1.1916,1.1636,-46.2971,23.3729,32,0.022,8492,3.5838,-105.8829
lg,1624907271771053233,0,0.6711,0.2266,0.7539,128,4.8828,-5.4932,-0.6104,153,1.1906,1.1636,-46.2527,23.3833,33,0.02,8419,3.5838,-105.8243
lg,1624907272132116760,0,0.6553,0.2183,0.7581,129,5.0659,-6.2256,0.3052,153,1.1916,1.1636,-46.2468,23.3834,32,0.019,25614,3.5838,-105.738
lg,1624907272132192996,0,0.6519,0.2212,0.7551,130,5.0049,-6.7139,0.6714,153,1.1916,1.1636,-46.2778,23.3374,32,0.02,9977,3.5838,-105.6258
lg,1624907272132215053,0,0.6602,0.2012,0.7639,131,4.6387,-7.6904,1.2207,153,1.1906,1.1636,-46.3268,23.2168,32,0.019,7863,3.5838,-105.4566
lg,1624907272132234515,0,0.6807,0.2212,0.7581,132,4.0894,-6.897,0.6104,153,1.1916,1.1636,-46.3648,23.1593,32,0.019,7922,3.5838,-105.3556
lg,1624907272132252939,0,0.6804,0.2065,0.7615,133,3.9673,-7.5073,0.3052,153,1.1906,1.1626,-46.4151,23.0765,32,0.019,7875,3.5838,-105.2586
lg,1624907272132271140,0,0.6892,0.2158,0.7598,134,3.6621,-7.9346,-0.1831,153,1.1916,1.1636,-46.4744,23.006,32,0.019,9999,3.5838,-105.1862
lg,1624907272132291510,0,0.7007,0.2083,0.7493,135,3.6621,-7.3853,0.1221,153,1.1916,1.1636,-46.5678,22.9406,32,0.018,8466,3.5838,-105.1082
lg,1624907272132311139,0,0.6738,0.2268,0.7527,136,4.0894,-4.8828,-0.6104,153,1.1916,1.1636,-46.496,22.929,32,0.017,7907,3.6553,-105.048
lg,1624907272132331880,0,0.624,0.2461,0.748,137,3.0518,-3.9062,-0.4272,87,1.1916,1.1636,-46.3052,22.91,33,0.02,7966,3.6553,-104.9979
lg,1624907272132350341,0,0.6274,0.2429,0.7544,138,2.3193,-5.9204,-0.4883,87,1.1906,1.1636,-46.1941,22.8817,33,0.017,8093,3.6553,-104.9859
lg,1624907272132367634,0,0.6699,0.231,0.762,139,-0.3052,-11.7798,-0.3662,87,1.1916,1.1626,-46.3723,22.8027,33,0.018,7990,3.6553,-105.0737
lg,1624907272132389284,0,0.7114,0.228,0.749,140,-1.9531,-11.6577,-0.9155,87,1.1916,1.1636,-46.6159,22.6922,33,0.018,7945,3.6553,-105.1978
lg,1624907272132408152,0,0.7327,0.22,0.7607,141,-2.7466,-9.8267,-0.6104,87,1.1916,1.1626,-46.8097,22.4805,32,0.017,8044,3.6553,-105.2422
lg,1624907272132426873,0,0.7126,0.2104,0.7578,142,-4.5776,-3.1738,-0.4883,87,1.1916,1.1636,-46.7317,22.0624,32,0.018,8031,3.6553,-105.1143
lg,1624907272132445353,0,0.6738,0.1855,0.7598,143,-4.0894,0.7324,0.061,87,1.1916,1.1636,-46.4693,21.5145,32,0.018,8089,3.6553,-104.8228
lg,1624907272132464889,0,0.6636,0.1921,0.76,144,-3.418,1.4038,1.1597,87,1.1916,1.1636,-46.1534,21.0862,32,0.018,8023,3.6553,-104.5658
lg,1624907272132483331,0,0.5735,0.2371,0.7512,145,-6.2256,-2.2583,-0.9766,87,1.1916,1.1626,-45.8166,20.7382,32,0.018,11079,3.6553,-104.5412
lg,1624907272132501996,0,0.5627,0.1968,0.7532,146,-6.2866,-7.9346,-0.4272,87,1.1906,1.1626,-45.7093,20.3323,32,0.019,8148,3.6553,-104.5184
lg,1624907272132519827,0,0.623,0.2207,0.76,147,-5.6763,-17.5781,-1.4038,87,1.1926,1.1626,-46.04,20.22,32,0.02,8170,3.6553,-104.8081
lg,1624907272132539956,0,0.6267,0.2058,0.7737,148,-5.4321,-19.3481,-2.5635,87,1.1926,1.1636,-46.4042,20.1361,33,0.018,8262,3.6553,-105.1568
lg,1624907272132557917,0,0.6267,0.1782,0.7871,149,-5.6152,-20.2026,-2.7466,87,1.1926,1.1636,-46.791,19.932,33,0.018,8249,3.6553,-105.4336
lg,1624907272132583125,0,0.6619,0.1611,0.7676,150,-3.2349,-26.3672,-2.5635,87,1.1936,1.1636,-47.4783,19.9289,33,0.018,8528,3.6553,-105.8387
lg,1624907272132605552,0,0.7219,0.1736,0.7681,151,1.0986,-26.6113,-2.9907,87,1.1936,1.1636,-48.2301,20.18,33,0.018,8668,3.6553,-106.3157
lg,1624907272132624032,0,0.6926,0.146,0.7776,152,4.2725,-20.6909,-7.5073,87,1.1946,1.1636,-48.6235,20.5569,32,0.017,8347,3.6553,-106.8494
lg,1624907272132641437,0,0.6863,0.1873,0.7644,153,6.958,-19.5312,-8.9111,87,1.1946,1.1636,-48.8787,21.3869,32,0.018,8667,3.6553,-107.6006
lg,1624907272132658452,0,0.76,0.1995,0.77,154,12.3901,-19.4092,-11.3525,87,1.1946,1.1636,-49.0944,22.5224,32,0.018,8689,3.6553,-108.5063
lg,1624907272132676654,0,0.7908,0.2097,0.738,155,17.4561,-14.3433,-16.1743,87,1.1956,1.1636,-49.2315,23.8776,33,0.019,8440,3.6553,-109.5436
lg,1624907272132696746,0,0.7534,0.2063,0.7473,156,20.2637,-0.3052,-20.3857,87,1.1956,1.1636,-48.7078,25.1677,33,0.02,8467,3.6553,-110.395
lg,1624907272132715448,0,0.7056,0.1997,0.7373,157,22.0337,6.0425,-21.3013,87,1.1956,1.1636,-47.8954,26.341,33,0.022,8406,3.6553,-111.0501
lg,1624907272132734224,0,0.6748,0.2034,0.7319,158,19.5312,10.0708,-19.7144,87,1.1956,1.1636,-46.9486,27.2054,33,0.023,8488,3.6553,-111.4594
lg,1624907272132754909,0,0.6343,0.2009,0.7319,159,18.8599,9.7656,-18.5547,87,1.1956,1.1636,-45.9622,27.9461,33,0.023,8658,3.6553,-111.7716
lg,1624907272132773203,0,0.6196,0.2039,0.7407,160,17.395,2.6245,-14.7705,87,1.1956,1.1636,-45.3331,28.5597,33,0.024,8544,3.6553,-112.0371
lg,1624907272489932979,0,0.6243,0.2227,0.7249,161,16.5405,-11.7188,-5.4321,87,1.1956,1.1636,-45.4191,29.1326,32,0.025,24610,3.6553,-112.2668
lg,1624907272489984748,0,0.6812,0.2656,0.7168,162,13.4888,-16.7236,-2.1362,87,1.1956,1.1636,-45.8116,29.6997,32,0.025,14913,3.6553,-112.5708
lg,1624907272490016035,0,0.7178,0.2456,0.7441,163,10.6201,-15.9302,-0.9766,87,1.1956,1.1636,-46.2215,29.9967,32,0.026,7847,3.6553,-112.7245
lg,1624907272490046192,0,0.7356,0.2771,0.7441,164,8.8501,-13.855,-0.9155,87,1.1956,1.1636,-46.5488,30.261,32,0.027,7800,3.6553,-112.8747
lg,1624907272490074996,0,0.7334,0.2825,0.7336,165,7.3242,-8.9111,-1.0376,87,1.1956,1.1626,-46.6966,30.3824,32,0.024,7787,3.6553,-112.8983
lg,1624907272490103002,0,0.7112,0.2554,0.7361,166,4.6387,-4.5776,-0.4883,87,1.1956,1.1636,-46.6052,30.1144,32,0.025,7825,3.6553,-112.6227
lg,1624907272490130101,0,0.6863,0.2415,0.7346,167,2.4414,-0.3052,1.5869,87,1.1956,1.1636,-46.4627,29.6381,32,0.025,9831,3.6553,-112.1692
lg,1624907272490156847,0,0.6763,0.2302,0.7588,168,1.9531,-0.6104,1.9531,87,1.1966,1.1636,-46.3029,29.0923,33,0.024,7881,3.6553,-111.6752
lg,1624907272490183241,0,0.667,0.2383,0.7444,169,1.4038,-0.061,2.9907,87,1.1956,1.1636,-46.1439,28.5379,33,0.024,7894,3.6553,-111.1593
lg,1624907272490234973,0,0.6467,0.2454,0.7686,170,2.0142,0.061,2.9297,87,1.1966,1.1626,-45.9142,28.0197,33,0.024,7946,3.6553,-110.6528
lg,1624907272490263684,0,0.6448,0.2668,0.74,171,3.3569,-1.709,2.6855,87,1.1966,1.1636,-45.7654,27.719,33,0.024,7913,3.6553,-110.2949
lg,1624907272490290115,0,0.6497,0.2922,0.7112,172,4.0894,-3.7842,2.5635,87,1.1966,1.1636,-45.7715,27.7579,32,0.024,8168,3.6553,-110.1917
lg,1624907272490315824,0,0.6846,0.332,0.7021,173,-2.6245,-1.8921,5.127,87,1.1966,1.1636,-45.7484,27.388,32,0.026,8002,3.6553,-109.8988
lg,1624907272490341903,0,0.6804,0.324,0.7612,174,-11.5967,-2.7466,8.9722,87,1.1976,1.1636,-45.749,26.4496,32,0.025,8023,3.6553,-109.3689
lg,1624907272490518451,0,0.6887,0.3115,0.7754,175,-15.9302,-4.2114,10.9863,87,1.1976,1.1646,-45.9083,24.9688,32,0.03,8049,3.6553,-108.5884
lg,1624907272490560507,0,0.7517,0.2476,0.7991,176,-21.9116,-5.3101,13.855,87,1.1986,1.1646,-46.1663,23.3248,32,0.026,8047,3.6553,-107.7419
lg,1624907272490589719,0,0.8032,0.2039,0.812,177,-24.8413,0.6104,16.1133,87,1.1996,1.1646,-46.2944,21.314,32,0.03,8080,3.6553,-106.5824
lg,1624907272490616873,0,0.7776,0.1895,0.7751,178,-24.6582,7.6294,17.2119,87,1.2016,1.1646,-45.8207,19.1565,32,0.033,8089,3.6553,-105.1228
lg,1624907272490644694,0,0.7341,0.1992,0.7505,179,-23.9868,22.3999,16.9067,87,1.2026,1.1646,-45.0781,17.0818,33,0.033,8164,3.6553,-103.6733
lg,1624907272490671385,0,0.6345,0.2368,0.6873,180,-25.0244,25.8789,15.8081,87,1.2036,1.1656,-44.0991,15.2779,33,0.032,8172,3.6553,-102.4671
lg,1624907272490697223,0,0.5994,0.2822,0.678,181,-25.8179,22.0337,17.2729,87,1.2046,1.1656,-43.2311,13.7066,33,0.031,8176,3.6553,-101.4507
lg,1624907272490722653,0,0.5854,0.2839,0.665,182,-26.7944,20.9351,19.4702,87,1.2046,1.1656,-42.4334,12.1521,33,0.032,8182,3.6553,-100.4281
lg,1624907272490748324,0,0.5295,0.2505,0.7515,183,-33.6304,17.2119,24.9023,87,1.2056,1.1666,-41.611,10.0906,32,0.034,8225,3.6553,-99.1243
lg,1624907272490774589,0,0.5486,0.2058,0.8152,184,-42.9688,-0.9766,31.5552,87,1.2076,1.1676,-41.5015,7.4616,32,0.033,8243,3.6553,-97.5908
lg,1624907272490820742,0,0.5898,0.1921,0.8076,185,-46.0815,-9.9487,36.499,87,1.2096,1.1676,-42.1124,4.3369,32,0.033,8438,3.6553,-95.6069
lg,1624907272490858961,0,0.6335,0.2573,0.7742,186,-52.8564,-18.6768,50.6592,87,1.2096,1.1686,-42.8119,1.0021,32,0.032,8299,3.6553,-93.3082
lg,1624907272490885837,0,0.6836,0.3584,0.7273,187,-64.3921,-23.5596,71.7163,87,1.2096,1.1696,-43.7051,-3.265,32,0.035,8374,3.6553,-90.0318
lg,1624907272490912157,0,0.7429,0.2092,0.9136,188,-91.4307,-31.7383,85.9375,87,1.2116,1.1696,-44.4188,-9.6536,32,0.027,8343,3.6553,-85.5612
lg,1624907272490938181,0,0.7605,0.2275,0.9534,189,-95.3979,-43.5181,90.8203,87,1.2126,1.1696,-45.3703,-16.4272,32,0.024,8392,3.6553,-80.6614
lg,1624907272490964186,0,1.0203,0.095,0.9102,190,-125.3662,-42.4194,119.0186,87,1.2136,1.1676,-45.4432,-25.7374,32,0.026,11351,3.6553,-74.0209
lg,1624907272490991136,0,1.0669,-0.1084,1.1003,191,-133.3618,-28.3813,130.6763,87,1.2126,1.1656,-42.9864,-35.4013,32,0.036,9200,3.6553,-67.5823
lg,1624907272491091263,0,1.0186,0.084,0.7908,192,-130.249,8.728,147.9492,87,1.2116,1.1626,-39.6068,-43.2185,32,0.035,8530,3.6553,-62.5893
lg,1624907272853302273,0,0.635,-0.2588,0.7734,193,-106.4453,78.2471,165.6494,87,1.1996,1.1466,-32.5337,-48.3423,32,0.045,25533,3.6553,-60.2339
lg,1624907272853345850,0,0.595,-0.3589,0.7737,194,-76.2939,15.9302,168.0298,87,1.1916,1.1336,-27.1425,-52.6918,32,0.046,11062,3.6553,-56.3579
lg,1624907272853366869,0,0.7146,-0.4106,0.749,195,-65.1245,4.1504,174.0112,87,1.1866,1.1266,-22.1279,-56.4181,32,0.046,7888,3.6553,-52.3738
lg,1624907272853387202,0,0.8992,-0.3525,0.6917,196,-43.1519,-5.7983,168.7012,87,1.1816,1.1205,-17.6747,-58.7457,33,0.044,7906,3.6553,-48.616
lg,1624907272853407424,0,0.9895,-0.3384,0.6516,197,-20.1416,29.0527,157.3486,87,1.1726,1.1145,-13.0799,-59.4295,33,0.046,7919,3.6553,-46.538
lg,1624907272853427164,0,0.8005,-0.2603,0.6582,198,-3.7231,82.6416,147.2778,87,1.1616,1.1035,-7.7411,-58.6638,33,0.043,11122,3.6553,-46.5896
lg,1624907272853489386,0,0.5615,-0.2534,0.7139,199,6.4087,114.8071,143.8599,87,1.1506,1.0885,-1.6068,-57.174,32,0.044,8451,3.6553,-47.6233
lg,1624907272853510554,0,0.5,-0.251,0.7144,200,9.2773,120.2393,142.6392,87,1.1406,1.0755,4.5639,-55.6548,32,0.043,7959,3.6553,-48.5463
lg,1624907272853530071,0,0.4075,-0.3191,0.7915,201,9.2163,119.6289,149.9634,87,1.1336,1.0655,11.0751,-54.1972,32,0.045,7935,3.6553,-48.9655
lg,1624907272853548124,0,0.4868,-0.3616,0.8145,202,10.5591,97.168,141.7847,87,1.1266,1.0565,16.0456,-52.6105,32,0.042,7945,3.6553,-48.2153
lg,1624907272853568995,0,0.498,-0.325,0.8252,203,10.6201,75.9277,129.6387,87,1.1205,1.0495,20.4342,-50.8365,33,0.041,7978,3.6553,-47.0884
lg,1624907272853587252,0,0.3845,-0.3176,0.8452,204,8.728,63.2324,111.8774,87,1.1185,1.0475,23.999,-48.9665,33,0.043,8119,3.6553,-45.7068
lg,1624907272853606121,0,0.2654,-0.3149,0.8362,205,6.7749,49.0112,101.4404,87,1.1185,1.0465,26.0263,-46.9605,33,0.043,8120,3.6553,-43.6061
lg,1624907272853624564,0,0.2134,-0.2983,0.8494,206,2.5024,7.9956,78.0029,87,1.1175,1.0455,27.1422,-44.7439,33,0.042,8155,3.6553,-40.9592
lg,1624907272853663173,0,0.1946,-0.2488,0.8496,207,-4.3945,-33.9966,61.2183,87,1.1135,1.0425,26.5125,-42.3667,33,0.042,8823,3.6553,-37.4056
lg,1624907272853683116,0,0.3274,-0.2686,0.8699,208,-12.4512,-57.312,54.3213,87,1.1075,1.0385,24.6795,-40.3514,33,0.042,8117,3.6553,-33.4915
lg,1624907272853700688,0,0.3059,-0.2878,0.9314,209,-21.9116,-56.4575,51.2085,87,1.1015,1.0335,22.8023,-38.9648,33,0.043,8137,3.6553,-29.8188
lg,1624907272853717759,0,0.3379,-0.373,0.9819,210,-26.4893,-52.9175,52.9785,87,1.0965,1.0305,21.033,-38.0924,33,0.043,8195,3.6553,-26.3366
lg,1624907272853734922,0,0.4146,-0.4243,1.0244,211,-28.3813,-59.1431,47.5464,87,1.0925,1.0285,18.8599,-37.5388,33,0.044,8181,3.6553,-22.9811
lg,1624907272853752494,0,0.4873,-0.4714,1.0059,212,-26.4893,-45.3491,41.9312,87,1.0895,1.0255,17.319,-37.3368,33,0.043,8256,3.6553,-20.6392
lg,1624907272853770436,0,0.4619,-0.4309,0.9883,213,-24.1089,-19.7144,38.6963,87,1.0875,1.0245,16.1739,-37.2577,33,0.045,8291,3.6553,-18.7005
lg,1624907272853787414,0,0.3408,-0.4124,0.9841,214,-24.8413,-3.0518,38.269,87,1.0855,1.0235,15.7548,-37.3062,32,0.045,8234,3.6553,-17.1993
lg,1624907272853805412,0,0.3291,-0.406,0.9683,215,-27.3438,1.3428,39.6729,87,1.0835,1.0215,15.5779,-37.574,32,0.045,8302,3.6553,-15.7287
lg,1624907272853823298,0,0.3433,-0.4165,0.9502,216,-33.2031,3.6011,43.0908,87,1.0815,1.0195,15.4955,-37.9967,32,0.047,8529,3.6553,-14.2585
lg,1624907272853840555,0,0.3154,-0.4253,0.9407,217,-36.499,11.5356,47.3633,87,1.0795,1.0175,15.8237,-38.5725,32,0.048,9932,3.6553,-12.8644
lg,1624907272853857848,0,0.2803,-0.4407,0.9216,218,-40.8325,8.728,42.6636,87,1.0775,1.0165,16.0047,-39.3614,33,0.046,8784,3.6553,-11.5663
lg,1624907272853875104,0,0.2341,-0.4353,0.8975,219,-45.0439,6.1035,40.5273,87,1.0765,1.0165,16.1364,-40.2966,33,0.046,8368,3.6553,-10.2773
lg,1624907272853892249,0,0.261,-0.4551,0.864,220,-46.9971,1.0986,38.3301,87,1.0765,1.0175,15.6987,-41.3612,33,0.046,8410,3.6553,-8.773
lg,1624907272853909357,0,0.3218,-0.4797,0.8723,221,-50.5981,-13.1836,33.7524,87,1.0785,1.0215,14.9663,-42.5081,33,0.045,8434,3.6553,-7.2216
lg,1624907272853939755,0,0.4072,-0.4749,0.8389,222,-51.6968,-8.728,28.2593,87,1.0805,1.0265,14.105,-43.7959,33,0.046,8419,3.6553,-5.9823
lg,1624907272853968503,0,0.3447,-0.5002,0.8113,223,-51.3916,2.5635,21.1182,87,1.0865,1.0325,13.5122,-45.2407,33,0.045,8664,3.6553,-5.3083
lg,1624907272853987854,0,0.2993,-0.4951,0.791,224,-49.7437,4.6997,18.2495,87,1.0905,1.0385,12.8486,-46.6077,33,0.045,8475,3.6553,-4.7999
lg,1624907273204305945,0,0.3013,-0.4941,0.729,225,-50.415,2.4414,10.6201,87,1.0945,1.0455,12.0428,-48.0829,33,0.045,26246,3.6553,-4.458
lg,1624907273204439173,0,0.3904,-0.5769,0.7397,226,-43.7622,-5.7373,2.9297,87,1.1005,1.0525,10.6968,-49.3902,33,0.045,14401,3.6553,-4.11
lg,1624907273204462119,0,0.3289,-0.5793,0.699,227,-40.2222,1.5259,-0.4883,87,1.1015,1.0545,9.5712,-50.627,32,0.046,7807,3.6553,-4.09
lg,1624907273204482970,0,0.3059,-0.5984,0.6851,228,-38.6963,1.0376,-0.6104,87,1.1035,1.0585,8.5114,-51.8074,32,0.046,7791,3.6553,-4.0678
lg,1624907273204502320,0,0.3716,-0.5764,0.6807,229,-34.3018,-12.8174,-2.6245,87,1.1055,1.0615,6.9501,-52.6952,32,0.046,7750,3.6553,-3.6517
lg,1624907273204538482,0,0.4341,-0.572,0.6809,230,-32.7759,-12.5122,-3.1738,87,1.1095,1.0665,5.458,-53.4822,32,0.046,7913,3.6553,-3.415
lg,1624907273204559945,0,0.4146,-0.5857,0.6709,231,-30.7617,-1.0986,-1.4648,87,1.1155,1.0735,4.2974,-54.2471,32,0.046,8976,3.6553,-3.3652
lg,1624907273204581612,0,0.3821,-0.5696,0.6609,232,-28.6255,2.1362,0.9766,87,1.1215,1.0805,3.3183,-54.8949,32,0.046,7864,3.6553,-3.3718
lg,1624907273204611731,0,0.4368,-0.5737,0.6384,233,-27.4658,0.6104,1.709,87,1.1266,1.0875,2.2468,-55.5252,32,0.046,7904,3.6553,-3.3228
lg,1624907273204631452,0,0.4299,-0.6011,0.6277,234,-24.4751,7.6294,2.2583,87,1.1316,1.0955,1.4084,-56.0823,32,0.045,11912,3.6553,-3.5061
lg,1624907273204659291,0,0.3501,-0.6165,0.6211,235,-17.9443,8.8501,-0.6714,87,1.1356,1.0995,0.687,-56.3791,32,0.046,7984,3.6553,-3.8055
lg,1624907273204681792,0,0.3433,-0.6155,0.6318,236,-13.7329,3.479,-2.4414,87,1.1386,1.1025,-0.1663,-56.4711,32,0.047,7860,3.6553,-3.9717
lg,1624907273204757637,0,0.4109,-0.6147,0.6216,237,-10.5591,-5.127,-4.6387,87,1.1416,1.1065,-1.3921,-56.4621,32,0.048,7923,3.6553,-3.9065
lg,1624907273204781009,0,0.4417,-0.6106,0.6133,238,-8.3618,-4.7607,-2.9907,87,1.1446,1.1095,-2.5935,-56.3191,32,0.048,7995,3.6553,-3.8582
lg,1624907273204798580,0,0.4512,-0.5864,0.6177,239,-5.6152,-3.6011,-5.9814,87,1.1476,1.1125,-3.8434,-56.0854,32,0.048,8014,3.6553,-3.8964
lg,1624907273204818987,0,0.4004,-0.5813,0.6189,240,-2.7466,5.7983,-7.1411,87,1.1496,1.1155,-4.7821,-55.6966,32,0.048,8739,3.6553,-4.2863
lg,1624907273204837614,0,0.3579,-0.5898,0.6208,241,-1.2817,2.0142,-8.8501,87,1.1526,1.1185,-5.7292,-55.2668,32,0.049,8069,3.6553,-4.5967
lg,1624907273204855908,0,0.3577,-0.6145,0.6365,242,-1.0986,-3.418,-9.4604,87,1.1556,1.1205,-6.7559,-54.8724,32,0.049,8081,3.6553,-4.7477
lg,1624907273204875703,0,0.4102,-0.6616,0.646,243,5.9814,-7.4463,-11.5356,87,1.1596,1.1235,-7.974,-54.2835,32,0.048,8116,3.6553,-4.8174
lg,1624907273204894442,0,0.3472,-0.6248,0.6433,244,14.4653,-5.0049,-12.6953,87,1.1636,1.1266,-9.0207,-53.2961,32,0.048,8586,3.6553,-5.0162
lg,1624907273204912902,0,0.3123,-0.5859,0.6392,245,16.6016,-17.1509,-13.4888,87,1.1666,1.1296,-10.2904,-52.2519,32,0.05,8218,3.6553,-4.8621
lg,1624907273204931307,0,0.385,-0.582,0.636,246,15.5029,-23.5596,-10.376,87,1.1696,1.1316,-11.8,-51.3456,32,0.052,8194,3.6553,-4.4416
lg,1624907273204951139,0,0.5042,-0.616,0.6721,247,15.0757,-27.71,-7.2021,87,1.1716,1.1336,-13.388,-50.5698,32,0.053,8256,3.6553,-3.8163
lg,1624907273204971046,0,0.5259,-0.6118,0.6997,248,16.2964,-11.7798,-6.958,87,1.1736,1.1346,-14.5345,-49.6186,32,0.056,8255,3.6553,-3.7139
lg,1624907273204990822,0,0.4844,-0.6067,0.679,249,17.334,-4.8828,-7.019,87,1.1766,1.1366,-15.2792,-48.5837,32,0.058,8314,3.6553,-3.9245
lg,1624907273205012656,0,0.4429,-0.6128,0.6743,250,19.104,-2.3193,-7.5073,77,1.1786,1.1386,-15.9822,-47.5381,32,0.058,8289,3.6575,-4.1307
lg,1624907273205052673,0,0.4382,-0.5959,0.6714,251,19.5312,-2.3193,-5.4321,77,1.1806,1.1396,-16.5979,-46.5024,32,0.058,8337,3.6575,-4.2827
lg,1624907273205223211,0,0.4346,-0.6213,0.6914,252,19.4092,-1.8921,-5.8594,77,1.1816,1.1396,-17.1501,-45.5117,32,0.06,8537,3.6575,-4.4516
lg,1624907273205254961,0,0.4285,-0.6245,0.7058,253,21.4844,-2.3193,-6.6528,77,1.1836,1.1416,-17.6802,-44.4091,32,0.058,8395,3.6575,-4.6443
lg,1624907273205274219,0,0.3943,-0.6079,0.7349,254,23.9868,-4.6387,-8.606,77,1.1856,1.1416,-18.238,-43.2162,32,0.061,8386,3.6575,-4.8321
lg,1624907273205293532,0,0.3843,-0.5715,0.7271,255,23.6816,-14.8315,-8.1787,77,1.1866,1.1426,-19.0619,-42.1199,32,0.061,8412,3.6575,-4.7268
lg,1624907273205312808,0,0.4426,-0.54,0.7417,256,21.1182,-23.8037,-6.897,77,1.1896,1.1426,-20.2152,-41.1889,32,0.061,8503,3.6575,-4.3533
lg,1624907273561998554,0,0.5146,-0.5664,0.772,257,15.3198,-16.7236,-5.249,77,1.1946,1.1436,-21.1706,-40.4881,32,0.059,25703,3.6575,-4.1241
lg,1624907273562040517,0,0.4683,-0.5774,0.7771,258,14.7705,-14.5874,-6.6528,77,1.1956,1.1446,-21.9654,-39.8074,32,0.058,14180,3.6575,-3.9962
lg,1624907273562062351,0,0.4868,-0.5728,0.7834,259,13.1836,-15.0757,-6.1035,77,1.1986,1.1446,-22.7641,-39.2115,32,0.058,7883,3.6575,-3.8414
lg,1624907273562083184,0,0.4929,-0.5664,0.7578,260,12.085,-13.6719,-4.6387,77,1.1996,1.1456,-23.4866,-38.7108,32,0.059,7909,3.6575,-3.6645
lg,1624907273562103443,0,0.5037,-0.552,0.7668,261,9.2773,-9.9487,-2.9907,77,1.2006,1.1456,-24.0468,-38.2846,32,0.057,7901,3.6575,-3.5459
lg,1624907273562123998,0,0.4824,-0.571,0.7571,262,6.7139,-3.6621,-2.0142,77,1.2036,1.1466,-24.3208,-37.9696,32,0.059,8709,3.6575,-3.5406
lg,1624907273562143218,0,0.428,-0.5703,0.7461,263,4.3945,0.061,-1.8921,77,1.2046,1.1476,-24.3665,-37.7334,32,0.059,8066,3.6575,-3.6216
lg,1624907273562161938,0,0.3987,-0.5813,0.7383,264,3.7842,-1.4038,-2.0752,77,1.2066,1.1486,-24.4009,-37.5772,32,0.059,7863,3.6575,-3.652
lg,1624907273562180918,0,0.4099,-0.5498,0.7356,265,1.8311,-12.0239,-2.1362,77,1.2086,1.1496,-24.8123,-37.5654,32,0.06,7915,3.6575,-3.4202
lg,1624907273562200528,0,0.4734,-0.5469,0.7322,266,1.1597,-16.8457,-1.9531,77,1.2106,1.1506,-25.5344,-37.7481,32,0.061,7948,3.6575,-2.9602
lg,1624907273562244603,0,0.4846,-0.5615,0.7378,267,-2.9907,-16.6626,-0.3662,77,1.2126,1.1516,-26.1416,-38.0313,33,0.063,8041,3.6575,-2.5291
lg,1624907273562266419,0,0.4758,-0.563,0.7178,268,-4.6997,-11.7188,0.1831,77,1.2136,1.1526,-26.5525,-38.3579,33,0.063,7969,3.6575,-2.2013
lg,1624907273562284620,0,0.4314,-0.554,0.7153,269,-5.7983,-9.7656,1.2207,77,1.2146,1.1536,-26.8074,-38.7234,33,0.063,8225,3.6575,-1.8774
lg,1624907273562302469,0,0.4329,-0.5608,0.707,270,-7.5684,-12.3901,1.9531,77,1.2166,1.1546,-27.0881,-39.1917,33,0.063,8067,3.6575,-1.4691
lg,1624907273562328010,0,0.4587,-0.5503,0.7046,271,-11.1694,-16.4185,3.3569,77,1.2186,1.1546,-27.503,-39.848,32,0.067,8061,3.6575,-0.9075
lg,1624907273562347082,0,0.4856,-0.5542,0.7004,272,-12.7563,-16.6626,3.3569,77,1.2206,1.1556,-27.8611,-40.6308,32,0.062,8061,3.6575,-0.3666
lg,1624907273562365431,0,0.4854,-0.5645,0.697,273,-16.1133,-10.8032,5.0049,77,1.2236,1.1566,-28.0697,-41.429,32,0.059,8093,3.6575,0.0909
lg,1624907273562383317,0,0.4316,-0.5791,0.7014,274,-19.5312,-4.6387,4.1504,77,1.2256,1.1576,-27.9845,-42.2514,32,0.057,8112,3.6575,0.3291
lg,1624907273562400962,0,0.4302,-0.5842,0.7146,275,-20.5688,-5.7983,5.5542,77,1.2286,1.1576,-27.9778,-43.1846,33,0.059,8257,3.6575,0.7282
lg,1624907273562418385,0,0.4438,-0.5771,0.6814,276,-22.1558,-11.7798,5.4932,77,1.2316,1.1586,-28.0985,-44.1972,33,0.054,8119,3.6575,1.2163
lg,1624907273562438199,0,0.4294,-0.5737,0.6782,277,-20.752,-4.4556,5.8594,77,1.2336,1.1586,-27.9657,-45.0079,33,0.052,8234,3.6575,1.4649
lg,1624907273562456567,0,0.3274,-0.6433,0.719,278,-12.9395,-6.8359,3.1128,77,1.2346,1.1596,-27.7006,-45.5247,33,0.051,8209,3.6575,1.7132
lg,1624907273562474453,0,0.3103,-0.6948,0.7524,279,-9.7046,-16.6626,1.5259,77,1.2366,1.1596,-27.6866,-46.0518,32,0.051,8265,3.6575,2.2391
lg,1624907273562492691,0,0.4426,-0.7078,0.7388,280,2.8076,-31.189,0.4272,77,1.2376,1.1606,-28.3564,-46.3192,32,0.051,8309,3.6575,3.2258
lg,1624907273562511374,0,0.4624,-0.6733,0.7297,281,12.3291,-26.1841,-1.709,77,1.2376,1.1596,-29.0074,-46.0468,32,0.053,8285,3.6575,3.9561
lg,1624907273562550723,0,0.4873,-0.6331,0.7334,282,24.231,-17.5171,-1.1597,77,1.2396,1.1606,-29.4328,-45.1172,33,0.055,10097,3.6575,4.3853
lg,1624907273562571185,0,0.4998,-0.646,0.75,283,25.3296,-9.9487,1.9531,77,1.2416,1.1606,-29.55,-44.1066,33,0.054,8346,3.6575,4.6782
lg,1624907273562589887,0,0.5295,-0.6216,0.7957,284,24.0479,5.0049,6.1646,77,1.2426,1.1606,-29.1599,-42.9128,33,0.058,8336,3.6575,4.597
lg,1624907273562608681,0,0.4729,-0.5269,0.8098,285,18.0054,29.7241,11.9629,77,1.2446,1.1616,-27.8486,-41.5433,33,0.05,8341,3.6575,3.8871
lg,1624907273562638263,0,0.4351,-0.4668,0.6714,286,-1.8921,28.8696,22.9492,77,1.2466,1.1606,-26.3882,-41.3041,33,0.046,9340,3.6575,3.6678
lg,1624907273562658873,0,0.53,-0.4607,0.689,287,-12.7563,15.9912,23.4375,77,1.2476,1.1596,-25.657,-41.7498,33,0.042,9006,3.6575,3.8856
lg,1624907273562677575,0,0.5867,-0.6218,0.7017,288,-30.3345,32.6538,15.0757,77,1.2486,1.1576,-24.5375,-42.7395,33,0.037,8469,3.6575,3.3985
lg,1624907273914194832,0,-0.1196,-0.6287,0.634,289,-12.2681,-18.0054,-2.8687,77,1.2376,1.1496,-24.3271,-43.2652,33,0.029,25456,3.6575,3.7836
lg,1624907273914256423,0,0.5439,-0.377,0.6289,290,-17.395,-85.5103,13.0615,77,1.2346,1.1486,-26.9015,-44.8407,33,0.032,8645,3.6575,6.6671
lg,1624907273914278054,0,0.717,-0.447,0.6328,291,-19.7754,-73.1201,17.7002,77,1.2316,1.1476,-28.0155,-46.0377,32,0.029,7789,3.6575,8.3572
lg,1624907273914298293,0,0.5798,-0.5762,0.7427,292,-12.9395,-3.6011,17.334,77,1.2326,1.1476,-27.7623,-46.5373,32,0.03,7822,3.6575,8.8624
lg,1624907273914317477,0,0.2708,-0.5923,0.7261,293,-4.3945,16.2354,16.5405,77,1.2346,1.1476,-26.3842,-46.3803,32,0.03,7826,3.6575,8.6917
lg,1624907273914336308,0,0.2568,-0.6951,0.7219,294,-7.0801,-2.3804,19.7144,77,1.2356,1.1486,-26.219,-47.1505,32,0.03,8080,3.6575,10.0517
lg,1624907273914354250,0,0.4929,-0.7317,0.7527,295,-5.7373,-33.8745,16.2354,77,1.2366,1.1486,-26.6018,-47.9633,32,0.03,8212,3.6575,11.6013
lg,1624907273914371747,0,0.637,-0.6995,0.7336,296,2.8076,-25.0854,10.8643,77,1.2386,1.1496,-27.1601,-48.2024,32,0.029,7887,3.6575,12.6868
lg,1624907273914389633,0,0.6472,-0.7073,0.7493,297,8.667,-16.6016,6.8359,77,1.2396,1.1496,-27.5251,-47.9403,32,0.032,7907,3.6575,13.3268
lg,1624907273914433134,0,0.5513,-0.6716,0.7429,298,17.5781,13.3057,1.0986,77,1.2426,1.1506,-27.1844,-46.8106,32,0.027,7897,3.6575,12.8051
lg,1624907273914452262,0,0.4595,-0.6599,0.7463,299,24.1089,24.9023,0.6714,77,1.2446,1.1516,-26.3793,-45.269,32,0.033,10243,3.6575,11.9169
lg,1624907273914469758,0,0.4973,-0.7268,0.7734,300,38.0249,26.7334,-9.0332,77,1.2476,1.1526,-25.8131,-43.1658,32,0.036,7900,3.6575,10.755
lg,1624907273914501749,0,0.4319,-0.7073,0.7302,301,51.0254,35.0342,-14.4653,77,1.2506,1.1546,-25.0447,-40.5073,32,0.03,7965,3.6575,9.2545
lg,1624907273914520210,0,0.2595,-0.6787,0.7273,302,67.749,39.5508,-20.5078,77,1.2546,1.1556,-23.9196,-37.1628,32,0.028,8002,3.6575,7.5146
lg,1624907273914537614,0,0.2458,-0.6304,0.6895,303,68.1763,10.437,-17.6392,77,1.2586,1.1566,-23.6329,-34.2988,32,0.017,11853,3.6575,6.7187
lg,1624907273914555259,0,0.3845,-0.5232,0.6968,304,63.6597,-19.5312,-16.3574,77,1.2616,1.1586,-24.6432,-31.7997,32,0.014,8005,3.6575,6.6247
lg,1624907273914573034,0,0.5073,-0.467,0.6628,305,59.4482,-16.7847,-13.0615,77,1.2646,1.1596,-25.771,-29.4925,32,0.026,8240,3.6575,6.5499
lg,1624907273914590679,0,0.533,-0.4597,0.6594,306,57.8003,-7.5684,-13.7939,77,1.2676,1.1606,-26.6024,-27.2068,33,0.037,8082,3.6575,6.2458
lg,1624907273914608028,0,0.4485,-0.4861,0.6975,307,52.7954,15.4419,-12.085,77,1.2706,1.1616,-26.3143,-25.0414,33,0.044,8089,3.6575,5.5865
lg,1624907273914625172,0,0.3311,-0.5691,0.7573,308,41.0156,16.6016,-9.8267,77,1.2736,1.1606,-25.6116,-23.5836,33,0.047,8720,3.6575,5.1031
lg,1624907273914642854,0,0.3418,-0.5945,0.7581,309,36.377,10.7422,-8.9722,77,1.2756,1.1606,-25.4269,-22.6875,33,0.048,8584,3.6575,4.9934
lg,1624907273914660963,0,0.3796,-0.5811,0.791,310,28.9307,-2.0142,-5.9814,77,1.2776,1.1596,-25.4427,-21.9896,33,0.048,8148,3.6575,5.0201
lg,1624907273914684280,0,0.4543,-0.5496,0.7815,311,22.3999,-4.3945,-5.3101,77,1.2786,1.1596,-25.7004,-21.5435,33,0.048,8163,3.6575,5.0951
lg,1624907273914714213,0,0.4836,-0.512,0.783,312,20.0806,0.1831,-5.249,77,1.2796,1.1596,-25.6358,-21.2179,33,0.048,8177,3.6575,5.0154
lg,1624907273914753562,0,0.4829,-0.5249,0.8174,313,12.2681,9.7046,-4.6997,77,1.2816,1.1606,-25.3856,-21.0212,33,0.049,8162,3.6575,4.8587
lg,1624907273914776657,0,0.4968,-0.5107,0.8889,314,2.7466,20.3247,-4.1504,77,1.2836,1.1626,-24.712,-21.044,32,0.049,8225,3.6575,4.5119
lg,1624907273914793931,0,0.4324,-0.4346,0.8416,315,-15.1367,40.3442,-1.8311,77,1.2866,1.1646,-23.2334,-21.5967,32,0.052,8246,3.6575,3.8941
lg,1624907273914811521,0,0.4175,-0.4431,0.7717,316,-27.6489,45.5933,0.9766,77,1.2886,1.1666,-21.6137,-22.7431,32,0.047,8260,3.6575,3.3114
lg,1624907273914951996,0,0.2395,-0.5061,0.6755,317,-45.4712,53.2837,7.5073,77,1.2896,1.1676,-19.3389,-24.8966,32,0.041,8266,3.6575,2.8873
lg,1624907273914978556,0,0.1682,-0.5464,0.7605,318,-49.1333,19.5312,5.9204,77,1.2896,1.1666,-18.1811,-27.2438,32,0.036,8303,3.6575,2.8862
lg,1624907273915000334,0,0.1196,-0.6406,0.782,319,-46.936,-12.6953,-1.0376,77,1.2896,1.1666,-18.2038,-29.6688,32,0.03,10446,3.6575,3.2482
lg,1624907273915021853,0,0.106,-0.6138,0.7634,320,-46.1426,-39.856,1.709,77,1.2886,1.1666,-19.0593,-32.171,32,0.033,8374,3.6575,4.2837
lg,1624907274271127317,0,0.5398,-0.6262,0.7727,321,-48.8281,-74.707,11.5967,77,1.2826,1.1646,-21.733,-35.1127,32,0.032,25289,3.6575,6.5544
lg,1624907274271286582,0,0.5437,-0.6948,0.7905,322,-43.9453,-34.9731,14.4043,77,1.2816,1.1636,-22.7297,-37.6222,32,0.031,8648,3.6575,8.0433
lg,1624907274271331732,0,0.4348,-0.7432,0.761,323,-39.7339,-26.6724,15.0146,77,1.2796,1.1636,-23.0543,-39.783,32,0.029,7869,3.6575,9.2975
lg,1624907274271386149,0,0.4304,-0.7297,0.7527,324,-34.1187,-23.5596,17.6392,77,1.2766,1.1626,-23.2696,-41.7981,32,0.03,7853,3.6575,10.6128
lg,1624907274271437248,0,0.4797,-0.7363,0.7368,325,-24.7803,-28.4424,18.3105,77,1.2736,1.1616,-23.6586,-43.4698,32,0.029,7860,3.6575,12.088
lg,1624907274271489403,0,0.542,-0.7695,0.7478,326,-13.3667,-22.7051,15.0146,77,1.2716,1.1596,-24.0097,-44.5531,32,0.028,8035,3.6575,13.2846
lg,1624907274271518428,0,0.4751,-0.6941,0.6711,327,9.0332,-7.9346,6.8359,77,1.2696,1.1586,-24.1247,-44.4226,32,0.028,7910,3.6575,13.7596
lg,1624907274271595401,0,0.4429,-0.6147,0.5974,328,16.1133,-2.8687,4.5166,77,1.2686,1.1576,-24.2017,-43.9158,32,0.029,7899,3.6575,14.0059
lg,1624907274271627391,0,0.4187,-0.4194,0.5437,329,20.0806,7.5073,10.498,77,1.2686,1.1586,-23.9781,-42.9144,32,0.03,7912,3.6575,14.0087
lg,1624907274271664145,0,0.4458,-0.3677,0.5283,330,15.686,8.4839,15.8691,77,1.2696,1.1586,-23.461,-42.3614,32,0.029,7998,3.6575,14.2409
lg,1624907274271702325,0,0.5325,-0.4189,0.5288,331,4.2114,19.043,30.6396,77,1.2706,1.1606,-22.6538,-42.2159,32,0.03,8163,3.6575,14.6056
lg,1624907274271743861,0,0.5859,-0.6541,0.6904,332,5.8594,35.4004,32.1655,77,1.2726,1.1616,-21.0974,-42.0177,32,0.032,8064,3.6575,14.6175
lg,1624907274271774535,0,0.3384,-0.8777,0.7517,333,31.9214,52.002,10.8032,77,1.2766,1.1636,-19.0736,-40.6491,32,0.033,8037,3.6575,13.6026
lg,1624907274271801910,0,0.1797,-0.9583,0.803,334,46.6309,47.7295,1.1597,77,1.2796,1.1646,-17.1627,-38.7787,32,0.03,8026,3.6575,12.4848
lg,1624907274271831584,0,0.0825,-0.8525,0.7708,335,64.5142,1.709,-5.3711,77,1.2826,1.1666,-16.7339,-36.5092,32,0.031,8090,3.6575,12.3836
lg,1624907274271859700,0,0.3611,-0.7363,0.7351,336,68.6035,-45.0439,-7.0801,77,1.2856,1.1686,-18.4574,-34.3558,32,0.027,8582,3.6575,13.3331
lg,1624907274271887131,0,0.5698,-0.6406,0.717,337,67.0776,-41.0156,-1.709,77,1.2886,1.1686,-20.3399,-32.2338,32,0.031,8142,3.6575,14.3026
lg,1624907274271916230,0,0.6187,-0.5513,0.7458,338,65.4907,-27.0386,0.6714,77,1.2906,1.1696,-21.7689,-29.9837,33,0.035,8129,3.6575,14.9655
lg,1624907274271943735,0,0.6042,-0.3335,0.6501,339,44.1284,8.1787,4.6997,77,1.2916,1.1706,-22.082,-28.1211,33,0.04,8258,3.6575,14.9197
lg,1624907274271971184,0,0.4617,-0.4104,0.6892,340,17.334,38.8794,13.1836,77,1.2926,1.1696,-20.7719,-27.4181,33,0.038,8158,3.6575,14.6713
lg,1624907274272001877,0,0.3494,-0.4829,0.7556,341,8.4229,46.9971,15.625,77,1.2936,1.1706,-18.5239,-27.1425,33,0.039,8198,3.6575,14.4046
lg,1624907274272027769,0,0.1306,-0.4116,0.7227,342,-10.5591,32.8979,13.916,77,1.2936,1.1706,-16.7231,-27.624,32,0.04,8222,3.6575,14.3153
lg,1624907274272085022,0,0.2976,-0.4412,0.6995,343,-46.3867,-14.0991,16.4185,77,1.2936,1.1716,-17.0174,-29.9034,32,0.04,8253,3.6575,15.2533
lg,1624907274272117198,0,0.4036,-0.5681,0.7305,344,-59.1431,-21.3623,13.916,77,1.2936,1.1716,-17.6784,-33.0144,32,0.042,8274,3.6575,16.1356
lg,1624907274272144146,0,0.3525,-0.5686,0.7295,345,-62.6831,-9.1553,6.6528,77,1.2926,1.1726,-17.951,-35.8342,32,0.04,8302,3.6575,16.6428
lg,1624907274272171911,0,0.0413,-0.5955,0.718,346,-59.8145,0.1221,-4.2725,77,1.2906,1.1716,-17.4433,-38.3211,33,0.028,8354,3.6575,16.5306
lg,1624907274272200787,0,-0.0725,-0.6228,0.7136,347,-61.6455,-49.3774,-6.1646,77,1.2886,1.1706,-18.2633,-41.2256,33,0.033,8321,3.6575,17.6742
lg,1624907274272231072,0,0.0515,-0.6567,0.731,348,-65.0635,-82.6416,-3.9062,77,1.2856,1.1696,-20.175,-44.5795,33,0.03,8342,3.6575,19.9311
lg,1624907274272259189,0,0.4077,-0.8735,0.7993,349,-62.1948,-111.8774,1.77,77,1.2846,1.1696,-23.1292,-48.4776,32,0.029,8604,3.6575,23.5209
lg,1624907274272290734,0,0.561,-0.8594,0.7725,350,-35.5225,-91.3696,-4.6997,77,1.2856,1.1696,-25.719,-51.0809,32,0.031,8490,3.6575,26.4516
lg,1624907274272317164,0,0.5547,-0.8779,0.7842,351,-17.7002,-62.1338,-7.1411,77,1.2846,1.1686,-27.444,-52.5502,32,0.03,8511,3.6575,28.3896
lg,1624907274272345448,0,0.5349,-0.8584,0.7532,352,-10.1929,-51.1475,-8.3618,77,1.2846,1.1686,-28.8341,-53.556,32,0.03,8508,3.6575,29.9431
lg,1624907274630508946,0,0.3418,-0.7593,0.6379,353,30.0903,-2.5024,-0.1221,77,1.2856,1.1666,-28.5061,-52.2322,32,0.03,25142,3.6575,29.9556
lg,1624907274630549388,0,0.4153,-0.5537,0.5422,354,35.8276,-8.3008,14.8315,77,1.2846,1.1666,-28.2334,-50.8659,32,0.031,16086,3.6575,30.5371
lg,1624907274630570832,0,0.7092,-0.5361,0.5823,355,28.3813,-5.188,25.4517,77,1.2856,1.1676,-28.1183,-49.8769,32,0.032,7800,3.6575,31.3099
lg,1624907274630598356,0,0.8359,-0.5708,0.6318,356,32.1655,9.2163,24.7192,77,1.2846,1.1676,-27.7704,-48.5232,32,0.029,7790,3.6575,31.5885
lg,1624907274630620727,0,0.7341,-0.657,0.7002,357,51.2085,82.8857,15.0757,77,1.2846,1.1686,-25.4564,-45.2662,32,0.035,7822,3.6575,29.2257
lg,1624907274630640633,0,0.5244,-0.6592,0.624,358,63.1104,109.9854,4.2114,77,1.2866,1.1706,-21.9914,-40.7629,32,0.037,7836,3.6575,25.4751
lg,1624907274630688377,0,0.0791,-0.7651,0.6812,359,90.1489,102.7222,-25.8179,77,1.2876,1.1726,-18.7601,-36.2346,33,0.023,9191,3.6575,22.0266
lg,1624907274630710915,0,-0.062,-0.7209,0.6843,360,103.1494,49.1333,-31.6772,77,1.2896,1.1726,-17.0016,-31.8537,33,0.034,7919,3.6575,19.9368
lg,1624907274630730839,0,0.0391,-0.5654,0.6672,361,96.0083,-12.3291,-23.3765,77,1.2906,1.1716,-17.3346,-28.1975,33,0.039,7936,3.6575,19.4694
lg,1624907274630749633,0,0.2065,-0.541,0.6995,362,86.3647,-41.4429,-17.2729,85,1.2926,1.1686,-18.9602,-25.1752,33,0.044,7936,3.6575,19.7244
lg,1624907274630767797,0,0.5591,-0.4854,0.678,363,71.106,-61.0962,-11.4136,85,1.2946,1.1656,-21.9555,-22.9091,32,0.052,7932,3.6575,20.4496
lg,1624907274630785756,0,0.6799,-0.4895,0.7075,364,65.8569,-49.9268,-11.4136,85,1.2956,1.1596,-23.7711,-20.8796,32,0.052,7955,3.6575,20.5985
lg,1624907274630803623,0,0.6377,-0.4592,0.7136,365,54.5654,-0.6714,-9.0942,85,1.2966,1.1536,-24.448,-18.9555,32,0.053,8004,3.6575,20.3879
lg,1624907274630840507,0,0.3887,-0.478,0.7625,366,27.6489,30.0903,-4.2114,85,1.2976,1.1486,-23.3398,-18.1248,32,0.053,7949,3.6575,20.0069
lg,1624907274630859634,0,0.3171,-0.5173,0.8345,367,17.4561,29.2969,-2.8687,85,1.2986,1.1466,-22.2959,-18.3245,32,0.055,8065,3.6575,19.9031
lg,1624907274630878298,0,0.2808,-0.5803,0.8337,368,5.6763,13.855,-3.7231,85,1.2996,1.1476,-21.577,-18.6358,32,0.047,8048,3.6575,19.8152
lg,1624907274630901540,0,0.3223,-0.4473,0.8171,369,-7.4463,-8.9111,-6.3477,85,1.3006,1.1526,-21.9021,-19.2804,32,0.05,8156,3.6575,19.829
lg,1624907274630920112,0,0.3901,-0.4353,0.791,370,-20.2026,-19.5312,-8.1787,85,1.3006,1.1586,-23.0224,-20.9012,32,0.044,8079,3.6575,19.8758
lg,1624907274630941723,0,0.4355,-0.3892,0.6973,371,-44.6777,-13.3057,-9.0332,85,1.2996,1.1646,-23.8693,-22.931,32,0.025,8321,3.6575,19.8529
lg,1624907274630959756,0,0.083,-0.5681,0.7705,372,-77.2705,3.1128,-0.6104,85,1.2966,1.1696,-23.0458,-26.536,32,0.031,12573,3.6575,19.9796
lg,1624907274630977772,0,0.0425,-0.646,0.7776,373,-85.6323,-16.7847,4.2114,85,1.2956,1.1696,-22.7638,-30.6894,32,0.031,8184,3.6575,20.679
lg,1624907274630999346,0,0.1782,-1.1555,0.9993,374,-77.5146,-62.3169,1.0376,85,1.2966,1.1686,-24.2219,-35.1433,33,0.029,8931,3.6575,22.4745
lg,1624907274631067867,0,0.1094,-0.6951,0.6377,375,6.4697,-84.0454,-34.2407,85,1.2956,1.1686,-27.0657,-35.81,33,0.03,8360,3.6575,23.6244
lg,1624907274631096799,0,0.46,-0.4963,0.6433,376,4.1504,-112.9761,-11.7798,85,1.2966,1.1686,-31.0489,-36.9882,33,0.024,8356,3.6575,26.299
lg,1624907274631117409,0,0.7219,-0.4504,0.707,377,-5.5542,-108.7646,3.0518,85,1.2976,1.1686,-34.2432,-39.0602,33,0.026,9147,3.6575,29.3173
lg,1624907274631144933,0,1.0693,-0.6799,0.8186,378,-13.9771,-49.8047,14.2212,85,1.2986,1.1696,-35.8144,-40.8375,33,0.023,8857,3.6575,31.4326
lg,1624907274631162967,0,0.8188,-0.7283,0.7917,379,-1.4038,62.9883,20.874,85,1.2986,1.1706,-33.4218,-40.255,33,0.025,8476,3.6575,30.2361
lg,1624907274631181093,0,0.4885,-0.7078,0.75,380,9.7656,108.0322,18.1885,85,1.2986,1.1716,-29.323,-38.6521,33,0.023,8434,3.6575,27.7366
lg,1624907274631199331,0,0.4121,-0.6951,0.7285,381,14.2822,107.0557,14.7095,85,1.3006,1.1716,-25.5697,-36.8852,33,0.025,8428,3.6575,25.3008
lg,1624907274631217179,0,0.3767,-0.6765,0.7258,382,28.0762,103.7598,2.1973,85,1.3016,1.1736,-21.9884,-34.9609,33,0.024,8422,3.6575,22.8163
lg,1624907274631241126,0,0.1536,-0.678,0.6741,383,46.5088,109.9243,-11.8408,85,1.3026,1.1736,-18.1213,-32.4873,33,0.021,8444,3.6575,19.9604
lg,1624907274631260605,0,-0.1711,-0.5537,0.5979,384,64.8804,80.2002,-19.7144,85,1.3046,1.1756,-14.6726,-29.6291,33,0.025,8481,3.6575,17.6866
lg,1624907274980784760,0,0.292,-0.6096,0.7197,385,43.0298,-106.9946,-9.5215,85,1.3086,1.1696,-18.68,-28.8493,32,0.034,25195,3.6575,19.6319
lg,1624907274980816899,0,0.7478,-0.5295,0.7131,386,38.9404,-76.355,-3.6011,85,1.3096,1.1706,-22.2488,-28.0326,32,0.044,14286,3.6575,21.1249
lg,1624907274980837768,0,0.7603,-0.3376,0.6895,387,18.6157,-11.1694,1.6479,85,1.3106,1.1676,-23.474,-27.3339,32,0.047,7861,3.6575,21.382
lg,1624907274980857582,0,0.7017,-0.407,0.7964,388,-1.8311,15.0757,5.249,85,1.3116,1.1676,-23.412,-27.3512,32,0.046,7909,3.6575,21.2749
lg,1624907274980876635,0,0.4854,-0.5264,0.7771,389,-22.583,47.2412,5.5542,85,1.3116,1.1696,-21.7993,-28.2165,32,0.042,7886,3.6575,20.6313
lg,1624907274980895095,0,0.311,-0.6165,0.7754,390,-31.9214,45.2881,-0.1221,85,1.3126,1.1736,-20.5618,-29.9682,32,0.03,7926,3.6575,19.8043
lg,1624907274980913333,0,0.2566,-0.6694,0.7639,391,-43.7622,26.123,-7.8125,85,1.3116,1.1786,-19.6255,-31.815,32,0.04,9209,3.6575,19.1273
lg,1624907274980951847,0,-0.0159,-0.5496,0.6555,392,-45.9595,17.8833,-8.8501,85,1.3106,1.1786,-18.1117,-33.5969,32,0.037,7951,3.6575,18.4507
lg,1624907274980970900,0,-0.1445,-0.5295,0.6885,393,-61.8286,-32.3486,-0.5493,85,1.3076,1.1766,-18.1258,-36.4462,32,0.029,8144,3.6575,19.2381
lg,1624907274980988897,0,0.1919,-1.1919,1.0002,394,-53.4058,-102.1729,1.4648,85,1.3066,1.1736,-20.8544,-40.0337,33,0.028,10448,3.6575,22.1362
lg,1624907274981006375,0,0.4351,-0.8542,0.731,395,6.7139,-115.9668,-23.1934,85,1.3066,1.1726,-24.9734,-41.1098,33,0.021,8122,3.6575,24.7881
lg,1624907274981023649,0,0.7737,-0.4932,0.6267,396,16.9678,-121.3379,-28.2593,85,1.3076,1.1726,-29.3628,-41.1364,33,0.024,8063,3.6575,27.2429
lg,1624907274981040867,0,0.8711,-0.2969,0.5671,397,20.0806,-74.5239,-12.6953,85,1.3076,1.1726,-32.8744,-40.9078,33,0.019,8075,3.6575,28.8993
lg,1624907274981057789,0,0.7556,-0.5896,0.7361,398,-8.1177,7.2632,5.4932,85,1.3076,1.1716,-32.7357,-41.1224,32,0.028,8181,3.6575,28.8176
lg,1624907274981074526,0,0.5437,-0.6382,0.7041,399,5.249,45.8374,16.7236,85,1.3086,1.1716,-30.7964,-40.5154,32,0.027,8487,3.6575,28.0149
lg,1624907274981106479,0,0.5459,-0.623,0.7454,400,5.4932,51.2695,20.1416,85,1.3086,1.1736,-28.7734,-39.8901,32,0.031,8641,3.6575,27.1914
lg,1624907274981123920,0,0.6633,-0.6118,0.7266,401,6.2256,62.9272,18.1274,85,1.3086,1.1736,-26.619,-39.0903,32,0.026,8135,3.6575,26.0042
lg,1624907274981140693,0,0.5356,-0.6755,0.7551,402,15.3198,101.4404,12.5732,85,1.3096,1.1746,-23.1887,-37.5869,33,0.027,8162,3.6575,23.6968
lg,1624907274981158282,0,0.3918,-0.7224,0.7803,403,26.9165,118.103,7.2632,85,1.3096,1.1756,-18.661,-35.1345,33,0.032,8209,3.6575,20.645
lg,1624907274981175630,0,-0.0669,-0.78,0.7007,404,57.9834,114.3188,-9.4604,85,1.3116,1.1766,-14.2504,-32.5029,33,0.039,8245,3.6575,17.8481
lg,1624907274981193127,0,-0.3096,-0.6238,0.7209,405,78.8574,32.4707,-17.0898,85,1.3136,1.1776,-12.29,-29.3858,33,0.039,8246,3.6575,16.6727
lg,1624907274981210197,0,0.074,-0.5491,0.7173,406,66.04,-81.8481,-7.9346,85,1.3146,1.1796,-15.0096,-27.3824,32,0.028,8211,3.6575,18.066
lg,1624907274981235237,0,0.3828,-0.5227,0.6929,407,58.2275,-113.7085,0.5493,85,1.3166,1.1806,-19.3925,-26.0557,32,0.029,8280,3.6575,20.321
lg,1624907274981254105,0,0.8494,-0.5266,0.7544,408,51.5137,-105.957,3.1738,85,1.3176,1.1796,-24.0401,-25.0423,32,0.039,8294,3.6575,22.4977
lg,1624907274981272342,0,0.9204,-0.396,0.6992,409,38.8184,-18.0664,4.6387,85,1.3176,1.1796,-25.5661,-23.8286,32,0.046,8366,3.6575,23.0523
lg,1624907274981306242,0,0.7747,-0.3677,0.7581,410,22.3999,24.1699,5.188,85,1.3186,1.1786,-24.7696,-22.9979,33,0.045,8352,3.6575,22.902
lg,1624907274981324813,0,0.4285,-0.5415,0.7952,411,6.1035,56.8237,-0.4272,85,1.3186,1.1806,-23.0984,-22.6669,33,0.041,10309,3.6575,21.9357
lg,1624907274981343236,0,0.3208,-0.2573,0.6201,412,-28.7476,34.79,-6.4697,85,1.3196,1.1826,-22.0159,-23.4761,33,0.035,8404,3.6575,21.0812
lg,1624907274981361567,0,0.1626,-0.616,0.6741,413,-62.3169,21.3013,-6.897,85,1.3186,1.1836,-20.928,-26.4892,33,0.034,8478,3.6575,20.7056
lg,1624907274981379304,0,-0.0632,-0.5151,0.6853,414,-68.4204,1.8311,-3.2349,85,1.3156,1.1816,-19.9664,-29.5826,33,0.032,8454,3.6575,20.6758
lg,1624907274981399062,0,-0.1846,-0.6262,0.8337,415,-74.4019,-20.0195,-1.77,85,1.3136,1.1786,-19.5491,-32.9604,33,0.029,8508,3.6575,21.1226
lg,1624907274981419264,0,0.0022,-0.9792,0.8965,416,-61.7065,-87.6465,3.6011,85,1.3126,1.1776,-21.5853,-36.8097,33,0.027,8504,3.6575,23.5737
lg,1624907275339762399,0,0.8628,-0.4468,0.6824,417,-4.8218,-93.3838,-2.6245,85,1.3116,1.1756,-25.5564,-37.8426,32,0.021,26112,3.6575,25.9259
lg,1624907275339805416,0,0.7407,-0.7529,0.8147,418,-10.8032,16.9067,10.437,85,1.3136,1.1756,-25.0888,-38.4004,32,0.02,14503,3.6575,25.8996
lg,1624907275339827397,0,0.594,-0.7136,0.7834,419,-3.0518,38.9404,14.6484,85,1.3136,1.1766,-23.0045,-38.1541,32,0.02,7892,3.6575,24.9622
lg,1624907275339848155,0,0.5232,-0.7168,0.7351,420,2.1973,71.106,19.104,85,1.3136,1.1766,-20.4633,-37.8301,32,0.014,7849,3.6575,23.8057
lg,1624907275339867820,0,0.4539,-0.637,0.7478,421,11.5967,84.5947,17.6392,85,1.3136,1.1766,-17.5294,-36.9411,32,0.013,7876,3.6575,22.2481
lg,1624907275339887596,0,0.4058,-0.6648,0.7441,422,17.1509,90.271,15.3809,85,1.3146,1.1776,-14.1738,-35.5484,32,0.02,7904,3.6575,20.317
lg,1624907275339907112,0,0.1387,-0.7263,0.7441,423,40.8325,97.168,3.1738,85,1.3166,1.1796,-10.6663,-33.7981,32,0.03,8068,3.6575,18.2431
lg,1624907275339925368,0,-0.2136,-0.6775,0.7319,424,67.9932,64.3311,-12.6953,85,1.3186,1.1806,-7.9059,-31.1372,32,0.032,7879,3.6575,16.493
lg,1624907275339943902,0,-0.0974,-0.5825,0.7173,425,70.0073,-31.4941,-7.8125,85,1.3196,1.1826,-8.6045,-28.7068,32,0.03,7915,3.6575,16.9118
lg,1624907275339991960,0,0.0984,-0.6055,0.7058,426,65.2466,-75.0732,-5.4321,85,1.3206,1.1826,-11.2555,-26.7823,32,0.029,7909,3.6575,18.2119
lg,1624907275340012848,0,0.5789,-0.5989,0.7446,427,58.3496,-115.2344,-2.4414,85,1.3216,1.1826,-16.1981,-25.336,32,0.035,7905,3.6575,20.28
lg,1624907275340030974,0,0.8193,-0.4932,0.7292,428,56.5186,-73.4863,-5.5542,85,1.3226,1.1806,-19.9735,-23.6691,32,0.041,8987,3.6575,21.4095
lg,1624907275340048470,0,0.8044,-0.4165,0.7754,429,21.6675,2.4414,1.1597,85,1.3226,1.1806,-20.7287,-22.9411,32,0.045,9584,3.6575,21.4537
lg,1624907275340066244,0,0.7146,-0.4995,0.8545,430,10.6812,27.71,-0.4883,85,1.3226,1.1806,-20.3092,-22.5928,32,0.035,7993,3.6575,21.0599
lg,1624907275340084537,0,0.4294,-0.5945,0.8518,431,1.6479,51.6357,-9.3994,85,1.3236,1.1826,-18.6516,-22.5921,32,0.033,7965,3.6575,20.0112
lg,1624907275340102904,0,0.251,-0.2212,0.5845,432,-13.855,37.0483,-16.9678,85,1.3236,1.1846,-17.674,-22.6735,32,0.035,8069,3.6575,18.7245
lg,1624907275340120678,0,0.1294,-0.3735,0.6533,433,-40.7715,35.7056,-14.0381,85,1.3226,1.1846,-16.2805,-24.2487,32,0.035,8067,3.6575,17.672
lg,1624907275340137507,0,-0.1685,-0.6763,0.729,434,-60.8521,11.7798,-2.8076,85,1.3206,1.1836,-14.9416,-27.3164,32,0.031,8105,3.6575,17.5359
lg,1624907275340154095,0,-0.0193,-0.7446,0.8826,435,-68.7256,-63.2324,8.8501,85,1.3196,1.1806,-16.3529,-30.9992,32,0.028,8120,3.6575,19.2546
lg,1624907275340171350,0,0.072,-1.1772,1.0823,436,-42.0532,-98.3887,-4.9438,85,1.3196,1.1786,-19.2393,-33.9609,32,0.022,8158,3.6575,21.4806
lg,1624907275340189198,0,0.4358,-0.6724,0.6377,437,42.5415,-119.9341,-28.8696,85,1.3196,1.1786,-24.0937,-33.4109,32,0.022,8241,3.6575,23.4738
lg,1624907275340208269,0,0.8486,-0.3481,0.5991,438,23.5596,-98.7549,-14.5264,85,1.3186,1.1776,-28.7066,-33.2078,32,0.02,8220,3.6575,25.3173
lg,1624907275340226303,0,0.915,-0.355,0.675,439,8.728,-62.9272,-7.7515,85,1.3196,1.1776,-31.7941,-33.346,32,0.02,8211,3.6575,26.5406
lg,1624907275340244837,0,0.6135,-0.5327,0.7002,440,-3.6621,28.1982,7.8735,85,1.3196,1.1776,-30.8015,-33.4137,32,0.019,8294,3.6575,26.1928
lg,1624907275340262648,0,0.3789,-0.5986,0.7478,441,-10.1929,43.5181,21.2402,85,1.3196,1.1776,-28.6654,-33.8904,33,0.021,11789,3.6575,26.0032
lg,1624907275340299048,0,0.5486,-0.5237,0.6924,442,-11.2915,32.959,25.0854,85,1.3206,1.1776,-27.1552,-34.5003,33,0.021,8248,3.6575,26.1549
lg,1624907275340318750,0,0.6836,-0.6365,0.7737,443,-16.9678,50.2319,13.0615,85,1.3206,1.1776,-25.4944,-34.9935,33,0.019,8342,3.6575,25.4304
lg,1624907275340335875,0,0.4136,-0.7427,0.7346,444,-9.9487,70.6787,3.54,85,1.3206,1.1786,-22.5387,-33.8861,33,0.02,8356,3.6575,23.3518
lg,1624907275340353279,0,0.2192,-0.7021,0.8035,445,26.8555,98.1445,-8.3618,85,1.3216,1.1796,-19.0205,-32.1901,32,0.028,8298,3.6575,20.8769
lg,1624907275340370478,0,-0.1379,-0.7676,0.738,446,55.3589,77.2095,-20.9351,85,1.3236,1.1816,-15.8302,-29.8248,32,0.031,8458,3.6575,18.6611
lg,1624907275340388141,0,-0.2246,-0.5823,0.7456,447,71.167,-11.0474,-22.0947,85,1.3246,1.1836,-15.5383,-27.1541,32,0.031,8341,3.6575,18.1909
lg,1624907275340406397,0,0.2446,-0.5417,0.7217,448,57.8613,-100.3418,-4.9438,85,1.3256,1.1846,-19.1931,-25.7319,32,0.032,10971,3.6575,19.9866
lg,1624907275692010730,0,0.9182,-0.438,0.7646,449,43.335,-57.5562,1.4038,85,1.3226,1.1836,-22.4924,-24.1537,32,0.033,24816,3.6575,20.9857
lg,1624907275692052598,0,0.6265,-0.4119,0.7354,450,-8.7891,41.9922,0.061,85,1.3276,1.1856,-21.5179,-24.3944,32,0.038,14908,3.6575,20.306
lg,1624907275692073616,0,0.2319,-0.499,0.7542,451,-30.2124,54.9927,-7.2632,85,1.3276,1.1856,-19.3771,-25.5178,32,0.033,7935,3.6575,19.1635
lg,1624907275692093947,0,0.0308,-0.5544,0.7107,452,-49.8657,12.2681,-8.606,85,1.3276,1.1866,-18.4256,-27.8305,32,0.037,7847,3.6575,18.7623
lg,1624907275692114261,0,0.0325,-0.5688,0.6763,453,-59.1431,-10.5591,-3.6621,85,1.3266,1.1856,-18.2346,-30.7087,32,0.033,7824,3.6575,18.9896
lg,1624907275692132850,0,0.0962,-0.4829,0.6592,454,-79.2847,-45.4712,7.3853,85,1.3236,1.1836,-19.1439,-34.5008,32,0.027,7842,3.6575,20.3438
lg,1624907275692150383,0,0.0896,-1.0129,1.0305,455,-69.7632,-70.7397,3.9062,85,1.3236,1.1816,-20.708,-38.3401,32,0.031,9082,3.6575,22.3842
lg,1624907275692167805,0,0.136,-1.001,0.9224,456,-22.4609,-90.6982,-12.085,85,1.3236,1.1806,-23.218,-40.3812,32,0.027,8218,3.6575,24.5924
lg,1624907275692203538,0,0.4233,-0.5701,0.7026,457,6.1646,-120.1172,-12.4512,85,1.3236,1.1806,-27.2204,-41.3771,32,0.022,7940,3.6575,27.6378
lg,1624907275692221998,0,0.8257,-0.4675,0.6821,458,-3.7842,-106.9336,-2.3804,85,1.3236,1.1796,-31.1253,-42.8637,32,0.02,7951,3.6575,30.7544
lg,1624907275692260159,0,0.9026,-0.4648,0.6804,459,-8.9111,-67.9932,2.6855,85,1.3236,1.1796,-33.6546,-44.183,32,0.02,7987,3.6575,32.9349
lg,1624907275692279435,0,0.7417,-0.73,0.8203,460,-14.5874,7.3853,9.5215,85,1.3236,1.1796,-33.1876,-44.696,32,0.02,8001,3.6575,32.9489
lg,1624907275692297190,0,0.6426,-0.7002,0.7646,461,-0.4272,40.6494,11.9629,85,1.3236,1.1806,-31.6378,-44.1057,32,0.02,8018,3.6575,31.9446
lg,1624907275692314556,0,0.6721,-0.6294,0.7151,462,2.6855,50.6592,12.085,85,1.3236,1.1806,-29.984,-43.2544,33,0.023,8016,3.6575,30.6523
lg,1624907275692332349,0,0.4319,-0.644,0.7561,463,23.5596,102.2949,3.8452,85,1.3246,1.1816,-26.599,-40.7741,33,0.025,12262,3.6575,27.6036
lg,1624907275692352162,0,0.2542,-0.7019,0.7412,464,33.02,112.6709,0.6714,85,1.3256,1.1826,-22.2314,-38.3373,33,0.03,8069,3.6575,24.5641
lg,1624907275692369306,0,-0.0811,-0.7371,0.6887,465,62.0117,95.1538,-8.9111,85,1.3266,1.1836,-18.4012,-35.2754,32,0.031,8174,3.6575,21.9879
lg,1624907275692386505,0,-0.1848,-0.5833,0.7048,466,73.3032,7.3853,-11.6577,85,1.3286,1.1856,-17.2879,-32.3527,32,0.028,9832,3.6575,21.4944
lg,1624907275692404112,0,0.2278,-0.5752,0.7058,467,62.561,-81.8481,-4.7607,85,1.3286,1.1856,-20.037,-30.6497,32,0.022,8109,3.6575,23.2166
lg,1624907275692421034,0,0.6685,-0.5071,0.7134,468,56.9458,-106.0181,-4.1504,85,1.3306,1.1876,-24.4451,-29.3381,32,0.034,8394,3.6575,25.4018
lg,1624907275692437992,0,0.8381,-0.4744,0.8179,469,52.1851,-86.2427,-3.6621,85,1.3317,1.1876,-28.1846,-28.0275,33,0.035,8145,3.6575,27.1099
lg,1624907275692454784,0,0.9385,-0.2095,0.6604,470,15.0757,-15.9302,-0.4883,85,1.3317,1.1876,-29.7298,-27.2909,33,0.043,8240,3.6575,27.2848
lg,1624907275692471539,0,0.5073,-0.3865,0.6392,471,-14.4653,51.5747,-6.7139,85,1.3317,1.1876,-28.2003,-27.3477,33,0.042,8195,3.6575,25.9936
lg,1624907275692488534,0,0.3613,-0.3223,0.6526,472,-30.2734,53.1616,-9.4604,85,1.3317,1.1886,-26.4225,-27.8216,33,0.043,8266,3.6575,24.4792
lg,1624907275692586134,0,0.021,-0.5767,0.698,473,-50.8423,27.1606,-13.1836,85,1.3306,1.1876,-24.7795,-29.8726,32,0.043,8298,3.6575,23.593
lg,1624907275692630967,0,-0.0806,-0.5278,0.686,474,-67.9321,-20.0195,-4.7607,85,1.3286,1.1866,-24.4216,-33.0092,32,0.035,8329,3.6575,23.9804
lg,1624907275692717206,0,0.1099,-0.5039,0.7393,475,-78.6743,-41.9312,4.3335,85,1.3246,1.1836,-25.6996,-37.5949,32,0.03,8331,3.6575,26.3457
lg,1624907275692738575,0,0.2371,-1.1753,1.106,476,-77.2705,-92.7734,9.4604,82,1.3246,1.1816,-27.6059,-42.3949,32,0.027,8352,3.6564,29.4857
lg,1624907275692757887,0,0.3518,-0.9404,0.8171,477,7.8125,-105.6519,-20.3857,82,1.3256,1.1816,-30.7634,-43.6368,32,0.023,8491,3.6564,32.2419
lg,1624907275692776180,0,0.7666,-0.4658,0.6301,478,17.1509,-113.6475,-14.7705,82,1.3256,1.1806,-34.9484,-44.4721,32,0.012,8501,3.6564,35.3866
lg,1624907275692795122,0,0.8904,-0.3892,0.7036,479,3.2349,-93.4448,-10.7422,82,1.3256,1.1806,-37.0951,-45.3358,32,0.011,8463,3.6564,36.9042
lg,1624907275692820569,0,0.8018,-0.5566,0.7432,480,-12.6343,-7.4463,5.0049,82,1.3266,1.1806,-37.3096,-45.7755,32,0.012,8535,3.6564,37.1463
lg,1624907276053049724,0,0.687,-0.6558,0.7612,481,-5.6763,49.9268,24.4141,82,1.3266,1.1816,-34.7593,-44.7161,32,0.016,25695,3.6564,35.5346
lg,1624907276053088088,0,0.4519,-0.6716,0.7595,482,14.5264,99.4873,11.0474,82,1.3266,1.1826,-31.1639,-42.4161,32,0.019,10736,3.6564,32.558
lg,1624907276053108382,0,0.1108,-0.7266,0.7546,483,24.1089,109.375,6.0425,82,1.3276,1.1826,-26.8656,-39.4683,32,0.022,8682,3.6564,29.3808
lg,1624907276053127620,0,-0.1504,-0.7007,0.6326,484,51.6357,94.2993,-3.54,82,1.3276,1.1846,-23.6932,-36.337,32,0.028,10011,3.6564,27.3441
lg,1624907276053147581,0,-0.2317,-0.6387,0.7026,485,71.4722,19.6533,-17.9443,82,1.3286,1.1856,-22.088,-33.3035,32,0.032,7922,3.6564,26.3555
lg,1624907276053167096,0,0.1956,-0.533,0.6763,486,62.3779,-77.5757,-3.6011,82,1.3306,1.1866,-24.4004,-31.6813,32,0.02,7854,3.6564,28.1251
lg,1624907276053186334,0,0.4277,-0.499,0.644,487,58.8379,-101.0132,-1.8921,82,1.3306,1.1866,-28.4624,-30.6655,32,0.023,7894,3.6564,30.6028
lg,1624907276053205275,0,0.75,-0.5669,0.7085,488,55.481,-93.6279,-1.8921,82,1.3306,1.1866,-32.1546,-29.7902,32,0.031,7912,3.6564,32.8463
lg,1624907276053222901,0,0.7119,-0.4929,0.6638,489,53.9551,-30.8838,-7.5073,82,1.3317,1.1846,-33.7118,-28.0881,32,0.048,7927,3.6564,33.3682
lg,1624907276053240322,0,0.4602,-0.4104,0.6912,490,45.2271,-4.4556,-5.9814,82,1.3317,1.1836,-33.3766,-26.901,32,0.047,8143,3.6564,33.2175
lg,1624907276053285359,0,0.4248,-0.4773,0.7332,491,17.0898,4.6997,2.5024,82,1.3317,1.1826,-32.8682,-26.4774,32,0.048,7976,3.6564,33.3655
lg,1624907276053305875,0,0.4814,-0.4827,0.7495,492,6.2256,-3.7842,7.0801,82,1.3327,1.1816,-32.6962,-26.6888,32,0.051,8081,3.6564,33.8861
lg,1624907276053324520,0,0.5059,-0.4067,0.7598,493,-11.2305,-9.7656,-0.4883,82,1.3327,1.1836,-32.9525,-27.291,32,0.049,8028,3.6564,34.105
lg,1624907276053342312,0,0.5015,-0.4895,0.7649,494,-26.062,-11.3525,-6.1035,82,1.3337,1.1846,-33.3004,-28.5386,32,0.039,8006,3.6564,34.2169
lg,1624907276053360457,0,0.3225,-0.6033,0.7559,495,-42.2363,-1.0376,-15.2588,82,1.3327,1.1866,-33.0613,-30.3225,32,0.028,8060,3.6564,33.8404
lg,1624907276053377934,0,0.0278,-0.4512,0.6191,496,-51.5747,-3.0518,-7.019,82,1.3317,1.1866,-32.1421,-32.5135,32,0.035,8130,3.6564,33.7507
lg,1624907276053395633,0,-0.033,-0.4158,0.679,497,-68.7256,-23.3154,2.3804,82,1.3296,1.1856,-31.5689,-35.5492,32,0.033,8116,3.6564,34.3915
lg,1624907276053412981,0,0.262,-0.6653,0.8379,498,-91.0034,-79.3457,22.1558,82,1.3286,1.1846,-32.7944,-40.9539,32,0.027,8134,3.6564,37.5689
lg,1624907276053431143,0,0.4175,-0.8423,0.7378,499,-10.0708,-96.6187,-5.8594,82,1.3286,1.1846,-35.3108,-43.3253,32,0.025,8172,3.6564,40.6754
lg,1624907276053486633,0,0.417,-0.7395,0.8401,500,1.0376,-86.1206,-5.5542,82,1.3286,1.1836,-37.6446,-44.8924,32,0.016,8187,3.6564,43.4408
lg,1624907276053506853,0,0.7271,-0.5674,0.7246,501,1.0376,-91.7358,6.8359,82,1.3286,1.1846,-40.009,-46.8435,33,0.016,8256,3.6564,46.9063
lg,1624907276053526535,0,1.0527,-0.5889,0.7551,502,-7.2021,-50.1099,6.2256,82,1.3276,1.1836,-41.4745,-48.2292,33,0.016,8243,3.6564,48.8826
lg,1624907276053544346,0,0.7874,-0.8042,0.8247,503,1.2817,45.7764,4.4556,82,1.3286,1.1846,-39.8312,-46.9345,33,0.017,10020,3.6564,47.1299
lg,1624907276053562453,0,0.4419,-0.6406,0.7415,504,18.9209,88.501,8.1177,82,1.3286,1.1846,-36.528,-44.0857,33,0.02,8484,3.6564,44.0214
lg,1624907276053580375,0,0.4487,-0.5864,0.6943,505,19.8975,82.7026,10.8643,82,1.3286,1.1856,-33.4187,-41.7599,33,0.021,8290,3.6564,41.5496
lg,1624907276053617683,0,0.4795,-0.5776,0.6851,506,22.644,84.9609,9.5825,82,1.3286,1.1856,-30.3938,-39.5807,33,0.026,8370,3.6564,39.2339
lg,1624907276053734852,0,0.2683,-0.6123,0.6873,507,36.5601,103.6987,2.3193,82,1.3306,1.1866,-26.5402,-36.857,33,0.033,8347,3.6564,36.4453
lg,1624907276053757333,0,-0.03,-0.6648,0.6838,508,61.6455,84.7778,-8.9111,82,1.3317,1.1876,-22.9244,-33.6855,33,0.034,8351,3.6564,34.1373
lg,1624907276053777350,0,-0.0769,-0.5986,0.6599,509,66.4062,4.5166,-9.8267,82,1.3327,1.1886,-21.9312,-31.2252,33,0.017,8944,3.6564,33.8394
lg,1624907276053797218,0,0.0933,-0.5886,0.6919,510,61.7065,-44.6167,-10.498,82,1.3337,1.1896,-23.0552,-29.3734,33,0.021,8626,3.6564,34.5808
lg,1624907276053816937,0,0.5461,-0.5779,0.7017,511,53.894,-93.0176,-8.667,82,1.3337,1.1886,-26.7839,-28.2845,33,0.045,8427,3.6564,36.3728
lg,1624907276053837028,0,0.8035,-0.5117,0.698,512,48.8281,-56.4575,-10.437,82,1.3347,1.1876,-29.5963,-26.9508,32,0.049,8402,3.6564,37.2519
lg,1624907276407720818,0,0.5229,-0.4478,0.7881,513,17.8833,33.6914,-6.2256,82,1.3357,1.1816,-28.5154,-25.8768,32,0.052,25065,3.6564,36.3557
lg,1624907276407772564,0,0.3313,-0.4165,0.7019,514,8.8501,36.3159,-13.1836,82,1.3357,1.1876,-27.1808,-25.1343,32,0.055,15536,3.6564,35.2016
lg,1624907276407795008,0,0.2341,-0.4668,0.7466,515,-26.2451,23.6816,-8.606,82,1.3357,1.1886,-25.9961,-26.1048,32,0.042,7900,3.6564,34.5228
lg,1624907276407816099,0,0.1895,-0.5469,0.7566,516,-47.7295,-0.3052,0.7324,82,1.3357,1.1896,-25.4293,-28.4283,32,0.04,7892,3.6564,34.7277
lg,1624907276407836708,0,0.2253,-0.4858,0.7314,517,-56.2134,-14.7095,4.6997,82,1.3347,1.1896,-25.4054,-31.0922,32,0.038,7764,3.6564,35.3137
lg,1624907276407856205,0,0.2842,-0.5718,0.7896,518,-80.0171,-26.7334,13.916,82,1.3327,1.1876,-25.6276,-34.9714,32,0.036,7860,3.6564,36.5492
lg,1624907276407874683,0,0.3545,-0.8435,0.9185,519,-83.1299,-39.978,15.4419,82,1.3306,1.1836,-26.1357,-39.2972,32,0.031,9215,3.6564,38.2921
lg,1624907276407893513,0,0.29,-0.958,0.8701,520,-10.8643,-64.0259,-17.0288,82,1.3296,1.1826,-27.9961,-40.6575,32,0.028,10386,3.6564,39.7129
lg,1624907276407914215,0,0.4456,-0.5515,0.6572,521,9.8877,-65.6128,-22.7661,82,1.3296,1.1816,-30.6093,-40.588,32,0.025,7976,3.6564,41.3926
lg,1624907276407966647,0,0.5952,-0.334,0.6025,522,19.104,-66.5283,-4.0283,82,1.3296,1.1816,-33.1361,-40.4071,32,0.025,7990,3.6564,43.0753
lg,1624907276407987701,0,0.7173,-0.373,0.6431,523,-11.0474,-18.9209,21.5454,82,1.3306,1.1816,-33.5766,-41.2445,32,0.026,8012,3.6564,44.2543
lg,1624907276408006179,0,0.7971,-0.749,0.8513,524,-22.2778,4.5166,29.4189,82,1.3306,1.1826,-32.0545,-42.3125,32,0.027,8040,3.6564,44.5551
lg,1624907276408024620,0,0.7231,-0.9531,0.9861,525,-13.6108,49.9878,25.7568,82,1.3306,1.1826,-29.7201,-42.5602,32,0.028,8068,3.6564,43.8924
lg,1624907276408042078,0,0.509,-0.6577,0.7871,526,13.6719,88.4399,14.6484,82,1.3306,1.1836,-26.5699,-40.8694,32,0.028,8035,3.6564,41.6516
lg,1624907276408060686,0,0.3625,-0.6389,0.7593,527,19.104,96.4966,9.4604,82,1.3317,1.1846,-23.1915,-38.7498,32,0.031,8050,3.6564,39.1457
lg,1624907276408081666,0,0.3254,-0.6692,0.7869,528,33.5693,95.2759,3.479,82,1.3327,1.1856,-19.8775,-36.5921,32,0.027,8084,3.6564,36.7804
lg,1624907276408100607,0,0.1086,-0.7466,0.7285,529,61.0962,86.731,-9.2773,82,1.3337,1.1866,-16.733,-33.7652,32,0.033,8104,3.6564,34.4918
lg,1624907276408118455,0,-0.0027,-0.6094,0.7148,530,74.646,43.396,-12.7563,82,1.3357,1.1876,-14.8873,-30.6755,32,0.029,8096,3.6564,33.1761
lg,1624907276408136803,0,0.1643,-0.5986,0.7729,531,70.0684,-14.0991,-7.3242,82,1.3367,1.1886,-15.311,-28.1664,32,0.033,12093,3.6564,33.2769
lg,1624907276408154892,0,0.5215,-0.5242,0.8291,532,61.7676,-50.6592,-6.7139,82,1.3367,1.1886,-17.7245,-26.0473,33,0.042,8203,3.6564,34.0216
lg,1624907276408172684,0,0.6726,-0.4888,0.8318,533,62.9883,-43.0908,-5.188,82,1.3377,1.1886,-20.0336,-23.8601,33,0.051,8205,3.6564,34.6237
lg,1624907276408189864,0,0.9407,-0.0564,0.6682,534,19.4092,3.0518,0.1831,82,1.3377,1.1896,-21.2216,-22.6009,33,0.051,8243,3.6564,34.4016
lg,1624907276408207935,0,0.5911,-0.417,0.6943,535,-29.48,79.9561,-2.8076,82,1.3377,1.1866,-18.9201,-23.5601,33,0.042,8210,3.6564,33.0585
lg,1624907276408226542,0,0.1394,-0.5273,0.7808,536,-46.6309,95.459,-2.2583,82,1.3387,1.1906,-14.7918,-26.0069,32,0.023,8789,3.6564,31.2807
lg,1624907276408265073,0,-0.0857,-0.5691,0.7451,537,-67.1387,89.5996,0.5493,82,1.3357,1.1886,-10.845,-28.7586,32,0.034,8279,3.6564,29.7043
lg,1624907276408286239,0,-0.2639,-0.446,0.6841,538,-88.1958,27.771,9.5825,82,1.3306,1.1846,-8.6072,-32.3879,32,0.031,8283,3.6564,29.4607
lg,1624907276408304105,0,-0.0076,-0.7681,0.927,539,-111.2671,-50.5981,19.8364,82,1.3266,1.1786,-9.4506,-37.3902,32,0.034,9236,3.6564,31.3201
lg,1624907276408322045,0,0.1833,-0.9768,0.793,540,-46.2646,-86.3037,-8.4839,82,1.3236,1.1736,-12.2996,-40.1257,32,0.035,10279,3.6564,33.3429
lg,1624907276408474057,0,0.4756,-0.8296,0.7959,541,-38.6963,-90.6372,-15.686,82,1.3196,1.1696,-16.4129,-42.0256,32,0.037,8376,3.6564,35.7573
lg,1624907276408525080,0,0.7229,-0.5825,0.7908,542,-21.1792,-107.3608,-17.9443,82,1.3156,1.1666,-20.8047,-43.4787,32,0.039,8404,3.6564,38.2371
lg,1624907276408546468,0,0.9575,-0.5591,0.7832,543,-22.3389,-29.1748,3.2349,82,1.3126,1.1656,-22.4756,-44.482,32,0.035,8451,3.6564,39.1288
lg,1624907276408573063,0,0.7112,-0.7786,0.7852,544,-3.8452,114.2578,45.7153,82,1.3096,1.1656,-18.3474,-43.9341,32,0.04,8478,3.6564,37.112
lg,1624907276773273314,0,-0.0513,-0.6433,0.7126,545,10.6812,82.9468,42.1143,82,1.3046,1.1686,-16.2365,-43.4965,32,0.041,25687,3.6564,37.1456
lg,1624907276773334993,0,0.3181,-0.7593,0.7683,546,37.5977,26.7944,5.0049,82,1.3036,1.1696,-15.321,-41.8677,32,0.038,10351,3.6564,36.5509
lg,1624907276773367112,0,0.0315,-0.6516,0.7258,547,63.1714,33.9355,-18.1274,82,1.3046,1.1716,-14.2318,-38.9651,32,0.041,9479,3.6564,35.0815
lg,1624907276773397785,0,0.0005,-0.5862,0.77,548,75.1953,-17.2119,-20.0195,82,1.3076,1.1726,-14.7023,-35.8355,32,0.04,7831,3.6564,34.8562
lg,1624907276773429199,0,0.1309,-0.624,0.8215,549,78.2471,-47.0581,-16.6626,82,1.3106,1.1746,-16.3254,-32.907,32,0.042,7835,3.6564,35.4126
lg,1624907276773550927,0,0.5615,-0.3711,0.6248,550,80.9937,-76.1719,-4.1504,82,1.3136,1.1756,-19.8178,-30.0637,32,0.05,9212,3.6564,36.8961
lg,1624907276773581396,0,0.9729,-0.2451,0.5964,551,8.8501,-35.4614,0.4883,82,1.3146,1.1766,-22.384,-29.8022,32,0.05,8475,3.6564,37.606
lg,1624907276773609660,0,0.6943,-0.5825,0.7629,552,-15.8081,63.2324,-7.9956,82,1.3146,1.1756,-20.8918,-30.0743,32,0.05,12246,3.6564,36.0429
lg,1624907276773636923,0,-0.074,-0.5518,0.707,553,-9.1553,119.4458,-16.7847,82,1.3156,1.1766,-16.1302,-29.7668,32,0.051,7926,3.6564,33.0305
lg,1624907276773664631,0,-0.5498,-0.5962,0.6904,554,-10.3149,105.1025,-10.5591,82,1.3146,1.1766,-12.7069,-30.1335,32,0.052,7936,3.6564,31.9532
lg,1624907276773692171,0,-0.4822,-0.5481,0.6956,555,-8.5449,-22.644,2.0752,82,1.3166,1.1766,-11.948,-30.87,32,0.054,7938,3.6564,32.5535
lg,1624907276773719249,0,0.2563,-0.6672,0.7451,556,-23.9868,-139.0991,15.7471,82,1.3166,1.1766,-16.4075,-33.1306,32,0.054,8313,3.6564,36.2409
lg,1624907276773745881,0,0.8296,-0.8535,0.866,557,-10.437,-129.0894,9.7046,82,1.3176,1.1776,-21.1439,-35.0291,32,0.053,10333,3.6564,39.7633
lg,1624907276773771643,0,0.7292,-0.7295,0.8533,558,20.2026,-37.4146,-8.7891,82,1.3186,1.1776,-23.0304,-34.6406,32,0.053,8549,3.6564,40.4437
lg,1624907276773797497,0,0.5063,-0.7026,0.8364,559,29.8462,-3.8452,-13.0615,82,1.3196,1.1776,-23.5206,-33.502,32,0.055,8046,3.6564,40.1456
lg,1624907276773823240,0,0.2656,-0.5615,0.791,560,39.6118,1.77,-8.606,82,1.3196,1.1786,-23.3186,-31.851,32,0.056,8075,3.6564,39.8216
lg,1624907276773881065,0,0.4971,-0.6191,0.833,561,33.3252,-10.437,3.2349,82,1.3206,1.1786,-23.6933,-30.8415,32,0.056,8087,3.6564,40.2495
lg,1624907276773912294,0,0.5886,-0.6968,0.8728,562,36.499,1.1597,7.1411,82,1.3216,1.1796,-23.6735,-29.7709,32,0.055,8103,3.6564,40.6076
lg,1624907276773938797,0,0.3521,-0.7139,0.7993,563,55.3589,44.5557,5.5542,82,1.3216,1.1796,-21.8113,-27.7653,32,0.057,8155,3.6564,40.0832
lg,1624907276773964948,0,0.2292,-0.3164,0.7092,564,41.626,36.8652,6.897,82,1.3226,1.1796,-20.1607,-25.788,32,0.057,8218,3.6564,39.5776
lg,1624907276773991321,0,0.3145,-0.3044,0.6768,565,22.522,23.2544,9.3384,82,1.3236,1.1806,-19.3563,-25.7839,32,0.057,8275,3.6564,39.5947
lg,1624907276774016842,0,0.3823,-0.4128,0.7402,566,-11.1084,27.771,11.7798,82,1.3226,1.1806,-18.3467,-26.3264,32,0.06,8195,3.6564,39.5657
lg,1624907276774042307,0,0.2053,-0.3525,0.6851,567,-39.6729,46.936,9.6436,82,1.3226,1.1796,-16.3672,-27.7771,32,0.056,8267,3.6564,39.0355
lg,1624907276774068476,0,-0.0571,-0.4871,0.7239,568,-56.2134,49.9878,10.437,82,1.3216,1.1786,-14.0606,-30.4538,32,0.052,8255,3.6564,38.7273
lg,1624907276774217875,0,-0.1638,-0.4878,0.7297,569,-72.7539,14.5264,10.498,82,1.3216,1.1776,-12.4,-33.4851,32,0.045,8281,3.6564,38.7821
lg,1624907276774247565,0,-0.3149,-1.0234,1.075,570,-64.9414,-47.1191,-5.9204,82,1.3216,1.1766,-13.1374,-36.6621,32,0.039,8353,3.6564,39.7569
lg,1624907276774276830,0,-0.0969,-0.7407,0.8086,571,-11.5967,-113.4033,-17.5781,82,1.3226,1.1766,-16.4424,-37.9298,32,0.037,8454,3.6564,42.0749
lg,1624907276774304018,0,0.2004,-0.6436,0.7827,572,-11.5356,-145.9961,-14.0991,82,1.3226,1.1766,-21.7077,-39.5813,32,0.037,8382,3.6564,45.5133
lg,1624907276774331893,0,0.8203,-0.634,0.8186,573,-13.4277,-146.6675,-11.4136,82,1.3226,1.1756,-27.0738,-41.6257,32,0.036,8377,3.6564,49.3197
lg,1624907276774359767,0,1.0183,-0.614,0.8149,574,-2.5024,-53.5889,-12.8174,82,1.3236,1.1756,-29.6931,-42.1366,32,0.036,8509,3.6564,50.4484
lg,1624907276774386066,0,0.6501,-0.7808,0.8572,575,8.728,46.5088,-18.5547,82,1.3236,1.1756,-28.7753,-40.7823,32,0.037,8465,3.6564,48.3931
lg,1624907276774412087,0,0.5327,-0.4446,0.6221,576,19.8975,71.167,-13.9771,82,1.3246,1.1766,-26.8061,-38.3994,32,0.035,9420,3.6564,45.5996
lg,1624907277129208182,0,0.1333,-0.6594,0.6929,577,47.7905,150.3296,-8.4229,82,1.3276,1.1776,-20.9872,-35.0193,32,0.037,26986,3.6564,41.5096
lg,1624907277129264671,0,-0.6392,-0.6814,0.7178,578,84.9609,89.9658,-33.9355,82,1.3296,1.1816,-16.9013,-30.8824,32,0.03,14827,3.6564,38.4124
lg,1624907277129286466,0,-0.4285,-0.5881,0.6636,579,80.6885,-67.749,-24.353,82,1.3306,1.1816,-18.2013,-28.2221,32,0.042,7844,3.6564,39.0851
lg,1624907277129306612,0,-0.1013,-0.5598,0.6755,580,76.1719,-135.376,-21.7896,82,1.3317,1.1826,-24.7511,-26.87,32,0.048,7889,3.6564,42.0058
lg,1624907277129325757,0,0.5276,-0.6531,0.864,581,71.228,-193.9087,-19.4702,82,1.3317,1.1816,-32.0558,-25.9234,32,0.05,8020,3.6564,45.3118
lg,1624907277129373443,0,1.1074,0.176,0.5095,582,56.2744,-154.2969,-13.6108,82,1.3317,1.1816,-39.1724,-24.3239,32,0.057,7901,3.6564,47.4501
lg,1624907277129394348,0,1.1829,-0.3386,0.7231,583,-46.0815,-13.9771,-9.3994,82,1.3327,1.1826,-40.4765,-26.0955,32,0.054,8141,3.6564,47.3407
lg,1624907277129427411,0,0.8425,-0.488,0.7942,584,-64.1479,50.293,-18.9209,82,1.3337,1.1836,-39.0912,-27.5317,32,0.05,7973,3.6564,45.4052
lg,1624907277129446982,0,-0.0173,-0.8252,0.9099,585,-72.3267,108.8257,-22.3999,82,1.3337,1.1846,-34.2903,-28.983,32,0.052,7965,3.6564,42.2708
lg,1624907277129465256,0,-0.4902,-0.6968,0.7908,586,-44.7998,25.9399,-18.3105,82,1.3337,1.1836,-31.8306,-30.525,32,0.039,7991,3.6564,41.1632
lg,1624907277129485309,0,-0.4124,-0.4097,0.6711,587,-45.8374,-40.4053,-11.5967,82,1.3306,1.1826,-31.4846,-32.6398,32,0.042,8000,3.6564,41.6739
lg,1624907277129503341,0,0.1895,-0.4661,0.731,588,-81.7261,-130.5542,15.5029,84,1.3286,1.1796,-34.6032,-38.1579,32,0.034,8024,3.6575,45.8479
lg,1624907277129525581,0,0.6465,-0.9399,1.0068,589,-85.8765,-121.3989,29.6021,84,1.3286,1.1776,-37.0509,-44.7354,32,0.036,8056,3.6575,51.0104
lg,1624907277129544800,0,0.6086,-0.9043,0.8999,590,-50.6592,-88.3789,17.8223,84,1.3276,1.1766,-38.4622,-49.1299,32,0.04,8124,3.6575,54.8874
lg,1624907277129563296,0,0.2026,-0.9048,0.8904,591,-13.3667,-48.9502,12.4512,84,1.3286,1.1766,-38.2137,-50.8967,32,0.04,8042,3.6575,57.0724
lg,1624907277129581996,0,0.802,-0.6072,0.7046,592,1.77,-98.6938,18.4937,84,1.3286,1.1766,-40.1449,-53.3394,32,0.039,8134,3.6575,61.4444
lg,1624907277129599732,0,1.0752,-0.6536,0.845,593,-2.9297,-89.7827,14.0991,84,1.3286,1.1766,-41.8398,-55.7976,32,0.041,8094,3.6575,65.4519
lg,1624907277129618284,0,0.7046,-0.5774,0.7683,594,34.5459,89.6606,1.8311,84,1.3296,1.1776,-39.4906,-51.1793,32,0.04,11353,3.6575,61.1634
lg,1624907277129635872,0,0.4346,-0.6553,0.7837,595,40.0391,121.3989,3.6621,84,1.3306,1.1786,-35.5738,-46.3339,32,0.038,8161,3.6575,56.357
lg,1624907277129654201,0,0.0371,-0.7234,0.729,596,63.1714,114.9292,-1.8921,84,1.3327,1.1796,-31.0873,-41.6249,32,0.043,8198,3.6575,52.4733
lg,1624907277129672086,0,-0.1482,-0.6467,0.7036,597,85.3271,54.8706,-15.625,84,1.3347,1.1826,-28.344,-37.2174,32,0.034,8252,3.6575,50.3933
lg,1624907277129690063,0,0.0115,-0.6321,0.6978,598,84.5337,13.5498,-13.5498,84,1.3367,1.1836,-28.0051,-34.1327,32,0.042,8200,3.6575,50.6202
lg,1624907277129709727,0,0.3333,-0.623,0.7144,599,90.271,-67.4438,-4.8828,84,1.3367,1.1846,-30.0263,-31.5468,32,0.049,8355,3.6575,52.2571
lg,1624907277129735395,0,0.571,-0.5613,0.7095,600,95.0928,-70.9839,-4.5166,84,1.3377,1.1846,-32.6457,-28.7873,32,0.051,8331,3.6575,53.8785
lg,1624907277129754707,0,0.7007,-0.1494,0.5442,601,88.3789,-66.2231,-3.1128,84,1.3377,1.1846,-35.7697,-25.5917,32,0.048,8309,3.6575,54.9664
lg,1624907277129772276,0,0.9197,-0.075,0.5928,602,2.3193,-19.8975,6.3477,84,1.3377,1.1856,-37.2231,-25.4286,32,0.051,8318,3.6575,55.387
lg,1624907277129791050,0,0.7183,-0.3616,0.6528,603,-49.6826,45.5933,1.3428,84,1.3387,1.1866,-35.8279,-26.9674,32,0.047,9100,3.6575,54.516
lg,1624907277129860086,0,0.0823,-0.5615,0.709,604,-61.5845,87.6465,-9.3994,84,1.3387,1.1856,-31.7813,-28.623,32,0.036,8362,3.6575,52.4353
lg,1624907277129886552,0,-0.4307,-0.6418,0.7075,605,-49.8047,52.5513,-2.9297,84,1.3377,1.1856,-28.1635,-30.4901,32,0.042,8400,3.6575,51.3789
lg,1624907277129906957,0,-0.5337,-0.5627,0.6965,606,-46.7529,0.1831,3.1128,84,1.3377,1.1846,-26.3768,-32.6674,32,0.043,8406,3.6575,51.5913
lg,1624907277129930809,0,0.0374,-0.5217,0.6685,607,-59.9976,-121.7041,24.4141,84,1.3367,1.1836,-28.8658,-37.147,32,0.038,8430,3.6575,55.7109
lg,1624907277129954346,0,0.6389,-0.6755,0.7952,608,-70.4956,-135.498,39.3677,84,1.3357,1.1836,-32.0739,-42.838,32,0.039,8461,3.6575,61.2225
lg,1624907277486625675,0,0.4568,-0.6758,0.8396,609,18.6768,-44.6167,5.6763,84,1.3357,1.1826,-32.8563,-42.7871,32,0.04,25893,3.6575,62.7646
lg,1624907277486689318,0,0.5415,-0.7854,0.8875,610,26.6724,-31.25,5.6152,84,1.3367,1.1846,-33.3773,-42.226,32,0.046,14672,3.6575,63.89
lg,1624907277486710742,0,0.54,-0.5964,0.7791,611,41.3818,-4.8218,8.4229,84,1.3377,1.1846,-33.1132,-40.616,32,0.046,9516,3.6575,64.2311
lg,1624907277486730647,0,0.429,-0.5942,0.8188,612,39.5508,15.8691,11.1694,84,1.3377,1.1856,-31.9386,-38.7906,32,0.046,7824,3.6575,64.0463
lg,1624907277486751496,0,0.3977,-0.467,0.7761,613,13.855,19.2261,15.1978,84,1.3377,1.1846,-30.64,-37.9002,32,0.05,7836,3.6575,63.8654
lg,1624907277486770549,0,0.499,-0.3811,0.6353,614,1.4038,10.6812,14.0381,84,1.3357,1.1836,-30.2565,-38.0896,32,0.039,9153,3.6575,63.7358
lg,1624907277486790286,0,0.4023,-0.5837,0.8408,615,-17.334,27.771,-2.1973,84,1.3367,1.1826,-29.0903,-38.1979,32,0.038,8385,3.6575,62.7864
lg,1624907277486812285,0,-0.1475,-0.6304,0.6809,616,13.6108,48.0347,-24.231,84,1.3367,1.1826,-26.7637,-36.8299,32,0.038,7824,3.6575,60.7049
lg,1624907277486831578,0,-0.2883,-0.5835,0.6543,617,15.5029,22.8271,-21.5454,84,1.3367,1.1826,-26.4525,-36.5628,32,0.035,7896,3.6575,60.8801
lg,1624907277486850519,0,-0.0076,-0.52,0.6841,618,7.0801,-79.0405,-12.3901,84,1.3377,1.1816,-28.2316,-37.0747,32,0.035,7917,3.6575,62.5807
lg,1624907277486868330,0,0.6074,-0.4819,0.6997,619,-7.2632,-106.6895,0.6104,84,1.3377,1.1816,-31.844,-38.7926,32,0.035,7944,3.6575,65.599
lg,1624907277486886288,0,0.886,-0.6587,0.7781,620,-12.8174,-46.5698,1.709,84,1.3367,1.1816,-33.5812,-40.1427,32,0.033,11141,3.6575,67.1012
lg,1624907277486946521,0,0.6921,-0.6497,0.7744,621,-5.3101,35.8276,-2.6855,84,1.3367,1.1816,-32.5825,-39.6829,32,0.03,9639,3.6575,65.8906
lg,1624907277486967241,0,0.604,-0.6877,0.813,622,-4.1504,63.1714,-11.0474,84,1.3367,1.1816,-30.788,-38.6611,32,0.031,8096,3.6575,63.6121
lg,1624907277486985719,0,0.5281,-0.782,0.8169,623,1.2817,76.2939,-16.2964,84,1.3367,1.1826,-28.5716,-37.4438,32,0.032,8078,3.6575,60.9544
lg,1624907277487003473,0,0.2585,-0.729,0.8071,624,20.6299,108.8257,-20.5688,84,1.3367,1.1826,-24.9754,-35.1802,32,0.032,8064,3.6575,57.4225
lg,1624907277487020672,0,-0.0828,-0.8218,0.8193,625,44.6167,100.708,-25.3296,84,1.3377,1.1836,-21.1243,-32.5127,32,0.036,8501,3.6575,54.2704
lg,1624907277487038742,0,-0.1304,-0.6736,0.7583,626,62.0728,74.1577,-24.4751,84,1.3387,1.1856,-19.2039,-29.4598,32,0.031,8660,3.6575,52.7172
lg,1624907277487056404,0,0.001,-0.605,0.6892,627,78.0029,5.4321,-16.9678,84,1.3387,1.1866,-18.6029,-26.6003,32,0.027,8125,3.6575,52.1574
lg,1624907277487073658,0,0.2917,-0.7119,0.9099,628,76.8433,-39.3066,-11.7188,84,1.3407,1.1876,-20.0545,-24.0809,32,0.037,8185,3.6575,52.5749
lg,1624907277487091654,0,0.6189,-0.1687,0.5652,629,87.7075,-59.8145,-12.8174,84,1.3407,1.1876,-23.4518,-20.5213,32,0.042,8484,3.6575,52.9323
lg,1624907277487108779,0,0.7905,0.1475,0.5554,630,49.0112,-50.7812,-11.2305,84,1.3417,1.1886,-25.3934,-20.3555,32,0.045,8591,3.6575,52.8903
lg,1624907277487126385,0,0.7603,-0.4641,0.7556,631,-30.8228,14.8315,-8.4229,84,1.3417,1.1886,-25.5636,-21.7011,32,0.035,8393,3.6575,52.4706
lg,1624907277487143528,0,0.3047,-0.47,0.7371,632,-54.1992,60.3638,-16.0522,84,1.3417,1.1886,-23.3495,-23.6028,32,0.039,8274,3.6575,50.9803
lg,1624907277487161153,0,-0.2312,-0.6936,0.7886,633,-49.5605,44.9829,-16.5405,84,1.3407,1.1876,-20.7051,-25.7443,32,0.038,8325,3.6575,49.7838
lg,1624907277487180687,0,-0.2134,-0.4915,0.7129,634,-42.5415,3.54,-12.6343,84,1.3387,1.1866,-21.2891,-28.0446,33,0.034,8373,3.6575,50.6264
lg,1624907277487199591,0,0.0889,-0.5474,0.7729,635,-52.2461,-93.0176,4.2114,84,1.3387,1.1846,-23.7988,-31.2471,33,0.031,8330,3.6575,52.8762
lg,1624907277487218143,0,0.4722,-0.8687,0.8591,636,-26.6113,-114.3799,-0.3052,84,1.3387,1.1836,-27.544,-34.0516,33,0.03,8351,3.6575,55.8386
lg,1624907277487235249,0,0.6575,-0.4812,0.7314,637,-8.1787,-81.4209,1.9531,84,1.3387,1.1836,-30.522,-35.4115,33,0.028,8382,3.6575,58.0302
lg,1624907277487251836,0,0.6536,-0.5537,0.7458,638,-13.2446,-60.9741,2.6245,84,1.3387,1.1836,-31.7808,-36.8328,32,0.027,8471,3.6575,59.4285
lg,1624907277487286623,0,0.5703,-0.6626,0.7827,639,-11.2915,-31.6772,6.2256,84,1.3387,1.1836,-32.5156,-38.0204,32,0.027,8507,3.6575,60.6428
lg,1624907277487305897,0,0.6218,-0.8286,0.8953,640,-7.0801,-18.3105,5.8594,84,1.3387,1.1836,-32.7171,-38.8998,32,0.028,8491,3.6575,61.5043
lg,1624907277844676075,0,0.5181,-0.7217,0.7961,641,43.335,59.9365,-5.9204,84,1.3397,1.1856,-30.6941,-36.2818,32,0.03,25657,3.6575,59.6348
lg,1624907277844713364,0,-0.0156,-0.6887,0.7307,642,89.8438,55.1147,-18.9209,84,1.3417,1.1866,-28.127,-31.9838,32,0.035,11289,3.6575,57.7038
lg,1624907277844734417,0,-0.0171,-0.5784,0.6792,643,95.2759,27.771,-10.6812,84,1.3427,1.1876,-27.379,-28.4418,32,0.026,8186,3.6575,57.7333
lg,1624907277844754859,0,0.1731,-0.6487,0.8179,644,94.4824,-33.5693,-0.3052,84,1.3427,1.1886,-27.8892,-25.4294,32,0.036,7841,3.6575,58.6315
lg,1624907277844774486,0,0.6333,-0.0857,0.4988,645,95.8252,-75.7446,2.5024,84,1.3427,1.1886,-31.5203,-21.8944,32,0.037,7852,3.6575,59.8969
lg,1624907277844794205,0,0.8418,0.1624,0.5203,646,54.5654,-70.2515,3.7231,84,1.3437,1.1896,-35.0475,-20.2318,32,0.036,7960,3.6575,61.1353
lg,1624907277844813183,0,0.8972,-0.3611,0.6648,647,-19.7144,4.8218,1.6479,84,1.3427,1.1896,-35.4224,-21.2682,33,0.036,8917,3.6575,61.2789
lg,1624907277844832087,0,0.3816,-0.3748,0.655,648,-51.3916,68.8477,-9.3384,84,1.3437,1.1886,-32.6864,-22.7354,33,0.038,10403,3.6575,59.8121
lg,1624907277844849990,0,-0.2131,-0.5923,0.7742,649,-54.8096,66.7725,-7.6904,84,1.3427,1.1876,-28.8066,-24.7435,33,0.036,7947,3.6575,58.551
lg,1624907277844867800,0,-0.4114,-0.5728,0.8169,650,-44.8608,-18.6768,6.958,84,1.3417,1.1866,-27.593,-27.2422,33,0.035,7951,3.6575,59.3707
lg,1624907277844885259,0,-0.2278,-0.7766,0.9116,651,-38.3911,-82.5806,8.7891,84,1.3417,1.1856,-28.9125,-30.3449,32,0.034,8000,3.6575,61.7594
lg,1624907277844902958,0,0.522,-0.7415,0.8054,652,-19.8975,-148.5596,14.5874,84,1.3427,1.1856,-33.4785,-33.8503,32,0.03,8005,3.6575,66.2805
lg,1624907277844920842,0,1.0144,-0.4912,0.7378,653,-14.7705,-104.4312,17.334,84,1.3417,1.1846,-37.0618,-36.5399,32,0.03,8110,3.6575,69.9435
lg,1624907277844938023,0,0.9333,-0.5598,0.8289,654,-20.813,-50.0488,16.2354,84,1.3427,1.1856,-38.4691,-38.6167,32,0.03,8176,3.6575,72.0892
lg,1624907277844955592,0,0.5232,-0.6982,0.8962,655,-16.7236,19.9585,17.2729,84,1.3427,1.1856,-36.8726,-39.2651,32,0.031,8118,3.6575,72.0999
lg,1624907277844973180,0,0.4363,-0.8079,0.927,656,-7.0801,18.7988,18.3716,84,1.3427,1.1856,-35.1471,-39.6825,32,0.031,8147,3.6575,72.248
lg,1624907277845020718,0,0.4863,-0.8154,0.9382,657,3.6011,18.6768,18.0054,84,1.3437,1.1866,-33.731,-39.5779,32,0.033,8111,3.6575,72.3319
lg,1624907277845042809,0,0.5286,-0.5889,0.8035,658,23.2544,36.7432,11.9019,84,1.3437,1.1866,-32.0608,-38.1443,32,0.034,8178,3.6575,71.5892
lg,1624907277845062195,0,0.3394,-0.5896,0.7837,659,31.4331,62.0728,2.9297,84,1.3437,1.1876,-29.5052,-35.9969,32,0.029,8204,3.6575,69.9273
lg,1624907277845080672,0,0.0527,-0.7065,0.7629,660,38.6353,67.8711,-1.9531,84,1.3437,1.1876,-26.6709,-33.4265,32,0.035,8185,3.6575,68.2443
lg,1624907277845099409,0,-0.0464,-0.6826,0.7827,661,64.0869,39.6729,-8.3008,84,1.3447,1.1896,-24.409,-30.6742,32,0.034,8157,3.6575,67.1754
lg,1624907277845118869,0,0.0527,-0.6653,0.854,662,76.0498,-16.1743,-0.8545,84,1.3457,1.1896,-24.1552,-28.0869,32,0.025,8217,3.6575,67.6418
lg,1624907277845138978,0,0.4167,-0.312,0.571,663,87.5244,-65.918,0,84,1.3457,1.1906,-26.8267,-25.1712,32,0.035,8193,3.6575,68.951
lg,1624907277845158048,0,0.6567,0.0535,0.5422,664,60.1196,-76.1719,-0.5493,84,1.3457,1.1906,-30.5866,-22.5761,32,0.038,8241,3.6575,69.9245
lg,1624907277845176470,0,0.8652,-0.4346,0.802,665,-19.4092,-22.9492,1.4648,84,1.3457,1.1906,-31.9038,-23.7955,32,0.039,8305,3.6575,70.5159
lg,1624907277845196653,0,0.4338,-0.3738,0.6709,666,-38.9404,48.4009,-7.9346,84,1.3457,1.1906,-30.1788,-24.8989,32,0.04,8371,3.6575,69.352
lg,1624907277845214352,0,-0.1418,-0.6992,0.8145,667,-57.5562,46.5698,-8.1177,84,1.3447,1.1896,-27.301,-27.2591,32,0.037,9360,3.6575,68.402
lg,1624907277845232199,0,-0.1995,-0.6108,0.8025,668,-33.9966,-31.0059,-5.3101,84,1.3447,1.1886,-27.0846,-29.2371,32,0.031,9611,3.6575,69.0274
lg,1624907277845250047,0,-0.0527,-0.7288,0.876,669,-24.292,-64.8804,-1.2817,84,1.3437,1.1876,-28.2225,-31.3184,32,0.027,8407,3.6575,70.6506
lg,1624907277845293711,0,0.3782,-0.7258,0.7673,670,0.9155,-102.1118,0.9155,84,1.3437,1.1876,-31.315,-33.0499,32,0.03,8424,3.6575,73.4391
lg,1624907277845315617,0,0.769,-0.5696,0.78,671,4.5776,-87.8296,2.8687,84,1.3447,1.1876,-34.4334,-34.2959,32,0.032,8357,3.6575,75.9399
lg,1624907277845333724,0,0.6431,-0.575,0.7495,672,4.6997,-53.9551,-0.6104,84,1.3437,1.1876,-34.9541,-34.4611,32,0.035,8612,3.6575,76.4862
lg,1624907278214418237,0,0.2986,-0.6299,0.7927,673,16.8457,5.4932,9.3994,84,1.3447,1.1876,-33.993,-34.0699,32,0.033,25822,3.6575,76.8022
lg,1624907278214461529,0,0.3916,-0.7087,0.7896,674,27.71,-0.2441,4.0894,84,1.3447,1.1876,-33.3754,-33.4016,32,0.031,11114,3.6575,77.1683
lg,1624907278214482787,0,0.1758,-0.6611,0.7512,675,50.354,3.418,-7.5073,84,1.3447,1.1886,-32.5282,-31.5513,32,0.038,8734,3.6575,76.9965
lg,1624907278214502765,0,0.0837,-0.6523,0.752,676,58.8989,-6.897,-10.8643,84,1.3457,1.1896,-32.663,-29.3069,32,0.032,7842,3.6575,77.3208
lg,1624907278214522614,0,0.0154,-0.6064,0.8428,677,69.397,-66.3452,-13.3667,84,1.3457,1.1896,-34.0459,-27.3718,32,0.03,7916,3.6575,78.4599
lg,1624907278214541128,0,0.5684,-0.2236,0.5671,678,44.0674,-125.6104,3.9062,84,1.3457,1.1896,-38.757,-27.1995,32,0.034,7908,3.6575,81.3824
lg,1624907278214559865,0,1.0337,-0.3345,0.6877,679,5.6152,-106.9336,-5.188,84,1.3457,1.1896,-43.1731,-28.5121,32,0.03,8364,3.6575,83.7791
lg,1624907278214577193,0,1.0083,-0.5847,0.8157,680,0.1221,-53.3447,-14.2212,84,1.3457,1.1896,-45.3736,-29.297,32,0.032,8013,3.6575,84.7189
lg,1624907278214595892,0,0.4189,-0.5444,0.74,681,26.7334,36.3159,-26.8555,84,1.3447,1.1886,-43.8056,-26.9817,32,0.035,7974,3.6575,82.6892
lg,1624907278214613072,0,0.0779,-0.6135,0.7532,682,28.8086,21.6675,-14.7705,84,1.3457,1.1886,-41.8955,-25.6446,32,0.035,7983,3.6575,81.9114
lg,1624907278214630326,0,0.1172,-0.6304,0.7637,683,30.8838,-13.6108,-11.7798,84,1.3457,1.1886,-41.3197,-24.9664,32,0.035,7984,3.6575,82.1483
lg,1624907278214648081,0,0.6392,-0.5042,0.7212,684,32.6538,-56.1523,-2.3804,84,1.3447,1.1876,-43.1788,-24.8713,32,0.035,8008,3.6575,83.6008
lg,1624907278214664779,0,0.7937,-0.627,0.8152,685,32.7759,-8.667,-1.5869,84,1.3457,1.1886,-43.3201,-24.1822,32,0.036,9646,3.6575,84.091
lg,1624907278214682237,0,0.4946,-0.4639,0.7988,686,39.7339,42.8467,0.3052,84,1.3457,1.1886,-41.1577,-22.2769,32,0.035,8055,3.6575,83.3898
lg,1624907278214699380,0,0.4001,-0.5728,0.8391,687,36.8042,44.3115,0.8545,84,1.3457,1.1886,-38.7687,-20.8669,32,0.034,8042,3.6575,82.9661
lg,1624907278214734648,0,0.3728,-0.6001,0.8711,688,52.9785,16.6626,-7.4463,84,1.3447,1.1886,-37.5296,-19.0058,32,0.034,12593,3.6575,82.7383
lg,1624907278214753848,0,0.3782,-0.5347,0.833,689,60.1807,13.5498,-9.5215,84,1.3457,1.1896,-36.4897,-16.6207,32,0.033,8082,3.6575,82.4337
lg,1624907278214771491,0,0.3057,-0.5242,0.8601,690,70.8008,6.2256,-10.8032,84,1.3457,1.1906,-35.6453,-14.1394,32,0.039,8148,3.6575,82.2634
lg,1624907278214788819,0,0.3994,-0.4666,0.8291,691,76.7212,-7.6904,-2.0142,84,1.3457,1.1906,-35.4968,-11.7554,32,0.03,8165,3.6575,82.6597
lg,1624907278214805999,0,0.4431,-0.4814,0.8228,692,80.7495,-13.3057,1.77,84,1.3467,1.1906,-35.6489,-9.4675,32,0.021,8127,3.6575,83.3467
lg,1624907278214823568,0,0.4612,-0.4976,0.8379,693,83.6792,-14.5874,1.4648,84,1.3477,1.1916,-35.8802,-7.2338,32,0.038,9088,3.6575,84.1153
lg,1624907278214840748,0,0.4514,-0.5146,0.821,694,92.9565,-17.9443,-0.9155,84,1.3477,1.1916,-36.2792,-4.6332,32,0.04,8209,3.6575,84.8043
lg,1624907278214857687,0,0.5732,0.0037,0.6172,695,78.9185,-28.5645,-1.6479,84,1.3467,1.1916,-37.6682,-1.2981,32,0.041,8204,3.6575,84.6781
lg,1624907278214874886,0,0.7732,-0.0317,0.6833,696,7.3242,-8.7891,9.3384,84,1.3477,1.1926,-38.4245,-1.3504,32,0.043,8283,3.6575,85.1916
lg,1624907278214892084,0,0.7686,-0.2129,0.7754,697,-19.9585,15.2588,10.2539,84,1.3477,1.1916,-38.0271,-2.9585,32,0.044,8274,3.6575,86.0066
lg,1624907278214992013,0,0.4785,-0.2153,0.802,698,-43.2129,55.2979,3.1738,84,1.3487,1.1926,-35.5176,-5.165,32,0.047,8382,3.6575,86.2797
lg,1624907278215030283,0,0.2146,-0.3369,0.8381,699,-76.7822,53.6499,8.3618,84,1.3487,1.1926,-32.5379,-9.0154,32,0.032,8352,3.6575,86.7755
lg,1624907278215050762,0,0.1599,-0.3728,0.7979,700,-90.6982,37.1094,11.7188,84,1.3487,1.1916,-31.0433,-13.9866,32,0.039,8375,3.6575,87.6326
lg,1624907278215072297,0,0.1802,-0.3831,0.8347,701,-111.7554,-3.8452,13.7939,76,1.3477,1.1906,-30.2627,-19.231,32,0.035,8597,3.6619,88.5052
lg,1624907278215091627,0,0.1584,-0.3926,0.8342,702,-127.5635,-20.813,22.4609,76,1.3467,1.1886,-29.8893,-25.2145,32,0.034,8435,3.6619,89.917
lg,1624907278215187367,0,0.1196,-0.9949,1.1936,703,-113.5254,-43.335,13.855,76,1.3457,1.1876,-30.1888,-31.1157,32,0.035,8378,3.6619,91.7009
lg,1624907278215209477,0,0.0393,-1.0476,1.0647,704,-37.5977,-79.9561,-6.3477,76,1.3457,1.1866,-31.9332,-34.1154,32,0.032,11330,3.6619,93.7487
lg,1624907278563281843,0,1.0232,-0.4617,0.8074,705,4.6387,-86.6089,1.0376,76,1.3467,1.1816,-33.6798,-34.7616,32,0.026,25100,3.6619,95.1106
lg,1624907278563319428,0,0.7856,-0.6819,0.8992,706,2.6855,59.6313,13.3667,76,1.3467,1.1866,-30.0857,-33.2355,33,0.024,15315,3.6619,93.1933
lg,1624907278563367169,0,0.4431,-0.4658,0.7175,707,16.5405,109.0698,16.9678,76,1.3467,1.1866,-25.9476,-31.6167,33,0.024,7894,3.6619,91.1746
lg,1624907278563388537,0,0.3457,-0.6121,0.8,708,10.0708,104.9194,14.0381,76,1.3467,1.1866,-21.8084,-30.6956,33,0.025,7914,3.6619,89.4214
lg,1624907278563407830,0,0.2915,-0.6721,0.8005,709,16.8457,104.9194,9.7046,76,1.3467,1.1876,-17.647,-29.7619,33,0.028,7839,3.6619,87.6705
lg,1624907278563426511,0,0.1382,-0.6152,0.7883,710,41.3818,102.2949,-0.9766,76,1.3467,1.1886,-13.718,-27.8751,32,0.035,7837,3.6619,85.6876
lg,1624907278563530480,0,-0.1121,-0.6348,0.7336,711,66.1011,80.0781,-13.1836,76,1.3487,1.1896,-10.3311,-25.3476,32,0.033,7847,3.6619,83.8764
lg,1624907278563551959,0,-0.1311,-0.4861,0.6931,712,85.5103,3.9673,-11.0474,76,1.3487,1.1906,-9.6273,-22.2367,32,0.029,9602,3.6619,83.4908
lg,1624907278563571011,0,0.1897,-0.4312,0.7144,713,85.4492,-34.9121,-6.897,76,1.3497,1.1916,-12.2203,-19.4451,32,0.029,7924,3.6619,84.2094
lg,1624907278563589655,0,0.3811,-0.4551,0.7295,714,78.3081,-82.3364,-6.4697,76,1.3497,1.1916,-15.8835,-16.9751,33,0.034,7925,3.6619,85.107
lg,1624907278563607595,0,0.6492,-0.3909,0.72,715,78.2471,-72.8149,-11.1694,76,1.3497,1.1916,-19.671,-14.3325,33,0.041,8227,3.6619,85.563
lg,1624907278563626017,0,0.7991,0.1458,0.605,716,26.4893,-38.5742,-10.7422,76,1.3507,1.1926,-22.526,-12.545,33,0.042,7979,3.6619,85.2402
lg,1624907278563643956,0,0.8127,-0.0137,0.6428,717,-20.9961,-5.249,-7.0801,76,1.3507,1.1926,-23.9016,-12.9811,33,0.038,7993,3.6619,84.8766
lg,1624907278563661433,0,0.5359,-0.2346,0.7173,718,-81.1768,42.3584,-12.6343,76,1.3507,1.1926,-22.8409,-16.0027,32,0.034,8053,3.6619,83.965
lg,1624907278563679539,0,0.0481,-0.6021,0.8833,719,-104.8584,49.3164,-18.1274,76,1.3497,1.1916,-20.4468,-20.4112,32,0.038,8039,3.6619,82.8269
lg,1624907278563698406,0,-0.1421,-0.6213,0.8833,720,-97.168,33.2642,-15.1367,76,1.3487,1.1896,-18.4067,-24.4944,32,0.034,8085,3.6619,81.8671
lg,1624907278563716364,0,-0.2229,-0.6296,0.9626,721,-90.1489,-31.4331,1.2207,76,1.3477,1.1876,-18.3931,-28.6246,32,0.035,9415,3.6619,82.5774
lg,1624907278563733600,0,0.0291,-1.0308,0.97,722,-37.2925,-123.9014,-8.8501,76,1.3477,1.1886,-22.1875,-31.6576,32,0.033,9815,3.6619,85.1319
lg,1624907278563751354,0,0.707,-0.6018,0.8438,723,-11.5356,-175.9033,1.0376,76,1.3477,1.1876,-28.5082,-34.0808,32,0.034,8189,3.6619,89.4642
lg,1624907278563768793,0,1.2104,-0.3918,0.8088,724,-11.4136,-166.0767,0.6104,76,1.3487,1.1876,-33.3483,-36.3079,32,0.031,8380,3.6619,92.7525
lg,1624907278563803339,0,1.2122,-0.4683,0.8628,725,-27.771,-54.4434,4.0283,76,1.3477,1.1876,-35.6603,-38.1723,33,0.029,8259,3.6619,94.3909
lg,1624907278563821927,0,0.8269,-0.6465,0.9031,726,-30.7617,49.8047,8.4839,76,1.3487,1.1886,-33.9319,-38.6114,33,0.03,8321,3.6619,93.1355
lg,1624907278563840052,0,0.582,-0.6946,0.8674,727,-17.0898,82.8857,9.7046,76,1.3487,1.1886,-30.8541,-38.1701,33,0.03,8255,3.6619,91.044
lg,1624907278563857306,0,0.5688,-0.6421,0.8528,728,-10.498,85.2051,7.1411,76,1.3487,1.1886,-27.9109,-37.5298,33,0.031,8340,3.6619,88.8906
lg,1624907278563874356,0,0.5398,-0.6184,0.7849,729,5.3711,100.1587,-4.6387,76,1.3487,1.1886,-24.845,-36.0671,32,0.03,8334,3.6619,86.0451
lg,1624907278563891055,0,0.2234,-0.5317,0.7405,730,37.5366,127.8687,-14.3433,76,1.3487,1.1896,-20.5432,-33.1357,32,0.036,8319,3.6619,82.38
lg,1624907278563990928,0,-0.2324,-0.646,0.6919,731,44.9219,129.8828,-20.0195,76,1.3497,1.1906,-16.1127,-30.1455,32,0.031,8308,3.6619,79.2345
lg,1624907278564012407,0,-0.3462,-0.554,0.7065,732,66.04,63.1104,-25.5737,76,1.3507,1.1916,-13.0358,-27.2685,32,0.023,8348,3.6619,77.1733
lg,1624907278564029940,0,-0.0286,-0.6431,0.814,733,65.3076,-49.6826,-10.7422,76,1.3517,1.1926,-14.4359,-25.2283,32,0.039,8422,3.6619,77.796
lg,1624907278564047713,0,0.5466,-0.2356,0.5674,734,77.0874,-114.9292,-9.1553,76,1.3517,1.1936,-19.7961,-22.5289,32,0.038,8924,3.6619,79.348
lg,1624907278564122400,0,1.0984,0.0078,0.5613,735,46.5088,-114.9902,-8.606,76,1.3527,1.1936,-24.2241,-22.8614,32,0.041,8442,3.6619,80.3631
lg,1624907278564142842,0,1.0322,-0.3638,0.7146,736,-42.7856,-12.0239,-3.3569,76,1.3527,1.1936,-25.7721,-24.7125,32,0.038,8484,3.6619,80.5035
lg,1624907278917102203,0,-0.3464,-0.5232,0.7139,737,-70.0073,4.8828,0.7935,76,1.3487,1.1896,-23.932,-27.9148,32,0.035,25140,3.6619,80.5918
lg,1624907278917140547,0,0.1584,-0.9146,0.9133,738,-39.2456,-108.8257,0.9766,76,1.3477,1.1876,-27.0444,-31.2387,32,0.033,14887,3.6619,83.2956
lg,1624907278917162027,0,0.5232,-0.657,0.8018,739,-21.0571,-114.7461,0.8545,76,1.3487,1.1876,-31.1605,-33.5524,32,0.029,8699,3.6619,86.7619
lg,1624907278917181931,0,0.7273,-0.6289,0.7825,740,-8.728,-125.5493,5.0049,76,1.3477,1.1866,-35.3234,-36.0837,32,0.03,7842,3.6619,90.5042
lg,1624907278917201669,0,0.8157,-0.8169,0.8452,741,2.8076,-65.3687,3.8452,76,1.3477,1.1866,-37.287,-37.5245,32,0.03,7899,3.6619,92.7905
lg,1624907278917220794,0,0.7358,-0.7471,0.8186,742,15.9912,-30.7617,6.0425,76,1.3477,1.1866,-36.8448,-37.1887,32,0.03,7901,3.6619,93.4652
lg,1624907278917263624,0,0.509,-0.938,0.959,743,35.4614,9.8267,11.1694,76,1.3487,1.1876,-35.5187,-35.1832,32,0.029,8170,3.6619,93.7203
lg,1624907278917283547,0,0.488,-0.5334,0.707,744,66.1011,14.2212,18.0664,76,1.3487,1.1876,-34.3765,-32.8168,32,0.03,8003,3.6619,94.1079
lg,1624907278917302709,0,0.5007,-0.9253,0.8687,745,80.2612,21.0571,10.9253,76,1.3487,1.1876,-32.9644,-30.1847,32,0.031,7928,3.6619,94.3823
lg,1624907278917320112,0,0.3726,-0.9756,0.8584,746,107.9102,32.5317,5.0049,76,1.3497,1.1886,-30.8197,-26.3374,33,0.031,7954,3.6619,94.2871
lg,1624907278917337366,0,-0.0166,-0.8501,0.8853,747,166.4429,35.9497,1.5259,76,1.3507,1.1896,-28.3655,-20.2303,33,0.03,7978,3.6619,94.1687
lg,1624907278917354861,0,-0.1089,-0.7476,0.7488,748,211.731,-42.2974,6.897,76,1.3517,1.1906,-28.7445,-13.3225,33,0.037,7970,3.6619,95.621
lg,1624907278917372189,0,0.1338,-0.6328,0.6897,749,225.4028,-98.6328,18.9209,76,1.3517,1.1906,-32.6112,-6.1845,33,0.027,7985,3.6619,97.7387
lg,1624907278917389610,0,0.7688,-0.5415,0.6775,750,241.9434,-138.7329,39.4897,76,1.3517,1.1906,-38.5567,1.038,32,0.033,8040,3.6619,100.5477
lg,1624907278917406438,0,1.1919,-0.5115,0.6326,751,262.6953,-67.0776,41.0156,76,1.3517,1.1916,-42.2262,9.2692,32,0.035,8059,3.6619,102.9677
lg,1624907278917424174,0,1.2031,-0.3311,0.5837,752,264.0991,0.1221,40.9546,76,1.3517,1.1916,-42.06,17.6948,32,0.039,8155,3.6619,105.0435
lg,1624907278917440964,0,0.863,-0.2605,0.5752,753,243.103,61.3403,5.8594,76,1.3517,1.1916,-40.6005,25.2189,32,0.039,8139,3.6619,107.2824
lg,1624907278917457885,0,0.5955,-0.417,0.7112,754,228.4546,95.8862,2.8687,76,1.3527,1.1906,-37.6703,30.8123,32,0.044,8105,3.6619,111.008
lg,1624907278917474713,0,0.4709,-0.4692,0.7629,755,231.6895,95.2759,1.2817,76,1.3527,1.1906,-34.926,36.4845,32,0.039,8173,3.6619,115.0958
lg,1624907278917491540,0,0.4705,-0.4119,0.7461,756,256.0425,90.1489,3.3569,76,1.3527,1.1906,-32.743,42.905,32,0.04,12072,3.6619,119.2215
lg,1624907278917508109,0,0.4229,-0.2974,0.6892,757,271.6675,95.1538,1.709,76,1.3537,1.1906,-30.7572,49.8757,32,0.041,8209,3.6619,123.642
lg,1624907278917544415,0,0.3872,-0.2405,0.675,758,277.8931,96.6187,1.9531,76,1.3537,1.1896,-29.1685,56.9868,32,0.048,8372,3.6619,128.3468
lg,1624907278917563337,0,0.1897,-0.1377,0.6423,759,282.5317,100.2197,2.2583,76,1.3537,1.1896,-27.5299,64.0231,32,0.046,9868,3.6619,133.4801
lg,1624907278917580387,0,-0.0083,0.0161,0.6338,760,280.7617,76.9043,3.2959,76,1.3537,1.1896,-26.058,71.4702,32,0.045,8256,3.6619,137.8046
lg,1624907278917597196,0,-0.0195,0.335,0.5376,761,263.2446,25.1465,3.3569,76,1.3547,1.1896,-25.1606,79.8385,33,0.044,9295,3.6619,139.6954
lg,1624907278917613764,0,0.1812,0.8516,0.4644,762,191.1011,-22.4609,-8.4229,76,1.3537,1.1886,-24.4185,87.0821,33,0.048,8306,3.6619,139.0459
lg,1624907278917630815,0,0.3142,1.0171,0.4885,763,131.0425,-38.9404,-18.8599,76,1.3517,1.1876,-23.4073,92.0648,33,0.047,8432,3.6619,137.7435
lg,1624907278917647846,0,0.6074,0.95,0.7129,764,-7.4463,-37.4146,-32.4707,76,1.3487,1.1866,-22.3882,90.985,32,0.048,8389,3.6619,136.724
lg,1624907278917664952,0,0.6948,0.4963,1.1072,765,-109.0698,10.2539,-40.4663,76,1.3457,1.1856,-21.473,84.4992,32,0.036,8356,3.6619,137.9029
lg,1624907278917681391,0,0.4626,0.2195,1.1917,766,-130.9204,47.3633,-40.5884,76,1.3417,1.1846,-19.7423,75.561,32,0.039,8459,3.6619,141.8793
lg,1624907278917698033,0,0.2605,0.1895,1.1855,767,-148.5596,106.7505,-46.0205,76,1.3397,1.1846,-16.7387,66.3506,32,0.027,8444,3.6619,146.2383
lg,1624907278917715306,0,-0.127,0.0718,1.1738,768,-163.7573,125.7935,-53.2227,76,1.3377,1.1846,-11.9393,56.8877,32,0.037,8497,3.6619,150.3153
lg,1624907279283172690,0,-0.5808,-0.083,1.1123,769,-149.9023,17.9443,-55.481,76,1.3327,1.1846,-9.5729,49.7661,32,0.037,25351,3.6619,148.4213
lg,1624907279283223543,0,-0.2961,-0.1003,1.0461,770,-131.3477,-95.7642,-52.9175,76,1.3327,1.1846,-9.8219,43.4339,33,0.031,10338,3.6619,144.3868
lg,1624907279283255920,0,0.0256,-0.0334,0.9961,771,-120.2393,-127.9297,-57.0068,76,1.3317,1.1846,-11.9635,37.9691,33,0.03,7942,3.6619,139.5061
lg,1624907279283287277,0,0.3005,-0.0859,1.0212,772,-118.8965,-130.8594,-61.8286,76,1.3317,1.1846,-14.8721,33.0356,33,0.034,7855,3.6619,134.5158
lg,1624907279283320283,0,0.4082,-0.1367,1.0315,773,-112.0605,-118.4692,-72.2046,76,1.3296,1.1846,-17.814,28.5646,33,0.034,7929,3.6619,129.7949
lg,1624907279283380328,0,0.5161,-0.238,1.062,774,-95.2759,-71.5942,-83.4961,76,1.3296,1.1846,-19.2972,24.7648,33,0.035,7943,3.6619,125.7511
lg,1624907279283411759,0,0.418,-0.2793,1.0452,775,-72.5708,-18.3105,-87.6465,76,1.3276,1.1846,-18.805,21.6469,33,0.035,8118,3.6619,122.5255
lg,1624907279283485927,0,0.2219,-0.2593,0.9653,776,-58.0444,13.0615,-85.5713,76,1.3256,1.1846,-17.0112,18.9188,33,0.034,10922,3.6619,119.796
lg,1624907279283519396,0,0.2112,-0.2175,0.9194,777,-54.9927,15.4419,-82.7637,76,1.3216,1.1826,-15.3593,16.3593,32,0.034,7907,3.6619,117.0705
lg,1624907279283548325,0,0.2104,-0.2249,0.854,778,-54.0771,16.1133,-74.7681,76,1.3196,1.1826,-13.9601,13.7332,32,0.04,8035,3.6619,114.5768
lg,1624907279283576828,0,0.1958,-0.2402,0.8193,779,-52.063,18.4326,-71.106,76,1.3166,1.1816,-12.5928,11.1177,32,0.038,7962,3.6619,112.1694
lg,1624907279283605294,0,0.1367,-0.2505,0.7908,780,-46.875,17.8833,-65.4297,76,1.3146,1.1816,-11.3657,8.6709,32,0.04,8143,3.6619,109.9015
lg,1624907279283633390,0,0.0898,-0.2498,0.7427,781,-40.8325,12.4512,-62.6831,76,1.3126,1.1806,-10.3962,6.4576,33,0.042,7990,3.6619,107.6446
lg,1624907279283683909,0,0.0598,-0.262,0.7246,782,-36.2549,5.4932,-62.5,76,1.3116,1.1806,-9.7413,4.4393,33,0.04,8037,3.6619,105.3198
lg,1624907279283713951,0,0.0605,-0.2544,0.7209,783,-27.832,-13.0005,-64.4531,76,1.3116,1.1806,-9.9169,2.8531,33,0.04,8182,3.6619,102.8316
lg,1624907279283741027,0,0.1292,-0.1638,0.6821,784,-18.8599,-36.377,-69.6411,76,1.3106,1.1806,-11.2802,1.9937,33,0.04,8042,3.6619,100.0496
lg,1624907279283767139,0,0.231,-0.1294,0.717,785,-20.3857,-46.5698,-75.8057,76,1.3096,1.1806,-13.7427,1.4307,32,0.039,8094,3.6619,96.6592
lg,1624907279283793196,0,0.2654,-0.1804,0.7712,786,-19.5923,-70.8008,-94.2383,76,1.3086,1.1796,-16.6801,1.1303,32,0.041,8099,3.6619,92.8251
lg,1624907279283819123,0,0.3359,-0.187,0.7952,787,-9.7656,-93.4448,-118.2251,76,1.3066,1.1796,-20.5193,1.816,32,0.04,8110,3.6619,87.8968
lg,1624907279283845216,0,0.3457,-0.1804,0.8347,788,-4.0283,-102.2339,-130.127,76,1.3046,1.1796,-24.8139,3.7832,32,0.038,8112,3.6619,81.8075
lg,1624907279283871773,0,0.3621,-0.1602,0.8196,789,8.5449,-120.0562,-147.2168,76,1.3016,1.1796,-29.0107,6.7261,33,0.038,8168,3.6619,74.9955
lg,1624907279284026520,0,0.3962,-0.1125,0.8086,790,20.3247,-129.2725,-155.1514,76,1.2996,1.1796,-33.0469,11.1031,33,0.036,8242,3.6619,67.2055
lg,1624907279284063492,0,0.3975,-0.0806,0.7827,791,27.71,-130.9204,-157.5317,76,1.2966,1.1796,-36.4097,16.5931,33,0.035,8292,3.6619,58.6399
lg,1624907279284095869,0,0.4092,-0.0754,0.7751,792,30.5786,-129.7607,-155.3345,76,1.2946,1.1796,-38.9433,22.6849,32,0.035,8287,3.6619,49.6402
lg,1624907279284126577,0,0.4526,-0.0764,0.7717,793,36.1938,-127.9297,-147.7051,76,1.2926,1.1796,-40.766,29.2134,32,0.033,8313,3.6619,40.5726
lg,1624907279284155840,0,0.5083,-0.0825,0.8555,794,43.396,-126.0376,-141.7236,76,1.2916,1.1796,-41.7944,36.037,32,0.035,8364,3.6619,31.5751
lg,1624907279284290256,0,0.6477,-0.0825,0.8628,795,56.4575,-134.4604,-145.1416,76,1.2906,1.1786,-42.3226,43.8104,32,0.033,8379,3.6619,21.9967
lg,1624907279284317832,0,0.8027,-0.1455,0.9526,796,70.7397,-125.9155,-149.1089,76,1.2886,1.1796,-41.6852,51.7688,32,0.035,10238,3.6619,12.8062
lg,1624907279284343444,0,0.8691,-0.2119,1.052,797,83.6182,-113.9526,-151.4282,76,1.2876,1.1796,-39.4008,59.4711,32,0.034,8483,3.6619,5.239
lg,1624907279284369668,0,0.8743,-0.2021,1.0649,798,114.1357,-83.8623,-157.4097,76,1.2866,1.1796,-36.0994,66.4847,32,0.036,8452,3.6619,-0.8479
lg,1624907279284397652,0,0.8645,-0.2246,1.1372,799,144.3481,-65.3687,-161.5601,76,1.2856,1.1796,-31.8712,73.2882,32,0.037,8510,3.6619,-5.2486
lg,1624907279284424487,0,0.9177,-0.2292,1.2227,800,179.1382,-50.1709,-156.5552,76,1.2846,1.1796,-27.3537,80.3086,33,0.037,8542,3.6619,-8.0719
lg,1624907279637213456,0,1.0781,-0.042,1.123,801,262.7563,-11.5967,-151.6724,76,1.2766,1.1806,-22.7552,89.6571,33,0.039,25355,3.6619,-8.4913
lg,1624907279637256006,0,1.022,0.2917,0.7937,802,298.645,50.5371,-133.1177,76,1.2806,1.1796,-19.1073,99.2343,32,0.041,13815,3.6619,-5.4437
lg,1624907279637278208,0,0.9329,0.4514,0.6216,803,303.2227,90.1489,-111.2061,76,1.2816,1.1796,-17.1657,108.5136,32,0.04,8100,3.6619,-0.3223
lg,1624907279637299317,0,1.0034,0.5933,0.4302,804,301.1475,100.8911,-100.4028,76,1.2826,1.1796,-16.9368,117.614,32,0.04,7878,3.6619,5.3312
lg,1624907279637318832,0,0.9463,0.7231,0.4141,805,286.0107,115.7837,-89.1724,76,1.2836,1.1796,-17.7788,125.9163,32,0.038,7936,3.6619,11.6836
lg,1624907279637338439,0,0.876,0.8203,0.3242,806,261.1084,170.6543,-62.3169,76,1.2846,1.1786,-21.444,132.4768,32,0.035,7903,3.6619,19.3022
lg,1624907279637384752,0,0.6799,0.8611,0.3237,807,226.8066,173.645,-66.7114,76,1.2856,1.1796,-25.4018,136.8093,32,0.031,8548,3.6619,27.3146
lg,1624907279637405934,0,0.6279,0.855,0.3862,808,207.0312,167.7246,-65.3076,76,1.2876,1.1796,-29.5663,139.721,32,0.031,8397,3.6619,35.3657
lg,1624907279637424022,0,0.5803,0.8076,0.491,809,174.4385,145.4468,-65.2466,76,1.2876,1.1796,-33.2725,140.9285,33,0.033,8190,3.6619,43.1614
lg,1624907279637441406,0,0.5151,0.8191,0.5056,810,152.9541,132.1411,-62.3169,76,1.2886,1.1796,-36.5604,140.9013,33,0.033,8030,3.6619,50.9186
lg,1624907279637458381,0,0.4819,0.8579,0.5134,811,140.3809,132.5073,-57.373,76,1.2886,1.1786,-39.7888,139.8337,33,0.031,8039,3.6619,59.0199
lg,1624907279637475061,0,0.3735,0.854,0.6035,812,113.6475,118.2251,-48.8892,76,1.2886,1.1786,-42.491,137.4631,33,0.029,8041,3.6542,66.9624
lg,1624907279637492222,0,0.3306,0.8271,0.7319,813,95.459,99.1821,-36.8042,90,1.2896,1.1786,-44.7442,134.5626,33,0.026,8761,3.6542,74.3047
lg,1624907279637510625,0,0.3423,0.8196,0.79,814,88.7451,79.0405,-24.231,90,1.2886,1.1796,-46.598,131.8883,33,0.026,8154,3.6542,80.788
lg,1624907279637529009,0,0.3259,0.8335,0.8103,815,85.9985,73.1812,-18.4326,90,1.2896,1.1786,-48.2429,129.0827,33,0.027,8092,3.6542,87.1774
lg,1624907279637562960,0,0.3196,0.8269,0.8152,816,79.7729,64.5142,-7.1411,90,1.2906,1.1786,-49.7817,126.33,33,0.026,8139,3.6542,93.0786
lg,1624907279637583235,0,0.2979,0.811,0.8196,817,73.2422,56.9458,5.4932,90,1.2906,1.1786,-51.3526,123.6458,32,0.027,8179,3.6542,98.4783
lg,1624907279637601045,0,0.2822,0.7896,0.7917,818,70.7397,53.1616,9.9487,90,1.2916,1.1796,-52.7996,120.9729,32,0.027,8173,3.6542,103.4578
lg,1624907279637618891,0,0.2607,0.7954,0.7468,819,60.73,47.0581,19.6533,90,1.2926,1.1786,-54.2053,118.0668,32,0.027,8216,3.6542,108.4475
lg,1624907279637637350,0,0.312,0.8442,0.7764,820,47.0581,47.5464,20.9961,90,1.2926,1.1796,-55.5042,114.3884,32,0.025,8253,3.6542,113.7188
lg,1624907279637655123,0,0.1572,0.9231,0.7866,821,26.3672,70.7397,16.6016,90,1.2946,1.1796,-56.4434,108.1972,32,0.025,8387,3.6542,121.0077
lg,1624907279637693355,0,0.0791,0.9199,0.7749,822,14.7705,73.5474,18.4937,90,1.2946,1.1796,-56.9214,101.1663,32,0.024,8270,3.6542,128.7823
lg,1624907279637712722,0,0.0713,0.8535,0.7827,823,-4.9438,56.6406,17.7002,90,1.2956,1.1796,-56.8037,94.3354,32,0.023,8308,3.6542,135.4743
lg,1624907279638469163,0,0.1445,0.7549,0.7463,824,-19.5312,53.833,4.6387,90,1.2956,1.1806,-55.885,87.2715,32,0.022,12663,3.6542,141.8807
lg,1624907279638495257,0,0.1443,0.738,0.7244,825,-22.1558,55.2368,-0.4272,90,1.2966,1.1806,-54.3735,80.6451,32,0.022,8510,3.6542,147.8408
lg,1624907279638516384,0,0.1162,0.6638,0.699,826,-25.1465,51.3306,-9.8877,90,1.2956,1.1806,-52.2179,74.8218,32,0.02,8408,3.6542,152.8599
lg,1624907279638537122,0,0.1145,0.645,0.6348,827,-21.5454,39.3066,-16.9067,90,1.2966,1.1806,-49.7147,70.6258,32,0.02,8461,3.6542,156.2824
lg,1624907279638558045,0,0.1116,0.6558,0.613,828,-18.7988,23.4375,-19.165,90,1.2966,1.1806,-47.2669,67.8354,32,0.019,8407,3.6542,158.2233
lg,1624907279638578357,0,0.1294,0.6428,0.6299,829,-18.2495,16.2964,-19.104,90,1.2966,1.1806,-45.1603,65.7973,32,0.02,8621,3.6542,159.3146
lg,1624907279638597927,0,0.1675,0.6489,0.657,830,-13.1836,7.9956,-15.8691,90,1.2976,1.1806,-43.2518,64.1214,32,0.02,8472,3.6542,160.1415
lg,1624907279638618127,0,0.1843,0.6409,0.6758,831,-7.2632,7.2021,-10.437,90,1.2976,1.1806,-41.636,62.695,32,0.02,8489,3.6542,160.9688
lg,1624907279638637438,0,0.1626,0.6707,0.7085,832,2.1973,7.6904,-3.9062,90,1.2976,1.1806,-40.2242,61.6224,32,0.02,8870,3.6542,161.8857
lg,1624907279995147643,0,0.1023,0.7085,0.6885,833,17.0288,-12.3291,6.4087,90,1.2976,1.1806,-39.5241,61.7049,33,0.018,26036,3.6542,162.0336
lg,1624907279995198866,0,0.1843,0.7131,0.7395,834,16.6626,-20.6299,7.2632,90,1.2976,1.1806,-39.1084,61.9918,33,0.018,8801,3.6542,161.746
lg,1624907279995220253,0,0.1997,0.7236,0.7468,835,14.4653,-22.2778,5.0659,90,1.2986,1.1806,-38.6885,62.2291,33,0.017,7887,3.6542,161.4236
lg,1624907279995240490,0,0.2136,0.729,0.762,836,12.2681,-21.2402,2.9297,90,1.2976,1.1806,-38.2105,62.3533,32,0.016,7958,3.6542,161.108
lg,1624907279995277185,0,0.2163,0.7302,0.7693,837,10.437,-20.813,1.709,90,1.2986,1.1806,-37.6568,62.2778,32,0.017,7897,3.6542,160.793
lg,1624907279995297571,0,0.2368,0.7151,0.7737,838,6.3477,-18.2495,-0.2441,90,1.2986,1.1806,-37.0979,62.0795,32,0.015,9118,3.6542,160.5536
lg,1624907279995316140,0,0.2578,0.7073,0.7717,839,4.3945,-17.7612,-1.6479,90,1.2986,1.1806,-36.5443,61.8088,32,0.019,8492,3.6542,160.2972
lg,1624907279995334432,0,0.2722,0.7144,0.7419,840,2.3193,-14.5264,-2.5024,90,1.2986,1.1816,-35.9452,61.4591,33,0.014,7988,3.6542,160.1106
lg,1624907279995353557,0,0.2732,0.7051,0.7393,841,0.1221,-13.6108,-2.8076,90,1.2986,1.1816,-35.3987,60.8824,33,0.015,7981,3.6542,160.0209
lg,1624907279995372775,0,0.2878,0.6819,0.7349,842,-1.9531,-13.6719,-1.709,90,1.2986,1.1816,-34.9065,60.323,33,0.015,7999,3.6542,159.8822
lg,1624907279995395533,0,0.3191,0.6907,0.7273,843,-2.3804,-9.7656,-0.2441,90,1.2976,1.1816,-34.4631,59.69,33,0.015,8022,3.6542,159.9068
lg,1624907279995416901,0,0.3093,0.6899,0.719,844,-1.77,-6.958,0.1221,90,1.2986,1.1806,-33.9261,58.9558,32,0.017,7934,3.6542,160.1815
lg,1624907279995439344,0,0.2742,0.6577,0.7375,845,-1.0376,-2.8076,1.5869,90,1.2976,1.1806,-33.3258,58.1763,32,0.016,7990,3.6542,160.5388
lg,1624907279995462955,0,0.2432,0.6704,0.7263,846,-0.6104,-2.4414,2.8076,90,1.2986,1.1806,-32.7513,57.4521,32,0.014,8081,3.6542,160.9013
lg,1624907279995484730,0,0.2507,0.6941,0.7417,847,-0.8545,-2.1973,3.2349,90,1.2976,1.1806,-32.2022,56.7589,32,0.017,8076,3.6542,161.252
lg,1624907279995506061,0,0.2488,0.688,0.7209,848,1.4038,-1.709,2.8076,90,1.2986,1.1806,-31.6486,56.2099,33,0.015,8058,3.6542,161.5765
lg,1624907279995527707,0,0.2361,0.7002,0.7478,849,1.3428,-1.8311,2.2583,90,1.2986,1.1806,-31.0405,55.6394,33,0.014,8280,3.6542,161.893
lg,1624907279995547834,0,0.2207,0.7,0.7271,850,2.2583,-2.3193,0.7935,90,1.2986,1.1806,-30.4085,55.2262,33,0.017,10823,3.6542,162.1007
lg,1624907279995569146,0,0.2317,0.7063,0.7329,851,1.9531,-1.8921,-0.3052,90,1.2986,1.1816,-29.7712,54.8296,32,0.018,8715,3.6542,162.2798
lg,1624907279995647094,0,0.2021,0.7004,0.7283,852,1.2817,-3.1128,-0.7935,90,1.2986,1.1816,-29.1124,54.4498,32,0.016,8104,3.6542,162.388
lg,1624907279995673725,0,0.1995,0.6917,0.7273,853,0.1221,-5.188,-0.4883,90,1.2986,1.1816,-28.534,54.0605,32,0.017,8112,3.6542,162.4205
lg,1624907279995692610,0,0.2053,0.6799,0.7295,854,-0.2441,-6.3477,-0.1831,90,1.2986,1.1806,-28.0117,53.6316,32,0.015,8098,3.6542,162.4346
lg,1624907279995711420,0,0.2031,0.6704,0.7393,855,-0.6104,-7.8125,1.0986,90,1.2986,1.1816,-27.6018,53.2147,33,0.018,8119,3.6542,162.4182
lg,1624907279995729415,0,0.2244,0.6755,0.7334,856,-0.2441,-9.5215,1.77,90,1.2986,1.1816,-27.3129,52.8702,33,0.014,8219,3.6542,162.3391
lg,1624907279995746150,0,0.2073,0.6702,0.7395,857,0.4272,-10.498,2.4414,90,1.2986,1.1816,-27.0819,52.5771,33,0.016,8282,3.6542,162.2492
lg,1624907279995764201,0,0.2273,0.6746,0.7314,858,1.1597,-11.2305,3.3569,90,1.2986,1.1806,-26.912,52.3233,33,0.015,8300,3.6542,162.1395
lg,1624907279995783011,0,0.2363,0.6853,0.7332,859,2.2583,-11.4746,3.1128,90,1.2986,1.1806,-26.7607,52.1468,32,0.015,8368,3.6542,162.0028
lg,1624907279995801377,0,0.2402,0.6697,0.7297,860,3.9062,-13.3667,4.2725,90,1.2986,1.1816,-26.7145,52.0368,32,0.012,8364,3.6542,161.8379
lg,1624907279995819187,0,0.2334,0.6748,0.729,861,4.1504,-13.1226,4.0894,90,1.2986,1.1816,-26.6421,51.9488,32,0.01,8567,3.6542,161.6707
lg,1624907279995836978,0,0.2517,0.6814,0.7375,862,4.8218,-12.6343,4.0283,90,1.2996,1.1816,-26.5914,51.8828,32,0.009,8431,3.6542,161.5185
lg,1624907279995854435,0,0.2461,0.6904,0.7466,863,4.2114,-11.4746,3.1738,90,1.2986,1.1816,-26.4694,51.7874,33,0.014,8457,3.6542,161.3824
lg,1624907279995873320,0,0.2458,0.6819,0.7488,864,4.1504,-11.4136,3.0518,90,1.2986,1.1816,-26.3817,51.7128,33,0.015,8467,3.6542,161.2105
lg,1624907280347944134,0,0.2507,0.6868,0.7412,865,4.5166,-12.3901,3.3569,90,1.2986,1.1806,-26.309,51.6506,32,0.012,25392,3.6542,161.0431
lg,1624907280347986535,0,0.2693,0.6929,0.7368,866,4.4556,-12.7563,3.2959,90,1.2986,1.1806,-26.2829,51.6141,32,0.012,14331,3.6542,160.8515
lg,1624907280348033607,0,0.2695,0.6909,0.7532,867,5.4321,-12.085,2.8076,90,1.2986,1.1806,-26.2226,51.5832,32,0.012,12440,3.6542,160.6829
