name,time,activity,ax,ay,az,batch_val,gx,gy,gz,ibat,index,middle,pitch,roll,temp,thumb,ts,vbat,yaw
lg,1624908704326268242,0,0.6309,-0.0381,0.8005,1,-27.4658,-28.9307,-29.8462,63,1.3286,1.1416,-53.7823,-2.8224,32,0.035,18881,3.5783,58.348
lg,1624908704326312964,0,0.6628,-0.0469,0.7866,2,-26.8555,-30.2124,-29.9072,63,1.3286,1.1416,-54.4806,-2.3389,32,0.033,7953,3.5783,56.4171
lg,1624908704326333205,0,0.6953,-0.043,0.7656,3,-27.771,-29.6631,-29.8462,63,1.3276,1.1416,-55.2016,-1.8505,32,0.033,7381,3.5783,54.447
lg,1624908704326353112,0,0.0723,-0.0293,0.3708,4,59.8755,4.8828,-40.3442,92,1.3377,1.1456,-53.4212,2.5216,32,0.03,14297,3.5057,51.9183
lg,1624908704326371779,0,0.2236,-0.3232,0.4216,5,10.5591,-28.6255,-4.4556,92,1.3377,1.1466,-53.7654,0.9699,32,0.031,7621,3.5057,53.387
lg,1624908704326390241,0,0.5176,-0.3838,0.5435,6,-10.6812,-41.1987,12.7563,92,1.3387,1.1466,-55.0159,-2.002,32,0.032,7332,3.5057,55.7663
lg,1624908704326408519,0,0.9436,-0.874,0.7966,7,-18.1274,-7.2632,10.8032,92,1.3387,1.1476,-55.0245,-5.5802,32,0.033,7356,3.5057,58.385
lg,1624908704326427315,0,0.9253,-0.7942,0.7468,8,-0.7324,35.8276,-1.5869,92,1.3397,1.1486,-52.6202,-7.3128,32,0.034,7401,3.5057,59.6587
lg,1624908704326445537,0,0.4307,-0.71,0.7224,9,30.6396,85.5103,-19.4092,92,1.3407,1.1506,-48.5628,-6.644,32,0.034,8357,3.5057,59.3866
lg,1624908704326463815,0,0.2483,-0.7173,0.7996,10,39.4897,76.9043,-24.5361,92,1.3417,1.1516,-44.6181,-5.5616,32,0.035,9020,3.5057,58.9054
lg,1624908704326482056,0,0.1304,-0.8125,0.8403,11,46.6919,65.0635,-30.1514,92,1.3437,1.1526,-41.48,-3.7648,32,0.036,7453,3.5057,58.2408
lg,1624908704326499315,0,0.0959,-0.7751,0.7383,12,73.4253,47.8516,-36.377,92,1.3457,1.1536,-38.7119,-1.5594,32,0.034,7554,3.5057,57.5849
lg,1624908704326516704,0,0.0161,-0.6372,0.7104,13,74.585,4.5776,-26.123,92,1.3467,1.1546,-37.5007,0.3521,32,0.034,7505,3.5057,57.4542
lg,1624908704326534222,0,0.1499,-0.5935,0.6863,14,65.1245,-17.6392,-12.4512,92,1.3477,1.1556,-37.4652,1.4697,32,0.035,7469,3.5057,57.9653
lg,1624908704326551500,0,0.4065,-0.6609,0.7446,15,47.8516,-45.2881,3.418,92,1.3497,1.1556,-39.0092,1.4749,32,0.035,7551,3.5057,59.2044
lg,1624908704326568426,0,0.5745,-0.6921,0.792,16,42.1753,-48.2788,8.728,92,1.3497,1.1556,-40.6324,1.1575,31,0.035,7553,3.5057,60.7018
lg,1624908704326586018,0,0.7949,-0.6069,0.7061,17,36.7432,-19.6533,6.958,92,1.3507,1.1546,-41.6868,0.858,31,0.032,7614,3.5057,62.0618
lg,1624908704326604111,0,0.6069,-0.5688,0.7119,18,16.8457,19.7144,0.8545,92,1.3517,1.1546,-40.8563,-0.1069,31,0.034,7563,3.5057,63.19
lg,1624908704326621796,0,0.4854,-0.5674,0.6565,19,4.4556,34.5459,0.7935,92,1.3527,1.1556,-39.318,-1.626,31,0.036,7570,3.5057,64.3179
lg,1624908704326639518,0,0.2432,-0.73,0.8359,20,-13.0005,38.147,-4.0283,92,1.3527,1.1566,-37.0788,-3.7458,32,0.041,7597,3.5057,65.1536
lg,1624908704326657110,0,0.1919,-0.6492,0.6909,21,-13.0615,28.7476,-6.2256,92,1.3527,1.1576,-35.1341,-5.7368,32,0.038,7644,3.5057,65.7648
lg,1624908704326673906,0,0.0896,-0.614,0.6812,22,-29.2358,3.6011,-8.667,92,1.3527,1.1586,-34.1441,-8.2632,32,0.037,7684,3.5057,66.2458
lg,1624908704326690851,0,0.1692,-0.6375,0.6787,23,-48.0957,-37.5366,-7.0801,92,1.3527,1.1576,-34.9446,-11.7025,32,0.04,7930,3.5057,67.0781
lg,1624908704326708295,0,0.2302,-0.7112,0.71,24,-56.3354,-51.2085,-7.3853,92,1.3517,1.1566,-36.3202,-15.5643,31,0.035,7771,3.5057,68.1584
lg,1624908704326799831,0,0.3589,-0.7742,0.7117,25,-61.3403,-63.5986,-5.249,92,1.3497,1.1546,-38.2692,-19.8518,31,0.039,7810,3.5057,69.7112
lg,1624908704326819757,0,0.4448,-0.7461,0.7004,26,-58.4717,-57.4341,-4.8828,92,1.3437,1.1526,-39.9908,-23.9297,31,0.04,7805,3.5057,71.325
lg,1624908704326839535,0,0.4673,-0.772,0.9172,27,-47.4243,-51.8799,-10.1318,92,1.3407,1.1496,-41.333,-27.0246,31,0.041,7842,3.5057,72.5005
lg,1624908704326857387,0,0.2051,-0.5933,0.395,28,42.0532,-44.0674,-44.6777,92,1.3387,1.1486,-42.9085,-26.0553,32,0.043,7840,3.5057,72.3766
lg,1624908704326874664,0,0.5105,-0.2297,0.5139,29,34.0576,-41.8091,-29.2358,92,1.3387,1.1496,-44.9547,-25.3934,32,0.041,7848,3.5057,72.3863
lg,1624908704326891794,0,0.5327,-0.354,0.3823,30,5.6763,-21.2402,-9.9487,92,1.3387,1.1496,-45.9501,-25.8453,32,0.042,8887,3.5057,72.8791
lg,1624908704326909609,0,0.4241,-0.3655,0.5608,31,-27.0996,29.2969,19.7754,92,1.3407,1.1516,-44.0077,-27.7389,32,0.042,10546,3.5057,73.5824
lg,1624908704326927645,0,0.53,-0.7017,0.7087,32,-29.2358,21.3623,32.5928,92,1.3427,1.1526,-42.0494,-30.3623,31,0.042,7950,3.5057,75.1103
lg,1624908704680075265,0,0.2302,-0.9834,0.8542,33,80.3833,61.6455,-36.377,92,1.3507,1.1566,-39.2513,-26.0175,32,0.042,25213,3.5057,72.5636
lg,1624908704680162579,0,0.0164,-0.7231,0.7341,34,96.8628,36.1328,-40.3442,92,1.3517,1.1576,-37.7157,-22.2491,32,0.042,8168,3.5057,71.5622
lg,1624908704680214486,0,0.1147,-0.6426,0.6931,35,83.4351,-3.479,-13.3667,92,1.3527,1.1586,-36.9668,-19.5924,32,0.041,7367,3.5057,71.6409
lg,1624908704680262986,0,0.5183,-0.6523,0.7463,36,58.6548,-30.5786,10.9863,92,1.3537,1.1586,-37.6796,-18.8061,32,0.039,7395,3.5057,73.2365
lg,1624908704680311449,0,0.7068,-0.6841,0.7319,37,53.3447,-18.7988,15.1367,92,1.3547,1.1586,-38.1898,-18.2762,32,0.037,7368,3.5057,74.8634
lg,1624908704680358134,0,0.6353,-0.5894,0.7004,38,50.354,31.311,7.8735,92,1.3547,1.1586,-36.8486,-17.0778,32,0.04,7411,3.5057,75.3032
lg,1624908704680405226,0,0.322,-0.417,0.5488,39,38.5742,44.2505,1.2207,92,1.3557,1.1586,-34.7537,-16.0807,32,0.037,7733,3.5057,75.2651
lg,1624908704680451207,0,0.2773,-0.4536,0.6064,40,15.564,36.0107,3.479,92,1.3567,1.1586,-32.6694,-16.3667,32,0.04,7508,3.5057,75.5636
lg,1624908704680495262,0,0.2649,-0.6921,0.7192,41,0.6104,17.5171,3.9673,145,1.3567,1.1596,-31.3836,-17.4984,32,0.041,7457,3.5057,76.1446
lg,1624908704680539466,0,0.1597,-0.4814,0.6262,42,3.54,11.2915,1.2207,145,1.3567,1.1606,-30.5948,-18.4099,32,0.044,7413,3.5057,76.4878
lg,1624908704680584243,0,0.0964,-0.4924,0.6394,43,-13.0005,-10.7422,-4.2725,145,1.3567,1.1606,-30.1935,-19.763,32,0.047,7513,3.5057,76.8915
lg,1624908704680627854,0,0.0535,-0.6179,0.7261,44,-31.8604,-46.7529,-0.3052,145,1.3567,1.1606,-30.9632,-22.3328,32,0.042,7517,3.5057,78.1059
lg,1624908704680670613,0,0.1733,-0.675,0.7046,45,-41.9312,-82.7637,7.4463,145,1.3567,1.1606,-33.0967,-25.964,32,0.043,11468,3.5057,80.5009
lg,1624908704680714131,0,0.396,-0.6692,0.7136,46,-44.3115,-94.8486,12.5732,145,1.3557,1.1596,-35.8093,-30.0595,32,0.044,7600,3.5057,83.94
lg,1624908704680756983,0,0.5093,-0.5544,0.6619,47,-36.8042,-95.8862,22.7051,145,1.3557,1.1596,-38.3492,-34.0563,32,0.039,7597,3.5057,87.7035
lg,1624908704680803890,0,0.5901,-0.5249,0.6643,48,-42.5415,-65.4297,27.2217,145,1.3547,1.1596,-39.6666,-37.878,32,0.044,7715,3.5057,90.9251
lg,1624908704680847538,0,0.574,-0.7158,0.8105,49,-46.936,-36.377,32.7148,145,1.3537,1.1586,-39.4746,-41.4906,32,0.047,9146,3.5057,93.521
lg,1624908704680892501,0,0.5459,-0.7095,0.7427,50,-47.1191,-26.6724,35.7666,145,1.3507,1.1576,-38.6717,-44.8823,32,0.043,8555,3.5057,95.8406
lg,1624908704680936297,0,0.4915,-0.6992,0.6956,51,-54.8096,-15.625,38.3301,145,1.3487,1.1566,-37.4997,-48.2398,32,0.045,8132,3.5057,97.7385
lg,1624908704680979482,0,0.4729,-1.0435,0.9756,52,-35.6445,-18.7378,17.5781,145,1.3477,1.1546,-36.701,-50.3538,32,0.048,7703,3.5057,98.9647
lg,1624908704681021741,0,0.4055,-0.9805,0.7061,53,2.9297,-18.5547,-1.5869,145,1.3467,1.1536,-36.5057,-50.7999,32,0.045,7779,3.5057,99.7306
lg,1624908704681066796,0,0.2942,-0.626,0.6057,54,30.5786,-9.5825,-11.5356,145,1.3467,1.1536,-36.4028,-49.3437,32,0.046,7758,3.5057,99.5976
lg,1624908704681111129,0,0.1719,-0.3591,0.4644,55,20.5688,-4.2725,-0.8545,145,1.3467,1.1546,-35.7788,-48.0492,32,0.046,7780,3.5057,99.4073
lg,1624908704681156721,0,0.2476,-0.3826,0.5247,56,2.8076,-15.7471,9.7656,145,1.3477,1.1546,-35.3433,-47.9056,32,0.046,7812,3.5057,99.9806
lg,1624908704681200128,0,0.6147,-0.5874,0.6448,57,-17.4561,-20.813,26.9775,145,1.3477,1.1556,-35.0731,-49.313,32,0.045,7860,3.5057,101.4827
lg,1624908704681405960,0,0.7441,-0.6516,0.7415,58,-18.5547,-4.1504,29.2969,145,1.3477,1.1566,-34.1343,-49.7143,32,0.046,7855,3.5057,101.8165
lg,1624908704681472830,0,0.8684,-0.7834,0.8342,59,2.5024,33.1421,17.5171,145,1.3487,1.1576,-32.8668,-48.9889,32,0.045,7855,3.5057,101.0031
lg,1624908704681530552,0,0.7207,-0.8584,0.9287,60,35.1562,102.1729,-8.4839,145,1.3507,1.1586,-30.2272,-45.3378,32,0.045,7913,3.5112,97.0642
lg,1624908704681578922,0,0.4473,-0.9541,0.897,61,61.4624,131.2866,-30.7007,145,1.3517,1.1596,-26.5443,-39.0225,31,0.044,8148,3.5112,90.8683
lg,1624908704681626885,0,-0.2129,-0.8813,0.6929,62,109.9854,135.9253,-75.0122,145,1.3527,1.1606,-22.5781,-32.6404,31,0.043,7894,3.5112,85.0214
lg,1624908704681671959,0,-0.4077,-0.5703,0.637,63,104.6753,72.5708,-46.5698,145,1.3547,1.1616,-19.3425,-27.6634,31,0.042,7937,3.5112,81.9489
lg,1624908704681720810,0,-0.3638,-0.4854,0.6138,64,88.0127,18.3105,-30.3955,145,1.3547,1.1586,-18.0988,-24.0887,31,0.042,7966,3.5112,80.629
lg,1624908705007939211,0,0.8157,-0.6201,0.7214,65,36.0718,-36.499,1.5259,145,1.3557,1.1396,-20.2905,-23.3873,32,0.046,24546,3.5112,81.4671
lg,1624908705008018618,0,0.2556,-0.5977,0.7214,66,16.0522,18.8599,-1.6479,145,1.3567,1.1326,-19.4535,-23.2621,32,0.039,14618,3.5112,81.31
lg,1624908705008069655,0,0.1611,-0.6089,0.7227,67,7.9956,10.6812,2.1362,145,1.3577,1.1266,-19.1527,-24.0885,32,0.047,8990,3.5112,81.8949
lg,1624908705008120377,0,0.2793,-0.6162,0.7661,68,-12.6343,-27.0996,10.6812,145,1.3567,1.1266,-19.8393,-25.472,32,0.05,9006,3.5112,82.9814
lg,1624908705008170450,0,0.5095,-0.7368,0.7573,69,-18.4937,-33.6304,11.8408,145,1.3577,1.1286,-21.0896,-27.2867,32,0.045,7347,3.5112,84.3163
lg,1624908705008218061,0,0.4763,-0.6948,0.771,70,-16.2354,-25.1465,8.606,145,1.3577,1.1336,-21.9686,-28.7985,32,0.046,7357,3.5112,85.3573
lg,1624908705008265005,0,0.3042,-0.7065,0.7825,71,-15.3809,-12.9395,3.6621,145,1.3587,1.1386,-22.1269,-30.0988,32,0.045,7365,3.5112,85.9694
lg,1624908705008310246,0,0.2036,-0.6843,0.7356,72,-13.9771,-14.8315,2.6855,145,1.3577,1.1446,-22.0812,-31.2337,32,0.039,7425,3.5112,86.5515
lg,1624908705008352634,0,0.1555,-0.6514,0.7419,73,-26.6113,-38.208,8.5449,145,1.3577,1.1506,-22.6761,-33.1605,32,0.039,7543,3.5112,87.8965
lg,1624908705008395597,0,0.3171,-0.6294,0.5776,74,-42.1753,-77.1484,11.5967,145,1.3577,1.1556,-24.8552,-36.3501,32,0.044,7698,3.5112,90.4586
lg,1624908705008438652,0,0.449,-0.6025,0.5483,75,-59.6313,-82.8247,13.0005,145,1.3567,1.1556,-27.2767,-40.3628,32,0.037,7490,3.5112,93.3943
lg,1624908705008481634,0,0.5916,-0.6401,0.5569,76,-81.3599,-69.8242,18.3716,145,1.3537,1.1546,-29.1104,-45.2272,32,0.042,7506,3.5112,96.3196
lg,1624908705008524319,0,0.6819,-0.4883,0.4783,77,-84.5337,-51.3306,21.0571,145,1.3487,1.1546,-30.4765,-49.8069,32,0.043,7536,3.5112,98.7509
lg,1624908705008567985,0,0.4619,-0.8242,1.019,78,-65.7349,0.9766,2.5635,145,1.3477,1.1516,-29.9548,-51.9648,32,0.043,7589,3.5112,98.5364
lg,1624908705008613411,0,-0.1465,-0.3503,0.231,79,8.8501,17.2729,-41.687,145,1.3467,1.1526,-28.8452,-50.5495,32,0.043,7561,3.5112,97.7489
lg,1624908705008658614,0,-0.0027,-0.2615,0.6179,80,-1.4038,-43.0298,-4.6387,145,1.3467,1.1536,-29.0954,-50.0616,32,0.043,7770,3.5112,98.5487
lg,1624908705008701780,0,0.542,-0.6743,0.6746,81,-24.353,-103.1494,21.6675,145,1.3467,1.1536,-30.9834,-53.0022,32,0.042,7592,3.5112,102.8077
lg,1624908705008747076,0,0.9563,-0.6575,0.7742,82,-24.5972,-101.5015,31.189,145,1.3477,1.1546,-32.8064,-56.0646,32,0.044,7704,3.5112,107.3502
lg,1624908705008791169,0,1.3088,-0.9695,0.9341,83,-12.9395,0.9155,16.5405,145,1.3487,1.1556,-32.693,-56.4476,32,0.044,7715,3.5112,107.5582
lg,1624908705008834539,0,0.8196,-0.7969,0.7656,84,11.5356,68.1763,6.4087,145,1.3497,1.1566,-30.4849,-52.5731,32,0.044,7699,3.5112,103.1217
lg,1624908705008879613,0,0.6106,-0.811,0.8479,85,40.1611,135.0098,-10.376,145,1.3497,1.1576,-27.2684,-48.1608,32,0.044,7741,3.5112,97.8762
lg,1624908705008922835,0,0.2483,-0.8408,0.7717,86,76.5991,158.4473,-34.5459,145,1.3517,1.1586,-23.234,-42.4914,32,0.043,7680,3.5112,91.8283
lg,1624908705008965094,0,-0.0061,-0.9116,0.6628,87,98.6328,162.9639,-52.9785,145,1.3527,1.1596,-18.7156,-36.8287,32,0.043,7743,3.5112,85.8634
lg,1624908705009153889,0,-0.436,-0.5537,0.5581,88,115.6006,123.7183,-49.1333,145,1.3537,1.1596,-14.0686,-31.2292,32,0.042,9775,3.5112,81.4597
lg,1624908705009210092,0,-0.3879,-0.4194,0.5564,89,79.2236,3.418,-15.8081,145,1.3547,1.1576,-12.7145,-28.1314,32,0.044,7807,3.5112,80.9206
lg,1624908705009264444,0,0.1814,-0.5586,0.6528,90,55.542,-69.8853,-3.9062,145,1.3557,1.1536,-17.0564,-27.8965,32,0.043,7803,3.5112,83.6727
lg,1624908705009315332,0,0.675,-0.6487,0.762,91,26.8555,-151.8555,6.5918,145,1.3567,1.1496,-22.9269,-28.3799,31,0.046,8019,3.5112,87.1023
lg,1624908705009361036,0,1.1284,-0.5649,0.7021,92,35.0952,-62.0728,0.8545,145,1.3567,1.1466,-26.1741,-27.8016,31,0.043,7840,3.5112,88.5259
lg,1624908705009408517,0,0.9138,-0.4451,0.6438,93,25.9399,-5.249,-8.728,145,1.3567,1.1446,-26.8391,-26.8505,31,0.045,7874,3.5112,88.3692
lg,1624908705009450516,0,0.3528,-0.5818,0.697,94,-7.5684,63.1104,-14.3433,145,1.3577,1.1446,-24.6537,-26.875,31,0.047,7943,3.5112,86.7672
lg,1624908705009498553,0,-0.0388,-0.6445,0.7607,95,-19.165,47.8516,-9.3994,145,1.3587,1.1486,-22.1276,-27.677,32,0.047,7947,3.5112,85.6757
lg,1624908705009543034,0,-0.0879,-0.5938,0.7444,96,-25.0244,7.5684,-6.2866,145,1.3577,1.1516,-20.9471,-28.9785,32,0.046,7947,3.5112,85.4436
lg,1624908705374515079,0,0.2874,-0.7419,0.6975,97,-70.2515,-75.0732,13.6719,145,1.3557,1.1606,-23.0382,-33.3051,32,0.046,25342,3.5112,87.8775
lg,1624908705374596097,0,0.4065,-0.825,0.7151,98,-72.0215,-88.0737,13.7329,145,1.3537,1.1576,-25.7732,-38.0937,32,0.046,10174,3.5112,91.2773
lg,1624908705374647615,0,0.5273,-0.8899,0.7878,99,-68.9087,-107.1167,13.916,145,1.3507,1.1536,-28.5769,-42.8973,32,0.046,7307,3.5112,95.0653
lg,1624908705374775966,0,0.3889,-1.0168,0.7205,100,39.5508,-94.2993,-35.9497,145,1.3487,1.1496,-31.8729,-42.701,32,0.046,7355,3.5112,97.0659
lg,1624908705374831484,0,0.458,-0.4897,0.1733,101,68.4814,-77.2095,-39.7339,145,1.3497,1.1486,-35.6839,-41.5097,32,0.047,7458,3.5112,98.6472
lg,1624908705374879688,0,0.6477,-0.1838,0.2742,102,31.311,-53.7109,-18.3105,145,1.3487,1.1486,-38.8063,-40.7274,32,0.046,7453,3.5112,99.6194
lg,1624908705374926132,0,0.7485,-0.0994,0.3005,103,12.3901,-19.5312,0.6104,145,1.3507,1.1496,-39.0167,-41.0234,32,0.047,8564,3.5112,99.5103
lg,1624908705374974835,0,0.7957,-0.365,0.4778,104,-39.5508,40.8325,29.9683,145,1.3517,1.1516,-37.5484,-42.3307,32,0.046,7644,3.5112,99.1885
lg,1624908705375023742,0,0.5151,-1.0054,0.7749,105,-29.2358,94.1772,39.7339,145,1.3527,1.1526,-33.1312,-42.9497,32,0.046,7473,3.5112,97.7447
lg,1624908705375072242,0,0.4006,-0.856,0.7168,106,-4.0894,91.7969,33.2031,145,1.3537,1.1536,-29.6116,-41.6683,32,0.047,8523,3.5112,96.2358
lg,1624908705375157593,0,0.4087,-0.9192,0.9087,107,30.3345,57.8003,9.2163,145,1.3557,1.1556,-27.1551,-39.9417,32,0.048,9648,3.5112,94.9106
lg,1624908705375213426,0,0.2161,-0.9312,0.7866,108,78.3691,37.8418,-30.5786,145,1.3577,1.1566,-26.0737,-36.294,32,0.047,7417,3.5112,93.0041
lg,1624908705375259093,0,0.0876,-0.8208,0.7881,109,88.623,22.522,-42.4805,145,1.3597,1.1576,-25.8285,-32.4695,32,0.045,7523,3.5112,91.7586
lg,1624908705375304648,0,0.1409,-0.6682,0.7224,110,83.6182,-1.8921,-22.3389,145,1.3607,1.1586,-25.6775,-29.2311,32,0.045,7489,3.5112,91.1652
lg,1624908705375347481,0,0.3269,-0.5925,0.7224,111,66.7725,-18.7988,-0.4883,145,1.3607,1.1596,-26.1044,-27.146,32,0.047,7499,3.5112,91.7272
lg,1624908705375391036,0,0.5007,-0.6414,0.7866,112,57.0068,-20.4468,7.5684,145,1.3617,1.1596,-26.72,-25.6559,32,0.045,7525,3.5112,92.6446
lg,1624908705375434795,0,0.7471,-0.4939,0.6821,113,38.7573,1.77,8.2397,145,1.3617,1.1596,-27.1043,-24.5765,32,0.046,7541,3.5112,93.0893
lg,1624908705375477999,0,0.7466,-0.5105,0.7397,114,23.0103,22.583,5.8594,145,1.3627,1.1606,-26.6893,-23.9122,32,0.046,7561,3.5112,93.0611
lg,1624908705375521925,0,0.5444,-0.6379,0.7798,115,8.9111,54.5044,-4.3945,145,1.3627,1.1606,-24.8673,-23.6356,32,0.048,7583,3.5112,92.1658
lg,1624908705375564832,0,0.4109,-0.6135,0.696,116,4.5166,62.5,-10.3149,145,1.3627,1.1616,-22.6924,-23.6287,32,0.05,7582,3.5112,90.6973
lg,1624908705375608072,0,0.1499,-0.6355,0.7778,117,-16.2964,59.8755,-17.7002,145,1.3617,1.1616,-20.27,-24.2824,32,0.054,7674,3.5112,89.2013
lg,1624908705375652739,0,-0.0957,-0.6809,0.6392,118,-26.3672,41.9922,-16.6626,145,1.3607,1.1596,-18.0897,-25.7822,32,0.051,12044,3.5112,88.1137
lg,1624908705375697553,0,-0.2554,-0.7161,0.7109,119,-32.8369,-18.1885,-7.3853,145,1.3587,1.1586,-17.6884,-27.8687,32,0.05,7705,3.5112,88.4012
lg,1624908705375742905,0,-0.0054,-0.5884,0.5955,120,-32.1655,-59.8755,-1.5259,145,1.3547,1.1566,-20.3599,-30.6329,32,0.051,7735,3.5112,90.7753
lg,1624908705375786923,0,0.2061,-0.5249,0.6721,121,-39.1846,-123.8403,10.7422,145,1.3517,1.1556,-24.032,-33.7145,32,0.052,7748,3.5112,94.121
lg,1624908705375830682,0,0.4321,-0.5464,0.604,122,14.7705,-132.6904,-8.728,145,1.3507,1.1546,-28.7447,-34.785,32,0.051,7818,3.5112,97.276
lg,1624908705375875608,0,0.6743,-0.3306,0.6267,123,-8.1787,-101.5015,9.7046,145,1.3517,1.1556,-32.3782,-36.4594,32,0.051,9168,3.5112,100.2905
lg,1624908705375919366,0,0.8242,-0.4985,0.571,124,-21.1792,-86.4258,16.8457,145,1.3527,1.1556,-35.2568,-39.2336,32,0.052,7872,3.5112,103.5862
lg,1624908705376008440,0,0.9507,-0.5503,0.6399,125,-36.499,-16.7847,28.0762,145,1.3527,1.1556,-35.5431,-41.6508,32,0.052,7896,3.5112,105.2042
lg,1624908705376059495,0,0.8992,-0.8154,0.8098,126,-40.9546,12.4512,24.4751,145,1.3527,1.1566,-33.9953,-43.0147,32,0.051,7904,3.5112,104.7332
lg,1624908705376107402,0,0.6143,-0.9087,0.7642,127,6.6528,71.5332,5.4932,145,1.3547,1.1566,-31.4905,-41.8881,32,0.05,11392,3.5112,102.7797
lg,1624908705376177069,0,0.4443,-0.7778,0.7822,128,21.6064,83.7402,3.6011,145,1.3557,1.1586,-28.2007,-39.0625,31,0.051,8461,3.5112,99.9516
lg,1624908705693088285,0,-0.2087,-0.7244,0.6748,129,88.0127,67.749,-26.062,145,1.3607,1.1626,-25.2163,-34.5171,32,0.048,24831,3.5112,97.3458
lg,1624908705693242340,0,0.0933,-0.5833,0.6423,130,58.1055,-44.3726,8.1177,145,1.3617,1.1616,-25.765,-33.1321,32,0.051,10479,3.5112,98.8946
lg,1624908705693301099,0,0.3657,-0.6189,0.7068,131,46.0815,-71.167,17.6392,145,1.3617,1.1616,-27.5836,-32.694,32,0.049,7270,3.5112,101.4371
lg,1624908705693357598,0,0.8184,-0.6741,0.7615,132,36.8042,-58.1665,19.5312,145,1.3627,1.1596,-29.5551,-32.5684,32,0.048,7311,3.5112,103.7588
lg,1624908705693992150,0,0.8164,-0.6404,0.7507,133,36.3159,-22.1558,13.2446,145,1.3627,1.1586,-30.4142,-31.9193,32,0.049,7557,3.5112,104.9545
lg,1624908705694065964,0,0.5974,-0.4668,0.7798,134,12.3291,11.7188,1.4648,145,1.3627,1.1586,-30.0938,-31.2649,32,0.051,7380,3.5112,104.7012
lg,1624908705694123816,0,0.512,-0.6267,0.8264,135,-9.8877,33.3862,1.9531,145,1.3627,1.1596,-28.766,-31.5352,32,0.05,9812,3.5112,104.0924
lg,1624908705694185223,0,0.4492,-0.5317,0.7786,136,-17.5781,38.0859,-4.0283,145,1.3637,1.1626,-27.2164,-32.393,32,0.049,8087,3.5112,102.93
lg,1624908705694685794,0,0.2378,-0.7056,0.7576,137,-36.3159,36.6211,-14.4043,145,1.3637,1.1636,-25.7574,-33.644,32,0.052,7393,3.5112,101.6949
lg,1624908705694745367,0,-0.0198,-0.7078,0.719,138,-39.5508,32.3486,-18.3105,145,1.3627,1.1636,-24.2026,-35.3493,32,0.045,7453,3.5112,100.6062
lg,1624908705694800293,0,-0.1663,-0.7205,0.7524,139,-48.7671,13.0615,-14.9536,145,1.3617,1.1616,-22.896,-37.2893,32,0.046,7469,3.5112,99.866
lg,1624908705694853552,0,-0.1145,-0.8252,0.7407,140,-51.3306,-63.1104,-2.8687,145,1.3577,1.1566,-23.8354,-40.4223,32,0.048,7518,3.5112,101.6465
lg,1624908705694902996,0,0.4622,-0.739,0.9705,141,-41.1987,-111.3892,9.8877,145,1.3547,1.1536,-26.7386,-43.4726,32,0.049,7508,3.5112,105.2143
lg,1624908705694951496,0,0.4165,-0.7258,0.8611,142,25.5127,-93.2617,-17.0288,145,1.3527,1.1526,-29.9657,-42.0948,32,0.05,7545,3.5112,106.285
lg,1624908705695002144,0,0.2104,-0.0515,0.3787,143,40.3442,-44.4336,-19.7754,145,1.3517,1.1516,-31.9281,-39.5021,32,0.05,7533,3.5112,106.2787
lg,1624908705695052495,0,0.5059,-0.2734,0.3884,144,-8.1787,-65.7349,10.0708,145,1.3527,1.1526,-34.2385,-40.99,32,0.051,7639,3.5112,108.6084
lg,1624908705695103847,0,0.7625,-0.4863,0.6238,145,-30.5786,-55.9692,22.644,145,1.3527,1.1526,-34.9725,-43.9841,31,0.051,8020,3.5112,110.8411
lg,1624908705695151291,0,0.8826,-0.6482,0.7227,146,-50.2319,-19.5312,28.5645,145,1.3527,1.1546,-34.9856,-46.8568,31,0.051,8896,3.5112,112.4581
lg,1624908705695200105,0,0.8931,-0.8438,0.8059,147,-32.8369,42.9688,12.3901,145,1.3537,1.1556,-33.5528,-47.5018,31,0.05,7880,3.5112,111.3137
lg,1624908705695248975,0,0.5688,-0.8428,0.7532,148,13.3057,84.1675,0.8545,145,1.3547,1.1566,-30.9506,-45.4618,31,0.051,7897,3.5112,108.4594
lg,1624908705695295919,0,0.4282,-0.8318,0.9128,149,28.1982,93.2007,-7.4463,145,1.3557,1.1576,-28.0253,-42.6079,31,0.051,7703,3.5112,105.1653
lg,1624908705695353697,0,0.0796,-0.9382,0.8047,150,70.6177,94.3604,-30.5786,145,1.3577,1.1586,-25.0403,-38.4065,31,0.05,7693,3.5112,101.5563
lg,1624908705695401178,0,-0.0693,-0.877,0.749,151,89.3555,82.0312,-34.668,145,1.3597,1.1596,-22.0157,-33.9512,31,0.048,7786,3.5112,98.452
lg,1624908705695446715,0,-0.134,-0.6792,0.6621,152,96.1914,26.4282,-17.2119,145,1.3617,1.1606,-20.3741,-30.1709,31,0.047,7884,3.5112,97.4481
lg,1624908705695491215,0,0.2312,-0.6497,0.687,153,74.1577,-40.2832,5.3711,145,1.3627,1.1616,-21.4263,-28.1192,32,0.047,7780,3.5112,98.6834
lg,1624908705695536696,0,0.4565,-0.6582,0.8181,154,64.0259,-52.6123,10.9863,145,1.3637,1.1626,-23.1764,-26.5329,32,0.047,7765,3.5112,100.3026
lg,1624908705695581714,0,0.7444,-0.4033,0.5073,155,54.5654,-31.4331,13.0005,145,1.3627,1.1626,-25.0692,-25.1386,32,0.047,7852,3.5112,101.5348
lg,1624908705695625788,0,0.6064,-0.491,0.76,156,30.1514,-11.4746,7.8735,145,1.3637,1.1616,-24.7908,-25.1061,32,0.046,7844,3.5112,101.5841
lg,1624908705695670547,0,0.4497,-0.6787,0.7578,157,1.6479,27.771,-0.1221,145,1.3637,1.1626,-23.7855,-25.4737,32,0.048,7818,3.5112,101.3315
lg,1624908705695714343,0,0.1511,-0.5923,0.7922,158,-7.3853,19.3481,-12.8784,145,1.3637,1.1636,-22.7353,-25.8949,32,0.051,7809,3.5112,100.6502
lg,1624908705695755991,0,0.114,-0.5723,0.7263,159,-17.0898,-2.2583,-15.7471,145,1.3637,1.1636,-22.5969,-26.8788,32,0.054,7889,3.5112,100.2827
lg,1624908705695800027,0,0.1824,-0.5454,0.7061,160,-44.2505,-32.1655,-9.2163,145,1.3627,1.1636,-23.4714,-29.2041,32,0.05,7936,3.5112,100.753
lg,1624908706035950859,0,0.4666,-0.9692,1.1499,161,-58.6548,-52.8564,4.6997,83,1.3557,1.1566,-25.361,-32.0512,32,0.051,24789,3.5112,102.3721
lg,1624908706036098784,0,0.301,-0.4595,0.2166,162,87.7075,-46.3867,-56.5796,83,1.3527,1.1526,-28.4455,-29.217,32,0.05,14028,3.5112,101.7523
lg,1624908706036151357,0,0.1501,0.0945,0.3442,163,48.8892,-16.2354,-30.0293,83,1.3517,1.1526,-29.6021,-25.1547,32,0.051,7811,3.5112,100.0597
lg,1624908706036206172,0,0.3037,-0.1934,0.5391,164,-13.855,-26.6724,11.6577,83,1.3527,1.1536,-30.2902,-25.9888,32,0.051,11185,3.5112,100.9659
lg,1624908706036254264,0,0.583,-0.457,0.6299,165,-34.1187,-28.4424,28.0151,83,1.3527,1.1546,-30.6526,-29.1148,32,0.05,7418,3.5112,103.1683
lg,1624908706036309838,0,0.6379,-0.5586,0.7451,166,-49.4995,-9.8877,36.1328,83,1.3527,1.1546,-30.4002,-32.2277,32,0.05,7461,3.5112,104.9973
lg,1624908706036358467,0,0.8389,-0.7595,0.845,167,-50.293,0.3662,26.062,83,1.3537,1.1566,-30.0511,-35.0856,32,0.051,7438,3.5112,106.176
lg,1624908706036415300,0,0.9011,-0.9685,1.0154,168,-44.2505,15.8691,17.2119,83,1.3537,1.1566,-29.2413,-37.2713,32,0.051,7447,3.5112,106.5445
lg,1624908706036466429,0,0.6257,-0.9307,0.9797,169,14.9536,74.5239,-0.4272,83,1.3557,1.1586,-26.6997,-35.967,32,0.052,8190,3.5112,104.6309
lg,1624908706036515318,0,0.1829,-0.9421,0.8147,170,38.269,95.7642,-10.498,83,1.3577,1.1596,-23.2187,-32.5209,32,0.052,7912,3.5112,101.3734
lg,1624908706036563633,0,-0.054,-0.9243,0.7446,171,88.6841,96.4966,-39.7339,83,1.3587,1.1606,-19.7814,-28.457,32,0.049,7514,3.5112,98.137
lg,1624908706036610799,0,-0.1934,-0.6294,0.6797,172,99.3042,28.5645,-23.6816,83,1.3597,1.1616,-18.0264,-24.6223,32,0.048,7500,3.5112,96.9405
lg,1624908706036659021,0,-0.0435,-0.5942,0.6731,173,85.8154,-14.5874,-7.0801,83,1.3617,1.1626,-17.8971,-21.8815,32,0.05,7663,3.5112,97.1443
lg,1624908706036705317,0,0.3909,-0.6675,0.7979,174,60.5469,-68.9697,10.1318,83,1.3627,1.1626,-20.4457,-20.6372,32,0.052,7608,3.5112,98.8191
lg,1624908706036763742,0,0.6538,-0.7351,0.9824,175,55.2368,-67.9321,15.564,83,1.3627,1.1626,-23.8851,-19.4968,32,0.052,7550,3.5112,100.605
lg,1624908706036822501,0,0.9868,-0.2144,0.5212,176,39.3677,-23.7427,7.3242,83,1.3627,1.1626,-26.0251,-18.2503,32,0.053,7623,3.5112,101.257
lg,1624908706036978426,0,0.5845,-0.6506,0.7788,177,8.1787,16.4795,-0.6714,83,1.3627,1.1636,-24.7397,-18.448,32,0.055,7592,3.5112,100.5728
lg,1624908706037042870,0,0.3457,-0.5679,0.6921,178,2.3804,56.5186,-20.813,83,1.3637,1.1636,-22.7771,-18.51,32,0.055,7617,3.5112,99.2707
lg,1624908706037091740,0,-0.1062,-0.5696,0.731,179,-12.7563,48.7061,-27.832,83,1.3637,1.1646,-20.233,-19.1542,32,0.055,7644,3.553,97.7678
lg,1624908706037144203,0,-0.2378,-0.5454,0.6995,180,-18.8599,15.1367,-25.8789,83,1.3637,1.1636,-18.7389,-20.2297,32,0.052,7635,3.553,96.7656
lg,1624908706037203277,0,-0.167,-0.6531,0.7866,181,-40.8325,-63.1104,-9.9487,83,1.3627,1.1626,-20.1891,-22.8327,32,0.052,7709,3.553,97.5905
lg,1624908706037306702,0,0.001,-0.7537,0.8069,182,-47.6685,-95.8252,0.3662,83,1.3607,1.1616,-24.1314,-26.7289,32,0.053,7694,3.553,100.4326
lg,1624908706037362887,0,0.4917,-0.7817,0.8777,183,-55.603,-129.5776,12.146,83,1.3587,1.1586,-28.3681,-30.9833,32,0.053,7683,3.553,103.9473
lg,1624908706037414720,0,0.4407,-0.8628,0.7991,184,42.1753,-92.1631,-36.1938,83,1.3587,1.1556,-31.983,-30.35,32,0.053,7791,3.553,105.0183
lg,1624908706037465201,0,0.3181,-0.0159,0.5422,185,47.3022,-54.4434,-29.541,83,1.3587,1.1556,-34.4916,-27.343,32,0.052,9554,3.553,104.4363
lg,1624908706037508997,0,0.4224,-0.051,0.3472,186,26.4282,-56.8848,-13.916,83,1.3587,1.1566,-36.7923,-27.6779,32,0.051,7843,3.553,105.414
lg,1624908706038133049,0,0.5881,-0.3213,0.689,187,-29.6021,-40.7104,14.0991,83,1.3587,1.1576,-37.9704,-29.7204,32,0.051,7857,3.553,106.958
lg,1624908706038193882,0,0.8257,-0.646,0.7769,188,-42.6636,-11.9019,28.8086,83,1.3597,1.1586,-37.83,-32.7608,32,0.051,7869,3.553,108.7587
lg,1624908706038246752,0,0.8428,-0.6687,0.8386,189,-37.3535,17.9443,26.001,83,1.3607,1.1596,-36.5518,-34.9498,32,0.051,7986,3.553,109.5521
lg,1624908706038665619,0,0.6328,-0.7024,0.835,190,-28.3813,61.2793,12.6953,83,1.3607,1.1606,-34.0123,-35.5752,32,0.052,7949,3.553,108.4392
lg,1624908706038974562,0,0.4294,-0.8887,0.9011,191,-2.9297,74.0967,7.5684,83,1.3607,1.1616,-30.8467,-35.1485,32,0.053,7958,3.553,106.9138
lg,1624908706039026877,0,0.2361,-0.8433,0.9055,192,23.2544,67.1997,-1.0986,83,1.3627,1.1626,-27.8967,-33.6884,32,0.053,7990,3.553,105.3094
lg,1624908706378902632,0,0.0398,-0.5554,0.6985,193,75.5615,-27.0386,-1.0986,83,1.3647,1.1616,-27.8564,-31.1814,32,0.046,23700,3.553,106.0492
lg,1624908706378993502,0,0.3848,-0.6978,0.9673,194,56.3965,-82.3364,14.9536,83,1.3647,1.1606,-31.4612,-30.4582,32,0.048,12278,3.553,109.2487
lg,1624908706379047428,0,1.0405,-0.1587,0.5623,195,39.1235,-96.1304,19.8975,83,1.3657,1.1596,-35.5465,-30.276,32,0.049,7560,3.553,112.2167
lg,1624908706379098316,0,1.116,-0.5752,0.7644,196,-33.2031,9.2773,3.9062,83,1.3657,1.1606,-35.6878,-31.766,32,0.051,7439,3.553,112.2721
lg,1624908706379146557,0,0.376,-0.6704,0.8359,197,-37.5366,99.1821,-19.4702,83,1.3657,1.1616,-32.1068,-31.716,32,0.053,7645,3.553,109.1291
lg,1624908706379194908,0,0.0308,-0.6965,0.8137,198,-44.3726,102.5391,-27.8931,83,1.3657,1.1636,-28.0917,-32.071,32,0.05,7453,3.553,105.7312
lg,1624908706379243593,0,-0.2866,-0.7478,0.7271,199,-46.3867,31.3721,-18.7988,83,1.3647,1.1636,-25.9137,-33.8158,32,0.048,7390,3.553,104.5047
lg,1624908706379295648,0,-0.2786,-0.5908,0.7019,200,-46.936,-19.7144,-13.7939,83,1.3647,1.1636,-26.6767,-36.7955,32,0.051,8774,3.553,105.9118
lg,1624908706379345519,0,0.0503,-0.6155,0.6733,201,-65.6128,-93.6279,4.8828,83,1.3627,1.1616,-28.5415,-40.9464,32,0.05,7487,3.553,108.8178
lg,1624908706379391592,0,0.5889,-0.7881,1.0283,202,-68.6035,-117.8589,16.4795,83,1.3607,1.1586,-31.3316,-45.6631,32,0.052,7474,3.553,113.03
lg,1624908706379443333,0,0.2952,-0.1624,0.1006,203,27.9541,-54.6875,-22.8271,83,1.3607,1.1586,-34.4956,-45.4535,32,0.051,10111,3.553,114.2954
lg,1624908706379493018,0,0.116,0.1067,0.4209,204,-2.0752,-42.1143,-5.3711,83,1.3607,1.1596,-35.6744,-43.9372,32,0.052,7549,3.553,114.2372
lg,1624908706379539554,0,0.5415,-0.3835,0.4849,205,-67.1387,-94.5435,32.0435,83,1.3607,1.1596,-37.5459,-49.1007,32,0.052,7598,3.553,118.6489
lg,1624908706379645720,0,0.8706,-0.6836,0.8149,206,-85.6934,-100.4639,42.1753,83,1.3617,1.1606,-38.7326,-55.758,32,0.052,7606,3.553,123.9749
lg,1624908706379702479,0,1.2676,-1.2307,0.9294,207,-43.0298,-31.8604,24.4751,83,1.3617,1.1616,-38.6166,-58.6346,32,0.052,7640,3.553,125.9504
lg,1624908706379750701,0,0.7427,-0.8782,0.8137,208,9.7656,73.7305,1.8921,83,1.3627,1.1626,-36.7167,-55.8585,32,0.053,7737,3.553,122.5484
lg,1624908706379799442,0,0.4568,-0.9119,0.8101,209,25.4517,88.501,-14.2822,83,1.3637,1.1636,-34.4854,-52.2037,32,0.054,7678,3.553,118.4118
lg,1624908706379846423,0,0.116,-0.895,0.7271,210,62.3169,72.4487,-36.6211,83,1.3647,1.1636,-32.6549,-47.5719,32,0.052,7668,3.553,114.6258
lg,1624908706379892311,0,-0.0107,-0.8596,0.6753,211,78.125,55.8472,-42.5415,83,1.3667,1.1656,-31.3547,-43.0595,32,0.05,7732,3.553,112.5359
lg,1624908706379940200,0,0.1631,-0.6406,0.7625,212,71.228,-31.311,-12.9395,83,1.3667,1.1656,-31.7696,-40.3568,32,0.048,12226,3.553,113.0112
lg,1624908706380157088,0,0.8315,-0.2827,0.4609,213,24.7803,-81.0547,2.9907,83,1.3667,1.1666,-35.1051,-40.5833,32,0.05,8884,3.553,115.5263
lg,1624908706380324420,0,1.1226,-0.509,0.7219,214,-12.146,-58.96,9.8877,83,1.3657,1.1666,-37.2467,-42.2595,32,0.05,7801,3.553,117.7447
lg,1624908706380390216,0,1.0063,-0.7673,0.6838,215,-29.6021,27.71,-14.8926,83,1.3657,1.1666,-37.1151,-42.7393,32,0.051,7839,3.553,116.3736
lg,1624908706380442901,0,0.1367,-0.772,0.9163,216,-29.4189,115.7227,-30.5176,83,1.3647,1.1656,-33.3454,-40.9582,32,0.05,7913,3.553,111.4066
lg,1624908706380494104,0,-0.1326,-0.6882,0.6001,217,-20.2637,109.9243,-34.0576,83,1.3637,1.1636,-29.4003,-39.7586,32,0.052,8635,3.553,107.0646
lg,1624908706380725195,0,-0.4302,-1.1008,1.1348,218,-7.9956,13.855,-32.5317,83,1.3627,1.1616,-28.2123,-39.5155,32,0.052,8356,3.553,105.614
lg,1624908706380773584,0,-0.1978,-0.4495,0.2026,219,83.0688,-100.8301,-39.5508,83,1.3627,1.1606,-30.689,-38.01,32,0.052,7973,3.553,107.6444
lg,1624908706380818917,0,0.21,0.1421,0.3162,220,66.2842,-136.4746,-19.5923,83,1.3627,1.1606,-36.0282,-35.024,32,0.053,7961,3.553,109.714
lg,1624908706380865528,0,0.7747,0.0693,0.3047,221,-8.0566,-125.5493,6.7749,83,1.3627,1.1606,-41.2592,-37.0935,32,0.053,7993,3.553,113.3433
lg,1624908706380910398,0,0.8887,-0.6055,0.645,222,-50.9644,-49.8047,17.1509,83,1.3617,1.1606,-42.5071,-40.9523,32,0.053,8000,3.553,115.9046
lg,1624908706380954490,0,0.7761,-0.802,0.7927,223,-43.7622,0.4272,3.2349,83,1.3627,1.1606,-42.0856,-42.9491,32,0.054,11167,3.553,116.1344
lg,1624908706381002119,0,0.7356,-0.7756,0.7495,224,-23.0713,24.5361,-13.7939,83,1.3627,1.1626,-41.4335,-43.0275,32,0.054,8478,3.553,114.7715
lg,1624908706720204176,0,0.2383,-0.8726,0.8174,225,43.5791,49.6216,-38.3911,83,1.3677,1.1646,-39.8221,-39.3882,32,0.052,25367,3.553,111.6897
lg,1624908706720298990,0,0.0742,-0.7449,0.6055,226,80.1392,-8.9111,-42.3584,83,1.3677,1.1656,-39.8528,-35.8664,32,0.051,10578,3.553,110.6538
lg,1624908706720351064,0,0.3625,-0.7476,0.645,227,77.8198,-37.6587,-34.4238,83,1.3677,1.1656,-41.7348,-34.0967,32,0.052,7434,3.553,111.7626
lg,1624908706720400526,0,0.5256,-0.7732,0.7053,228,71.106,-74.707,-23.5596,83,1.3677,1.1666,-44.1678,-32.7098,32,0.049,7426,3.553,113.3875
lg,1624908706720506155,0,0.8164,-0.5381,0.6541,229,72.2046,-64.209,-20.874,83,1.3677,1.1666,-46.7596,-30.7489,32,0.048,7372,3.553,114.4976
lg,1624908706720557803,0,0.8752,-0.4373,0.623,230,59.9976,-50.2319,-23.2544,83,1.3687,1.1666,-49.0271,-28.7238,32,0.05,7452,3.553,114.9013
lg,1624908706720603377,0,0.8125,-0.4697,0.5364,231,39.1235,-16.8457,-29.7852,83,1.3687,1.1666,-50.1754,-26.7833,32,0.052,9496,3.553,114.1315
lg,1624908706720650192,0,0.6099,-0.468,0.5776,232,10.437,16.2354,-33.5083,83,1.3687,1.1656,-49.7782,-25.1644,32,0.052,8013,3.553,112.255
lg,1624908706720696080,0,0.4951,-0.6189,0.6257,233,-4.1504,23.3154,-33.3252,83,1.3687,1.1646,-48.473,-24.7401,32,0.052,7549,3.553,110.7746
lg,1624908706720739339,0,0.3455,-1.0225,0.824,234,-2.7466,23.9868,-27.1606,83,1.3647,1.1616,-46.9658,-24.7649,32,0.053,7578,3.553,109.7949
lg,1624908706720794505,0,0.4961,-0.8833,0.8857,235,25.3906,-3.0518,-27.4658,83,1.3627,1.1556,-46.6456,-23.8025,32,0.052,11373,3.553,109.1923
lg,1624908706720840894,0,0.4812,-0.6086,0.4106,236,127.8076,-6.958,-71.8384,83,1.3617,1.1526,-47.6274,-17.4187,32,0.052,7590,3.553,106.4875
lg,1624908706720885894,0,0.4946,-0.2302,0.158,237,134.9487,18.1274,-68.9087,83,1.3607,1.1506,-47.8153,-8.378,32,0.053,7597,3.553,101.8258
lg,1624908706720930042,0,0.4817,-0.0615,0.2244,238,97.4121,38.6963,-45.9595,83,1.3607,1.1496,-47.0943,-2.4828,32,0.052,7672,3.553,98.973
lg,1624908706720976375,0,0.5781,-0.0918,0.3635,239,63.5376,57.0679,-25.4517,83,1.3607,1.1486,-45.2441,0.7945,32,0.052,7685,3.553,97.6998
lg,1624908706721021930,0,0.6187,-0.1514,0.3657,240,52.6733,75.6836,-18.5547,83,1.3607,1.1486,-42.7552,2.852,32,0.052,8315,3.553,97.27
lg,1624908706721065393,0,0.4148,-0.3337,0.4644,241,37.1094,108.5815,-16.0522,83,1.3597,1.1496,-38.4067,3.1741,32,0.052,8529,3.553,97.7625
lg,1624908706721110652,0,0.3157,-0.2957,0.4519,242,36.0718,110.5347,-24.1699,83,1.3607,1.1506,-33.8726,3.6847,32,0.052,7724,3.553,97.7986
lg,1624908706721157188,0,0.259,-0.3687,0.5688,243,34.0576,102.6611,-34.2407,83,1.3597,1.1516,-29.236,4.0117,32,0.051,7719,3.553,97.4776
lg,1624908706721199262,0,0.1909,-0.5,0.6541,244,49.6216,67.5049,-61.0352,83,1.3607,1.1516,-25.9973,5.4937,32,0.052,7774,3.553,95.8031
lg,1624908706721282539,0,0.1677,-0.5144,0.7561,245,75.2563,38.147,-84.7778,83,1.3607,1.1526,-23.7063,8.3888,31,0.053,7738,3.553,93.0037
lg,1624908706721335947,0,0.0903,-0.5298,0.7283,246,91.0034,24.231,-97.9614,83,1.3617,1.1526,-21.6434,11.8362,31,0.054,7771,3.553,89.7187
lg,1624908706721377928,0,0.0559,-0.416,0.7747,247,132.3853,-6.6528,-114.624,83,1.3627,1.1536,-20.2667,17.264,31,0.055,7815,3.553,85.5052
lg,1624908706721427890,0,0.0354,-0.3762,0.759,248,144.7144,-22.2168,-120.9717,83,1.3627,1.1546,-19.0731,23.0837,31,0.056,7838,3.553,80.9658
lg,1624908706721473538,0,0.1497,-0.3679,0.8035,249,158.8745,-54.6875,-123.4741,83,1.3647,1.1546,-18.7332,29.5071,32,0.056,7829,3.553,75.8524
lg,1624908706721523705,0,0.3433,-0.2761,0.8145,250,169.8608,-73.9746,-127.0752,83,1.3657,1.1556,-18.805,36.6145,32,0.056,7875,3.553,70.1738
lg,1624908706721567760,0,0.4465,-0.2429,0.8374,251,173.4619,-76.355,-130.9204,83,1.3657,1.1566,-18.3601,43.8475,32,0.056,7911,3.553,64.4002
lg,1624908706721615778,0,0.5381,-0.2468,0.9092,252,183.3496,-65.7959,-143.4937,83,1.3667,1.1566,-16.6802,51.2303,32,0.055,7940,3.553,58.8322
lg,1624908706721658333,0,0.5081,-0.1841,0.8926,253,200.0732,-56.4575,-160.6445,83,1.3667,1.1566,-13.5425,58.8845,32,0.056,7972,3.553,53.6025
lg,1624908706721705926,0,0.4814,-0.0996,0.854,254,205.7495,-56.7627,-169.3115,83,1.3667,1.1566,-9.4967,66.307,32,0.055,8019,3.553,48.7703
lg,1624908706721752740,0,0.4761,-0.0496,0.8704,255,210.083,-60.4248,-184.2041,83,1.3667,1.1566,-4.4052,73.4012,32,0.056,7980,3.553,44.2166
lg,1624908706721803981,0,0.5303,-0.0574,0.9023,256,212.8906,-63.4155,-190.3076,83,1.3657,1.1566,1.5307,80.2287,32,0.058,8002,3.553,40.0251
lg,1624908707058882552,0,0.6074,-0.0005,0.8701,257,243.2861,-32.8979,-212.8906,83,1.3607,1.1536,8.5153,87.8985,32,0.057,24647,3.553,37.7298
lg,1624908707059016348,0,0.3726,0.1301,0.7688,258,265.686,8.2397,-210.5103,83,1.3557,1.1546,15.8512,96.5787,32,0.056,16294,3.553,38.0463
lg,1624908707059073422,0,0.2507,0.2148,0.7549,259,278.6255,7.3242,-195.8008,83,1.3537,1.1546,22.7029,106.0592,32,0.055,7815,3.553,39.3141
lg,1624908707059122977,0,0.2627,0.2751,0.7217,260,285.5225,2.8687,-184.9365,83,1.3507,1.1546,28.6582,116.4619,32,0.055,7403,3.553,41.4425
lg,1624908707059170884,0,0.3228,0.4812,0.572,261,289.917,-12.6343,-168.0298,83,1.3487,1.1536,33.6451,127.5132,32,0.055,7436,3.553,43.8625
lg,1624908707059216976,0,0.3752,0.6882,0.4507,262,282.1655,-13.9771,-158.9355,83,1.3457,1.1526,37.2567,138.3533,32,0.055,7499,3.553,46.8814
lg,1624908707059263032,0,0.4011,0.7415,0.4343,263,248.4131,-13.9771,-138.4888,83,1.3437,1.1526,40.0608,148.9464,32,0.054,8046,3.553,50.4898
lg,1624908707059308124,0,0.5305,0.7695,0.5371,264,208.1299,-24.353,-125.2441,83,1.3397,1.1526,42.4658,158.1697,32,0.055,7830,3.553,54.1113
lg,1624908707059442530,0,0.4897,0.7478,0.5896,265,194.7021,-8.1787,-117.8589,83,1.3377,1.1516,43.882,167.427,32,0.053,7522,3.553,58.3096
lg,1624908707059986212,0,0.4524,0.7488,0.6138,266,176.9409,7.9346,-93.75,83,1.3357,1.1516,44.158,175.6071,32,0.051,7546,3.553,61.7537
lg,1624908707060042934,0,0.4326,0.7832,0.6348,267,163.208,10.1318,-77.0874,83,1.3337,1.1506,44.0587,-177.2263,32,0.05,7869,3.553,64.4001
lg,1624908707060092415,0,0.4309,0.7839,0.6353,268,156.4331,9.0942,-70.0073,83,1.3327,1.1506,43.7944,-170.4472,32,0.049,7599,3.553,66.7288
lg,1624908707060140600,0,0.4338,0.7847,0.6377,269,142.2119,8.2397,-56.5796,83,1.3327,1.1506,43.479,-164.5894,32,0.049,7616,3.553,68.3889
lg,1624908707060187267,0,0.4314,0.7598,0.6472,270,136.5967,6.3477,-50.9033,83,1.3327,1.1506,43.2094,-158.8623,32,0.047,7621,3.553,69.9206
lg,1624908707060236507,0,0.4001,0.7224,0.6726,271,127.0142,1.5869,-41.4429,83,1.3327,1.1506,43.1953,-153.6041,32,0.047,7615,3.553,71.139
lg,1624908707060282470,0,0.3662,0.687,0.7256,272,122.4976,-7.5684,-33.9966,83,1.3317,1.1506,43.6518,-148.2536,32,0.046,7683,3.553,72.4363
lg,1624908707060329673,0,0.3557,0.6882,0.7253,273,120.6055,-14.2822,-29.9683,83,1.3337,1.1506,44.3594,-142.7156,32,0.046,7651,3.553,73.8959
lg,1624908707060374265,0,0.3318,0.6829,0.7834,274,121.0327,-29.1138,-22.4609,83,1.3337,1.1506,45.6894,-136.5666,32,0.044,7663,3.553,75.8616
lg,1624908707060418932,0,0.3315,0.6572,0.8298,275,123.4131,-35.5835,-19.2261,83,1.3337,1.1516,47.4391,-129.3221,31,0.045,7765,3.553,78.6104
lg,1624908707060462691,0,0.3271,0.6689,0.876,276,132.9956,-48.0347,-12.207,83,1.3347,1.1516,49.2463,-121.0488,31,0.044,7723,3.553,82.0718
lg,1624908707060505820,0,0.2971,0.6494,0.9868,277,147.2778,-57.5562,-5.5542,83,1.3337,1.1516,51.1394,-110.9213,31,0.044,7769,3.553,86.7413
lg,1624908707060550190,0,0.2878,0.6772,1.0361,278,157.2266,-62.3169,-3.418,83,1.3347,1.1516,52.6364,-99.2516,31,0.044,7780,3.553,92.519
lg,1624908707060593134,0,0.3118,0.6953,1.1057,279,185.73,-77.0264,-0.3662,81,1.3347,1.1516,53.4326,-84.8283,32,0.044,7847,3.553,100.0176
lg,1624908707060691375,0,0.4199,0.8247,0.9756,280,216.0645,-84.5337,1.77,81,1.3367,1.1516,53.1382,-68.7185,32,0.043,8254,3.553,108.0678
lg,1624908707060741059,0,0.5151,1.0105,0.7344,281,230.4077,-83.6182,-0.6714,81,1.3367,1.1526,51.7166,-52.8186,32,0.043,7852,3.553,115.248
lg,1624908707060784541,0,0.5391,1.1106,0.5884,282,228.5156,-80.9937,-3.2349,81,1.3377,1.1526,49.3401,-38.0592,32,0.043,8035,3.553,121.1104
lg,1624908707060826540,0,0.6113,1.2854,0.3569,283,197.6318,-72.5098,-8.667,81,1.3377,1.1526,46.5638,-25.9869,32,0.043,7998,3.553,125.1387
lg,1624908707060867299,0,0.6577,1.3411,0.2722,284,143.2495,-56.5186,-13.4888,81,1.3387,1.1526,43.8721,-17.1717,32,0.042,7908,3.553,127.6322
lg,1624908707060910355,0,0.6543,1.2979,0.2495,285,115.3564,-48.584,-17.2119,81,1.3387,1.1516,41.1852,-10.0682,32,0.042,7988,3.553,129.215
lg,1624908707060953317,0,0.583,1.2412,0.2949,286,66.2231,-31.7993,-22.9492,81,1.3387,1.1526,38.9729,-5.3876,32,0.041,7982,3.553,129.9979
lg,1624908707060998632,0,0.5166,1.2432,0.2837,287,27.2217,-22.3389,-26.5503,81,1.3387,1.1526,37.1507,-2.4534,32,0.041,8019,3.553,130.3839
lg,1624908707061042558,0,0.4846,1.2468,0.2954,288,7.4463,-21.1792,-28.9307,81,1.3387,1.1516,35.3785,-0.4163,32,0.041,8028,3.553,130.5313
lg,1624908707412871348,0,0.459,1.1204,0.4241,289,-69.8853,-18.6157,-36.5601,81,1.3387,1.1526,33.5385,-1.7769,32,0.04,25273,3.553,130.1976
lg,1624908707412990366,0,0.4292,1.0764,0.4575,290,-94.2993,-19.4092,-39.6729,81,1.3397,1.1526,31.6323,-4.1523,32,0.039,14031,3.553,129.7033
lg,1624908707413046218,0,0.4272,1.0652,0.4695,291,-100.0977,-19.5312,-39.3677,81,1.3387,1.1526,29.6947,-6.6821,32,0.039,7478,3.553,129.2268
lg,1624908707413097884,0,0.3916,1.0344,0.4839,292,-109.1919,-22.583,-38.6353,81,1.3397,1.1526,27.64,-9.4671,32,0.038,7605,3.553,128.8147
lg,1624908707413147662,0,0.3931,1.0017,0.4668,293,-112.854,-22.9492,-38.269,81,1.3397,1.1526,25.5409,-12.3151,32,0.037,7387,3.553,128.4326
lg,1624908707413196995,0,0.3879,0.9712,0.459,294,-117.1265,-26.4893,-36.438,81,1.3397,1.1526,23.2927,-15.2166,32,0.035,7479,3.553,128.1747
lg,1624908707413253383,0,0.3914,0.9099,0.4539,295,-118.103,-30.5176,-33.5083,81,1.3397,1.1526,20.8548,-18.0519,32,0.034,8520,3.553,128.0864
lg,1624908707413300124,0,0.3711,0.8975,0.448,296,-117.5537,-31.1279,-32.3486,81,1.3397,1.1536,18.4284,-20.7827,32,0.033,7460,3.5552,128.0563
lg,1624908707413423345,0,0.3652,0.8652,0.425,297,-116.394,-33.1421,-30.3955,81,1.3397,1.1536,15.9408,-23.4006,32,0.033,7445,3.5552,128.1257
lg,1624908707413476567,0,0.3638,0.8354,0.4185,298,-115.5396,-35.0952,-29.2969,81,1.3397,1.1536,13.3369,-25.9078,32,0.034,8597,3.5552,128.3122
lg,1624908707413521344,0,0.3494,0.7947,0.4021,299,-113.5864,-39.3677,-26.6113,81,1.3397,1.1536,10.6333,-28.3282,32,0.035,9425,3.5552,128.5988
lg,1624908707413568418,0,0.3594,0.7637,0.4109,300,-109.436,-44.4336,-25.5127,81,1.3397,1.1536,7.7474,-30.5686,32,0.035,7575,3.5552,128.9982
lg,1624908707413614659,0,0.3806,0.7329,0.4248,301,-106.5674,-46.875,-24.5361,81,1.3397,1.1536,4.6677,-32.5672,32,0.035,7522,3.5552,129.52
lg,1624908707413693455,0,0.3911,0.6997,0.4207,302,-99.4873,-50.8423,-23.3765,81,1.3407,1.1536,1.4956,-34.4668,32,0.034,7558,3.5552,130.0506
lg,1624908707413745788,0,0.4102,0.6819,0.428,303,-91.7358,-52.7344,-22.4609,81,1.3397,1.1536,-1.7623,-36.1063,32,0.034,7573,3.5552,130.6059
lg,1624908707413793824,0,0.4307,0.6714,0.4302,304,-87.0361,-52.4292,-21.8506,81,1.3397,1.1536,-5.0376,-37.6149,31,0.034,7588,3.5552,131.12
lg,1624908707413845417,0,0.4465,0.6633,0.4287,305,-78.0029,-50.1099,-21.9116,81,1.3397,1.1536,-8.2747,-38.809,31,0.034,7584,3.5552,131.5131
lg,1624908707414582079,0,0.4607,0.6509,0.4314,306,-73.9746,-48.7061,-22.0337,81,1.3397,1.1536,-11.4593,-39.6841,31,0.033,7616,3.5552,131.7311
lg,1624908707414840873,0,0.4741,0.6604,0.4495,307,-59.7534,-43.2739,-23.1323,81,1.3387,1.1526,-14.5469,-40.1655,31,0.033,7722,3.5552,131.7499
lg,1624908707414891392,0,0.48,0.6182,0.4519,308,-54.5044,-42.1753,-23.0713,81,1.3397,1.1536,-17.6244,-40.4531,31,0.032,7654,3.5552,131.652
lg,1624908707414940280,0,0.5022,0.6394,0.4617,309,-43.7012,-38.5132,-25.5127,81,1.3397,1.1536,-20.6594,-40.2487,31,0.032,8335,3.5552,131.2666
lg,1624908707414988243,0,0.4924,0.6213,0.4775,310,-33.2642,-33.5083,-27.71,81,1.3387,1.1536,-23.5494,-39.4996,31,0.032,7785,3.5552,130.531
lg,1624908707415056205,0,0.4944,0.6052,0.4749,311,-27.6489,-31.9214,-27.8931,81,1.3397,1.1536,-26.3731,-38.4567,31,0.032,7725,3.5552,129.6004
lg,1624908707416266402,0,0.489,0.5942,0.4753,312,-17.8833,-27.4048,-29.6021,81,1.3397,1.1536,-29.0417,-36.8584,32,0.031,7884,3.5552,128.314
lg,1624908707416351197,0,0.488,0.6016,0.4709,313,-7.5073,-24.231,-29.6021,81,1.3397,1.1536,-31.5444,-34.6943,32,0.032,7817,3.5552,126.749
lg,1624908707416404679,0,0.4897,0.5854,0.4612,314,-3.3569,-22.1558,-29.4189,81,1.3407,1.1536,-33.9046,-32.2401,32,0.031,7880,3.5552,124.948
lg,1624908707416463863,0,0.469,0.5801,0.467,315,5.6763,-20.9351,-29.1138,81,1.3397,1.1536,-36.0639,-29.2613,32,0.031,7851,3.5552,122.9082
lg,1624908707416519678,0,0.4736,0.5889,0.4543,316,9.6436,-20.0195,-28.6255,81,1.3407,1.1536,-38.038,-25.8515,32,0.031,7842,3.5552,120.6833
lg,1624908707416570400,0,0.4771,0.605,0.4675,317,17.2119,-19.2871,-27.4658,81,1.3397,1.1536,-39.8449,-22.1584,32,0.032,7899,3.5552,118.256
lg,1624908707416619659,0,0.4712,0.6047,0.4644,318,24.231,-19.043,-25.5127,81,1.3397,1.1536,-41.4466,-18.1159,32,0.03,7946,3.5552,115.7193
lg,1624908707416667029,0,0.4946,0.6191,0.4675,319,29.6631,-19.043,-24.1089,81,1.3407,1.1536,-42.8904,-13.8165,32,0.031,10292,3.5552,113.0872
lg,1624908707416718103,0,0.501,0.6399,0.4807,320,34.9731,-18.9209,-22.8882,81,1.3407,1.1536,-44.1224,-9.2553,31,0.032,8034,3.5552,110.3561
lg,1624908707737754417,0,0.5488,0.698,0.4834,321,42.9077,-16.9067,-19.104,81,1.3397,1.1526,-45.1349,-4.4421,31,0.031,24785,3.5552,107.6798
lg,1624908707737806046,0,0.5718,0.7261,0.4902,322,45.2271,-13.0615,-17.2119,81,1.3377,1.1536,-45.8219,0.4397,31,0.031,12097,3.5552,104.9979
lg,1624908707737830287,0,0.5588,0.7681,0.4951,323,47.7295,-6.3477,-13.6108,81,1.3397,1.1536,-46.0518,5.2505,31,0.031,11423,3.5552,102.5018
lg,1624908707737852287,0,0.5444,0.7629,0.4939,324,47.5464,-4.3335,-11.7798,81,1.3397,1.1536,-46.049,9.8577,31,0.032,7375,3.5552,100.1912
lg,1624908707737874342,0,0.5374,0.7881,0.4827,325,48.0347,-0.7935,-8.0566,81,1.3397,1.1526,-45.8204,14.2166,31,0.033,7421,3.5552,98.194
lg,1624908707737894527,0,0.5291,0.7927,0.4885,326,47.5464,0.6714,-5.9204,81,1.3397,1.1536,-45.4485,18.2912,31,0.032,7556,3.5552,96.4676
lg,1624908707737914749,0,0.5234,0.8198,0.4744,327,45.5322,3.2349,-1.77,81,1.3397,1.1536,-44.9748,21.9896,31,0.033,8180,3.5552,95.1025
lg,1624908707737934749,0,0.5142,0.8164,0.4878,328,42.1143,4.6387,1.8921,81,1.3397,1.1536,-44.4402,25.2081,31,0.031,8295,3.5552,94.1112
lg,1624908707737955471,0,0.4961,0.8257,0.498,329,41.687,3.7842,4.1504,81,1.3407,1.1536,-43.9608,28.1041,31,0.032,8079,3.5552,93.4081
lg,1624908707737973767,0,0.4954,0.8362,0.5095,330,38.4521,3.479,7.6904,81,1.3397,1.1536,-43.4908,30.7222,31,0.031,7537,3.5552,92.8955
lg,1624908707737992452,0,0.4863,0.833,0.4885,331,35.2783,2.5024,11.4136,81,1.3407,1.1536,-43.1417,33.0424,31,0.031,7554,3.5552,92.5847
lg,1624908707738010934,0,0.4829,0.8406,0.4834,332,34.2407,1.6479,13.4277,81,1.3407,1.1536,-42.8665,35.2048,31,0.031,7587,3.5552,92.3897
lg,1624908707738029804,0,0.4641,0.8428,0.5054,333,30.2734,2.5024,16.6626,81,1.3407,1.1536,-42.5922,36.972,31,0.03,7631,3.5552,92.4459
lg,1624908707738047915,0,0.488,0.8511,0.4851,334,28.3203,2.3193,18.1885,81,1.3407,1.1536,-42.4277,38.594,31,0.032,7646,3.5552,92.576
lg,1624908707738067433,0,0.4597,0.8352,0.4856,335,24.5972,3.54,20.5688,81,1.3407,1.1536,-42.2531,39.9001,31,0.031,7687,3.5552,92.8913
lg,1624908707738087193,0,0.458,0.821,0.4851,336,20.4468,4.3335,22.7051,81,1.3407,1.1536,-42.1256,40.8937,31,0.029,7645,3.5552,93.3644
lg,1624908707738104896,0,0.4531,0.8303,0.4707,337,18.5547,5.249,22.8271,81,1.3407,1.1536,-41.9765,41.7581,32,0.029,8178,3.5552,93.8899
lg,1624908707738122100,0,0.4495,0.8132,0.4775,338,15.9912,6.4087,23.6206,81,1.3407,1.1536,-41.8285,42.4396,32,0.029,7913,3.5552,94.5069
lg,1624908707738139951,0,0.4675,0.8188,0.4785,339,14.4043,7.2632,23.1323,81,1.3407,1.1546,-41.6822,43.026,32,0.03,7789,3.5552,95.1495
lg,1624908707738198729,0,0.4465,0.8196,0.4797,340,12.6953,8.2397,23.5596,81,1.3407,1.1536,-41.4614,43.4706,32,0.029,7721,3.5552,95.8706
lg,1624908707738223969,0,0.4419,0.8169,0.4812,341,11.4746,10.376,22.644,81,1.3407,1.1536,-41.1857,43.8418,31,0.031,7805,3.5552,96.6308
lg,1624908707738242432,0,0.4133,0.7947,0.4705,342,10.6201,12.3291,22.0947,81,1.3417,1.1536,-40.8196,44.1348,31,0.03,7839,3.5552,97.4506
lg,1624908707738261210,0,0.4124,0.8022,0.4788,343,9.8877,12.4512,21.8506,81,1.3417,1.1536,-40.4345,44.377,31,0.031,7881,3.5552,98.2843
lg,1624908707738279821,0,0.3948,0.791,0.4958,344,10.3149,12.7563,20.752,81,1.3407,1.1536,-39.9992,44.6114,31,0.032,7880,3.5552,99.1198
lg,1624908707738298302,0,0.3845,0.7964,0.4802,345,10.8032,12.3901,19.8975,81,1.3407,1.1536,-39.558,44.9401,32,0.032,7872,3.5552,99.8836
lg,1624908707738316524,0,0.3809,0.783,0.4971,346,11.2915,12.085,19.104,81,1.3407,1.1536,-39.1106,45.2469,32,0.032,7918,3.5552,100.6532
lg,1624908707738337524,0,0.3723,0.7881,0.4817,347,12.5732,12.0239,18.3105,81,1.3417,1.1536,-38.6537,45.665,32,0.033,7937,3.5552,101.3691
lg,1624908707738355506,0,0.3782,0.7788,0.481,348,14.1602,11.4746,17.1509,81,1.3417,1.1536,-38.2176,46.1593,32,0.031,7985,3.5552,102.0423
lg,1624908707738452838,0,0.3669,0.78,0.4927,349,14.7705,11.4136,16.9678,81,1.3417,1.1536,-37.7675,46.645,31,0.031,7958,3.5552,102.733
lg,1624908707738495449,0,0.3625,0.7896,0.4951,350,15.8691,10.437,16.1133,81,1.3407,1.1536,-37.3255,47.2101,31,0.031,7995,3.5552,103.3631
lg,1624908707738516449,0,0.3484,0.791,0.4897,351,17.334,9.8267,15.0146,81,1.3417,1.1536,-36.8633,47.8688,31,0.031,8035,3.5552,103.936
lg,1624908707738536468,0,0.3425,0.7947,0.4897,352,18.3105,8.728,15.1367,81,1.3417,1.1536,-36.4428,48.5719,31,0.031,7965,3.5552,104.4835
lg,1624908708072291706,0,0.3572,0.8096,0.489,353,20.9351,5.127,12.3291,81,1.3377,1.1506,-36.0756,49.5098,31,0.032,25078,3.5552,104.8078
lg,1624908708072328169,0,0.364,0.8062,0.512,354,21.8506,3.2349,9.5215,81,1.3417,1.1536,-35.6918,50.4831,32,0.032,14736,3.5552,105.0272
lg,1624908708072371928,0,0.3574,0.8281,0.4995,355,21.9116,3.1128,8.606,81,1.3417,1.1536,-35.2818,51.4994,32,0.032,7518,3.5552,105.2003
lg,1624908708072395279,0,0.3772,0.8247,0.4988,356,21.5454,3.54,7.1411,81,1.3417,1.1536,-34.8752,52.4699,32,0.033,9085,3.5552,105.3723
lg,1624908708072414909,0,0.3711,0.8315,0.4893,357,21.4233,3.418,5.7983,81,1.3417,1.1536,-34.4357,53.4521,32,0.033,7377,3.5552,105.5052
lg,1624908708072433409,0,0.3584,0.8242,0.4946,358,19.7144,3.7231,5.4321,81,1.3417,1.1536,-33.9727,54.303,31,0.033,8820,3.5552,105.6753
lg,1624908708072451075,0,0.3606,0.8296,0.4924,359,18.5547,4.0894,4.5166,81,1.3417,1.1536,-33.4936,55.0908,31,0.032,7348,3.5552,105.8475
lg,1624908708072468742,0,0.3499,0.824,0.5059,360,17.2729,2.9907,3.9062,81,1.3417,1.1536,-33.0156,55.7904,31,0.032,7434,3.5552,105.9991
lg,1624908708072486279,0,0.3572,0.8364,0.4988,361,16.7847,1.6479,3.6011,81,1.3417,1.1536,-32.5874,56.5071,31,0.033,7657,3.5552,106.0879
lg,1624908708072575075,0,0.3604,0.8274,0.4973,362,15.0757,-1.0986,2.3193,81,1.3417,1.1536,-32.2062,57.1927,32,0.032,7478,3.5552,106.0553
lg,1624908708072597982,0,0.3584,0.8191,0.4966,363,13.6108,-1.77,2.5635,81,1.3417,1.1546,-31.8774,57.758,32,0.031,7761,3.5552,105.9855
lg,1624908708072617593,0,0.3689,0.8381,0.4922,364,11.6577,-4.0283,1.77,81,1.3427,1.1536,-31.5786,58.3479,32,0.032,7683,3.5552,105.8358
lg,1624908708072635482,0,0.3762,0.8391,0.4985,365,10.5591,-5.3711,0.8545,81,1.3427,1.1536,-31.2982,58.8952,32,0.032,7525,3.5552,105.629
lg,1624908708072652722,0,0.3767,0.8223,0.4866,366,8.9722,-5.0659,0.3662,81,1.3427,1.1546,-31.0217,59.3592,32,0.031,7482,3.5552,105.4318
lg,1624908708072670093,0,0.3838,0.8269,0.4988,367,6.7139,-4.7607,0.2441,81,1.3427,1.1546,-30.7506,59.6871,32,0.03,7488,3.5552,105.2644
lg,1624908708072687870,0,0.3875,0.823,0.4902,368,5.188,-4.8828,-0.4883,81,1.3427,1.1546,-30.4822,59.9773,32,0.031,7523,3.5552,105.0681
lg,1624908708072705111,0,0.3855,0.8203,0.4915,369,4.5776,-6.1035,-0.7324,81,1.3427,1.1546,-30.2347,60.2386,32,0.032,7544,3.5552,104.833
lg,1624908708072744666,0,0.3921,0.8062,0.4893,370,2.6855,-5.8594,-2.1362,81,1.3427,1.1536,-29.9674,60.4098,32,0.031,7603,3.5552,104.5881
lg,1624908708072763536,0,0.3972,0.8101,0.4839,371,2.8076,-6.5918,-2.6245,81,1.3427,1.1546,-29.7169,60.6147,32,0.031,7583,3.5552,104.2979
lg,1624908708072791351,0,0.4119,0.8196,0.4946,372,1.77,-7.1411,-3.54,81,1.3427,1.1546,-29.472,60.7786,32,0.031,7604,3.5552,103.975
lg,1624908708072807999,0,0.4146,0.7937,0.48,373,1.5869,-6.7139,-4.2725,81,1.3427,1.1536,-29.234,60.9248,32,0.03,7612,3.5552,103.6576
lg,1624908708073014165,0,0.4097,0.8059,0.4883,374,0.6714,-6.5308,-4.6997,81,1.3417,1.1546,-28.9635,61.0254,32,0.03,7702,3.5552,103.3427
lg,1624908708073034331,0,0.4104,0.804,0.4834,375,0.7324,-6.897,-5.0659,81,1.3427,1.1536,-28.6924,61.1256,32,0.031,7607,3.5552,103.0419
lg,1624908708073054109,0,0.4326,0.8037,0.4746,376,0.7935,-5.7983,-5.3101,81,1.3427,1.1536,-28.4607,61.2394,32,0.03,7714,3.5552,102.7346
lg,1624908708073072794,0,0.4312,0.8086,0.4705,377,1.9531,-5.8594,-4.7607,81,1.3417,1.1536,-28.2527,61.4039,32,0.03,9319,3.5552,102.4324
lg,1624908708073090423,0,0.4248,0.7976,0.4824,378,1.2207,-5.7983,-4.8828,81,1.3417,1.1536,-28.0381,61.4912,32,0.03,10458,3.5552,102.1528
lg,1624908708073138627,0,0.4277,0.8025,0.4807,379,2.4414,-7.0801,-4.3945,81,1.3417,1.1536,-27.8754,61.6516,32,0.031,7759,3.5552,101.8297
lg,1624908708073155979,0,0.4321,0.7996,0.479,380,2.0752,-7.0801,-4.0283,81,1.3417,1.1536,-27.7539,61.845,32,0.031,7837,3.5552,101.4915
lg,1624908708073172886,0,0.4221,0.7959,0.4744,381,2.0142,-8.1177,-3.8452,81,1.3417,1.1536,-27.6362,61.9911,32,0.03,7786,3.5552,101.1434
lg,1624908708073190071,0,0.427,0.791,0.4607,382,2.1973,-8.1787,-2.4414,81,1.3417,1.1536,-27.593,62.1493,32,0.03,7817,3.5552,100.8139
lg,1624908708073206719,0,0.4277,0.7944,0.4712,383,2.3193,-8.9111,-1.8311,81,1.3427,1.1536,-27.594,62.2696,32,0.03,9075,3.5552,100.4852
lg,1624908708073223608,0,0.4368,0.7815,0.4753,384,1.8311,-8.606,-1.4648,81,1.3427,1.1536,-27.615,62.3566,32,0.03,7901,3.5552,100.1842
lg,1624908708410179395,0,0.4387,0.7808,0.4873,385,2.3804,-7.6294,-0.5493,81,1.3417,1.1536,-27.6486,62.4085,32,0.03,24726,3.5552,99.9555
lg,1624908708410215969,0,0.438,0.7827,0.4802,386,3.0518,-7.6904,0.2441,81,1.3417,1.1536,-27.7097,62.4966,32,0.029,9851,3.5552,99.7333
lg,1624908708410237154,0,0.4375,0.7837,0.4783,387,3.418,-7.2632,0.5493,81,1.3417,1.1536,-27.7702,62.5906,32,0.028,7279,3.5552,99.5334
lg,1624908708410256820,0,0.4507,0.7822,0.4758,388,2.8687,-6.1035,0.6714,81,1.3417,1.1536,-27.84,62.6405,32,0.029,7349,3.5552,99.3824
lg,1624908708410275894,0,0.437,0.7957,0.4626,389,3.54,-6.5308,0.9766,81,1.3417,1.1536,-27.8922,62.7656,32,0.029,7281,3.5552,99.2002
lg,1624908708410294061,0,0.4443,0.7856,0.4697,390,4.5776,-6.5308,1.0376,81,1.3417,1.1536,-27.9643,62.8991,32,0.028,7271,3.5552,99.0343
lg,1624908708410311190,0,0.4338,0.7871,0.4846,391,4.6387,-6.1646,1.4648,81,1.3427,1.1546,-28.0133,62.9876,32,0.028,8473,3.5552,98.909
lg,1624908708410328301,0,0.4248,0.7805,0.4761,392,5.4321,-4.8828,1.5869,81,1.3427,1.1536,-28.0324,63.0884,32,0.028,7340,3.5552,98.835
lg,1624908708410344912,0,0.4246,0.7808,0.4768,393,5.4321,-5.3101,2.1973,81,1.3427,1.1536,-28.079,63.1861,32,0.028,7378,3.5552,98.7585
lg,1624908708410361579,0,0.427,0.8052,0.4773,394,5.3101,-5.3711,2.2583,81,1.3427,1.1536,-28.1111,63.3059,32,0.029,7428,3.5552,98.6681
lg,1624908708410457245,0,0.4199,0.7979,0.4717,395,4.9438,-5.9814,2.9907,81,1.3427,1.1536,-28.1728,63.4137,32,0.028,10601,3.5552,98.5685
lg,1624908708410481875,0,0.4033,0.7837,0.4846,396,5.3711,-6.0425,3.2959,90,1.3427,1.1536,-28.2166,63.485,32,0.029,7422,3.5552,98.4969
lg,1624908708410504504,0,0.408,0.7964,0.4851,397,5.0049,-6.5918,3.2959,90,1.3427,1.1546,-28.2672,63.5652,32,0.029,7463,3.5552,98.3967
lg,1624908708410525152,0,0.4141,0.7896,0.4851,398,4.6387,-6.4697,3.7842,90,1.3427,1.1536,-28.3774,63.6293,32,0.029,7463,3.5552,98.3085
lg,1624908708410601966,0,0.4236,0.7969,0.4844,399,4.6387,-7.2021,2.4414,90,1.3427,1.1536,-28.433,63.7131,32,0.028,7523,3.5552,98.1671
lg,1624908708410622003,0,0.4207,0.7971,0.4939,400,4.6997,-6.897,2.5024,90,1.3427,1.1536,-28.4733,63.769,31,0.028,7511,3.5552,98.0507
lg,1624908708410639188,0,0.4248,0.7866,0.4844,401,4.3945,-6.1035,2.1362,90,1.3427,1.1536,-28.5058,63.8063,31,0.027,11069,3.5552,97.9569
lg,1624908708410657448,0,0.428,0.8062,0.4949,402,3.9062,-5.188,1.9531,90,1.3427,1.1536,-28.5004,63.8089,31,0.028,7566,3.5552,97.8964
lg,1624908708410677929,0,0.4021,0.7859,0.4888,403,3.3569,-4.3945,1.6479,90,1.3427,1.1536,-28.4373,63.7619,31,0.028,7775,3.5552,97.8695
lg,1624908708410695855,0,0.4192,0.7812,0.4873,404,2.8076,-4.0283,1.6479,90,1.3427,1.1536,-28.3771,63.7531,32,0.027,7636,3.5552,97.8222
lg,1624908708410716262,0,0.3992,0.7795,0.4778,405,3.1738,-4.4556,0.9766,90,1.3427,1.1536,-28.2993,63.7242,32,0.027,7786,3.5552,97.7705
lg,1624908708410733910,0,0.3965,0.7805,0.4753,406,2.8687,-5.0049,1.1597,90,1.3427,1.1536,-28.2354,63.6996,32,0.027,8790,3.5552,97.6962
lg,1624908708410765132,0,0.3975,0.7766,0.4814,407,2.5635,-5.0659,0.5493,90,1.3427,1.1536,-28.1561,63.6521,32,0.027,8293,3.5552,97.6154
lg,1624908708411276499,0,0.3943,0.7754,0.4924,408,3.1128,-6.0425,0.7324,90,1.3437,1.1536,-28.094,63.6192,32,0.027,7677,3.5552,97.5099
lg,1624908708411304184,0,0.4033,0.7776,0.4731,409,3.418,-7.4463,0.9766,90,1.3427,1.1546,-28.092,63.6706,32,0.027,7715,3.5552,97.3294
lg,1624908708411322943,0,0.397,0.7771,0.4861,410,4.0283,-7.0801,0.5493,90,1.3427,1.1536,-28.0742,63.7305,32,0.027,7691,3.5552,97.1403
lg,1624908708411341203,0,0.4119,0.7712,0.4824,411,3.7842,-7.6904,0.2441,90,1.3427,1.1546,-28.0702,63.7756,32,0.028,7746,3.5552,96.9504
lg,1624908708411358906,0,0.4199,0.7769,0.4895,412,4.6387,-7.8125,-0.3662,90,1.3427,1.1536,-28.0552,63.8536,32,0.028,7812,3.5552,96.7476
lg,1624908708411377554,0,0.4199,0.7781,0.4834,413,5.188,-7.2632,-0.8545,90,1.3437,1.1536,-28.0149,63.9594,32,0.029,7791,3.5552,96.5518
lg,1624908708411415998,0,0.4226,0.7822,0.4705,414,5.4932,-6.897,-1.1597,90,1.3437,1.1536,-27.9657,64.1029,32,0.029,7836,3.5552,96.3507
lg,1624908708411436276,0,0.4211,0.7734,0.4766,415,6.4087,-6.7139,-1.77,90,1.3427,1.1536,-27.8951,64.2542,32,0.03,8000,3.5552,96.1593
lg,1624908708411454128,0,0.4104,0.7859,0.4893,416,6.1646,-5.3101,-1.8921,90,1.3437,1.1536,-27.7609,64.3508,32,0.03,9561,3.5519,96.0315
lg,1624908708747233996,0,0.4016,0.7671,0.4824,417,6.2256,-5.249,-2.1973,90,1.3427,1.1536,-27.7029,64.4649,32,0.029,25100,3.5519,95.8668
lg,1624908708747279607,0,0.4094,0.7766,0.4719,418,6.4087,-6.8359,-1.5259,90,1.3427,1.1536,-27.6275,64.614,31,0.029,8186,3.5519,95.6749
lg,1624908708747300607,0,0.4014,0.7773,0.4832,419,6.3477,-7.9346,-0.1831,90,1.3427,1.1536,-27.6001,64.7386,31,0.029,7250,3.5519,95.4777
lg,1624908708747321162,0,0.4207,0.7881,0.4785,420,7.5073,-9.3994,-0.8545,90,1.3427,1.1536,-27.6057,64.9641,31,0.029,7306,3.5519,95.1977
lg,1624908708747339977,0,0.4246,0.7959,0.4907,421,8.1787,-9.9487,-0.8545,90,1.3427,1.1536,-27.6242,65.1904,31,0.03,7240,3.5519,94.9118
lg,1624908708747358403,0,0.4319,0.7776,0.4854,422,8.2397,-8.9111,-1.4038,90,1.3427,1.1536,-27.6283,65.3961,32,0.029,7318,3.5519,94.6616
lg,1624908708747376347,0,0.4226,0.7961,0.4844,423,9.3384,-8.728,-1.0376,90,1.3437,1.1546,-27.6072,65.6552,32,0.03,9013,3.5519,94.4179
lg,1624908708747394551,0,0.4233,0.7966,0.4822,424,7.9956,-7.2021,-1.5259,90,1.3427,1.1536,-27.5455,65.8307,32,0.029,11010,3.5519,94.2299
lg,1624908708747412125,0,0.439,0.8037,0.4832,425,8.667,-6.7139,-1.8311,90,1.3437,1.1536,-27.4574,66.0427,32,0.03,7360,3.5519,94.0485
lg,1624908708747429810,0,0.4468,0.8,0.4812,426,8.1787,-5.7373,-1.8311,90,1.3427,1.1536,-27.4101,66.1932,32,0.029,7395,3.5519,93.9178
lg,1624908708747447273,0,0.4316,0.7937,0.4836,427,8.667,-6.5308,-1.8921,90,1.3427,1.1536,-27.3129,66.3314,32,0.029,7407,3.5519,93.7723
lg,1624908708747464680,0,0.4292,0.803,0.4688,428,7.6904,-6.958,-1.9531,90,1.3427,1.1536,-27.2526,66.5031,32,0.03,7429,3.5519,93.5805
lg,1624908708747512198,0,0.4175,0.7883,0.4851,429,7.6904,-6.5308,-1.5869,90,1.3427,1.1536,-27.1841,66.6017,32,0.029,7645,3.5519,93.441
lg,1624908708748050028,0,0.4243,0.7957,0.4949,430,8.1787,-7.019,-1.3428,90,1.3437,1.1546,-27.1388,66.712,31,0.029,8399,3.5519,93.2921
lg,1624908708748082380,0,0.4346,0.8064,0.4836,431,7.2021,-6.3477,-1.8921,90,1.3437,1.1546,-27.0796,66.8089,31,0.03,7520,3.5519,93.1454
lg,1624908708748106195,0,0.4438,0.8098,0.4849,432,7.0801,-6.2866,-1.8921,90,1.3437,1.1546,-27.0668,66.8501,31,0.03,7519,3.5519,93.0445
lg,1624908708748126287,0,0.4395,0.8005,0.4744,433,6.1035,-5.188,-0.5493,90,1.3427,1.1536,-27.0596,66.8782,31,0.03,7598,3.5519,92.9654
lg,1624908708748143472,0,0.4175,0.8071,0.4768,434,6.1035,-6.1035,-0.061,90,1.3437,1.1536,-27.0342,66.9186,31,0.03,10517,3.5519,92.8573
lg,1624908708748163861,0,0.4124,0.7942,0.4929,435,4.7607,-5.9814,0.7324,90,1.3427,1.1536,-27.0321,66.844,31,0.03,7548,3.5519,92.792
lg,1624908708748181953,0,0.4185,0.7837,0.4897,436,5.249,-7.0801,0.7935,90,1.3437,1.1546,-27.072,66.8066,31,0.031,7589,3.5519,92.6837
lg,1624908708748201453,0,0.4224,0.7812,0.4841,437,4.2725,-6.6528,0.7324,90,1.3437,1.1546,-27.1135,66.7338,31,0.031,7696,3.5519,92.5872
lg,1624908708748219138,0,0.4216,0.7837,0.4844,438,3.6621,-7.5684,1.3428,90,1.3437,1.1536,-27.1807,66.6602,31,0.033,7747,3.5519,92.4587
lg,1624908708748237749,0,0.4146,0.7761,0.4768,439,4.4556,-6.958,0.9766,90,1.3437,1.1536,-27.2231,66.6129,31,0.032,7674,3.5519,92.3482
lg,1624908708748443007,0,0.4309,0.7859,0.4846,440,4.6997,-7.3242,0.9766,90,1.3437,1.1536,-27.2914,66.5816,31,0.032,7699,3.5519,92.2231
lg,1624908708748465044,0,0.4153,0.7849,0.4724,441,5.0659,-7.2021,1.1597,90,1.3437,1.1536,-27.3355,66.5858,31,0.032,7670,3.5519,92.0953
lg,1624908708748484174,0,0.4258,0.7905,0.4729,442,5.0049,-6.6528,1.0376,90,1.3427,1.1536,-27.3809,66.5853,32,0.032,7746,3.5519,91.9851
lg,1624908708748502433,0,0.4158,0.7791,0.4785,443,5.3711,-6.6528,0.3662,90,1.3437,1.1546,-27.3837,66.5457,32,0.031,7873,3.5519,91.8905
lg,1624908708748542025,0,0.4272,0.791,0.4768,444,7.4463,-7.4463,-0.2441,90,1.3427,1.1546,-27.3938,66.6623,32,0.031,7740,3.5519,91.7278
lg,1624908708748561358,0,0.4307,0.7817,0.4888,445,6.897,-6.1035,-0.7935,90,1.3427,1.1536,-27.373,66.6943,32,0.031,7797,3.5519,91.6301
lg,1624908708748579358,0,0.4331,0.7878,0.4734,446,7.2632,-6.3477,-1.0376,90,1.3427,1.1536,-27.3529,66.7875,32,0.03,7814,3.5519,91.4994
lg,1624908708748598043,0,0.4182,0.8025,0.4802,447,7.8125,-5.7373,-1.8311,90,1.3437,1.1536,-27.2496,66.8948,32,0.03,7914,3.5519,91.381
lg,1624908708748615914,0,0.4207,0.7898,0.4834,448,8.3618,-6.0425,-1.2817,90,1.3427,1.1536,-27.1396,66.9243,32,0.031,7893,3.5519,91.3218
lg,1624908709082571130,0,0.4021,0.7981,0.4785,449,8.1177,-5.9814,-0.7935,90,1.3437,1.1526,-27.1162,67.0582,32,0.032,25197,3.5519,91.1743
lg,1624908709082650018,0,0.4106,0.7961,0.4788,450,7.5684,-7.6294,-0.6714,90,1.3427,1.1536,-27.0841,67.1654,32,0.031,10505,3.5519,91.004
lg,1624908709082671611,0,0.4128,0.78,0.4983,451,7.2632,-8.4839,-0.8545,90,1.3427,1.1536,-27.071,67.2118,32,0.03,7262,3.5519,90.825
lg,1624908709082691462,0,0.4324,0.8059,0.4866,452,7.1411,-8.2397,-0.8545,90,1.3437,1.1536,-27.0755,67.3067,31,0.031,7255,3.5519,90.6296
lg,1624908709082710925,0,0.4333,0.7883,0.4949,453,7.8125,-8.8501,-0.7935,90,1.3427,1.1536,-27.1098,67.3915,31,0.032,8191,3.5519,90.4461
lg,1624908709082729499,0,0.4246,0.7869,0.4985,454,7.0801,-7.4463,-1.0986,90,1.3437,1.1536,-27.088,67.4139,31,0.031,7278,3.5519,90.3055
lg,1624908709082748869,0,0.4343,0.7969,0.4858,455,7.2021,-7.5073,-0.7935,90,1.3437,1.1536,-27.0944,67.4799,31,0.031,9226,3.5519,90.1491
lg,1624908709082768221,0,0.428,0.7932,0.4714,456,7.1411,-6.4697,-1.0986,90,1.3437,1.1536,-27.0474,67.5197,32,0.032,7504,3.5519,90.0129
lg,1624908709082785277,0,0.4265,0.8052,0.4907,457,5.9814,-6.2256,-1.3428,90,1.3437,1.1536,-26.9912,67.5111,32,0.032,7379,3.5519,89.9028
lg,1624908709082802369,0,0.4316,0.8132,0.4937,458,5.6152,-6.2866,-1.2817,90,1.3437,1.1546,-26.955,67.518,32,0.032,7411,3.5519,89.7767
lg,1624908709082819739,0,0.4319,0.812,0.4766,459,5.127,-5.4932,-1.2207,90,1.3437,1.1536,-26.9055,67.4994,32,0.031,7396,3.5519,89.6808
lg,1624908709082881035,0,0.415,0.7974,0.4846,460,4.2725,-4.8828,-1.0986,90,1.3437,1.1546,-26.8294,67.3979,31,0.03,7409,3.5519,89.6285
lg,1624908709082901405,0,0.417,0.8042,0.4807,461,3.7231,-5.7983,-0.4883,90,1.3437,1.1536,-26.7922,67.3078,31,0.03,7512,3.5519,89.5388
lg,1624908709082931627,0,0.4136,0.8054,0.4934,462,3.54,-7.019,0.2441,90,1.3437,1.1536,-26.79,67.205,31,0.03,7416,3.5519,89.4213
lg,1624908709082951738,0,0.4089,0.8091,0.4854,463,4.1504,-7.5073,0.9766,90,1.3437,1.1536,-26.8127,67.1549,31,0.031,7461,3.5519,89.2849
lg,1624908709082976683,0,0.4409,0.8123,0.4824,464,3.8452,-8.4229,1.5259,90,1.3437,1.1536,-26.931,67.1217,32,0.031,7507,3.5519,89.1132
lg,1624908709082995312,0,0.439,0.8005,0.4802,465,3.8452,-7.8125,1.8921,90,1.3437,1.1536,-27.0551,67.0931,32,0.031,7559,3.5519,88.9651
lg,1624908709083012608,0,0.4324,0.8142,0.4863,466,4.4556,-7.1411,2.8687,90,1.3437,1.1536,-27.1737,67.0453,32,0.031,7603,3.5519,88.873
lg,1624908709083031497,0,0.425,0.8125,0.4771,467,4.0894,-6.1035,2.9907,90,1.3437,1.1536,-27.2875,66.9287,32,0.031,7626,3.5519,88.8105
lg,1624908709083048016,0,0.4214,0.79,0.4873,468,3.2349,-8.0566,3.9673,90,1.3437,1.1536,-27.4501,66.8145,31,0.03,7603,3.5519,88.7136
lg,1624908709083065812,0,0.458,0.7837,0.4912,469,2.8076,-5.4321,6.8359,90,1.3437,1.1546,-27.7478,66.6025,31,0.03,7658,3.5519,88.7814
lg,1624908709083082904,0,0.4766,0.7998,0.4714,470,3.2349,-0.7324,8.3008,90,1.3437,1.1546,-28.0421,66.3754,31,0.03,7672,3.5519,89.0403
lg,1624908709083099589,0,0.3643,0.8059,0.4863,471,2.4414,3.2959,10.1318,90,1.3437,1.1536,-28.0903,65.9921,31,0.03,7689,3.5519,89.5156
lg,1624908709083117626,0,0.3359,0.7893,0.4902,472,1.4038,2.5024,12.2681,90,1.3437,1.1546,-28.3626,65.5931,32,0.031,7706,3.5519,89.9669
lg,1624908709083137682,0,0.3391,0.791,0.4836,473,2.0142,-7.3853,17.2119,90,1.3437,1.1536,-28.7844,65.3508,32,0.032,7727,3.5519,90.1319
lg,1624908709083156811,0,0.3975,0.7917,0.4988,474,-0.4272,-16.7236,21.0571,90,1.3437,1.1536,-29.6733,65.1539,32,0.031,12511,3.5519,89.9019
lg,1624908709083202792,0,0.4053,0.7852,0.5088,475,-2.7466,-22.2168,22.9492,90,1.3437,1.1536,-30.6311,64.9318,32,0.032,7778,3.5519,89.5891
lg,1624908709083223737,0,0.4597,0.8169,0.498,476,-1.9531,-26.6113,25.2075,90,1.3437,1.1536,-31.7912,64.8999,32,0.032,7897,3.5519,89.0983
lg,1624908709083241014,0,0.4985,0.8357,0.5012,477,-2.0752,-25.8179,28.0762,90,1.3437,1.1536,-33.1116,64.8612,32,0.031,7902,3.5519,88.6795
lg,1624908709083260959,0,0.5479,0.843,0.522,478,-3.7842,-19.2261,33.3862,90,1.3437,1.1536,-34.4743,64.4999,32,0.029,7891,3.5519,88.6838
lg,1624908709083279885,0,0.5576,0.8376,0.4929,479,-7.5684,-1.0376,36.5601,90,1.3437,1.1546,-35.6161,63.548,32,0.03,7953,3.5519,89.5425
lg,1624908709083298810,0,0.5142,0.8101,0.4751,480,-8.0566,3.8452,36.499,90,1.3447,1.1556,-36.4754,62.287,31,0.029,8040,3.5519,90.766
lg,1624908709427262218,0,0.47,0.8105,0.5376,481,-21.7896,-4.5776,23.6816,90,1.3467,1.1566,-36.9689,60.9269,32,0.024,24870,3.5519,91.2825
lg,1624908709427321699,0,0.5359,0.7451,0.5723,482,-29.0527,-11.6577,19.5312,90,1.3467,1.1566,-37.5897,59.3997,32,0.026,14760,3.5519,91.4849
lg,1624908709427344051,0,0.5623,0.7576,0.5913,483,-28.5645,-8.8501,18.7378,90,1.3477,1.1566,-38.0954,57.9591,32,0.029,7700,3.5519,91.8453
lg,1624908709427363847,0,0.6279,0.759,0.5552,484,-20.5078,0.2441,15.4419,90,1.3477,1.1566,-38.4297,56.6809,32,0.029,7392,3.5519,92.395
lg,1624908709427383458,0,0.6042,0.7844,0.5198,485,-12.085,23.4985,11.2915,90,1.3477,1.1566,-38.0485,55.3599,31,0.031,7311,3.5519,93.7243
lg,1624908709427401365,0,0.583,0.7583,0.5496,486,-10.2539,33.9355,8.0566,90,1.3487,1.1576,-37.2811,53.8809,31,0.029,7416,3.5519,95.4033
lg,1624908709427420328,0,0.5095,0.8037,0.4885,487,-6.7139,44.1284,-0.9155,90,1.3497,1.1586,-35.8559,52.7733,31,0.028,9024,3.5519,97.023
lg,1624908709427438273,0,0.4595,0.8264,0.5266,488,-11.6577,46.3257,-2.8687,90,1.3507,1.1586,-34.1877,51.3475,31,0.028,7380,3.5519,98.582
lg,1624908709427456217,0,0.4668,0.8281,0.5176,489,-21.6064,47.4854,-2.9297,90,1.3507,1.1596,-32.5624,49.8392,32,0.033,7629,3.5519,100.0983
lg,1624908709427514828,0,0.5046,0.8445,0.5298,490,-31.311,51.8799,-0.9155,90,1.3527,1.1596,-30.9612,47.9582,32,0.03,7460,3.5519,101.7373
lg,1624908709427537328,0,0.4683,0.8494,0.5273,491,-36.499,55.6641,-1.8921,90,1.3527,1.1606,-29.1789,45.9991,32,0.029,7493,3.5519,103.3486
lg,1624908709427555716,0,0.3506,0.8237,0.5779,492,-50.0488,58.2886,-5.188,90,1.3537,1.1606,-27.0064,43.5742,32,0.02,8420,3.5519,104.86
lg,1624908709427573772,0,0.3354,0.7312,0.634,493,-62.5,46.4478,-0.2441,90,1.3547,1.1616,-25.3203,40.6933,32,0.017,9177,3.5519,106.1363
lg,1624908709427591586,0,0.3433,0.6775,0.6768,494,-63.9648,41.9922,3.1128,90,1.3547,1.1616,-23.9307,37.7012,32,0.024,7504,3.5519,107.3705
lg,1624908709427608105,0,0.3711,0.6111,0.6895,495,-58.1055,31.8604,5.8594,90,1.3547,1.1626,-22.9685,35.1185,32,0.028,7562,3.5519,108.3422
lg,1624908709427628938,0,0.3647,0.6204,0.6548,496,-51.8799,29.2969,4.9438,90,1.3557,1.1626,-22.2029,33.3024,32,0.029,7570,3.5519,108.9902
lg,1624908709427646308,0,0.3442,0.6519,0.6174,497,-35.7056,17.1509,2.8076,90,1.3557,1.1626,-21.6585,32.2057,31,0.03,10949,3.5519,109.2968
lg,1624908709427666068,0,0.3965,0.6584,0.5718,498,-32.5317,14.4043,2.8076,90,1.3567,1.1636,-21.3692,31.3849,31,0.024,7727,3.5519,109.4919
lg,1624908709427684364,0,0.4258,0.6987,0.5684,499,-31.4941,13.0615,0.1831,90,1.3567,1.1626,-21.1216,30.7472,31,0.022,7785,3.5519,109.5235
lg,1624908709427720956,0,0.4287,0.6943,0.5562,500,-33.7524,14.1602,0.6714,90,1.3567,1.1626,-20.8041,29.8405,31,0.021,7646,3.5519,109.6423
lg,1624908709427742567,0,0.4456,0.6584,0.563,501,-41.9312,18.6768,1.2207,90,1.3567,1.1626,-20.471,28.7299,32,0.021,7612,3.5519,109.8264
lg,1624908709427759160,0,0.4229,0.5786,0.6179,502,-44.0063,19.7144,-1.4038,90,1.3577,1.1636,-20.0108,27.3859,32,0.021,7757,3.5519,109.9868
lg,1624908709427776771,0,0.4111,0.5493,0.6418,503,-36.1938,21.6675,-5.5542,90,1.3577,1.1646,-19.3902,26.3595,32,0.028,9873,3.5519,110.0285
lg,1624908709427795437,0,0.3875,0.542,0.6633,504,-28.8086,21.3623,-7.9956,90,1.3587,1.1636,-18.6943,25.6615,32,0.03,7765,3.5519,109.9628
lg,1624908709427833029,0,0.3862,0.54,0.6597,505,-16.2354,17.4561,-10.0098,90,1.3587,1.1636,-18.1329,25.5413,31,0.03,7830,3.5519,109.7379
lg,1624908709427855844,0,0.3853,0.5161,0.6594,506,-11.3525,16.7236,-10.1929,90,1.3587,1.1636,-17.6209,25.7693,31,0.03,7810,3.5519,109.4944
lg,1624908709427873863,0,0.416,0.5149,0.6453,507,-1.3428,14.4653,-11.2305,90,1.3587,1.1646,-17.2763,26.2283,31,0.031,7875,3.5519,109.195
lg,1624908709427891825,0,0.394,0.5234,0.6587,508,10.2539,12.6953,-13.855,90,1.3587,1.1646,-16.8928,27.1694,31,0.031,7852,3.5519,108.7798
lg,1624908709427908585,0,0.4126,0.5312,0.6262,509,15.0146,13.4888,-15.4419,90,1.3587,1.1646,-16.552,28.4022,32,0.031,7888,3.5519,108.3093
lg,1624908709427925103,0,0.3894,0.5872,0.5793,510,25.4517,18.1885,-17.334,90,1.3597,1.1646,-15.9442,30.1089,32,0.033,8111,3.5519,107.8686
lg,1624908709427942307,0,0.3796,0.6321,0.6001,511,27.4658,19.5923,-16.1133,90,1.3597,1.1646,-15.2602,31.8487,32,0.032,7945,3.5519,107.5442
lg,1624908709427959621,0,0.3892,0.6375,0.5933,512,25.4517,20.0806,-14.8315,90,1.3597,1.1646,-14.6282,33.4372,32,0.031,7958,3.5519,107.3257
lg,1624908709770911387,0,0.2837,0.6328,0.6643,513,23.7427,16.1133,-7.9346,90,1.3597,1.1646,-14.0241,34.7457,32,0.036,26454,3.5519,107.3292
lg,1624908709771071719,0,0.2512,0.675,0.6455,514,27.0996,-2.0752,-1.8311,86,1.3597,1.1646,-14.0952,36.2964,32,0.037,14618,3.5519,107.1091
lg,1624908709771093293,0,0.2893,0.7244,0.6382,515,26.9165,-9.2163,0.3052,86,1.3597,1.1646,-14.7164,37.8354,32,0.037,7421,3.5519,106.7071
lg,1624908709771114293,0,0.3196,0.7334,0.6326,516,22.0337,-19.2261,4.7607,86,1.3597,1.1646,-15.5791,39.2355,32,0.037,7327,3.5519,106.2513
lg,1624908709771133608,0,0.3887,0.7598,0.6724,517,13.5498,-21.7896,9.2773,86,1.3597,1.1646,-16.6984,40.2006,32,0.036,7378,3.5519,105.8714
lg,1624908709771153571,0,0.4077,0.7537,0.6868,518,10.0098,-22.3389,11.3525,86,1.3597,1.1646,-17.8704,40.9505,32,0.036,7381,3.5519,105.5404
lg,1624908709771172237,0,0.4402,0.7319,0.7258,519,3.2959,-19.6533,13.3057,86,1.3597,1.1646,-19.0139,41.2751,32,0.039,8319,3.5519,105.3679
lg,1624908709771226830,0,0.4292,0.7273,0.7427,520,0.3052,-14.6484,15.1367,86,1.3597,1.1646,-19.9825,41.3741,32,0.04,10870,3.5519,105.4015
lg,1624908709771248552,0,0.425,0.7671,0.718,521,-3.2959,-12.3291,15.1367,86,1.3607,1.1646,-20.8294,41.4002,32,0.04,9114,3.5519,105.4657
lg,1624908709771268033,0,0.4448,0.7615,0.7129,522,-6.897,-12.2681,15.4419,86,1.3607,1.1646,-21.6912,41.2743,32,0.041,7426,3.5519,105.5409
lg,1624908709771286718,0,0.4602,0.7664,0.6943,523,-15.1367,-10.6201,14.2822,86,1.3607,1.1646,-22.4754,40.8534,32,0.042,7483,3.5519,105.6122
lg,1624908709771305403,0,0.4722,0.7544,0.6973,524,-19.165,-8.606,12.7563,86,1.3607,1.1646,-22.9948,40.022,32,0.042,7517,3.5519,105.764
lg,1624908709771323459,0,0.4336,0.7397,0.6772,525,-28.7476,-1.9531,10.498,86,1.3607,1.1646,-23.339,39.0435,32,0.043,7519,3.5519,105.9491
lg,1624908709771342292,0,0.4004,0.7493,0.6692,526,-36.6211,0.3052,9.8267,86,1.3607,1.1656,-23.5159,37.8034,32,0.042,7694,3.5519,106.1492
lg,1624908709771362181,0,0.3765,0.7625,0.665,527,-42.1143,0.8545,10.0098,86,1.3607,1.1656,-23.619,36.4134,32,0.042,7570,3.5519,106.342
lg,1624908709771393847,0,0.3691,0.7412,0.6738,528,-54.9927,0.1831,10.9253,86,1.3607,1.1656,-23.7453,34.5102,32,0.043,7517,3.5519,106.5518
lg,1624908709771416032,0,0.3521,0.7019,0.7268,529,-61.8896,0.6104,11.1694,86,1.3607,1.1656,-23.8281,31.9236,32,0.041,7558,3.5519,106.8601
lg,1624908709771435439,0,0.3481,0.5964,0.8184,530,-67.9932,-2.3193,12.0239,86,1.3607,1.1656,-23.9576,29.2141,32,0.042,7578,3.5519,107.1896
lg,1624908709771456476,0,0.375,0.4993,0.8752,531,-55.0537,-5.3101,14.9536,86,1.3607,1.1656,-24.2787,26.8406,32,0.045,8081,3.5519,107.6498
lg,1624908709771473124,0,0.4148,0.5247,0.8245,532,-44.8608,-5.7373,15.8691,86,1.3607,1.1656,-24.6766,25.4945,32,0.045,7665,3.5519,108.0678
lg,1624908709771489513,0,0.4241,0.5864,0.75,533,-26.062,-4.1504,14.4043,86,1.3617,1.1656,-25.0594,24.735,32,0.046,7693,3.5519,108.3587
lg,1624908709771507309,0,0.4219,0.6636,0.6577,534,-24.4141,0.4272,10.5591,86,1.3617,1.1656,-25.2391,24.3723,32,0.046,7739,3.5486,108.4514
lg,1624908709771554846,0,0.4126,0.6541,0.6411,535,-29.7852,3.9673,9.0332,86,1.3607,1.1656,-25.2577,23.8189,31,0.046,7662,3.5486,108.535
lg,1624908709771580216,0,0.3777,0.6018,0.678,536,-36.5601,6.6528,6.6528,86,1.3617,1.1656,-25.0537,22.8969,31,0.046,7722,3.5486,108.62
lg,1624908709771598198,0,0.3452,0.572,0.7029,537,-37.9028,6.4697,6.3477,86,1.3617,1.1656,-24.797,21.9396,31,0.047,7794,3.5486,108.6982
lg,1624908709771616809,0,0.3442,0.5713,0.6995,538,-34.729,4.2114,6.8359,86,1.3617,1.1656,-24.6214,21.0976,31,0.048,7787,3.5486,108.7543
lg,1624908709771634197,0,0.3518,0.5876,0.6699,539,-36.1328,2.1362,9.4604,86,1.3617,1.1656,-24.6032,20.2755,32,0.049,7836,3.5486,108.8424
lg,1624908709771651549,0,0.3533,0.5903,0.6687,540,-38.147,1.4038,10.2539,86,1.3617,1.1656,-24.6263,19.4016,32,0.049,7885,3.5486,108.9376
lg,1624908709771670123,0,0.3384,0.5647,0.6936,541,-44.6777,-2.1362,10.1318,86,1.3617,1.1656,-24.7316,18.2413,32,0.051,7850,3.5486,108.9983
lg,1624908709771688716,0,0.3362,0.5168,0.7581,542,-46.5698,-9.8267,9.5215,86,1.3617,1.1656,-25.0686,16.9161,32,0.051,7942,3.5486,108.9933
lg,1624908709771705604,0,0.3518,0.5093,0.7729,543,-46.3257,-13.4277,8.7891,86,1.3617,1.1656,-25.5451,15.6417,31,0.051,7960,3.5486,108.9155
lg,1624908709771722123,0,0.3906,0.4963,0.8035,544,-41.0767,-18.0054,7.6904,86,1.3627,1.1656,-26.2265,14.5924,31,0.05,7976,3.5486,108.7561
lg,1624908710116368420,0,0.4299,0.5146,0.7896,545,-30.1514,-17.395,8.1177,86,1.3637,1.1606,-26.9474,14.064,31,0.05,25028,3.5486,108.5822
lg,1624908710116416197,0,0.4478,0.5205,0.7803,546,-29.0527,-13.3057,7.4463,86,1.3627,1.1656,-27.5245,13.5933,31,0.051,12597,3.5486,108.4113
lg,1624908710116447290,0,0.4307,0.509,0.7974,547,-30.9448,-8.9722,5.6763,86,1.3627,1.1646,-27.8497,13.0419,31,0.051,7584,3.5486,108.2146
lg,1624908710116477993,0,0.4287,0.4883,0.8096,548,-30.5176,-7.3853,4.6387,86,1.3627,1.1646,-28.0822,12.4862,31,0.052,7386,3.5486,108.0043
lg,1624908710116507122,0,0.4238,0.4744,0.8164,549,-25.4517,-6.6528,4.5776,86,1.3627,1.1656,-28.2649,12.1162,31,0.053,7384,3.5486,107.805
lg,1624908710116562196,0,0.4075,0.4995,0.8079,550,-21.9727,-6.7139,5.6763,86,1.3627,1.1656,-28.4245,11.9432,31,0.052,8327,3.5486,107.6143
lg,1624908710116590696,0,0.4265,0.4929,0.8203,551,-21.4233,-7.9956,6.3477,86,1.3627,1.1656,-28.661,11.7575,31,0.052,7475,3.5486,107.453
lg,1624908710116616585,0,0.4163,0.4829,0.8501,552,-22.4609,-4.6997,7.019,86,1.3627,1.1656,-28.7208,11.4592,31,0.052,8586,3.5486,107.3709
lg,1624908710116641362,0,0.4233,0.4512,0.8667,553,-18.8599,-6.1646,7.3853,86,1.3627,1.1656,-28.842,11.2289,31,0.052,7470,3.5486,107.3283
lg,1624908710116666047,0,0.4272,0.458,0.8528,554,-14.5874,-7.019,6.5918,86,1.3637,1.1656,-29.0048,11.226,31,0.052,7510,3.5486,107.2245
lg,1624908710116690899,0,0.4282,0.4924,0.8247,555,-10.6201,-6.0425,5.3711,86,1.3637,1.1656,-29.136,11.5052,31,0.052,7469,3.5486,107.0227
lg,1624908710116715380,0,0.4236,0.4678,0.8376,556,-10.3149,-7.2021,3.7231,86,1.3637,1.1656,-29.276,11.7641,31,0.051,7553,3.5486,106.7697
lg,1624908710116739788,0,0.4285,0.4226,0.8457,557,-8.0566,-8.3008,0.3662,86,1.3637,1.1656,-29.4337,12.0754,31,0.051,7567,3.5486,106.4102
lg,1624908710116766214,0,0.4272,0.4111,0.8391,558,-3.2349,-9.2773,-1.0986,86,1.3647,1.1656,-29.5665,12.6863,31,0.052,7541,3.5486,105.9371
lg,1624908710116791473,0,0.3928,0.448,0.7969,559,4.4556,-10.498,-2.9907,86,1.3637,1.1656,-29.7299,13.6671,31,0.052,7626,3.5486,105.3536
lg,1624908710116816102,0,0.3975,0.491,0.7327,560,6.5918,-10.5591,-3.9673,86,1.3637,1.1656,-29.9332,14.8941,31,0.051,7641,3.5486,104.6481
lg,1624908710116839991,0,0.3899,0.499,0.7227,561,6.6528,-10.8032,-4.7607,86,1.3647,1.1656,-30.1091,16.1352,31,0.052,7631,3.5486,103.8988
lg,1624908710116864361,0,0.3838,0.5339,0.7124,562,0.4272,-10.498,-4.6997,86,1.3647,1.1656,-30.244,17.1734,31,0.052,7657,3.5486,103.1231
lg,1624908710116888565,0,0.3782,0.5371,0.7036,563,-5.0659,-10.9253,-5.249,86,1.3647,1.1666,-30.3686,17.9936,31,0.052,7656,3.5486,102.3176
lg,1624908710116914213,0,0.3459,0.4788,0.7505,564,-15.0757,-15.5029,-5.188,86,1.3657,1.1656,-30.5566,18.2329,31,0.052,7724,3.5486,101.5525
lg,1624908710116956731,0,0.3765,0.4485,0.791,565,-18.8599,-21.9116,-6.897,86,1.3647,1.1656,-30.9931,18.2744,32,0.052,7789,3.5486,100.6832
lg,1624908710116984416,0,0.3669,0.4448,0.7935,566,-19.7754,-25.8789,-7.3242,86,1.3657,1.1656,-31.5355,18.3169,32,0.051,7764,3.5486,99.734
lg,1624908710117010971,0,0.3311,0.4443,0.8113,567,-18.9209,-36.3159,-8.8501,86,1.3657,1.1656,-32.3399,18.5068,32,0.053,7850,3.5486,98.5582
lg,1624908710117161952,0,0.3022,0.4375,0.8113,568,-18.8599,-44.1284,-9.6436,86,1.3657,1.1656,-33.5574,18.8623,32,0.05,7885,3.5486,97.0814
lg,1624908710117193507,0,0.3147,0.4038,0.8403,569,-17.1509,-66.6504,-9.3994,86,1.3657,1.1656,-35.3568,19.3235,32,0.048,11994,3.5486,95.4202
lg,1624908710117222618,0,0.2976,0.3423,0.8677,570,-14.1602,-72.5098,-8.667,86,1.3667,1.1656,-37.4979,19.9646,32,0.042,8269,3.5486,93.7045
lg,1624908710117251062,0,0.2932,0.2732,0.9019,571,-3.9673,-86.9751,-6.6528,86,1.3667,1.1656,-40.1623,21.2314,32,0.037,9719,3.5486,91.844
lg,1624908710117281229,0,0.3101,0.2419,0.8901,572,17.1509,-105.7129,-3.3569,86,1.3667,1.1646,-43.1689,23.1269,31,0.034,7892,3.5486,89.7465
lg,1624908710117310951,0,0.4246,0.2288,0.8372,573,43.5791,-121.46,-3.7842,86,1.3657,1.1646,-46.8217,26.6262,31,0.035,7983,3.5486,86.9477
lg,1624908710117336932,0,0.6206,0.2617,0.7761,574,69.519,-122.7417,-3.2349,86,1.3667,1.1636,-50.6316,31.8517,31,0.032,9057,3.5486,83.4268
lg,1624908710117362062,0,0.7231,0.301,0.7263,575,83.7402,-112.3657,-4.0894,86,1.3667,1.1646,-53.915,38.5913,31,0.03,8604,3.5486,79.0448
lg,1624908710117473672,0,0.6033,0.4683,0.6013,576,102.9663,-65.6128,-9.3384,86,1.3667,1.1636,-54.9733,45.4463,31,0.027,8040,3.5486,75.6229
lg,1624908710453668345,0,0.6255,0.4724,0.6665,577,95.6421,-40.2832,-0.6104,86,1.3667,1.1576,-55.2595,50.0427,31,0.029,24604,3.5486,74.4868
lg,1624908710453703641,0,0.6187,0.4778,0.6787,578,101.6846,-21.8506,1.5259,86,1.3667,1.1626,-55.0179,54.2757,31,0.03,12638,3.5486,74.1324
lg,1624908710453724345,0,0.5388,0.522,0.668,579,115.3564,-21.0571,-3.7231,86,1.3667,1.1616,-54.5546,58.9881,31,0.029,10142,3.5486,73.6099
lg,1624908710453765752,0,0.5337,0.5642,0.6445,580,122.1313,-26.6113,-6.7749,86,1.3657,1.1616,-54.0341,64.2612,31,0.031,7290,3.5486,72.6876
lg,1624908710453785548,0,0.5374,0.6311,0.5837,581,131.0425,-39.7949,-15.3809,86,1.3657,1.1616,-53.3049,70.7823,32,0.028,7737,3.5486,70.668
lg,1624908710453803900,0,0.5957,0.6765,0.5613,582,132.019,-46.3257,-21.1182,86,1.3657,1.1616,-52.3669,77.5554,32,0.023,7725,3.5486,68.2895
lg,1624908710453821826,0,0.6387,0.7075,0.5281,583,129.6387,-51.0864,-34.4238,86,1.3647,1.1606,-50.8442,84.2841,32,0.027,7467,3.5486,65.7291
lg,1624908710453838937,0,0.6514,0.7224,0.5083,584,123.3521,-46.5088,-45.3491,86,1.3657,1.1616,-48.7776,90.0879,32,0.026,9685,3.5486,63.8537
lg,1624908710453855789,0,0.6692,0.7292,0.5122,585,119.0186,-41.687,-50.1709,86,1.3647,1.1616,-46.4621,94.4328,32,0.027,7797,3.5486,63.1512
lg,1624908710453943566,0,0.6831,0.7002,0.541,586,107.4829,-27.832,-56.2744,86,1.3647,1.1616,-44.132,97.8652,32,0.026,7827,3.5486,63.204
lg,1624908710453983862,0,0.6858,0.6699,0.5818,587,102.356,-11.2915,-58.8989,86,1.3647,1.1616,-41.9414,100.1529,32,0.024,7476,3.5486,64.4234
lg,1624908710454003825,0,0.6997,0.6687,0.5786,588,100.8301,-0.4883,-60.3638,86,1.3637,1.1616,-39.8966,101.5903,32,0.022,7992,3.5486,66.8145
lg,1624908710454023288,0,0.6565,0.7097,0.5803,589,101.1963,18.7988,-60.9131,86,1.3637,1.1606,-37.968,102.7558,31,0.012,8223,3.5486,69.6344
lg,1624908710454041621,0,0.5798,0.7173,0.5784,590,101.0742,35.5225,-58.5327,86,1.3627,1.1606,-36.2535,103.4249,31,0.013,7900,3.5486,73.2306
lg,1624908710454059787,0,0.5127,0.7456,0.5664,591,104.0649,47.8516,-53.6499,86,1.3617,1.1596,-34.7225,103.9843,31,0.018,12529,3.5486,77.28
lg,1624908710454078047,0,0.4443,0.8015,0.5322,592,106.5063,63.4766,-44.6777,86,1.3617,1.1596,-33.6232,104.3991,31,0.02,7620,3.5486,81.8591
lg,1624908710454095213,0,0.2993,0.8652,0.4968,593,104.3091,68.7256,-37.9028,86,1.3617,1.1596,-32.5464,104.7409,31,0.02,8351,3.5486,86.517
lg,1624908710454113009,0,0.2241,0.8809,0.4897,594,99.8535,64.0259,-33.8135,86,1.3617,1.1586,-31.4713,105.1259,31,0.019,7655,3.5486,90.8421
lg,1624908710454150935,0,0.1765,0.9443,0.4673,595,83.6792,34.79,-23.5596,86,1.3617,1.1586,-30.3895,105.7591,31,0.021,7634,3.5486,93.6229
lg,1624908710454172268,0,0.2625,0.9299,0.4819,596,66.3452,5.188,-12.5122,86,1.3607,1.1586,-29.637,106.4503,32,0.02,8315,3.5486,94.9129
lg,1624908710454190898,0,0.2954,0.9106,0.4907,597,58.8379,-3.2349,-8.667,86,1.3607,1.1586,-29.0486,107.0273,32,0.02,8104,3.5486,95.7751
lg,1624908710454209250,0,0.3411,0.907,0.489,598,47.8516,-16.6626,-3.1128,86,1.3617,1.1586,-28.6226,107.4962,32,0.02,8016,3.5486,95.9566
lg,1624908710454227194,0,0.3826,0.9236,0.4836,599,42.2363,-21.5454,-0.9766,86,1.3607,1.1576,-28.2891,107.7613,32,0.02,7699,3.5486,95.6673
lg,1624908710454247897,0,0.4048,0.9084,0.4702,600,30.7617,-28.3813,1.77,86,1.3607,1.1576,-28.0372,107.8618,32,0.021,8051,3.5486,95.2353
lg,1624908710454266897,0,0.4614,0.8901,0.4692,601,19.2871,-30.8228,3.54,86,1.3607,1.1576,-27.9496,107.5855,32,0.02,7718,3.5486,94.6567
lg,1624908710454283971,0,0.48,0.8838,0.4749,602,15.2588,-31.0669,2.8687,86,1.3597,1.1576,-27.89,107.1874,32,0.021,7776,3.5486,94.0554
lg,1624908710454301342,0,0.5039,0.8767,0.4673,603,5.8594,-26.001,3.1128,86,1.3597,1.1566,-27.9429,106.3162,32,0.02,8181,3.5486,93.665
lg,1624908710454320008,0,0.5159,0.8623,0.469,604,-1.3428,-17.7002,1.1597,86,1.3587,1.1566,-28.0531,104.9994,31,0.021,8176,3.5486,93.6488
lg,1624908710454338360,0,0.511,0.855,0.4688,605,-4.2114,-14.8926,0.2441,86,1.3587,1.1566,-28.1499,103.5297,31,0.021,8202,3.5486,93.7544
lg,1624908710454472878,0,0.5083,0.8379,0.4719,606,-8.4229,-7.2021,-1.8921,86,1.3587,1.1566,-28.2448,101.7554,31,0.018,8405,3.5486,94.2049
lg,1624908710454565914,0,0.4841,0.8303,0.4526,607,-12.7563,0.1831,-4.3335,86,1.3587,1.1566,-28.2481,99.7103,31,0.019,8247,3.5486,94.9713
lg,1624908710454593655,0,0.457,0.8232,0.4673,608,-15.5029,4.1504,-5.3711,86,1.3587,1.1566,-28.1123,97.3582,32,0.019,8192,3.5486,96.012
lg,1624908710790522644,0,0.3718,0.7859,0.478,609,-21.6064,2.2583,-7.7515,86,1.3587,1.1556,-27.7776,94.9167,32,0.018,24970,3.5486,96.8659
lg,1624908710790593607,0,0.3801,0.7815,0.4624,610,-19.7754,-3.418,-6.6528,86,1.3577,1.1556,-27.4734,92.792,31,0.019,14012,3.5486,97.3851
lg,1624908710790616440,0,0.397,0.7651,0.4741,611,-18.7988,-5.5542,-5.7373,86,1.3567,1.1556,-27.2761,90.8603,31,0.019,7231,3.5486,97.7323
lg,1624908710790636903,0,0.3889,0.7739,0.4817,612,-16.2964,-8.1787,-4.8828,86,1.3577,1.1566,-27.0581,89.0856,31,0.019,7258,3.5486,97.9586
lg,1624908710790656255,0,0.3916,0.7537,0.4678,613,-15.625,-8.7891,-4.9438,86,1.3577,1.1556,-26.8758,87.4385,31,0.02,7280,3.5486,98.0843
lg,1624908710790674551,0,0.4094,0.7478,0.467,614,-13.6719,-10.8032,-4.1504,86,1.3567,1.1566,-26.7681,85.9609,32,0.02,8909,3.5486,98.1149
lg,1624908710790692606,0,0.4204,0.7441,0.479,615,-10.376,-12.6343,-2.7466,86,1.3567,1.1556,-26.751,84.6806,32,0.02,7330,3.5486,98.0499
lg,1624908710790710958,0,0.4182,0.7554,0.4888,616,-8.7891,-13.3057,-2.9907,86,1.3567,1.1556,-26.7373,83.4938,32,0.017,7361,3.5486,97.9451
lg,1624908710790728273,0,0.4355,0.7429,0.4893,617,-5.0049,-13.2446,-3.1738,86,1.3567,1.1556,-26.7413,82.5153,32,0.017,9111,3.5486,97.8148
lg,1624908710790745439,0,0.4434,0.7578,0.4895,618,-1.4038,-12.146,-3.7231,86,1.3567,1.1556,-26.7195,81.7147,31,0.014,7373,3.5486,97.7046
lg,1624908710790763143,0,0.4539,0.7617,0.4756,619,0.7935,-12.146,-4.5776,86,1.3567,1.1556,-26.6655,81.0856,31,0.019,7393,3.5486,97.5977
lg,1624908710790780902,0,0.45,0.7522,0.4792,620,3.479,-10.5591,-5.9204,86,1.3567,1.1556,-26.5738,80.5263,31,0.02,7713,3.5486,97.5078
lg,1624908710790798643,0,0.4526,0.7478,0.4709,621,5.9814,-8.8501,-5.6763,86,1.3567,1.1556,-26.4965,80.0671,31,0.021,7439,3.5486,97.4768
lg,1624908710790815642,0,0.4468,0.7576,0.4702,622,6.6528,-7.8125,-6.5918,86,1.3567,1.1556,-26.3573,79.6449,31,0.022,7421,3.5486,97.4699
lg,1624908710790832846,0,0.4451,0.7527,0.4722,623,8.2397,-6.8359,-6.3477,86,1.3567,1.1556,-26.2274,79.2724,31,0.022,7488,3.5486,97.502
lg,1624908710790849846,0,0.439,0.7517,0.4783,624,9.0942,-6.7749,-5.9814,86,1.3567,1.1556,-26.1034,78.9297,31,0.021,7528,3.5486,97.5376
lg,1624908710790878716,0,0.4263,0.7561,0.4924,625,10.8643,-7.3853,-5.7983,86,1.3567,1.1556,-25.9625,78.6529,31,0.02,7655,3.5486,97.5524
lg,1624908710790897049,0,0.4253,0.7773,0.4707,626,11.2305,-7.2021,-5.7983,86,1.3567,1.1556,-25.8447,78.4392,32,0.019,7558,3.5486,97.5497
lg,1624908710790914531,0,0.4316,0.7639,0.4934,627,12.5122,-8.0566,-4.8218,86,1.3567,1.1556,-25.7649,78.2925,32,0.019,10475,3.5486,97.5222
lg,1624908710790931086,0,0.438,0.7708,0.4719,628,12.6343,-7.9956,-4.4556,86,1.3557,1.1556,-25.7074,78.1803,32,0.021,7577,3.5486,97.478
lg,1624908710790948142,0,0.4326,0.793,0.4988,629,14.1602,-8.5449,-3.6011,86,1.3567,1.1556,-25.6518,78.1068,32,0.023,7610,3.5486,97.4293
lg,1624908710790964938,0,0.439,0.7881,0.4773,630,14.5264,-8.0566,-4.0894,86,1.3567,1.1556,-25.5971,78.0844,31,0.023,7600,3.5486,97.3777
lg,1624908710790981919,0,0.4402,0.7739,0.4863,631,14.1602,-8.5449,-3.1738,86,1.3557,1.1556,-25.5986,78.0201,31,0.023,7737,3.5486,97.3267
lg,1624908710790998771,0,0.425,0.7915,0.4878,632,13.7329,-7.5684,-2.5024,86,1.3557,1.1546,-25.5707,77.9314,31,0.023,7659,3.5486,97.3181
lg,1624908710791015012,0,0.437,0.7976,0.4795,633,14.7095,-8.5449,-1.5259,86,1.3557,1.1556,-25.6096,77.9269,31,0.022,7740,3.5486,97.2624
lg,1624908710791031437,0,0.4241,0.793,0.4805,634,13.9771,-7.9346,-1.4038,88,1.3557,1.1546,-25.6252,77.8704,32,0.022,7734,3.5486,97.2393
lg,1624908710791048030,0,0.4316,0.7932,0.4854,635,13.4277,-7.7515,-1.4648,88,1.3557,1.1546,-25.6503,77.7834,32,0.024,7789,3.5486,97.2262
lg,1624908710791064585,0,0.4329,0.803,0.4712,636,12.7563,-7.5073,-0.6104,88,1.3557,1.1556,-25.7018,77.7048,32,0.025,7773,3.5486,97.2131
lg,1624908710791081308,0,0.4336,0.8074,0.4861,637,12.146,-6.958,-0.6714,88,1.3557,1.1546,-25.7282,77.6014,32,0.027,7800,3.5486,97.2196
lg,1624908710791097696,0,0.4365,0.8208,0.4854,638,11.5356,-7.3242,-0.5493,88,1.3557,1.1546,-25.7653,77.4677,32,0.028,7803,3.5486,97.2171
lg,1624908710791115215,0,0.4316,0.8147,0.4937,639,9.3994,-7.1411,-0.5493,88,1.3557,1.1546,-25.7937,77.2255,32,0.025,7815,3.5486,97.2317
lg,1624908710791148696,0,0.4282,0.8052,0.4807,640,9.8267,-7.1411,-0.3052,88,1.3557,1.1546,-25.8352,77.0239,32,0.028,8461,3.5486,97.2384
lg,1624908711128505460,0,0.417,0.7988,0.4683,641,6.5308,-5.9204,-0.061,88,1.3537,1.1506,-25.8598,76.6904,32,0.027,24472,3.5486,97.2906
lg,1624908711128663607,0,0.4258,0.7976,0.4614,642,6.1035,-5.9814,0.1221,88,1.3557,1.1546,-25.9112,76.3683,32,0.027,11248,3.5486,97.3303
lg,1624908711128692903,0,0.4238,0.7991,0.4619,643,4.6997,-6.7749,0.3052,88,1.3557,1.1546,-25.9695,76.0166,32,0.029,7510,3.5486,97.3329
lg,1624908711128719403,0,0.4238,0.7974,0.467,644,4.2114,-6.1646,0.5493,88,1.3547,1.1546,-26.0296,75.6331,32,0.03,7504,3.5486,97.3654
lg,1624908711128744829,0,0.4246,0.792,0.4712,645,3.2959,-6.1646,-0.1831,88,1.3557,1.1536,-26.0644,75.2167,32,0.029,7302,3.5486,97.391
lg,1624908711128766958,0,0.4336,0.7898,0.4778,646,3.54,-7.3242,-0.1831,88,1.3557,1.1546,-26.1282,74.8338,32,0.029,9262,3.5486,97.3666
lg,1624908711128786199,0,0.4243,0.782,0.47,647,3.2349,-6.4697,-0.061,88,1.3557,1.1536,-26.15,74.4023,32,0.029,7363,3.5486,97.3479
lg,1624908711128825735,0,0.4368,0.7983,0.4802,648,2.8687,-7.4463,-0.8545,88,1.3557,1.1546,-26.1842,74.0346,32,0.029,7615,3.5486,97.2959
lg,1624908711128852013,0,0.4233,0.79,0.4741,649,2.8687,-6.5308,-0.8545,88,1.3557,1.1546,-26.1897,73.6642,32,0.03,7460,3.5486,97.2772
lg,1624908711128873013,0,0.4238,0.7947,0.4736,650,3.1738,-6.958,-1.0376,88,1.3557,1.1546,-26.1898,73.3359,32,0.03,7425,3.5486,97.229
lg,1624908711128893698,0,0.4309,0.7942,0.4888,651,3.9673,-6.8359,-1.1597,88,1.3557,1.1546,-26.1947,73.0194,32,0.029,7477,3.5486,97.1929
lg,1624908711128915216,0,0.4375,0.7939,0.4751,652,3.9062,-7.5073,-1.0376,88,1.3557,1.1546,-26.2292,72.7548,31,0.03,7551,3.5519,97.1112
lg,1624908711128936050,0,0.4243,0.7869,0.469,653,4.2114,-6.3477,-0.9766,88,1.3557,1.1546,-26.2331,72.4925,31,0.03,7699,3.5519,97.0745
lg,1624908711128997494,0,0.4187,0.7808,0.4695,654,4.0894,-5.3711,-0.7324,88,1.3557,1.1546,-26.2205,72.2122,31,0.029,7562,3.5519,97.08
lg,1624908711129024605,0,0.4053,0.8005,0.4719,655,3.7842,-5.4932,-0.4272,88,1.3557,1.1546,-26.1838,71.9402,31,0.029,7520,3.5519,97.0753
lg,1624908711129044271,0,0.4155,0.7903,0.4658,656,5.188,-6.4697,0,88,1.3557,1.1546,-26.2085,71.754,31,0.029,7573,3.5519,97.0289
lg,1624908711129067678,0,0.4143,0.7842,0.4805,657,5.0049,-6.4697,0.2441,88,1.3557,1.1546,-26.2404,71.5272,31,0.03,7589,3.5519,97.0004
lg,1624908711129091252,0,0.4202,0.7998,0.4646,658,5.9814,-7.9346,0.4272,88,1.3557,1.1546,-26.2988,71.4282,31,0.028,7615,3.5519,96.8853
lg,1624908711129111493,0,0.4146,0.7808,0.4778,659,6.4087,-9.0942,0.3662,88,1.3557,1.1546,-26.3694,71.3205,31,0.03,7653,3.5519,96.7421
lg,1624908711129128197,0,0.4343,0.7771,0.4729,660,5.7983,-7.5073,0.4272,88,1.3557,1.1546,-26.4649,71.1727,31,0.029,7619,3.5519,96.6615
lg,1624908711129146530,0,0.4419,0.7803,0.4788,661,6.5308,-8.3008,0.4272,88,1.3557,1.1546,-26.508,71.0557,32,0.029,7703,3.5519,96.5556
lg,1624908711129166974,0,0.4329,0.7798,0.4805,662,6.5308,-7.9346,-0.3662,88,1.3557,1.1546,-26.5661,70.9473,32,0.029,7707,3.5519,96.4483
lg,1624908711129187030,0,0.4233,0.7688,0.4861,663,5.9814,-6.7139,0.061,88,1.3557,1.1546,-26.6116,70.7681,32,0.029,7679,3.5519,96.4099
lg,1624908711129208029,0,0.4265,0.7786,0.4712,664,6.1646,-6.4087,-0.4272,88,1.3557,1.1536,-26.6351,70.6451,32,0.029,9929,3.5519,96.3547
lg,1624908711129227011,0,0.4172,0.7837,0.478,665,6.4087,-6.5308,-0.7324,88,1.3547,1.1546,-26.6223,70.5306,31,0.029,7695,3.5519,96.2926
lg,1624908711129246085,0,0.4192,0.7812,0.4714,666,6.7139,-6.7749,-1.0376,88,1.3547,1.1536,-26.61,70.4512,31,0.029,8120,3.5519,96.2084
lg,1624908711129265992,0,0.4194,0.7952,0.4805,667,6.3477,-6.5308,-0.6714,88,1.3547,1.1536,-26.594,70.3502,31,0.028,10325,3.5519,96.1398
lg,1624908711129283214,0,0.4297,0.7988,0.4851,668,6.6528,-7.2632,-0.7935,88,1.3547,1.1536,-26.5999,70.2763,32,0.029,8161,3.5519,96.0384
lg,1624908711129340806,0,0.4304,0.7957,0.4917,669,6.6528,-6.5918,-1.0376,88,1.3557,1.1546,-26.5898,70.1767,32,0.029,8612,3.5519,95.9684
lg,1624908711129362491,0,0.4194,0.7844,0.4719,670,7.5684,-7.2021,-0.6104,88,1.3557,1.1546,-26.5984,70.1532,32,0.027,8793,3.5519,95.8651
lg,1624908711129381065,0,0.4202,0.803,0.468,671,7.5073,-7.2632,-0.5493,88,1.3557,1.1546,-26.5959,70.1593,32,0.028,7845,3.5519,95.7462
lg,1624908711129400232,0,0.4299,0.7881,0.4829,672,6.958,-6.5308,0.4272,88,1.3557,1.1546,-26.6345,70.0692,31,0.028,7887,3.5519,95.6971
lg,1624908711461395648,0,0.4282,0.7954,0.4741,673,6.1035,-7.3242,-0.1831,88,1.3497,1.1496,-26.6664,70.0006,31,0.03,25102,3.5519,95.5892
lg,1624908711461433555,0,0.4309,0.7935,0.4824,674,5.9204,-7.6904,-0.1221,88,1.3547,1.1536,-26.68,69.8934,32,0.029,11692,3.5519,95.5028
lg,1624908711461454185,0,0.4377,0.7932,0.4702,675,5.8594,-7.019,-0.7935,88,1.3547,1.1536,-26.7058,69.828,32,0.029,8189,3.5519,95.3927
lg,1624908711461473222,0,0.4324,0.7888,0.4683,676,5.9204,-6.7139,-0.6714,88,1.3557,1.1546,-26.7249,69.7591,32,0.028,7238,3.5519,95.2971
lg,1624908711461491370,0,0.4214,0.7903,0.4827,677,5.8594,-6.4087,-0.7935,88,1.3547,1.1546,-26.7067,69.6543,32,0.026,7259,3.5519,95.2256
lg,1624908711461509536,0,0.4165,0.7793,0.4736,678,5.7983,-6.5308,-0.7324,88,1.3557,1.1536,-26.696,69.5585,31,0.027,7266,3.5519,95.1455
lg,1624908711461526870,0,0.4294,0.7842,0.4773,679,5.8594,-6.2256,-1.1597,88,1.3547,1.1546,-26.6863,69.4663,31,0.027,7281,3.5519,95.07
lg,1624908711461544221,0,0.4224,0.7832,0.4731,680,5.6152,-6.3477,-1.5259,88,1.3557,1.1546,-26.6531,69.3794,31,0.027,8985,3.5519,94.9789
lg,1624908711461564443,0,0.4307,0.7793,0.467,681,6.0425,-6.2866,-1.709,88,1.3557,1.1546,-26.636,69.3232,31,0.026,7374,3.5519,94.8814
lg,1624908711461581777,0,0.4336,0.7825,0.4651,682,6.6528,-6.2866,-1.3428,88,1.3557,1.1546,-26.637,69.2995,31,0.026,7411,3.5519,94.7847
lg,1624908711461598351,0,0.4363,0.7798,0.4788,683,6.5918,-5.7373,-1.5259,88,1.3557,1.1536,-26.6268,69.2328,31,0.026,7386,3.5519,94.7223
lg,1624908711461638332,0,0.4346,0.7844,0.4724,684,7.4463,-6.8359,-1.1597,88,1.3557,1.1546,-26.6405,69.2399,31,0.026,7471,3.5519,94.6099
lg,1624908711461656332,0,0.427,0.7861,0.4614,685,7.6904,-6.4697,-1.1597,88,1.3557,1.1536,-26.6353,69.2744,31,0.025,7543,3.5519,94.5019
lg,1624908711461673498,0,0.4307,0.7737,0.4617,686,7.9346,-5.9814,-1.0376,88,1.3557,1.1546,-26.6469,69.2924,31,0.025,9229,3.5519,94.4235
lg,1624908711461690183,0,0.4314,0.7869,0.4707,687,8.4839,-5.5542,-0.7935,88,1.3557,1.1536,-26.6474,69.318,31,0.025,11955,3.5519,94.369
lg,1624908711461706906,0,0.416,0.7969,0.4612,688,8.9111,-6.7749,-0.6714,88,1.3557,1.1536,-26.6323,69.4119,31,0.026,7511,3.5519,94.2519
lg,1624908711461723035,0,0.4165,0.7935,0.478,689,8.1177,-6.4087,-0.4883,88,1.3547,1.1536,-26.6181,69.4216,31,0.026,7492,3.5519,94.1728
lg,1624908711461739183,0,0.4368,0.8066,0.4675,690,9.2773,-7.1411,-0.1221,88,1.3557,1.1536,-26.6606,69.5299,32,0.025,7535,3.5519,94.0502
lg,1624908711461755683,0,0.427,0.7949,0.4646,691,9.9487,-7.1411,0.1221,88,1.3557,1.1536,-26.7023,69.6503,32,0.026,7559,3.5519,93.9372
lg,1624908711461773646,0,0.4304,0.8093,0.4626,692,9.3384,-7.2632,-0.4272,88,1.3557,1.1546,-26.7178,69.7693,32,0.026,7570,3.5519,93.8032
lg,1624908711461790442,0,0.4207,0.7915,0.4749,693,8.5449,-6.2866,-0.3662,88,1.3557,1.1536,-26.7139,69.7842,32,0.025,8144,3.5519,93.7353
lg,1624908711461807090,0,0.4246,0.8118,0.4839,694,8.3008,-6.4087,-0.6104,88,1.3557,1.1536,-26.6899,69.798,32,0.025,7588,3.5519,93.6563
lg,1624908711461823831,0,0.428,0.7935,0.4856,695,8.606,-6.4697,-0.1221,88,1.3557,1.1536,-26.7084,69.7965,32,0.025,7690,3.5519,93.5936
lg,1624908711461840312,0,0.4255,0.8025,0.4807,696,8.1177,-5.5542,-0.4883,88,1.3557,1.1536,-26.6886,69.7814,32,0.026,7643,3.5519,93.5545
lg,1624908711461856534,0,0.4231,0.801,0.4639,697,7.9346,-6.4087,-1.0376,88,1.3557,1.1536,-26.6623,69.8139,32,0.025,7723,3.5519,93.4551
lg,1624908711461872868,0,0.4148,0.8,0.4727,698,7.9956,-6.2866,-0.8545,88,1.3557,1.1536,-26.6141,69.8271,32,0.026,7754,3.5519,93.3468
lg,1624908711461901701,0,0.4114,0.7898,0.4673,699,7.2632,-5.4932,-0.5493,88,1.3557,1.1546,-26.5816,69.7877,32,0.026,7730,3.5519,93.3039
lg,1624908711461919608,0,0.4189,0.8042,0.47,700,6.8359,-5.7373,-0.5493,88,1.3557,1.1536,-26.5555,69.7495,32,0.026,7733,3.5519,93.2443
lg,1624908711462025255,0,0.4207,0.8013,0.4771,701,6.5308,-6.2256,-1.2207,88,1.3557,1.1536,-26.5159,69.6961,32,0.026,7781,3.5519,93.1614
lg,1624908711462044718,0,0.4128,0.792,0.4863,702,7.019,-7.9346,-0.7324,88,1.3557,1.1536,-26.5091,69.6608,31,0.026,7823,3.5519,93.0275
lg,1624908711462063385,0,0.4111,0.8088,0.4641,703,7.2021,-7.2021,-1.709,88,1.3557,1.1536,-26.4446,69.6946,31,0.026,7852,3.5519,92.8785
lg,1624908711462082718,0,0.4402,0.8027,0.4714,704,6.8359,-6.8359,-1.2207,88,1.3557,1.1546,-26.4573,69.6837,31,0.026,7862,3.5519,92.7608
lg,1624908711801122277,0,0.4446,0.7939,0.4604,705,6.8359,-6.4087,-2.0142,88,1.3547,1.1546,-26.4544,69.6851,31,0.025,25181,3.5519,92.6425
lg,1624908711801159573,0,0.4207,0.7952,0.469,706,6.3477,-5.6152,-1.709,88,1.3557,1.1536,-26.389,69.6129,31,0.025,14237,3.5519,92.5581
lg,1624908711801180221,0,0.4202,0.8071,0.4651,707,5.7983,-5.4321,-1.2207,88,1.3547,1.1536,-26.3428,69.5531,31,0.025,7283,3.5519,92.4906
lg,1624908711801199221,0,0.4207,0.7993,0.4646,708,6.6528,-5.4932,-1.0376,88,1.3557,1.1536,-26.3141,69.5217,32,0.025,8050,3.5519,92.4256
lg,1624908711801217703,0,0.4124,0.7954,0.4712,709,6.6528,-6.1646,-1.1597,88,1.3547,1.1536,-26.2759,69.4846,32,0.025,7269,3.5519,92.3389
lg,1624908711801235869,0,0.4089,0.7922,0.4692,710,5.9814,-6.2256,-0.5493,88,1.3547,1.1536,-26.2593,69.4189,32,0.025,7303,3.5519,92.2583
lg,1624908711801253758,0,0.4238,0.7896,0.4663,711,6.5308,-6.5918,-0.1831,88,1.3547,1.1536,-26.2958,69.3876,32,0.024,9454,3.5519,92.1644
lg,1624908711801271184,0,0.4177,0.7883,0.4746,712,6.7139,-7.0801,0,88,1.3547,1.1536,-26.3306,69.3522,31,0.025,7708,3.5519,92.0618
lg,1624908711801289535,0,0.4192,0.7949,0.4563,713,6.7749,-7.3853,-0.4883,88,1.3547,1.1536,-26.353,69.3778,31,0.025,7310,3.5519,91.917
lg,1624908711801331924,0,0.4182,0.803,0.4722,714,6.958,-7.2021,0.1831,88,1.3557,1.1536,-26.4228,69.3749,31,0.025,8110,3.5519,91.8028
lg,1624908711801351554,0,0.4204,0.8035,0.4688,715,6.6528,-7.2021,-0.6104,88,1.3557,1.1536,-26.4254,69.3753,31,0.026,8951,3.5519,91.6722
lg,1624908711801369072,0,0.437,0.8093,0.4592,716,7.2021,-6.4697,-0.5493,88,1.3567,1.1536,-26.4512,69.4134,31,0.025,8214,3.5519,91.5599
lg,1624908711801386090,0,0.4368,0.7993,0.4724,717,6.7749,-6.3477,-0.4883,88,1.3557,1.1546,-26.4764,69.4023,31,0.025,8079,3.5519,91.4619
lg,1624908711801403405,0,0.4258,0.7913,0.468,718,7.6294,-7.2632,-0.8545,88,1.3557,1.1546,-26.4905,69.4318,31,0.025,7436,3.5519,91.331
lg,1624908711801419961,0,0.4031,0.8042,0.4707,719,6.958,-6.3477,-0.6104,88,1.3557,1.1546,-26.4421,69.4204,31,0.026,7858,3.5519,91.2401
lg,1624908711801437423,0,0.4224,0.8088,0.4595,720,6.1035,-6.4087,-0.2441,88,1.3557,1.1546,-26.4487,69.4063,31,0.026,7499,3.5519,91.1374
lg,1624908711801453442,0,0.4285,0.8081,0.4656,721,7.6294,-7.3853,-0.1831,88,1.3557,1.1546,-26.4818,69.4585,31,0.025,7910,3.5519,91.0004
lg,1624908711801470164,0,0.4111,0.7974,0.469,722,6.2256,-7.2632,-0.3052,88,1.3557,1.1546,-26.4807,69.4287,31,0.026,8304,3.5519,90.8777
lg,1624908711801486219,0,0.4255,0.8079,0.4795,723,6.2256,-6.897,0.2441,88,1.3557,1.1546,-26.5117,69.3812,31,0.026,7554,3.5519,90.782
lg,1624908711801503312,0,0.4292,0.8152,0.4666,724,7.9956,-7.8125,0.3052,88,1.3557,1.1546,-26.5615,69.4599,31,0.026,7948,3.5519,90.6318
lg,1624908711801520553,0,0.4236,0.8086,0.4788,725,6.958,-7.4463,-0.1831,88,1.3557,1.1546,-26.5766,69.4561,31,0.027,10026,3.5519,90.5065
lg,1624908711801537386,0,0.4341,0.8093,0.4705,726,7.1411,-6.7139,0.1831,88,1.3557,1.1536,-26.6061,69.4175,31,0.027,8093,3.5519,90.3752
lg,1624908711801554552,0,0.4221,0.7981,0.481,727,5.8594,-6.4697,-0.5493,88,1.3557,1.1546,-26.5979,69.3385,31,0.026,7625,3.5519,90.2925
lg,1624908711801572367,0,0.4214,0.7883,0.4646,728,4.0894,-5.127,-0.4883,88,1.3557,1.1536,-26.5862,69.1899,31,0.027,7703,3.5519,90.2551
lg,1624908711801601534,0,0.4292,0.8098,0.4629,729,6.1035,-5.6152,-0.3662,88,1.3557,1.1546,-26.5836,69.1659,31,0.027,7693,3.5519,90.183
lg,1624908711801619515,0,0.427,0.8123,0.467,730,5.7983,-5.7373,-0.3052,88,1.3557,1.1536,-26.5773,69.126,31,0.027,8091,3.5519,90.1093
lg,1624908711801636348,0,0.4238,0.7969,0.4695,731,5.6152,-5.9204,0,88,1.3557,1.1546,-26.5945,69.0775,31,0.027,8189,3.5519,90.0264
lg,1624908711801652848,0,0.4199,0.8044,0.468,732,5.6152,-6.2866,0.1221,88,1.3557,1.1546,-26.6038,69.0289,32,0.026,7754,3.5519,89.9404
lg,1624908711801669718,0,0.4106,0.7976,0.4661,733,4.7607,-5.6152,0.4272,88,1.3557,1.1546,-26.6024,68.9281,32,0.027,7818,3.5519,89.889
lg,1624908711801686422,0,0.4238,0.7932,0.4714,734,4.0894,-6.0425,0.2441,88,1.3557,1.1546,-26.5914,68.8083,32,0.027,8209,3.5519,89.8155
lg,1624908711801702737,0,0.4077,0.7759,0.4783,735,3.418,-5.0659,0.4272,88,1.3557,1.1546,-26.592,68.5989,32,0.026,7853,3.5519,89.8075
lg,1624908711801719607,0,0.4104,0.783,0.48,736,4.5166,-6.5918,0.1221,88,1.3557,1.1536,-26.602,68.4777,31,0.026,8502,3.5519,89.725
lg,1624908712129404072,0,0.4299,0.7837,0.4641,737,5.0659,-7.1411,-0.2441,88,1.3497,1.1526,-26.6507,68.4405,31,0.027,25614,3.5519,89.5919
lg,1624908712129439387,0,0.4221,0.7839,0.4729,738,6.5918,-6.4697,-1.0376,88,1.3557,1.1536,-26.6392,68.4332,31,0.026,10906,3.5519,89.4851
lg,1624908712129459979,0,0.439,0.7949,0.4661,739,6.0425,-5.7983,-0.7324,88,1.3557,1.1536,-26.6405,68.3977,31,0.027,7518,3.5519,89.4199
lg,1624908712129479813,0,0.4209,0.8008,0.4622,740,5.6763,-5.188,-1.0986,88,1.3547,1.1536,-26.5948,68.3753,31,0.027,7226,3.5519,89.3452
lg,1624908712129498312,0,0.4185,0.7925,0.46,741,6.1035,-5.0659,-0.9766,88,1.3547,1.1536,-26.5742,68.3918,31,0.027,7285,3.5519,89.2519
lg,1624908712129515646,0,0.4116,0.7844,0.4551,742,6.2256,-5.3711,-1.0376,88,1.3557,1.1536,-26.5339,68.3893,32,0.027,7242,3.5519,89.1724
lg,1624908712129533942,0,0.4019,0.7864,0.4607,743,7.019,-6.2256,-0.4272,88,1.3547,1.1536,-26.5064,68.4186,32,0.027,7649,3.5519,89.0722
lg,1624908712129572682,0,0.4097,0.7942,0.4619,744,6.6528,-6.3477,-0.5493,88,1.3557,1.1536,-26.4861,68.443,32,0.027,10991,3.5519,88.9617
lg,1624908712129591201,0,0.4106,0.7925,0.4746,745,6.6528,-7.3242,-0.3662,88,1.3547,1.1536,-26.4868,68.4536,32,0.027,7329,3.5519,88.8272
lg,1624908712129607904,0,0.417,0.7986,0.4675,746,6.5918,-7.8125,0.6714,88,1.3557,1.1536,-26.543,68.4865,31,0.028,7378,3.5519,88.6788
lg,1624908712129625145,0,0.4241,0.79,0.4768,747,7.1411,-8.3618,0.3052,88,1.3557,1.1546,-26.6033,68.5531,31,0.027,7392,3.5519,88.5023
lg,1624908712129643034,0,0.4233,0.7944,0.4885,748,6.6528,-7.6904,-0.2441,88,1.3557,1.1536,-26.6286,68.54,31,0.027,7392,3.5519,88.3684
lg,1624908712129659608,0,0.4404,0.8042,0.4849,749,7.2632,-7.3853,-0.2441,88,1.3557,1.1536,-26.6774,68.5967,31,0.027,7431,3.5519,88.2197
lg,1624908712129676274,0,0.4536,0.821,0.4734,750,7.8735,-7.019,-0.7935,88,1.3557,1.1536,-26.711,68.6902,31,0.027,7441,3.5519,88.0755
lg,1624908712129692645,0,0.4485,0.814,0.4788,751,6.897,-5.188,-1.3428,88,1.3557,1.1546,-26.6909,68.6904,31,0.027,7461,3.5519,88.0098
lg,1624908712129709274,0,0.4558,0.8198,0.4758,752,6.5918,-3.9673,-0.8545,88,1.3557,1.1536,-26.6824,68.6659,31,0.027,7515,3.5519,87.9967
lg,1624908712129725422,0,0.4324,0.8054,0.4861,753,5.9204,-2.1362,-1.3428,88,1.3557,1.1536,-26.5929,68.5429,31,0.027,7508,3.5519,88.0704
lg,1624908712129741533,0,0.4355,0.8145,0.4624,754,5.0659,-2.2583,-1.4038,89,1.3557,1.1536,-26.5126,68.4552,31,0.027,7549,3.5519,88.1074
lg,1624908712129757903,0,0.4294,0.8098,0.4651,755,4.2114,-2.5635,-0.3662,89,1.3557,1.1536,-26.4692,68.323,31,0.027,7604,3.5519,88.152
lg,1624908712129774551,0,0.4194,0.8032,0.4626,756,3.54,-2.0142,0.6714,89,1.3557,1.1536,-26.4191,68.1434,31,0.027,7581,3.5519,88.2373
lg,1624908712129792274,0,0.4031,0.7935,0.4636,757,2.3804,-3.0518,1.6479,89,1.3557,1.1536,-26.422,67.9251,31,0.027,7576,3.5519,88.2975
lg,1624908712129809088,0,0.4062,0.7883,0.4592,758,2.3804,-5.5542,2.8076,89,1.3557,1.1536,-26.5172,67.7568,32,0.027,7630,3.5519,88.2681
lg,1624908712129838162,0,0.4021,0.7891,0.4585,759,2.2583,-5.9814,2.8687,89,1.3557,1.1536,-26.6085,67.5996,32,0.028,7850,3.5519,88.2192
lg,1624908712129855884,0,0.4133,0.7939,0.4639,760,2.6855,-7.8125,3.479,89,1.3557,1.1536,-26.7634,67.4906,32,0.027,11036,3.5519,88.105
lg,1624908712129872347,0,0.4119,0.7837,0.4719,761,3.479,-8.3008,4.0283,89,1.3557,1.1536,-26.9432,67.3923,32,0.028,7726,3.5519,87.9928
lg,1624908712129888273,0,0.4216,0.7817,0.4746,762,3.7842,-8.4229,3.6621,89,1.3557,1.1536,-27.093,67.3143,32,0.027,7737,3.5519,87.8807
lg,1624908712129904421,0,0.4221,0.7859,0.4675,763,4.5776,-7.5684,2.5635,89,1.3547,1.1536,-27.2156,67.2787,32,0.027,7793,3.5519,87.7666
lg,1624908712129920699,0,0.4084,0.7773,0.4727,764,4.8828,-5.6152,1.3428,89,1.3557,1.1536,-27.2363,67.2057,32,0.027,8153,3.5519,87.7235
lg,1624908712129937421,0,0.4243,0.7954,0.4734,765,6.0425,-6.0425,0.4883,89,1.3557,1.1536,-27.2477,67.2196,32,0.027,10443,3.5519,87.6364
lg,1624908712129953476,0,0.4182,0.8027,0.4722,766,7.2021,-5.3101,-0.4883,89,1.3557,1.1546,-27.1933,67.2838,31,0.027,8377,3.5519,87.5582
lg,1624908712129970124,0,0.4182,0.7986,0.4663,767,7.2021,-4.5776,-1.5259,89,1.3557,1.1536,-27.0972,67.3475,31,0.027,7846,3.5519,87.4899
lg,1624908712129986680,0,0.4124,0.783,0.4824,768,7.6294,-4.3945,-2.6245,89,1.3557,1.1546,-26.9577,67.3757,31,0.027,7903,3.5519,87.4363
lg,1624908712477321555,0,0.4004,0.7986,0.4709,769,8.4229,-5.4932,-1.5259,89,1.3557,1.1536,-26.8466,67.489,31,0.027,25049,3.5519,87.3363
lg,1624908712477360148,0,0.3904,0.7976,0.4597,770,7.9346,-6.0425,-0.4883,89,1.3557,1.1546,-26.7702,67.6027,31,0.027,14401,3.5519,87.2224
lg,1624908712477381055,0,0.4038,0.8018,0.4778,771,7.3242,-7.8125,-0.1831,89,1.3557,1.1536,-26.7527,67.6852,31,0.027,7599,3.5508,87.0567
lg,1624908712477400240,0,0.4124,0.8098,0.4824,772,7.3853,-9.0332,-0.2441,89,1.3557,1.1536,-26.7608,67.7909,31,0.027,7222,3.5508,86.8402
lg,1624908712477421277,0,0.4219,0.8005,0.4697,773,7.4463,-9.5215,0.1831,89,1.3557,1.1536,-26.8224,67.9185,31,0.026,9891,3.5508,86.6042
lg,1624908712477459517,0,0.436,0.8142,0.4663,774,5.7983,-7.2632,-0.2441,89,1.3547,1.1536,-26.8497,67.9616,31,0.026,7615,3.5508,86.446
lg,1624908712477478665,0,0.4238,0.801,0.4827,775,6.7749,-8.4839,-0.5493,89,1.3557,1.1546,-26.8579,67.9583,31,0.027,9187,3.5508,86.3332
lg,1624908712477496424,0,0.4368,0.8,0.4702,776,5.3711,-6.4087,-0.1831,89,1.3557,1.1546,-26.8859,67.9414,31,0.027,7684,3.5508,86.2237
lg,1624908712477514573,0,0.437,0.8027,0.4768,777,4.6997,-5.127,-0.6104,89,1.3557,1.1536,-26.8738,67.8664,31,0.027,7400,3.5508,86.1653
lg,1624908712477531776,0,0.4309,0.8025,0.4761,778,5.5542,-5.8594,-0.8545,89,1.3557,1.1546,-26.8525,67.8447,31,0.026,7365,3.5508,86.0708
lg,1624908712477548887,0,0.4365,0.8169,0.4788,779,5.3711,-5.4321,-0.9766,89,1.3557,1.1546,-26.819,67.8213,31,0.026,7317,3.5508,85.9861
lg,1624908712477565702,0,0.4285,0.7942,0.4797,780,5.4321,-5.0049,-1.5259,89,1.3557,1.1546,-26.7635,67.7673,31,0.026,7775,3.5508,85.923
lg,1624908712477582257,0,0.4451,0.7878,0.4712,781,5.0049,-5.3101,-0.9155,89,1.3557,1.1546,-26.7793,67.7125,31,0.026,7801,3.5508,85.8504
lg,1624908712477598739,0,0.4338,0.792,0.4819,782,5.127,-5.7373,-1.0376,89,1.3557,1.1546,-26.7475,67.5962,31,0.026,7811,3.5508,85.8401
lg,1624908712477615202,0,0.4314,0.8096,0.4651,783,5.5542,-5.5542,0.6714,89,1.3557,1.1536,-26.7819,67.5996,31,0.026,14249,3.5508,85.7644
lg,1624908712477633701,0,0.4114,0.791,0.4675,784,3.9673,-4.5776,1.1597,89,1.3557,1.1536,-26.793,67.4875,31,0.026,7461,3.5508,85.7511
lg,1624908712477651609,0,0.4031,0.7864,0.4529,785,5.0049,-6.2256,1.1597,89,1.3557,1.1536,-26.8388,67.4577,31,0.026,7936,3.5508,85.6653
lg,1624908712477668349,0,0.4165,0.7876,0.4802,786,3.8452,-5.9814,1.3428,89,1.3547,1.1536,-26.8848,67.3401,31,0.026,7547,3.5508,85.6091
lg,1624908712477685312,0,0.4126,0.7791,0.4727,787,4.8828,-7.9346,2.3804,89,1.3547,1.1536,-26.9991,67.3026,32,0.026,8449,3.5508,85.4856
lg,1624908712477701683,0,0.4287,0.7959,0.4697,788,4.8218,-7.8125,2.3193,89,1.3547,1.1536,-27.1088,67.3057,32,0.026,8674,3.5508,85.3254
lg,1624908712477729182,0,0.4187,0.7903,0.4724,789,5.4321,-8.1787,2.3193,89,1.3557,1.1546,-27.2185,67.3123,32,0.026,8492,3.5508,85.1842
lg,1624908712477800589,0,0.4353,0.7837,0.4626,790,6.5918,-7.6294,1.1597,89,1.3557,1.1546,-27.3158,67.3797,32,0.026,7675,3.5508,85.0393
lg,1624908712477819367,0,0.4441,0.8035,0.4592,791,6.897,-6.4087,1.4038,89,1.3557,1.1546,-27.4006,67.4638,32,0.026,7654,3.5508,84.9361
lg,1624908712477839071,0,0.429,0.7979,0.4648,792,7.6904,-6.5918,0.4883,89,1.3557,1.1536,-27.4236,67.5664,32,0.026,7718,3.5508,84.8208
lg,1624908712477856811,0,0.4143,0.7793,0.4675,793,6.7749,-5.4932,0.3662,89,1.3557,1.1546,-27.4102,67.5778,32,0.027,8076,3.5508,84.7651
lg,1624908712477873330,0,0.4087,0.803,0.4734,794,6.8359,-5.127,0.2441,89,1.3557,1.1546,-27.3533,67.6005,32,0.026,7714,3.5508,84.7156
lg,1624908712477890848,0,0.4221,0.7881,0.4673,795,6.4697,-5.249,-0.6104,89,1.3557,1.1546,-27.3113,67.6137,32,0.026,7759,3.5508,84.648
lg,1624908712477908033,0,0.4072,0.791,0.467,796,7.3242,-6.1035,-0.2441,89,1.3557,1.1546,-27.2387,67.6526,32,0.026,8152,3.5508,84.535
lg,1624908712477924959,0,0.4111,0.7952,0.4653,797,7.4463,-7.5684,-0.3052,89,1.3557,1.1546,-27.2191,67.756,32,0.027,8585,3.5508,84.3709
lg,1624908712477941700,0,0.4097,0.7883,0.4805,798,6.8359,-8.0566,-0.4883,89,1.3557,1.1546,-27.1985,67.7999,32,0.027,7799,3.5508,84.2042
lg,1624908712477957922,0,0.4128,0.7971,0.4683,799,6.5918,-7.1411,-1.0986,89,1.3557,1.1546,-27.1861,67.9113,31,0.027,8217,3.5508,83.9783
lg,1624908712477975699,0,0.4109,0.8018,0.4636,800,8.1177,-9.7656,-0.6714,89,1.3557,1.1546,-27.1812,68.0875,31,0.027,8627,3.5508,83.7151
lg,1624908712807176423,0,0.4321,0.792,0.4753,801,6.6528,-7.3242,-1.3428,89,1.3557,1.1546,-27.1629,68.1224,31,0.027,24754,3.5508,83.5614
lg,1624908712807219868,0,0.4285,0.8086,0.4702,802,6.5308,-6.4087,-1.8311,89,1.3557,1.1536,-27.0934,68.1674,31,0.027,14933,3.5508,83.4246
lg,1624908712807240645,0,0.4363,0.8069,0.4792,803,6.3477,-5.7983,-2.0752,89,1.3557,1.1536,-27.0247,68.2087,31,0.027,7245,3.5508,83.3028
lg,1624908712807260108,0,0.4351,0.8022,0.4907,804,6.4697,-5.4321,-2.0142,89,1.3557,1.1536,-26.9513,68.1799,31,0.027,7249,3.5508,83.2277
lg,1624908712807303275,0,0.4365,0.8057,0.4612,805,5.7373,-5.6763,-1.709,89,1.3557,1.1536,-26.8699,68.1754,31,0.027,7239,3.5508,83.1236
lg,1624908712807322460,0,0.4338,0.7942,0.4683,806,5.4321,-5.3101,-1.5869,89,1.3557,1.1546,-26.829,68.1391,31,0.027,9063,3.5508,83.0418
lg,1624908712807340034,0,0.4297,0.8032,0.4788,807,5.249,-5.5542,-0.9766,89,1.3557,1.1536,-26.7961,68.0843,31,0.027,7304,3.5508,82.9647
lg,1624908712807357719,0,0.4297,0.8108,0.4773,808,5.7373,-6.1646,-0.9766,89,1.3557,1.1536,-26.7675,68.0748,31,0.027,7293,3.5508,82.8556
lg,1624908712807375163,0,0.4194,0.8022,0.4719,809,5.0659,-5.3711,0.061,89,1.3557,1.1536,-26.7553,68.0161,31,0.027,7336,3.5508,82.7964
lg,1624908712807393293,0,0.4314,0.7905,0.4646,810,4.4556,-5.4932,-0.061,89,1.3557,1.1536,-26.7779,67.9422,31,0.027,7366,3.5508,82.7275
lg,1624908712807410459,0,0.4204,0.7979,0.4897,811,5.3101,-6.4087,1.1597,89,1.3557,1.1536,-26.8213,67.8662,31,0.027,7329,3.5508,82.661
lg,1624908712807428477,0,0.4429,0.8145,0.4958,812,4.6997,-6.0425,1.709,89,1.3557,1.1536,-26.9061,67.7681,31,0.027,7664,3.5508,82.6134
lg,1624908712807445996,0,0.4668,0.8159,0.4832,813,4.5776,-5.7373,1.0986,89,1.3557,1.1536,-27.0073,67.7273,31,0.026,7442,3.5508,82.5403
lg,1624908712807462996,0,0.4841,0.8384,0.4995,814,4.8828,-5.0659,2.0752,89,1.3557,1.1546,-27.1406,67.6467,31,0.027,7429,3.5508,82.5267
lg,1624908712807479848,0,0.4756,0.832,0.491,815,4.0894,-3.8452,2.3804,89,1.3557,1.1546,-27.2484,67.536,31,0.026,7661,3.5508,82.5798
lg,1624908712807496829,0,0.4871,0.8289,0.4883,816,4.5166,-5.127,3.2349,89,1.3557,1.1536,-27.4337,67.4527,31,0.026,7515,3.5508,82.5762
lg,1624908712807513403,0,0.4927,0.8372,0.4902,817,3.2959,-2.9907,5.5542,89,1.3557,1.1546,-27.667,67.27,31,0.026,7547,3.5508,82.6988
lg,1624908712807529921,0,0.4756,0.8289,0.5,818,2.1973,-2.0752,5.4321,89,1.3547,1.1546,-27.8438,67.001,31,0.027,7572,3.5508,82.8713
lg,1624908712807546218,0,0.49,0.8525,0.4919,819,0.061,-1.2817,7.1411,89,1.3557,1.1536,-28.0726,66.6717,31,0.027,7569,3.5508,83.0834
lg,1624908712807574495,0,0.4973,0.8433,0.5029,820,-0.3662,-1.5869,7.6904,89,1.3557,1.1546,-28.3336,66.3059,31,0.026,7582,3.5508,83.305
lg,1624908712807593014,0,0.4978,0.8496,0.4949,821,-2.2583,-0.8545,9.0942,89,1.3557,1.1546,-28.6208,65.8736,31,0.026,7611,3.5508,83.5688
lg,1624908712807609606,0,0.5051,0.8411,0.499,822,-3.3569,0.2441,10.8032,89,1.3557,1.1546,-28.9581,65.3566,31,0.026,9539,3.5508,83.9157
lg,1624908712807625995,0,0.5002,0.8357,0.4956,823,-4.1504,-0.061,11.9629,89,1.3557,1.1536,-29.3829,64.7416,31,0.026,7650,3.5508,84.3534
lg,1624908712807643421,0,0.5283,0.8613,0.4917,824,-5.127,1.8921,14.2822,89,1.3557,1.1546,-29.8085,64.1618,31,0.026,7656,3.5508,84.81
lg,1624908712807660254,0,0.5312,0.875,0.5176,825,-6.958,2.3193,16.8457,89,1.3557,1.1546,-30.2803,63.4536,31,0.027,7865,3.5508,85.3521
lg,1624908712807676791,0,0.55,0.8821,0.5095,826,-7.5073,3.0518,18.2495,89,1.3557,1.1546,-30.7945,62.7377,31,0.026,8010,3.5508,85.939
lg,1624908712807693439,0,0.5242,0.9009,0.5132,827,-9.4604,4.4556,22.4609,89,1.3557,1.1546,-31.3431,61.8975,31,0.027,7852,3.5508,86.6662
lg,1624908712807710272,0,0.4766,0.9185,0.5327,828,-13.0005,1.9531,30.2124,89,1.3547,1.1546,-32.0748,60.8775,31,0.029,7856,3.5508,87.4735
lg,1624908712807727716,0,0.4731,0.8987,0.5354,829,-14.6484,-0.8545,35.3394,89,1.3557,1.1556,-33.0043,59.7786,32,0.029,7882,3.5508,88.3067
lg,1624908712807744827,0,0.5215,0.8823,0.5315,830,-16.6626,-6.7749,47.1191,89,1.3557,1.1546,-34.5053,58.5722,32,0.029,7840,3.5508,89.2071
lg,1624908712807762068,0,0.5476,0.8848,0.5139,831,-18.6768,-6.6528,52.7954,89,1.3557,1.1556,-36.3403,56.9839,32,0.029,7886,3.5508,90.4219
lg,1624908712807778679,0,0.5186,0.9038,0.5,832,-26.7334,-6.8359,63.1104,89,1.3557,1.1556,-38.1944,55.1854,32,0.031,8576,3.5508,91.7924
lg,1624908713146885072,0,0.5996,0.8291,0.4924,833,-47.3633,-29.0527,89.4165,89,1.3557,1.1556,-41.556,52.5046,32,0.033,25131,3.5508,93.1828
lg,1624908713146928979,0,0.6714,0.792,0.4551,834,-57.0068,-28.5034,98.5718,89,1.3557,1.1556,-45.1987,48.6641,31,0.033,10044,3.5508,95.3816
lg,1624908713146978164,0,0.6956,0.7681,0.4451,835,-67.4438,-23.5596,108.3374,89,1.3557,1.1556,-48.7052,44.0008,31,0.033,7421,3.5508,98.3864
lg,1624908713147001386,0,0.6748,0.7251,0.4661,836,-75.7446,-13.1226,115.9058,89,1.3557,1.1566,-51.7414,37.8256,31,0.033,7432,3.5508,102.8185
lg,1624908713147021534,0,0.6313,0.7114,0.4631,837,-80.3833,-12.085,118.042,89,1.3567,1.1556,-54.29,30.8112,31,0.033,7387,3.5508,108.0338
lg,1624908713147041423,0,0.5891,0.6887,0.4854,838,-87.7686,-18.4937,124.0234,89,1.3567,1.1566,-56.5784,22.7366,32,0.033,7452,3.5508,114.1209
lg,1624908713147059978,0,0.6323,0.6025,0.479,839,-91.1255,-27.9541,129.0894,89,1.3567,1.1576,-58.7817,13.5027,32,0.032,9070,3.5508,121.3055
lg,1624908713147077830,0,0.6399,0.6001,0.5149,840,-91.3696,-28.9307,130.4932,89,1.3567,1.1576,-60.2753,3.1251,32,0.032,7961,3.5508,129.7076
lg,1624908713147095756,0,0.6404,0.5603,0.5212,841,-90.8813,-33.02,134.4604,89,1.3567,1.1576,-61.087,-7.6824,32,0.03,7506,3.5508,138.6641
lg,1624908713147113200,0,0.6709,0.5144,0.5254,842,-91.1865,-32.6538,140.8691,89,1.3577,1.1576,-60.9853,-19.0636,31,0.029,7464,3.5508,148.2775
lg,1624908713147131922,0,0.6851,0.4763,0.5247,843,-92.5903,-31.311,142.8833,89,1.3577,1.1576,-59.9359,-30.0069,31,0.028,7703,3.5508,157.4263
lg,1624908713147149681,0,0.6865,0.4167,0.5552,844,-93.811,-28.3203,144.5923,89,1.3577,1.1586,-57.9085,-39.8846,31,0.028,7529,3.5508,165.4551
lg,1624908713147167051,0,0.6907,0.3887,0.5278,845,-92.7124,-26.4893,146.1182,89,1.3587,1.1586,-55.2036,-48.2013,31,0.027,7604,3.5508,-187.9828
lg,1624908713147208125,0,0.6758,0.3953,0.499,846,-89.6606,-23.1934,146.5454,89,1.3587,1.1576,-52.1336,-55.1641,32,0.027,7609,3.5508,-182.7095
lg,1624908713147233533,0,0.6934,0.3813,0.5024,847,-92.5903,-23.1323,143.7378,89,1.3587,1.1586,-48.8937,-61.1612,32,0.028,7661,3.5508,-178.5453
lg,1624908713147254458,0,0.6995,0.3628,0.5068,848,-93.75,-22.644,142.6392,89,1.3597,1.1586,-45.4922,-66.3535,32,0.028,7670,3.5508,-175.2579
lg,1624908713147272532,0,0.7207,0.2646,0.5247,849,-91.1255,-17.7002,140.4419,89,1.3597,1.1586,-41.8713,-70.6438,32,0.028,7701,3.5508,-172.8898
lg,1624908713147290328,0,0.7346,0.2534,0.4897,850,-88.501,-13.3057,137.8174,89,1.3597,1.1586,-38.3718,-73.9729,32,0.028,7694,3.5508,-171.4924
lg,1624908713147308754,0,0.7017,0.2483,0.4883,851,-85.5713,-5.5542,131.1646,89,1.3597,1.1586,-34.9609,-76.8439,32,0.028,7690,3.5508,-170.6294
lg,1624908713147329365,0,0.647,0.1753,0.5078,852,-86.6699,-1.0986,124.8169,89,1.3597,1.1586,-31.6399,-79.298,32,0.028,7666,3.5508,-170.3306
lg,1624908713147349680,0,0.6316,0.1594,0.5283,853,-85.6323,-1.0986,122.2534,89,1.3607,1.1596,-28.3642,-81.4817,32,0.029,7747,3.5508,-170.2531
lg,1624908713147368087,0,0.6282,0.1113,0.5505,854,-78.9185,-5.127,116.6382,89,1.3607,1.1596,-25.3228,-83.359,31,0.028,7691,3.5508,-170.1441
lg,1624908713147389458,0,0.6707,0.0938,0.5723,855,-68.4814,-5.9204,106.5674,89,1.3607,1.1586,-22.7155,-84.7712,31,0.029,11664,3.5508,-170.1064
lg,1624908713147411939,0,0.6394,0.0454,0.5962,856,-54.9316,-2.3193,93.75,89,1.3597,1.1586,-20.5276,-85.4542,31,0.03,7961,3.5508,-170.3239
lg,1624908713147433642,0,0.6228,0.0176,0.6111,857,-46.2646,-1.0986,87.5244,89,1.3597,1.1586,-18.6669,-85.2294,31,0.03,7781,3.5508,-170.5922
lg,1624908713147452809,0,0.6309,0.0103,0.6296,858,-24.6582,-1.5869,78.9795,89,1.3607,1.1586,-17.0252,-84.629,32,0.03,7808,3.5508,-170.8014
lg,1624908713147470087,0,0.6243,0.0291,0.625,859,-6.5308,0.7324,71.2891,89,1.3597,1.1586,-15.7048,-83.2793,32,0.029,7872,3.5508,-171.0478
lg,1624908713147488494,0,0.6255,0.0339,0.6118,860,0.3052,3.6011,68.6646,89,1.3607,1.1586,-14.5179,-81.6872,32,0.028,7796,3.5508,-171.3045
lg,1624908713147505790,0,0.6616,0.0039,0.6335,861,11.5967,6.6528,61.4014,89,1.3617,1.1596,-13.5891,-79.6354,32,0.029,9457,3.5508,-171.6131
lg,1624908713147524883,0,0.7261,0.0315,0.6404,862,28.0151,16.9067,54.9927,89,1.3617,1.1596,-12.9067,-76.9169,31,0.029,7879,3.5508,-172.2497
lg,1624908713147545401,0,0.6975,0.0862,0.6296,863,35.5225,22.7661,51.6968,89,1.3617,1.1596,-12.4311,-73.5307,31,0.027,7944,3.5508,-173.2545
lg,1624908713147598382,0,0.696,0.093,0.6245,864,45.6543,30.8838,43.6401,89,1.3617,1.1596,-11.9841,-70.0055,31,0.027,7949,3.5508,-174.2947
lg,1624908713482997805,0,0.6848,0.0964,0.6719,865,67.4438,42.3584,28.3203,89,1.3617,1.1596,-11.7984,-65.4542,31,0.031,24956,3.5508,-175.8642
lg,1624908713483053138,0,0.6733,0.135,0.6902,866,73.5474,43.2739,21.3013,89,1.3627,1.1596,-11.7063,-60.6298,31,0.03,8161,3.5508,-177.4529
lg,1624908713483085619,0,0.6775,0.147,0.7307,867,77.5757,41.4429,13.7939,89,1.3627,1.1606,-11.7444,-55.6516,31,0.03,7375,3.5508,-178.9967
lg,1624908713483115748,0,0.6775,0.1475,0.7261,868,81.7871,38.9404,10.8032,89,1.3627,1.1596,-11.8217,-50.5876,31,0.029,7333,3.5508,-180.397
lg,1624908713483145100,0,0.7227,0.1943,0.7356,869,87.7686,40.8325,2.5635,89,1.3627,1.1606,-12.0322,-45.2957,31,0.029,8960,3.5508,-181.9545
lg,1624908713483174489,0,0.7424,0.2183,0.7268,870,89.9048,45.4712,-5.6763,89,1.3627,1.1606,-12.2323,-39.9243,31,0.028,7341,3.5508,-183.7658
lg,1624908713483202692,0,0.7544,0.2239,0.7209,871,89.8438,48.5229,-9.3384,82,1.3627,1.1616,-12.2514,-34.5678,31,0.027,7710,3.5508,-185.8913
lg,1624908713483230322,0,0.8015,0.21,0.7532,872,89.6606,56.3965,-18.8599,82,1.3637,1.1616,-12.1026,-29.3349,31,0.029,7581,3.5508,-188.1028
lg,1624908713483257840,0,0.8323,0.2571,0.77,873,88.3179,68.9697,-27.2217,82,1.3637,1.1616,-11.4897,-24.137,31,0.03,7384,3.5508,169.3147
lg,1624908713483284822,0,0.886,0.2566,0.8159,874,87.1582,75.5615,-29.9683,82,1.3637,1.1616,-10.4853,-19.1513,31,0.029,7404,3.5508,166.7659
