name,time,activity,ax,ay,az,batch_val,gx,gy,gz,ibat,index,middle,pitch,roll,temp,thumb,ts,vbat,yaw
rg,1624908721125569480,1,-0.418,-0.0962,0.9402,1,-19.8364,-4.8218,-34.2407,58,1.1586,0.5082,28.1789,-28.0795,31,0.6023,18698,3.7279,-129.6397
rg,1624908721125611424,1,-0.4636,-0.1196,0.9502,2,-18.6768,-7.8125,-35.1562,58,1.1586,0.5092,27.2045,-28.5645,31,0.6013,8088,3.7279,-130.4728
rg,1624908721125632054,1,-0.4644,-0.1272,0.9509,3,-18.3716,-10.7422,-35.7056,58,1.1596,0.5092,26.0675,-28.9924,31,0.5993,7514,3.7279,-131.2579
rg,1624908721125652091,1,-0.3884,-0.1206,0.9802,4,-18.1885,-13.9771,-34.8511,58,1.1596,0.5092,24.7844,-29.2834,31,0.5983,7523,3.7279,-131.9108
rg,1624908721125671295,1,-0.3457,-0.1394,0.9792,5,-18.4326,-13.4277,-34.79,58,1.1596,0.5102,23.5875,-29.7258,31,0.5973,7338,3.7279,-132.6924
rg,1624908721125689368,1,-0.3792,-0.1428,0.9873,6,-21.9727,-5.4932,-33.6304,58,1.1606,0.5112,22.8948,-30.2877,31,0.5953,10060,3.7279,-133.5982
rg,1624908721125707072,1,-0.4485,-0.1614,0.9697,7,-20.9961,0.1221,-31.311,58,1.1596,0.5123,22.3766,-30.7716,31,0.5933,7392,3.7279,-134.4535
rg,1624908721125724498,1,-0.5112,-0.1758,0.9539,8,-18.1274,-5.3101,-32.7759,58,1.1596,0.5123,21.7793,-31.1453,31,0.5903,7513,3.7279,-135.2556
rg,1624908721125742924,1,-0.5159,-0.1804,0.9675,9,-16.2964,-13.855,-31.8604,58,1.1606,0.5123,20.9232,-31.3415,31,0.5873,7535,3.7279,-135.8277
rg,1624908721125760942,1,-0.3696,-0.1821,0.9883,10,-13.1226,-25.4517,-28.5034,58,1.1596,0.5123,19.4824,-31.2105,31,0.5843,7615,3.7279,-136.005
rg,1624908721125778775,1,-0.3406,-0.2014,0.9924,11,-12.6953,-24.5361,-28.8696,58,1.1606,0.5133,18.052,-31.1042,31,0.5823,7437,3.7279,-136.2486
rg,1624908721125796275,1,-0.3611,-0.196,0.9836,12,-11.7798,-18.9819,-31.0059,58,1.1606,0.5112,16.8697,-31.0171,31,0.5793,7664,3.7279,-136.7089
rg,1624908721125813312,1,-0.3721,-0.2014,0.9741,13,-10.7422,-18.3716,-31.6162,58,1.1606,0.5123,15.7339,-30.8772,31,0.5773,7529,3.7279,-137.1895
rg,1624908721125830664,1,-0.3572,-0.1982,0.9668,14,-10.498,-20.2637,-32.0435,58,1.1606,0.5133,14.5784,-30.7431,31,0.5763,7822,3.7279,-137.6949
rg,1624908721125847719,1,-0.3462,-0.1904,0.9539,15,-9.7046,-20.874,-34.8511,58,1.1606,0.5123,13.3786,-30.5811,31,0.5753,7580,3.7279,-138.3002
rg,1624908721125864830,1,-0.355,-0.1758,0.936,16,-10.498,-23.5596,-34.668,58,1.1606,0.5133,12.1722,-30.4111,31,0.5743,7726,3.7279,-138.856
rg,1624908721125896090,1,-0.2566,-0.1499,0.9536,17,-21.2402,-27.5269,-26.3062,58,1.1596,0.5123,10.8312,-30.5032,31,0.5703,33003,3.7279,-139.0336
rg,1624908721125914571,1,-0.2183,-0.1865,0.9819,18,-30.8228,-18.3716,-25.1465,58,1.1596,0.5123,9.7701,-31.0525,31,0.5693,7897,3.7279,-139.3821
rg,1624908721125931645,1,-0.21,-0.2019,0.9849,19,-32.3486,-12.3901,-25.1465,58,1.1596,0.5123,8.9259,-31.6838,31,0.5683,7687,3.7279,-139.86
rg,1624908721125948552,1,-0.2168,-0.2866,1.0388,20,-32.8979,2.5635,-25.0244,58,1.1596,0.5133,8.5904,-32.4965,31,0.5663,7818,3.7279,-140.673
rg,1624908721125965608,1,-0.2556,-0.2727,1.012,21,-27.71,10.6201,-24.7192,58,1.1596,0.5123,8.6269,-33.0868,31,0.5653,7750,3.7279,-141.6449
rg,1624908721125983515,1,-0.269,-0.2817,1.0024,22,-24.4141,13.0005,-26.1841,58,1.1596,0.5123,8.7296,-33.5651,31,0.5643,7731,3.7279,-142.7177
rg,1624908721126073774,1,-0.3242,-0.2878,1.0068,23,-19.5923,13.7939,-29.9072,58,1.1596,0.5143,8.871,-33.8759,31,0.5643,7760,3.7279,-143.9316
rg,1624908721126094588,1,-0.3608,-0.2922,0.979,24,-17.0288,11.2915,-29.6631,58,1.1596,0.5133,8.9068,-33.9875,31,0.5633,7872,3.7279,-144.9522
rg,1624908721126113755,1,-0.7153,-0.1318,0.6812,25,66.2231,24.1699,-20.2637,82,1.0875,0.4232,10.6609,-30.9147,31,0.7364,14037,3.6674,-146.0336
rg,1624908721126131718,1,-0.479,-0.3135,0.8181,26,8.9722,-32.5928,-13.0005,82,1.0885,0.4242,9.9822,-30.1601,31,0.7394,8030,3.6674,-145.7405
rg,1624908721126151662,1,-0.2407,-0.4353,0.8938,27,-6.6528,-52.124,-9.1553,82,1.0895,0.4252,7.534,-30.2185,31,0.7444,8035,3.6674,-144.7384
rg,1624908721126170107,1,0.1841,-0.353,0.907,28,-21.2402,-48.4009,-3.6621,82,1.0905,0.4272,5.0907,-30.6149,31,0.7524,7828,3.6674,-143.8282
rg,1624908721126187310,1,0.2532,-0.4202,0.97,29,-39.6118,5.0049,-4.4556,82,1.0905,0.4292,4.4469,-31.9305,31,0.7604,8088,3.6674,-144.0528
rg,1624908721126221606,1,-0.082,-0.4885,0.9587,30,-68.0542,44.9829,-7.1411,82,1.0895,0.4322,5.7844,-34.5507,31,0.7704,9150,3.6674,-145.269
rg,1624908721126239088,1,-0.2161,-0.5718,0.9646,31,-78.7354,44.7388,-8.728,82,1.0865,0.4322,7.2189,-37.6827,31,0.7794,8176,3.6674,-146.6053
rg,1624908721126256217,1,-0.3708,-0.4973,0.8401,32,-100.769,20.813,-13.1226,82,1.0785,0.4302,8.0561,-41.5569,31,0.7854,7975,3.6674,-147.5318
rg,1624908721468908209,1,0.2893,-0.4641,0.9016,33,-24.353,-27.6489,9.6436,82,1.0635,0.4142,7.1318,-41.7153,31,0.7994,25438,3.6674,-147.1402
rg,1624908721468948820,1,-0.1309,-0.6592,0.9387,34,26.7944,16.2354,-31.311,82,1.0625,0.4132,7.3928,-40.3172,31,0.8004,8297,3.6674,-148.4499
rg,1624908721468969246,1,-0.3579,-0.489,0.7971,35,23.3154,9.4604,-30.3955,82,1.0625,0.4142,7.4375,-39.2035,31,0.8024,7359,3.6674,-149.5853
rg,1624908721468988690,1,-0.2754,-0.2898,0.7156,36,17.334,-7.9346,-31.4331,82,1.0625,0.4152,6.6943,-37.9431,31,0.8044,7473,3.6674,-150.0699
rg,1624908721469007912,1,-0.1934,-0.3142,0.7693,37,5.9204,-19.4702,-27.2217,82,1.0625,0.4172,5.6776,-37.1373,31,0.8054,7413,3.6674,-150.384
rg,1624908721469025764,1,0.0093,-0.416,0.8142,38,-12.0239,-17.334,-23.4375,82,1.0625,0.4202,4.3165,-37.2376,31,0.8054,8220,3.6674,-150.6703
rg,1624908721469043727,1,0.0527,-0.396,0.8035,39,-18.2495,-7.5073,-23.0103,82,1.0635,0.4232,3.7331,-37.9277,31,0.8054,7673,3.6674,-151.5852
rg,1624908721469060949,1,-0.1331,-0.5151,0.8689,40,-31.6772,22.3999,-24.4141,82,1.0645,0.4252,3.9739,-38.986,31,0.8064,7576,3.6674,-152.892
rg,1624908721469078393,1,-0.3779,-0.5679,0.8535,41,-35.5835,26.9165,-19.9585,82,1.0655,0.4292,4.9254,-40.2988,31,0.8064,7400,3.6674,-154.1895
rg,1624908721469095134,1,-0.3979,-0.6553,0.9077,42,-32.8369,16.3574,-15.5029,82,1.0675,0.4312,5.5845,-41.5148,31,0.8064,7538,3.6674,-155.0801
rg,1624908721469111708,1,-0.1943,-0.9868,1.0327,43,-7.1411,-2.0752,-7.6904,82,1.0695,0.4312,5.4028,-41.8925,31,0.8054,7449,3.6674,-155.2623
rg,1624908721469128745,1,0.0012,-1.041,1.0659,44,21.7896,-6.6528,-1.2207,168,1.0725,0.4322,4.9558,-41.097,31,0.8064,7546,3.6674,-155.1317
rg,1624908721469145763,1,0.4321,-0.8823,0.9316,45,88.8672,18.8599,0.6104,168,1.0765,0.4322,4.6443,-37.6725,31,0.8044,7497,3.6674,-155.6305
rg,1624908721469185096,1,0.4512,-0.78,0.8372,46,110.4126,51.3916,-7.6904,168,1.0805,0.4352,6.2819,-33.2184,31,0.7974,7584,3.6674,-158.2482
rg,1624908721469203374,1,-0.2832,-0.5706,0.7896,47,123.5962,114.8071,-37.3535,168,1.0825,0.4372,9.8133,-28.8986,31,0.7874,8256,3.6674,-161.9278
rg,1624908721469248837,1,-0.606,-0.4932,0.8018,48,111.9385,81.4209,-40.9546,168,1.0835,0.4362,12.8392,-25.1035,31,0.7734,9361,3.6674,-164.9075
rg,1624908721469268355,1,-0.5603,-0.4729,0.8088,49,103.8208,52.6123,-39.4897,168,1.0845,0.4372,14.8361,-21.6991,31,0.7614,7555,3.6674,-167.2784
rg,1624908721469285485,1,-0.4919,-0.1704,0.77,50,80.2612,17.334,-36.2549,168,1.0845,0.4362,15.6528,-18.606,31,0.7534,7825,3.6674,-168.833
rg,1624908721469302133,1,-0.5603,-0.0916,0.6819,51,52.4902,6.4697,-28.3203,168,1.0865,0.4362,16.0867,-16.8026,31,0.7534,7606,3.6674,-170.0171
rg,1624908721469319392,1,-0.3416,-0.3293,0.9297,52,0.7935,-40.0391,-17.7612,168,1.0895,0.4352,14.4697,-16.9301,31,0.7594,8644,3.6674,-170.2665
rg,1624908721469336021,1,-0.2151,-0.2185,0.8865,53,-30.3955,-52.7954,-8.9722,168,1.0905,0.4372,12.3048,-17.9459,31,0.7684,8359,3.6674,-169.9332
rg,1624908721469424613,1,-0.0312,-0.3518,0.9387,54,-73.7305,-53.2227,4.5776,168,1.0905,0.4412,9.9495,-20.8097,31,0.7804,7987,3.6674,-169.0467
rg,1624908721469449002,1,0.0005,-0.4229,0.8752,55,-97.1069,-47.6074,6.5918,168,1.0865,0.4412,7.9096,-24.7175,31,0.7904,8409,3.6674,-168.0737
rg,1624908721469468595,1,0.1072,-0.6189,0.9683,56,-133.3008,-45.166,7.1411,168,1.0785,0.4382,5.9276,-30.1992,31,0.7964,8433,3.6674,-166.9963
rg,1624908721469486539,1,0.252,-0.467,1.0698,57,-142.4561,-35.0342,-3.2349,168,1.0675,0.4292,3.9857,-35.554,31,0.8004,7881,3.6674,-166.2809
rg,1624908721469503446,1,0.2329,-0.3,1.3687,58,-103.9429,-8.8501,1.2817,168,1.0655,0.4242,3.2233,-38.791,31,0.8064,8134,3.6674,-165.9491
rg,1624908721469520854,1,0.7261,-0.5969,0.9565,59,-4.0283,41.687,12.8784,168,1.0635,0.4212,3.5062,-38.7547,31,0.8094,8164,3.6674,-166.5862
rg,1624908721469585335,1,-0.4526,-0.5857,0.9087,60,27.6489,133.667,-14.5874,168,1.0625,0.4192,8.0643,-37.8058,31,0.8114,8164,3.6674,-170.3577
rg,1624908721469605335,1,-0.8567,-0.5825,0.6946,61,30.5176,107.1167,-16.6016,168,1.0615,0.4192,12.2683,-37.0024,31,0.8134,8358,3.6674,-173.5094
rg,1624908721469643205,1,-0.5156,-0.4192,0.7729,62,35.2173,-3.6621,-15.8081,168,1.0625,0.4212,12.4838,-35.3826,31,0.8144,8213,3.6674,-173.8649
rg,1624908721469690260,1,0.135,-0.2053,0.7166,63,18.9209,-24.9634,-13.4888,168,1.0625,0.4252,10.5063,-33.8409,31,0.8154,8050,3.6674,-173.5838
rg,1624908721469708593,1,0.0286,-0.2522,0.7478,64,2.4414,0.1831,-18.4326,168,1.0635,0.4292,9.6235,-33.2421,31,0.8164,7862,3.6674,-174.1022
rg,1624908721821740921,1,-0.0488,-0.698,0.9502,65,-23.3765,-18.3105,-7.8125,168,1.0725,0.4332,8.9224,-34.0376,31,0.8164,25718,3.6674,-174.1316
rg,1624908721821802365,1,-0.1001,-0.9141,1.0078,66,17.395,24.9023,-3.3569,168,1.0765,0.4332,9.4853,-33.7692,31,0.8154,9991,3.6674,-174.8593
rg,1624908721821837550,1,-0.0657,-0.9194,1.0249,67,44.6167,29.541,-0.061,168,1.0805,0.4322,10.1147,-31.1933,31,0.8144,7354,3.6674,-175.5417
rg,1624908721821869272,1,0.2007,-0.8999,0.936,68,107.605,42.6025,-1.4038,168,1.0835,0.4342,10.8412,-27.564,31,0.8104,7577,3.6674,-176.5557
rg,1624908721821899494,1,0.0745,-0.6309,0.7905,69,139.5264,86.0596,-17.2729,168,1.0845,0.4372,13.0655,-22.8867,31,0.7994,8783,3.6674,-178.8038
rg,1624908721821929679,1,-0.1436,-0.573,0.7849,70,135.498,100.5249,-29.6021,168,1.0845,0.4392,16.2162,-18.6753,31,0.7854,7522,3.6751,-181.5499
rg,1624908721821958438,1,-0.5457,-0.4934,0.7913,71,117.4316,88.1348,-39.1846,168,1.0845,0.4402,19.6807,-15.2769,31,0.7724,8119,3.6751,-184.3218
rg,1624908721821987827,1,-0.7991,-0.0652,0.6624,72,106.0181,68.9697,-33.02,168,1.0855,0.4392,22.3723,-12.066,31,0.7644,7500,3.6751,-185.6182
rg,1624908721822016679,1,-0.8914,0.0432,0.6252,73,47.7905,14.2212,-15.625,168,1.0865,0.4402,24.0389,-10.0673,31,0.7674,7776,3.6751,-186.2289
rg,1624908721822047586,1,-0.7046,-0.5212,1.0308,74,-28.6865,-68.5425,-7.6904,168,1.0895,0.4432,21.6135,-11.7241,31,0.7774,7567,3.6751,-186.245
rg,1624908721822210900,1,-0.5073,-0.4258,0.9783,75,-33.1421,-97.229,0.7324,168,1.0915,0.4462,17.9979,-13.175,31,0.7894,7692,3.6751,-185.4868
rg,1624908721822249381,1,0.1084,-0.3809,0.8975,76,-65.0024,-121.8872,15.3198,168,1.0915,0.4462,12.5225,-15.6612,31,0.7994,8192,3.6751,-183.7143
rg,1624908721822282788,1,0.2866,-0.6511,0.9851,77,-102.1729,-76.2939,10.376,168,1.0845,0.4402,8.7776,-20.1554,31,0.8064,8233,3.6751,-182.4669
rg,1624908721822314788,1,0.2708,-0.6169,0.9529,78,-104.9194,-57.6172,4.8828,168,1.0705,0.4302,5.8804,-24.6823,31,0.8104,8006,3.6751,-181.4389
rg,1624908721822346362,1,0.103,-0.2073,1.1807,79,-98.5718,-25.6348,-11.1084,168,1.0635,0.4202,4.3527,-28.0235,31,0.8154,8269,3.6751,-181.3081
rg,1624908721822378529,1,0.7988,-0.2542,0.7478,80,16.0522,10.2539,1.2207,168,1.0635,0.4182,3.0083,-27.1319,31,0.8204,7712,3.6751,-181.4518
rg,1624908721822408065,1,0.3853,-0.3357,0.6404,81,-5.127,57.5562,-29.2969,168,1.0615,0.4182,3.3388,-27.4651,31,0.8214,8305,3.6751,-183.5535
rg,1624908721822486713,1,-0.7158,-0.6272,0.8792,82,-11.6577,109.9243,-20.6299,168,1.0605,0.4202,7.9563,-28.466,31,0.8234,7732,3.6751,-186.3842
rg,1624908721822519213,1,-0.2849,-0.4192,0.8501,83,-10.5591,63.6597,-12.7563,168,1.0615,0.4222,9.1883,-28.7352,31,0.8244,8019,3.6751,-187.0647
rg,1624908721822546879,1,-0.0298,-0.3591,0.8201,84,-9.6436,19.9585,-1.4648,168,1.0615,0.4262,9.5678,-28.9805,31,0.8254,8526,3.6751,-187.4742
rg,1624908721822574342,1,-0.0837,-0.3823,0.8108,85,-27.4048,46.0815,-8.728,168,1.0625,0.4272,10.8231,-30.1342,31,0.8254,8042,3.6751,171.3188
rg,1624908721822602231,1,-0.3958,-0.4072,0.7749,86,-43.2129,48.9502,-18.9209,168,1.0625,0.4292,12.6276,-32.1075,31,0.8244,8207,3.6751,169.6313
rg,1624908721822630638,1,-0.5171,-0.5476,0.8416,87,-53.1006,28.3203,-17.6392,168,1.0645,0.4302,13.7515,-34.5382,31,0.8244,9874,3.6751,168.3683
rg,1624908721822680638,1,-0.4937,-0.5857,0.8528,88,-54.1992,13.855,-12.6953,168,1.0665,0.4322,13.8331,-36.8227,31,0.8244,8496,3.6751,168.0895
rg,1624908721822712879,1,-0.2952,-0.8352,0.9834,89,-44.1895,-9.2773,-4.6997,168,1.0695,0.4322,13.3859,-38.6963,31,0.8244,8531,3.6751,168.1405
rg,1624908721822742712,1,-0.0686,-0.8794,0.9937,90,-5.6152,-11.2305,-3.8452,168,1.0725,0.4322,12.5286,-38.9872,31,0.8244,8675,3.6751,168.2836
rg,1624908721822771860,1,0.1675,-1.0076,1.0588,91,48.9502,7.8125,-1.709,168,1.0775,0.4322,11.9894,-37.2661,31,0.8244,8225,3.6751,167.9793
rg,1624908721822799285,1,0.2288,-0.9727,1.0007,92,81.665,27.0996,-5.7983,168,1.0805,0.4332,11.735,-34.4168,31,0.8204,8422,3.6751,167.0618
rg,1624908721822956488,1,0.1626,-0.7725,0.8416,93,124.4507,77.2705,-19.7144,168,1.0825,0.4362,13.1455,-30.2909,31,0.8114,7862,3.6751,164.5889
rg,1624908721822992044,1,-0.2388,-0.6079,0.7942,94,132.9956,98.2666,-38.4521,168,1.0825,0.4372,15.8787,-26.0972,31,0.7954,8263,3.6751,161.2073
rg,1624908721823023006,1,-0.377,-0.5188,0.7815,95,129.2114,92.041,-41.1987,168,1.0825,0.4382,18.7879,-22.1645,31,0.7774,8089,3.6751,157.9864
rg,1624908721823055840,1,-0.7322,-0.1851,0.7141,96,98.4497,70.1904,-42.2974,168,1.0825,0.4362,21.8009,-18.9478,31,0.7664,7942,3.6751,155.3524
rg,1624908722155677763,1,-0.2905,-0.5188,0.9753,97,-33.6914,-110.5957,-11.5967,168,1.0895,0.4412,16.2122,-20.1427,31,0.7954,25245,3.6751,156.9755
rg,1624908722155727707,1,0.2893,-0.4414,0.957,98,-60.2417,-138.0005,0.1831,168,1.0885,0.4412,9.9072,-22.2507,31,0.8054,10266,3.6751,159.0062
rg,1624908722155748781,1,0.4873,-0.6584,0.9272,99,-90.5151,-84.1675,-5.6152,168,1.0815,0.4392,5.5293,-26.1652,31,0.8114,7328,3.6751,160.1546
rg,1624908722155768485,1,0.4045,-0.6682,0.937,100,-100.647,-58.5327,-16.4795,168,1.0685,0.4272,2.2145,-30.4799,31,0.8144,7299,3.6751,160.6912
rg,1624908722155787392,1,0.2188,-0.115,1.1414,101,-56.0913,-5.5542,-18.9819,168,1.0635,0.4222,1.1302,-31.793,31,0.8204,7494,3.6751,160.1986
rg,1624908722155806318,1,0.5171,-0.5005,0.5996,102,14.4653,11.5967,-0.4272,168,1.0615,0.4182,0.2247,-31.4779,31,0.8234,7524,3.6751,159.929
rg,1624908722155825392,1,-0.0325,-0.3289,0.7183,103,9.2163,78.186,-42.1753,168,1.0595,0.4182,2.0992,-30.8931,31,0.8264,8053,3.6751,156.8654
rg,1624908722155844484,1,-0.7375,-0.5615,0.873,104,-1.8921,71.4111,-21.9727,168,1.0585,0.4182,5.3259,-31.1665,31,0.8274,7931,3.6751,154.63
rg,1624908722155863762,1,0.0271,-0.3257,0.8162,105,-0.7935,23.7427,-7.3242,168,1.0605,0.4192,4.899,-30.801,31,0.8294,9724,3.6751,154.554
rg,1624908722155914206,1,0.2014,-0.2607,0.7861,106,-7.9346,13.5498,-3.9062,168,1.0605,0.4212,4.5644,-30.6675,31,0.8304,7433,3.6751,154.1803
rg,1624908722155936835,1,-0.1287,-0.3347,0.7791,107,-30.0293,56.2134,-9.9487,168,1.0615,0.4252,6.4344,-31.7115,31,0.8304,7547,3.6751,152.6885
rg,1624908722155958613,1,-0.2839,-0.3372,0.7705,108,-37.9028,55.9692,-13.2446,168,1.0625,0.4272,8.513,-33.1275,31,0.8304,7628,3.6751,151.0545
rg,1624908722155977372,1,-0.345,-0.5273,0.8501,109,-50.5981,38.5132,-10.9253,168,1.0635,0.4312,9.9473,-35.288,31,0.8314,7534,3.6751,149.8107
rg,1624908722155995909,1,-0.3413,-0.5908,0.8726,110,-50.293,30.9448,-8.8501,168,1.0665,0.4312,10.8961,-37.5503,31,0.8314,7737,3.6751,148.7574
rg,1624908722156013983,1,-0.2192,-0.7664,0.9438,111,-40.5273,17.4561,-2.5635,168,1.0685,0.4322,11.3471,-39.319,31,0.8314,7589,3.6751,148.2228
rg,1624908722156033057,1,-0.043,-0.8933,0.9814,112,-14.8315,21.9116,-2.3193,168,1.0715,0.4332,11.5821,-40.1493,31,0.8314,7777,3.6751,147.5569
rg,1624908722156051502,1,-0.0266,-0.9329,0.9985,113,6.2256,30.8838,-1.9531,168,1.0755,0.4342,12.0564,-40.1878,31,0.8314,7673,3.6751,146.6572
rg,1624908722156071001,1,0,-0.8899,0.9417,114,58.6548,49.9878,-3.8452,168,1.0785,0.4342,13.0245,-38.2774,31,0.8294,7811,3.6751,145.2021
rg,1624908722156089316,1,0.0496,-0.8865,0.927,115,83.0078,58.8379,-4.6997,168,1.0805,0.4352,14.0059,-35.4941,31,0.8244,7729,3.6751,143.5368
rg,1624908722156107927,1,0.0613,-0.6902,0.7883,116,113.2202,90.0879,-15.8691,168,1.0805,0.4372,15.9605,-31.8871,31,0.8164,7855,3.6751,140.8393
rg,1624908722157704844,1,-0.2751,-0.5657,0.7854,117,113.7695,107.0557,-31.0669,168,1.0815,0.4392,19.0111,-28.5154,31,0.7974,7709,3.6751,137.4118
rg,1624908722157742640,1,-0.603,-0.4514,0.7634,118,101.3794,88.3179,-34.9121,168,1.0815,0.4392,22.0959,-25.6033,31,0.7824,12161,3.6751,134.3606
rg,1624908722158187527,1,-0.7861,-0.1245,0.6621,119,69.7632,43.5181,-25.1465,168,1.0815,0.4372,24.3097,-23.0927,31,0.7754,7815,3.6751,132.7671
rg,1624908722158270656,1,-0.9675,0.0447,0.6428,120,35.1562,14.6484,-18.1885,168,1.0835,0.4362,25.8239,-21.4648,31,0.7784,7968,3.6751,132.0638
rg,1624908722158295174,1,-0.8538,-0.4819,1.0042,121,-42.7856,-71.4111,-2.8687,168,1.0855,0.4372,23.6005,-22.8638,31,0.7894,7986,3.6751,133.0711
rg,1624908722158355711,1,-0.1709,-0.4341,0.8884,122,-50.1709,-112.1826,7.1411,168,1.0875,0.4402,18.203,-24.2778,31,0.8014,8074,3.6751,135.8095
rg,1624908722158383377,1,0.1589,-0.4634,0.9639,123,-72.998,-136.9629,11.9019,168,1.0865,0.4422,12.4632,-26.4718,31,0.8104,8796,3.6751,138.696
rg,1624908722158405155,1,0.4905,-0.645,0.9451,124,-104.6753,-86.5479,11.7798,168,1.0815,0.4422,8.3427,-30.5388,31,0.8174,8067,3.6751,140.7828
rg,1624908722158427284,1,0.4209,-0.5903,1.0291,125,-116.8823,-26.3062,-10.7422,168,1.0715,0.4342,6.1715,-35.1329,31,0.8214,8350,3.6751,141.0421
rg,1624908722158448266,1,0.5493,-0.8167,0.6064,126,-5.3101,34.668,8.4229,168,1.0705,0.4322,6.2125,-36.0246,31,0.8264,10276,3.6751,140.4435
rg,1624908722158467543,1,0.5315,-0.3513,0.863,127,15.8081,51.8188,-0.4272,168,1.0675,0.4292,6.5543,-35.0484,31,0.8284,8076,3.6751,139.2527
rg,1624908722158699820,1,-0.6787,-0.4851,0.8667,128,28.9917,126.6479,-29.1138,168,1.0655,0.4282,11.0928,-34.2872,31,0.8304,8156,3.6751,135.397
rg,1624908722495943593,1,0.0972,-0.3284,0.79,129,6.4087,5.7373,-12.8784,168,1.0665,0.4332,10.3162,-33.6633,31,0.8334,25411,3.6751,134.9189
rg,1624908722495993056,1,-0.2954,-0.3184,0.7563,130,-15.8081,36.7432,-21.1792,168,1.0665,0.4362,11.4361,-34.1697,31,0.8344,8284,3.6751,133.4409
rg,1624908722496014741,1,-0.4067,-0.4365,0.8105,131,-31.0059,15.4419,-25.5737,168,1.0685,0.4382,11.8441,-35.4282,31,0.8344,7437,3.6751,132.2638
rg,1624908722496035185,1,-0.3379,-0.5046,0.8508,132,-36.6821,4.5166,-23.5596,168,1.0705,0.4402,11.71,-36.8821,31,0.8344,7367,3.6751,131.4149
rg,1624908722496055370,1,-0.282,-0.6853,0.9148,133,-37.7808,3.9673,-18.3716,168,1.0735,0.4402,11.4681,-38.5174,31,0.8354,7438,3.6751,130.7242
rg,1624908722496074166,1,-0.2273,-0.8198,0.9539,134,-21.6675,1.0986,-12.5122,168,1.0765,0.4402,11.1361,-39.5411,31,0.8354,7421,3.6751,130.2852
rg,1624908722496092592,1,-0.1499,-0.8635,0.9958,135,-7.9956,0.4883,-10.1929,168,1.0795,0.4382,10.5859,-39.2322,30,0.8364,7777,3.6751,129.9301
rg,1624908722496110851,1,0.0674,-0.8638,0.998,136,34.6069,11.6577,-11.7188,168,1.0825,0.4382,10.1241,-38.0293,30,0.8354,7447,3.6751,129.2444
rg,1624908722496130703,1,0.2603,-0.835,0.8611,137,87.1582,48.7061,-15.686,168,1.0845,0.4392,10.4461,-35.0897,30,0.8314,7768,3.6751,127.4858
rg,1624908722496148629,1,0.219,-0.7673,0.8623,138,104.6753,78.4912,-19.8364,168,1.0845,0.4412,11.8011,-31.6428,30,0.8234,7500,3.6751,124.9752
rg,1624908722496167407,1,-0.3037,-0.5955,0.7751,139,114.1968,109.1919,-36.2549,168,1.0845,0.4412,15.0615,-28.1292,30,0.8114,7629,3.6751,121.4057
rg,1624908722496186647,1,-0.6152,-0.4956,0.7539,140,110.4736,104.0649,-40.7104,168,1.0835,0.4422,18.1409,-24.9538,30,0.7914,7583,3.6751,118.3817
rg,1624908722496204369,1,-0.8416,-0.0962,0.6565,141,72.1436,34.729,-29.1748,168,1.0845,0.4392,20.2078,-22.2018,30,0.7834,7626,3.6751,116.8297
rg,1624908722496221832,1,-0.9556,-0.1077,0.6111,142,29.9683,0.9155,-23.0713,168,1.0875,0.4382,21.2645,-21.0476,30,0.7874,7602,3.6751,116.0136
rg,1624908722496239684,1,-0.646,-0.5286,0.9939,143,-21.1792,-84.4727,-8.3008,168,1.0895,0.4402,18.3495,-21.8066,31,0.8004,7774,3.6751,116.9091
rg,1624908722496295184,1,-0.2375,-0.3364,0.8403,144,-45.9595,-122.4365,3.6011,168,1.0915,0.4432,13.7506,-23.0567,31,0.8114,9261,3.6751,119.0002
rg,1624908722496320165,1,-0.0061,-0.48,0.8801,145,-68.2983,-128.2349,4.8828,168,1.0885,0.4442,8.6532,-25.541,31,0.8214,7748,3.6751,121.2959
rg,1624908722496340183,1,0.3091,-0.6597,1.0156,146,-99.7314,-110.3516,0.4272,168,1.0795,0.4392,3.8859,-29.5675,31,0.8264,7807,3.6751,123.3556
rg,1624908722496358813,1,0.4751,-0.2371,1.2566,147,-67.5049,-63.3545,4.3335,168,1.0745,0.4322,0.8779,-31.504,31,0.8314,7837,3.6751,124.8583
rg,1624908722496393461,1,1.0212,-0.7983,0.7427,148,-6.8359,-25.9399,15.1978,168,1.0735,0.4272,-1.2528,-32.2187,31,0.8344,7702,3.6751,125.9234
rg,1624908722496412609,1,0.3228,-0.3735,0.7197,149,26.062,93.811,-29.48,168,1.0695,0.4252,0.519,-30.9765,31,0.8374,7759,3.6751,122.9353
rg,1624908722496435424,1,-0.4998,-0.3298,0.7681,150,35.8276,140.686,-33.4473,168,1.0675,0.4242,6.3044,-29.7053,31,0.8374,7892,3.6751,118.9526
rg,1624908722496455961,1,-0.8093,-0.5393,0.8894,151,14.2822,59.7534,-15.0757,168,1.0675,0.4242,9.2619,-29.4092,31,0.8394,7767,3.6751,117.2312
rg,1624908722496475053,1,0.0361,-0.3218,0.8372,152,17.7612,-8.1787,-6.6528,168,1.0685,0.4262,8.3945,-28.3711,31,0.8404,7952,3.6751,117.2067
rg,1624908722496493960,1,0.1387,-0.2454,0.7832,153,10.3149,9.4604,-8.5449,168,1.0695,0.4302,7.8709,-27.5921,31,0.8404,7818,3.6751,116.7807
rg,1624908722496512349,1,-0.1914,-0.2583,0.762,154,-13.7939,42.1143,-19.043,168,1.0715,0.4332,9.219,-28.0109,31,0.8414,8004,3.6751,115.351
rg,1624908722496530571,1,-0.3677,-0.3679,0.8003,155,-36.0718,29.48,-25.5737,168,1.0735,0.4372,10.2808,-29.5721,31,0.8414,7853,3.6751,113.8789
rg,1624908722496550090,1,-0.3562,-0.5061,0.8699,156,-44.9829,21.7896,-23.4375,168,1.0755,0.4392,10.9113,-31.6171,31,0.8424,8074,3.6751,112.5973
rg,1624908722496567867,1,-0.2173,-0.6057,0.8845,157,-44.2505,14.6484,-13.855,168,1.0785,0.4412,11.1228,-33.6363,31,0.8424,7893,3.6751,111.7798
rg,1624908722496585238,1,-0.2122,-0.7732,0.9612,158,-41.9312,18.4937,-8.606,168,1.0805,0.4412,11.8036,-35.3954,31,0.8434,8081,3.6751,110.9491
rg,1624908722496602275,1,-0.1995,-0.8606,0.979,159,-22.0947,27.9541,-1.5869,168,1.0825,0.4402,12.5423,-36.657,31,0.8434,7960,3.6751,110.1761
rg,1624908722496619811,1,-0.0615,-0.8879,1.0107,160,21.9116,30.3955,4.2114,168,1.0845,0.4392,13.224,-36.0964,31,0.8424,8140,3.6751,109.5312
rg,1624908722830600140,1,0.0952,-0.6941,0.8184,161,104.3091,93.2617,-10.0708,168,1.0875,0.4422,15.3445,-32.7268,31,0.8134,24923,3.6751,106.9482
rg,1624908722830637677,1,-0.5449,-0.5078,0.7595,162,98.5718,103.2104,-31.6162,168,1.0875,0.4422,18.7988,-29.8112,31,0.7994,11307,3.6751,103.583
rg,1624908722830657602,1,-0.9929,-0.1506,0.6714,163,69.7021,57.4341,-21.4844,168,1.0885,0.4402,21.7542,-27.2936,31,0.7944,7442,3.6751,101.7737
rg,1624908722830676769,1,-0.9998,-0.3633,0.8257,164,-10.1929,-38.5132,-8.4839,168,1.0905,0.4412,21.233,-27.4325,31,0.8004,7580,3.6751,102.2541
rg,1624908722830695324,1,-0.7524,-0.6123,1.0676,165,-33.3252,-84.5947,-4.9438,85,1.0915,0.4442,18.5612,-28.3315,31,0.8114,7409,3.6751,103.7251
rg,1624908722830713695,1,-0.2605,-0.4519,0.9099,166,-40.2832,-133.7891,8.4839,85,1.0925,0.4472,13.8836,-29.0188,31,0.8214,7518,3.6751,106.7429
rg,1624908722830754046,1,-0.0249,-0.4863,0.9258,167,-57.312,-137.6953,9.6436,85,1.0895,0.4452,8.8277,-30.625,31,0.8284,7357,3.6751,109.903
rg,1624908722830773713,1,0.3005,-0.6809,0.968,168,-85.2051,-110.0464,8.3618,85,1.0805,0.4402,4.415,-33.8798,31,0.8314,7580,3.6751,112.5538
rg,1624908722830792176,1,0.2061,-0.3206,1.1506,169,-84.5337,-68.2373,-12.4512,85,1.0705,0.4312,1.3624,-36.481,31,0.8344,8755,3.6751,113.7917
rg,1624908722830809361,1,0.4304,-0.5242,0.9897,170,-30.5176,-36.3159,-2.6855,85,1.0695,0.4272,-0.7206,-37.3698,31,0.8384,7645,3.6751,114.5936
rg,1624908722830826657,1,0.5886,-0.2231,0.6104,171,16.2964,20.9351,-26.7334,85,1.0685,0.4242,-2.1952,-36.1778,31,0.8414,7451,3.6751,113.2102
rg,1624908722830845268,1,-0.2844,-0.3738,0.8813,172,14.6484,91.0645,-42.1143,85,1.0675,0.4242,0.4979,-35.0372,31,0.8434,7646,3.6751,109.707
rg,1624908722830863490,1,-0.6846,-0.4756,0.8811,173,6.3477,42.1753,-19.6533,85,1.0685,0.4252,2.6907,-34.6035,31,0.8444,7638,3.6751,108.1055
rg,1624908722830881509,1,-0.1902,-0.4282,0.9231,174,3.9673,3.3569,-7.3853,85,1.0695,0.4282,1.8908,-34.1543,31,0.8454,7520,3.6751,107.9877
rg,1624908722830903638,1,0.1755,-0.2593,0.7876,175,-3.54,24.1089,-8.728,85,1.0715,0.4332,1.9523,-33.7057,31,0.8454,7727,3.6751,107.1756
rg,1624908722830935323,1,-0.3555,-0.2759,0.7563,176,-31.5552,59.8755,-20.752,85,1.0725,0.4362,4.3062,-34.5767,31,0.8464,7621,3.6751,105.1514
rg,1624908722830953897,1,-0.4885,-0.4788,0.8655,177,-41.3208,46.814,-23.8037,85,1.0745,0.4392,6.1238,-36.1873,31,0.8454,7803,3.6751,103.2871
rg,1624908722830971823,1,-0.429,-0.7363,0.9751,178,-37.5366,11.4136,-18.7988,85,1.0765,0.4412,6.5513,-37.8065,31,0.8454,7625,3.6751,102.3977
rg,1624908722830988767,1,-0.3289,-0.835,1.0276,179,-24.6582,-0.6104,-14.2212,85,1.0795,0.4392,6.0957,-38.1631,31,0.8464,7885,3.6751,102.326
rg,1624908722831005526,1,-0.0593,-0.8838,1.0181,180,15.8691,-12.0239,-7.4463,85,1.0815,0.4382,5.3927,-37.6257,31,0.8464,7692,3.6751,102.376
rg,1624908722831022823,1,0.1289,-0.802,1.0134,181,65.7959,5.0049,-10.498,85,1.0855,0.4372,4.8675,-35.063,31,0.8454,7913,3.6751,101.9049
rg,1624908722831039952,1,0.3145,-0.7756,0.9023,182,94.0552,19.4092,-10.5591,85,1.0875,0.4382,4.5191,-31.5856,31,0.8404,7780,3.6751,101.0799
rg,1624908722831057434,1,0.343,-0.6985,0.864,183,121.8262,77.0264,-24.9023,85,1.0875,0.4432,5.8657,-27.2202,31,0.8284,10511,3.6751,98.6331
rg,1624908722831075193,1,-0.3359,-0.4041,0.7195,184,112.1826,119.6899,-46.4478,85,1.0875,0.4452,10.014,-23.3363,31,0.8154,7963,3.6751,94.8893
rg,1624908722831092748,1,-1.0728,-0.0806,0.6306,185,63.9038,90.8203,-34.9731,85,1.0885,0.4472,14.5555,-21.0307,31,0.8074,7879,3.6751,92.255
rg,1624908722831109563,1,-1.1191,-0.1528,0.6777,186,19.165,39.3677,-22.3389,85,1.0895,0.4492,17.2679,-20.4779,31,0.8114,8051,3.6751,90.8609
rg,1624908722831126118,1,-0.6633,-0.5967,1.0317,187,-36.0718,-60.6079,-10.9863,85,1.0925,0.4502,15.3263,-22.1177,31,0.8204,7946,3.6751,91.2473
rg,1624908722831143322,1,-0.157,-0.3665,0.8352,188,-47.6074,-93.9941,6.7139,85,1.0935,0.4512,11.7592,-23.6602,31,0.8304,8140,3.6751,92.9973
rg,1624908722831159766,1,0.0754,-0.3894,0.8674,189,-64.5142,-92.041,10.8032,85,1.0915,0.4492,7.9749,-25.9079,31,0.8384,8022,3.6751,94.9741
rg,1624908722831177525,1,0.3074,-0.6653,0.978,190,-92.8345,-55.7251,8.8501,85,1.0845,0.4432,5.311,-29.7606,31,0.8434,8073,3.6751,96.3232
rg,1624908722831196044,1,0.1609,-0.3894,1.0874,191,-90.6372,-33.5693,1.4038,85,1.0755,0.4372,4.3158,-32.493,31,0.8464,7927,3.6751,96.55
rg,1624908722831214303,1,0.4143,-0.3904,0.9629,192,-41.1377,9.2163,4.0283,85,1.0735,0.4332,3.7164,-33.7479,31,0.8504,8122,3.6751,96.5214
rg,1624908723176464129,1,-0.7686,-0.5984,0.9246,193,-6.7749,70.3735,-24.0479,85,1.0715,0.4332,6.3179,-34.0739,31,0.8554,24825,3.7037,94.1502
rg,1624908723176517851,1,-0.155,-0.4075,0.8499,194,-1.5259,6.897,-15.0757,85,1.0735,0.4362,6.3296,-33.8675,31,0.8554,8149,3.7037,93.5303
rg,1624908723176539406,1,-0.1482,-0.2466,0.7244,195,-13.7939,25.2686,-22.644,85,1.0755,0.4392,6.8493,-33.9788,31,0.8564,7414,3.7037,92.2712
rg,1624908723176558813,1,-0.3215,-0.2771,0.7483,196,-27.4048,28.9917,-31.0059,85,1.0775,0.4432,7.7915,-35.0066,31,0.8564,7363,3.7037,90.607
rg,1624908723176578184,1,-0.3962,-0.5479,0.8677,197,-43.0908,6.2256,-37.7808,85,1.0795,0.4452,7.6284,-36.8012,31,0.8574,7495,3.7037,89.2337
rg,1624908723176596702,1,-0.3489,-0.6606,0.9341,198,-39.978,-2.5024,-35.7666,85,1.0825,0.4472,6.9287,-38.3151,31,0.8584,7375,3.7037,88.3368
rg,1624908723176614906,1,-0.2468,-0.8401,0.9861,199,-21.0571,-8.9722,-26.6113,85,1.0845,0.4462,6.1349,-39.2977,31,0.8584,9167,3.7037,87.7204
rg,1624908723176632924,1,-0.0779,-0.8071,0.9683,200,16.9678,-10.0098,-18.9209,85,1.0865,0.4462,5.2453,-38.6651,31,0.8574,7456,3.7037,87.3821
rg,1624908723176650331,1,0.1487,-0.752,0.8833,201,58.3496,11.3525,-14.9536,85,1.0885,0.4442,4.7453,-36.4635,31,0.8534,8527,3.7037,86.6123
rg,1624908723176669091,1,0.1724,-0.7051,0.854,202,75.1343,30.5786,-19.7144,85,1.0895,0.4452,5.4411,-33.0888,31,0.8464,9517,3.7037,84.8625
rg,1624908723176692572,1,0.0405,-0.634,0.7917,203,98.0835,70.5566,-26.123,85,1.0895,0.4472,6.9909,-29.6504,31,0.8364,7586,3.7037,82.4553
rg,1624908723176712868,1,-0.2517,-0.511,0.7627,204,96.2524,83.4351,-35.9497,85,1.0895,0.4482,9.576,-26.378,31,0.8234,7527,3.7037,79.5785
rg,1624908723176730961,1,-0.5454,-0.3521,0.698,205,88.1958,80.5664,-40.2832,85,1.0905,0.4492,12.7737,-23.4204,31,0.8114,7659,3.7037,76.731
rg,1624908723176749312,1,-0.9824,0.0176,0.5898,206,35.4004,28.2593,-17.2119,85,1.0915,0.4512,15.2066,-21.7544,31,0.8114,7549,3.7037,75.7697
rg,1624908723176768331,1,-0.8809,-0.2053,0.7407,207,-13.1836,-23.0103,-9.5825,85,1.0935,0.4532,14.8606,-22.6419,31,0.8204,7692,3.7037,75.6643
rg,1624908723176818571,1,-0.4963,-0.7517,1.0518,208,-57.6172,-96.1304,0.8545,85,1.0945,0.4552,11.6237,-25.0468,31,0.8324,7940,3.7037,77.168
rg,1624908723176840960,1,-0.217,-0.4932,0.8428,209,-57.0068,-127.5635,14.2212,85,1.0905,0.4512,7.3457,-27.0599,31,0.8394,8444,3.7037,79.9208
rg,1624908723176861534,1,0.0505,-0.583,0.8323,210,-69.7632,-136.7798,20.813,85,1.0815,0.4432,2.5562,-29.8585,31,0.8444,7569,3.7037,83.2442
rg,1624908723176882200,1,0.3379,-0.4905,0.9753,211,-74.8291,-123.23,3.418,85,1.0735,0.4352,-2.3289,-32.7102,31,0.8484,8140,3.7037,85.9478
rg,1624908723176900163,1,0.9688,-0.4087,0.6294,212,41.5039,-68.9697,6.897,85,1.0705,0.4302,-6.416,-30.6212,31,0.8534,12846,3.7037,87.5769
rg,1624908723176918848,1,0.291,-0.1064,0.6714,213,44.9219,41.8701,-41.3818,85,1.0675,0.4312,-6.4345,-27.7934,31,0.8554,8064,3.7037,85.1945
rg,1624908723176937330,1,-0.5598,-0.4602,0.9441,214,19.6533,60.9741,-21.6675,85,1.0665,0.4322,-3.3888,-26.779,31,0.8564,7719,3.7037,83.3029
rg,1624908723176956181,1,-0.3875,-0.2268,0.7371,215,26.9165,22.0337,-2.9907,85,1.0665,0.4352,-1.5181,-25.3383,31,0.8574,7912,3.7037,82.8022
rg,1624908723176975904,1,0.3657,-0.2786,0.8127,216,8.9722,-8.5449,14.4653,85,1.0675,0.4362,-2.4146,-24.7636,31,0.8574,7813,3.7037,83.4597
rg,1624908723176993644,1,0.2378,-0.2305,0.7666,217,1.5259,42.6636,5.6152,85,1.0675,0.4372,-1.329,-24.3762,30,0.8574,8052,3.7037,82.936
rg,1624908723177013163,1,0.0088,-0.2346,0.7371,218,-7.3853,58.4106,2.8076,85,1.0685,0.4402,0.8634,-24.3958,30,0.8584,7941,3.7037,82.0644
rg,1624908723177032440,1,-0.2288,-0.3076,0.7576,219,-21.4844,54.9927,1.1597,85,1.0695,0.4422,3.4487,-25.1921,30,0.8584,8008,3.7037,81.179
rg,1624908723177051181,1,-0.188,-0.4136,0.7971,220,-25.1465,38.7573,5.7373,85,1.0705,0.4442,5.2684,-26.3109,30,0.8584,7919,3.7037,80.7011
rg,1624908723177069107,1,-0.1614,-0.4226,0.8047,221,-23.0713,32.8369,7.3242,85,1.0725,0.4452,6.7118,-27.3621,31,0.8574,8107,3.7037,80.3557
rg,1624908723177087922,1,-0.1853,-0.4448,0.7966,222,-17.334,28.3203,4.9438,85,1.0755,0.4462,7.919,-28.0006,31,0.8574,10385,3.7037,80.0048
rg,1624908723177129940,1,-0.259,-0.5491,0.8301,223,-3.2959,16.3574,3.479,85,1.0775,0.4442,8.8216,-28.3645,31,0.8584,8082,3.7037,79.7865
rg,1624908723177155254,1,-0.1846,-0.563,0.8413,224,24.1089,1.0376,4.2725,85,1.0795,0.4442,8.9976,-27.5886,31,0.8584,8055,3.7037,79.8879
rg,1624908723515861751,1,0.2585,-0.4465,0.7112,225,83.5571,28.5034,6.6528,85,1.0865,0.4492,10.122,-24.2644,31,0.8474,25255,3.7037,78.9024
rg,1624908723515908418,1,-0.1633,-0.3347,0.6355,226,94.9707,63.8428,-9.8267,85,1.0865,0.4492,12.4233,-20.8775,31,0.8364,8320,3.7037,77.5107
rg,1624908723515929603,1,-0.1633,-0.2883,0.6189,227,95.3979,59.3872,-9.3384,85,1.0865,0.4502,14.4213,-17.5949,31,0.8234,7330,3.7037,76.4246
rg,1624908723515950380,1,-0.2085,-0.2773,0.6216,228,86.1206,53.0396,-9.8267,85,1.0855,0.4512,16.4454,-14.6768,31,0.8094,7439,3.7037,75.3601
rg,1624908723515969047,1,-0.3811,-0.2605,0.6355,229,75.5005,43.1519,-6.4697,85,1.0855,0.4522,18.5524,-12.141,31,0.7984,7347,3.7037,74.6095
rg,1624908723515987769,1,-0.3718,-0.2168,0.6235,230,72.998,26.3062,-3.1128,85,1.0865,0.4512,19.876,-9.5289,31,0.7874,9138,3.7037,74.2173
rg,1624908723516005547,1,-0.2456,-0.1785,0.6252,231,65.1245,-4.5776,2.3804,85,1.0875,0.4512,19.7425,-7.1386,31,0.7814,7641,3.7037,74.2611
rg,1624908723516024158,1,-0.103,-0.1992,0.6648,232,59.5703,-16.1743,4.3335,85,1.0875,0.4512,18.6836,-5.0752,31,0.7774,7515,3.7037,74.3745
rg,1624908723516041954,1,-0.0618,-0.2427,0.6892,233,59.082,-17.7612,5.3711,85,1.0885,0.4512,17.4715,-3.2231,31,0.7754,7472,3.7037,74.4553
rg,1624908723516059306,1,0.0093,-0.2922,0.7285,234,64.8804,-14.7095,5.4932,85,1.0895,0.4522,16.2244,-1.3225,31,0.7754,7577,3.7037,74.4682
rg,1624908723516081213,1,0.0789,-0.3,0.7197,235,77.5757,-6.1646,5.249,85,1.0905,0.4532,15.1753,0.9735,31,0.7764,11094,3.7037,74.4301
rg,1624908723516099639,1,0.0474,-0.2378,0.6926,236,91.1255,8.9722,3.6621,85,1.0905,0.4542,14.8303,3.8453,31,0.7784,7574,3.7037,74.368
rg,1624908723516117435,1,0.0002,-0.2136,0.7043,237,97.168,15.3198,2.0142,85,1.0915,0.4552,14.8895,6.9196,31,0.7804,7527,3.7037,74.2808
rg,1624908723516159657,1,-0.0806,-0.1418,0.6577,238,113.7085,18.6768,3.8452,85,1.0925,0.4562,15.318,10.7559,31,0.7824,7646,3.7037,74.3493
rg,1624908723516180046,1,-0.1431,-0.082,0.6418,239,121.2769,18.1885,6.2866,85,1.0925,0.4572,15.8872,14.987,31,0.7834,7561,3.7037,74.5787
rg,1624908723516198842,1,-0.239,-0.0249,0.6223,240,128.7231,8.4839,9.7656,85,1.0935,0.4572,16.3243,19.5974,31,0.7854,8934,3.7037,74.8995
rg,1624908723516217064,1,-0.209,-0.0603,0.6877,241,135.498,-11.0474,19.2261,85,1.0945,0.4602,15.7123,24.2099,31,0.7864,7780,3.7037,75.204
rg,1624908723516235212,1,-0.1572,-0.0544,0.7043,242,140.4419,-16.7847,23.6816,85,1.0945,0.4602,14.5603,28.8171,31,0.7864,7780,3.7037,75.4534
rg,1624908723516254397,1,-0.1218,-0.0723,0.7312,243,151.1841,-20.2026,32.5928,85,1.0945,0.4602,13.1046,33.7032,31,0.7864,7702,3.7037,75.8297
rg,1624908723516273323,1,-0.092,-0.1165,0.7817,244,165.9546,-22.7661,43.1519,85,1.0955,0.4602,11.2463,38.9483,31,0.7864,7812,3.7037,76.3356
rg,1624908723516290286,1,-0.073,-0.1421,0.7981,245,175.9644,-22.0947,48.3398,85,1.0955,0.4602,9.2337,44.3788,31,0.7874,7768,3.7037,76.8552
rg,1624908723516308915,1,-0.0281,-0.1184,0.7937,246,199.8901,-19.8364,56.2134,85,1.0955,0.4602,6.923,50.6488,31,0.7884,7839,3.7037,77.4879
rg,1624908723516326545,1,-0.0156,-0.082,0.7827,247,212.8906,-18.2495,60.0586,85,1.0955,0.4622,4.3593,57.8807,31,0.7884,7805,3.7037,78.0861
rg,1624908723516345637,1,0.0017,0.0295,0.7424,248,235.6567,-18.9209,56.3965,85,1.0965,0.4622,1.9338,65.4177,31,0.7904,7945,3.7037,78.3339
rg,1624908723516363656,1,-0.0317,0.1641,0.679,249,252.9907,-27.6489,44.6777,85,1.0955,0.4622,-0.0534,73.7092,31,0.7914,7879,3.7037,77.8594
rg,1624908723516382693,1,-0.0242,0.2378,0.6558,250,259.0332,-35.1562,38.8184,85,1.0965,0.4642,-1.7715,82.2188,31,0.7924,7883,3.7037,76.8124
rg,1624908723516401193,1,0.0593,0.3782,0.6528,251,264.0381,-49.3774,28.8086,85,1.0965,0.4642,-3.1626,91.0398,31,0.7934,8079,3.7037,74.9542
rg,1624908723516419267,1,0.1208,0.4634,0.686,252,263.2446,-44.6777,19.5923,85,1.0975,0.4652,-4.0317,99.7682,31,0.7944,8022,3.7037,73.1868
rg,1624908723516461285,1,0.1133,0.4822,0.708,253,262.8784,-36.499,16.9067,85,1.0975,0.4662,-4.5684,108.322,31,0.7944,7922,3.7037,71.734
rg,1624908723516483933,1,0.0725,0.5601,0.7563,254,258.4229,-20.4468,16.1133,85,1.0985,0.4662,-4.9772,116.5618,31,0.7934,8050,3.7037,70.8949
rg,1624908723516502525,1,0.0786,0.6431,0.7947,255,252.8687,-9.9487,24.292,85,1.0985,0.4672,-5.7507,124.5176,31,0.7944,8010,3.7037,70.2398
rg,1624908723516522951,1,0.0879,0.6562,0.8325,256,250.9766,-3.7842,27.0996,85,1.0995,0.4672,-6.6872,132.3586,31,0.7934,8100,3.7037,69.6598
rg,1624908723857293177,1,-0.062,0.835,0.8691,257,233.3984,16.6626,42.1143,85,1.0995,0.4692,-8.2214,139.4962,31,0.7934,25146,3.7037,69.1791
rg,1624908723857344825,1,-0.1094,0.8792,0.9119,258,214.2334,9.2163,46.3257,85,1.1005,0.4702,-9.383,145.66,31,0.7944,10216,3.7037,68.0445
rg,1624908723857365992,1,-0.0959,0.9509,0.979,259,189.0869,-4.9438,49.9268,85,1.1005,0.4712,-10.1863,151.2793,31,0.7954,7520,3.7037,66.5857
rg,1624908723857385825,1,-0.0869,1.0042,0.999,260,178.2227,-7.5073,48.4619,85,1.1005,0.4712,-10.7566,156.5374,31,0.7944,7476,3.7037,65.0769
rg,1624908723857405140,1,-0.0105,1.0486,1.0344,261,155.7007,-9.2773,44.8608,85,1.1005,0.4722,-11.211,160.958,31,0.7954,7494,3.7037,63.6367
rg,1624908723857424454,1,0.0137,1.0586,1.0664,262,142.9443,-4.6997,40.7104,85,1.1005,0.4732,-11.736,164.9235,31,0.7954,7542,3.7037,62.3917
rg,1624908723857443417,1,-0.0161,1.0356,1.1387,263,120.3613,11.2915,32.7148,85,1.1015,0.4732,-12.7148,168.0334,31,0.7954,7567,3.7037,61.5918
rg,1624908723857462843,1,-0.1194,1.0115,1.2083,264,103.2104,24.9634,24.7192,85,1.1015,0.4732,-14.0244,170.5149,31,0.7954,9291,3.7037,61.1861
rg,1624908723857481158,1,-0.1509,1.0093,1.2214,265,97.1069,28.1372,22.3389,85,1.1015,0.4732,-15.4216,172.8209,31,0.7964,7576,3.7037,60.8674
rg,1624908723857499380,1,-0.2192,0.969,1.2314,266,86.6699,30.9448,15.625,85,1.1025,0.4752,-16.8392,174.759,31,0.7964,7604,3.7037,60.8034
rg,1624908723857518713,1,-0.2622,0.9492,1.2305,267,83.252,30.3345,13.0005,85,1.1025,0.4742,-18.1439,176.6112,31,0.7964,7580,3.7037,60.8233
rg,1624908723857536824,1,-0.3245,0.9404,1.2175,268,78.4302,23.6206,9.0942,85,1.1025,0.4752,-19.1836,178.3118,31,0.7964,7546,3.7037,60.9657
rg,1624908723857555676,1,-0.4404,0.9287,1.2542,269,76.4771,19.4702,6.8359,85,1.1025,0.4752,-19.798,179.9657,31,0.7964,7583,3.7037,61.1942
rg,1624908723857573824,1,-0.4961,0.9043,1.3267,270,74.1577,14.2822,7.4463,85,1.1025,0.4752,-20.3452,-178.2621,30,0.7964,7616,3.7037,61.313
rg,1624908723857593787,1,-0.3904,0.8171,1.7246,271,80.4443,6.0425,13.3057,85,1.1025,0.4752,-20.8479,-175.7881,30,0.7964,7608,3.7037,61.0587
rg,1624908723857613194,1,-0.1101,0.7793,2.0627,272,91.2476,-4.5166,17.0288,85,1.1025,0.4752,-21.2779,-172.5623,30,0.7964,7617,3.7037,60.5797
rg,1624908723857630657,1,0.5576,0.845,2.5684,273,132.5073,-4.0894,9.8267,85,1.1035,0.4752,-22.2801,-167.5347,30,0.7974,7718,3.7037,60.2991
rg,1624908723857647953,1,0.9238,1.0754,2.5139,274,152.3438,26.6113,11.9019,85,1.1035,0.4772,-27.9111,-161.273,31,0.7994,7656,3.7037,58.7138
rg,1624908723857665768,1,0.0415,1.2883,1.9902,275,132.5073,208.9233,1.4038,85,1.1035,0.4772,-36.6678,-154.5562,31,0.8014,7941,3.7037,55.1957
rg,1624908723857683194,1,-1.6504,1.1299,1.6409,276,91.3696,237.6099,-1.2207,85,1.1025,0.4782,-44.8277,-147.2934,31,0.8034,7987,3.7037,49.4187
rg,1624908723857701323,1,-2.0747,1.1746,1.417,277,77.5757,158.6304,12.085,85,1.1025,0.4762,-49.3685,-140.1219,31,0.8054,7822,3.7037,43.6705
rg,1624908723857718786,1,-1.5984,1.0718,1.2625,278,26.4282,-46.0205,41.0767,85,1.1025,0.4732,-47.1386,-139.0282,31,0.8084,7856,3.7037,43.5953
rg,1624908723857735990,1,-0.6367,0.9805,0.9963,279,-2.8076,-142.8833,62.0728,85,1.1035,0.4722,-42.0717,-141.1114,31,0.8094,8369,3.7037,46.2194
rg,1624908723857754082,1,-0.3225,0.8872,0.8201,280,-31.3721,-129.3335,65.6128,85,1.1045,0.4732,-37.4208,-143.7239,31,0.8104,7866,3.7037,47.9178
rg,1624908723857771934,1,-0.3489,0.7944,0.8042,281,-44.2505,-121.46,66.9556,85,1.1055,0.4752,-32.7017,-146.198,31,0.8104,8067,3.7037,48.8108
rg,1624908723857789434,1,-0.2581,0.6462,0.7507,282,-57.9834,-131.897,68.7256,85,1.1065,0.4772,-27.5,-149.1453,31,0.8104,7879,3.7037,49.5642
rg,1624908723857807471,1,0.0239,0.5984,0.6685,283,-58.4717,-145.1416,65.5518,85,1.1065,0.4792,-22.2658,-152.2538,31,0.8094,8278,3.7037,50.4188
rg,1624908723857825341,1,0.1694,0.6033,0.646,284,-59.5703,-139.4653,62.0117,85,1.1065,0.4792,-17.4025,-155.3802,31,0.8104,7917,3.7037,50.9336
rg,1624908723857842452,1,0.2908,0.6096,0.5872,285,-61.7676,-106.6284,49.9268,85,1.1075,0.4802,-14.0168,-158.6504,31,0.8094,8049,3.7037,51.0318
rg,1624908723857859896,1,0.2683,0.5537,0.5679,286,-64.0869,-68.9697,33.9966,85,1.1075,0.4802,-12.1574,-162.0212,31,0.8094,7932,3.7037,50.9121
rg,1624908723857878248,1,0.2415,0.5283,0.5457,287,-60.6079,-55.8472,27.8931,85,1.1085,0.4802,-10.7893,-165.354,31,0.8094,8136,3.7037,50.6953
rg,1624908723857896063,1,0.2485,0.5181,0.5237,288,-49.6216,-34.9731,12.5122,85,1.1085,0.4812,-10.3788,-168.4292,31,0.8084,7981,3.7037,50.7564
rg,1624908724206754527,1,0.2332,0.5205,0.479,289,-28.6255,6.4697,-15.686,88,1.1085,0.4822,-12.1378,-170.8492,31,0.8084,24716,3.7037,51.7485
rg,1624908724206802397,1,0.1821,0.4932,0.4937,290,-12.8784,31.3721,-31.5552,88,1.1085,0.4812,-14.4864,-172.9649,31,0.8084,14546,3.7037,53.1495
rg,1624908724206825360,1,0.1057,0.5049,0.499,291,-0.5493,43.335,-40.5884,88,1.1095,0.4822,-17.1366,-174.8643,31,0.8084,7333,3.7037,55.0151
rg,1624908724206845804,1,0.0703,0.4993,0.5112,292,5.4932,45.7764,-44.5557,88,1.1095,0.4822,-19.8102,-176.7258,31,0.8084,7407,3.7037,57.2081
rg,1624908724206866063,1,0.0139,0.5061,0.5525,293,21.9116,44.0063,-50.7202,88,1.1095,0.4822,-22.2837,-178.1615,31,0.8084,7318,3.7037,59.8304
rg,1624908724206886026,1,0.0032,0.4907,0.595,294,30.7617,40.5273,-53.2227,88,1.1095,0.4822,-24.4045,-179.0285,31,0.8084,7525,3.7037,62.7878
rg,1624908724206905730,1,0.0542,0.5164,0.6487,295,50.0488,28.1982,-56.6406,88,1.1105,0.4832,-26.4306,-179.6473,31,0.8084,7913,3.7037,65.9248
rg,1624908724206926878,1,0.1484,0.5681,0.7668,296,68.9697,20.0806,-60.791,88,1.1105,0.4822,-28.3669,-179.6556,31,0.8084,8082,3.7037,69.3289
rg,1624908724206947711,1,0.2173,0.5952,0.821,297,79.5288,17.0898,-62.5,88,1.1105,0.4842,-30.4786,-179.4026,31,0.8084,7408,3.7037,72.9118
rg,1624908724206965933,1,0.4089,0.7188,0.8643,298,98.7549,15.5029,-65.4297,88,1.1115,0.4832,-32.6643,-178.7301,31,0.8084,9725,3.7037,76.813
rg,1624908724206984266,1,0.4912,0.8745,0.866,299,107.7881,29.1748,-65.4297,88,1.1125,0.4842,-35.4357,-177.9458,31,0.8084,7706,3.7037,80.882
rg,1624908724207002303,1,0.5183,1.0303,0.8035,300,101.1963,49.3774,-60.6689,88,1.1125,0.4822,-38.9631,-177.7386,31,0.8084,7675,3.7037,85.0217
rg,1624908724207020655,1,0.5005,1.082,0.7781,301,92.041,59.6924,-57.0068,88,1.1125,0.4832,-42.8559,-178.2171,31,0.8084,7795,3.7037,89.3477
rg,1624908724207037544,1,0.3591,1.1272,0.7234,302,70.6787,75.7446,-47.6685,88,1.1115,0.4832,-47.1545,-179.8696,31,0.8094,7751,3.7037,93.7644
rg,1624908724207054451,1,0.2415,1.1301,0.6924,303,59.9976,80.3833,-41.8701,88,1.1115,0.4822,-51.3193,177.2492,31,0.8104,7635,3.7037,98.3181
rg,1624908724207072136,1,0.0203,1.104,0.6418,304,36.377,79.834,-27.3438,88,1.1125,0.4832,-55.1701,173.412,31,0.8104,7853,3.7037,103.2938
rg,1624908724207112210,1,-0.1094,1.043,0.6194,305,14.3433,63.8428,-11.7798,88,1.1125,0.4832,-58.168,168.7866,31,0.8114,7896,3.7037,108.0435
rg,1624908724207131932,1,-0.1428,1.001,0.6169,306,4.7607,54.5654,-4.4556,88,1.1125,0.4842,-60.662,163.4925,31,0.8114,7869,3.7037,113.0511
rg,1624908724207149525,1,-0.1804,0.8928,0.6074,307,-17.1509,29.9683,6.7749,88,1.1135,0.4862,-62.1901,157.9313,31,0.8124,12109,3.7037,117.3459
rg,1624908724207168136,1,-0.2612,0.8091,0.6216,308,-26.6724,17.334,12.2681,88,1.1135,0.4862,-63.1842,152.4008,31,0.8124,9437,3.7037,121.1955
rg,1624908724207185599,1,-0.2488,0.7854,0.6501,309,-28.4424,5.5542,13.5498,88,1.1135,0.4862,-63.726,147.0163,31,0.8124,7764,3.7037,124.8005
rg,1624908724207202876,1,-0.155,0.7305,0.6765,310,-24.8413,-15.1978,15.0757,88,1.1135,0.4872,-63.6974,142.6323,31,0.8124,7979,3.7037,127.4558
rg,1624908724207223024,1,-0.0842,0.7056,0.6968,311,-21.0571,-19.7754,13.0005,88,1.1145,0.4882,-63.4756,138.6844,31,0.8124,7805,3.7037,130.0803
rg,1624908724207241302,1,-0.0603,0.7056,0.7078,312,-8.4839,-21.4233,10.0708,88,1.1145,0.4872,-63.1455,134.9725,31,0.8124,8697,3.7037,132.7016
rg,1624908724207258617,1,0.0039,0.7075,0.7173,313,3.0518,-22.7051,5.5542,88,1.1155,0.4882,-62.6563,131.6152,31,0.8124,8365,3.7037,135.4392
rg,1624908724207276005,1,0.0154,0.7195,0.7073,314,15.564,-15.564,-0.4272,88,1.1155,0.4882,-62.0792,128.1612,31,0.8124,8043,3.7037,138.8463
rg,1624908724207293320,1,0.0381,0.7463,0.6982,315,21.6064,-14.0991,-2.5024,88,1.1155,0.4882,-61.3222,124.9864,31,0.8124,7905,3.7037,142.2325
rg,1624908724207310005,1,0.0693,0.7668,0.6667,316,28.5034,-5.9814,-11.3525,88,1.1155,0.4892,-60.3654,121.4556,31,0.8124,7962,3.7026,146.3546
rg,1624908724207327487,1,0.0789,0.814,0.6387,317,31.25,1.2207,-17.0898,88,1.1155,0.4892,-59.157,117.7779,31,0.8134,9086,3.7026,150.8248
rg,1624908724207344727,1,0.0913,0.8481,0.6382,318,28.8696,6.5918,-23.1934,88,1.1165,0.4892,-57.6728,113.9307,31,0.8134,9762,3.7026,155.4466
rg,1624908724207361283,1,0.0813,0.8887,0.6284,319,26.4282,9.7046,-24.292,88,1.1165,0.4902,-56.0319,110.0446,31,0.8134,8138,3.7026,159.9331
rg,1624908724207445727,1,0.0825,0.8933,0.6409,320,17.8223,12.0239,-24.7192,88,1.1165,0.4912,-54.251,106.3591,31,0.8134,8051,3.7026,164.004
rg,1624908724544166837,1,0.0415,0.8596,0.6753,321,-0.4272,6.958,-18.3105,88,1.1165,0.4902,-52.5608,102.6201,31,0.8134,25001,3.7026,167.2809
rg,1624908724544222207,1,0.0754,0.8523,0.6702,322,-3.479,2.0752,-12.207,88,1.1165,0.4912,-51.0289,99.4095,31,0.8144,16209,3.7026,169.8182
rg,1624908724544243540,1,0.0759,0.8289,0.6707,323,-2.6245,1.77,-10.1929,88,1.1165,0.4912,-49.5484,96.4914,31,0.8144,7396,3.7026,-187.9227
rg,1624908724544263873,1,0.0698,0.8145,0.6589,324,-4.2114,1.8311,-9.5215,88,1.1165,0.4922,-48.0428,93.7412,31,0.8144,7554,3.7026,-185.8972
rg,1624908724544284225,1,0.0483,0.7937,0.6472,325,-4.0283,2.1362,-9.8267,88,1.1165,0.4922,-46.4724,91.1874,31,0.8144,8984,3.7026,-184.0584
rg,1624908724544304595,1,0.0439,0.7761,0.6394,326,-2.6855,1.3428,-10.2539,88,1.1165,0.4922,-44.8684,88.9374,31,0.8144,7582,3.7026,-182.4755
rg,1624908724544323206,1,0.0557,0.7822,0.6226,327,-0.9155,1.0986,-11.2305,88,1.1175,0.4922,-43.2267,86.9491,31,0.8144,8014,3.7026,-181.0859
rg,1624908724544343336,1,0.0632,0.7759,0.6121,328,0.3052,3.3569,-12.9395,88,1.1175,0.4922,-41.53,85.0949,31,0.8144,8185,3.7026,-179.7427
rg,1624908724544361113,1,0.0642,0.7805,0.6177,329,1.4648,4.5166,-14.0991,88,1.1175,0.4922,-39.7874,83.4323,31,0.8144,7546,3.7026,-178.5151
rg,1624908724544379946,1,0.0566,0.7756,0.6284,330,4.4556,7.9956,-15.3198,88,1.1175,0.4932,-38.0078,81.8448,30,0.8144,7504,3.7026,-177.2073
rg,1624908724544398817,1,0.0735,0.7856,0.6174,331,7.6904,9.5825,-17.5781,88,1.1175,0.4932,-36.1747,80.5149,30,0.8144,7729,3.7026,-175.9891
rg,1624908724544415909,1,0.084,0.7852,0.6277,332,8.606,9.0942,-18.0664,88,1.1175,0.4922,-34.3829,79.3306,30,0.8144,7541,3.7026,-174.9026
rg,1624908724544432094,1,0.0969,0.8142,0.6304,333,11.1084,13.7329,-20.2026,88,1.1175,0.4932,-32.5206,78.2727,30,0.8144,7728,3.7026,-173.7408
rg,1624908724544455372,1,0.0969,0.823,0.6243,334,12.3291,15.0146,-18.9819,88,1.1175,0.4932,-30.7319,77.3448,31,0.8144,7639,3.7026,-172.6184
rg,1624908724544476742,1,0.0947,0.8289,0.6321,335,13.3667,17.4561,-20.4468,88,1.1175,0.4932,-28.9034,76.4901,31,0.8144,8824,3.7026,-171.4837
rg,1624908724544583575,1,0.085,0.8406,0.6379,336,13.855,18.0054,-20.5078,88,1.1175,0.4932,-27.0919,75.7296,31,0.8144,9291,3.7026,-170.4091
rg,1624908724544608186,1,0.0779,0.8535,0.6431,337,13.3057,19.165,-19.9585,88,1.1175,0.4932,-25.3216,75.003,31,0.8154,7799,3.7026,-169.3556
rg,1624908724544628038,1,0.0757,0.8604,0.6362,338,12.8784,19.104,-18.7988,88,1.1175,0.4932,-23.6382,74.3437,31,0.8144,7716,3.7026,-168.3672
rg,1624908724544648112,1,0.0532,0.8755,0.6252,339,11.5967,19.7144,-17.6392,88,1.1175,0.4932,-21.9911,73.7163,31,0.8144,7821,3.7026,-167.4137
rg,1624908724544666574,1,0.0557,0.8762,0.6394,340,10.1318,19.2871,-16.4795,88,1.1175,0.4932,-20.4433,73.0601,31,0.8154,7709,3.7026,-166.5063
rg,1624908724544684371,1,0.0403,0.8689,0.6296,341,6.4087,18.7988,-15.9912,88,1.1175,0.4932,-18.9396,72.3267,31,0.8144,7904,3.7026,-165.6677
rg,1624908724544701704,1,0.0215,0.8618,0.6399,342,3.2959,16.2354,-12.5732,88,1.1175,0.4942,-17.6054,71.5149,31,0.8154,7737,3.7026,-164.9276
rg,1624908724544719926,1,0.0195,0.8538,0.645,343,1.77,15.0146,-11.9629,88,1.1175,0.4932,-16.3462,70.687,31,0.8154,7924,3.7026,-164.2645
rg,1624908724544737944,1,0.0229,0.8523,0.6355,344,-0.6714,12.3901,-11.8408,88,1.1185,0.4932,-15.1696,69.8527,31,0.8154,7827,3.7026,-163.7453
rg,1624908724544755222,1,0.0308,0.8428,0.6426,345,-1.4038,11.3525,-11.2305,88,1.1175,0.4942,-14.0719,69.0186,31,0.8154,7952,3.7026,-163.3149
rg,1624908724544772333,1,0.0144,0.8259,0.6477,346,-0.8545,9.4604,-11.2915,88,1.1175,0.4942,-13.0153,68.2363,31,0.8154,7816,3.7026,-162.9528
rg,1624908724544789889,1,0.0303,0.8311,0.6365,347,-2.3193,8.1787,-12.2681,88,1.1175,0.4942,-12.0086,67.4736,31,0.8154,8001,3.7026,-162.6882
rg,1624908724544807129,1,0.032,0.8157,0.6462,348,-1.6479,7.6294,-12.207,88,1.1185,0.4932,-11.0218,66.7879,31,0.8154,7906,3.7026,-162.468
rg,1624908724544824370,1,0.0281,0.8035,0.6458,349,-1.9531,6.897,-12.5122,88,1.1175,0.4932,-10.0951,66.065,31,0.8154,8101,3.7026,-162.2937
rg,1624908724544841166,1,0.0537,0.8047,0.6377,350,-0.6714,5.7373,-12.8174,88,1.1185,0.4932,-9.2651,65.449,31,0.8154,7941,3.7026,-162.1915
rg,1624908724544874147,1,0.0388,0.8005,0.6404,351,-0.1221,6.1035,-13.3667,88,1.1175,0.4942,-8.4162,64.8888,31,0.8154,8075,3.7026,-162.1047
rg,1624908724544894481,1,0.0513,0.8054,0.6362,352,1.4648,5.9814,-13.2446,88,1.1185,0.4942,-7.6241,64.4112,31,0.8154,7966,3.7026,-162.036
rg,1624908724880145858,1,0.0627,0.8115,0.6326,353,2.4414,6.5918,-14.5264,88,1.1185,0.4942,-6.8588,64.0189,31,0.8154,24547,3.7026,-161.9584
rg,1624908724880197283,1,0.064,0.8198,0.6377,354,2.5635,7.9346,-13.2446,88,1.1185,0.4942,-6.0834,63.6616,31,0.8154,15254,3.7026,-161.8207
rg,1624908724880217432,1,0.0698,0.8208,0.6333,355,2.5024,9.0332,-13.1226,88,1.1185,0.4942,-5.3699,63.2912,31,0.8154,7274,3.7026,-161.6807
rg,1624908724880243598,1,0.0564,0.8203,0.6272,356,3.0518,9.5215,-14.1602,88,1.1185,0.4932,-4.6088,62.9689,31,0.8154,7473,3.7026,-161.554
rg,1624908724880263116,1,0.0549,0.8213,0.6335,357,3.1738,9.2163,-12.7563,88,1.1185,0.4942,-3.9286,62.6552,30,0.8154,7322,3.7026,-161.4223
rg,1624908724880283042,1,0.0457,0.8252,0.6243,358,2.6245,10.1318,-14.1602,88,1.1185,0.4942,-3.1877,62.3541,30,0.8154,7478,3.7026,-161.2948
rg,1624908724880301394,1,0.0491,0.8281,0.6252,359,2.1973,10.5591,-14.5874,88,1.1185,0.4942,-2.5155,62.0834,30,0.8164,9002,3.7026,-161.1611
rg,1624908724880319024,1,0.0557,0.8289,0.6262,360,3.7231,10.0708,-12.6953,88,1.1185,0.4952,-1.9031,61.8522,30,0.8164,7561,3.7026,-161.0255
rg,1624908724880336672,1,0.0508,0.8174,0.635,361,3.3569,10.6812,-13.855,88,1.1185,0.4942,-1.2519,61.5868,31,0.8164,7393,3.7026,-160.8963
rg,1624908724880353097,1,0.0435,0.8237,0.6375,362,3.2959,10.7422,-13.3057,88,1.1185,0.4952,-0.6272,61.3346,31,0.8164,7618,3.7026,-160.7624
rg,1624908724880384468,1,0.0554,0.8274,0.6323,363,3.9062,10.6201,-13.5498,88,1.1185,0.4942,-0.0464,61.1319,31,0.8164,7457,3.7026,-160.6445
rg,1624908724880403430,1,0.0596,0.8267,0.6309,364,3.54,11.4746,-14.2212,88,1.1185,0.4942,0.5427,60.9254,31,0.8164,7633,3.7026,-160.5154
rg,1624908724880449986,1,0.0544,0.8308,0.627,365,3.8452,11.2305,-13.7329,88,1.1185,0.4942,1.0985,60.7525,31,0.8164,7499,3.7026,-160.3912
rg,1624908724880470412,1,0.0444,0.8228,0.6301,366,3.7842,10.7422,-13.2446,88,1.1185,0.4942,1.6037,60.5774,31,0.8164,7495,3.7026,-160.2798
rg,1624908724880488634,1,0.053,0.8232,0.6191,367,3.418,11.4746,-12.6343,88,1.1185,0.4942,2.087,60.4079,31,0.8154,7700,3.7026,-160.1352
rg,1624908724880505541,1,0.0466,0.8289,0.6294,368,3.1128,10.3149,-12.207,88,1.1185,0.4942,2.5291,60.222,31,0.8164,7574,3.7026,-160.0273
rg,1624908724880522856,1,0.0464,0.8328,0.6348,369,3.479,10.8643,-12.3291,88,1.1195,0.4952,2.9704,60.0554,31,0.8164,7769,3.7026,-159.9069
rg,1624908724880540504,1,0.0522,0.8257,0.6262,370,1.8921,10.6812,-12.3291,88,1.1185,0.4952,3.3773,59.838,31,0.8164,7598,3.7026,-159.7965
rg,1624908724880558800,1,0.054,0.8352,0.6206,371,1.8311,10.1929,-12.4512,88,1.1195,0.4952,3.7649,59.6309,31,0.8164,7795,3.7026,-159.7092
rg,1624908724880575559,1,0.0483,0.8262,0.6318,372,2.3804,10.5591,-12.2681,88,1.1185,0.4942,4.1457,59.4416,31,0.8164,7625,3.7026,-159.6099
rg,1624908724880593503,1,0.0471,0.8403,0.6311,373,2.3193,9.5215,-12.4512,88,1.1185,0.4952,4.5006,59.2746,31,0.8164,7884,3.7026,-159.5522
rg,1624908724880612170,1,0.0491,0.8232,0.6348,374,2.1973,10.1318,-12.5732,88,1.1195,0.4942,4.8533,59.0823,31,0.8164,7679,3.7026,-159.4811
rg,1624908724880631188,1,0.053,0.8252,0.6252,375,1.5869,9.7046,-11.8408,88,1.1195,0.4942,5.1495,58.8928,31,0.8164,8396,3.7026,-159.4111
rg,1624908724880650744,1,0.0444,0.8279,0.6343,376,1.6479,9.8267,-12.146,88,1.1185,0.4942,5.4666,58.7009,31,0.8164,7785,3.7026,-159.347
rg,1624908724880669670,1,0.0571,0.8262,0.6338,377,1.9531,9.9487,-12.8784,88,1.1195,0.4952,5.7685,58.5449,31,0.8164,7947,3.7026,-159.2949
rg,1624908724880687244,1,0.0544,0.8274,0.6245,378,2.1362,10.1318,-12.9395,88,1.1185,0.4942,6.0727,58.4025,31,0.8164,7771,3.7026,-159.2402
rg,1624908724880705151,1,0.052,0.8259,0.6257,379,1.9531,9.3384,-11.4746,88,1.1185,0.4952,6.3039,58.2548,31,0.8164,7977,3.7026,-159.1846
rg,1624908724880740262,1,0.0544,0.823,0.6296,380,1.2817,10.376,-12.3901,88,1.1185,0.4952,6.574,58.0774,31,0.8164,7815,3.7026,-159.1157
rg,1624908724880760243,1,0.0454,0.825,0.6208,381,1.8311,10.0708,-12.5732,88,1.1185,0.4952,6.8523,57.9454,31,0.8164,8033,3.7026,-159.0613
rg,1624908724880777817,1,0.0476,0.8184,0.6252,382,1.6479,9.3994,-12.2681,88,1.1185,0.4952,7.0906,57.7929,31,0.8164,7827,3.7026,-159.0273
rg,1624908724880795891,1,0.0449,0.8164,0.6274,383,0.6104,9.8877,-13.5498,88,1.1185,0.4952,7.3792,57.597,31,0.8164,8043,3.7026,-159.0067
rg,1624908724880813224,1,0.0469,0.822,0.6357,384,0.9155,9.4604,-13.3057,88,1.1195,0.4952,7.636,57.4128,31,0.8164,8750,3.7026,-158.9986
rg,1624908725225802628,1,0.0593,0.8269,0.6272,385,1.5259,8.8501,-12.5122,88,1.1195,0.4952,7.8701,57.2638,31,0.8164,24417,3.7026,-158.9798
rg,1624908725225883405,1,0.0608,0.8264,0.6335,386,1.4038,10.0098,-13.855,88,1.1195,0.4952,8.1083,57.1227,31,0.8164,8294,3.7026,-158.9673
rg,1624908725225903405,1,0.0518,0.825,0.6294,387,1.77,9.3994,-12.9395,88,1.1195,0.4952,8.3122,57.0069,31,0.8164,7399,3.7026,-158.9565
rg,1624908725225923331,1,0.053,0.8196,0.634,388,1.77,9.8267,-13.6719,88,1.1195,0.4952,8.5394,56.88,31,0.8164,7449,3.7026,-158.9507
rg,1624908725225942330,1,0.064,0.823,0.6301,389,1.77,9.9487,-13.3667,88,1.1195,0.4952,8.7266,56.7712,31,0.8164,7344,3.7026,-158.9338
rg,1624908725225960701,1,0.0623,0.8247,0.6321,390,1.709,9.7656,-13.3057,88,1.1195,0.4952,8.9045,56.6623,31,0.8164,7437,3.7026,-158.9231
rg,1624908725225977960,1,0.0557,0.8254,0.6238,391,2.4414,10.376,-13.0615,88,1.1195,0.4952,9.0941,56.6064,31,0.8164,8775,3.7026,-158.885
rg,1624908725225995626,1,0.0618,0.8308,0.6252,392,2.5635,10.376,-12.0239,88,1.1195,0.4952,9.2293,56.566,31,0.8164,7515,3.7026,-158.8238
rg,1624908725226013163,1,0.0581,0.8301,0.6362,393,1.1597,10.0708,-12.4512,88,1.1195,0.4952,9.3755,56.4478,31,0.8164,8390,3.7026,-158.7863
rg,1624908725226030052,1,0.0535,0.8323,0.6204,394,1.5869,9.8877,-13.0005,88,1.1195,0.4952,9.5391,56.379,31,0.8164,9480,3.7026,-158.7633
rg,1624908725226073330,1,0.0576,0.8203,0.6221,395,1.8921,9.7656,-12.0239,88,1.1195,0.4952,9.6516,56.3091,31,0.8164,7511,3.7026,-158.7263
rg,1624908725226092533,1,0.0527,0.8215,0.6311,396,1.8921,9.5215,-12.7563,88,1.1205,0.4952,9.79,56.2233,31,0.8164,7599,3.7026,-158.7171
rg,1624908725226110367,1,0.0515,0.8271,0.6272,397,2.0142,9.1553,-12.3901,88,1.1195,0.4952,9.9007,56.1655,31,0.8164,7629,3.7026,-158.704
rg,1624908725226128181,1,0.0537,0.8379,0.6309,398,2.0142,9.2773,-12.9395,88,1.1195,0.4962,10.0292,56.1103,31,0.8164,7590,3.7026,-158.7046
rg,1624908725226145292,1,0.0515,0.822,0.6213,399,1.2207,9.0942,-12.6343,88,1.1195,0.4962,10.1413,56.0214,31,0.8164,8302,3.7026,-158.7058
rg,1624908725226163292,1,0.0515,0.8357,0.6331,400,1.2207,8.9111,-12.2681,88,1.1195,0.4962,10.2233,55.9482,31,0.8164,7652,3.7026,-158.7032
rg,1624908725226180922,1,0.0581,0.8303,0.6152,401,1.3428,9.2773,-12.9395,88,1.1195,0.4962,10.3282,55.8923,31,0.8164,7591,3.7026,-158.7022
rg,1624908725226198088,1,0.0559,0.8303,0.6226,402,1.0986,9.7656,-13.1836,88,1.1195,0.4952,10.4532,55.8177,31,0.8164,12144,3.7026,-158.6931
rg,1624908725226215773,1,0.0579,0.824,0.6257,403,0.8545,9.7046,-12.085,88,1.1195,0.4952,10.5313,55.7263,31,0.8164,7751,3.7026,-158.6641
rg,1624908725226232866,1,0.0664,0.8323,0.6201,404,0.7324,9.9487,-12.3901,88,1.1195,0.4952,10.6041,55.6549,31,0.8164,9428,3.7026,-158.6304
rg,1624908725226249810,1,0.062,0.8289,0.6223,405,1.1597,10.1318,-12.5732,88,1.1195,0.4952,10.6839,55.6095,31,0.8164,7727,3.7026,-158.5941
rg,1624908725226267995,1,0.0574,0.8242,0.6272,406,1.1597,9.8267,-12.207,88,1.1195,0.4952,10.7612,55.5363,31,0.8164,7741,3.7026,-158.5654
rg,1624908725226290699,1,0.0552,0.8232,0.6277,407,0.3662,9.9487,-12.085,88,1.1205,0.4952,10.8389,55.4334,31,0.8164,9600,3.7026,-158.5307
rg,1624908725226310236,1,0.0476,0.8274,0.6184,408,0.7935,9.4604,-11.4746,88,1.1205,0.4952,10.9212,55.3828,31,0.8174,7798,3.7026,-158.4957
rg,1624908725226327977,1,0.0535,0.8269,0.6296,409,0.9766,9.2163,-11.9019,88,1.1195,0.4962,10.9743,55.3078,31,0.8164,7871,3.7026,-158.482
rg,1624908725226372106,1,0.0535,0.8208,0.6338,410,1.4648,10.1318,-12.7563,88,1.1205,0.4962,11.074,55.2417,31,0.8164,7911,3.7026,-158.4605
rg,1624908725226403309,1,0.0466,0.8269,0.6204,411,1.1597,9.9487,-12.6343,88,1.1205,0.4962,11.1742,55.1668,31,0.8164,7924,3.7026,-158.4427
rg,1624908725226423698,1,0.0479,0.8169,0.6301,412,1.0376,9.5215,-13.3057,77,1.1195,0.4962,11.2819,55.0837,31,0.8164,8039,3.7026,-158.4552
rg,1624908725226442328,1,0.0515,0.8291,0.6294,413,1.0376,9.8267,-13.1226,77,1.1195,0.4962,11.3792,55.0246,31,0.8164,7982,3.7026,-158.4503
rg,1624908725226500309,1,0.0525,0.8201,0.6221,414,1.709,9.0942,-12.0239,77,1.1205,0.4962,11.4169,54.9956,31,0.8164,9995,3.7026,-158.4444
rg,1624908725226528698,1,0.0527,0.8401,0.6272,415,2.0752,8.8501,-12.085,77,1.1205,0.4962,11.473,54.9801,31,0.8174,7968,3.7026,-158.4684
rg,1624908725226550142,1,0.061,0.8257,0.6277,416,1.9531,8.4839,-11.8408,77,1.1205,0.4962,11.4699,54.957,31,0.8174,8177,3.7026,-158.4794
rg,1624908725564607587,1,0.0645,0.8154,0.6221,417,1.2207,8.4229,-12.2681,77,1.1205,0.4962,11.471,54.8993,31,0.8174,25075,3.7026,-158.5033
rg,1624908725564688549,1,0.0632,0.8152,0.6248,418,1.3428,8.1177,-12.5732,77,1.1195,0.4962,11.4779,54.8401,31,0.8174,9955,3.7026,-158.5456
rg,1624908725564709697,1,0.0701,0.8262,0.6284,419,2.3193,8.4839,-12.146,77,1.1205,0.4962,11.4657,54.835,31,0.8174,7386,3.7026,-158.5642
rg,1624908725564729530,1,0.0608,0.8308,0.6248,420,1.2207,8.7891,-12.5122,77,1.1195,0.4962,11.4913,54.793,31,0.8174,7607,3.7026,-158.5799
rg,1624908725564748790,1,0.0635,0.821,0.6355,421,2.4414,8.606,-11.9629,77,1.1205,0.4962,11.4894,54.7767,31,0.8174,7417,3.7026,-158.5941
rg,1624908725564767401,1,0.071,0.8203,0.6206,422,0.8545,8.3008,-11.9019,77,1.1205,0.4962,11.4613,54.7216,31,0.8174,9062,3.7026,-158.612
rg,1624908725564784771,1,0.0671,0.824,0.6187,423,2.0752,8.1787,-11.8408,77,1.1205,0.4962,11.422,54.6872,31,0.8174,8622,3.7026,-158.5891
rg,1624908725564801734,1,0.0701,0.8289,0.6318,424,1.9531,9.0332,-12.146,77,1.1205,0.4962,11.4076,54.6705,31,0.8164,7542,3.7026,-158.611
rg,1624908725564843289,1,0.0784,0.8313,0.6272,425,1.8921,8.8501,-12.3901,77,1.1205,0.4962,11.3975,54.6653,31,0.8174,7628,3.7026,-158.6216
rg,1624908725564862308,1,0.0637,0.8313,0.6304,426,1.8921,9.5215,-12.3901,77,1.1205,0.4962,11.434,54.659,31,0.8174,7445,3.7026,-158.6109
rg,1624908725564879844,1,0.0613,0.8267,0.6267,427,2.6245,8.4839,-12.3901,77,1.1205,0.4962,11.4498,54.6756,31,0.8174,7639,3.7026,-158.6349
rg,1624908725564896937,1,0.0635,0.8276,0.6292,428,1.9531,9.2163,-12.6343,77,1.1205,0.4972,11.4854,54.6654,31,0.8174,7484,3.7026,-158.6408
rg,1624908725564913252,1,0.0737,0.8193,0.624,429,1.8921,9.0942,-12.085,77,1.1205,0.4962,11.4911,54.6684,31,0.8174,7703,3.7026,-158.6338
rg,1624908725564929881,1,0.0574,0.8242,0.6169,430,2.3193,8.9722,-11.9019,77,1.1205,0.4962,11.5073,54.6922,30,0.8174,8405,3.7026,-158.6272
rg,1624908725564946955,1,0.0676,0.8215,0.6218,431,2.3193,9.1553,-12.146,77,1.1205,0.4962,11.5135,54.7027,30,0.8174,7730,3.7026,-158.6227
rg,1624908725564964937,1,0.0627,0.8135,0.6292,432,2.1973,9.0332,-11.4746,77,1.1205,0.4972,11.505,54.6862,30,0.8174,8493,3.7026,-158.6113
rg,1624908725564981492,1,0.0742,0.8264,0.6235,433,2.6245,10.0708,-12.3901,77,1.1205,0.4972,11.527,54.7177,30,0.8174,7780,3.7026,-158.5811
rg,1624908725564998807,1,0.0757,0.8237,0.6255,434,2.4414,10.376,-12.207,77,1.1205,0.4962,11.5459,54.7365,31,0.8174,7662,3.7026,-158.5379
rg,1624908725565016955,1,0.0591,0.8225,0.624,435,2.1973,10.6201,-12.5732,77,1.1205,0.4972,11.5984,54.7578,31,0.8174,7927,3.7026,-158.513
rg,1624908725565034955,1,0.072,0.8152,0.6194,436,2.7466,9.8267,-11.3525,77,1.1215,0.4972,11.5804,54.787,31,0.8174,7706,3.7026,-158.4682
rg,1624908725565051936,1,0.0645,0.8289,0.634,437,3.54,10.2539,-12.2681,77,1.1205,0.4972,11.6213,54.8376,31,0.8174,7901,3.7026,-158.432
rg,1624908725565069566,1,0.0718,0.8196,0.6309,438,3.6011,9.7046,-12.146,77,1.1205,0.4972,11.6275,54.8787,31,0.8174,7741,3.7059,-158.4127
rg,1624908725565087603,1,0.0667,0.8328,0.6196,439,4.3335,10.2539,-11.6577,77,1.1215,0.4972,11.641,54.9913,31,0.8174,7919,3.7059,-158.3557
rg,1624908725565140676,1,0.0652,0.8257,0.6245,440,3.6011,10.3149,-12.0239,77,1.1205,0.4972,11.6557,55.0717,31,0.8174,7816,3.7059,-158.3257
rg,1624908725565162658,1,0.0569,0.8264,0.6211,441,3.54,10.498,-12.2681,77,1.1215,0.4972,11.7137,55.1328,31,0.8174,7969,3.7059,-158.2766
rg,1624908725565180769,1,0.0659,0.8345,0.6228,442,3.479,10.5591,-11.6577,77,1.1215,0.4972,11.7325,55.2002,31,0.8174,7853,3.7059,-158.2094
rg,1624908725565216361,1,0.0762,0.8337,0.6257,443,3.418,10.1929,-11.4746,77,1.1215,0.4972,11.7478,55.2521,31,0.8174,8061,3.7059,-158.1756
rg,1624908725565237657,1,0.0698,0.842,0.6128,444,3.479,10.0098,-11.7798,77,1.1215,0.4972,11.7485,55.3386,31,0.8174,7917,3.7059,-158.1237
rg,1624908725565257324,1,0.0583,0.8281,0.6152,445,3.418,10.0708,-11.8408,77,1.1215,0.4972,11.7756,55.3966,31,0.8174,8062,3.7059,-158.0758
rg,1624908725565280101,1,0.0698,0.8306,0.6262,446,3.54,9.8267,-11.8408,77,1.1215,0.4972,11.779,55.4361,31,0.8174,7935,3.7059,-158.0399
rg,1624908725565299657,1,0.0728,0.8401,0.6199,447,3.1738,11.0474,-12.4512,77,1.1215,0.4972,11.8181,55.4922,30,0.8174,8126,3.7059,-157.9712
rg,1624908725565324527,1,0.0654,0.8372,0.6187,448,3.1738,10.6201,-13.0615,77,1.1215,0.4962,11.881,55.5385,30,0.8174,7977,3.7059,-157.9313
rg,1624908725905443646,1,0.0781,0.8391,0.6155,449,3.1128,10.8032,-12.9395,77,1.1215,0.4962,11.9046,55.5926,31,0.8174,25618,3.7059,-157.8801
rg,1624908725905546201,1,0.0713,0.8374,0.6277,450,2.4414,10.6812,-12.0239,77,1.1205,0.4972,11.9199,55.5956,31,0.8174,10637,3.7059,-157.8172
rg,1624908725905569664,1,0.0679,0.8357,0.6106,451,1.77,10.9253,-12.207,77,1.1205,0.4972,11.9516,55.6008,31,0.8174,7373,3.7059,-157.7444
rg,1624908725905589460,1,0.0652,0.8345,0.6155,452,1.4648,11.0474,-11.8408,77,1.1215,0.4972,11.9787,55.5859,31,0.8174,7481,3.7059,-157.6613
rg,1624908725905607867,1,0.0706,0.8311,0.6184,453,2.5635,11.3525,-11.4136,77,1.1215,0.4972,11.9862,55.6099,31,0.8174,7399,3.7059,-157.5602
rg,1624908725905627330,1,0.0652,0.844,0.6167,454,1.709,11.3525,-11.0474,77,1.1215,0.4972,11.9899,55.6138,31,0.8174,7479,3.7059,-157.4478
rg,1624908725905647571,1,0.0708,0.8328,0.6138,455,0.7324,10.376,-10.8032,77,1.1215,0.4972,11.9542,55.5703,31,0.8174,8999,3.7059,-157.3633
rg,1624908725905727607,1,0.0588,0.8274,0.6162,456,1.5869,9.5215,-10.437,77,1.1215,0.4972,11.9136,55.5466,31,0.8174,7503,3.7059,-157.3018
rg,1624908725905753866,1,0.0642,0.8323,0.6211,457,1.4648,9.8267,-10.437,77,1.1215,0.4962,11.871,55.5188,31,0.8184,7504,3.7059,-157.2304
rg,1624908725905774088,1,0.0825,0.8467,0.6208,458,2.0752,9.3384,-11.2305,77,1.1215,0.4972,11.8084,55.5289,31,0.8174,7580,3.7059,-157.1897
rg,1624908725905793181,1,0.0825,0.8481,0.6255,459,1.0376,9.5215,-11.9019,77,1.1215,0.4972,11.7255,55.5228,31,0.8184,7455,3.7059,-157.1456
rg,1624908725905815255,1,0.1013,0.8662,0.6226,460,1.9531,9.2163,-11.1084,77,1.1215,0.4972,11.6262,55.5496,31,0.8174,7663,3.7059,-157.1014
rg,1624908725905834940,1,0.0986,0.8652,0.6189,461,1.6479,10.376,-11.4136,77,1.1215,0.4972,11.5715,55.5748,31,0.8174,7490,3.7059,-157.0238
rg,1624908725905854903,1,0.0928,0.865,0.6208,462,0.5493,11.6577,-11.1694,77,1.1215,0.4982,11.5517,55.5611,31,0.8174,7747,3.7059,-156.8981
rg,1624908725905875736,1,0.0986,0.8604,0.6245,463,0.3052,12.3901,-10.5591,77,1.1215,0.4982,11.5169,55.5336,31,0.8174,7602,3.7059,-156.7361
rg,1624908725905896810,1,0.1062,0.8577,0.6121,464,-0.4272,12.8784,-10.6201,77,1.1215,0.4972,11.4793,55.4995,31,0.8174,7634,3.7059,-156.5552
rg,1624908725905915680,1,0.0945,0.8582,0.6172,465,-0.7935,14.8926,-8.728,77,1.1215,0.4972,11.4508,55.4656,31,0.8174,7587,3.7059,-156.2648
rg,1624908725905944532,1,0.0864,0.8452,0.6074,466,-1.5869,14.9536,-8.1787,77,1.1215,0.4972,11.4211,55.3865,31,0.8174,7664,3.7059,-155.9418
rg,1624908725905967754,1,0.0779,0.8398,0.6218,467,-2.0752,14.7705,-6.5308,77,1.1215,0.4972,11.3531,55.2825,31,0.8174,7656,3.7059,-155.6116
rg,1624908725905988698,1,0.0945,0.8586,0.6267,468,-0.6714,14.5874,-6.2256,77,1.1215,0.4972,11.2426,55.2541,31,0.8184,7860,3.7059,-155.2775
rg,1624908725906008531,1,0.1091,0.8635,0.6282,469,-1.1597,15.564,-5.6152,77,1.1215,0.4972,11.1098,55.2195,31,0.8184,7692,3.7059,-154.8957
rg,1624908725906025809,1,0.1543,0.887,0.6367,470,-0.7324,16.4185,-5.6763,77,1.1215,0.4972,10.9203,55.2222,31,0.8184,7712,3.7059,-154.4837
rg,1624908725906081642,1,0.2021,0.9031,0.6282,471,-1.4648,21.6064,-7.3242,77,1.1215,0.4972,10.8212,55.2543,31,0.8184,9168,3.7059,-153.9293
rg,1624908725906106624,1,0.2207,0.9204,0.6287,472,-3.54,32.0435,-10.6201,77,1.1225,0.4982,11.0409,55.2743,31,0.8184,9509,3.7059,-153.0968
rg,1624908725906126290,1,0.2444,0.9304,0.624,473,-3.9673,40.0391,-12.7563,77,1.1215,0.4972,11.4624,55.3431,31,0.8174,11859,3.7059,-152.0401
rg,1624908725906144846,1,0.22,0.9216,0.6213,474,-4.3945,51.4526,-14.9536,77,1.1215,0.4972,12.2365,55.4669,31,0.8184,7828,3.7059,-150.6467
rg,1624908725906168290,1,0.1824,0.9084,0.6135,475,-5.249,56.8848,-15.7471,77,1.1215,0.4972,13.191,55.6085,31,0.8174,8013,3.7059,-149.0806
rg,1624908725906187493,1,0.1108,0.8816,0.6111,476,-8.1177,61.5234,-15.0146,77,1.1215,0.4972,14.3185,55.6732,31,0.8184,7851,3.7059,-147.3368
rg,1624908725906206364,1,0.0598,0.8564,0.6165,477,-8.2397,60.3027,-14.4653,77,1.1225,0.4972,15.4355,55.7168,31,0.8174,8062,3.7059,-145.6235
rg,1624908725906229549,1,0.0364,0.8459,0.6248,478,-7.6904,57.9224,-11.9629,77,1.1225,0.4972,16.4416,55.7786,31,0.8174,7949,3.7059,-143.9325
rg,1624908725906249623,1,-0.011,0.8196,0.623,479,-7.019,49.9878,-7.5684,77,1.1225,0.4972,17.1851,55.8094,31,0.8174,8217,3.7059,-142.4161
rg,1624908725906267641,1,-0.0356,0.8091,0.647,480,-6.0425,45.2881,-6.1646,77,1.1225,0.4972,17.6209,55.7653,31,0.8174,7959,3.7059,-141.1754
rg,1624908726245615085,1,-0.0427,0.7891,0.6555,481,0.8545,19.043,3.7231,77,1.1215,0.4962,17.1299,55.8229,31,0.8174,24869,3.7059,-140.6461
rg,1624908726245650566,1,0.0144,0.7874,0.6462,482,6.1035,6.5308,8.728,77,1.1215,0.4962,16.2872,55.9623,31,0.8174,8196,3.7059,-140.2829
rg,1624908726245671363,1,0.0225,0.7896,0.6274,483,5.4932,5.0659,10.0708,77,1.1215,0.4972,15.3803,56.0977,31,0.8174,7283,3.7059,-139.929
rg,1624908726245690233,1,0.0435,0.7859,0.6338,484,7.9956,2.4414,11.7798,77,1.1215,0.4972,14.3475,56.2912,31,0.8174,7463,3.7059,-139.632
rg,1624908726245708548,1,0.0559,0.7795,0.6177,485,7.4463,1.9531,12.9395,77,1.1225,0.4972,13.2749,56.4715,31,0.8164,7417,3.7059,-139.3211
rg,1624908726245726103,1,0.0654,0.7698,0.615,486,7.3242,2.9297,12.207,77,1.1225,0.4972,12.2659,56.6281,31,0.8164,7512,3.7059,-138.9956
rg,1624908726245765640,1,0.0601,0.7659,0.6187,487,5.7373,4.9438,10.498,77,1.1225,0.4982,11.4075,56.7031,31,0.8164,8970,3.7059,-138.6411
rg,1624908726245782955,1,0.0598,0.7722,0.6194,488,5.3101,5.249,9.7656,77,1.1225,0.4972,10.6137,56.7595,31,0.8174,7615,3.7059,-138.2894
rg,1624908726245799936,1,0.0774,0.7749,0.6177,489,4.0894,6.5918,9.1553,77,1.1225,0.4982,9.861,56.7731,31,0.8174,8582,3.7059,-137.9021
rg,1624908726245817047,1,0.1228,0.7695,0.6189,490,1.77,8.8501,6.6528,77,1.1225,0.4972,9.1702,56.6832,31,0.8174,9432,3.7059,-137.4922
rg,1624908726245833695,1,0.123,0.7734,0.6167,491,0.1831,14.0991,4.9438,77,1.1225,0.4972,8.7457,56.5477,31,0.8174,7459,3.7059,-136.9402
rg,1624908726245850602,1,0.0588,0.7563,0.6323,492,-2.3804,22.3389,0.9155,77,1.1225,0.4972,8.7282,56.3004,31,0.8174,7570,3.7059,-136.2041
rg,1624908726245867436,1,0.0154,0.7461,0.6299,493,-3.6011,23.4985,-0.1221,77,1.1225,0.4972,8.9392,56.0479,31,0.8174,7481,3.7059,-135.4197
rg,1624908726245885306,1,0.0098,0.7334,0.6479,494,-2.6245,25.0854,-2.7466,77,1.1225,0.4972,9.2147,55.7532,31,0.8174,7479,3.7059,-134.6858
rg,1624908726245902065,1,-0.031,0.728,0.6479,495,-1.8921,23.4375,-3.54,77,1.1225,0.4972,9.5661,55.4827,31,0.8174,7508,3.7059,-134.0292
rg,1624908726245920435,1,-0.0513,0.73,0.6538,496,-1.2817,22.8271,-3.8452,77,1.1225,0.4972,9.9877,55.2321,31,0.8164,7701,3.7059,-133.4052
rg,1624908726245940602,1,-0.0869,0.7083,0.6531,497,-0.4883,18.5547,-4.8218,77,1.1225,0.4972,10.3472,54.9993,31,0.8174,7713,3.7059,-133.068
rg,1624908726245958028,1,-0.0847,0.7151,0.6489,498,0.9155,11.7188,-5.9814,77,1.1225,0.4972,10.6005,54.7795,31,0.8174,7743,3.7059,-132.8703
rg,1624908726245975009,1,-0.0679,0.7229,0.6479,499,4.2725,5.0659,-5.9814,77,1.1225,0.4982,10.6516,54.6756,31,0.8174,7807,3.7059,-132.8925
rg,1624908726245993990,1,-0.0559,0.7266,0.6345,500,6.2866,2.7466,-6.4087,77,1.1225,0.4982,10.6944,54.6749,31,0.8174,8336,3.7059,-133.0609
rg,1624908726246011046,1,-0.0876,0.7183,0.6399,501,8.2397,-0.9766,-7.5684,77,1.1225,0.4982,10.7022,54.6965,31,0.8174,7846,3.7059,-133.3204
rg,1624908726246044231,1,-0.1355,0.72,0.6204,502,11.7188,-5.8594,-9.7046,77,1.1225,0.4982,10.782,54.8553,31,0.8174,9005,3.7059,-133.7856
rg,1624908726246062694,1,-0.1255,0.7168,0.6196,503,16.2354,-20.0806,-9.2163,77,1.1225,0.4972,10.4978,55.0995,31,0.8164,8102,3.7059,-134.7159
rg,1624908726246080601,1,-0.1184,0.7134,0.615,504,18.4937,-27.0386,-7.8125,77,1.1235,0.4982,10.0105,55.3974,30,0.8174,7726,3.7059,-135.8463
rg,1624908726246097990,1,-0.085,0.7197,0.5957,505,22.8271,-37.2314,-7.2021,77,1.1225,0.4982,9.2226,55.8589,30,0.8174,7949,3.7059,-137.2974
rg,1624908726246115638,1,-0.0767,0.7222,0.592,506,25.5737,-41.9312,-7.1411,77,1.1225,0.4982,8.3347,56.4422,30,0.8164,7799,3.7059,-138.9022
rg,1624908726246133156,1,-0.0371,0.7332,0.583,507,29.6021,-50.1709,-5.5542,77,1.1235,0.4982,7.19,57.1678,30,0.8174,8047,3.7059,-140.7538
rg,1624908726246149804,1,0.009,0.7512,0.5659,508,34.668,-57.9834,-5.5542,77,1.1235,0.4982,5.84,58.1349,31,0.8164,7828,3.7059,-142.8725
rg,1624908726246167489,1,0.052,0.7573,0.5559,509,36.5601,-60.791,-5.249,77,1.1225,0.4982,4.4093,59.2094,31,0.8164,8061,3.7059,-145.0919
rg,1624908726246186008,1,0.1353,0.782,0.5544,510,38.8794,-59.5093,-9.2773,77,1.1225,0.4982,3.0541,60.4232,31,0.8164,10007,3.7059,-147.3615
rg,1624908726246203934,1,0.1956,0.821,0.5593,511,39.0625,-52.3071,-13.916,77,1.1225,0.4982,1.9804,61.6949,31,0.8164,8124,3.7059,-149.48
rg,1624908726246220600,1,0.25,0.8386,0.5681,512,39.3066,-43.1519,-19.5312,77,1.1235,0.4982,1.2568,62.9741,31,0.8164,7968,3.7059,-151.3855
rg,1624908726589838597,1,0.3147,0.9114,0.5837,513,35.9497,-19.8975,-33.9966,77,1.1235,0.4982,1.5678,64.1079,31,0.8164,25306,3.7059,-152.5972
rg,1624908726589873579,1,0.394,0.9697,0.6118,514,31.1279,-4.2725,-42.2363,77,1.1235,0.4982,2.2221,65.0706,31,0.8164,8261,3.7059,-153.4837
rg,1624908726589918301,1,0.366,1.0073,0.6091,515,28.6255,2.0142,-43.457,77,1.1235,0.4992,3.196,65.8359,31,0.8154,7311,3.7059,-153.9458
rg,1624908726589938912,1,0.3569,1.0137,0.6006,516,22.583,12.207,-43.396,77,1.1235,0.4992,4.1978,66.4618,31,0.8154,7471,3.7059,-154.2125
rg,1624908726589958485,1,0.3496,1.0295,0.5903,517,15.625,18.6768,-39.1846,77,1.1235,0.4992,5.128,66.838,31,0.8154,7384,3.7059,-154.1611
rg,1624908726589977171,1,0.3113,1.0186,0.5742,518,11.9019,22.1558,-36.8042,77,1.1235,0.5002,6.0766,67.1372,30,0.8154,8705,3.7059,-153.932
rg,1624908726589995208,1,0.2251,0.999,0.54,519,-1.4648,27.4658,-25.1465,77,1.1235,0.5002,6.7497,66.9183,30,0.8154,11423,3.7059,-153.326
rg,1624908726590013207,1,0.2002,0.9812,0.5261,520,-6.7139,26.6724,-21.9116,77,1.1235,0.5012,7.3079,66.5136,30,0.8154,7859,3.7059,-152.7048
rg,1624908726590030059,1,0.1477,0.9302,0.5239,521,-10.6812,24.5972,-15.4419,77,1.1245,0.5012,7.6692,65.9253,30,0.8154,7403,3.7059,-152.0716
rg,1624908726590047781,1,0.1179,0.9058,0.5149,522,-12.7563,22.1558,-13.2446,77,1.1235,0.5002,7.8767,65.1748,31,0.8154,7920,3.7059,-151.5727
rg,1624908726590065633,1,0.1025,0.8899,0.5198,523,-16.4185,18.8599,-10.437,77,1.1235,0.5012,8.0392,64.3588,31,0.8164,7446,3.7059,-151.0876
rg,1624908726590082577,1,0.0862,0.8577,0.5139,524,-17.0898,16.0522,-8.7891,77,1.1235,0.5002,8.1243,63.5123,31,0.8154,7963,3.7059,-150.6855
rg,1624908726590099540,1,0.084,0.844,0.5286,525,-15.1978,15.564,-9.6436,77,1.1245,0.5012,8.2838,62.7062,31,0.8164,8228,3.7059,-150.3303
rg,1624908726590116281,1,0.0754,0.824,0.5466,526,-11.2915,13.3667,-11.9019,77,1.1235,0.5002,8.454,62.0295,31,0.8164,7993,3.7059,-150.1064
rg,1624908726590132799,1,0.0723,0.8196,0.5435,527,-7.4463,9.8877,-12.6343,77,1.1235,0.5012,8.5866,61.5127,31,0.8164,7524,3.7059,-150.025
rg,1624908726590152503,1,0.0884,0.8291,0.5505,528,-0.3662,8.1177,-14.0991,77,1.1235,0.5012,8.6988,61.2838,31,0.8164,10102,3.7059,-150.0377
rg,1624908726590170040,1,0.1035,0.8262,0.5598,529,2.8076,8.728,-15.3198,77,1.1235,0.5012,8.8287,61.169,31,0.8164,8170,3.7059,-150.057
rg,1624908726590198892,1,0.1055,0.8557,0.5496,530,8.728,9.3384,-18.3716,77,1.1245,0.5012,9.0709,61.3452,31,0.8164,7960,3.7059,-150.1058
rg,1624908726590217225,1,0.1187,0.8752,0.5662,531,11.5967,8.7891,-18.6768,77,1.1245,0.5012,9.2822,61.6177,31,0.8164,8144,3.7059,-150.1804
rg,1624908726590234540,1,0.1301,0.8757,0.5571,532,12.5122,9.0942,-18.0054,77,1.1245,0.5002,9.4429,61.9377,31,0.8164,8006,3.7059,-150.2268
rg,1624908726590251095,1,0.1489,0.9077,0.552,533,12.8174,9.1553,-16.7847,77,1.1245,0.5012,9.5234,62.3084,31,0.8164,8171,3.7059,-150.2383
rg,1624908726590267502,1,0.1533,0.9077,0.5579,534,11.7798,9.9487,-16.8457,85,1.1245,0.5012,9.5989,62.5702,31,0.8164,7646,3.7059,-150.2074
rg,1624908726590284076,1,0.1514,0.9133,0.5664,535,9.5215,10.9863,-16.4795,85,1.1245,0.5012,9.6948,62.7775,31,0.8164,7848,3.7059,-150.1466
rg,1624908726590300484,1,0.1396,0.929,0.5625,536,6.3477,10.8032,-13.6719,85,1.1245,0.5012,9.7098,62.882,31,0.8164,8468,3.7059,-150.0356
rg,1624908726590317502,1,0.1399,0.9153,0.5696,537,3.7842,10.7422,-12.4512,85,1.1245,0.5012,9.7174,62.7729,31,0.8164,7874,3.7059,-149.8887
rg,1624908726590334557,1,0.124,0.8953,0.5532,538,-0.1221,10.9253,-11.1694,85,1.1245,0.5012,9.6685,62.6068,31,0.8164,8138,3.7059,-149.7308
rg,1624908726590352150,1,0.1084,0.8833,0.5571,539,-2.4414,10.8032,-11.5356,85,1.1245,0.5012,9.6635,62.331,31,0.8164,8300,3.7059,-149.5883
rg,1624908726590368891,1,0.0942,0.863,0.5566,540,-3.7842,9.4604,-10.0098,85,1.1245,0.5012,9.6529,61.959,31,0.8174,8190,3.7059,-149.4837
rg,1624908726590385983,1,0.0869,0.8533,0.5667,541,-3.7231,8.0566,-9.6436,85,1.1245,0.5012,9.5744,61.5923,31,0.8164,7990,3.7059,-149.4154
rg,1624908726590403057,1,0.0881,0.8413,0.5605,542,-2.3193,7.1411,-10.437,85,1.1245,0.5022,9.5049,61.2844,31,0.8174,8234,3.7059,-149.3962
rg,1624908726590436224,1,0.0969,0.8315,0.5596,543,-0.5493,6.7139,-11.4746,85,1.1245,0.5012,9.4459,61.043,31,0.8164,8811,3.7059,-149.4144
rg,1624908726590455779,1,0.0962,0.8337,0.5583,544,-0.061,6.3477,-12.7563,85,1.1245,0.5012,9.4062,60.8344,31,0.8164,8936,3.7059,-149.4695
rg,1624908726929095044,1,0.1248,0.8621,0.5601,545,4.3335,5.188,-14.3433,85,1.1245,0.5012,9.3671,60.8246,31,0.8164,25000,3.7059,-149.5929
rg,1624908726929131988,1,0.136,0.8662,0.5444,546,4.7607,6.2256,-14.2212,85,1.1245,0.5012,9.3204,60.8731,31,0.8164,11650,3.7059,-149.6714
rg,1624908726929152599,1,0.1304,0.864,0.55,547,4.0894,6.1035,-14.5264,85,1.1245,0.5012,9.2958,60.8781,31,0.8164,7362,3.7059,-149.7621
rg,1624908726929171525,1,0.1416,0.8767,0.5527,548,3.479,7.3242,-14.3433,85,1.1245,0.5012,9.2692,60.8763,31,0.8164,7459,3.7059,-149.804
rg,1624908726929189710,1,0.1411,0.8828,0.5562,549,2.8076,7.6294,-13.7329,85,1.1245,0.5012,9.2369,60.8384,31,0.8164,7381,3.7059,-149.7916
rg,1624908726929206970,1,0.1458,0.8765,0.5535,550,2.0142,8.8501,-13.4888,85,1.1245,0.5022,9.2037,60.7895,31,0.8164,7530,3.7059,-149.763
rg,1624908726929224432,1,0.1309,0.8765,0.5505,551,1.2207,10.2539,-14.0381,85,1.1245,0.5022,9.2483,60.7221,31,0.8174,8771,3.7059,-149.6949
rg,1624908726929241969,1,0.1313,0.8733,0.562,552,1.1597,10.3149,-13.5498,85,1.1245,0.5022,9.2757,60.6318,31,0.8164,7568,3.7059,-149.6195
rg,1624908726929259210,1,0.126,0.8718,0.562,553,1.2207,10.3149,-13.4277,85,1.1245,0.5022,9.3087,60.5459,31,0.8164,7497,3.7059,-149.5426
rg,1624908726929276080,1,0.123,0.8701,0.5496,554,0.7324,10.2539,-13.1836,85,1.1245,0.5012,9.3218,60.4233,31,0.8164,7536,3.7059,-149.4729
rg,1624908726929293247,1,0.1216,0.8777,0.5574,555,0.9766,10.3149,-12.9395,85,1.1245,0.5012,9.3459,60.3527,31,0.8164,7472,3.7059,-149.385
rg,1624908726929309765,1,0.1179,0.8652,0.5515,556,1.0986,10.6201,-12.9395,85,1.1245,0.5012,9.3797,60.2876,31,0.8164,7443,3.7059,-149.2874
rg,1624908726929326117,1,0.1187,0.8708,0.5728,557,1.0376,9.7046,-12.8174,85,1.1245,0.5012,9.3926,60.185,31,0.8164,7496,3.7059,-149.2254
rg,1624908726929342932,1,0.1162,0.8633,0.5581,558,1.8311,9.3994,-12.5122,85,1.1245,0.5022,9.3902,60.1353,31,0.8164,7697,3.7059,-149.1656
rg,1624908726929389987,1,0.1133,0.8616,0.5632,559,1.2207,8.9722,-13.1836,85,1.1245,0.5022,9.4092,60.0468,31,0.8164,7511,3.7059,-149.1365
rg,1624908726929409617,1,0.1167,0.866,0.5647,560,1.4038,7.6904,-12.0239,85,1.1245,0.5022,9.3559,59.968,31,0.8174,7737,3.7059,-149.1291
rg,1624908726929427024,1,0.1116,0.8633,0.5554,561,1.6479,8.3618,-12.9395,85,1.1245,0.5022,9.3119,59.8943,31,0.8164,7582,3.7059,-149.1322
rg,1624908726929444302,1,0.1265,0.8652,0.5591,562,1.5869,7.8125,-13.1836,85,1.1245,0.5022,9.2834,59.8353,31,0.8164,7792,3.7059,-149.1427
rg,1624908726929461376,1,0.1238,0.863,0.5642,563,0.8545,7.3242,-13.0615,85,1.1245,0.5022,9.248,59.7348,31,0.8164,7646,3.7059,-149.17
rg,1624908726929478024,1,0.1245,0.8716,0.571,564,1.0986,7.3242,-12.5122,85,1.1245,0.5022,9.1961,59.6473,31,0.8164,7786,3.7059,-149.1869
rg,1624908726929494264,1,0.1252,0.8635,0.5564,565,1.2817,8.1177,-13.2446,85,1.1245,0.5022,9.1821,59.5901,31,0.8164,7674,3.7059,-149.1883
rg,1624908726929510653,1,0.1287,0.864,0.5632,566,0.9766,7.8125,-12.8174,85,1.1245,0.5022,9.1365,59.5235,31,0.8164,7838,3.7059,-149.2063
rg,1624908726929527005,1,0.1228,0.864,0.5591,567,1.1597,7.4463,-12.5122,85,1.1255,0.5022,9.0916,59.4604,31,0.8164,8221,3.7059,-149.2175
rg,1624908726929543838,1,0.1304,0.8655,0.5669,568,0.9766,7.1411,-11.7188,85,1.1245,0.5022,9.0007,59.3806,31,0.8164,11697,3.7059,-149.2251
rg,1624908726929560764,1,0.136,0.8682,0.5562,569,0.9155,7.6904,-12.2681,85,1.1245,0.5022,8.9305,59.3259,30,0.8164,8081,3.7059,-149.2213
rg,1624908726929577875,1,0.1211,0.8606,0.5586,570,1.0986,7.019,-11.7798,85,1.1245,0.5022,8.8625,59.2648,30,0.8164,7823,3.7059,-149.2332
rg,1624908726929594838,1,0.1318,0.8655,0.5579,571,1.1597,7.4463,-11.7188,85,1.1245,0.5022,8.7821,59.2183,30,0.8164,7850,3.7059,-149.2278
rg,1624908726929611578,1,0.1382,0.8479,0.5632,572,1.0376,7.6294,-13.0005,85,1.1245,0.5022,8.7363,59.1343,30,0.8164,8160,3.7059,-149.2473
rg,1624908726929628152,1,0.1379,0.8599,0.5576,573,0.7324,7.6904,-12.5732,85,1.1255,0.5022,8.681,59.0682,31,0.8174,9150,3.7059,-149.2523
rg,1624908726929680560,1,0.1211,0.8582,0.5557,574,1.0986,8.667,-12.8174,85,1.1245,0.5032,8.6909,59.0249,31,0.8174,8053,3.7059,-149.2286
rg,1624908726929701022,1,0.1206,0.8518,0.5601,575,0.8545,8.4839,-12.7563,85,1.1245,0.5032,8.6819,58.9618,31,0.8174,7906,3.7059,-149.2117
rg,1624908726929719244,1,0.1328,0.8577,0.5427,576,1.1597,7.5684,-12.146,85,1.1255,0.5022,8.6196,58.9454,31,0.8174,8075,3.7059,-149.209
rg,1624908727271731313,1,0.1414,0.8694,0.5579,577,0.7935,9.2773,-13.0005,85,1.1245,0.5022,8.5789,58.8995,31,0.8164,24490,3.7059,-149.1925
rg,1624908727271768275,1,0.1433,0.8564,0.5522,578,1.4038,8.3618,-11.3525,85,1.1245,0.5032,8.4887,58.8825,31,0.8164,10315,3.7059,-149.1487
rg,1624908727271790035,1,0.1433,0.8718,0.5488,579,1.5869,9.5825,-12.4512,85,1.1245,0.5022,8.4676,58.9009,31,0.8164,7316,3.7059,-149.0817
rg,1624908727271809775,1,0.1472,0.865,0.5442,580,1.0376,9.5215,-13.2446,85,1.1245,0.5032,8.4627,58.8946,31,0.8164,7487,3.7059,-149.0331
rg,1624908727271828442,1,0.1426,0.8679,0.5505,581,1.4648,9.2773,-11.9019,85,1.1245,0.5022,8.4185,58.9,31,0.8164,7311,3.7059,-148.9664
rg,1624908727271846905,1,0.1409,0.8635,0.5574,582,1.2817,10.6812,-12.5732,85,1.1245,0.5022,8.4312,58.8848,31,0.8164,7521,3.7059,-148.8675
rg,1624908727271864756,1,0.1323,0.8677,0.5601,583,0.3052,10.1318,-12.6343,85,1.1245,0.5022,8.4535,58.8282,31,0.8174,9044,3.7059,-148.7891
rg,1624908727271882682,1,0.124,0.8633,0.5571,584,1.2207,10.3149,-12.9395,85,1.1255,0.5032,8.5052,58.8105,31,0.8174,7516,3.7059,-148.7111
rg,1624908727271900201,1,0.1289,0.864,0.5527,585,1.3428,10.2539,-12.207,85,1.1245,0.5022,8.518,58.8094,31,0.8164,7912,3.7059,-148.6187
rg,1624908727271916812,1,0.1233,0.8679,0.5598,586,1.4648,9.8267,-12.4512,85,1.1245,0.5022,8.5434,58.8018,31,0.8174,9320,3.7059,-148.5476
rg,1624908727271934663,1,0.1199,0.8611,0.5608,587,1.2207,10.1929,-12.5122,85,1.1255,0.5022,8.5834,58.7763,31,0.8174,7448,3.7059,-148.4666
rg,1624908727271950811,1,0.1311,0.8618,0.5574,588,1.1597,9.1553,-13.0615,85,1.1245,0.5022,8.5954,58.7497,31,0.8174,7651,3.7059,-148.432
rg,1624908727271986645,1,0.127,0.8552,0.5562,589,0.8545,8.667,-12.8784,85,1.1245,0.5032,8.5979,58.7043,31,0.8174,7529,3.7059,-148.4116
rg,1624908727272004885,1,0.1294,0.8579,0.55,590,1.8311,8.7891,-12.8784,85,1.1255,0.5032,8.6148,58.6999,31,0.8174,7619,3.7059,-148.3778
rg,1624908727272021737,1,0.1353,0.8506,0.5583,591,1.0376,8.8501,-13.7939,85,1.1245,0.5022,8.6335,58.6521,31,0.8164,12292,3.7059,-148.3719
rg,1624908727272038237,1,0.1277,0.8604,0.5601,592,0.9766,8.667,-13.0005,85,1.1245,0.5022,8.633,58.6072,31,0.8164,7720,3.7059,-148.3557
rg,1624908727272054774,1,0.1372,0.8596,0.5557,593,1.0986,7.8125,-12.9395,85,1.1245,0.5022,8.5978,58.5787,31,0.8164,7615,3.7059,-148.3659
rg,1624908727272071644,1,0.1396,0.8589,0.5598,594,0.4883,8.4839,-12.8174,85,1.1245,0.5022,8.5691,58.5222,31,0.8164,7605,3.7059,-148.3516
rg,1624908727272088607,1,0.1497,0.8638,0.5549,595,1.0376,8.9722,-13.6108,85,1.1245,0.5022,8.558,58.5049,31,0.8164,7870,3.7059,-148.3351
rg,1624908727272105051,1,0.1431,0.8567,0.5598,596,1.1597,9.0942,-12.8174,85,1.1255,0.5022,8.5358,58.4785,31,0.8174,9586,3.7059,-148.3004
rg,1624908727272121607,1,0.1438,0.8567,0.5552,597,1.2207,9.2163,-12.5732,85,1.1245,0.5032,8.5064,58.4656,31,0.8174,8592,3.7059,-148.2552
rg,1624908727272138384,1,0.1482,0.854,0.5559,598,1.1597,9.7656,-12.7563,85,1.1255,0.5022,8.5164,58.4959,31,0.8174,7770,3.7059,-148.1994
rg,1624908727272155162,1,0.1511,0.856,0.5491,599,1.4648,10.3149,-13.0005,85,1.1255,0.5022,8.5085,58.507,31,0.8174,7940,3.7059,-148.1234
rg,1624908727272177755,1,0.1489,0.8525,0.5435,600,1.709,10.8643,-13.7329,85,1.1255,0.5022,8.5402,58.5345,31,0.8174,7833,3.7059,-148.0429
rg,1624908727272196032,1,0.1455,0.8525,0.554,601,1.9531,11.1084,-13.4277,85,1.1255,0.5022,8.5782,58.5545,31,0.8174,7997,3.7059,-147.9502
rg,1624908727272212736,1,0.1465,0.8528,0.553,602,1.9531,11.7188,-13.6719,85,1.1255,0.5022,8.6294,58.5769,31,0.8174,7839,3.7059,-147.8412
rg,1624908727272230254,1,0.1333,0.8694,0.5601,603,2.3804,11.7798,-13.0005,85,1.1255,0.5032,8.6893,58.6247,31,0.8174,8219,3.7059,-147.7151
rg,1624908727272261050,1,0.1392,0.8701,0.5601,604,2.8076,12.4512,-14.0381,85,1.1255,0.5022,8.7841,58.6891,31,0.8174,7864,3.7059,-147.5869
rg,1624908727272305161,1,0.1365,0.8633,0.561,605,2.2583,11.9629,-12.9395,85,1.1255,0.5032,8.8318,58.7201,31,0.8174,8115,3.7059,-147.4539
rg,1624908727272325013,1,0.1326,0.8733,0.5728,606,2.5635,11.5967,-12.7563,85,1.1255,0.5032,8.8757,58.7513,31,0.8174,9692,3.7059,-147.3312
rg,1624908727272344420,1,0.1255,0.8728,0.5562,607,1.8311,11.2305,-13.7329,85,1.1255,0.5032,8.9559,58.7769,31,0.8174,8161,3.7059,-147.2368
rg,1624908727272364272,1,0.1338,0.8655,0.5527,608,1.77,10.8032,-12.8174,85,1.1255,0.5032,8.9944,58.7778,31,0.8174,8010,3.7059,-147.1416
rg,1624908727609882385,1,0.1345,0.863,0.552,609,1.709,10.3149,-14.5874,85,1.1255,0.5032,9.0552,58.764,31,0.8174,25240,3.7059,-147.1008
rg,1624908727610946898,1,0.1272,0.863,0.5635,610,1.1597,10.376,-13.7329,85,1.1255,0.5022,9.1065,58.7327,31,0.8174,8295,3.7059,-147.0401
rg,1624908727610982620,1,0.144,0.8601,0.5569,611,0.9155,9.5215,-13.4277,85,1.1255,0.5032,9.0911,58.6982,31,0.8174,7314,3.7059,-147.0014
rg,1624908727611039472,1,0.1382,0.8525,0.563,612,1.709,9.2163,-13.2446,85,1.1245,0.5022,9.0753,58.6748,31,0.8174,7447,3.7059,-146.973
rg,1624908727611073064,1,0.1384,0.8584,0.5554,613,1.4038,9.5825,-13.3667,85,1.1255,0.5032,9.0715,58.6631,31,0.8174,7313,3.7059,-146.9311
rg,1624908727611103805,1,0.1411,0.8582,0.5618,614,1.4038,9.5215,-13.4277,85,1.1255,0.5032,9.064,58.6392,31,0.8174,10619,3.7059,-146.8946
rg,1624908727611133064,1,0.1377,0.8528,0.5574,615,1.4038,10.437,-13.5498,85,1.1255,0.5032,9.0851,58.6224,31,0.8174,7326,3.7059,-146.8288
rg,1624908727611163563,1,0.1401,0.8555,0.561,616,1.3428,11.4136,-13.855,85,1.1255,0.5032,9.1216,58.6209,31,0.8174,7531,3.7059,-146.7336
rg,1624908727611191415,1,0.1333,0.8542,0.5579,617,1.8311,11.2305,-13.3667,85,1.1255,0.5032,9.1603,58.6277,31,0.8174,7370,3.7059,-146.6365
rg,1624908727611220489,1,0.1399,0.8569,0.561,618,1.8921,11.3525,-12.9395,85,1.1245,0.5022,9.1898,58.6404,31,0.8174,7575,3.7059,-146.5314
rg,1624908727611311526,1,0.1377,0.8579,0.5535,619,1.8921,11.3525,-13.3667,85,1.1255,0.5032,9.2192,58.6625,31,0.8174,8476,3.7059,-146.4279
rg,1624908727611347488,1,0.1304,0.8645,0.5598,620,2.1362,11.5967,-13.3057,85,1.1255,0.5032,9.2681,58.6911,31,0.8174,8184,3.7059,-146.3154
rg,1624908727611376062,1,0.1289,0.8606,0.5637,621,2.5024,10.8643,-12.4512,85,1.1255,0.5032,9.3274,58.6964,31,0.8174,7484,3.7059,-146.2067
rg,1624908727611406229,1,0.127,0.8687,0.5591,622,1.8311,11.1694,-12.9395,85,1.1255,0.5032,9.3586,58.7169,31,0.8174,7669,3.7059,-146.1002
rg,1624908727611459729,1,0.1392,0.8696,0.5596,623,2.3193,10.8643,-12.4512,85,1.1255,0.5032,9.3406,58.7564,31,0.8174,7477,3.7059,-145.9938
rg,1624908727611492747,1,0.135,0.863,0.5552,624,2.3193,10.6812,-12.8784,85,1.1255,0.5032,9.3406,58.7922,31,0.8174,10551,3.7059,-145.9025
rg,1624908727611526636,1,0.1318,0.8638,0.5554,625,1.77,10.9253,-13.0615,85,1.1255,0.5032,9.3586,58.8059,31,0.8174,7586,3.7059,-145.8062
rg,1624908727611563469,1,0.1316,0.8569,0.5598,626,1.9531,10.9253,-12.4512,85,1.1255,0.5032,9.3548,58.8119,31,0.8174,7757,3.7059,-145.6999
rg,1624908727611597117,1,0.1201,0.8623,0.553,627,1.5869,10.6812,-12.7563,85,1.1255,0.5032,9.3783,58.8119,31,0.8174,7651,3.7059,-145.6066
rg,1624908727611627172,1,0.1353,0.8562,0.5527,628,1.5259,11.4136,-13.3057,85,1.1255,0.5032,9.4041,58.813,31,0.8174,7807,3.7059,-145.4991
rg,1624908727611658783,1,0.1309,0.8628,0.5635,629,1.9531,11.2305,-12.9395,85,1.1255,0.5032,9.4247,58.8192,31,0.8174,7786,3.7059,-145.3924
rg,1624908727611688246,1,0.1301,0.8584,0.5491,630,1.77,10.8643,-13.1836,85,1.1255,0.5032,9.444,58.8367,31,0.8184,7841,3.7059,-145.2999
rg,1624908727611717709,1,0.1392,0.8604,0.5571,631,1.6479,10.6201,-12.6953,85,1.1255,0.5032,9.4235,58.8362,31,0.8174,7679,3.7059,-145.2076
rg,1624908727611746894,1,0.135,0.8718,0.5583,632,2.1362,10.1929,-12.6953,85,1.1255,0.5032,9.3603,58.8516,31,0.8174,7891,3.7059,-145.1279
rg,1624908727611774227,1,0.1406,0.8669,0.5518,633,1.8311,10.0098,-12.8174,85,1.1255,0.5032,9.3321,58.8719,31,0.8174,7760,3.7059,-145.0563
rg,1624908727611848208,1,0.1287,0.8582,0.5574,634,1.4648,10.498,-13.4888,85,1.1255,0.5032,9.362,58.856,31,0.8174,7911,3.7059,-144.9852
rg,1624908727611881745,1,0.1313,0.8621,0.5535,635,2.3193,10.498,-12.2681,85,1.1255,0.5032,9.3435,58.891,31,0.8174,7825,3.7059,-144.8867
rg,1624908727611907337,1,0.1345,0.8694,0.5588,636,2.0752,10.1929,-13.0005,85,1.1255,0.5032,9.3403,58.9095,31,0.8174,7982,3.7059,-144.814
rg,1624908727611934189,1,0.1392,0.8662,0.5569,637,1.4648,10.8032,-13.1226,85,1.1255,0.5042,9.3369,58.9505,31,0.8174,7820,3.7059,-144.7332
rg,1624908727611960652,1,0.1379,0.8667,0.5559,638,1.6479,9.8877,-12.7563,85,1.1255,0.5032,9.3111,58.951,31,0.8174,8019,3.7059,-144.6655
rg,1624908727611989540,1,0.1416,0.8647,0.5574,639,2.0142,10.6812,-13.7329,85,1.1255,0.5032,9.3282,58.9623,31,0.8174,8452,3.7059,-144.5911
rg,1624908727612017262,1,0.1414,0.8638,0.5581,640,1.709,10.7422,-12.6953,85,1.1255,0.5032,9.3107,58.9623,31,0.8174,8075,3.7059,-144.4935
rg,1624908727948405808,1,0.137,0.8623,0.561,641,1.77,11.4136,-13.1226,85,1.1255,0.5032,9.3315,58.9597,31,0.8174,23575,3.7059,-144.3826
rg,1624908727948448048,1,0.1248,0.8635,0.5771,642,2.1362,10.8643,-12.9395,85,1.1255,0.5032,9.3621,58.941,31,0.8174,14389,3.7059,-144.2917
rg,1624908727948468252,1,0.1328,0.8611,0.552,643,1.77,11.0474,-13.6719,85,1.1255,0.5032,9.3818,58.9604,31,0.8174,8855,3.7059,-144.1738
rg,1624908727948487567,1,0.1414,0.863,0.5627,644,1.9531,11.0474,-13.3057,85,1.1255,0.5032,9.39,58.9604,31,0.8174,7567,3.7059,-144.0799
rg,1624908727948507344,1,0.1362,0.8682,0.5564,645,1.0376,10.5591,-13.0005,85,1.1255,0.5032,9.3602,58.9702,31,0.8174,7370,3.7059,-143.9882
rg,1624908727948526696,1,0.1287,0.8625,0.5608,646,1.8311,11.2305,-12.6953,85,1.1255,0.5032,9.3781,58.971,31,0.8174,7562,3.7059,-143.8748
rg,1624908727948544103,1,0.1331,0.8713,0.5691,647,1.0376,10.498,-12.6343,85,1.1255,0.5032,9.3721,58.9314,31,0.8174,9256,3.7059,-143.7863
rg,1624908727948563511,1,0.1316,0.8652,0.5552,648,1.3428,10.3149,-12.5732,85,1.1255,0.5032,9.4032,58.9363,31,0.8184,7592,3.7059,-143.7089
rg,1624908727948664288,1,0.1233,0.8611,0.553,649,1.3428,10.1318,-13.5498,85,1.1255,0.5032,9.4361,58.9226,31,0.8184,7420,3.7059,-143.6496
rg,1624908727948684751,1,0.1392,0.8701,0.5508,650,1.9531,9.7656,-12.085,85,1.1255,0.5042,9.3785,58.9518,31,0.8184,7604,3.7059,-143.5701
rg,1624908727948703269,1,0.1423,0.8638,0.5645,651,1.9531,9.8267,-12.0239,85,1.1255,0.5032,9.3165,58.9473,31,0.8184,7458,3.7059,-143.4924
rg,1624908727948724065,1,0.1382,0.8635,0.5581,652,1.3428,10.1929,-12.8784,85,1.1255,0.5032,9.3011,58.9291,31,0.8184,7660,3.7059,-143.4178
rg,1624908727948742399,1,0.126,0.8467,0.5696,653,1.3428,10.376,-13.0005,85,1.1255,0.5032,9.2981,58.9282,31,0.8184,7521,3.7059,-143.3369
rg,1624908727948760491,1,0.1387,0.8621,0.5474,654,1.2817,10.9253,-13.7329,85,1.1255,0.5032,9.3246,58.928,31,0.8174,7676,3.7059,-143.2516
rg,1624908727948779361,1,0.1338,0.8638,0.5713,655,1.3428,10.437,-13.916,85,1.1266,0.5042,9.3001,58.8928,31,0.8174,7578,3.7059,-143.1718
rg,1624908727948797009,1,0.137,0.8657,0.554,656,1.5259,9.7046,-12.8174,85,1.1255,0.5042,9.2756,58.8919,31,0.8184,7747,3.7059,-143.1115
rg,1624908727948816657,1,0.1401,0.8638,0.5623,657,2.0142,10.376,-13.1836,82,1.1255,0.5032,9.2727,58.8952,31,0.8184,7643,3.7059,-143.0384
rg,1624908727948834750,1,0.1414,0.8616,0.5605,658,1.5869,10.1318,-12.8174,82,1.1255,0.5042,9.249,58.8818,31,0.8184,7795,3.7059,-142.9659
rg,1624908727948852583,1,0.1377,0.8535,0.5586,659,1.5869,9.8267,-12.6343,82,1.1266,0.5032,9.2193,58.8615,31,0.8184,7629,3.7059,-142.9014
rg,1624908727948872676,1,0.1362,0.8567,0.5625,660,1.4038,11.5356,-13.916,82,1.1266,0.5042,9.2553,58.8238,31,0.8184,7860,3.7059,-142.8077
rg,1624908727948894027,1,0.1338,0.8652,0.5562,661,2.0752,10.8643,-13.5498,82,1.1255,0.5042,9.2882,58.8468,31,0.8184,7694,3.7059,-142.7235
rg,1624908727948912342,1,0.1343,0.8662,0.5596,662,1.4038,10.7422,-12.9395,82,1.1266,0.5042,9.2963,58.8382,31,0.8184,7880,3.7059,-142.6315
rg,1624908727948929583,1,0.1401,0.873,0.5557,663,2.3804,10.6201,-12.146,82,1.1255,0.5042,9.2631,58.8864,31,0.8184,11517,3.7059,-142.5247
rg,1624908727949074804,1,0.136,0.8606,0.5605,664,2.0142,10.1318,-13.3057,82,1.1255,0.5042,9.2675,58.8875,31,0.8184,9646,3.7059,-142.4628
rg,1624908727949100248,1,0.125,0.8706,0.5642,665,2.2583,11.0474,-13.6719,82,1.1255,0.5042,9.325,58.8899,31,0.8184,7800,3.7059,-142.3622
rg,1624908727949121526,1,0.1318,0.866,0.55,666,2.0752,10.7422,-12.5122,82,1.1255,0.5042,9.3206,58.9256,31,0.8184,7945,3.7059,-142.2583
rg,1624908727949143007,1,0.1206,0.8613,0.5576,667,1.6479,10.7422,-12.2681,82,1.1255,0.5042,9.3316,58.9237,31,0.8184,7837,3.7059,-142.1525
rg,1624908727949162044,1,0.1284,0.863,0.5684,668,1.6479,10.8032,-13.3057,82,1.1255,0.5042,9.3644,58.9009,31,0.8184,9556,3.7059,-142.069
rg,1624908727949181285,1,0.1187,0.8557,0.5566,669,1.8311,10.2539,-12.7563,82,1.1255,0.5042,9.3834,58.8979,31,0.8184,7904,3.7059,-141.9913
rg,1624908727949198933,1,0.1174,0.8584,0.5583,670,1.77,9.3994,-13.3057,82,1.1255,0.5042,9.4063,58.886,31,0.8184,8034,3.7059,-141.9547
rg,1624908727949217507,1,0.1189,0.8555,0.5632,671,0.9766,9.2163,-13.3667,82,1.1255,0.5042,9.4237,58.8289,31,0.8184,7966,3.7059,-141.9281
rg,1624908727949237451,1,0.1382,0.8694,0.5583,672,2.0142,8.4229,-12.6953,82,1.1266,0.5042,9.363,58.8393,31,0.8184,8097,3.7059,-141.9108
rg,1624908728290726198,1,0.1416,0.8618,0.5737,673,2.7466,10.498,-14.3433,82,1.1255,0.5042,9.4122,58.8677,31,0.8184,24808,3.7059,-141.8585
rg,1624908728290817068,1,0.134,0.8604,0.5696,674,4.1504,9.8267,-13.2446,82,1.1255,0.5042,9.441,58.9447,31,0.8184,10025,3.7059,-141.8085
rg,1624908728290845494,1,0.1357,0.8726,0.5576,675,4.3335,10.9253,-14.8315,82,1.1255,0.5042,9.5095,59.0554,31,0.8184,7391,3.7059,-141.7472
rg,1624908728290869419,1,0.1338,0.8699,0.5605,676,3.7842,9.8877,-12.6953,82,1.1255,0.5042,9.512,59.1325,31,0.8184,7403,3.7059,-141.6952
rg,1624908728290896290,1,0.127,0.8774,0.5686,677,3.54,9.9487,-14.3433,82,1.1255,0.5042,9.5617,59.1859,31,0.8184,7381,3.7059,-141.6593
rg,1624908728290921549,1,0.1377,0.887,0.5684,678,3.6621,7.9956,-12.6953,82,1.1255,0.5042,9.4933,59.2484,31,0.8184,7414,3.7059,-141.6553
rg,1624908728290975845,1,0.1338,0.8789,0.5752,679,3.8452,7.6904,-13.0615,82,1.1266,0.5052,9.4431,59.2762,31,0.8184,9151,3.7059,-141.6987
rg,1624908728290999196,1,0.1375,0.8909,0.5793,680,3.7842,7.3853,-13.6108,82,1.1266,0.5042,9.4013,59.3181,31,0.8184,7475,3.7059,-141.737
rg,1624908728291025585,1,0.1335,0.8745,0.5664,681,3.54,7.6904,-13.916,82,1.1255,0.5042,9.3161,59.3344,31,0.8184,7435,3.7059,-141.7831
rg,1624908728291049400,1,0.1282,0.877,0.5752,682,2.9297,6.897,-13.0615,82,1.1266,0.5042,9.2631,59.3198,31,0.8184,9909,3.7059,-141.8591
rg,1624908728291069566,1,0.1414,0.8787,0.551,683,2.9297,6.5308,-13.855,82,1.1266,0.5042,9.2043,59.3581,31,0.8184,7505,3.7015,-141.9255
rg,1624908728291090992,1,0.1494,0.8789,0.5605,684,1.709,5.9204,-12.9395,82,1.1266,0.5042,9.089,59.3287,31,0.8184,7537,3.7015,-141.9968
rg,1624908728291119307,1,0.1453,0.874,0.551,685,1.3428,6.5308,-12.085,82,1.1255,0.5042,8.967,59.304,31,0.8184,7576,3.7015,-142.0273
rg,1624908728291138992,1,0.158,0.8669,0.5459,686,0.9155,5.4932,-11.5356,82,1.1255,0.5042,8.7718,59.2551,31,0.8184,12072,3.7015,-142.0883
rg,1624908728291158899,1,0.1562,0.8633,0.5432,687,0.4883,6.2866,-11.7798,82,1.1255,0.5042,8.6198,59.201,31,0.8184,7573,3.7015,-142.1204
rg,1624908728291178473,1,0.1467,0.8562,0.5432,688,-0.4883,7.6904,-11.7798,82,1.1255,0.5042,8.5202,59.1089,31,0.8184,7733,3.7015,-142.105
rg,1624908728291198899,1,0.1455,0.8547,0.5342,689,-0.3052,7.0801,-10.5591,82,1.1255,0.5042,8.371,59.0436,31,0.8184,7643,3.7015,-142.0836
rg,1624908728291219121,1,0.1562,0.856,0.5359,690,0,6.5918,-10.8032,82,1.1255,0.5042,8.2038,58.9881,31,0.8184,7729,3.7015,-142.0844
rg,1624908728291237936,1,0.1619,0.8491,0.5437,691,0.5493,8.1787,-11.9629,82,1.1266,0.5042,8.1029,58.938,31,0.8184,8376,3.7015,-142.0576
rg,1624908728291257214,1,0.1614,0.855,0.5454,692,0.1221,9.0332,-11.8408,82,1.1266,0.5042,8.022,58.881,31,0.8184,7629,3.7015,-141.9982
rg,1624908728291274232,1,0.1675,0.8552,0.5408,693,1.2817,9.8267,-12.146,82,1.1266,0.5042,7.9574,58.8846,31,0.8184,7638,3.7015,-141.9165
rg,1624908728291314491,1,0.1628,0.8481,0.542,694,1.5259,10.2539,-10.9863,82,1.1266,0.5042,7.8691,58.8933,31,0.8184,7699,3.7015,-141.7973
rg,1624908728291336546,1,0.1565,0.8484,0.5344,695,1.6479,11.2915,-12.4512,82,1.1266,0.5042,7.871,58.9207,31,0.8184,7816,3.7015,-141.6706
rg,1624908728291357324,1,0.1641,0.8472,0.5461,696,2.3193,12.3901,-12.7563,82,1.1266,0.5032,7.8914,58.9545,31,0.8184,7724,3.7015,-141.5152
rg,1624908728291377102,1,0.1655,0.8477,0.5454,697,3.418,12.5732,-12.0239,82,1.1266,0.5042,7.8865,59.0359,31,0.8184,7926,3.7015,-141.3378
rg,1624908728291397694,1,0.1658,0.8523,0.5371,698,3.6621,12.6953,-11.5356,82,1.1266,0.5042,7.8664,59.1472,31,0.8184,7770,3.7015,-141.1426
rg,1624908728291415805,1,0.1626,0.8433,0.5479,699,3.479,12.6343,-10.9863,82,1.1266,0.5042,7.8998,59.2414,31,0.8184,7967,3.7015,-140.8941
rg,1624908728291436694,1,0.167,0.845,0.5439,700,4.4556,14.5874,-9.9487,82,1.1266,0.5042,7.8591,59.3683,31,0.8184,7806,3.7015,-140.6023
rg,1624908728291455324,1,0.1494,0.8423,0.5469,701,4.3335,15.686,-11.6577,82,1.1266,0.5042,7.9372,59.4769,31,0.8194,7983,3.7015,-140.3077
rg,1624908728291471879,1,0.1528,0.8506,0.5461,702,3.9673,15.686,-10.6201,82,1.1266,0.5032,7.972,59.6085,31,0.8184,8835,3.7015,-139.9533
rg,1624908728291488490,1,0.145,0.8508,0.5547,703,4.0283,17.1509,-11.4136,82,1.1266,0.5042,8.0784,59.7043,31,0.8184,9928,3.7015,-139.6121
rg,1624908728291504879,1,0.1531,0.8489,0.5515,704,3.418,18.2495,-12.3291,82,1.1266,0.5042,8.2156,59.775,31,0.8184,7945,3.7015,-139.2394
rg,1624908728642797147,1,0.1289,0.8577,0.5498,705,4.0894,18.7378,-12.8174,82,1.1266,0.5042,8.4263,59.8855,31,0.8184,25283,3.7015,-138.8571
rg,1624908728642852147,1,0.106,0.864,0.5579,706,4.3945,18.6157,-13.1226,82,1.1255,0.5042,8.683,60.0198,31,0.8184,14188,3.7015,-138.4821
rg,1624908728642875073,1,0.1021,0.8596,0.5518,707,4.1504,17.0898,-12.4512,82,1.1266,0.5042,8.8865,60.1172,31,0.8184,7494,3.7015,-138.1491
rg,1624908728642897591,1,0.1111,0.8713,0.5562,708,4.8828,16.0522,-12.8784,82,1.1266,0.5042,9.0646,60.2424,31,0.8184,7495,3.7015,-137.86
rg,1624908728642917925,1,0.103,0.8652,0.5498,709,4.4556,15.564,-13.1226,82,1.1266,0.5042,9.2342,60.3378,30,0.8184,9558,3.7015,-137.5926
rg,1624908728642959887,1,0.1001,0.8562,0.552,710,4.6387,14.9536,-13.7329,82,1.1255,0.5042,9.421,60.4248,30,0.8184,7831,3.7015,-137.3596
rg,1624908728642980035,1,0.1194,0.8584,0.5479,711,4.6387,14.8315,-14.3433,82,1.1266,0.5042,9.5779,60.5172,30,0.8194,8129,3.7015,-137.141
rg,1624908728642999517,1,0.1094,0.8618,0.5491,712,4.9438,14.0381,-13.855,82,1.1266,0.5042,9.718,60.6175,30,0.8194,7826,3.7015,-136.94
rg,1624908728643016720,1,0.1201,0.863,0.5518,713,4.4556,14.0381,-14.5264,82,1.1266,0.5042,9.8537,60.6893,31,0.8194,7801,3.7015,-136.7525
rg,1624908728643034368,1,0.1172,0.8562,0.5459,714,5.127,13.916,-15.0757,82,1.1266,0.5042,10.0048,60.7859,31,0.8194,9521,3.7015,-136.5794
rg,1624908728643053090,1,0.1287,0.8672,0.5447,715,5.188,14.7705,-16.3574,82,1.1266,0.5042,10.1888,60.8983,31,0.8194,7479,3.7015,-136.3979
rg,1624908728643072516,1,0.1321,0.8494,0.561,716,5.6152,14.1602,-14.9536,82,1.1266,0.5042,10.2968,60.9728,31,0.8194,8333,3.7015,-136.2194
rg,1624908728643091961,1,0.1477,0.8752,0.563,717,5.3711,14.8315,-16.4795,82,1.1266,0.5042,10.44,61.062,31,0.8194,8283,3.7015,-136.0414
rg,1624908728643110257,1,0.1533,0.8938,0.5574,718,5.7983,15.3809,-16.8457,82,1.1266,0.5042,10.5928,61.1998,31,0.8194,7606,3.7015,-135.8447
rg,1624908728643129331,1,0.1475,0.8933,0.561,719,5.7983,15.9912,-17.395,82,1.1266,0.5042,10.7824,61.3276,31,0.8194,7928,3.7015,-135.6374
rg,1624908728643149164,1,0.1443,0.9023,0.5427,720,4.6997,17.8833,-16.8457,82,1.1266,0.5042,10.9864,61.4666,31,0.8194,9047,3.7015,-135.3424
rg,1624908728643167386,1,0.1074,0.8894,0.5378,721,3.3569,17.4561,-16.9067,82,1.1266,0.5042,11.2483,61.5389,31,0.8194,8352,3.7015,-135.0643
rg,1624908728643184386,1,0.1001,0.8784,0.5332,722,2.6245,14.8315,-15.1978,82,1.1266,0.5042,11.4033,61.5643,31,0.8194,8478,3.7015,-134.8481
rg,1624908728643202219,1,0.092,0.8723,0.5334,723,2.0752,13.855,-14.8926,82,1.1266,0.5042,11.5087,61.5511,31,0.8194,8229,3.7015,-134.6633
rg,1624908728643220497,1,0.1165,0.8694,0.5352,724,0.9155,10.437,-12.5732,82,1.1266,0.5042,11.4434,61.473,31,0.8194,8516,3.7015,-134.5573
rg,1624908728643973993,1,0.1311,0.8623,0.5398,725,1.709,9.6436,-13.5498,82,1.1266,0.5042,11.3688,61.4031,31,0.8194,8072,3.7015,-134.5023
rg,1624908728644010289,1,0.1294,0.8679,0.5352,726,2.0752,9.7046,-13.2446,82,1.1266,0.5042,11.2841,61.3883,31,0.8194,8399,3.7015,-134.4231
rg,1624908728644031548,1,0.137,0.8777,0.5234,727,2.6855,10.8643,-14.2212,82,1.1266,0.5042,11.2507,61.416,31,0.8194,8203,3.7015,-134.3275
rg,1624908728644051529,1,0.1421,0.8699,0.5298,728,3.54,12.207,-14.7095,82,1.1266,0.5042,11.2497,61.4631,31,0.8194,8097,3.7015,-134.1971
rg,1624908728644071103,1,0.1372,0.8928,0.5344,729,3.0518,13.9771,-15.9912,82,1.1266,0.5042,11.3858,61.5073,31,0.8194,8273,3.7015,-134.022
rg,1624908728644090196,1,0.1257,0.8804,0.5264,730,3.2349,14.8926,-16.2964,82,1.1266,0.5042,11.5214,61.5708,31,0.8194,8126,3.7015,-133.8219
rg,1624908728644108677,1,0.1111,0.8774,0.5452,731,3.8452,15.8691,-16.2354,82,1.1266,0.5052,11.7004,61.6245,31,0.8194,8731,3.7015,-133.5932
rg,1624908728644126548,1,0.1067,0.8755,0.5481,732,4.3335,15.625,-15.9912,82,1.1266,0.5052,11.8684,61.6876,31,0.8194,8195,3.7015,-133.3702
rg,1624908728644144973,1,0.1067,0.8882,0.5571,733,4.6387,15.5029,-15.5029,82,1.1266,0.5042,12.04,61.7921,31,0.8194,9353,3.7015,-133.1501
rg,1624908728644162677,1,0.0991,0.8972,0.5579,734,5.9204,15.0146,-15.686,82,1.1266,0.5042,12.1922,61.9172,31,0.8194,7961,3.7015,-132.9412
rg,1624908728644180547,1,0.1072,0.9058,0.5557,735,5.8594,12.7563,-14.9536,82,1.1266,0.5042,12.255,62.0353,31,0.8194,8138,3.7015,-132.7966
rg,1624908728644208140,1,0.1028,0.9087,0.5574,736,6.3477,11.9019,-14.5874,82,1.1266,0.5042,12.234,62.1304,31,0.8194,8008,3.7015,-132.716
rg,1624908728979158294,1,0.124,0.9084,0.5615,737,2.8687,10.0098,-13.9771,82,1.1276,0.5052,12.177,62.0965,31,0.8194,24699,3.7015,-132.653
rg,1624908728979206627,1,0.1138,0.9004,0.564,738,1.4648,11.1694,-13.7329,82,1.1266,0.5042,12.1547,62.0036,31,0.8184,16522,3.7015,-132.5462
rg,1624908728979228108,1,0.1221,0.9033,0.571,739,0.9155,10.437,-14.4043,82,1.1266,0.5042,12.1284,61.8745,31,0.8194,7352,3.7015,-132.4811
rg,1624908728979247960,1,0.126,0.8977,0.5823,740,0.8545,9.9487,-13.855,82,1.1266,0.5042,12.0677,61.7195,31,0.8184,7392,3.7015,-132.4291
rg,1624908728979298126,1,0.1392,0.9004,0.5781,741,2.2583,10.498,-14.8315,82,1.1266,0.5052,12.0279,61.6375,31,0.8184,7358,3.7015,-132.3741
rg,1624908728979320496,1,0.1394,0.8889,0.5808,742,3.6011,11.5967,-14.7095,82,1.1266,0.5052,12.0037,61.6027,31,0.8184,7337,3.7015,-132.2813
rg,1624908728979339682,1,0.1306,0.895,0.5762,743,5.7373,11.7188,-14.0991,82,1.1266,0.5052,11.9791,61.6731,31,0.8194,9488,3.7015,-132.1693
rg,1624908728979358293,1,0.1267,0.8889,0.5957,744,8.2397,12.7563,-13.0005,82,1.1266,0.5052,11.946,61.8105,31,0.8194,7665,3.7015,-132.0071
rg,1624908728979377367,1,0.1096,0.887,0.6106,745,9.5825,14.3433,-13.1226,82,1.1266,0.5042,11.9836,61.9784,31,0.8194,7585,3.7015,-131.7954
rg,1624908728979396070,1,0.1113,0.9177,0.6372,746,15.686,14.3433,-11.5967,82,1.1266,0.5052,11.9699,62.3807,31,0.8194,7444,3.7015,-131.556
rg,1624908728979415163,1,0.1248,0.9082,0.6448,747,18.6768,12.5732,-14.4653,82,1.1266,0.5052,11.9986,62.8391,31,0.8184,7604,3.7015,-131.4381
rg,1624908728979433366,1,0.0874,0.9351,0.5835,748,22.8882,13.3057,-14.4043,82,1.1266,0.5052,12.1026,63.5906,31,0.8194,7452,3.7015,-131.2613
rg,1624908728979450903,1,0.0432,0.9187,0.54,749,23.2544,11.6577,-14.7705,82,1.1266,0.5062,12.2284,64.3307,31,0.8194,7671,3.7015,-131.1737
rg,1624908728979467625,1,0.0298,0.9272,0.5283,750,20.2026,7.2021,-13.1836,82,1.1266,0.5072,12.2821,64.968,31,0.8194,7536,3.7015,-131.1756
rg,1624908728979484977,1,0.0845,0.9158,0.509,751,15.7471,-0.4883,-10.498,82,1.1276,0.5072,11.9932,65.3776,31,0.8194,7686,3.7015,-131.4113
rg,1624908728979503218,1,0.0928,0.9185,0.4963,752,13.5498,-0.4883,-10.6812,82,1.1276,0.5072,11.7053,65.7116,31,0.8194,7583,3.7015,-131.6437
rg,1624908728979520310,1,0.1296,0.9058,0.4568,753,6.4697,-0.6714,-10.5591,82,1.1266,0.5072,11.3382,65.8164,31,0.8194,7709,3.7015,-131.866
rg,1624908728979538217,1,0.1216,0.8953,0.4565,754,2.6245,0.7324,-10.2539,82,1.1276,0.5072,11.0475,65.7758,31,0.8184,7640,3.7015,-132.0299
rg,1624908728979556310,1,0.095,0.8594,0.4167,755,-5.4321,1.8921,-8.9111,82,1.1266,0.5072,10.7473,65.4641,31,0.8184,7762,3.7015,-132.1201
rg,1624908728979588643,1,0.0859,0.8188,0.4243,756,-11.9629,1.4648,-8.3008,82,1.1266,0.5072,10.4416,64.842,31,0.8184,7633,3.7015,-132.2256
rg,1624908728979608180,1,0.0752,0.7622,0.4233,757,-15.8691,-0.3052,-7.9956,82,1.1266,0.5072,10.1212,64.0119,31,0.8184,7846,3.7015,-132.401
rg,1624908728979625921,1,0.0791,0.7441,0.4275,758,-16.4185,-1.709,-8.4229,82,1.1266,0.5072,9.7892,63.1272,31,0.8194,7710,3.7015,-132.6421
rg,1624908728979644069,1,0.073,0.7026,0.4355,759,-17.5171,-2.0752,-9.5215,82,1.1266,0.5072,9.5075,62.1756,31,0.8194,9446,3.7015,-132.9229
rg,1624908728979661328,1,0.0583,0.6694,0.4514,760,-16.3574,-3.9673,-9.0942,82,1.1266,0.5072,9.2177,61.2113,31,0.8194,7755,3.7015,-133.2757
rg,1624908728979678587,1,0.0613,0.6702,0.4585,761,-13.1836,-5.4932,-9.0942,82,1.1266,0.5082,8.9096,60.5345,31,0.8194,7993,3.7015,-133.7679
rg,1624908728979695772,1,0.0842,0.6597,0.467,762,-5.9204,-9.6436,-10.6812,82,1.1276,0.5082,8.5084,59.9692,31,0.8194,7901,3.7015,-134.3543
rg,1624908728979712439,1,0.0833,0.6689,0.4758,763,3.2349,-9.6436,-14.2212,82,1.1266,0.5072,8.2472,59.7793,31,0.8194,7989,3.7015,-135.0107
rg,1624908728979729568,1,0.1328,0.6914,0.5203,764,12.7563,-12.085,-16.1133,82,1.1276,0.5072,7.9005,59.9038,31,0.8194,7875,3.7015,-135.7981
rg,1624908728979746679,1,0.1799,0.7329,0.5486,765,18.1274,-12.2681,-18.1885,82,1.1266,0.5072,7.5476,60.2439,31,0.8194,8047,3.7015,-136.6308
rg,1624908728979763753,1,0.2974,0.8225,0.6052,766,28.3203,-8.1177,-25.2075,82,1.1266,0.5072,7.3513,61.0069,31,0.8204,7863,3.7015,-137.4514
rg,1624908728979781587,1,0.4614,0.9272,0.6621,767,33.8745,-2.9297,-27.71,82,1.1276,0.5072,7.402,62.2257,31,0.8194,8095,3.7015,-137.9485
rg,1624908728979881938,1,0.5127,0.9707,0.6987,768,42.1143,14.0991,-35.0342,82,1.1276,0.5072,7.7483,63.5836,31,0.8194,7954,3.7015,-138.1312
rg,1624908729325632040,1,0.2056,1.1086,0.5518,769,44.1284,67.3828,-48.7061,82,1.1266,0.5082,9.978,65.5788,31,0.8184,24414,3.7015,-136.517
rg,1624908729325669188,1,-0.0005,1.0713,0.4641,770,30.0903,65.3687,-40.0391,82,1.1276,0.5082,11.9475,66.8841,31,0.8184,14783,3.7015,-134.8321
rg,1624908729325716429,1,-0.1624,1.019,0.4058,771,14.2822,48.9502,-24.9023,82,1.1266,0.5072,13.4681,67.8181,31,0.8184,7427,3.7015,-133.3594
rg,1624908729325736373,1,-0.2222,0.9868,0.3787,772,-2.0142,22.8882,-6.2866,82,1.1266,0.5082,13.9754,67.955,31,0.8184,7550,3.7015,-132.5739
rg,1624908729325761410,1,-0.2109,0.9658,0.3801,773,-10.376,9.2773,1.709,82,1.1266,0.5082,13.9496,67.6405,31,0.8194,7393,3.7015,-132.1904
rg,1624908729325780966,1,-0.0964,0.9583,0.4167,774,-21.5454,-16.6016,12.5732,82,1.1266,0.5082,12.8867,66.6199,31,0.8194,7494,3.7015,-132.6316
rg,1624908729325799151,1,0.0039,0.9434,0.4504,775,-25.7568,-24.5972,14.6484,82,1.1266,0.5082,11.2263,65.1285,31,0.8204,8707,3.7015,-133.4205
rg,1624908729325817447,1,0.1526,0.9365,0.5254,776,-31.0669,-27.2217,13.2446,82,1.1266,0.5082,9.5304,63.5614,31,0.8194,7532,3.7015,-134.2125
rg,1624908729325834891,1,0.2583,0.9146,0.5686,777,-27.9541,-19.4702,6.2866,82,1.1266,0.5082,8.0662,62.1322,31,0.8204,7975,3.7015,-134.8229
rg,1624908729325852076,1,0.2971,0.9182,0.5742,778,-24.1089,-12.8174,1.5259,80,1.1276,0.5082,7.1646,61.0794,31,0.8204,9167,3.7015,-135.1559
rg,1624908729325868984,1,0.2759,0.8867,0.552,779,-14.5264,6.6528,-14.2212,80,1.1266,0.5082,6.9381,60.3663,31,0.8194,12045,3.7015,-135.2087
rg,1624908729325885539,1,0.2524,0.8789,0.5352,780,-9.5215,12.7563,-15.564,80,1.1266,0.5082,7.1185,60.1513,31,0.8194,7686,3.7015,-134.9562
rg,1624908729325902224,1,0.2068,0.864,0.4839,781,-3.7231,19.9585,-17.6392,80,1.1266,0.5082,7.3866,60.0568,31,0.8204,7635,3.7015,-134.6059
rg,1624908729325919113,1,0.126,0.8545,0.459,782,-1.5259,23.9258,-15.9302,80,1.1276,0.5082,7.8307,60.1188,31,0.8194,7746,3.7015,-134.078
rg,1624908729325936039,1,0.0911,0.8545,0.4329,783,-0.4883,23.4375,-13.916,80,1.1266,0.5082,8.2531,60.2823,31,0.8194,7656,3.7015,-133.5175
rg,1624908729325952816,1,0.0791,0.8508,0.4478,784,-1.3428,13.855,-9.2773,80,1.1266,0.5082,8.3369,60.3373,31,0.8204,7770,3.7015,-133.2042
rg,1624908729325969483,1,0.1331,0.8599,0.458,785,-2.6245,9.7046,-7.4463,80,1.1276,0.5092,7.9718,60.299,31,0.8204,7821,3.7015,-133.0186
rg,1624908729325999316,1,0.1553,0.8567,0.4788,786,-4.0894,7.2021,-2.4414,80,1.1276,0.5092,7.5349,60.1703,31,0.8204,7770,3.7015,-132.8108
rg,1624908729326018131,1,0.1697,0.8655,0.5054,787,-4.5776,9.7656,-5.4321,80,1.1276,0.5092,7.2454,59.9868,31,0.8204,7694,3.7015,-132.5786
rg,1624908729326034816,1,0.1824,0.8672,0.5166,788,-3.9673,10.6201,-5.7373,80,1.1276,0.5092,6.9711,59.8169,31,0.8204,7847,3.7015,-132.3254
rg,1624908729326051464,1,0.1855,0.8733,0.5344,789,-2.8076,14.6484,-7.0801,80,1.1276,0.5092,6.8334,59.6856,31,0.8204,7726,3.7015,-131.9626
rg,1624908729326067816,1,0.1558,0.8726,0.5432,790,-0.8545,20.4468,-10.498,80,1.1276,0.5092,6.9985,59.6357,31,0.8204,7874,3.7015,-131.47
rg,1624908729326084890,1,0.135,0.8696,0.5452,791,-0.1831,22.0947,-12.3901,80,1.1276,0.5092,7.2989,59.6116,31,0.8214,7749,3.7015,-130.9597
rg,1624908729326101408,1,0.0986,0.8794,0.5439,792,0.8545,23.8647,-14.9536,80,1.1276,0.5092,7.79,59.6479,31,0.8214,7767,3.7015,-130.4382
rg,1624908729326117964,1,0.0916,0.8779,0.5542,793,1.9531,23.0103,-13.7329,80,1.1276,0.5092,8.2532,59.7482,31,0.8214,7822,3.7015,-129.9188
rg,1624908729326134278,1,0.0701,0.8936,0.551,794,1.4648,22.522,-13.6108,80,1.1276,0.5092,8.6957,59.8124,31,0.8214,7838,3.7015,-129.415
rg,1624908729326150352,1,0.0413,0.8984,0.5579,795,1.0376,20.2026,-14.0991,80,1.1276,0.5092,9.1528,59.8396,31,0.8214,8021,3.7015,-129.003
rg,1624908729326167001,1,0.0396,0.8899,0.5579,796,1.2817,18.0664,-13.4277,80,1.1276,0.5092,9.5292,59.8587,31,0.8214,7899,3.7015,-128.6539
rg,1624908729326183612,1,0.0425,0.8984,0.5583,797,0.7324,13.7939,-13.1836,80,1.1276,0.5102,9.7917,59.8417,31,0.8214,8046,3.7015,-128.4487
rg,1624908729326199741,1,0.0442,0.8923,0.5552,798,-1.0376,10.9253,-13.3057,80,1.1276,0.5092,9.987,59.7366,31,0.8214,9717,3.7015,-128.3475
rg,1624908729326272167,1,0.0632,0.8926,0.5581,799,-1.9531,6.6528,-11.7188,80,1.1276,0.5092,9.9949,59.5738,31,0.8214,8093,3.7015,-128.3655
rg,1624908729326293055,1,0.0684,0.8901,0.5549,800,-2.6855,5.0659,-11.2305,80,1.1276,0.5092,9.9424,59.3832,31,0.8214,8388,3.7015,-128.4289
rg,1624908729655183250,1,0.1128,0.8779,0.5527,801,-4.0894,0.8545,-12.7563,80,1.1276,0.5082,9.764,59.1038,31,0.8214,24824,3.7015,-128.6725
rg,1624908729655220306,1,0.1318,0.8831,0.5288,802,-4.3945,1.0986,-13.0005,80,1.1276,0.5092,9.5281,58.8628,31,0.8214,12250,3.7015,-128.9084
rg,1624908729655240509,1,0.144,0.8711,0.5349,803,-4.2725,1.4038,-13.7939,80,1.1276,0.5092,9.3412,58.6234,31,0.8214,7438,3.7015,-129.1499
rg,1624908729655260379,1,0.1448,0.8745,0.5166,804,-4.0894,2.3193,-13.916,80,1.1276,0.5092,9.1804,58.4451,31,0.8214,7461,3.7037,-129.3564
rg,1624908729655279694,1,0.1436,0.8726,0.5276,805,-3.6011,3.6621,-14.5874,80,1.1276,0.5092,9.0744,58.2554,31,0.8214,7301,3.7037,-129.5382
rg,1624908729655298138,1,0.1499,0.8621,0.5156,806,-3.1128,3.479,-12.9395,80,1.1276,0.5102,8.8996,58.1282,31,0.8214,8343,3.7037,-129.6871
rg,1624908729655316083,1,0.1648,0.8599,0.5146,807,-3.1738,5.3101,-14.0381,80,1.1276,0.5092,8.7747,58.0093,31,0.8214,7498,3.7037,-129.7967
rg,1624908729655333601,1,0.158,0.8643,0.5151,808,-3.1128,5.6152,-13.7939,80,1.1276,0.5102,8.6724,57.9122,31,0.8214,8750,3.7037,-129.8333
rg,1624908729655350527,1,0.1577,0.8613,0.5144,809,-1.709,7.019,-13.3057,80,1.1276,0.5102,8.5823,57.8738,31,0.8214,7389,3.7037,-129.8694
rg,1624908729655367212,1,0.1467,0.8589,0.5208,810,-1.8311,7.4463,-12.5122,80,1.1276,0.5092,8.5013,57.8216,31,0.8214,7630,3.7037,-129.8764
rg,1624908729655383434,1,0.1501,0.8535,0.5215,811,-1.3428,8.9111,-13.5498,80,1.1276,0.5102,8.481,57.7873,31,0.8224,7424,3.7037,-129.8569
rg,1624908729655399953,1,0.1438,0.8542,0.5183,812,-0.4272,9.0332,-11.9019,80,1.1276,0.5102,8.4216,57.8036,31,0.8214,7669,3.7037,-129.797
rg,1624908729655416379,1,0.1487,0.8557,0.5195,813,-0.3052,9.8877,-12.4512,80,1.1276,0.5102,8.3912,57.8261,31,0.8214,7472,3.7037,-129.7196
rg,1624908729655432638,1,0.146,0.8555,0.5308,814,-0.3662,10.3149,-12.3291,80,1.1276,0.5092,8.3741,57.8258,31,0.8214,7497,3.7037,-129.6281
rg,1624908729655472193,1,0.1411,0.8608,0.5322,815,-0.2441,11.3525,-13.6108,80,1.1276,0.5092,8.4481,57.8323,31,0.8214,7541,3.7037,-129.5284
rg,1624908729655491952,1,0.1387,0.8645,0.5361,816,0.1221,10.8643,-13.5498,80,1.1286,0.5092,8.5001,57.8507,31,0.8214,8454,3.7037,-129.4442
rg,1624908729655510119,1,0.1436,0.8572,0.5435,817,0.4272,10.6812,-13.0005,80,1.1286,0.5102,8.5168,57.8589,31,0.8214,9220,3.7037,-129.3577
rg,1624908729655527915,1,0.1458,0.8667,0.5581,818,0.061,10.0708,-12.4512,80,1.1276,0.5102,8.5324,57.8374,31,0.8214,7636,3.7037,-129.2646
rg,1624908729655544656,1,0.1448,0.8586,0.5549,819,0.3052,10.437,-13.0615,80,1.1276,0.5102,8.5443,57.82,31,0.8214,7652,3.7037,-129.1908
rg,1624908729655560970,1,0.1438,0.8599,0.5566,820,0.061,10.8032,-13.2446,80,1.1276,0.5102,8.5722,57.793,31,0.8214,7630,3.7037,-129.1087
rg,1624908729655577507,1,0.1482,0.864,0.5559,821,-0.061,10.6201,-13.4277,80,1.1276,0.5102,8.5932,57.7672,31,0.8214,7713,3.7037,-129.036
rg,1624908729655595118,1,0.1543,0.8682,0.5542,822,-0.061,9.8267,-13.1836,80,1.1276,0.5102,8.5765,57.7472,31,0.8214,7714,3.7037,-128.9842
rg,1624908729655611803,1,0.1543,0.863,0.5527,823,-0.1221,10.5591,-13.3057,80,1.1286,0.5102,8.5414,57.7153,31,0.8224,7705,3.7037,-128.9146
rg,1624908729655629118,1,0.1565,0.8633,0.5479,824,-0.6714,10.2539,-11.4746,80,1.1286,0.5102,8.4712,57.6866,31,0.8224,7780,3.7037,-128.8107
rg,1624908729655646377,1,0.1519,0.8677,0.5547,825,-0.061,11.1694,-12.207,80,1.1276,0.5092,8.4597,57.6779,31,0.8214,7807,3.7037,-128.6926
rg,1624908729655662951,1,0.1548,0.8728,0.5579,826,-0.2441,12.2681,-12.8784,80,1.1276,0.5102,8.4904,57.6659,31,0.8214,7794,3.7037,-128.5513
rg,1624908729655679507,1,0.1465,0.8687,0.5566,827,0,12.5122,-11.7798,80,1.1276,0.5092,8.504,57.6662,31,0.8214,7831,3.7037,-128.3785
rg,1624908729655696266,1,0.1426,0.8677,0.5508,828,-0.4272,13.6108,-13.7939,80,1.1276,0.5102,8.6153,57.6585,31,0.8214,8367,3.7037,-128.21
rg,1624908729655712858,1,0.1221,0.8726,0.5635,829,0.061,12.4512,-12.5732,80,1.1286,0.5092,8.702,57.651,30,0.8214,7883,3.7037,-128.0578
rg,1624908729655742266,1,0.1226,0.8708,0.5439,830,0.3662,13.9771,-14.9536,80,1.1286,0.5092,8.8942,57.6908,30,0.8214,7900,3.7037,-127.8993
rg,1624908729655760043,1,0.1157,0.8621,0.5386,831,0.5493,12.3901,-13.6108,80,1.1286,0.5092,8.9819,57.7305,30,0.8214,7897,3.7037,-127.7963
rg,1624908729655776562,1,0.1089,0.8611,0.5425,832,0.4883,12.207,-15.0757,80,1.1286,0.5092,9.1567,57.7541,30,0.8214,7910,3.7037,-127.7019
rg,1624908729993743041,1,0.1335,0.8792,0.5439,833,1.2207,10.498,-13.1836,80,1.1276,0.5092,9.1766,57.8221,31,0.8214,24576,3.7037,-127.6222
rg,1624908729993855318,1,0.1345,0.8733,0.5479,834,1.1597,10.498,-13.4888,80,1.1276,0.5102,9.2032,57.8698,31,0.8214,13624,3.7037,-127.551
rg,1624908729993930003,1,0.1572,0.8789,0.5479,835,1.0376,10.2539,-12.7563,80,1.1276,0.5102,9.1534,57.9186,31,0.8214,9363,3.7037,-127.4709
rg,1624908729993966021,1,0.1492,0.8684,0.5449,836,0.9766,11.5356,-12.7563,80,1.1286,0.5102,9.1459,57.9633,31,0.8214,7480,3.7037,-127.3477
rg,1624908729993998595,1,0.1584,0.8713,0.5464,837,1.2207,11.3525,-12.8174,80,1.1276,0.5102,9.1187,58.0154,31,0.8214,7372,3.7037,-127.2317
rg,1624908729994034206,1,0.1597,0.8748,0.5383,838,1.1597,13.0005,-14.2212,80,1.1286,0.5092,9.1716,58.0866,31,0.8214,7392,3.7037,-127.0855
rg,1624908729994069835,1,0.1646,0.8542,0.5396,839,1.2817,12.207,-12.0239,80,1.1286,0.5092,9.1263,58.1348,31,0.8214,8096,3.7037,-126.9239
rg,1624908729994101483,1,0.1499,0.855,0.55,840,1.3428,13.0615,-13.0615,80,1.1276,0.5102,9.1577,58.1675,31,0.8214,8100,3.7037,-126.7574
rg,1624908729994130964,1,0.1487,0.8589,0.5364,841,1.4648,13.2446,-13.855,80,1.1286,0.5102,9.22,58.2328,31,0.8214,7649,3.7037,-126.5964
rg,1624908729994159761,1,0.1587,0.8584,0.5273,842,1.8311,14.0381,-13.7939,80,1.1286,0.5102,9.2716,58.3319,31,0.8214,7485,3.7037,-126.4034
rg,1624908729994189760,1,0.1538,0.866,0.5381,843,1.8311,13.6719,-13.1226,80,1.1286,0.5102,9.3043,58.416,31,0.8214,7638,3.7037,-126.2101
rg,1624908729994218760,1,0.1396,0.8606,0.5376,844,2.2583,14.0991,-13.6108,80,1.1286,0.5102,9.3891,58.5094,31,0.8214,7519,3.7037,-126.0127
rg,1624908729994281852,1,0.1396,0.8616,0.5408,845,2.1973,14.5874,-13.0005,80,1.1286,0.5112,9.4605,58.5971,31,0.8214,7685,3.7037,-125.7856
rg,1624908729994316797,1,0.1375,0.8594,0.5481,846,2.5635,14.7705,-13.4277,80,1.1286,0.5102,9.5748,58.6859,31,0.8204,7612,3.7037,-125.5685
rg,1624908729994345871,1,0.1355,0.8752,0.5437,847,2.6855,15.564,-14.5264,80,1.1286,0.5102,9.7226,58.7982,31,0.8214,7735,3.7037,-125.3366
rg,1624908729994375056,1,0.1211,0.865,0.5535,848,2.8687,14.5874,-14.0381,80,1.1286,0.5102,9.8569,58.8794,31,0.8214,7648,3.7037,-125.1328
rg,1624908729994403611,1,0.1211,0.8628,0.5457,849,2.8076,14.8315,-13.6719,80,1.1286,0.5102,9.9768,58.9706,31,0.8214,7816,3.7037,-124.9103
rg,1624908729994431185,1,0.1104,0.8713,0.5352,850,2.9907,13.6108,-14.0381,80,1.1286,0.5102,10.1023,59.0874,31,0.8214,7633,3.7037,-124.7322
rg,1624908729994459537,1,0.115,0.8777,0.5466,851,2.9297,14.2822,-15.564,80,1.1286,0.5102,10.2963,59.201,31,0.8204,7854,3.7037,-124.5529
rg,1624908729994489314,1,0.1128,0.8765,0.554,852,2.7466,12.6343,-15.1367,80,1.1286,0.5102,10.4248,59.2605,31,0.8204,11651,3.7037,-124.4356
rg,1624908729994518999,1,0.1108,0.8831,0.5427,853,2.5024,12.2681,-14.4043,80,1.1286,0.5102,10.528,59.3162,31,0.8214,7868,3.7037,-124.3144
rg,1624908729994548055,1,0.1094,0.8914,0.5479,854,2.5024,11.5356,-14.7705,80,1.1286,0.5102,10.6216,59.3852,31,0.8204,7739,3.7037,-124.2223
rg,1624908729994578629,1,0.1196,0.8828,0.54,855,2.5635,10.7422,-14.0381,80,1.1276,0.5102,10.6466,59.4567,31,0.8204,7948,3.7037,-124.1416
rg,1624908729994610258,1,0.1055,0.8813,0.5369,856,1.77,10.437,-14.3433,80,1.1276,0.5102,10.7211,59.5072,31,0.8204,9234,3.7037,-124.0903
rg,1624908729994641869,1,0.1094,0.8787,0.5488,857,2.1973,10.498,-15.2588,80,1.1286,0.5102,10.8009,59.5317,31,0.8204,9000,3.7037,-124.0468
rg,1624908729994674480,1,0.1167,0.8792,0.5459,858,2.3193,9.3994,-13.855,80,1.1286,0.5102,10.7918,59.5646,31,0.8204,7888,3.7037,-124.0119
rg,1624908729994713239,1,0.1211,0.8794,0.5342,859,2.8076,9.0942,-13.6108,80,1.1286,0.5102,10.7579,59.6373,31,0.8204,8142,3.7037,-123.9783
rg,1624908729994795016,1,0.1184,0.8848,0.5308,860,2.1973,10.0708,-14.9536,80,1.1286,0.5102,10.7973,59.6968,31,0.8204,7879,3.7037,-123.935
rg,1624908729994831312,1,0.1277,0.8779,0.5398,861,1.8921,8.9111,-14.2212,80,1.1286,0.5102,10.7673,59.712,31,0.8204,8116,3.7037,-123.9221
rg,1624908729994859312,1,0.1267,0.8794,0.5303,862,1.5869,9.7656,-14.6484,80,1.1286,0.5102,10.7606,59.7372,31,0.8204,7947,3.7037,-123.8632
rg,1624908729994890460,1,0.1262,0.8748,0.5388,863,1.4648,10.8643,-15.564,80,1.1286,0.5102,10.8196,59.7396,31,0.8204,8150,3.7037,-123.8089
rg,1624908729994921497,1,0.123,0.8789,0.5486,864,1.5869,10.8032,-15.1367,80,1.1286,0.5102,10.8691,59.7345,31,0.8204,8001,3.7037,-123.7508
rg,1624908730363477337,1,0.1238,0.8757,0.5483,865,1.77,11.5967,-14.1602,80,1.1286,0.5102,10.8968,59.7426,31,0.8204,24523,3.7037,-123.6454
