name,time,activity,ax,ay,az,batch_val,gx,gy,gz,ibat,index,middle,pitch,roll,temp,thumb,ts,vbat,yaw
rg,1624907293563633805,1,0.5239,0.1892,0.7644,1,-28.9917,51.5747,-13.4277,54,1.1836,0.7133,-25.313,-46.6842,31,0.6433,19136,3.7829,-58.1656
rg,1624907293563683236,1,0.488,0.2224,0.7456,2,-27.1606,54.8096,-16.0522,54,1.1836,0.7123,-24.9623,-44.9047,31,0.6463,8187,3.7829,-61.237
rg,1624907293563705236,1,0.4773,0.2253,0.7471,3,-29.0527,56.5186,-18.2495,54,1.1846,0.7133,-24.5288,-43.2031,31,0.6483,7497,3.7829,-64.3657
rg,1624907293563726282,1,0.4341,0.1833,0.783,4,-34.4849,59.8145,-18.4326,54,1.1846,0.7133,-23.784,-41.772,31,0.6503,7615,3.7829,-67.5129
rg,1624907293563745768,1,0.4077,0.1553,0.7942,5,-36.5601,62.8662,-17.7002,54,1.1856,0.7133,-22.7983,-40.5162,31,0.6523,7495,3.7829,-70.6249
rg,1624907293563764832,1,0.3396,0.1299,0.8091,6,-38.6353,65.918,-12.9395,54,1.1856,0.7133,-21.3892,-39.4725,31,0.6533,7680,3.7829,-73.5675
rg,1624907293563783089,1,0.3337,0.1033,0.8293,7,-37.4756,65.7349,-10.498,54,1.1856,0.7133,-19.9267,-38.6154,31,0.6543,7557,3.7829,-76.1361
rg,1624907293563803107,1,0.3591,0.0862,0.8801,8,-36.9873,58.7158,-7.5684,54,1.1856,0.7133,-18.7113,-37.9579,31,0.6553,9218,3.7829,-78.3793
rg,1624907293563821639,1,0.3723,0.0723,0.8882,9,-37.2314,52.4902,-7.0801,54,1.1856,0.7133,-17.5613,-37.4492,31,0.6563,7649,3.7829,-80.4572
rg,1624907293563844685,1,0.3667,0.0261,0.9302,10,-37.6587,52.3071,-7.9346,54,1.1856,0.7133,-16.3915,-37.0884,31,0.6563,7789,3.7829,-82.4767
rg,1624907293563866428,1,0.3411,-0.0005,0.9263,11,-35.6445,52.063,-8.2397,54,1.1856,0.7143,-15.2016,-36.7401,31,0.6573,7612,3.7829,-84.4369
rg,1624907293563889107,1,0.3313,-0.0242,0.959,12,-31.25,47.5464,-9.1553,54,1.1846,0.7133,-14.1512,-36.3232,31,0.6573,7803,3.7829,-86.2569
rg,1624907293563909511,1,0.3333,-0.0234,0.9629,13,-27.5879,45.9595,-9.0332,54,1.1856,0.7133,-13.1712,-35.8172,31,0.6573,7668,3.7829,-87.9897
rg,1624907293563933823,1,0.3154,-0.0105,0.9456,14,-26.062,47.4243,-10.376,54,1.1856,0.7143,-12.1706,-35.2542,31,0.6583,7885,3.7829,-89.7646
rg,1624907293563959199,1,0.2998,0.0295,0.9265,15,-26.4893,44.7998,-10.5591,54,1.1856,0.7133,-11.2671,-34.6894,31,0.6583,7678,3.7829,-91.456
rg,1624907293563982354,1,0.3335,0.0342,0.9363,16,-27.832,43.335,-11.1084,54,1.1856,0.7133,-10.5606,-34.3049,31,0.6583,7872,3.7829,-93.0865
rg,1624907293564002905,1,0.356,0.0469,0.9436,17,-32.7148,44.0063,-14.6484,54,1.1866,0.7143,-9.9137,-34.0336,31,0.6583,7743,3.7829,-94.8303
rg,1624907293564025657,1,0.3489,0.0393,0.946,18,-37.5366,47.5464,-17.5171,54,1.1866,0.7133,-9.2117,-33.9651,31,0.6593,7941,3.7829,-96.7251
rg,1624907293564047914,1,0.3374,0.0327,0.9663,19,-41.2598,48.9502,-18.1885,54,1.1876,0.7143,-8.4619,-34.0679,31,0.6593,7769,3.7829,-98.6531
rg,1624907293564066886,1,0.2947,0.0059,0.9849,20,-46.2646,52.6733,-19.3481,54,1.1876,0.7143,-7.5421,-34.4085,31,0.6593,7970,3.7829,-100.6836
rg,1624907293564086941,1,0.2856,0.0105,0.9919,21,-48.7061,54.0161,-18.3716,54,1.1876,0.7133,-6.5776,-34.856,31,0.6603,7855,3.7829,-102.6998
rg,1624907293564104923,1,0.2749,-0.0071,0.9951,22,-50.2319,53.833,-18.6157,54,1.1886,0.7133,-5.6465,-35.4097,31,0.6603,8016,3.7829,-104.7044
rg,1624907293564125987,1,0.2849,-0.0042,0.9807,23,-52.4902,52.1851,-17.2119,54,1.1886,0.7143,-4.8167,-36.0731,31,0.6603,7857,3.7829,-106.6164
rg,1624907293564147822,1,0.2473,-0.0439,0.9895,24,-54.2603,51.9409,-18.6157,54,1.1886,0.7143,-3.9899,-36.869,31,0.6603,8059,3.7829,-108.5599
rg,1624907293564167712,1,0.2341,-0.0647,0.9998,25,-53.6499,49.7437,-17.6392,54,1.1886,0.7143,-3.2278,-37.6784,31,0.6613,7963,3.7829,-110.4156
rg,1624907293564186372,1,0.2437,-0.0894,1.0107,26,-52.7954,44.4336,-18.4937,54,1.1886,0.7143,-2.7163,-38.4974,31,0.6613,8088,3.7829,-112.1643
rg,1624907293564316427,1,0.2627,-0.0847,0.9817,27,-51.5747,41.3818,-18.0054,54,1.1886,0.7133,-2.3831,-39.2621,31,0.6613,7979,3.7829,-113.8233
rg,1624907293564368390,1,0.2632,-0.0891,0.9778,28,-52.7954,39.978,-18.0664,54,1.1886,0.7133,-2.1307,-40.0698,31,0.6613,8625,3.7829,-115.4524
rg,1624907293564386702,1,-0.3147,-0.2261,0.7371,29,2.5635,-4.6387,-18.9209,137,1.0785,0.5903,-1.8264,-39.1216,31,0.7314,14322,3.7543,-115.9376
rg,1624907293564405876,1,0.4954,-0.4192,0.8928,30,-17.5781,-24.1699,-3.7842,137,1.0795,0.5913,-3.6223,-39.3472,31,0.7354,8431,3.7543,-115.4572
rg,1624907293564423784,1,0.2568,-0.2605,0.7588,31,-24.9023,6.897,-7.7515,137,1.0815,0.5933,-2.9662,-39.793,31,0.7374,8389,3.7543,-117.0513
rg,1624907293564442335,1,-0.0027,-0.3467,0.7754,32,-42.2974,65.3076,-9.0332,137,1.0835,0.5953,-1.0972,-40.7866,31,0.7404,8340,3.7543,-119.0541
rg,1624907293891603220,1,-0.2502,-0.9094,1.0183,33,-21.9727,56.7017,-0.061,137,1.0895,0.6043,0.8835,-41.0171,31,0.7514,26358,3.7543,-120.3363
rg,1624907293891644119,1,-0.0718,-0.8726,1.0024,34,36.9263,29.6021,-0.6104,137,1.0925,0.6093,1.8533,-39.5534,31,0.7524,11418,3.7543,-121.1211
rg,1624907293891664596,1,0.2102,-0.8779,0.9717,35,78.3691,38.6963,-8.0566,137,1.0965,0.6133,2.4355,-36.5632,31,0.7494,7721,3.7543,-122.3468
rg,1624907293891683844,1,0.3306,-0.8267,0.9429,36,97.168,54.9927,-13.916,137,1.1005,0.6173,3.2466,-32.945,31,0.7424,7641,3.7543,-124.0919
rg,1624907293891703183,1,-0.0532,-0.6633,0.8462,37,112.7319,91.1865,-40.8936,137,1.1045,0.6223,5.5035,-28.8972,31,0.7324,7822,3.7543,-127.3911
rg,1624907293891721550,1,-0.3633,-0.5884,0.8271,38,110.9619,93.9331,-46.3867,137,1.1055,0.6263,9.3418,-24.9412,31,0.7204,7751,3.7543,-130.7278
rg,1624907293891738853,1,-1.0608,-0.2097,0.5818,39,85.4492,52.1851,-37.1094,137,1.1065,0.6293,12.403,-21.8389,31,0.7153,9286,3.7543,-132.8905
rg,1624907293891755587,1,-1.0288,-0.2405,0.7432,40,20.6909,-55.2368,-8.1177,137,1.1075,0.6313,11.7011,-20.8043,31,0.7174,7784,3.7543,-132.3383
rg,1624907293891771972,1,-0.0435,-0.5596,0.9702,41,-4.0283,-111.3892,1.0986,137,1.1065,0.6323,6.0989,-21.3785,31,0.7244,7973,3.7543,-129.9894
rg,1624907293891788944,1,0.3169,-0.4204,0.8801,42,-21.2402,-142.6392,10.7422,137,1.1055,0.6313,0.061,-22.2404,31,0.7344,7766,3.7543,-127.4749
rg,1624907293891805201,1,0.5549,-0.4519,0.9382,43,-49.3774,-87.3413,1.1597,137,1.1025,0.6293,-4.1819,-24.3774,31,0.7434,7950,3.7543,-126.0275
rg,1624907293891821935,1,0.5264,-0.4856,0.9402,44,-59.6924,-54.1382,2.0752,137,1.0965,0.6193,-5.8928,-27.3961,31,0.7494,7880,3.7543,-125.4276
rg,1624907293891838339,1,0.3779,-0.5186,0.8628,45,-91.4917,-3.418,-3.0518,137,1.0835,0.6053,-6.6444,-31.169,31,0.7434,8014,3.7543,-125.4357
rg,1624907293891854816,1,-0.0032,-0.4958,1.1045,46,-106.3232,32.6538,-8.4229,137,1.0775,0.5933,-5.4732,-35.0161,31,0.7414,10191,3.7543,-126.4797
rg,1624907293891871733,1,0.4094,-0.3547,0.6016,47,-23.6206,40.7104,6.8359,137,1.0775,0.5923,-4.9475,-35.7315,31,0.7434,8082,3.7543,-127.2167
rg,1624907293891911494,1,0.2,-0.448,0.8274,48,-33.2642,68.6035,-4.3335,137,1.0785,0.5923,-1.8031,-36.4069,31,0.7464,7946,3.7543,-129.612
rg,1624907293891931384,1,-0.1667,-0.4404,0.7673,49,-1.6479,37.5977,-20.3247,137,1.0795,0.5903,-0.5874,-36.1769,31,0.7504,8180,3.7543,-131.1655
rg,1624907293891948944,1,0.1311,-0.5374,0.877,50,-10.437,23.4985,-14.4043,137,1.0805,0.5913,-0.438,-36.3914,31,0.7544,7964,3.7543,-132.189
rg,1624907293891966540,1,0.0283,-0.4077,0.7993,51,-16.6626,31.6162,-17.8223,137,1.0825,0.5923,0.4472,-36.5341,31,0.7564,8479,3.7543,-133.9858
rg,1624907293891983898,1,-0.0583,-0.4548,0.813,52,-26.6113,43.8843,-25.3906,137,1.0855,0.5953,1.3579,-37.3275,31,0.7594,8247,3.7543,-135.8523
rg,1624907293892001017,1,-0.0505,-0.5725,0.8674,53,-30.7007,40.9546,-27.0996,137,1.0875,0.5973,2.0355,-38.4437,31,0.7624,8123,3.7543,-137.7121
rg,1624907293892017421,1,-0.2166,-0.7126,0.9207,54,-28.1372,44.0674,-30.4565,137,1.0895,0.6003,2.9659,-39.6194,31,0.7654,8231,3.7543,-139.7728
rg,1624907293892056411,1,-0.2708,-0.8513,0.9956,55,-9.7046,28.2593,-25.5127,137,1.0915,0.6023,3.5181,-40.1179,31,0.7684,8116,3.7543,-141.2856
rg,1624907293892074833,1,-0.1941,-0.9287,1.021,56,4.9438,19.4702,-24.231,137,1.0935,0.6053,3.4712,-40.0956,31,0.7694,8268,3.7543,-142.537
rg,1624907293892092741,1,0.0486,-0.9248,1.0183,57,56.8848,12.5122,-22.522,154,1.0975,0.6103,3.0734,-37.9601,31,0.7694,8133,3.7301,-143.5622
rg,1624907293892152099,1,0.3145,-0.8159,0.936,58,109.1919,38.3301,-28.6865,154,1.1035,0.6163,2.9642,-33.8146,31,0.7644,8319,3.7301,-145.4248
rg,1624907293892173053,1,0.0967,-0.6445,0.804,59,126.5259,61.2183,-33.6304,154,1.1065,0.6213,4.4524,-28.9562,31,0.7544,8229,3.7301,-148.7418
rg,1624907293892193145,1,-0.1592,-0.5776,0.7883,60,130.249,90.0269,-56.3354,154,1.1085,0.6263,6.8333,-24.4,31,0.7404,8390,3.7301,-152.4016
rg,1624907293892211071,1,-0.6682,-0.3547,0.7207,61,113.2202,72.4487,-54.5044,154,1.1095,0.6293,9.8995,-20.3901,31,0.7264,8210,3.7301,-155.5139
rg,1624907293892229732,1,-1.0059,-0.064,0.613,62,68.1152,7.8735,-34.3018,154,1.1095,0.6313,11.4522,-17.6272,31,0.7174,8413,3.7301,-156.8409
rg,1624907293892247328,1,-0.9463,-0.0701,0.7336,63,35.3394,-42.2363,-20.6909,154,1.1105,0.6333,10.7209,-16.2018,31,0.7174,8343,3.7301,-157.115
rg,1624907293892266722,1,-0.3245,-0.3552,0.938,64,-24.1699,-133.3618,-1.8311,154,1.1115,0.6343,5.8943,-17.1209,31,0.7264,8481,3.7301,-155.6702
rg,1624907294242505669,1,0.6089,-0.6035,0.9915,65,-108.5815,-55.4199,9.6436,154,1.0885,0.6043,3.8473,-22.2973,31,0.7414,25832,3.7301,-155.1869
rg,1624907294242543249,1,0.3225,-0.416,1.3064,66,-100.708,3.9673,0.9766,154,1.0825,0.5923,3.3416,-26.1279,31,0.7394,8614,3.7301,-155.1826
rg,1624907294242563921,1,0.9617,-0.5071,0.8108,67,-23.2544,24.7803,28.2593,154,1.0815,0.5913,3.0326,-27.1829,31,0.7414,7770,3.7301,-154.6145
rg,1624907294242584042,1,0.2239,-0.2051,0.7815,68,-6.7139,74.2798,-24.5972,154,1.0795,0.5903,4.4986,-27.118,31,0.7454,9573,3.7301,-156.8295
rg,1624907294242602474,1,-0.4202,-0.4314,0.8225,69,1.5869,49.9878,-32.4707,154,1.0805,0.5903,6.4447,-27.2667,31,0.7484,9433,3.7301,-158.9103
rg,1624907294242620319,1,0.2134,-0.5681,0.9858,70,-6.2256,1.2207,-11.8408,154,1.0805,0.5913,5.6026,-27.6598,31,0.7504,7865,3.7301,-159.3651
rg,1624907294242637998,1,0.4238,-0.3167,0.7805,71,-3.1738,10.498,-12.4512,154,1.0815,0.5933,4.8133,-27.5131,32,0.7514,7899,3.7301,-159.9739
rg,1624907294242654759,1,0.054,-0.3464,0.8022,72,-24.4141,57.8003,-17.7002,154,1.0825,0.5953,6.184,-28.4792,32,0.7524,7743,3.7301,-161.6779
rg,1624907294242672659,1,-0.3015,-0.6511,0.9263,73,-36.377,47.0581,-20.5078,154,1.0825,0.5973,7.7567,-30.3786,32,0.7544,8687,3.7301,-163.3633
rg,1624907294242691256,1,-0.2734,-0.728,0.9517,74,-30.8838,27.5879,-18.8599,154,1.0855,0.5993,8.0399,-31.7273,32,0.7564,8269,3.7301,-164.201
rg,1624907294242708660,1,-0.1472,-0.8811,1.0142,75,-10.8032,10.437,-9.9487,154,1.0875,0.6003,8.111,-32.5959,31,0.7604,7993,3.7301,-164.8162
rg,1624907294242725844,1,0.0586,-0.9626,1.0435,76,27.8931,2.5024,-5.5542,154,1.0905,0.6033,7.6675,-31.9106,31,0.7634,7889,3.7301,-165.119
rg,1624907294242742495,1,0.1604,-0.9285,1.0461,77,52.8564,5.9204,-5.9814,154,1.0955,0.6073,7.1096,-30.1928,31,0.7654,7920,3.7301,-165.5064
rg,1624907294242759073,1,0.3008,-0.886,0.9536,78,105.3467,35.4004,-7.9956,154,1.1015,0.6133,7.4251,-26.6003,31,0.7644,7934,3.7301,-166.5564
rg,1624907294242775614,1,0.3972,-0.7668,0.8311,79,138.6719,77.2095,-22.522,154,1.1065,0.6193,8.8486,-21.9717,31,0.7574,7903,3.7301,-168.7906
rg,1624907294242792834,1,0.167,-0.6768,0.8198,80,143.2495,100.0366,-37.3535,154,1.1085,0.6233,11.4202,-17.4426,31,0.7464,8097,3.7301,-171.7243
rg,1624907294242809688,1,-0.5664,-0.335,0.6233,81,134.8267,110.5347,-47.0581,154,1.1085,0.6263,16.21,-13.1322,31,0.7324,7959,3.7301,-174.8182
rg,1624907294242826651,1,-1.1831,0.0718,0.5654,82,77.3315,43.1519,-23.8037,154,1.1095,0.6283,19.3962,-10.0847,31,0.7234,8203,3.7301,-176.0121
rg,1624907294242843816,1,-1.1489,-0.0664,0.625,83,27.832,-26.3672,-13.9771,154,1.1125,0.6313,18.9989,-9.592,31,0.7284,8070,3.7301,-176.5641
rg,1624907294242860963,1,-0.3367,-0.5476,1.0566,84,-27.5879,-128.3569,6.6528,154,1.1135,0.6323,13.9178,-11.0341,31,0.7384,8250,3.7301,-175.5567
rg,1624907294242877945,1,0.3015,-0.3457,0.8652,85,-44.8608,-137.8784,20.9961,154,1.1125,0.6313,7.5328,-12.8528,31,0.7514,8087,3.7301,-173.6384
rg,1624907294242895110,1,0.6384,-0.4336,0.96,86,-60.0586,-121.3379,23.0713,154,1.1095,0.6263,1.6364,-15.6377,31,0.7594,8091,3.7301,-171.5829
rg,1624907294242955437,1,0.7427,-0.6287,1.0134,87,-70.7397,-40.8325,18.9819,154,1.1005,0.6143,-0.9414,-18.9825,31,0.7594,8278,3.7301,-170.3513
rg,1624907294242978972,1,0.5244,-0.2285,0.792,88,-65.7959,16.2964,3.9062,154,1.0895,0.6023,-1.4619,-21.5039,31,0.7514,8172,3.7301,-170.4078
rg,1624907294242998506,1,0.4832,-0.3247,0.7915,89,-28.1372,57.9224,11.9019,154,1.0915,0.6003,-0.2074,-22.6424,31,0.7544,10294,3.7301,-170.8303
rg,1624907294243019949,1,-0.103,-0.3225,0.8577,90,-30.2124,69.8853,-18.4937,154,1.0915,0.6003,2.3211,-23.794,31,0.7574,8398,3.7301,-172.6175
rg,1624907294243038032,1,-0.3723,-0.4946,0.9524,91,-27.0386,64.4531,-19.5923,154,1.0935,0.5993,4.9891,-25.1172,32,0.7614,8254,3.7301,-174.416
rg,1624907294243055161,1,0.0349,-0.4419,0.9309,92,-27.2217,27.5269,-6.3477,154,1.0955,0.6003,5.5923,-26.2724,32,0.7654,8443,3.7301,-175.1245
rg,1624907294243074070,1,0.1606,-0.5042,0.9426,93,-36.5601,44.3726,-8.728,154,1.0975,0.6013,6.4511,-27.9145,32,0.7674,8815,3.7301,-176.2513
rg,1624907294243090115,1,-0.0322,-0.4175,0.8052,94,-41.8701,63.3545,-15.1367,154,1.0995,0.6033,8.1925,-29.7816,32,0.7704,8439,3.7301,-178.0158
rg,1624907294243107428,1,-0.1648,-0.5256,0.8484,95,-50.0488,66.5283,-17.2729,154,1.1015,0.6053,10.1527,-32.1658,31,0.7724,8301,3.7301,-180.0171
rg,1624907294243124630,1,-0.397,-0.801,0.9749,96,-45.7153,49.9878,-18.0664,154,1.1035,0.6093,11.7047,-34.5888,31,0.7754,8548,3.7301,-181.8078
rg,1624907294593296036,1,0.1858,-0.9678,1.0237,97,66.3452,23.1323,-10.7422,154,1.1145,0.6223,11.7118,-31.3479,31,0.7714,25901,3.7301,-183.121
rg,1624907294593336756,1,0.23,-0.6294,0.7876,98,120.1172,92.1631,-35.7056,154,1.1165,0.6263,13.2655,-27.5234,31,0.7614,8511,3.7301,-186.3433
rg,1624907294593358052,1,-0.0984,-0.5981,0.7893,99,117.6147,108.0933,-47.2412,154,1.1165,0.6293,16.0215,-24.1573,31,0.7454,7696,3.7301,169.8523
rg,1624907294593378063,1,-0.6372,-0.5349,0.7595,100,106.2012,93.5059,-52.8564,154,1.1165,0.6323,19.3597,-21.3709,31,0.7264,8024,3.7301,166.2034
rg,1624907294593397468,1,-0.5984,-0.491,0.7874,101,97.4121,61.7676,-49.9878,154,1.1155,0.6333,20.273,-18.8322,31,0.7123,7684,3.7301,163.895
rg,1624907294593416028,1,-0.4939,-0.3684,0.7568,102,83.8623,0.6104,-39.978,154,1.1155,0.6363,20.2136,-16.3049,31,0.7003,7844,3.7301,162.184
rg,1624907294593467120,1,-0.4187,-0.063,0.6855,103,45.105,-26.8555,-22.8882,154,1.1165,0.6383,19.381,-14.3213,31,0.6973,7923,3.7301,161.6959
rg,1624907294593487425,1,-0.2522,-0.3865,0.9485,104,-11.3525,-63.9038,-12.085,154,1.1175,0.6383,16.578,-15.0272,31,0.7013,7934,3.7301,161.7841
rg,1624907294593506041,1,-0.2495,-0.2639,0.8984,105,-23.0713,-71.3501,-5.188,154,1.1175,0.6383,13.7132,-15.8443,31,0.7093,7792,3.7301,162.3528
rg,1624907294593523683,1,-0.0913,-0.2112,0.9336,106,-62.8662,-91.1255,9.4604,154,1.1135,0.6373,10.0227,-17.9217,31,0.7254,8637,3.7301,163.8438
rg,1624907294593541656,1,0.2878,-0.3416,0.9336,107,-102.1729,-89.9658,17.1509,154,1.1085,0.6343,5.8866,-21.8069,31,0.7354,9734,3.7301,165.7507
rg,1624907294593579053,1,0.301,-0.478,0.9539,108,-144.5923,-57.8613,12.085,154,1.1015,0.6223,3.1616,-27.6312,31,0.7374,7987,3.7301,167.1858
rg,1624907294593598550,1,0.2534,-0.5225,0.9944,109,-158.8745,-46.5698,8.3618,154,1.0915,0.6043,1.1222,-33.9101,31,0.7244,7876,3.7301,168.4608
rg,1624907294593616431,1,0.3755,-0.6086,1.4988,110,-133.606,-37.5366,3.54,154,1.0935,0.5983,-0.55,-38.7715,31,0.7304,8021,3.7301,169.4975
rg,1624907294593633908,1,0.7742,-0.363,0.8777,111,-47.4243,-18.0664,25.0244,154,1.0945,0.5953,-1.6741,-38.6182,31,0.7344,7870,3.7301,169.0766
rg,1624907294593651220,1,0.3433,-0.4412,0.8267,112,-6.0425,57.8003,-8.4229,154,1.0945,0.5923,-0.8019,-38.4241,31,0.7394,7874,3.7301,167.355
rg,1624907294593669175,1,-0.3259,-0.4102,0.8264,113,20.0195,47.1802,-40.1001,154,1.0955,0.5903,0.4839,-37.1643,31,0.7434,8044,3.7301,164.9344
rg,1624907294593686799,1,-0.5515,-0.4998,0.8293,114,14.9536,36.9873,-28.7476,154,1.0975,0.5923,-0.2242,-36.474,31,0.7474,7955,3.7301,164.4798
rg,1624907294593704056,1,0.3147,-0.3452,0.8264,115,14.5264,-33.3252,-21.4233,154,1.0995,0.5943,-2.43,-35.5856,31,0.7514,10060,3.7301,164.2387
rg,1624907294593720818,1,0.4888,-0.2625,0.7273,116,-3.9062,18.6768,-20.5688,154,1.1015,0.5993,-3.4327,-35.1555,31,0.7544,8021,3.7301,163.1046
rg,1624907294593738681,1,-0.1199,-0.499,0.8315,117,-27.2827,59.021,-28.1982,154,1.1035,0.6023,-1.7645,-35.9664,31,0.7574,8442,3.7301,160.7972
rg,1624907294593755938,1,-0.2119,-0.8835,1.0068,118,-16.1743,35.4004,-14.2822,154,1.1055,0.6063,-0.5452,-36.7837,31,0.7594,8067,3.7301,159.4997
rg,1624907294593773342,1,0.2085,-0.8462,0.9607,119,0.7324,24.7803,-4.6387,154,1.1075,0.6093,-0.1998,-36.1135,31,0.7614,8272,3.7301,159.0775
rg,1624907294593791058,1,0.353,-0.7407,0.8892,120,39.6729,33.2642,1.6479,154,1.1105,0.6143,0.264,-34.6621,31,0.7614,8512,3.7301,158.3494
rg,1624907294593808811,1,0.3875,-0.7515,0.8745,121,78.125,88.501,0.1831,154,1.1155,0.6203,2.4826,-31.8103,31,0.7564,8724,3.7301,156.3896
rg,1624907294593826013,1,0.2297,-0.8191,0.9241,122,106.3843,135.8032,-8.9111,154,1.1195,0.6253,6.4755,-28.1773,31,0.7474,8172,3.7301,153.3192
rg,1624907294593844665,1,0.0671,-0.7632,0.8572,123,117.5537,150.8179,-16.9067,154,1.1235,0.6313,11.6825,-24.4796,31,0.7344,8220,3.7301,149.9461
rg,1624907294593862198,1,-0.4041,-0.6167,0.792,124,117.0654,148.8647,-33.5083,154,1.1245,0.6353,17.0347,-21.2168,31,0.7214,8410,3.7301,146.1955
rg,1624907294593880134,1,-0.7332,-0.4648,0.7188,125,104.3701,109.6802,-33.8135,154,1.1255,0.6393,21.5961,-18.3792,31,0.7103,8243,3.7301,143.1885
rg,1624907294593896987,1,-1.1453,-0.011,0.4946,126,52.6123,29.8462,-18.9819,154,1.1255,0.6413,24.1138,-16.4363,31,0.7103,10879,3.7301,142.1528
rg,1624907294593914299,1,-0.8567,-0.5049,1.0129,127,-27.9541,-76.416,9.5825,154,1.1245,0.6433,21.828,-17.3587,31,0.7214,8334,3.7301,143.376
rg,1624907294593938165,1,-0.5642,-0.5144,0.9119,128,-36.8042,-118.2861,18.9209,154,1.1215,0.6433,17.2255,-18.2774,31,0.7354,8496,3.7301,145.5996
rg,1624907294945019058,1,0.6096,-0.6465,1.0222,129,-95.9473,-63.5376,24.0479,154,1.0985,0.6033,13.8683,-21.6134,31,0.7434,25643,3.7301,147.473
rg,1624907294945059832,1,0.7927,-0.1345,0.6218,130,11.2305,23.3154,13.916,154,1.0975,0.5993,12.8824,-20.885,31,0.7454,8572,3.7301,147.6998
rg,1624907294945081569,1,0.52,-0.2532,0.8389,131,-2.8687,53.894,-10.376,154,1.0945,0.5943,14.9365,-21.3316,31,0.7474,7704,3.7301,146.4882
rg,1624907294945137434,1,-0.7065,-0.26,0.7839,132,13.9771,65.918,-26.3062,154,1.0935,0.5933,17.9781,-21.2479,31,0.7484,7860,3.7301,144.4928
rg,1624907294945172370,1,-0.1001,-0.5295,0.9978,133,-8.1787,-18.5547,-5.9814,154,1.0935,0.5933,16.6957,-21.8285,31,0.7504,7647,3.7301,144.4639
rg,1624907294945192198,1,0.3591,-0.3018,0.894,134,-9.0332,-27.5879,-3.418,154,1.0935,0.5963,15.0714,-21.9836,31,0.7504,8793,3.7301,144.2736
rg,1624907294945211805,1,0.1421,-0.2422,0.8066,135,-28.9917,30.1514,-14.5264,154,1.0945,0.5993,15.0117,-23.1874,31,0.7504,7909,3.7301,143.3035
rg,1624907294945230200,1,-0.2769,-0.6597,0.9871,136,-44.7388,34.1797,-20.2026,154,1.0955,0.6013,15.845,-25.7438,31,0.7524,7885,3.7301,141.845
rg,1624907294945249054,1,-0.1667,-0.8259,1.0378,137,-23.9258,11.2305,-12.3901,154,1.0965,0.6023,15.6906,-27.3885,31,0.7554,11701,3.7301,141.0392
rg,1624907294945267119,1,0.0435,-0.8635,1.0186,138,10.2539,12.146,-5.0049,154,1.0985,0.6043,15.3549,-27.6095,31,0.7584,7986,3.7301,140.4802
rg,1624907294945285698,1,0.1287,-0.8599,1.0059,139,31.25,18.5547,-6.958,154,1.1035,0.6073,15.0869,-27.0407,31,0.7634,7909,3.7301,139.7266
rg,1624907294945303928,1,0.3076,-0.7778,0.9326,140,73.2422,47.9126,-11.3525,154,1.1095,0.6143,15.5071,-24.9658,31,0.7664,7900,3.7301,138.2768
rg,1624907294945321607,1,0.3147,-0.7644,0.8396,141,108.0933,98.0225,-21.7285,154,1.1155,0.6223,17.5999,-22.0421,31,0.7624,7924,3.7301,135.5965
rg,1624907294945339158,1,0.0503,-0.6711,0.8169,142,114.8682,121.9482,-35.2783,154,1.1195,0.6283,21.5028,-19.1706,31,0.7534,8703,3.7301,132.1757
rg,1624907294945357131,1,-0.4492,-0.5332,0.7537,143,111.8164,125.5493,-47.6074,154,1.1215,0.6323,25.87,-16.8007,31,0.7384,9307,3.7301,128.2811
rg,1624907294945375674,1,-0.8313,-0.3743,0.6953,144,90.0879,87.8906,-41.4429,154,1.1215,0.6353,29.588,-14.8944,31,0.7294,10033,3.7301,125.2549
rg,1624907294945393720,1,-1.1194,0.0254,0.6343,145,39.1235,10.7422,-17.5781,154,1.1215,0.6383,31.0076,-13.4,31,0.7264,8004,3.7301,124.554
rg,1624907294945411840,1,-0.8069,-0.3083,0.8186,146,-40.7715,-96.7407,4.3945,154,1.1215,0.6403,27.7705,-14.6401,31,0.7334,8304,3.7301,125.7015
rg,1624907294945429630,1,-0.4448,-0.3354,0.9114,147,-64.0259,-132.019,17.6392,154,1.1195,0.6393,22.7686,-16.4187,31,0.7454,8067,3.7301,127.9208
rg,1624907294945448117,1,0.2625,-0.467,0.9604,148,-98.999,-145.5078,23.6206,154,1.1165,0.6363,16.217,-19.7753,31,0.7554,8292,3.7301,130.6832
rg,1624907294945466053,1,0.585,-0.3689,0.907,149,-120.7275,-90.0879,23.9868,154,1.1125,0.6263,11.589,-24.0948,31,0.7584,8116,3.7301,133.028
rg,1624907294945487790,1,0.5742,-0.4348,0.9058,150,-135.5591,-55.4199,17.0898,154,1.1015,0.6113,8.6122,-29.4545,31,0.7494,8273,3.7301,134.6715
rg,1624907294945506258,1,0.3708,-0.6099,1.0183,151,-141.9678,-2.4414,2.7466,154,1.0945,0.5983,7.5969,-35.1333,31,0.7424,8113,3.7301,134.8589
rg,1624907294945523956,1,0.7112,-1.0137,0.9543,152,-34.1797,41.2598,11.5967,154,1.0915,0.5963,7.9119,-36.9777,31,0.7464,8331,3.7301,134.2187
rg,1624907294945541507,1,0.6157,-0.3474,0.8,153,7.1411,57.0068,-2.5635,154,1.0885,0.5963,9.6345,-37.1994,31,0.7494,8233,3.7301,131.1757
rg,1624907294945559205,1,-0.4385,-0.6309,0.9187,154,-6.3477,110.4736,-36.8042,154,1.0855,0.5963,12.6795,-38.1045,31,0.7514,8344,3.7301,127.2491
rg,1624907294945577728,1,-0.5671,-0.6135,0.9409,155,-2.7466,45.5933,-19.4092,154,1.0855,0.5973,14.1747,-38.4393,31,0.7534,8240,3.7301,125.5006
rg,1624907294945616465,1,0.1294,-0.3669,0.7637,156,1.0986,-3.7231,-22.0337,154,1.0875,0.5983,12.643,-38.0205,31,0.7564,8393,3.7301,125.0082
rg,1624907294945637926,1,0.1006,-0.3215,0.728,157,-8.4839,12.6953,-30.7007,154,1.0895,0.6013,11.5279,-38.0601,31,0.7574,8279,3.7301,123.8251
rg,1624907294945655312,1,-0.2407,-0.4543,0.8059,158,-28.9307,22.2778,-42.1143,154,1.0925,0.6043,11.2929,-39.2461,31,0.7604,8442,3.7301,121.9847
rg,1624907294945675580,1,-0.2988,-0.7236,0.9207,159,-27.71,1.0986,-39.3677,154,1.0965,0.6063,10.4345,-40.5372,31,0.7644,8307,3.7301,120.7371
rg,1624907294945696637,1,-0.0764,-0.8535,0.9695,160,-17.8833,-8.606,-32.7148,154,1.0995,0.6093,9.0497,-40.9318,31,0.7684,8510,3.7301,120.1075
rg,1624907295299201130,1,0.45,-0.7227,0.8057,161,85.5713,40.4053,-14.0381,154,1.1145,0.6283,10.8471,-37.3895,31,0.7604,26753,3.7301,116.4459
rg,1624907295299251018,1,-0.0508,-0.5837,0.7712,162,99.1821,132.3853,-36.8042,154,1.1155,0.6323,13.9401,-34.3605,31,0.7484,8519,3.7301,112.0405
rg,1624907295299271461,1,-0.8884,-0.3425,0.676,163,77.6978,117.4316,-39.1846,154,1.1165,0.6343,18.3045,-32.1721,31,0.7394,7830,3.7301,108.072
rg,1624907295299483061,1,-1.1636,-0.2517,0.7444,164,32.5317,16.7847,-22.1558,154,1.1175,0.6363,19.8028,-30.9319,31,0.7344,7737,3.7301,107.0208
rg,1624907295299505819,1,-0.9612,-0.345,0.8169,165,6.4697,-48.3398,-13.1836,154,1.1195,0.6373,18.9251,-30.25,31,0.7374,7894,3.7301,107.6753
rg,1624907295299525693,1,-0.3503,-0.4121,0.9341,166,-32.5317,-132.7515,0.5493,154,1.1215,0.6393,14.379,-30.4785,31,0.7474,8980,3.7301,110.5882
rg,1624907295299545439,1,0.2043,-0.6597,1.0569,167,-59.3262,-149.4141,5.7983,154,1.1205,0.6383,8.512,-32.2241,31,0.7594,8408,3.7301,113.9661
rg,1624907295299565019,1,0.5054,-0.6521,1.0156,168,-60.73,-137.8174,10.3149,154,1.1155,0.6293,2.6865,-34.2184,31,0.7664,7817,3.7301,117.3871
rg,1624907295299583442,1,0.6257,-0.5378,0.9253,169,-81.604,-72.998,1.8921,154,1.1065,0.6133,-0.8592,-37.2979,31,0.7614,7833,3.7301,119.1959
rg,1624907295299601278,1,0.2363,-0.4495,1.1707,170,-87.3413,-22.7661,-11.9629,154,1.0995,0.5993,-2.2523,-40.153,31,0.7564,7814,3.7301,119.3937
rg,1624907295299619444,1,0.6804,-0.5867,0.9087,171,-30.0903,-4.3945,8.9111,154,1.0975,0.5943,-3.284,-41.1196,31,0.7594,7910,3.7301,119.776
rg,1624907295299637591,1,0.4026,-0.0808,0.6401,172,10.9253,31.0059,-16.7236,154,1.0955,0.5903,-3.8812,-39.5165,31,0.7614,7856,3.7301,118.3793
rg,1624907295299654582,1,-0.4661,-0.4973,0.8572,173,8.4839,47.7905,-28.0151,154,1.0935,0.5883,-2.0104,-38.7269,31,0.7624,8110,3.7301,116.2864
rg,1624907295299695671,1,-0.4221,-0.4624,0.8203,174,6.1035,21.7896,-11.2305,154,1.0925,0.5883,-0.6103,-38.119,31,0.7644,7898,3.7301,115.3871
rg,1624907295300448613,1,0.5073,-0.4055,0.8582,175,-3.479,-11.9629,-3.7842,82,1.0935,0.5893,-2.1279,-37.8087,31,0.7654,8020,3.7642,115.5532
rg,1624907295300485606,1,0.1851,-0.2761,0.7285,176,-8.7891,23.8037,-9.1553,82,1.0945,0.5933,-1.0922,-37.8065,31,0.7654,8006,3.7642,113.5805
rg,1624907295300511174,1,-0.0984,-0.3425,0.7673,177,-30.2734,70.5566,-17.7612,82,1.0945,0.5963,0.9833,-38.4673,31,0.7654,8095,3.7642,111.2643
rg,1624907295300535714,1,-0.3901,-0.6584,0.9031,178,-38.0249,49.0112,-19.5923,82,1.0955,0.5983,2.7098,-39.9463,31,0.7674,7961,3.7642,109.4091
rg,1624907295300557296,1,-0.1465,-0.9241,1.0347,179,-29.8462,28.0762,-17.2729,82,1.0975,0.5993,2.9702,-40.6292,31,0.7704,8029,3.7642,108.8196
rg,1624907295300577079,1,0.0283,-0.9607,1.0437,180,5.6763,8.9722,-8.667,82,1.0995,0.6023,2.8526,-40.4973,31,0.7744,8204,3.7642,108.3179
rg,1624907295300601912,1,0.2249,-0.7744,0.9565,181,54.5654,29.3579,-3.9062,82,1.1055,0.6083,3.1378,-38.2981,31,0.7774,8647,3.7642,107.4414
rg,1624907295300623991,1,0.3787,-0.811,0.9336,182,89.3555,68.4204,-7.3242,82,1.1105,0.6153,4.3669,-34.9514,31,0.7754,8227,3.7642,105.5368
rg,1624907295300645224,1,0.1765,-0.6558,0.7805,183,105.7739,122.2534,-24.9634,82,1.1145,0.6213,7.34,-31.2862,31,0.7644,8259,3.7642,101.9743
rg,1624907295300665539,1,-0.8906,-0.2632,0.5894,184,82.3975,126.8921,-37.4756,82,1.1165,0.6253,12.6201,-28.493,31,0.7574,12555,3.7642,98.1536
rg,1624907295300687691,1,-1.4719,-0.1582,0.7097,185,11.8408,13.6108,-16.4185,82,1.1175,0.6273,14.5561,-27.9321,31,0.7574,8362,3.7642,97.3683
rg,1624907295300716272,1,-0.5964,-0.6938,1.0566,186,-27.3438,-72.5708,-10.6201,82,1.1195,0.6293,10.1292,-29.3186,31,0.7664,8220,3.7642,99.909
rg,1624907295300784215,1,-0.1062,-0.6514,1.0393,187,-49.6826,-161.8042,3.9062,82,1.1205,0.6293,4.4342,-30.9689,31,0.7764,8570,3.7642,103.3103
rg,1624907295300851276,1,0.4651,-0.6179,0.9475,188,-63.7207,-137.2681,7.019,82,1.1175,0.6203,-1.0565,-33.487,31,0.7814,8322,3.7642,106.4954
rg,1624907295300878902,1,0.491,-0.5645,0.9204,189,-79.3457,-74.707,6.0425,82,1.1095,0.6083,-4.2498,-36.6621,31,0.7744,8331,3.7642,108.4373
rg,1624907295300901550,1,0.6152,-0.4946,1.1038,190,-75.6226,-54.8096,2.1362,82,1.1035,0.5973,-6.0726,-38.118,31,0.7734,8453,3.7642,109.5729
rg,1624907295300983104,1,0.8699,-0.5342,0.6611,191,6.1035,-10.0098,9.3994,82,1.1005,0.5943,-7.5986,-37.9548,31,0.7744,8319,3.7642,110.1163
rg,1624907295301007552,1,0.0979,-0.1155,0.6514,192,0.5493,74.0356,-31.311,82,1.0975,0.5933,-6.0742,-36.5318,31,0.7754,8462,3.7642,107.1614
rg,1624907295671480320,1,0.3123,-0.4185,0.8159,193,-17.5171,33.8135,-12.7563,82,1.0995,0.6023,-5.7997,-36.7435,31,0.7794,26111,3.7642,105.8981
rg,1624907295671526479,1,-0.0869,-0.5955,0.877,194,-25.5737,68.5425,-26.6113,82,1.1025,0.6053,-3.8967,-37.394,31,0.7834,10330,3.7642,103.3941
rg,1624907295671574897,1,-0.2283,-0.9998,1.0867,195,-4.8218,46.0815,-29.4189,82,1.1065,0.6073,-2.6602,-37.6637,31,0.7894,8302,3.7642,101.3467
rg,1624907295671597324,1,-0.0112,-0.9578,1.0432,196,48.645,27.4658,-28.8696,82,1.1105,0.6113,-2.3513,-35.8386,31,0.7934,8432,3.7642,99.7733
rg,1624907295671616794,1,0.2095,-0.7791,0.8933,197,102.9663,41.748,-23.1323,82,1.1155,0.6173,-1.789,-31.8669,31,0.7924,8400,3.7642,98.07
rg,1624907295671635529,1,0.2319,-0.616,0.7876,198,118.7744,57.6172,-26.4282,82,1.1185,0.6243,-0.376,-26.9835,31,0.7824,9193,3.7642,95.3017
rg,1624907295671654191,1,-0.5713,-0.1191,0.4902,199,102.2949,105.7739,-46.2036,82,1.1205,0.6283,4.3735,-22.6749,31,0.7724,9127,3.7642,91.9128
rg,1624907295671673221,1,-1.0876,0.0488,0.5493,200,58.96,81.665,-40.6494,82,1.1225,0.6293,8.7502,-20.1471,31,0.7714,8335,3.7642,89.272
rg,1624907295671691258,1,-1.1309,-0.6433,0.9702,201,-40.1001,-49.9878,-19.4702,82,1.1245,0.6333,7.9284,-22.1265,31,0.7804,8560,3.7642,89.1898
rg,1624907295671709167,1,-0.3689,-0.5239,0.8232,202,-48.7061,-142.7612,9.5825,82,1.1255,0.6323,3.3565,-24.1896,31,0.7904,8305,3.7642,91.7434
rg,1624907295671730823,1,0.418,-0.498,0.8838,203,-58.4106,-157.7759,18.7988,82,1.1215,0.6233,-2.7483,-26.6684,31,0.7944,8572,3.7642,95.2417
rg,1624907295671749632,1,0.7073,-0.4404,0.824,204,-58.2886,-131.5308,29.7852,82,1.1155,0.6123,-8.0881,-29.3692,31,0.7914,8450,3.7642,98.8121
rg,1624907295671767155,1,0.8877,-0.4609,0.7456,205,-2.9297,0.3052,0.6714,82,1.1095,0.6023,-9.4352,-29.5492,31,0.7924,12303,3.7642,98.8382
rg,1624907295671784935,1,0.6711,-0.123,0.6133,206,20.5078,39.6729,-7.3853,82,1.1055,0.6003,-7.7094,-27.9324,31,0.7924,8457,3.7642,97.7035
rg,1624907295671802274,1,-0.3813,-0.4204,0.8137,207,-0.9766,85.5103,-12.085,82,1.1035,0.6003,-3.7795,-27.739,31,0.7924,8503,3.7642,95.6654
rg,1624907295671841270,1,-0.0479,-0.5662,0.8943,208,2.5635,25.9399,-6.3477,82,1.1035,0.6033,-2.7312,-27.7716,31,0.7934,9959,3.7642,94.9671
rg,1624907295671862099,1,0.084,-0.4053,0.8079,209,9.0942,29.3579,-12.207,82,1.1045,0.6063,-2.0215,-27.3166,31,0.7944,8546,3.7642,93.986
rg,1624907295671880045,1,-0.1318,-0.5496,0.885,210,13.4888,21.6064,-22.9492,82,1.1055,0.6093,-1.3093,-26.9141,31,0.7974,10404,3.7642,92.782
rg,1624907295671897953,1,-0.0732,-0.8215,0.9958,211,39.3677,-5.4321,-25.2075,82,1.1075,0.6113,-1.7717,-25.8099,32,0.8014,8593,3.7642,91.989
rg,1624907295671916303,1,0.1282,-0.6196,0.9492,212,62.1948,-12.085,-25.4517,82,1.1125,0.6153,-2.7969,-22.5529,32,0.8044,8778,3.7642,91.3275
rg,1624907295672009429,1,0.3545,-0.5083,0.8333,213,109.2529,-2.5024,-17.4561,82,1.1185,0.6223,-3.8043,-18.4836,32,0.8034,8624,3.7642,90.6995
rg,1624907295672133119,1,0.5173,-0.46,0.7957,214,116.8213,47.4854,-29.2969,82,1.1225,0.6273,-3.2983,-14.115,32,0.7954,8800,3.7642,89.0258
rg,1624907295672160524,1,-0.2512,-0.062,0.6038,215,95.5811,106.9946,-40.0391,82,1.1245,0.6303,1.5175,-9.9649,31,0.7854,8677,3.7642,86.5869
rg,1624907295672182878,1,-1.2275,-0.1562,0.6763,216,3.2349,53.7109,-24.9023,82,1.1255,0.6313,5.3961,-9.9756,31,0.7844,8897,3.7642,85.2305
rg,1624907295672204552,1,-0.7473,-0.5432,0.9963,217,-35.8887,-82.0312,-2.0752,82,1.1266,0.6353,3.2409,-11.9706,31,0.7944,10550,3.7642,85.7015
rg,1624907295672226227,1,0.0913,-0.3975,0.8933,218,-47.3633,-129.2114,16.6626,82,1.1255,0.6333,-1.9545,-14.3038,31,0.8024,9008,3.7642,87.5068
rg,1624907295672248232,1,0.4238,-0.3032,0.7981,219,-53.2837,-108.3374,14.7705,82,1.1215,0.6253,-6.8894,-16.7901,31,0.8034,8825,3.7642,89.2718
rg,1624907295672270163,1,0.3704,-0.3352,0.8076,220,-56.0913,-89.2334,8.7891,82,1.1135,0.6153,-10.7089,-19.6072,31,0.7974,8981,3.7642,90.7964
rg,1624907295672291158,1,0.6045,-0.394,0.9041,221,-21.9116,-76.5381,6.6528,82,1.1085,0.6073,-14.2793,-20.9043,31,0.7974,8834,3.7642,92.1738
rg,1624907295672312262,1,0.6108,-0.145,0.53,222,35.8276,-47.6074,-14.5874,82,1.1045,0.6023,-17.5158,-19.3431,31,0.7964,9016,3.7642,92.229
rg,1624907295672378773,1,-0.1875,-0.1848,0.5303,223,30.0903,-10.9253,-24.292,82,1.1025,0.6003,-16.9033,-17.8974,31,0.7974,8853,3.7642,91.428
rg,1624907295672402652,1,0.1082,-0.2009,0.542,224,28.1982,-60.4858,-14.4043,82,1.1025,0.6013,-19.1218,-16.9256,31,0.7994,9062,3.7642,91.6444
rg,1624907296032834804,1,0.3643,-0.2124,0.5459,225,27.2217,-15.0146,-24.353,82,1.1075,0.6063,-19.3495,-15.6513,31,0.8064,26464,3.7642,90.6647
rg,1624907296032875711,1,0.198,-0.2793,0.5837,226,63.5986,-31.25,-23.1323,82,1.1115,0.6093,-20.7014,-13.2976,31,0.8094,11101,3.7642,90.1784
rg,1624907296032895889,1,0.2722,-0.2776,0.582,227,75.2563,-32.6538,-20.1416,82,1.1145,0.6113,-22.2414,-10.5646,31,0.8134,8309,3.7642,89.7881
rg,1624907296032915130,1,0.2925,-0.2163,0.5779,228,101.6846,-27.0996,-17.7002,82,1.1165,0.6153,-23.5475,-6.666,31,0.8144,8265,3.7642,89.3461
rg,1624907296032932808,1,0.3835,-0.2156,0.5212,229,128.8452,-19.7144,-15.8691,82,1.1195,0.6183,-24.8263,-1.8253,31,0.8144,8363,3.7642,88.9206
rg,1624907296032950046,1,0.3855,-0.2131,0.5281,230,140.0146,-14.3433,-16.1743,82,1.1215,0.6223,-25.6191,3.8729,31,0.8104,8290,3.7642,88.4576
rg,1624907296032968055,1,0.356,-0.1697,0.4961,231,155.7007,4.8828,-17.395,82,1.1225,0.6253,-25.7529,9.5982,31,0.8044,8796,3.7642,88.046
rg,1624907296032987038,1,0.2039,-0.2009,0.5461,232,163.9404,6.7749,-18.2495,82,1.1225,0.6283,-25.2188,15.2561,31,0.7964,8338,3.7642,87.8459
rg,1624907296033005323,1,0.2153,-0.1387,0.5344,233,171.1426,2.0752,-12.085,82,1.1225,0.6303,-24.9718,21.1107,31,0.7854,8890,3.7642,87.8698
rg,1624907296033072086,1,0.1287,-0.1042,0.5444,234,174.4995,-1.1597,-9.2163,82,1.1235,0.6323,-24.559,26.9243,31,0.7784,8359,3.7642,88.0472
rg,1624907296033096527,1,0.1189,-0.0544,0.573,235,178.2227,-16.7236,-3.418,82,1.1235,0.6333,-24.7273,32.9084,31,0.7724,8564,3.7642,88.1201
rg,1624907296033114592,1,0.1826,-0.0151,0.5774,236,181.5186,-24.9023,0.6714,82,1.1235,0.6353,-25.442,39.0441,31,0.7694,8467,3.7642,88.0756
rg,1624907296033132895,1,0.2971,0.0034,0.6289,237,185.4248,-30.6396,4.5776,82,1.1235,0.6353,-26.6793,45.3358,31,0.7674,8520,3.7642,87.9192
rg,1624907296033150390,1,0.3035,-0.0198,0.6877,238,194.519,-25.3906,6.1646,82,1.1235,0.6363,-27.7471,51.6849,31,0.7674,8447,3.7642,88.0098
rg,1624907296033167370,1,0.3594,0.0071,0.7375,239,210.5713,-24.9023,10.1929,82,1.1245,0.6373,-28.9692,58.59,31,0.7684,8621,3.7642,88.1739
rg,1624907296033204988,1,0.4038,0.0315,0.7583,240,219.8486,-21.4844,12.5732,82,1.1245,0.6373,-30.2491,65.7423,31,0.7694,8506,3.7642,88.4776
rg,1624907296033224173,1,0.3809,0.082,0.7571,241,236.9995,-6.958,15.1978,82,1.1255,0.6383,-31.3267,73.1883,31,0.7714,8729,3.7642,89.4298
rg,1624907296033242201,1,0.2927,0.1406,0.7258,242,252.4414,-0.6714,16.1743,82,1.1255,0.6383,-32.2283,80.9868,31,0.7724,8555,3.7642,90.7018
rg,1624907296033259971,1,0.3494,0.1995,0.7607,243,266.2354,-2.3193,18.3105,82,1.1255,0.6393,-33.37,89.3736,31,0.7744,8717,3.7642,91.848
rg,1624907296033277595,1,0.4084,0.2871,0.7412,244,270.5078,0.4272,20.1416,82,1.1266,0.6393,-34.7255,97.9835,31,0.7754,8577,3.7642,93.281
rg,1624907296033370545,1,0.4209,0.394,0.7437,245,273.9868,18.0664,21.3013,82,1.1266,0.6403,-36.2228,106.208,31,0.7764,8747,3.7642,95.2318
rg,1624907296033400646,1,0.353,0.4771,0.8074,246,271.1792,40.0391,24.4751,82,1.1276,0.6403,-38.094,113.5684,31,0.7764,8615,3.7642,98.2043
rg,1624907296033419464,1,0.3064,0.6035,0.8621,247,264.7095,50.5981,29.2358,82,1.1276,0.6403,-40.3559,120.336,31,0.7764,8824,3.7642,101.536
rg,1624907296033514049,1,0.3052,0.6838,0.9485,248,255.6763,56.3354,31.0669,82,1.1286,0.6413,-43.0005,126.5568,31,0.7764,8704,3.7642,105.0125
rg,1624907296033535073,1,0.3098,0.7642,0.968,249,250.2441,58.7769,31.189,82,1.1286,0.6413,-45.9051,132.1872,31,0.7774,9049,3.7642,108.6726
rg,1624907296033554754,1,0.2717,0.8108,0.9641,250,239.563,63.7817,28.0151,82,1.1286,0.6413,-48.9433,137.3701,31,0.7784,8210,3.7642,112.5184
rg,1624907296033573388,1,0.1714,0.8569,0.9927,251,223.5718,59.8755,25.2075,82,1.1296,0.6413,-51.8528,141.8416,31,0.7784,8412,3.7642,116.3852
rg,1624907296033591600,1,0.1287,0.866,1.075,252,208.9233,54.8706,24.8413,82,1.1296,0.6413,-54.778,145.8367,31,0.7794,8728,3.7642,120.102
rg,1624907296033615729,1,0.0364,0.8569,1.166,253,199.0356,54.1382,27.6489,82,1.1306,0.6403,-57.881,149.6005,31,0.7804,10007,3.7642,123.6424
rg,1624907296033633646,1,-0.1033,0.8523,1.2249,254,195.9229,53.894,27.0996,82,1.1296,0.6403,-60.9273,153.3944,31,0.7814,8314,3.7642,126.9725
rg,1624907296033666155,1,-0.1042,0.8555,1.2393,255,192.3218,44.7388,30.2734,82,1.1306,0.6413,-63.9552,157.5058,31,0.7814,8325,3.7642,129.9184
rg,1624907296033685101,1,-0.1099,0.8975,1.2017,256,182.1899,37.4146,31.6162,82,1.1306,0.6413,-66.7776,161.6045,31,0.7824,8363,3.7642,132.4884
rg,1624907296401075897,1,-0.2705,0.9373,1.1299,257,148.1934,10.1318,14.8926,82,1.1306,0.6423,-68.2697,163.6118,31,0.7834,25751,3.7642,135.9204
rg,1624907296401129190,1,-0.2502,0.9412,1.0664,258,133.7891,-6.897,5.3101,82,1.1306,0.6423,-68.7125,163.7202,31,0.7824,8723,3.7642,140.4415
rg,1624907296401160853,1,-0.2,0.9177,1.0286,259,119.1406,-19.165,-2.8076,82,1.1306,0.6423,-68.9394,163.3319,31,0.7834,7735,3.7642,145.211
rg,1624907296401190440,1,-0.1714,0.9045,1.0112,260,111.145,-24.5972,-8.2397,82,1.1306,0.6433,-68.8974,162.1833,31,0.7814,8804,3.7642,150.4457
rg,1624907296401220762,1,-0.1995,0.9111,1.0176,261,107.9712,-24.5361,-9.7656,82,1.1306,0.6433,-68.8651,160.7351,31,0.7814,7704,3.7642,155.7147
rg,1624907296401247812,1,-0.2749,0.9277,1.1135,262,101.6235,-20.752,-3.3569,82,1.1306,0.6443,-68.953,159.7085,31,0.7814,9220,3.7642,160.4137
rg,1624907296401275506,1,-0.1113,0.9353,1.3098,263,103.1494,-24.353,-0.3052,82,1.1306,0.6433,-69.17,159.311,31,0.7804,8341,3.7642,164.5257
rg,1624907296401301969,1,0.1499,0.866,1.7466,264,116.5771,-12.3291,1.2817,82,1.1306,0.6453,-70.2184,159.683,31,0.7804,7859,3.7642,168.4603
rg,1624907296401328909,1,0.2334,0.7971,2.0273,265,133.8501,0.7935,1.8921,82,1.1316,0.6463,-71.9105,160.4545,31,0.7784,7836,3.7642,-187.2537
rg,1624907296401356015,1,0.0408,0.7073,2.0684,266,191.5283,36.499,3.8452,82,1.1316,0.6473,-74.9606,161.8899,31,0.7784,7857,3.7642,-181.2607
rg,1624907296401385859,1,-0.333,1.0259,1.5596,267,227.478,52.1851,19.8364,82,1.1326,0.6483,-78.2712,163.6563,31,0.7774,8089,3.7642,-174.2566
rg,1624907296401412928,1,-0.3743,1.1685,1.3262,268,227.1729,45.5933,25.6348,82,1.1316,0.6483,-81.0617,163.9205,31,0.7774,7898,3.7642,-165.809
rg,1624907296401441596,1,-0.3616,1.2598,1.1382,269,199.8291,15.2588,35.1562,82,1.1326,0.6483,-82.5819,164.9748,31,0.7774,8141,3.7642,-159.2148
rg,1624907296401468739,1,-0.2495,1.3755,1.0232,270,163.6963,-18.3105,32.6538,82,1.1316,0.6473,-82.8764,164.7359,31,0.7764,10310,3.7642,-152.6799
rg,1624907296401503563,1,0.042,1.4377,0.9778,271,118.7134,-55.7251,28.4424,82,1.1316,0.6453,-81.7891,163.9444,31,0.7754,12520,3.7642,-148.0637
rg,1624907296401596237,1,0.4236,1.394,0.7957,272,78.2471,-53.894,24.6582,82,1.1316,0.6453,-80.7686,162.3669,31,0.7764,8594,3.7642,-143.5446
rg,1624907296401632274,1,0.5544,1.2913,0.6355,273,39.6729,-13.9771,18.4326,82,1.1326,0.6443,-80.8125,154.7146,31,0.7764,8762,3.7642,-134.6961
rg,1624907296401662982,1,0.4189,1.1416,0.5461,274,6.0425,23.0103,12.146,82,1.1326,0.6443,-81.5358,137.024,31,0.7764,8640,3.7642,-117.3998
rg,1624907296401693414,1,0.3291,1.0073,0.4829,275,-21.1182,39.6729,8.4839,82,1.1336,0.6453,-81.7071,110.4673,31,0.7764,8816,3.7642,-92.2226
rg,1624907296401720042,1,0.3552,0.9221,0.4521,276,-31.6772,44.5557,8.3008,82,1.1346,0.6473,-80.6953,83.6523,31,0.7764,8822,3.7642,-66.9207
rg,1624907296401770009,1,0.3523,0.8955,0.4458,277,-50.5981,57.4951,1.4038,82,1.1346,0.6483,-78.4514,65.3182,31,0.7764,8819,3.7642,-50.0959
rg,1624907296401798805,1,0.2788,0.8174,0.425,278,-62.1948,70.4956,-5.3101,82,1.1346,0.6493,-75.0619,52.8651,31,0.7774,8818,3.7642,-39.5941
rg,1624907296401825948,1,0.2031,0.7488,0.4326,279,-67.8711,77.0264,-13.916,82,1.1346,0.6503,-70.822,44.9838,31,0.7774,8854,3.7642,-33.9455
rg,1624907296401852741,1,0.1509,0.6729,0.4434,280,-68.7256,76.8433,-21.3013,82,1.1346,0.6503,-66.184,39.9642,31,0.7774,8729,3.7642,-31.2494
rg,1624907296401900760,1,0.1235,0.627,0.4504,281,-62.1948,70.6177,-27.832,82,1.1356,0.6513,-61.5226,37.0231,31,0.7774,8869,3.7642,-30.4394
rg,1624907296402057386,1,0.1165,0.6162,0.4722,282,-58.5327,67.4438,-32.2266,82,1.1356,0.6513,-56.9885,35.4721,31,0.7774,8758,3.7642,-30.7538
rg,1624907296402091108,1,0.0869,0.5813,0.498,283,-44.4336,57.312,-37.9028,82,1.1356,0.6523,-52.5794,34.5543,31,0.7774,8937,3.7642,-31.4222
rg,1624907296402119665,1,0.0801,0.5872,0.5291,284,-26.3672,44.7998,-41.4429,82,1.1356,0.6523,-48.5753,34.7408,31,0.7774,8828,3.7642,-32.6066
rg,1624907296402147396,1,0.0823,0.5808,0.5574,285,-8.667,31.9824,-45.4102,82,1.1356,0.6533,-44.9823,35.8201,31,0.7774,9015,3.7642,-34.1549
rg,1624907296402248652,1,0.0732,0.6167,0.5684,286,12.8174,20.2637,-48.584,82,1.1356,0.6533,-41.74,37.9298,31,0.7784,8856,3.7642,-36.0213
rg,1624907296402278331,1,0.0825,0.668,0.5657,287,34.1797,4.5776,-51.3306,82,1.1366,0.6543,-38.9689,41.1088,31,0.7784,9039,3.7642,-38.2992
rg,1624907296402308248,1,0.0969,0.7087,0.5471,288,44.1284,-3.1128,-51.3306,82,1.1366,0.6543,-36.5081,45.1441,31,0.7784,9198,3.7642,-40.8942
rg,1624907296754182901,1,0.2014,0.8794,0.4556,289,81.3599,-31.3721,-55.2368,77,1.1366,0.6563,-34.7779,50.898,31,0.7774,26559,3.7675,-44.2907
rg,1624907296754221695,1,0.2393,0.937,0.4038,290,84.4116,-30.6396,-53.4058,77,1.1376,0.6563,-32.9933,56.4576,31,0.7764,9128,3.7675,-47.2693
rg,1624907296754242498,1,0.2544,0.9666,0.395,291,84.8999,-27.71,-50.6592,77,1.1376,0.6573,-31.1141,61.4563,31,0.7764,8286,3.7675,-49.7151
rg,1624907296754261536,1,0.2761,1.0107,0.3767,292,82.2754,-22.3389,-46.1426,77,1.1376,0.6573,-29.1998,66.0125,31,0.7764,7940,3.7675,-51.7326
rg,1624907296754295460,1,0.2881,1.0437,0.386,293,76.9043,-14.0381,-41.9922,77,1.1376,0.6573,-27.276,69.8387,31,0.7764,7842,3.7675,-53.0855
rg,1624907296754314259,1,0.2844,1.0493,0.3792,294,73.8525,-10.1318,-39.4897,77,1.1366,0.6583,-25.3974,73.2264,31,0.7754,7860,3.7675,-54.0546
rg,1624907296754351730,1,0.314,1.0732,0.3904,295,66.6504,-2.5635,-34.3628,77,1.1376,0.6583,-23.7072,75.9463,31,0.7754,7810,3.7675,-54.4853
rg,1624907296754371466,1,0.2793,1.0818,0.3892,296,58.2275,8.7891,-29.3579,77,1.1376,0.6583,-22.0954,77.9812,31,0.7754,9582,3.7675,-54.2862
rg,1624907296754389935,1,0.2312,1.1299,0.3875,297,49.5605,15.0757,-26.062,77,1.1376,0.6593,-20.5268,79.5033,31,0.7764,8056,3.7675,-53.7452
rg,1624907296754407999,1,0.1665,1.1331,0.4006,298,41.626,17.395,-25.5127,77,1.1376,0.6593,-18.84,80.5676,31,0.7754,7963,3.7675,-53.0503
rg,1624907296754425476,1,0.1489,1.1223,0.4275,299,28.1372,11.9019,-22.2778,77,1.1376,0.6603,-17.4385,81.0972,31,0.7754,7890,3.7675,-52.5428
rg,1624907296754443503,1,0.1638,1.1213,0.438,300,19.7144,12.7563,-16.4795,77,1.1376,0.6603,-16.3445,81.239,31,0.7754,8023,3.7675,-51.9619
rg,1624907296754460667,1,0.1174,1.1191,0.4509,301,14.3433,15.7471,-13.1836,77,1.1376,0.6603,-15.3204,81.1054,31,0.7754,7989,3.7675,-51.2421
rg,1624907296754477795,1,0.1016,1.0945,0.4536,302,4.2725,14.4043,-6.7749,77,1.1376,0.6603,-14.5675,80.5674,31,0.7754,8043,3.7675,-50.5489
rg,1624907296754495547,1,0.1072,1.0713,0.4744,303,-2.6855,14.7095,-2.0752,77,1.1376,0.6613,-14.034,79.7163,31,0.7764,7990,3.7675,-49.8169
rg,1624907296754513979,1,0.1033,1.0579,0.459,304,-6.3477,15.8081,-0.9155,77,1.1376,0.6613,-13.5419,78.7642,31,0.7764,8123,3.7675,-49.0542
rg,1624907296754531584,1,0.0896,1.012,0.4783,305,-10.8643,14.3433,2.3804,77,1.1366,0.6613,-13.1783,77.6097,31,0.7764,8085,3.7675,-48.3243
rg,1624907296754548913,1,0.0916,0.9753,0.4778,306,-15.0146,14.4653,1.2207,77,1.1376,0.6623,-12.7785,76.3099,31,0.7774,9807,3.7675,-47.6089
rg,1624907296754566647,1,0.084,0.9434,0.4622,307,-16.8457,13.4277,2.6245,77,1.1376,0.6623,-12.4333,74.9996,31,0.7774,8197,3.7675,-46.939
rg,1624907296754583811,1,0.0837,0.9458,0.4495,308,-17.334,13.3057,1.77,77,1.1376,0.6623,-12.0715,73.733,31,0.7774,8004,3.7675,-46.3488
rg,1624907296754601048,1,0.1011,0.9148,0.4412,309,-17.395,11.1694,0.7935,77,1.1376,0.6623,-11.7252,72.5499,31,0.7774,8218,3.7675,-45.8221
rg,1624907296754632895,1,0.1018,0.8965,0.4404,310,-17.2729,10.9863,-1.1597,77,1.1376,0.6623,-11.3164,71.4128,31,0.7774,8069,3.7675,-45.3381
rg,1624907296754754697,1,0.1104,0.8782,0.439,311,-15.564,11.0474,-0.7324,77,1.1376,0.6633,-10.9264,70.3996,31,0.7784,8131,3.7675,-44.8756
rg,1624907296754776253,1,0.1191,0.8713,0.4338,312,-14.2822,10.3149,-2.6245,77,1.1376,0.6633,-10.5328,69.4729,31,0.7784,8279,3.7675,-44.4636
rg,1624907296754795457,1,0.1196,0.8577,0.4331,313,-11.0474,8.9722,-3.9062,77,1.1376,0.6633,-10.125,68.7157,31,0.7784,8162,3.7675,-44.1312
rg,1624907296754892376,1,0.124,0.8555,0.4302,314,-7.3853,8.728,-6.1646,77,1.1376,0.6633,-9.6605,68.1494,31,0.7784,8461,3.7675,-43.8526
rg,1624907296754914943,1,0.126,0.8445,0.4243,315,-4.9438,8.3008,-7.2021,77,1.1386,0.6633,-9.1884,67.7118,31,0.7784,8214,3.7675,-43.6147
rg,1624907296754933394,1,0.1396,0.8477,0.4348,316,-1.0986,7.6294,-8.7891,77,1.1386,0.6643,-8.715,67.4368,31,0.7784,8776,3.7675,-43.4303
rg,1624907296754951090,1,0.1255,0.8513,0.4292,317,3.0518,8.9111,-12.4512,77,1.1386,0.6643,-8.0718,67.3574,31,0.7784,8782,3.7675,-43.2619
rg,1624907296754976726,1,0.1262,0.8728,0.4265,318,6.1035,8.9111,-14.4043,77,1.1386,0.6643,-7.3782,67.4372,31,0.7784,8972,3.7675,-43.1301
rg,1624907296754994791,1,0.1162,0.8752,0.4377,319,8.4839,7.0801,-15.3809,77,1.1386,0.6643,-6.6793,67.5995,31,0.7784,8831,3.7675,-43.0789
rg,1624907296755013811,1,0.1277,0.8936,0.4287,320,9.0942,5.4321,-15.3809,77,1.1386,0.6643,-6.065,67.8428,31,0.7784,9021,3.7675,-43.0948
rg,1624907297121689281,1,0.1431,0.9187,0.4502,321,10.8032,6.6528,-16.9678,77,1.1386,0.6643,-5.4132,68.1048,31,0.7784,24968,3.7675,-43.0822
rg,1624907297121728092,1,0.1445,0.9365,0.4456,322,10.0708,8.4839,-18.3105,77,1.1386,0.6643,-4.7095,68.3488,31,0.7784,14196,3.7675,-43.0212
rg,1624907297121748518,1,0.155,0.9487,0.4509,323,9.2163,8.667,-17.6392,77,1.1386,0.6653,-4.0745,68.5492,31,0.7784,10460,3.7675,-42.9416
rg,1624907297121840314,1,0.1541,0.9441,0.4409,324,8.0566,9.9487,-17.5781,77,1.1396,0.6653,-3.4492,68.708,31,0.7784,8387,3.7675,-42.8131
rg,1624907297121862799,1,0.155,0.9492,0.4363,325,6.8359,11.2305,-17.9443,77,1.1386,0.6653,-2.8183,68.8246,31,0.7784,8331,3.7675,-42.6421
rg,1624907297121883667,1,0.158,0.949,0.4385,326,5.6763,12.3901,-17.334,77,1.1386,0.6653,-2.2247,68.8852,31,0.7784,8409,3.7675,-42.4188
rg,1624907297121903504,1,0.1558,0.9458,0.4365,327,4.6997,11.9629,-15.625,77,1.1396,0.6653,-1.7211,68.9071,31,0.7784,8353,3.7675,-42.188
rg,1624907297121922882,1,0.1565,0.9336,0.4441,328,3.3569,12.3291,-15.3198,77,1.1396,0.6653,-1.2475,68.85,31,0.7784,9119,3.7675,-41.9397
rg,1624907297121939502,1,0.1438,0.9431,0.428,329,3.2349,12.5122,-15.1978,77,1.1396,0.6653,-0.8117,68.8149,31,0.7784,9037,3.7675,-41.6842
rg,1624907297121958218,1,0.1533,0.9443,0.4407,330,1.8311,12.2681,-13.6108,77,1.1396,0.6653,-0.4286,68.7204,31,0.7784,8506,3.7675,-41.4182
rg,1624907297121977357,1,0.1492,0.9277,0.4302,331,1.5259,11.9019,-13.1836,77,1.1396,0.6663,-0.0784,68.6247,31,0.7784,8388,3.7675,-41.162
rg,1624907297122012620,1,0.1584,0.9238,0.4331,332,1.4648,11.4136,-12.085,77,1.1396,0.6663,0.1899,68.5224,31,0.7784,8438,3.7675,-40.91
rg,1624907297122032457,1,0.1543,0.9353,0.4268,333,1.1597,11.2915,-13.5498,77,1.1396,0.6663,0.499,68.4166,31,0.7784,8445,3.7675,-40.6857
rg,1624907297122052736,1,0.1536,0.9177,0.4294,334,0.9766,11.2915,-13.1226,77,1.1396,0.6663,0.7905,68.3069,31,0.7784,8443,3.7675,-40.4572
rg,1624907297122072813,1,0.1567,0.9211,0.4233,335,1.1597,11.5356,-13.7329,77,1.1396,0.6663,1.0905,68.2254,31,0.7784,8518,3.7675,-40.2302
rg,1624907297122094599,1,0.145,0.9236,0.4436,336,1.4038,10.376,-13.1226,77,1.1396,0.6663,1.368,68.1189,31,0.7784,8517,3.7675,-40.0397
rg,1624907297122115411,1,0.1411,0.9102,0.4292,337,1.3428,10.0708,-13.1226,77,1.1396,0.6663,1.6335,68.0307,31,0.7784,12394,3.7675,-39.862
rg,1624907297122133741,1,0.1318,0.9121,0.4351,338,1.1597,10.0098,-13.2446,77,1.1396,0.6663,1.9139,67.9292,31,0.7784,8550,3.7675,-39.6903
rg,1624907297122189485,1,0.1382,0.9172,0.4395,339,2.0142,9.2163,-13.7329,77,1.1396,0.6663,2.1779,67.8615,31,0.7784,8757,3.7675,-39.5571
rg,1624907297122212576,1,0.135,0.9185,0.4209,340,2.5024,8.4839,-13.855,77,1.1396,0.6663,2.4302,67.8539,31,0.7794,8585,3.7675,-39.4526
rg,1624907297122232322,1,0.1475,0.9246,0.4443,341,2.0142,7.6294,-13.916,77,1.1396,0.6663,2.6398,67.785,31,0.7784,8769,3.7675,-39.383
rg,1624907297122251387,1,0.1377,0.9231,0.4377,342,2.3193,8.606,-15.1978,77,1.1406,0.6663,2.9229,67.7435,31,0.7784,9470,3.7675,-39.2971
rg,1624907297122272972,1,0.1428,0.9131,0.4365,343,2.1362,8.3008,-14.7095,77,1.1406,0.6673,3.1587,67.6896,31,0.7794,8966,3.7675,-39.2166
rg,1624907297122293636,1,0.1423,0.9233,0.4407,344,2.6855,8.606,-15.2588,77,1.1396,0.6673,3.4145,67.6617,31,0.7794,8696,3.7675,-39.134
rg,1624907297122312702,1,0.1479,0.929,0.4263,345,1.77,7.5684,-13.7329,77,1.1406,0.6673,3.6271,67.5961,31,0.7794,8897,3.7675,-39.039
rg,1624907297122334727,1,0.1445,0.927,0.4307,346,2.0752,8.9722,-14.7095,77,1.1406,0.6673,3.8449,67.5729,31,0.7794,8757,3.7675,-38.9349
rg,1624907297122352671,1,0.1448,0.9224,0.4375,347,2.3193,9.2773,-15.564,77,1.1406,0.6673,4.0896,67.5427,31,0.7794,8964,3.7675,-38.8343
rg,1624907297122369824,1,0.1406,0.9331,0.4324,348,2.3193,9.0332,-14.8926,77,1.1406,0.6673,4.3072,67.5343,31,0.7794,8787,3.7675,-38.7318
rg,1624907297122388044,1,0.1443,0.9263,0.4324,349,1.8921,9.3384,-14.3433,77,1.1406,0.6673,4.4913,67.5047,31,0.7794,9009,3.7675,-38.6106
rg,1624907297122405418,1,0.1426,0.9299,0.4373,350,2.1973,8.3618,-13.6719,77,1.1406,0.6673,4.6148,67.4847,31,0.7794,8843,3.7675,-38.5245
rg,1624907297122422976,1,0.144,0.9302,0.4285,351,2.0142,8.1787,-13.4888,77,1.1406,0.6673,4.7435,67.4688,31,0.7794,9033,3.7675,-38.4335
rg,1624907297122444027,1,0.1382,0.9241,0.4243,352,1.9531,8.9722,-13.9771,77,1.1406,0.6683,4.9031,67.4585,31,0.7794,8894,3.7675,-38.3204
rg,1624907297478316929,1,0.1348,0.9275,0.4343,353,1.6479,9.8877,-14.4653,77,1.1406,0.6683,5.0921,67.4545,31,0.7794,26752,3.7675,-38.164
rg,1624907297478362064,1,0.1301,0.9348,0.4189,354,2.0752,10.7422,-14.2822,77,1.1406,0.6683,5.2955,67.4765,31,0.7794,9055,3.7675,-37.9886
rg,1624907297478384034,1,0.1345,0.9292,0.4331,355,1.4648,10.3149,-14.0991,77,1.1406,0.6683,5.4687,67.439,31,0.7804,8220,3.7675,-37.8295
rg,1624907297478432847,1,0.1313,0.9363,0.4312,356,2.0142,10.6201,-14.4043,77,1.1406,0.6683,5.6592,67.4365,31,0.7794,8352,3.7675,-37.6632
rg,1624907297478454339,1,0.1196,0.9229,0.4236,357,1.0376,8.2397,-13.4277,77,1.1406,0.6683,5.7915,67.391,31,0.7804,8286,3.7675,-37.5707
rg,1624907297478472651,1,0.1409,0.9392,0.4294,358,0.4272,7.2632,-13.4888,77,1.1406,0.6683,5.8654,67.3226,31,0.7804,12011,3.7675,-37.5153
rg,1624907297478490797,1,0.1309,0.9355,0.4272,359,-0.1831,7.0801,-14.0991,77,1.1406,0.6683,5.9761,67.2319,31,0.7794,8323,3.7675,-37.4768
rg,1624907297478508244,1,0.1016,0.927,0.4255,360,0.061,3.54,-13.3667,77,1.1406,0.6683,6.0621,67.1372,31,0.7804,8327,3.7675,-37.5598
rg,1624907297478526096,1,0.1331,0.948,0.4041,361,2.5024,-4.1504,-12.5732,77,1.1406,0.6683,5.9324,67.1778,31,0.7794,8346,3.7675,-37.9096
rg,1624907297478543525,1,0.1492,0.9424,0.3718,362,2.2583,-7.0801,-12.8174,77,1.1406,0.6683,5.776,67.2615,31,0.7784,8327,3.7675,-38.4548
rg,1624907297478560293,1,0.1077,0.9341,0.3357,363,1.77,-14.8315,-14.8315,77,1.1406,0.6693,5.5933,67.3238,31,0.7784,9428,3.7675,-39.2257
rg,1624907297478577905,1,0.1299,0.8984,0.3318,364,5.5542,-32.1045,-18.0054,77,1.1406,0.6693,5.2453,67.4877,31,0.7784,8510,3.7675,-40.6851
rg,1624907297478595794,1,0.1318,0.8262,0.3328,365,17.0288,-50.4761,-20.2026,77,1.1406,0.6683,4.6972,67.9869,31,0.7774,8098,3.7675,-42.8677
rg,1624907297478612819,1,0.1406,0.7864,0.3354,366,26.2451,-59.2041,-20.3857,77,1.1406,0.6693,3.9653,69.2447,31,0.7754,7838,3.7675,-45.584
rg,1624907297478629788,1,0.1743,0.7827,0.3147,367,46.936,-66.9556,-20.3857,77,1.1406,0.6693,3.2153,70.8848,32,0.7734,8135,3.7675,-48.3957
rg,1624907297478646445,1,0.1833,0.7466,0.3296,368,67.627,-65.4297,-13.855,77,1.1416,0.6713,2.3258,73.2606,32,0.7704,7909,3.7675,-51.0813
rg,1624907297478663176,1,0.1863,0.7527,0.3357,369,77.6978,-64.209,-9.4604,77,1.1416,0.6713,1.3569,76.349,32,0.7674,8143,3.7675,-53.5166
rg,1624907297478680329,1,0.1628,0.7683,0.3247,370,93.3228,-58.5327,-0.9766,77,1.1416,0.6723,0.4311,79.6679,32,0.7654,7965,3.7675,-55.8368
rg,1624907297478711032,1,0.0269,0.7273,0.29,371,105.6519,-58.4717,7.3242,77,1.1416,0.6733,-0.2869,83.4224,31,0.7634,8075,3.7675,-58.114
rg,1624907297478728663,1,-0.0681,0.7263,0.2822,372,112.5488,-66.2231,11.4746,77,1.1416,0.6743,-0.7409,87.7109,31,0.7614,7987,3.7675,-61.2533
rg,1624907297478746405,1,-0.2063,0.6963,0.2498,373,127.7466,-97.1069,21.0571,77,1.1416,0.6743,-0.9332,92.2023,31,0.7594,8062,3.7675,-65.1043
rg,1624907297478763577,1,-0.1262,0.6948,0.209,374,148.9868,-142.5171,32.2266,77,1.1416,0.6753,-1.2882,97.5304,31,0.7584,8061,3.7675,-70.8562
rg,1624907297478780896,1,-0.0168,0.7017,0.1699,375,159.729,-159.729,39.3066,77,1.1416,0.6753,-2.2015,103.8419,31,0.7564,8070,3.7675,-77.9378
rg,1624907297478798490,1,0.3306,0.719,0.0977,376,182.8613,-177.4902,52.6733,77,1.1416,0.6763,-2.9498,110.7171,31,0.7544,8260,3.7675,-85.3471
rg,1624907297478815864,1,0.6201,0.8062,-0.002,377,202.8198,-159.4849,60.9741,77,1.1406,0.6763,-3.7847,118.5893,31,0.7514,8154,3.7675,-92.2023
rg,1624907297478832907,1,0.8967,0.8857,-0.1477,378,213.9893,-122.7417,63.4155,77,1.1396,0.6773,-4.7448,127.0279,31,0.7474,8822,3.7675,-97.7704
rg,1624907297478863004,1,0.9612,1.5923,-0.0879,379,229.126,-65.0635,48.9502,77,1.1386,0.6783,-5.5373,135.3882,31,0.7394,8219,3.7675,-101.0042
rg,1624907297478880690,1,0.8279,2.3716,-0.1782,380,205.2002,-15.1978,28.8086,77,1.1396,0.6793,-6.4285,142.3042,31,0.7264,8388,3.7675,-102.1736
rg,1624907297478897457,1,1.0208,1.8044,-0.4973,381,9.2163,5.9814,-50.6592,77,1.1396,0.6793,-6.2752,141.2528,31,0.7204,8290,3.7675,-100.2736
rg,1624907297478915291,1,-0.1543,0.4741,0.9956,382,-99.9146,100.8911,-77.5146,77,1.1396,0.6803,-6.9826,134.6146,31,0.7184,8609,3.7675,-95.0355
rg,1624907297478932959,1,-1.1807,0.6719,0.426,383,-49.1333,90.0269,-78.9185,77,1.1396,0.6813,-3.6881,133.0638,31,0.7163,8301,3.7675,-92.6075
rg,1624907297478951601,1,-0.7825,0.845,0.3347,384,14.9536,-57.8003,-41.748,77,1.1386,0.6813,0.6276,132.1061,31,0.7133,8536,3.7675,-93.0881
rg,1624907297839353035,1,-0.0569,0.9922,-0.0464,385,46.6919,-62.1948,-24.7803,77,1.1356,0.6823,3.4257,132.1349,31,0.7053,25857,3.7675,-94.6434
rg,1624907297839400395,1,0.1562,0.9155,-0.0571,386,32.3486,-97.5342,-19.4702,77,1.1336,0.6823,6.1209,131.8089,31,0.7033,9327,3.7675,-97.1046
rg,1624907297839422365,1,0.2878,0.9797,-0.1306,387,32.959,-103.2715,-22.522,77,1.1326,0.6823,8.5164,131.7103,31,0.7023,7947,3.7675,-99.7104
rg,1624907297839442552,1,0.5386,1.1343,-0.2698,388,22.2778,-94.7876,-31.7993,77,1.1316,0.6823,10.759,131.2537,31,0.7023,7868,3.7675,-101.8689
rg,1624907297839461342,1,0.7034,1.1313,-0.303,389,-5.6763,-69.2139,-44.1284,77,1.1306,0.6823,12.4106,129.9378,31,0.7003,7814,3.7675,-102.9798
rg,1624907297839479525,1,0.6626,1.0276,-0.2952,390,-32.8369,-28.0151,-55.4199,77,1.1306,0.6823,13.2745,127.9303,31,0.7003,9445,3.7675,-102.582
rg,1624907297839497983,1,0.5852,1.0183,-0.2703,391,-44.4336,-10.7422,-54.3823,77,1.1316,0.6833,13.7641,125.573,31,0.7003,8429,3.7675,-101.7433
rg,1624907297839515964,1,0.4556,1.135,-0.3176,392,-65.3687,11.2915,-44.6167,77,1.1306,0.6833,13.705,122.5401,31,0.6993,7959,3.7675,-100.4685
rg,1624907297839533117,1,0.6772,1.249,-0.4629,393,-87.8906,20.752,-14.8926,77,1.1286,0.6833,12.3156,118.8143,31,0.6963,7934,3.7675,-99.4781
rg,1624907297839551061,1,0.9683,1.2332,-0.4231,394,-107.8491,33.02,0.6714,77,1.1286,0.6823,9.9895,114.4104,31,0.6883,7973,3.7675,-98.2882
rg,1624907297839569943,1,1.0959,0.9744,-0.1621,395,-125.9766,108.3374,-12.0239,77,1.1276,0.6793,6.8843,109.6007,31,0.6633,7939,3.7675,-94.0391
rg,1624907297839589266,1,0.4585,0.8533,0.1467,396,-119.751,173.4009,-32.1045,77,1.1266,0.6773,4.789,104.5355,31,0.5913,8681,3.7675,-87.0761
rg,1624907297839607688,1,-0.0505,0.8091,0.4663,397,-109.6802,157.1045,-45.3491,77,1.1255,0.6743,5.235,99.1057,31,0.5002,8075,3.7675,-80.6767
rg,1624907297839626275,1,-0.2139,0.7742,0.6011,398,-104.248,136.1084,-43.5181,77,1.1245,0.6723,6.6624,93.8724,31,0.4302,7958,3.7675,-75.2154
rg,1624907297839643520,1,-0.2637,0.6641,0.6282,399,-73.5474,81.4819,-37.3535,77,1.1235,0.6693,8.4825,89.7303,31,0.3842,8157,3.7675,-72.0888
rg,1624907297839699117,1,-0.2354,0.8674,0.5322,400,-52.2461,58.5938,-35.8887,77,1.1225,0.6673,10.0987,87.5048,31,0.3552,7997,3.7675,-70.7869
rg,1624907297839720903,1,-0.1277,1.0354,0.4492,401,-13.1836,17.7002,-32.2266,77,1.1225,0.6643,11.2967,86.2583,31,0.3372,8323,3.7675,-70.2804
rg,1624907297839738369,1,0.1851,1.2563,0.2698,402,12.085,-0.061,-26.4282,77,1.1225,0.6633,11.5933,86.3771,31,0.3252,8077,3.7675,-70.4156
rg,1624907297839755798,1,0.3232,1.2288,0.082,403,11.5967,25.8789,-22.7661,77,1.1215,0.6623,11.5472,87.0195,31,0.3132,8217,3.7675,-69.4177
rg,1624907297839772933,1,0.2087,1.1655,0.1113,404,2.0752,48.2788,-24.1089,82,1.1215,0.6623,12.0517,86.7829,31,0.2981,8226,3.7642,-67.0135
rg,1624907297839790436,1,0.0244,0.7461,0.4866,405,5.0049,48.2178,-17.334,82,1.1225,0.6633,12.3778,86.2156,31,0.2901,8380,3.7642,-65.3268
rg,1624907297839807001,1,0.3093,0.8374,0.3447,406,36.499,23.5596,-11.9629,82,1.1225,0.6623,11.7506,87.1526,31,0.2851,9648,3.7642,-64.5512
rg,1624907297839830056,1,0.4314,0.8577,0.3044,407,41.3818,24.5361,-11.8408,82,1.1225,0.6623,10.8216,88.3548,31,0.2821,8345,3.7642,-63.7103
rg,1624907297839848441,1,0.4324,0.8879,0.3601,408,47.1802,47.4854,-16.9067,82,1.1235,0.6633,10.2358,89.8399,31,0.2781,8151,3.7642,-61.9413
rg,1624907297839865392,1,0.2046,0.957,0.2261,409,51.2695,61.7676,-23.0103,82,1.1225,0.6643,10.2691,91.8091,31,0.2741,9068,3.7642,-59.5209
rg,1624907297839881497,1,-0.0505,1.1265,0.2217,410,43.9453,57.373,-20.752,82,1.1235,0.6643,10.6861,93.4641,31,0.2721,8734,3.7642,-57.2474
rg,1624907297839898540,1,-0.0244,1.1909,0.2173,411,37.7808,41.0767,-18.8599,82,1.1235,0.6643,10.8683,94.2244,31,0.2691,8468,3.7642,-55.8585
rg,1624907297839915657,1,-0.0149,1.1543,0.2346,412,16.4185,35.2173,-20.9961,82,1.1235,0.6643,11.2055,94.5237,31,0.2661,8306,3.7642,-54.4812
rg,1624907297839932773,1,-0.1365,1.1001,0.2739,413,0.7324,29.2969,-23.5596,82,1.1245,0.6643,11.8993,94.0577,31,0.2641,8682,3.7642,-53.3584
rg,1624907297839949283,1,-0.0664,0.978,0.2148,414,-3.1738,6.7139,-22.2168,82,1.1245,0.6643,12.4615,93.3271,31,0.2621,8324,3.7642,-53.1591
rg,1624907297839977486,1,0.0994,0.9355,0.1584,415,-5.4932,-9.8877,-22.4609,82,1.1245,0.6643,12.6679,92.4948,31,0.2611,11885,3.7642,-53.6222
rg,1624907297839995853,1,0.2065,0.9419,0.1052,416,-3.9062,-9.0942,-22.8882,82,1.1255,0.6643,12.6398,91.8993,31,0.2611,8991,3.7642,-54.0279
rg,1624907298190177796,1,0.1558,0.9163,0.0625,417,2.1973,-2.5024,-24.4751,82,1.1245,0.6633,12.8153,92.0066,31,0.2721,26095,3.7642,-54.0704
rg,1624907298190218720,1,0.1714,0.8943,-0.0195,418,21.9727,-3.1738,-23.5596,82,1.1235,0.6633,12.8442,92.8193,31,0.2781,8548,3.7642,-54.1702
rg,1624907298190239320,1,0.218,0.9856,-0.0251,419,38.8794,-1.2207,-20.0195,82,1.1225,0.6633,12.6705,94.3036,31,0.2841,7790,3.7642,-54.1914
rg,1624907298190259295,1,0.2009,0.9917,-0.1851,420,44.2505,-0.1831,-19.9585,82,1.1225,0.6633,12.4206,96.383,31,0.2901,7733,3.7642,-54.0158
rg,1624907298190277945,1,0.2361,1.1072,-0.2327,421,39.4897,5.0049,-16.8457,82,1.1225,0.6643,12.1273,98.2265,31,0.2941,7793,3.7642,-53.691
rg,1624907298190296154,1,0.1836,1.1013,-0.2109,422,25.1465,16.3574,-15.4419,82,1.1225,0.6653,11.7999,99.4794,31,0.2971,7778,3.7642,-52.9187
rg,1624907298190313627,1,0.0789,1.0439,-0.1399,423,15.625,20.813,-14.7095,82,1.1225,0.6663,11.6011,100.2054,31,0.2981,10004,3.7642,-51.9972
rg,1624907298190330862,1,0.0623,1.0168,-0.0945,424,13.916,16.0522,-15.0146,82,1.1225,0.6673,11.4536,100.6192,31,0.3001,7864,3.7642,-51.6004
rg,1624907298190347765,1,0.1174,1.0427,-0.0876,425,13.1226,1.4648,-12.2681,82,1.1225,0.6673,11.2257,100.9246,31,0.3021,7952,3.7642,-51.4958
rg,1624907298190364502,1,0.1853,1.0657,-0.0977,426,7.6904,-0.8545,-10.9253,82,1.1215,0.6683,10.8574,100.8492,31,0.3041,12040,3.7642,-51.4095
rg,1624907298190381148,1,0.1484,1.0388,-0.0554,427,0.4272,3.1128,-12.8784,82,1.1205,0.6693,10.6003,100.5811,31,0.3051,7955,3.7642,-51.2434
rg,1624907298190398051,1,0.084,1.0181,0.0417,428,-3.8452,3.6011,-13.7939,82,1.1185,0.6693,10.5233,99.9399,31,0.3061,7891,3.7642,-51.0904
rg,1624907298190435959,1,0.0659,1.0112,0.0669,429,-3.54,0.6104,-14.2822,82,1.1165,0.6693,10.4868,99.2337,31,0.3071,7859,3.7642,-51.0691
rg,1624907298190454002,1,0.1331,1.0098,0.0925,430,-3.6621,-10.8032,-12.6953,82,1.1145,0.6693,10.364,98.4337,31,0.3082,8060,3.7642,-51.5225
rg,1624907298190470831,1,0.158,1.0029,0.1362,431,-4.2725,-10.8032,-11.5967,82,1.1125,0.6703,10.1477,97.5449,31,0.3112,8542,3.7642,-51.9996
rg,1624907298190487514,1,0.1057,0.9712,0.1511,432,-1.5259,-8.9111,-10.9863,82,1.1095,0.6703,10.0046,96.7666,31,0.3132,10792,3.7642,-52.4126
rg,1624907298190503883,1,0.0942,0.9626,0.1223,433,5.0659,-13.2446,-9.7656,82,1.1075,0.6703,9.8542,96.3123,31,0.3172,7932,3.7642,-52.9957
rg,1624907298190520455,1,0.1086,0.9993,0.1113,434,8.7891,-17.8223,-6.958,82,1.1055,0.6703,9.5893,96.0278,31,0.3222,8172,3.7642,-53.7688
rg,1624907298190537156,1,0.1611,1.0308,0.0781,435,10.9253,-21.6675,-5.188,82,1.1045,0.6713,9.1724,95.8995,31,0.3252,8132,3.7642,-54.6877
rg,1624907298190553489,1,0.1194,1.0432,0.1003,436,8.728,-15.3809,-2.4414,82,1.1015,0.6713,8.7243,95.6849,31,0.3292,8173,3.7642,-55.3686
rg,1624907298190569822,1,0.051,1.0266,0.1086,437,8.9111,-12.5122,-2.0752,82,1.0995,0.6713,8.5459,95.4538,31,0.3352,8064,3.7642,-55.9403
rg,1624907298190586136,1,-0.0486,0.9858,0.0786,438,12.7563,-21.7285,-0.9155,82,1.0965,0.6713,8.4444,95.4191,31,0.3412,8250,3.7642,-56.8724
rg,1624907298190603150,1,0.1033,0.9124,0.0142,439,18.0054,-39.5508,2.6855,82,1.0945,0.6723,7.9109,95.6437,31,0.3452,8088,3.7642,-58.5121
rg,1624907298190619428,1,0.1875,0.9363,-0.0076,440,18.7378,-41.0156,1.6479,82,1.0935,0.6723,7.165,95.9992,31,0.3482,8111,3.7642,-60.1058
rg,1624907298190648856,1,0.259,1.0125,-0.0552,441,13.7939,-34.6069,0.4272,82,1.0915,0.6733,6.4654,96.2591,31,0.3502,8269,3.7642,-61.5083
rg,1624907298190665888,1,0.3088,1.0317,-0.0276,442,2.7466,-29.1748,-2.2583,82,1.0915,0.6733,5.7894,96.0495,31,0.3492,8162,3.7642,-62.6822
rg,1624907298190682239,1,0.3215,1.0193,-0.0122,443,-2.5635,-26.062,-1.8921,82,1.0905,0.6733,5.1007,95.404,31,0.3472,8173,3.7642,-63.5395
rg,1624907298190739202,1,0.2939,1.0193,0.0149,444,-12.8174,-17.0898,-3.2349,82,1.0905,0.6743,4.4684,94.5815,32,0.3442,8397,3.7642,-64.2249
rg,1624907298190761329,1,0.303,0.9717,0.0625,445,-21.8506,-9.0942,-2.6245,82,1.0905,0.6743,3.7572,93.354,32,0.3402,8241,3.7642,-64.5947
rg,1624907298190779666,1,0.2769,0.9148,0.1404,446,-27.9541,1.5869,0.061,82,1.0905,0.6743,2.9616,91.7679,32,0.3362,8353,3.7642,-64.5487
rg,1624907298190797507,1,0.2393,0.8948,0.175,447,-27.2827,4.8828,-0.1831,82,1.0905,0.6753,2.2767,90.1804,32,0.3342,8226,3.7642,-64.3674
rg,1624907298190821804,1,0.1824,0.8667,0.2346,448,-22.0337,6.4087,0.9155,82,1.0905,0.6753,1.7032,88.7019,31,0.3332,8262,3.7642,-64.1261
rg,1624907298542659730,1,0.345,0.9607,0.0811,449,-12.3291,5.4932,2.2583,82,1.0905,0.6773,0.805,88.0853,31,0.3382,26203,3.7642,-63.9008
rg,1624907298542705400,1,0.3552,0.9824,0.1077,450,-21.4233,15.1367,-1.2207,82,1.0915,0.6773,0.0775,87.0562,31,0.3402,9410,3.7642,-63.2903
rg,1624907298542727214,1,0.3713,0.9688,0.1091,451,-22.8882,18.3716,-0.1831,82,1.0915,0.6773,-0.6859,85.9929,31,0.3402,7683,3.7642,-62.547
rg,1624907298542746636,1,0.4092,0.9131,0.1677,452,-23.3154,31.189,-3.418,82,1.0925,0.6773,-1.3462,84.7917,31,0.3372,8009,3.7642,-61.2982
rg,1624907298542766023,1,0.3845,0.9226,0.179,453,-18.9209,40.8325,-4.2114,82,1.0925,0.6773,-1.8334,83.7636,31,0.3332,7776,3.7642,-59.6729
rg,1624907298542785924,1,0.3887,0.937,0.177,454,-17.7612,43.2739,-3.7231,82,1.0935,0.6763,-2.2441,82.8962,31,0.3262,9290,3.7642,-57.8251
rg,1624907298542805089,1,0.4141,0.9443,0.1362,455,-17.5781,51.2085,-1.5869,82,1.0945,0.6773,-2.7435,82.05,31,0.3202,8307,3.7642,-55.789
rg,1624907298542822415,1,0.3962,0.9355,0.2324,456,-19.7144,62.3779,-2.6245,82,1.0945,0.6763,-3.0427,80.9019,31,0.3152,7968,3.7642,-53.3112
rg,1624907298542840459,1,0.3589,0.9365,0.231,457,-14.2822,64.27,-5.0659,82,1.0955,0.6763,-2.9327,80.3312,31,0.3102,7907,3.7642,-50.8479
rg,1624907298542912835,1,0.3162,1.002,0.1277,458,-2.1973,60.1196,-7.2632,82,1.0955,0.6743,-2.8171,80.2032,31,0.3051,7989,3.7642,-48.5233
rg,1624907298542932092,1,0.2642,1.0784,0.0461,459,-3.8452,60.791,-12.6953,82,1.0965,0.6733,-2.3459,80.2138,31,0.3011,7835,3.7642,-46.2202
rg,1624907298542949841,1,0.2346,1.051,0.0703,460,-9.7046,62.1948,-14.2212,82,1.0975,0.6713,-1.7186,79.806,31,0.2981,8085,3.7642,-43.8646
rg,1624907298542967167,1,0.1782,1.071,0.1707,461,-12.207,59.8755,-16.4795,82,1.0975,0.6703,-0.9483,79.2956,31,0.2941,7931,3.7642,-41.6236
rg,1624907298542985358,1,0.1179,1.0071,0.2397,462,-6.8359,58.4106,-17.2729,82,1.0985,0.6693,-0.0584,78.882,31,0.2931,8046,3.7642,-39.4531
rg,1624907298543002849,1,0.0906,0.9141,0.2993,463,-2.9907,56.3354,-17.8223,82,1.0995,0.6693,0.8903,78.4461,31,0.2911,7945,3.7642,-37.3787
rg,1624907298543030163,1,0.062,0.8743,0.2795,464,13.6108,44.2505,-16.4185,82,1.1005,0.6693,1.6866,78.7664,31,0.2901,7900,3.7642,-35.7737
rg,1624907298543049457,1,0.2229,0.9871,0.178,465,26.123,24.6582,-12.8784,82,1.1015,0.6693,1.8119,79.8619,31,0.2901,7970,3.7642,-34.9001
rg,1624907298543066820,1,0.3545,0.9761,0.2017,466,24.8413,26.062,-10.8032,82,1.1025,0.6703,1.5778,80.8114,31,0.2901,8164,3.7642,-33.949
rg,1624907298543084275,1,0.3618,0.9595,0.2219,467,24.5972,40.9546,-15.3198,82,1.1035,0.6713,1.5819,81.6793,31,0.2891,8014,3.7642,-32.4278
rg,1624907298543101877,1,0.2036,1.01,0.2207,468,28.3203,46.3867,-18.3105,82,1.1035,0.6713,2.0495,82.6954,31,0.2871,8195,3.7642,-30.6927
rg,1624907298543118945,1,0.188,1.0142,0.23,469,29.9683,44.1895,-17.2729,82,1.1045,0.6723,2.4123,83.7133,31,0.2851,8062,3.7642,-29.0269
rg,1624907298543135903,1,0.2,1.1191,0.1838,470,32.8369,38.0249,-17.0288,82,1.1055,0.6733,2.8172,84.8435,32,0.2801,11017,3.7642,-27.4213
rg,1624907298543153340,1,0.1106,1.1267,0.1736,471,22.583,45.6543,-20.5078,82,1.1065,0.6743,3.4455,85.6845,32,0.2771,8128,3.7642,-25.6725
rg,1624907298543170445,1,0.0088,1.0212,0.2109,472,11.1084,40.4663,-18.7378,82,1.1065,0.6763,4.0166,85.8921,32,0.2741,8417,3.7642,-24.1271
rg,1624907298543205429,1,0.1248,0.9194,0.2146,473,9.8877,28.0762,-17.8223,82,1.1075,0.6763,4.3472,85.9952,32,0.2731,8199,3.7642,-23.0767
rg,1624907298543227206,1,0.0862,0.8792,0.2305,474,9.8877,27.771,-21.8506,82,1.1075,0.6783,4.9061,86.0379,31,0.2721,8271,3.7642,-22.0548
rg,1624907298543247364,1,0.1914,0.9331,0.1375,475,13.6108,21.7896,-20.874,82,1.1075,0.6783,5.1497,86.4664,31,0.2731,8144,3.7642,-21.2499
rg,1624907298543266787,1,0.2078,0.9238,0.1204,476,12.4512,23.0103,-19.9585,82,1.1085,0.6783,5.3521,86.8671,31,0.2751,8375,3.7642,-20.3869
rg,1624907298543286688,1,0.2024,0.949,0.1165,477,14.2822,23.0713,-17.8223,82,1.1085,0.6783,5.429,87.3562,31,0.2761,8197,3.7642,-19.5108
rg,1624907298543305559,1,0.2607,0.9758,0.0308,478,19.6533,23.0713,-17.0288,82,1.1095,0.6793,5.3472,88.2443,31,0.2781,8492,3.7642,-18.6102
rg,1624907298543327539,1,0.2766,1.0042,-0.0112,479,20.1416,27.5879,-17.8833,82,1.1095,0.6793,5.2739,89.2286,31,0.2811,8267,3.7642,-17.5125
rg,1624907298543349206,1,0.2334,1.0342,0.0259,480,19.2871,31.7383,-18.7988,82,1.1105,0.6793,5.3231,90.0767,31,0.2831,8492,3.7642,-16.2462
rg,1624907298896727075,1,0.0901,0.9607,-0.0576,481,23.6816,32.5928,-20.1416,82,1.1115,0.6813,5.5491,91.3821,31,0.2931,25215,3.7642,-15.112
rg,1624907298896779017,1,0.1724,1.0139,-0.1116,482,24.7192,22.2168,-16.7236,82,1.1125,0.6813,5.5867,92.6377,31,0.2941,10658,3.7642,-14.1812
rg,1624907298896810726,1,0.177,1.0417,-0.1182,483,23.0103,20.4468,-18.0054,82,1.1125,0.6823,5.6588,93.7787,31,0.2971,7807,3.7642,-13.3086
rg,1624907298896839677,1,0.198,1.0579,-0.123,484,15.2588,19.043,-17.6392,82,1.1135,0.6823,5.6667,94.5671,31,0.2991,7837,3.7642,-12.484
rg,1624907298896867689,1,0.1309,1.0798,-0.0603,485,11.8408,18.5547,-18.8599,82,1.1135,0.6833,5.8875,94.9389,31,0.3011,7848,3.7642,-11.6228
rg,1624907298896893347,1,0.1206,1.0674,-0.0625,486,6.2866,18.3105,-19.5923,82,1.1135,0.6833,6.1118,95.1962,31,0.3021,7882,3.7642,-10.8247
rg,1624907298896920844,1,0.0706,1.0774,-0.0339,487,3.0518,13.1836,-18.3716,82,1.1145,0.6843,6.4013,95.2324,31,0.3031,7913,3.7642,-10.2418
rg,1624907298897020313,1,0.1372,1.1064,-0.0144,488,-0.9766,4.9438,-17.9443,82,1.1155,0.6853,6.565,95.0297,31,0.3031,7834,3.7642,-9.9955
rg,1624907298897051379,1,0.1716,1.094,0.0386,489,-3.9673,3.6621,-18.3716,82,1.1155,0.6853,6.6726,94.5104,31,0.3031,7907,3.7642,-9.7792
rg,1624907298897077975,1,0.1841,1.0723,0.0383,490,-8.606,4.6387,-17.4561,82,1.1165,0.6863,6.7099,93.9205,31,0.3031,7841,3.7642,-9.5653
rg,1624907298897105086,1,0.1426,0.9011,0.0337,491,-12.0239,6.6528,-23.1323,82,1.1165,0.6863,6.9973,93.2239,31,0.3031,7999,3.7642,-9.2606
rg,1624907298897131517,1,0.0879,0.8594,0.1045,492,-14.6484,8.667,-23.6816,82,1.1175,0.6873,7.5499,92.095,31,0.3031,7833,3.7642,-8.9316
rg,1624907298897159786,1,0.0554,0.874,0.1516,493,-6.897,-2.1973,-20.5078,82,1.1175,0.6873,7.9361,91.3202,31,0.3031,8025,3.7642,-9.053
rg,1624907298897186879,1,0.1821,0.9841,0.0718,494,1.4038,-14.9536,-16.7847,82,1.1175,0.6873,7.9026,91.0636,31,0.3031,7853,3.7642,-9.6684
rg,1624907298897212574,1,0.1663,1.0439,0.0515,495,-1.9531,-9.3994,-18.1274,82,1.1175,0.6873,7.9689,90.7654,31,0.3041,12797,3.7642,-10.0532
rg,1624907298897240568,1,0.137,1.1064,0.0552,496,-5.4932,-10.6812,-17.5781,82,1.1175,0.6873,8.0849,90.3269,31,0.3041,7955,3.7642,-10.4934
rg,1624907298897267274,1,0.146,1.1887,0.0198,497,-9.1553,-14.7095,-17.7002,82,1.1175,0.6873,8.2004,89.8105,31,0.3061,9480,3.7642,-11.0891
rg,1624907298897294330,1,0.1675,1.2166,0.0059,498,-12.3291,-16.8457,-17.2729,82,1.1175,0.6873,8.2395,89.2267,31,0.3082,8078,3.7642,-11.7669
rg,1624907298897321920,1,0.198,1.2473,-0.0081,499,-22.9492,-16.1743,-15.625,82,1.1175,0.6873,8.175,88.2446,31,0.3122,8224,3.7642,-12.4198
rg,1624907298897350447,1,0.2659,1.2578,0.0269,500,-31.25,-11.4746,-11.8408,82,1.1185,0.6863,7.8468,86.9348,31,0.3152,9285,3.7642,-12.8889
rg,1624907298897378515,1,0.22,1.1746,0.0991,501,-40.1001,1.2207,-11.4136,82,1.1175,0.6863,7.5848,85.2509,31,0.3192,8225,3.7642,-12.868
rg,1624907298897406509,1,0.1536,1.1357,0.1213,502,-41.4429,4.2725,-12.146,82,1.1175,0.6863,7.484,83.5426,31,0.3272,8084,3.7642,-12.7406
rg,1624907298897480227,1,0.0776,1.03,0.1328,503,-40.0391,2.1362,-10.376,82,1.1175,0.6863,7.4403,81.8962,31,0.3392,8266,3.7642,-12.7051
rg,1624907298897516222,1,0.0693,0.9346,0.1289,504,-31.3721,-5.9204,-11.1084,82,1.1165,0.6853,7.383,80.5983,31,0.3542,8120,3.7642,-13.0018
rg,1624907298897545577,1,0.0435,0.9038,0.0894,505,-30.2734,-8.1177,-8.7891,82,1.1155,0.6853,7.3775,79.5826,31,0.3762,8289,3.7642,-13.3493
rg,1624907298897573479,1,0.0859,0.842,0.0571,506,-23.5596,-13.2446,-4.0283,82,1.1155,0.6853,6.9205,78.8172,31,0.3892,8140,3.7642,-13.8671
rg,1624907298897616647,1,-0.0247,0.8601,0.0344,507,-14.5874,-16.6016,-12.0239,82,1.1165,0.6843,7.0557,78.4822,31,0.4052,11050,3.7642,-14.5749
rg,1624907298897647510,1,-0.0295,0.8489,0.0698,508,-10.1318,-27.5879,-13.916,82,1.1165,0.6843,7.1806,78.1851,31,0.4152,8849,3.7642,-15.7435
rg,1624907298897674714,1,0.0962,0.8281,0.0918,509,-3.418,-32.7759,-17.0288,82,1.1175,0.6843,7.0405,78.074,31,0.4222,8433,3.7642,-17.1484
rg,1624907298897702321,1,0.0789,0.855,0.1204,510,-0.9155,-28.8086,-20.1416,82,1.1175,0.6833,7.3179,78.13,31,0.4262,8247,3.7642,-18.1962
rg,1624907298897727943,1,0.0413,0.8442,0.1418,511,2.4414,-16.1133,-27.71,82,1.1175,0.6833,7.8715,78.1913,31,0.4282,8382,3.7642,-19.0477
rg,1624907298897756838,1,0.0063,0.8613,0.1274,512,8.667,-14.3433,-31.0059,82,1.1185,0.6833,8.6409,78.5407,31,0.4252,8443,3.7642,-19.8479
rg,1624907299246331009,1,0.1836,1.0413,0.198,513,5.6152,-18.8599,-32.8369,82,1.1195,0.6843,8.9961,78.4774,31,0.4062,25118,3.7642,-20.8755
rg,1624907299246456204,1,0.22,1.0444,0.2085,514,-4.2114,-14.5264,-31.5552,82,1.1195,0.6853,9.3094,78.1711,31,0.4052,14182,3.7642,-21.7029
rg,1624907299246480013,1,0.262,1.0234,0.2239,515,-8.1787,-14.0381,-29.4189,82,1.1205,0.6853,9.4389,77.6791,31,0.4072,7910,3.7642,-22.5041
rg,1624907299246499757,1,0.2847,0.9629,0.2048,516,-5.6763,-9.8267,-29.1138,82,1.1205,0.6853,9.5071,77.3447,31,0.4082,7831,3.7642,-23.1391
rg,1624907299246519482,1,0.2864,0.9058,0.2104,517,-5.3711,-3.2959,-26.6724,82,1.1215,0.6863,9.497,77.0392,31,0.4082,7674,3.7642,-23.5048
rg,1624907299246604601,1,0.3022,0.8931,0.2122,518,-3.9062,-0.1831,-26.4893,82,1.1215,0.6863,9.626,76.808,31,0.4062,7866,3.7642,-23.7525
rg,1624907299246629791,1,0.1279,0.9402,0.1965,519,4.0894,6.5308,-28.7476,82,1.1215,0.6863,10.1278,77.0111,31,0.4052,7937,3.7642,-23.7468
rg,1624907299246648283,1,0.0557,0.948,0.1965,520,9.7046,-6.2866,-30.4565,89,1.1215,0.6863,10.7291,77.3402,31,0.4062,7937,3.7587,-24.2606
rg,1624907299246667658,1,0.0667,0.9465,0.1865,521,9.9487,-12.7563,-31.1279,89,1.1215,0.6863,11.2558,77.6342,31,0.4092,7829,3.7587,-25.0302
rg,1624907299246688561,1,0.1802,0.9629,0.1956,522,9.0332,-21.2402,-34.9731,89,1.1215,0.6863,11.6021,77.7874,31,0.4122,8579,3.7587,-26.1713
rg,1624907299246708875,1,0.1982,0.9658,0.2197,523,10.8643,-19.8975,-37.5977,89,1.1215,0.6863,12.0179,77.9538,31,0.4142,7839,3.7587,-27.2909
rg,1624907299246727459,1,0.1621,0.9673,0.1965,524,11.9629,-16.9678,-38.6353,89,1.1225,0.6873,12.5247,78.2409,31,0.4182,8470,3.7587,-28.2866
rg,1624907299246746852,1,0.2576,0.988,0.1675,525,14.3433,-19.2871,-35.2783,89,1.1215,0.6863,12.7203,78.6508,31,0.4212,8044,3.7587,-29.3318
rg,1624907299246765768,1,0.2063,0.9436,0.1384,526,14.5264,-10.1929,-33.4473,89,1.1215,0.6863,12.9944,79.1856,31,0.4242,8003,3.7587,-29.98
rg,1624907299246786854,1,0.1028,0.8857,0.1772,527,17.2119,-8.728,-34.668,89,1.1215,0.6863,13.5304,79.6966,31,0.4272,7895,3.7587,-30.5982
rg,1624907299246819625,1,0.0691,0.8855,0.1821,528,20.813,-14.2822,-35.6445,89,1.1205,0.6873,14.1322,80.2587,31,0.4292,8036,3.7587,-31.4462
rg,1624907299246838577,1,0.1436,0.8979,0.2061,529,29.1748,-24.1089,-37.1704,89,1.1205,0.6873,14.5521,80.9738,31,0.4312,8004,3.7587,-32.7121
rg,1624907299246856517,1,0.2087,0.9771,0.1375,530,32.4707,-24.231,-39.4287,89,1.1205,0.6873,14.9515,81.9816,31,0.4342,8064,3.7587,-33.9394
rg,1624907299246873538,1,0.217,0.9802,0.0974,531,30.3955,-21.1792,-39.3677,89,1.1205,0.6873,15.3538,82.9904,31,0.4362,8037,3.7587,-35.0034
rg,1624907299246891036,1,0.3481,0.9758,0.1448,532,26.3062,-10.9253,-40.5273,89,1.1215,0.6873,15.611,83.7985,31,0.4382,8143,3.7587,-35.6656
rg,1624907299246928370,1,0.3923,1.0317,0.0801,533,28.1982,2.8076,-39.3066,89,1.1215,0.6883,15.8302,84.9656,31,0.4402,8059,3.7587,-35.6988
rg,1624907299246947046,1,0.334,1.0295,0.0415,534,27.0386,15.0146,-37.6587,89,1.1205,0.6883,16.1037,86.2757,31,0.4392,8201,3.7587,-35.1752
rg,1624907299246964397,1,0.2517,1.0254,0.0217,535,20.2026,22.2778,-31.7383,89,1.1205,0.6883,16.2772,87.4065,31,0.4372,8177,3.7587,-34.3005
rg,1624907299246981804,1,0.3154,1.0083,0.0398,536,16.1133,20.5078,-27.1606,89,1.1195,0.6883,16.1248,88.275,31,0.4332,8250,3.7587,-33.4913
rg,1624907299246998659,1,0.3503,1.0454,0.0242,537,14.4043,23.0103,-25.5737,89,1.1195,0.6883,15.8721,89.0484,31,0.4352,8228,3.7587,-32.5761
rg,1624907299247016212,1,0.3022,1.0037,0.0044,538,8.3618,36.8042,-23.1323,89,1.1185,0.6883,15.5748,89.8081,31,0.4282,8362,3.7587,-31.0534
rg,1624907299247033821,1,0.1804,0.981,0.0554,539,0,41.2598,-22.9492,89,1.1175,0.6883,15.4884,90.1296,31,0.4222,8272,3.7587,-29.3743
rg,1624907299247050437,1,0.1704,0.9158,0.075,540,-0.7935,38.0249,-20.6299,89,1.1175,0.6883,15.1838,90.3127,31,0.4142,8310,3.7587,-27.8993
rg,1624907299247067236,1,0.1846,0.9331,0.0625,541,0.3662,35.2173,-17.395,89,1.1165,0.6883,14.8525,90.5256,31,0.4042,8796,3.7587,-26.4794
rg,1624907299247084017,1,0.1675,1.0071,0.0278,542,-4.3945,39.7339,-18.2495,89,1.1155,0.6883,14.6209,90.6708,31,0.3942,8280,3.7587,-24.8494
rg,1624907299247101092,1,0.1265,0.9495,0.0559,543,-14.7705,40.5884,-18.5547,89,1.1165,0.6893,14.4816,90.3259,31,0.3872,8346,3.7587,-23.2026
rg,1624907299247119198,1,0.1248,0.9668,0.073,544,-16.4185,38.5742,-16.9067,89,1.1165,0.6893,14.2359,89.7995,31,0.3802,8933,3.7587,-21.6411
rg,1624907299595239329,1,0.0918,1.0132,0.0698,545,-32.5317,45.5322,-3.7231,89,1.1165,0.6883,13.6236,88.733,31,0.3772,27035,3.7587,-19.8104
rg,1624907299595283619,1,0.1399,1.0198,0.1501,546,-34.79,43.5181,-1.0986,89,1.1165,0.6883,12.8927,87.4525,31,0.3762,10380,3.7587,-18.0835
rg,1624907299595306012,1,0.167,1.0349,0.1111,547,-33.7524,39.7949,-0.3662,89,1.1165,0.6883,12.1348,86.2996,31,0.3752,7799,3.7587,-16.4798
rg,1624907299595355563,1,0.1936,1.0415,0.1218,548,-35.4614,42.1143,1.5259,89,1.1155,0.6873,11.4014,84.9933,31,0.3722,7798,3.7587,-14.7984
rg,1624907299595377423,1,0.071,0.9844,0.2251,549,-34.8511,52.9785,2.3193,89,1.1145,0.6863,10.9081,83.6875,31,0.3692,7738,3.7587,-12.6965
rg,1624907299595397203,1,-0.0168,0.8564,0.2908,550,-24.5972,47.6074,-1.0376,89,1.1135,0.6863,10.7891,82.5517,31,0.3662,7862,3.7587,-10.8686
rg,1624907299595418289,1,-0.0222,0.8511,0.3042,551,-14.2822,39.7339,-2.3193,89,1.1135,0.6863,10.6907,81.8726,31,0.3632,7952,3.7587,-9.3501
rg,1624907299595439155,1,0.0107,0.884,0.2449,552,3.6011,27.5879,-4.2725,89,1.1135,0.6853,10.5647,81.9053,31,0.3602,7967,3.7587,-8.3187
rg,1624907299595458990,1,0.0674,0.9353,0.199,553,10.5591,21.4233,-1.6479,89,1.1135,0.6843,10.1711,82.3084,31,0.3582,7802,3.7587,-7.4963
rg,1624907299595478163,1,0.1089,0.9512,0.1353,554,11.7798,19.043,-0.4883,89,1.1135,0.6843,9.634,82.8796,32,0.3572,7958,3.7587,-6.7383
rg,1624907299595497263,1,0.2273,1.0371,0.0876,555,9.3994,15.686,1.4648,89,1.1125,0.6823,8.7967,83.4331,32,0.3552,7802,3.7587,-6.0887
rg,1624907299595515755,1,0.2927,1.1018,0.0913,556,1.0986,19.4092,0.2441,89,1.1125,0.6813,7.9589,83.6478,32,0.3552,7880,3.7587,-5.2975
rg,1624907299595534118,1,0.2888,1.1013,0.071,557,-3.0518,25.3906,-1.2817,89,1.1125,0.6783,7.2415,83.7491,32,0.3542,8041,3.7587,-4.2697
rg,1624907299595552463,1,0.2061,1.0627,0.1042,558,-10.376,33.6304,-5.127,89,1.1125,0.6753,6.8786,83.5085,31,0.3542,7939,3.7587,-2.9391
rg,1624907299595570624,1,0.0232,1.0107,0.1907,559,-11.4136,36.499,-5.9204,89,1.1125,0.6733,7.0852,83.0003,31,0.3532,8104,3.7587,-1.4406
rg,1624907299595588804,1,-0.0732,0.9919,0.2402,560,-10.3149,36.1328,-9.0942,89,1.1115,0.6693,7.5046,82.4867,31,0.3552,7971,3.7587,-0.0733
rg,1624907299595607388,1,-0.062,0.9058,0.186,561,3.7231,21.2402,-1.9531,89,1.1115,0.6673,7.5433,82.5665,31,0.3542,8086,3.7587,0.7437
rg,1624907299595626229,1,0.0249,1.0532,0.1973,562,15.5029,12.6343,-1.4038,89,1.1125,0.6643,7.3084,83.1081,31,0.3552,9158,3.7587,1.2234
rg,1624907299595644280,1,0.103,1.0872,0.1326,563,19.9585,14.8926,-1.6479,89,1.1125,0.6613,6.9379,83.9614,31,0.3572,10245,3.7587,1.8085
rg,1624907299595661282,1,0.1409,1.1521,0.0718,564,18.1885,12.8784,-4.2114,89,1.1125,0.6603,6.6065,84.8307,31,0.3582,8054,3.7587,2.3167
rg,1624907299595700014,1,0.1643,1.0349,-0.0835,565,5.4321,16.8457,-5.4932,89,1.1135,0.6583,6.2698,85.4922,31,0.3582,8259,3.7587,3.016
rg,1624907299595720622,1,0.158,1.1694,0.0388,566,-0.1831,14.4043,-7.5073,89,1.1135,0.6563,6.0459,85.5625,31,0.3562,8169,3.7587,3.5749
rg,1624907299595737937,1,0.1548,1.042,-0.0647,567,-12.146,21.0571,-11.0474,89,1.1135,0.6553,5.9804,85.4626,31,0.3572,8256,3.7587,4.4204
rg,1624907299595757220,1,0.1047,1.0332,-0.0229,568,-24.1699,25.6958,-13.7939,89,1.1135,0.6533,6.1483,84.8166,31,0.3572,8175,3.7587,5.4323
rg,1624907299595775216,1,0.071,1.0483,0.0906,569,-32.5928,19.7144,-12.4512,89,1.1145,0.6523,6.3226,83.5889,31,0.3562,8545,3.7587,6.1778
rg,1624907299595793376,1,0.0828,1.1191,0.2141,570,-32.8979,12.085,-15.686,89,1.1145,0.6523,6.5876,82.1282,31,0.3572,8237,3.7587,6.5699
rg,1624907299595811813,1,0.0767,1.0386,0.177,571,-33.8745,12.8784,-13.2446,89,1.1145,0.6503,6.7595,80.738,31,0.3572,8430,3.7587,7.0019
rg,1624907299595829367,1,0.179,0.9529,0.1172,572,-29.9072,9.9487,-12.146,89,1.1145,0.6493,6.6263,79.6535,31,0.3582,8264,3.7587,7.3327
rg,1624907299595847271,1,0.0837,0.9578,0.2092,573,-31.0669,20.6299,-15.564,89,1.1145,0.6493,7.3455,78.4198,31,0.3582,8433,3.7587,8.0738
rg,1624907299595864456,1,-0.0244,0.9138,0.2739,574,-24.1089,15.2588,-15.8081,89,1.1135,0.6483,7.8549,77.2989,31,0.3582,8245,3.7587,8.519
rg,1624907299595882875,1,0.1067,1.012,0.2068,575,-12.3901,6.5918,-14.0381,89,1.1135,0.6473,7.917,76.8535,31,0.3582,8436,3.7587,8.6619
rg,1624907299595900870,1,0.1301,1.0034,0.2175,576,-13.6719,11.1694,-14.2822,89,1.1135,0.6473,7.978,76.3715,31,0.3582,8343,3.7587,8.9769
rg,1624907299955651814,1,0.1326,1.0007,0.1694,577,-7.8125,7.3242,-12.5122,89,1.1135,0.6473,7.9458,76.2615,31,0.3592,25487,3.7587,9.1672
rg,1624907299955695753,1,0.1423,1.0115,0.1934,578,-10.437,11.8408,-15.0146,89,1.1135,0.6473,8.0185,75.9904,31,0.3592,8662,3.7587,9.506
rg,1624907299955756327,1,0.1199,1.001,0.1982,579,-9.3994,12.9395,-16.4185,89,1.1135,0.6473,8.1995,75.7611,31,0.3602,8245,3.7587,9.8704
rg,1624907299955781884,1,0.1206,1.0259,0.2126,580,-9.2163,11.2915,-16.1133,89,1.1145,0.6473,8.3518,75.5198,31,0.3602,9409,3.7587,10.169
rg,1624907299955801665,1,0.144,1.03,0.209,581,-8.9111,9.7046,-15.7471,89,1.1145,0.6473,8.4223,75.3014,31,0.3612,7833,3.7587,10.4094
rg,1624907299955821997,1,0.1738,1.0518,0.1748,582,-11.0474,11.0474,-15.564,89,1.1145,0.6483,8.443,75.0943,31,0.3642,8845,3.7587,10.715
rg,1624907299955841501,1,0.1787,1.0356,0.2004,583,-13.855,13.3057,-15.0757,89,1.1145,0.6483,8.4545,74.7364,31,0.3672,8562,3.7587,11.1038
rg,1624907299955863140,1,0.1814,1.0378,0.2366,584,-14.8926,15.1367,-14.2212,89,1.1145,0.6493,8.4553,74.2786,31,0.3732,7970,3.7587,11.5584
rg,1624907299955882037,1,0.3496,1.0413,0.2773,585,-14.5264,15.9912,-14.2212,89,1.1155,0.6503,7.9257,73.9193,31,0.3772,7901,3.7587,11.9163
rg,1624907299956099287,1,0.1843,1.0249,0.2417,586,-12.3901,18.8599,-13.916,89,1.1155,0.6513,7.9264,73.4561,31,0.3782,8132,3.7587,12.4908
rg,1624907299956125489,1,0.1084,0.8328,0.3391,587,-13.0005,30.8228,-16.1133,89,1.1155,0.6533,8.3133,72.8411,31,0.3812,7984,3.7587,13.4692
rg,1624907299956144239,1,0.0393,0.8057,0.4048,588,5.7983,27.8931,-18.7988,89,1.1165,0.6543,8.9317,72.8059,31,0.3832,8009,3.7587,14.2703
rg,1624907299956164203,1,-0.0273,0.8433,0.3469,589,15.3809,19.5923,-15.5029,89,1.1165,0.6563,9.3463,73.5814,31,0.3852,7988,3.7587,14.5951
rg,1624907299956184093,1,0.1375,0.8384,0.3582,590,28.9307,8.4229,-12.9395,89,1.1175,0.6583,9.2315,74.8966,31,0.3872,9115,3.7587,14.7599
rg,1624907299956204775,1,0.1165,0.9678,0.2957,591,40.7715,9.7046,-12.6953,89,1.1175,0.6603,9.1971,76.4754,31,0.3872,8610,3.7587,14.9945
rg,1624907299956224408,1,0.2131,1.0271,0.2544,592,42.9077,9.5825,-7.7515,89,1.1185,0.6623,8.7803,78.2074,31,0.3872,8197,3.7587,15.2912
rg,1624907299956243728,1,0.2126,1.0867,0.2153,593,40.7104,13.6719,-4.0283,89,1.1195,0.6643,8.2738,79.9177,31,0.3882,8094,3.7587,15.7963
rg,1624907299956294366,1,0.2146,1.1375,0.1934,594,38.147,13.3667,-2.1362,89,1.1195,0.6663,7.708,81.5162,31,0.3902,8154,3.7587,16.3082
rg,1624907299956324836,1,0.3098,1.1616,0.1067,595,27.5269,10.3149,6.0425,89,1.1205,0.6683,6.6507,82.7824,31,0.3912,8159,3.7587,16.7609
rg,1624907299956347928,1,0.3699,1.0967,0.0747,596,12.146,20.9961,7.0801,89,1.1205,0.6703,5.4973,83.472,31,0.3942,8204,3.7587,17.6432
rg,1624907299956369622,1,0.3306,1.0588,0.0842,597,5.0049,32.0435,1.77,89,1.1205,0.6723,4.869,83.842,31,0.3962,8167,3.7587,18.9356
rg,1624907299956394444,1,0.123,1.02,0.106,598,-6.7139,41.3208,-4.2725,89,1.1215,0.6733,4.7491,83.7047,31,0.3982,8254,3.7587,20.5685
rg,1624907299956419947,1,0.2039,0.8472,0.1328,599,-10.6812,34.9731,-2.9297,89,1.1215,0.6743,4.3108,83.271,31,0.4002,11594,3.7587,21.9457
rg,1624907299956454042,1,-0.0508,0.8362,0.2466,600,-3.7842,51.1475,-19.8364,89,1.1225,0.6753,5.298,82.8827,31,0.4012,8821,3.7587,23.8612
rg,1624907299956475074,1,-0.1951,0.8872,0.2368,601,5.188,29.7852,-13.1226,89,1.1225,0.6763,6.2269,82.8825,31,0.4022,8234,3.7587,24.9557
rg,1624907299956494191,1,-0.0063,1.0464,0.2437,602,12.8784,7.2021,-9.4604,89,1.1225,0.6763,6.4024,83.1691,32,0.4042,8396,3.7587,25.171
rg,1624907299956513493,1,0.0723,1.1033,0.1968,603,13.0005,1.0376,0.9766,89,1.1235,0.6773,5.9693,83.5475,32,0.4072,8398,3.7587,25.2005
rg,1624907299956532611,1,0.3269,1.1492,0.1631,604,9.2163,-5.0049,13.855,89,1.1235,0.6773,4.5579,83.8262,32,0.4112,8369,3.7587,25.0527
rg,1624907299956552446,1,0.3188,1.22,0.1357,605,-2.1362,9.0332,17.1509,89,1.1235,0.6793,3.1711,83.7488,32,0.4182,8331,3.7587,25.4862
rg,1624907299956571362,1,0.2998,1.2703,0.1089,606,-10.9863,11.7188,17.0288,89,1.1245,0.6793,1.7541,82.9198,31,0.4272,8513,3.7587,26.0482
rg,1624907299956590884,1,0.3374,1.2446,0.1055,607,-34.79,13.2446,23.0103,89,1.1245,0.6793,0.2548,81.6116,31,0.4392,8615,3.7587,26.7061
rg,1624907299956608990,1,0.3486,1.2256,0.1501,608,-55.4199,24.0479,28.5645,89,1.1245,0.6803,-1.3407,79.4243,31,0.4512,8589,3.7587,27.8539
rg,1624907300307082521,1,0.1389,1.0054,0.2236,609,-94.7876,39.7339,28.7476,89,1.1245,0.6803,-2.3612,75.4606,31,0.4872,26049,3.7587,29.6643
rg,1624907300307125980,1,0.1125,0.9553,0.2632,610,-100.4028,37.2925,28.5645,89,1.1245,0.6803,-3.2335,71.2296,31,0.4952,8549,3.7587,31.4691
rg,1624907300307146319,1,0.1252,0.8989,0.3003,611,-100.0366,38.8184,27.8931,89,1.1245,0.6803,-3.8974,67.1161,31,0.5002,7783,3.7587,33.3247
rg,1624907300307198429,1,0.1152,0.8674,0.3188,612,-94.1772,42.5415,23.2544,89,1.1245,0.6803,-4.1607,63.3114,31,0.5052,7759,3.7587,35.2611
rg,1624907300307219303,1,0.1104,0.8521,0.3298,613,-88.501,44.7388,21.9727,89,1.1245,0.6793,-4.1963,59.8366,31,0.5092,7920,3.7587,37.2465
rg,1624907300307238336,1,0.0691,0.8003,0.3726,614,-77.0874,46.875,14.1602,89,1.1245,0.6793,-3.7125,56.8209,31,0.5133,7745,3.7587,39.131
rg,1624907300307256816,1,0.0283,0.79,0.3877,615,-57.251,43.1519,5.249,89,1.1255,0.6793,-2.8488,54.7131,31,0.5163,8118,3.7587,40.6616
rg,1624907300307275279,1,-0.0081,0.7949,0.3772,616,-47.7295,38.7573,1.4648,89,1.1255,0.6793,-1.8881,53.4795,31,0.5203,8297,3.7587,41.6375
rg,1624907300307292710,1,-0.0645,0.7979,0.3792,617,-32.1045,27.2827,-7.5073,89,1.1255,0.6793,-0.78,52.9392,31,0.5223,7872,3.7587,42.0501
rg,1624907300307311209,1,-0.061,0.8152,0.3506,618,-16.7236,14.4653,-13.1226,89,1.1255,0.6793,0.1707,52.7997,31,0.5253,7797,3.7587,42.1887
rg,1624907300307329229,1,-0.0186,0.8306,0.3184,619,-5.7373,1.3428,-15.4419,89,1.1266,0.6803,0.7362,53.1916,31,0.5283,7860,3.7587,41.8631
rg,1624907300307347029,1,0.0308,0.8264,0.3005,620,-1.6479,-2.9907,-15.2588,89,1.1266,0.6803,0.9308,53.7506,31,0.5303,7854,3.7587,41.4125
rg,1624907300307365141,1,0.104,0.8564,0.2822,621,8.0566,-2.8687,-16.5405,89,1.1266,0.6803,1.105,54.7508,31,0.5323,7876,3.7587,40.9435
rg,1624907300307382518,1,0.0981,0.8826,0.2698,622,15.0757,-0.6104,-17.0898,89,1.1266,0.6813,1.3711,56.0405,31,0.5333,7860,3.7587,40.5478
rg,1624907300307399728,1,0.1096,0.8926,0.2615,623,17.5171,-0.9766,-18.3716,89,1.1276,0.6813,1.6454,57.4008,31,0.5363,8022,3.7587,40.1268
rg,1624907300307421191,1,0.1709,0.9211,0.2939,624,21.3623,-2.7466,-18.8599,89,1.1276,0.6813,1.7701,58.8022,31,0.5373,7902,3.7587,39.6483
rg,1624907300307438420,1,0.2358,0.958,0.2947,625,23.0103,-0.2441,-24.0479,89,1.1276,0.6813,2.006,60.2317,31,0.5393,8069,3.7587,39.1649
rg,1624907300307457158,1,0.2231,0.9653,0.2839,626,22.9492,4.8218,-24.9634,89,1.1286,0.6813,2.4026,61.6373,31,0.5403,7955,3.7587,38.8634
rg,1624907300307518858,1,0.1851,0.9714,0.303,627,20.9351,7.6904,-26.9165,89,1.1286,0.6813,2.9969,62.8785,31,0.5423,8163,3.7587,38.6511
rg,1624907300307544554,1,0.2229,0.9851,0.2993,628,18.9819,7.2021,-28.1372,89,1.1286,0.6823,3.534,64.0046,31,0.5433,8001,3.7587,38.4247
rg,1624907300307564121,1,0.2405,0.9902,0.3113,629,16.8457,8.1787,-28.1372,89,1.1286,0.6823,4.0395,64.9817,31,0.5443,8202,3.7587,38.2545
rg,1624907300307583043,1,0.2346,0.9878,0.3169,630,10.9253,11.8408,-27.5269,89,1.1296,0.6823,4.5778,65.6827,31,0.5453,8005,3.7587,38.2459
rg,1624907300307602131,1,0.2515,0.9761,0.3274,631,5.9204,12.9395,-24.0479,89,1.1296,0.6823,4.9493,66.1357,31,0.5463,8197,3.7587,38.3457
rg,1624907300307622765,1,0.2339,0.9792,0.3374,632,-0.3052,15.1978,-22.0337,89,1.1296,0.6823,5.3064,66.3168,31,0.5483,12460,3.7587,38.567
rg,1624907300307640639,1,0.2483,0.9553,0.3643,633,-4.2114,12.7563,-19.5923,89,1.1296,0.6823,5.4864,66.2586,31,0.5493,8295,3.7587,38.7342
rg,1624907300307662138,1,0.2446,0.9487,0.3665,634,-5.4932,12.146,-18.6157,89,1.1306,0.6823,5.5186,66.0962,31,0.5503,8183,3.7587,38.9217
rg,1624907300307680048,1,0.2864,0.9255,0.387,635,-7.7515,12.9395,-16.9678,89,1.1306,0.6823,5.5138,65.8392,32,0.5503,8379,3.7587,39.1292
rg,1624907300307697829,1,0.2791,0.9202,0.3796,636,-8.1787,14.0991,-14.5874,89,1.1306,0.6833,5.4526,65.5927,32,0.5523,8461,3.7587,39.4164
rg,1624907300307717561,1,0.2588,0.9021,0.3699,637,-7.2632,15.8081,-14.8315,89,1.1306,0.6833,5.4619,65.4025,32,0.5533,8532,3.7587,39.76
rg,1624907300307736226,1,0.2488,0.8918,0.3691,638,-5.249,15.5029,-12.085,89,1.1306,0.6833,5.3825,65.2956,32,0.5543,8451,3.7587,40.1354
rg,1624907300307756418,1,0.2434,0.8809,0.3701,639,-4.8218,15.625,-13.1226,83,1.1316,0.6833,5.297,65.2353,31,0.5553,8464,3.7631,40.5212
rg,1624907300307773555,1,0.2539,0.8799,0.3635,640,-2.6245,15.3198,-11.5967,83,1.1316,0.6833,5.1859,65.2397,31,0.5563,8303,3.7631,40.8964
rg,1624907300656622949,1,0.2239,0.8896,0.3586,641,-1.5259,15.0146,-10.1318,83,1.1316,0.6833,5.0963,65.3163,31,0.5593,25177,3.7631,41.287
rg,1624907300656673384,1,0.2173,0.8965,0.3721,642,-1.8311,16.1743,-9.6436,83,1.1316,0.6833,5.0221,65.3509,31,0.5603,8617,3.7631,41.7258
rg,1624907300656694626,1,0.2104,0.8977,0.3813,643,-1.4648,16.7236,-10.2539,83,1.1316,0.6833,4.9984,65.381,31,0.5613,7654,3.7631,42.1729
rg,1624907300656714689,1,0.2268,0.9065,0.3809,644,-0.9155,17.334,-11.2915,83,1.1316,0.6833,4.992,65.4408,31,0.5623,8633,3.7631,42.6261
rg,1624907300656734145,1,0.2107,0.9185,0.3914,645,-0.3662,17.334,-11.9629,83,1.1316,0.6833,5.0499,65.5084,31,0.5633,7745,3.7631,43.0677
rg,1624907300656753583,1,0.2029,0.926,0.385,646,-0.6104,16.3574,-11.4746,83,1.1326,0.6833,5.0896,65.5814,31,0.5643,7883,3.7631,43.4841
rg,1624907300656772156,1,0.2207,0.939,0.3899,647,-0.4272,15.1367,-9.3994,83,1.1326,0.6843,5.0007,65.6588,31,0.5653,7926,3.7631,43.8906
rg,1624907300656790894,1,0.2336,0.9363,0.3855,648,0.1221,14.2822,-9.1553,83,1.1326,0.6843,4.8637,65.7584,31,0.5663,7765,3.7631,44.2709
rg,1624907300656809154,1,0.2488,0.9458,0.3877,649,-0.6104,14.4653,-8.0566,83,1.1326,0.6843,4.6683,65.8293,31,0.5663,7808,3.7631,44.6766
rg,1624907300656828260,1,0.2405,0.9426,0.3936,650,-0.7324,14.3433,-8.4229,83,1.1326,0.6843,4.5075,65.8762,31,0.5663,7770,3.7631,45.0708
rg,1624907300656847864,1,0.2334,0.9558,0.3713,651,-1.0986,14.8315,-7.0801,83,1.1326,0.6843,4.2968,65.9462,31,0.5683,7856,3.7631,45.5454
rg,1624907300656866105,1,0.2458,0.9426,0.373,652,-2.3193,17.334,-7.9346,83,1.1326,0.6843,4.1654,65.9728,31,0.5683,7871,3.7631,46.0607
rg,1624907300656884309,1,0.2432,0.949,0.3682,653,-3.7842,18.0054,-6.2866,83,1.1326,0.6843,3.9972,65.9573,31,0.5693,8051,3.7631,46.6283
rg,1624907300656901999,1,0.2141,0.9424,0.3606,654,-5.5542,20.1416,-5.0049,83,1.1326,0.6843,3.879,65.8879,31,0.5703,12332,3.7631,47.2952
rg,1624907300656920811,1,0.217,0.9448,0.3552,655,-7.2021,21.5454,-5.3711,83,1.1326,0.6843,3.7966,65.7701,31,0.5703,8041,3.7631,48.0077
rg,1624907300656968080,1,0.1882,0.9409,0.356,656,-7.0801,20.5688,-5.3711,83,1.1326,0.6843,3.7986,65.6034,31,0.5713,8092,3.7631,48.6412
rg,1624907300656989413,1,0.1643,0.9346,0.3606,657,-7.9346,17.2729,-4.6387,83,1.1326,0.6843,3.7349,65.4387,31,0.5723,8110,3.7631,49.2058
rg,1624907300657006421,1,0.168,0.9258,0.3633,658,-7.019,13.7329,-3.7231,83,1.1326,0.6843,3.573,65.2956,31,0.5723,7995,3.7631,49.6545
rg,1624907300657023706,1,0.1685,0.916,0.3645,659,-5.9814,11.6577,-4.5166,83,1.1326,0.6843,3.4088,65.1821,31,0.5733,9118,3.7631,50.0127
rg,1624907300657041339,1,0.1724,0.9143,0.3606,660,-6.3477,12.146,-4.7607,83,1.1336,0.6843,3.272,65.0721,31,0.5743,8585,3.7631,50.3845
rg,1624907300657059084,1,0.1685,0.9102,0.3718,661,-4.7607,10.9863,-4.6387,83,1.1336,0.6853,3.1128,64.9922,31,0.5753,8396,3.7631,50.7134
rg,1624907300657077638,1,0.1814,0.9119,0.3672,662,-2.7466,9.8877,-6.4087,83,1.1336,0.6853,2.9773,65.0023,31,0.5753,8073,3.7631,50.9725
rg,1624907300657096045,1,0.1702,0.9158,0.3796,663,-1.9531,9.8877,-6.6528,83,1.1336,0.6843,2.9322,65.07,31,0.5753,8262,3.7631,51.2271
rg,1624907300657116366,1,0.1687,0.9121,0.3828,664,-0.8545,9.8267,-8.1177,83,1.1336,0.6853,2.894,65.1182,31,0.5763,8107,3.7631,51.4536
rg,1624907300657134552,1,0.1724,0.908,0.3716,665,1.2207,6.5918,-7.3853,83,1.1336,0.6853,2.7657,65.2617,31,0.5773,8252,3.7631,51.5757
rg,1624907300657153475,1,0.1716,0.9158,0.3767,666,1.5259,6.4087,-8.667,83,1.1336,0.6853,2.6385,65.4131,31,0.5783,8148,3.7631,51.6617
rg,1624907300657171974,1,0.1741,0.9136,0.3828,667,2.8076,5.188,-7.9346,83,1.1336,0.6853,2.5161,65.5866,31,0.5783,8400,3.7631,51.7236
rg,1624907300657190767,1,0.2009,0.9275,0.4004,668,4.3335,4.3335,-8.1787,83,1.1336,0.6853,2.3433,65.7884,31,0.5793,8222,3.7631,51.75
rg,1624907300657209524,1,0.2219,0.9268,0.394,669,4.7607,4.3335,-8.3008,83,1.1346,0.6853,2.1362,66.0115,31,0.5793,8409,3.7631,51.7758
rg,1624907300657226808,1,0.2312,0.9338,0.3906,670,4.4556,5.127,-8.728,83,1.1346,0.6853,1.9497,66.2526,31,0.5803,8295,3.7631,51.8262
rg,1624907300657285913,1,0.2441,0.9453,0.3945,671,5.249,6.5918,-9.9487,83,1.1346,0.6853,1.8159,66.4936,31,0.5803,8465,3.7631,51.9114
rg,1624907300657309179,1,0.2534,0.9634,0.397,672,5.3711,9.8267,-10.437,83,1.1346,0.6853,1.7454,66.7435,31,0.5803,8338,3.7631,52.1098
rg,1624907301001709055,1,0.2422,0.9697,0.385,673,2.5024,12.5122,-11.8408,83,1.1346,0.6853,1.7933,66.9003,31,0.5823,26097,3.7631,52.3881
rg,1624907301001747765,1,0.2256,0.968,0.374,674,0.3662,14.9536,-11.1084,83,1.1346,0.6853,1.8806,66.9899,31,0.5823,8602,3.7631,52.7699
rg,1624907301001768436,1,0.217,0.9622,0.3525,675,-1.2817,14.9536,-11.2305,83,1.1346,0.6853,1.9804,67.0499,31,0.5823,7675,3.7631,53.1521
rg,1624907301001787837,1,0.2048,0.9363,0.3662,676,-3.6621,13.6108,-10.6812,83,1.1346,0.6853,2.0528,66.9635,31,0.5833,8881,3.7631,53.4922
rg,1624907301001806409,1,0.2065,0.9331,0.3718,677,-4.1504,13.3667,-10.9863,83,1.1346,0.6853,2.1263,66.8466,31,0.5833,7852,3.7631,53.8173
rg,1624907301001846095,1,0.2007,0.9175,0.3789,678,-4.2725,12.4512,-9.7656,83,1.1346,0.6853,2.1463,66.7013,31,0.5843,7692,3.7631,54.1258
rg,1624907301001866121,1,0.2112,0.9087,0.3665,679,-4.3945,12.085,-10.6201,83,1.1346,0.6853,2.1062,66.5886,31,0.5843,7836,3.7631,54.4024
rg,1624907301001884639,1,0.2161,0.9045,0.3674,680,-3.2959,11.0474,-10.8643,83,1.1346,0.6853,2.1062,66.5024,31,0.5853,7722,3.7631,54.6403
rg,1624907301001905034,1,0.2075,0.8977,0.3752,681,-1.5259,11.5967,-10.0708,83,1.1346,0.6853,2.103,66.469,31,0.5853,8738,3.7631,54.9094
rg,1624907301001923146,1,0.218,0.9014,0.3826,682,-0.061,11.7188,-10.8643,83,1.1346,0.6863,2.1111,66.4831,31,0.5863,10008,3.7631,55.1697
rg,1624907301001940633,1,0.231,0.9075,0.3757,683,1.1597,9.5825,-11.2305,83,1.1346,0.6853,2.0723,66.5617,31,0.5863,8108,3.7631,55.3466
rg,1624907301001958451,1,0.2124,0.9026,0.3818,684,2.6245,9.6436,-11.4746,83,1.1356,0.6853,2.0831,66.6788,31,0.5863,7788,3.7631,55.5219
rg,1624907301001976876,1,0.2383,0.9207,0.3706,685,3.6621,9.4604,-12.8174,83,1.1356,0.6853,2.0904,66.8706,31,0.5873,7993,3.7631,55.6718
rg,1624907301001994768,1,0.2502,0.9236,0.3782,686,3.7231,9.7656,-11.7798,83,1.1356,0.6863,2.0398,67.0534,31,0.5883,7819,3.7631,55.9183
rg,1624907301002012199,1,0.2571,0.9263,0.3784,687,3.2959,11.7188,-11.5967,83,1.1356,0.6863,2.0028,67.2082,31,0.5883,7990,3.7631,56.1737
rg,1624907301002030385,1,0.2466,0.9424,0.375,688,2.2583,13.2446,-11.5967,83,1.1356,0.6863,2.0181,67.3378,31,0.5883,8026,3.7631,56.4875
rg,1624907301002048019,1,0.261,0.9287,0.376,689,1.4038,13.4277,-11.1084,83,1.1356,0.6863,2.0051,67.389,31,0.5883,8079,3.7631,56.8227
rg,1624907301002065285,1,0.259,0.9226,0.3843,690,-0.2441,13.5498,-11.4746,83,1.1356,0.6863,1.9871,67.3769,31,0.5883,7928,3.7631,57.1503
rg,1624907301002083084,1,0.2532,0.9285,0.396,691,0.3052,14.5264,-11.1694,83,1.1356,0.6863,1.9904,67.3697,31,0.5893,8066,3.7631,57.5178
rg,1624907301002100313,1,0.241,0.9143,0.4099,692,0.6104,15.3198,-12.3901,83,1.1356,0.6863,2.0723,67.335,31,0.5893,9486,3.7631,57.8945
rg,1624907301002128605,1,0.2466,0.9177,0.4055,693,1.5259,15.8691,-11.8408,83,1.1356,0.6863,2.1282,67.3517,31,0.5903,8167,3.7631,58.2999
rg,1624907301002146515,1,0.2441,0.918,0.4126,694,1.5869,15.625,-12.207,83,1.1356,0.6863,2.1983,67.3561,31,0.5903,8007,3.7631,58.6903
rg,1624907301002163339,1,0.2554,0.9216,0.4043,695,2.1973,15.7471,-12.3291,83,1.1356,0.6863,2.2488,67.4053,31,0.5903,8178,3.7631,59.0842
rg,1624907301002181065,1,0.2466,0.9238,0.3972,696,1.0986,16.7236,-12.3901,83,1.1356,0.6863,2.3319,67.4266,31,0.5913,8033,3.7631,59.5144
rg,1624907301002198643,1,0.2366,0.9175,0.3967,697,2.2583,16.5405,-11.7188,83,1.1356,0.6863,2.4016,67.4896,31,0.5913,8270,3.7631,59.948
rg,1624907301002215449,1,0.2305,0.908,0.397,698,1.5869,16.5405,-11.9629,83,1.1356,0.6863,2.4861,67.5148,31,0.5913,8339,3.7631,60.3782
rg,1624907301002232236,1,0.23,0.9158,0.3972,699,2.1973,16.4795,-12.5122,83,1.1356,0.6863,2.5907,67.57,31,0.5923,8317,3.7631,60.7982
rg,1624907301002249060,1,0.2239,0.9236,0.3977,700,2.1362,16.4795,-11.7798,83,1.1356,0.6873,2.6799,67.6277,31,0.5923,8128,3.7631,61.2301
rg,1624907301002265608,1,0.2217,0.9124,0.3877,701,2.6245,15.8081,-12.5122,83,1.1366,0.6863,2.7803,67.7124,31,0.5933,8442,3.7631,61.6271
rg,1624907301002282542,1,0.25,0.926,0.3843,702,1.6479,15.1978,-12.207,83,1.1356,0.6873,2.8024,67.7734,31,0.5933,8192,3.7631,62.0079
rg,1624907301002299458,1,0.2329,0.9114,0.4006,703,1.1597,16.5405,-12.0239,83,1.1356,0.6873,2.8981,67.7582,31,0.5933,8431,3.7631,62.5121
rg,1624907301002316485,1,0.2009,0.9016,0.3911,704,0.4883,17.7612,-12.0239,83,1.1356,0.6873,3.0413,67.7415,31,0.5933,8248,3.7631,62.9892
rg,1624907301356049466,1,0.2139,0.9114,0.4001,705,1.3428,13.5498,-12.2681,83,1.1356,0.6873,3.1051,67.7595,31,0.5943,26068,3.7631,63.3065
rg,1624907301356087600,1,0.2268,0.9197,0.3865,706,3.0518,12.8174,-11.4746,83,1.1356,0.6873,3.0973,67.8626,31,0.5953,8606,3.7631,63.6097
rg,1624907301356128956,1,0.2229,0.9133,0.3972,707,2.2583,12.0239,-11.5356,83,1.1356,0.6873,3.0873,67.9006,31,0.5953,7656,3.7631,63.882
rg,1624907301356148567,1,0.2258,0.9153,0.3862,708,2.9297,13.2446,-11.5967,83,1.1356,0.6873,3.0904,67.9908,31,0.5953,7830,3.7631,64.2003
rg,1624907301356166851,1,0.2332,0.9226,0.3774,709,3.1738,12.8174,-11.5356,83,1.1356,0.6873,3.0799,68.0975,31,0.5963,7867,3.7631,64.4601
rg,1624907301356184657,1,0.2407,0.9202,0.3794,710,2.2583,11.1694,-11.4746,83,1.1366,0.6873,3.0409,68.1763,31,0.5963,10492,3.7631,64.7332
rg,1624907301356201781,1,0.2373,0.9219,0.3848,711,2.5024,11.9629,-11.1694,83,1.1366,0.6873,2.9884,68.245,31,0.5963,8334,3.7631,65.0131
rg,1624907301356218464,1,0.2354,0.9136,0.3899,712,3.1128,11.5356,-12.0239,83,1.1366,0.6873,2.9644,68.3162,31,0.5973,7862,3.7631,65.2642
rg,1624907301356234925,1,0.2419,0.9241,0.3933,713,2.1362,12.3901,-11.9629,83,1.1366,0.6873,2.9045,68.3657,31,0.5973,7815,3.7631,65.5377
rg,1624907301356251037,1,0.24,0.9189,0.3967,714,2.4414,11.8408,-11.4136,83,1.1366,0.6873,2.859,68.3968,31,0.5973,7941,3.7631,65.8099
rg,1624907301356267554,1,0.2485,0.9258,0.395,715,2.9297,12.8784,-11.7188,83,1.1366,0.6873,2.8267,68.4572,31,0.5973,7905,3.7631,66.117
rg,1624907301356284089,1,0.2483,0.9285,0.3918,716,3.1738,14.0991,-11.6577,83,1.1366,0.6873,2.7479,68.5047,31,0.5973,8154,3.7631,66.422
rg,1624907301356300146,1,0.2456,0.9309,0.3904,717,2.8687,13.6108,-11.2915,83,1.1366,0.6883,2.7213,68.5733,31,0.5983,7874,3.7631,66.7644
rg,1624907301356316239,1,0.2312,0.9263,0.3865,718,1.8311,15.4419,-11.9019,83,1.1366,0.6873,2.7714,68.6046,31,0.5983,8006,3.7631,67.1671
rg,1624907301356332479,1,0.2349,0.9258,0.3967,719,2.1362,14.4043,-12.3291,83,1.1376,0.6873,2.8093,68.6134,31,0.5993,7960,3.7631,67.5236
rg,1624907301356349015,1,0.2239,0.908,0.3943,720,2.3804,14.7095,-11.7188,83,1.1366,0.6873,2.8475,68.6324,31,0.5993,8089,3.7631,67.9003
rg,1624907301356365126,1,0.2307,0.9229,0.3801,721,1.8921,14.7705,-11.8408,83,1.1366,0.6873,2.8789,68.6736,31,0.5993,8133,3.7631,68.2798
rg,1624907301356394146,1,0.2393,0.9292,0.3816,722,1.8311,14.5264,-11.0474,83,1.1366,0.6873,2.8624,68.7103,31,0.5993,8097,3.7631,68.662
rg,1624907301356411031,1,0.2285,0.915,0.3987,723,1.2817,13.9771,-10.5591,83,1.1366,0.6873,2.8385,68.6787,31,0.5993,12377,3.7631,69.0288
rg,1624907301356427382,1,0.2346,0.9097,0.3821,724,1.4648,13.2446,-10.1929,83,1.1366,0.6873,2.8034,68.6537,31,0.5993,8144,3.7631,69.3579
rg,1624907301356443991,1,0.23,0.9062,0.386,725,1.2207,13.9771,-10.9863,83,1.1366,0.6873,2.7887,68.6396,31,0.6003,8140,3.7631,69.7191
rg,1624907301356460305,1,0.2317,0.9194,0.3879,726,1.8311,14.4653,-10.6201,83,1.1366,0.6873,2.7705,68.6589,31,0.6003,8438,3.7631,70.104
rg,1624907301356477116,1,0.2385,0.9138,0.4043,727,2.3193,14.2212,-11.7798,83,1.1366,0.6873,2.779,68.6575,31,0.6003,8214,3.7631,70.4614
rg,1624907301356493431,1,0.2397,0.9109,0.4023,728,2.5635,14.0991,-11.3525,83,1.1376,0.6883,2.7653,68.6674,31,0.6003,8447,3.7631,70.8205
rg,1624907301356509506,1,0.2285,0.9067,0.3909,729,2.3193,14.8315,-12.146,83,1.1376,0.6883,2.7835,68.6569,31,0.6013,9182,3.7631,71.2146
rg,1624907301356525562,1,0.2429,0.918,0.3975,730,2.6855,14.7705,-12.6343,83,1.1376,0.6883,2.8225,68.6884,31,0.6013,8268,3.7631,71.581
rg,1624907301356542134,1,0.2444,0.9143,0.3965,731,2.1973,14.2212,-12.0239,83,1.1376,0.6883,2.8244,68.6976,31,0.6013,8232,3.7631,71.936
rg,1624907301356572111,1,0.2307,0.9253,0.4001,732,2.1362,13.6108,-12.2681,83,1.1376,0.6883,2.8602,68.7047,31,0.6023,8302,3.7631,72.2647
rg,1624907301356589217,1,0.2334,0.9272,0.3994,733,2.6245,14.5264,-11.5967,83,1.1376,0.6883,2.8779,68.7365,31,0.6023,8263,3.7631,72.6375
rg,1624907301356606084,1,0.2405,0.9243,0.394,734,2.6855,12.9395,-11.6577,83,1.1376,0.6883,2.8573,68.7751,31,0.6023,8361,3.7631,72.9508
rg,1624907301356623797,1,0.2385,0.9211,0.3901,735,2.6245,14.5264,-13.2446,83,1.1376,0.6883,2.9209,68.8169,31,0.6023,8320,3.7631,73.3013
rg,1624907301356640443,1,0.2305,0.9216,0.3906,736,2.8076,13.9771,-11.7188,83,1.1376,0.6893,2.9561,68.88,31,0.6023,8439,3.7631,73.6982
rg,1624907301707927412,1,0.2253,0.9158,0.3889,737,2.0752,14.5264,-11.8408,83,1.1376,0.6883,2.996,68.8997,31,0.6033,26038,3.7631,74.0736
rg,1624907301707963061,1,0.2371,0.9072,0.4072,738,2.3804,14.5874,-12.085,83,1.1376,0.6883,3.0118,68.8816,31,0.6033,8412,3.7631,74.4416
rg,1624907301707983592,1,0.2346,0.9094,0.3962,739,2.7466,13.855,-11.4136,83,1.1376,0.6883,2.9954,68.9022,31,0.6043,7841,3.7631,74.7929
rg,1624907301708003331,1,0.229,0.9172,0.3926,740,2.4414,13.3667,-11.0474,83,1.1376,0.6883,3.0118,68.9304,31,0.6043,7626,3.7631,75.1315
rg,1624907301708021597,1,0.2285,0.9226,0.3992,741,2.5024,12.3291,-11.1694,83,1.1376,0.6883,2.9832,68.942,31,0.6043,7838,3.7631,75.4298
rg,1624907301708039845,1,0.2273,0.9202,0.4009,742,2.0752,11.5356,-11.5967,83,1.1376,0.6883,2.9622,68.9284,31,0.6043,7732,3.7631,75.6922
rg,1624907301708057356,1,0.2246,0.9153,0.3831,743,2.3193,12.6953,-10.6812,83,1.1376,0.6893,2.9378,68.986,31,0.6043,8233,3.7631,75.9447
rg,1624907301708074112,1,0.2207,0.9143,0.3872,744,2.8076,12.4512,-11.7798,83,1.1386,0.6893,2.9469,69.0242,31,0.6053,7774,3.7631,76.2403
rg,1624907301708091126,1,0.2312,0.9268,0.3921,745,2.6855,11.8408,-12.146,83,1.1376,0.6883,2.9446,69.0556,31,0.6053,10749,3.7631,76.5083
rg,1624907301708108213,1,0.2168,0.9214,0.3918,746,1.9531,11.7188,-12.6953,83,1.1376,0.6883,2.9888,69.0516,31,0.6053,7924,3.7631,76.7639
rg,1624907301708125025,1,0.2388,0.9158,0.3818,747,1.709,11.5356,-12.146,83,1.1376,0.6883,2.9582,69.0543,31,0.6053,9927,3.7631,77.0214
rg,1624907301708141486,1,0.2234,0.9241,0.3875,748,2.8076,11.6577,-14.2822,83,1.1376,0.6883,3.047,69.0723,31,0.6053,7900,3.7631,77.3363
rg,1624907301708158629,1,0.2217,0.9197,0.396,749,2.3804,12.207,-12.6343,83,1.1386,0.6893,3.0816,69.0763,31,0.6053,8096,3.7631,77.6106
rg,1624907301708175569,1,0.2297,0.9148,0.3848,750,2.8076,11.5967,-12.8174,83,1.1386,0.6893,3.0921,69.1149,31,0.6063,8276,3.7631,77.8605
rg,1624907301708192583,1,0.2334,0.9185,0.3887,751,2.3804,11.5967,-13.1836,83,1.1376,0.6893,3.1104,69.13,31,0.6063,8533,3.7631,78.1052
rg,1624907301708236168,1,0.2261,0.9146,0.3914,752,2.3804,11.8408,-12.5122,83,1.1386,0.6893,3.1205,69.1366,31,0.6063,7953,3.7631,78.3683
rg,1624907301708254747,1,0.238,0.9045,0.3901,753,2.9907,11.3525,-13.4888,83,1.1386,0.6893,3.1302,69.1596,31,0.6063,8130,3.7631,78.599
rg,1624907301708273179,1,0.2332,0.9172,0.3799,754,1.9531,10.8643,-13.4888,83,1.1386,0.6893,3.1463,69.1713,31,0.6073,7996,3.7631,78.8133
rg,1624907301708290358,1,0.2273,0.9177,0.3889,755,1.6479,10.1929,-12.6343,83,1.1386,0.6893,3.1346,69.1514,31,0.6073,8127,3.7631,79.0136
rg,1624907301708307372,1,0.2263,0.9082,0.3938,756,1.77,9.4604,-11.9019,83,1.1386,0.6893,3.0847,69.1178,31,0.6073,8027,3.7631,79.1956
rg,1624907301708326670,1,0.2292,0.9146,0.3845,757,1.8311,10.498,-13.7939,94,1.1386,0.6893,3.1169,69.1132,31,0.6073,8161,3.7609,79.3909
rg,1624907301708345672,1,0.2195,0.9077,0.3948,758,2.0142,9.2163,-12.8174,94,1.1386,0.6893,3.1129,69.087,31,0.6073,8066,3.7609,79.5504
rg,1624907301708364178,1,0.2051,0.9102,0.3931,759,2.4414,7.8125,-12.8174,94,1.1386,0.6893,3.1205,69.0813,31,0.6083,8227,3.7609,79.6572
rg,1624907301708382720,1,0.2739,0.9167,0.3975,760,3.3569,6.2866,-12.3291,94,1.1386,0.6893,2.9492,69.1081,31,0.6083,8092,3.7609,79.714
rg,1624907301708400562,1,0.2649,0.9084,0.3965,761,2.9297,8.9722,-12.4512,94,1.1386,0.6893,2.8787,69.12,31,0.6083,8309,3.7609,79.87
rg,1624907301708418018,1,0.2405,0.9192,0.3975,762,1.5869,12.9395,-13.9771,94,1.1386,0.6893,2.9411,69.0872,31,0.6083,8117,3.7609,80.1534
rg,1624907301708436063,1,0.2251,0.9138,0.3977,763,2.9907,10.498,-13.9771,94,1.1386,0.6893,2.9964,69.1017,31,0.6083,8363,3.7609,80.3445
rg,1624907301708453906,1,0.2334,0.9172,0.4058,764,3.2959,9.5825,-12.8784,94,1.1386,0.6893,2.9607,69.1425,31,0.6083,8235,3.7609,80.4613
rg,1624907301708470957,1,0.2468,0.9209,0.407,765,3.9062,7.1411,-11.4136,94,1.1386,0.6893,2.8322,69.1748,31,0.6083,8405,3.7609,80.5629
rg,1624907301708487952,1,0.2637,0.9207,0.3911,766,4.3945,8.728,-11.7798,94,1.1386,0.6893,2.7067,69.2599,31,0.6093,9369,3.7609,80.7208
rg,1624907301708519384,1,0.252,0.9128,0.3931,767,3.7842,10.6201,-13.3057,94,1.1386,0.6903,2.6899,69.3086,31,0.6093,10157,3.7609,80.9287
rg,1624907301708538976,1,0.2495,0.9277,0.3906,768,2.8076,10.3149,-13.3667,94,1.1386,0.6903,2.6829,69.3335,31,0.6093,8314,3.7609,81.1255
rg,1624907302069133317,1,0.2458,0.9187,0.3911,769,3.0518,11.4136,-12.7563,94,1.1386,0.6893,2.7069,69.3613,31,0.6093,26522,3.7609,81.3719
rg,1624907302069188980,1,0.2344,0.9233,0.394,770,2.3193,11.1084,-12.4512,94,1.1386,0.6893,2.6957,69.3415,31,0.6103,8600,3.7609,81.6105
rg,1624907302069220570,1,0.2551,0.9143,0.3967,771,3.2959,9.3994,-12.3901,94,1.1386,0.6903,2.6227,69.3598,31,0.6103,7666,3.7609,81.7859
rg,1624907302069251569,1,0.248,0.915,0.3992,772,3.418,11.7798,-12.9395,94,1.1386,0.6903,2.6216,69.3814,31,0.6103,7809,3.7609,82.043
rg,1624907302069283638,1,0.2454,0.9153,0.3943,773,2.1973,10.7422,-12.085,94,1.1386,0.6903,2.5788,69.3621,31,0.6103,7741,3.7609,82.2737
rg,1624907302069311340,1,0.2583,0.9199,0.387,774,2.1973,11.7798,-12.8784,94,1.1386,0.6893,2.5558,69.364,31,0.6103,10673,3.7609,82.5331
rg,1624907302069338380,1,0.2449,0.9114,0.395,775,2.0142,11.7188,-12.146,94,1.1396,0.6893,2.5309,69.3345,31,0.6103,8367,3.7609,82.7994
rg,1624907302069364259,1,0.2515,0.9172,0.3901,776,2.5024,11.6577,-10.5591,94,1.1396,0.6893,2.4349,69.3415,31,0.6103,8145,3.7609,83.086
rg,1624907302069389659,1,0.2375,0.9192,0.3787,777,2.4414,12.5122,-12.6343,94,1.1386,0.6903,2.4594,69.3492,31,0.6113,7889,3.7609,83.376
rg,1624907302069415336,1,0.2366,0.9233,0.3938,778,1.8921,12.4512,-11.5356,94,1.1396,0.6903,2.4479,69.3292,31,0.6113,8078,3.7609,83.6788
rg,1624907302069440515,1,0.2424,0.9241,0.3916,779,2.5024,11.2305,-11.9629,94,1.1396,0.6903,2.4235,69.3372,31,0.6113,7915,3.7609,83.9299
rg,1624907302069465437,1,0.2485,0.9333,0.3872,780,1.8921,11.7188,-11.8408,94,1.1396,0.6893,2.4006,69.3146,31,0.6113,8018,3.7609,84.2009
rg,1624907302069490450,1,0.2378,0.9238,0.384,781,2.4414,12.6953,-12.3291,94,1.1396,0.6903,2.4203,69.3379,31,0.6113,8092,3.7609,84.5024
rg,1624907302069546979,1,0.2366,0.918,0.3853,782,2.5024,12.2681,-11.7188,94,1.1396,0.6903,2.4105,69.355,31,0.6113,8049,3.7609,84.7962
rg,1624907302069576063,1,0.2402,0.918,0.3906,783,2.0142,10.9253,-10.8032,94,1.1396,0.6903,2.3453,69.3533,31,0.6113,8104,3.7609,85.0529
rg,1624907302069603619,1,0.2366,0.9165,0.3879,784,2.6245,10.8643,-11.5967,94,1.1396,0.6903,2.3673,69.3721,31,0.6123,10666,3.7609,85.2784
rg,1624907302069629351,1,0.2358,0.9158,0.3901,785,2.6855,11.0474,-12.8784,94,1.1396,0.6903,2.3873,69.3805,31,0.6123,8069,3.7609,85.5101
rg,1624907302069654272,1,0.2366,0.9146,0.3865,786,2.1973,10.2539,-12.0239,94,1.1396,0.6903,2.3607,69.3748,31,0.6123,8157,3.7609,85.7244
rg,1624907302069695881,1,0.2363,0.9089,0.3784,787,1.9531,9.2773,-11.9019,94,1.1396,0.6903,2.3218,69.3924,31,0.6123,8086,3.7609,85.9194
rg,1624907302069724892,1,0.2568,0.9243,0.3738,788,2.4414,8.4839,-10.498,94,1.1396,0.6903,2.1761,69.4285,31,0.6123,8327,3.7609,86.0902
rg,1624907302069751784,1,0.2383,0.9111,0.3782,789,2.2583,9.7046,-12.207,94,1.1396,0.6903,2.15,69.4359,31,0.6123,8143,3.7609,86.2827
rg,1624907302069779229,1,0.2424,0.9155,0.3784,790,2.3804,10.2539,-12.3291,94,1.1396,0.6903,2.1303,69.4519,31,0.6133,8240,3.7609,86.4942
rg,1624907302069806508,1,0.2441,0.9287,0.3708,791,2.9297,9.9487,-12.8174,94,1.1396,0.6903,2.1289,69.4648,31,0.6133,8188,3.7609,86.6868
rg,1624907302069838300,1,0.238,0.9209,0.3835,792,3.9062,8.3618,-11.5967,94,1.1396,0.6903,2.0688,69.5322,31,0.6133,8314,3.7609,86.8375
rg,1624907302069868839,1,0.2288,0.9287,0.3777,793,2.9297,9.3994,-12.146,94,1.1396,0.6903,2.0432,69.5655,31,0.6133,8280,3.7609,87.0205
rg,1624907302069896818,1,0.2375,0.9048,0.3833,794,3.2959,7.4463,-12.146,94,1.1396,0.6903,1.9879,69.5896,31,0.6133,9849,3.7609,87.1298
rg,1624907302069925350,1,0.2324,0.9199,0.3833,795,3.479,7.1411,-11.6577,94,1.1396,0.6903,1.9296,69.6327,31,0.6133,8252,3.7609,87.235
rg,1624907302069952831,1,0.2292,0.9065,0.3904,796,3.7231,6.7749,-12.7563,94,1.1396,0.6903,1.9119,69.6566,31,0.6133,9232,3.7609,87.3109
rg,1624907302070041428,1,0.2461,0.9136,0.3853,797,4.2725,5.9814,-12.146,94,1.1396,0.6903,1.8278,69.7179,31,0.6133,8856,3.7609,87.3663
rg,1624907302070085874,1,0.2383,0.9304,0.386,798,3.3569,6.1035,-12.3291,94,1.1396,0.6903,1.7762,69.7138,31,0.6143,8418,3.7609,87.401
rg,1624907302070113282,1,0.2332,0.9175,0.3967,799,3.7842,4.8828,-12.3901,94,1.1396,0.6903,1.7223,69.7315,31,0.6143,8402,3.7609,87.4118
rg,1624907302070139788,1,0.238,0.925,0.3794,800,3.0518,5.4932,-13.4888,94,1.1396,0.6903,1.7098,69.7614,31,0.6143,8491,3.7609,87.4319
rg,1624907302415116956,1,0.2285,0.9175,0.3853,801,2.1362,5.7983,-14.8926,94,1.1396,0.6903,1.754,69.7385,32,0.6143,26159,3.7609,87.4441
rg,1624907302415153684,1,0.2397,0.9221,0.3811,802,2.1362,4.6387,-14.4043,94,1.1396,0.6903,1.7584,69.7243,32,0.6143,10241,3.7609,87.4194
rg,1624907302415174738,1,0.2358,0.9153,0.3982,803,2.6245,4.3335,-14.0381,94,1.1396,0.6903,1.753,69.6891,31,0.6143,7791,3.7609,87.3869
rg,1624907302415193452,1,0.2324,0.9263,0.3796,804,2.6855,4.5776,-14.7095,94,1.1396,0.6903,1.7848,69.7049,31,0.6143,7764,3.7609,87.3554
rg,1624907302415211429,1,0.2502,0.9146,0.3931,805,2.4414,4.3945,-14.5874,94,1.1396,0.6903,1.7686,69.6732,31,0.6143,7851,3.7609,87.3178
rg,1624907302415229019,1,0.2505,0.9192,0.3923,806,3.1128,3.8452,-14.3433,94,1.1396,0.6903,1.7378,69.6745,31,0.6143,7774,3.7609,87.2628
rg,1624907302415245873,1,0.2444,0.9231,0.3855,807,3.1128,3.2959,-14.4043,94,1.1396,0.6913,1.716,69.6922,31,0.6153,8118,3.7609,87.1868
rg,1624907302415262708,1,0.252,0.9304,0.3704,808,3.54,3.1128,-14.6484,94,1.1396,0.6913,1.6865,69.7632,31,0.6143,7806,3.7609,87.102
rg,1624907302415278899,1,0.2507,0.9185,0.3843,809,3.1128,3.479,-16.0522,94,1.1396,0.6913,1.7155,69.7758,31,0.6153,7898,3.7609,87.0113
rg,1624907302415295274,1,0.2463,0.9158,0.377,810,2.6855,2.6855,-14.6484,94,1.1406,0.6913,1.6864,69.7833,31,0.6153,7820,3.7609,86.9104
rg,1624907302415332426,1,0.2625,0.927,0.3726,811,2.2583,4.0894,-14.8926,94,1.1406,0.6913,1.6393,69.7958,31,0.6153,7933,3.7609,86.8509
rg,1624907302415350753,1,0.2607,0.9265,0.3645,812,1.8921,4.0894,-15.3198,94,1.1406,0.6913,1.6303,69.8069,31,0.6153,7841,3.7609,86.795
rg,1624907302415368270,1,0.2607,0.9116,0.3757,813,0.8545,3.2959,-14.8315,94,1.1396,0.6913,1.5947,69.7449,31,0.6153,8098,3.7609,86.7185
rg,1624907302415385234,1,0.2534,0.9263,0.3682,814,0.3052,3.7842,-14.2822,94,1.1396,0.6913,1.56,69.6869,31,0.6163,8029,3.7609,86.6646
rg,1624907302415401848,1,0.2581,0.9202,0.3914,815,1.1597,3.8452,-14.8926,94,1.1396,0.6913,1.5424,69.6126,31,0.6153,7919,3.7609,86.6027
rg,1624907302415418573,1,0.2566,0.9082,0.3716,816,1.0986,4.3335,-14.5874,94,1.1396,0.6913,1.5484,69.5488,31,0.6153,7950,3.7609,86.5629
rg,1624907302415435169,1,0.2502,0.9089,0.3687,817,0.9766,3.6011,-14.0381,94,1.1396,0.6913,1.5021,69.5097,31,0.6163,8158,3.7609,86.5034
rg,1624907302415451709,1,0.2671,0.9197,0.3662,818,2.7466,3.7842,-14.5264,94,1.1396,0.6913,1.4482,69.5571,31,0.6153,7959,3.7609,86.4441
rg,1624907302415468324,1,0.261,0.907,0.3713,819,3.2959,3.6011,-14.5874,94,1.1396,0.6913,1.4277,69.5962,31,0.6163,8142,3.7609,86.3863
rg,1624907302415484956,1,0.2722,0.9177,0.3667,820,2.8687,3.3569,-14.7705,94,1.1396,0.6923,1.3686,69.6422,31,0.6163,8147,3.7609,86.3084
rg,1624907302415501276,1,0.2681,0.9189,0.3804,821,3.3569,4.2114,-15.0757,94,1.1406,0.6923,1.3468,69.6796,31,0.6163,9508,3.7609,86.2583
rg,1624907302415517780,1,0.2654,0.9026,0.3809,822,3.54,4.8218,-15.1978,94,1.1406,0.6923,1.3364,69.7084,31,0.6163,8200,3.7609,86.2295
rg,1624907302415534265,1,0.2786,0.9119,0.3828,823,2.6855,4.8828,-14.8926,94,1.1406,0.6923,1.2552,69.8022,31,0.6163,8088,3.7609,86.2193
rg,1624907302415550658,1,0.2803,0.9023,0.3787,824,2.8076,5.6763,-14.0991,94,1.1406,0.6913,1.1875,69.8029,31,0.6163,8391,3.7609,86.2393
rg,1624907302415566904,1,0.2771,0.9155,0.3638,825,3.479,6.5918,-14.5264,94,1.1406,0.6923,1.1609,69.8727,31,0.6163,8150,3.7609,86.2888
rg,1624907302415596854,1,0.2883,0.9214,0.3711,826,2.7466,6.958,-14.7095,94,1.1406,0.6923,1.129,69.9006,31,0.6173,8307,3.7609,86.3502
rg,1624907302415627412,1,0.2847,0.9216,0.3838,827,3.2349,6.897,-14.4653,94,1.1406,0.6923,1.0985,69.9213,31,0.6173,8144,3.7609,86.4124
rg,1624907302415647084,1,0.2859,0.9131,0.3933,828,4.2114,7.6904,-14.2822,94,1.1406,0.6923,1.0683,69.9543,31,0.6173,8383,3.7609,86.5067
rg,1624907302415664085,1,0.2891,0.905,0.377,829,4.7607,8.7891,-13.6108,94,1.1406,0.6923,1.0144,70.0355,31,0.6173,8230,3.7609,86.6525
rg,1624907302415681970,1,0.291,0.905,0.3818,830,3.7842,10.2539,-13.855,94,1.1406,0.6923,0.9793,70.0375,31,0.6173,8407,3.7609,86.8504
rg,1624907302415701660,1,0.2781,0.9048,0.3936,831,4.2725,11.6577,-12.207,94,1.1396,0.6923,0.9407,70.0633,31,0.6173,8272,3.7609,87.1235
rg,1624907302415719416,1,0.282,0.8962,0.3789,832,3.7842,11.5967,-12.207,94,1.1406,0.6923,0.8869,70.0913,31,0.6163,8340,3.7609,87.3951
rg,1624907302762722604,1,0.2766,0.9058,0.3721,833,3.2349,9.5825,-12.6953,94,1.1406,0.6923,0.85,70.0834,31,0.6173,25838,3.7609,87.6003
rg,1624907302762760953,1,0.2747,0.9089,0.3818,834,2.2583,8.7891,-13.9771,94,1.1406,0.6923,0.8506,70.0519,31,0.6173,8532,3.7609,87.7427
rg,1624907302762782062,1,0.2825,0.9021,0.3782,835,1.6479,7.6904,-12.085,94,1.1406,0.6933,0.745,69.9989,31,0.6173,7674,3.7609,87.8691
rg,1624907302762801807,1,0.2783,0.9009,0.3718,836,1.77,8.8501,-12.8784,94,1.1406,0.6923,0.6956,69.9651,31,0.6173,9498,3.7609,88.0282
rg,1624907302762831683,1,0.2888,0.9006,0.3748,837,1.8311,7.6904,-11.5356,94,1.1406,0.6923,0.5441,69.9211,31,0.6173,7700,3.7609,88.1616
rg,1624907302762850766,1,0.2957,0.8916,0.3953,838,3.2349,7.6904,-9.7656,94,1.1406,0.6933,0.3349,69.8922,31,0.6173,7951,3.7609,88.3187
rg,1624907302762869480,1,0.2927,0.9016,0.3806,839,3.9673,8.8501,-9.8267,94,1.1406,0.6923,0.1596,69.9319,31,0.6173,9284,3.7609,88.5189
rg,1624907302762887310,1,0.2908,0.896,0.3894,840,3.6621,8.9111,-9.2163,94,1.1406,0.6933,-0.0518,69.9172,31,0.6173,7691,3.7609,88.6792
rg,1624907302762904403,1,0.2834,0.9124,0.3652,841,4.0894,7.6904,-9.7046,94,1.1406,0.6933,-0.2114,70.0001,31,0.6183,9104,3.7609,88.8383
rg,1624907302762920907,1,0.2993,0.9202,0.3677,842,3.6621,8.1787,-10.437,94,1.1406,0.6933,-0.3586,70.064,31,0.6183,7714,3.7609,89.0068
rg,1624907302762940505,1,0.2971,0.9189,0.3823,843,2.1973,10.7422,-10.1929,94,1.1406,0.6933,-0.4678,70.0349,31,0.6183,7771,3.7609,89.2762
rg,1624907302762957635,1,0.2932,0.916,0.3745,844,2.7466,11.4746,-10.3149,94,1.1406,0.6933,-0.5538,70.0415,31,0.6183,7840,3.7609,89.5713
rg,1624907302762974102,1,0.2822,0.9204,0.3774,845,1.4648,11.4136,-8.9111,94,1.1406,0.6933,-0.6644,69.9933,31,0.6183,7839,3.7609,89.8833
rg,1624907302763023134,1,0.261,0.9236,0.3757,846,1.1597,12.8784,-8.9722,94,1.1406,0.6923,-0.6954,69.9598,31,0.6183,7852,3.7609,90.2308
rg,1624907302763046398,1,0.2805,0.9268,0.377,847,-0.1221,11.4746,-9.0942,94,1.1406,0.6933,-0.7856,69.8569,31,0.6183,7849,3.7609,90.5421
rg,1624907302763065591,1,0.2634,0.9419,0.3589,848,-0.1221,12.3901,-10.3149,94,1.1406,0.6933,-0.7747,69.806,31,0.6183,7905,3.7609,90.8694
rg,1624907302763083273,1,0.26,0.9297,0.3608,849,-1.0986,12.6953,-10.3149,94,1.1406,0.6933,-0.7645,69.6797,31,0.6183,7908,3.7609,91.2081
rg,1624907302763100919,1,0.2595,0.9373,0.3645,850,-1.4648,13.0615,-10.437,94,1.1406,0.6933,-0.7326,69.5667,31,0.6193,7955,3.7609,91.5573
rg,1624907302763117975,1,0.2507,0.9321,0.363,851,-1.4038,12.6343,-10.376,94,1.1406,0.6933,-0.694,69.4599,31,0.6183,7986,3.7609,91.8901
rg,1624907302763134866,1,0.2529,0.9382,0.3608,852,-2.0142,13.7939,-11.1084,94,1.1406,0.6933,-0.6149,69.3421,31,0.6193,7934,3.7609,92.2548
rg,1624907302763151793,1,0.2393,0.9314,0.3711,853,-2.0142,13.1226,-12.085,94,1.1406,0.6933,-0.4837,69.2033,31,0.6183,8003,3.7609,92.5795
rg,1624907302763168389,1,0.2366,0.9385,0.3474,854,-1.0376,11.0474,-11.7188,94,1.1406,0.6933,-0.3953,69.1645,31,0.6183,8022,3.7609,92.8296
rg,1624907302763184248,1,0.2437,0.9219,0.3584,855,-0.7935,12.146,-12.6953,94,1.1406,0.6933,-0.2788,69.1014,31,0.6193,8217,3.7609,93.1069
rg,1624907302763202133,1,0.2366,0.9155,0.3477,856,-0.4272,13.855,-13.9771,94,1.1406,0.6933,-0.0845,69.0734,31,0.6193,8122,3.7609,93.4291
rg,1624907302763219963,1,0.2405,0.9202,0.3662,857,1.0376,12.4512,-13.916,94,1.1406,0.6933,0.0774,69.0709,31,0.6193,8122,3.7609,93.6995
rg,1624907302763237462,1,0.2522,0.926,0.3584,858,1.2817,13.0615,-14.2212,94,1.1416,0.6943,0.2491,69.0737,31,0.6193,8105,3.7609,93.9882
rg,1624907302763258405,1,0.2554,0.9255,0.3604,859,1.1597,12.3901,-14.2822,94,1.1406,0.6933,0.3928,69.0803,31,0.6193,10411,3.7609,94.2747
rg,1624907302763276253,1,0.2515,0.9304,0.3606,860,1.2207,12.6953,-14.7705,94,1.1406,0.6943,0.5522,69.1071,31,0.6193,8178,3.7609,94.5421
rg,1624907302763328269,1,0.2493,0.9226,0.3669,861,2.4414,13.0615,-15.3198,94,1.1406,0.6943,0.733,69.1631,31,0.6193,8334,3.7609,94.8156
rg,1624907302763354093,1,0.2595,0.9346,0.3623,862,2.5635,11.8408,-14.7095,94,1.1416,0.6943,0.8502,69.2413,31,0.6203,8245,3.7609,95.0528
rg,1624907302763373120,1,0.2708,0.9309,0.3569,863,2.3804,12.4512,-15.0757,94,1.1416,0.6943,0.959,69.3181,31,0.6193,8256,3.7609,95.3089
rg,1624907302763399865,1,0.269,0.9377,0.3501,864,1.77,12.6953,-14.9536,94,1.1406,0.6943,1.0677,69.3876,31,0.6203,8275,3.7609,95.5771
rg,1624907303116241318,1,0.2615,0.9307,0.3684,865,1.1597,12.7563,-14.5264,94,1.1406,0.6943,1.1724,69.3876,31,0.6203,25690,3.7609,95.8535
rg,1624907303116282296,1,0.2693,0.9153,0.3625,866,0.9155,12.8784,-14.8315,94,1.1416,0.6943,1.3099,69.3788,31,0.6203,13843,3.7609,96.13
rg,1624907303116303613,1,0.2458,0.9111,0.3723,867,0.8545,12.3291,-13.916,94,1.1416,0.6933,1.4006,69.3435,31,0.6203,9279,3.7609,96.398
rg,1624907303116323475,1,0.2676,0.9272,0.3669,868,0.9766,10.8032,-13.9771,94,1.1416,0.6933,1.4306,69.3379,31,0.6203,7833,3.7609,96.6081
rg,1624907303116342637,1,0.2588,0.9131,0.3589,869,0.9155,10.6812,-14.8315,94,1.1406,0.6933,1.5166,69.3407,31,0.6203,7649,3.7609,96.8344
