name,time,activity,ax,ay,az,batch_val,gx,gy,gz,ibat,index,middle,pitch,roll,temp,thumb,ts,vbat,yaw
lg,1625051475109975371,0,-0.1118,-0.0959,1.0576,1,-0.1831,0.3052,11.4136,73,1.5548,1.5468,5.1648,-2.7253,35,0.2451,20573,3.9875,-122.8706
lg,1625051475110021556,0,-0.1333,-0.0823,1.0684,2,-1.0986,1.6479,12.5122,73,1.5538,1.5428,5.3294,-2.789,35,0.2451,8536,3.9875,-122.3778
lg,1625051475110041556,0,-0.1304,-0.0891,1.0547,3,-1.8311,2.3193,14.3433,73,1.5538,1.5458,5.5159,-2.8878,35,0.2461,8676,3.9875,-121.8143
lg,1625051475110060315,0,-0.1553,-0.0942,1.0464,4,-2.1362,2.9297,15.0757,73,1.5538,1.5478,5.7766,-3.0021,35,0.2461,8261,3.9875,-121.2239
lg,1625051475110078833,0,-0.1426,-0.1155,1.0654,5,-1.77,-0.5493,10.8032,73,1.5538,1.5478,5.7561,-3.1285,35,0.2461,33701,3.9875,-120.696
lg,1625051475110098908,0,-0.137,-0.1125,1.072,6,0.6714,-4.9438,13.2446,73,1.5538,1.5458,5.6459,-3.1601,35,0.2461,7961,3.9875,-120.1648
lg,1625051475110117463,0,-0.1055,-0.0869,1.0537,7,1.8311,-2.7466,12.6343,73,1.5538,1.5478,5.5648,-3.0977,35,0.2451,8250,3.9875,-119.6577
lg,1625051475110135278,0,-0.0742,-0.0876,1.0552,8,1.4038,0.1221,13.3667,73,1.5538,1.5468,5.6893,-3.1266,35,0.2461,7955,3.9875,-119.1265
lg,1625051475110152593,0,-0.103,-0.0906,1.0718,9,-2.0142,8.9111,15.0757,73,1.5538,1.5458,6.0672,-3.2136,35,0.2451,8293,3.9875,-118.5477
lg,1625051475110169982,0,-0.113,-0.0906,1.0742,10,-4.4556,17.8833,13.7329,73,1.5548,1.5488,6.8058,-3.3968,35,0.2461,8760,3.9875,-118.0442
lg,1625051475110188371,0,-0.1843,-0.1133,1.0703,11,-4.2725,20.752,14.2212,73,1.5538,1.5478,7.7799,-3.6041,35,0.2461,8351,3.9875,-117.5356
lg,1625051475110206796,0,-0.1953,-0.1042,1.0627,12,-4.0894,20.0806,14.1602,73,1.5548,1.5478,8.7113,-3.7845,35,0.2461,8388,3.9875,-117.0296
lg,1625051475110224741,0,-0.2136,-0.0923,1.0667,13,-3.6011,14.0991,14.8926,73,1.5538,1.5478,9.4114,-3.8839,35,0.2461,8841,3.9875,-116.4729
lg,1625051475110241759,0,-0.2263,-0.0955,1.0518,14,-1.4648,7.5073,14.8926,73,1.5538,1.5478,9.8541,-3.8949,35,0.2461,8101,3.9875,-115.899
lg,1625051475110259426,0,-0.2324,-0.0737,1.051,15,-0.7935,5.5542,12.2681,73,1.5538,1.5418,10.0641,-3.8311,35,0.2461,8092,3.9875,-115.3536
lg,1625051475110276148,0,-0.8948,-0.7422,0.5999,16,-59.8755,-25.6958,37.0483,114,1.1956,1.5558,10.5074,-7.1706,36,0.2381,13873,3.9556,-114.0113
lg,1625051475110293537,0,-0.7339,-0.7832,0.7166,17,-49.3164,-138.855,54.9316,114,1.1476,1.5568,6.3638,-9.9129,36,0.2401,8149,3.9556,-111.2297
lg,1625051475110311463,0,-0.321,-0.7358,1.019,18,-39.1846,-198.3032,54.7485,114,1.1366,1.5558,-0.754,-12.6498,36,0.2421,7997,3.9556,-107.6869
lg,1625051475110328889,0,-0.0515,-0.8035,0.5508,19,-17.2729,-218.4448,32.4097,114,1.1306,1.5548,-8.7383,-15.1572,36,0.2431,8005,3.9556,-104.3032
lg,1625051475110345796,0,0.1292,-0.7595,0.5276,20,-3.2349,-133.3008,28.5645,114,1.1376,1.5548,-13.5586,-17.264,35,0.2441,8435,3.9556,-101.4396
lg,1625051475110363204,0,0.252,-0.7383,0.6252,21,8.9111,-30.5176,51.0864,114,1.1536,1.5558,-14.1992,-18.6915,35,0.2441,9242,3.9556,-98.7612
lg,1625051475110380000,0,0.323,-0.8333,0.7314,22,5.7983,-2.5024,41.687,114,1.1676,1.5568,-12.26,-19.8974,35,0.2461,8286,3.9556,-98.1829
lg,1625051475110397519,0,0.0276,-0.7913,0.592,23,7.2632,95.8862,9.9487,114,1.1806,1.5568,-8.1957,-20.693,35,0.2461,8092,3.9556,-98.8916
lg,1625051475110414815,0,-0.353,-0.7021,0.6157,24,9.5215,161.3159,0.1221,114,1.1936,1.5578,-1.1368,-21.1201,35,0.2481,8162,3.9556,-101.0596
lg,1625051475110432111,0,-0.5151,-0.7344,0.7085,25,11.4136,164.1235,-0.8545,114,1.2086,1.5578,5.1503,-21.1802,35,0.2481,8104,3.9556,-102.9338
lg,1625051475110450148,0,-0.6326,-0.6467,0.7009,26,25.0244,85.8154,2.5024,114,1.2266,1.5578,9.4638,-21.0228,35,0.2491,8117,3.9556,-104.1488
lg,1625051475110467982,0,-0.5447,-0.7207,0.6414,27,17.7002,34.5459,17.9443,114,1.2406,1.5578,11.815,-21.2028,35,0.2441,8229,3.9556,-104.1286
lg,1625051475110484815,0,-0.3977,-0.7227,0.7104,28,13.1836,18.8599,23.4985,114,1.2466,1.5578,13.1342,-21.8375,36,0.2421,8241,3.9556,-103.6386
lg,1625051475110501519,0,-0.4036,-0.7598,0.7246,29,-9.6436,22.583,22.583,114,1.2446,1.5548,14.6594,-23.0017,36,0.2401,8281,3.9556,-103.3447
lg,1625051475110517926,0,-0.5244,-0.7241,0.719,30,-8.1787,32.7759,16.4795,114,1.2396,1.5558,16.6438,-24.0929,36,0.2361,8958,3.9556,-103.4687
lg,1625051475110534648,0,-0.5374,-0.729,0.7383,31,-6.2256,3.7842,15.8081,114,1.2356,1.5558,17.4963,-24.9182,36,0.2321,8959,3.9556,-103.1479
lg,1625051475110551593,0,-0.436,-0.7224,0.6899,32,-5.188,-20.9351,18.1274,114,1.2326,1.5548,16.8163,-25.5471,36,0.2301,8246,3.9556,-102.0613
lg,1625051475464206130,0,-0.4099,-0.6929,0.6282,33,9.1553,-47.4854,-5.127,114,1.2866,1.5448,15.0096,-25.7374,36,0.2181,26937,3.9556,-101.4592
lg,1625051475464260315,0,-0.3191,-0.72,0.6499,34,16.7236,-57.7393,-0.3052,114,1.3046,1.5418,13.0965,-25.655,36,0.2161,8953,3.9556,-100.6522
lg,1625051475464281907,0,-0.218,-0.696,0.6152,35,-3.8452,-73.5474,2.1362,114,1.3106,1.5408,11.4417,-27.2571,36,0.2231,10952,3.9556,-99.631
lg,1625051475464302611,0,-0.3313,-0.7942,0.6936,36,-37.2314,-28.1372,11.0474,114,1.2816,1.5448,11.2448,-29.3438,36,0.2261,9793,3.9556,-98.8559
lg,1625051475464368185,0,-0.5569,-0.7971,0.7449,37,-57.0068,-38.0859,11.7798,114,1.2366,1.5488,10.8105,-32.0041,36,0.2291,7826,3.9556,-97.7846
lg,1625051475464388537,0,-0.4131,-0.9155,0.9973,38,-38.3911,-85.8765,10.5591,114,1.1836,1.5508,8.4116,-33.5555,36,0.2301,7891,3.9556,-95.6118
lg,1625051475464407463,0,-0.0889,-0.8955,1.1802,39,-22.522,-118.8354,1.0376,114,1.1546,1.5508,3.242,-33.6684,36,0.2321,9137,3.9556,-93.5648
lg,1625051475464425611,0,0.0247,-0.7798,0.333,40,5.8594,-120.6665,-36.5601,114,1.1426,1.5478,-1.725,-34.6484,36,0.2321,8169,3.9556,-92.1263
lg,1625051475464443833,0,0.1428,-0.7705,0.3059,41,10.498,-2.5635,-20.752,114,1.1386,1.5488,-2.613,-35.4401,36,0.2341,8607,3.9556,-92.7072
lg,1625051475464461593,0,0.0815,-0.6318,0.3127,42,18.0054,119.4458,8.4839,114,1.1366,1.5438,1.2803,-35.7511,36,0.2341,8599,3.9556,-95.1698
lg,1625051475464479370,0,0.0422,-0.624,0.4656,43,18.2495,161.499,23.4375,114,1.1376,1.5438,6.865,-35.9124,36,0.2351,8554,3.9556,-98.2216
lg,1625051475464498130,0,-0.3276,-0.6006,0.4456,44,0.7935,212.8906,33.7524,114,1.1396,1.5448,15.1229,-37.2904,36,0.2371,7835,3.9556,-102.376
lg,1625051475464516685,0,-0.6665,-0.6321,0.7051,45,-7.6294,201.7822,41.3818,144,1.1466,1.5468,23.2181,-39.0286,36,0.2401,8575,3.9281,-106.3348
lg,1625051475464534778,0,-0.7869,-0.657,0.8308,46,-5.6152,160.4004,38.5742,144,1.1566,1.5488,29.6117,-40.6729,36,0.2421,7899,3.9281,-109.6091
lg,1625051475464552537,0,-0.906,-0.7534,0.8882,47,-5.6763,14.5264,30.7617,144,1.1686,1.5498,31.1678,-40.5471,36,0.2421,7949,3.9281,-108.9544
lg,1625051475464571389,0,-0.7722,-0.7817,0.8606,48,3.3569,-85.2661,14.5874,144,1.1846,1.5528,29.024,-38.9397,36,0.2441,7945,3.9281,-105.9328
lg,1625051475464589685,0,-0.7275,-0.7598,0.8188,49,9.8877,-113.2812,5.3711,144,1.2096,1.5518,25.6137,-37.0882,35,0.2401,8671,3.9281,-102.6275
lg,1625051475464607667,0,-0.5452,-0.6865,0.6318,50,32.2876,-166.1377,-6.5918,144,1.2436,1.5498,20.3017,-34.6092,35,0.2291,8946,3.9281,-98.7797
lg,1625051475464625204,0,-0.3911,-0.7625,0.5525,51,28.0762,-174.8657,-6.4087,144,1.2956,1.5508,14.8181,-32.81,35,0.2141,8384,3.9281,-95.0455
lg,1625051475464643148,0,-0.0869,-0.7017,0.6538,52,26.5503,-153.1372,18.1885,144,1.3116,1.5498,9.3049,-31.4152,35,0.2121,8053,3.9281,-91.2191
lg,1625051475464660907,0,0.1282,-0.7563,0.6497,53,-13.6719,-89.7827,24.5361,144,1.3166,1.5488,6.1526,-32.2803,35,0.2151,8010,3.9281,-88.5712
lg,1625051475464678870,0,-0.062,-0.8684,0.7292,54,-42.6636,24.8413,18.7378,144,1.3076,1.5508,7.2792,-34.6584,35,0.2221,8033,3.9281,-88.5679
lg,1625051475464695944,0,-0.3027,-0.7988,0.7271,55,-46.6309,64.6973,13.6719,144,1.2786,1.5528,10.2603,-37.5393,35,0.2281,8828,3.9281,-89.4975
lg,1625051475464714481,0,-0.5325,-0.8235,0.6841,56,-61.0352,33.1421,23.6206,144,1.2246,1.5558,12.5145,-40.4452,35,0.2271,9307,3.9281,-89.6987
lg,1625051475464732037,0,-0.5554,-0.8716,0.6804,57,-60.1196,-22.8271,27.2217,144,1.1606,1.5568,13.1181,-42.9302,35,0.2331,8521,3.9281,-88.3428
lg,1625051475464749759,0,-0.2947,-0.7173,0.7351,58,-15.7471,-80.5664,5.4932,144,1.1426,1.5528,11.0367,-43.0958,35,0.2351,10220,3.9281,-85.935
lg,1625051475464767833,0,-0.1951,-0.8762,0.6514,59,-25.9399,-78.3081,-1.8921,144,1.1396,1.5508,8.6983,-44.1586,35,0.2371,8582,3.9281,-83.868
lg,1625051475464786500,0,-0.1809,-0.6985,0.365,60,14.8315,-77.6978,21.7285,144,1.1446,1.5518,7.2613,-43.8651,36,0.2381,8940,3.9281,-81.1571
lg,1625051475464804593,0,0.0081,-0.6377,0.4822,61,18.4326,-74.585,46.5088,144,1.1526,1.5528,6.6704,-43.1875,36,0.2391,8236,3.9281,-78.2844
lg,1625051475464823093,0,0.1638,-0.7236,0.5715,62,5.4932,-10.6812,53.772,144,1.1626,1.5538,7.1766,-43.0657,36,0.2401,8972,3.9281,-76.4517
lg,1625051475464840759,0,0.1531,-0.8127,0.636,63,5.6152,67.8101,47.0581,144,1.1766,1.5558,9.8205,-43.2546,36,0.2431,8252,3.9281,-76.9903
lg,1625051475464858463,0,-0.1013,-0.7683,0.6875,64,16.0522,122.3755,27.2217,144,1.1966,1.5578,13.9393,-43.3415,36,0.2451,8334,3.9281,-79.6521
lg,1625051475862972463,0,-0.4451,-0.7148,0.73,65,36.377,98.0835,17.1509,144,1.2636,1.5548,17.0423,-42.2134,36,0.2441,26876,3.9281,-81.293
lg,1625051475863017555,0,-0.4382,-0.7246,0.6631,66,28.1372,60.1196,17.8223,144,1.2886,1.5518,19.6388,-41.7839,36,0.2421,14136,3.9281,-82.3343
lg,1625051475863039500,0,-0.4097,-0.6853,0.7175,67,15.3198,57.6782,24.1699,144,1.2916,1.5508,22.0999,-41.546,36,0.2391,7848,3.9281,-83.2302
lg,1625051475863058500,0,-0.5178,-0.7463,0.7429,68,-17.395,58.8379,18.6768,144,1.2916,1.5498,24.4909,-42.8109,36,0.2411,8431,3.9281,-84.4045
lg,1625051475863077000,0,-0.5669,-0.8015,0.7051,69,-23.3765,33.6914,29.3579,144,1.2886,1.5498,26.4041,-43.9938,35,0.2431,8450,3.9281,-84.5814
lg,1625051475863095203,0,-0.5811,-0.7136,0.7268,70,-16.1743,14.9536,25.5737,144,1.2846,1.5508,26.9415,-44.0064,35,0.2461,8095,3.9281,-83.3247
lg,1625051475863114037,0,-0.4766,-0.7166,0.646,71,-18.1885,-33.5083,26.3062,144,1.2776,1.5518,26.6839,-44.0232,35,0.2491,9119,3.9281,-81.4977
lg,1625051475863133574,0,-0.3674,-0.8198,0.6387,72,-20.2637,-44.3115,25.7568,144,1.2576,1.5548,25.8534,-44.1794,35,0.2541,8247,3.9281,-79.4405
lg,1625051475863152333,0,-0.2922,-0.8516,0.6226,73,-27.9541,-46.0205,25.4517,144,1.2176,1.5568,24.8581,-44.732,36,0.2491,12020,3.9281,-77.3789
lg,1625051475863171870,0,0.0205,-0.8918,1.177,74,-42.8467,-41.4429,18.3716,144,1.1816,1.5568,23.2362,-45.3439,36,0.2511,8971,3.9281,-75.3757
lg,1625051475863190907,0,-0.4612,-0.6726,0.2412,75,-6.7749,-22.7661,-46.5088,144,1.1646,1.5538,21.7098,-46.7396,36,0.2501,8579,3.9281,-76.4053
lg,1625051475863208777,0,-0.5156,-0.6775,0.5156,76,6.7139,1.0376,-46.7529,144,1.1596,1.5488,20.7452,-47.186,36,0.2501,8578,3.9281,-77.8813
lg,1625051475863227203,0,-0.7698,-0.6333,0.4834,77,4.8218,-9.8267,-32.8979,144,1.1606,1.5478,20.4099,-47.3764,36,0.2511,9820,3.9281,-78.5782
lg,1625051475863244685,0,-0.6079,-0.6057,0.5908,78,20.874,-32.1045,4.3335,144,1.1626,1.5498,19.8398,-45.8211,36,0.2531,9083,3.9281,-76.5832
lg,1625051475863262537,0,-0.3425,-0.6572,0.7095,79,2.3804,-52.7344,22.3999,144,1.1616,1.5458,18.9856,-44.8436,36,0.2541,8596,3.9281,-74.2772
lg,1625051475863281759,0,-0.2058,-0.7141,0.5425,80,-12.5732,-47.9126,35.1562,144,1.1626,1.5518,18.3886,-44.8615,36,0.2561,8274,3.9281,-71.899
lg,1625051475863300055,0,-0.0449,-0.8169,0.7834,81,-2.2583,0.4272,33.5083,144,1.1676,1.5538,18.7095,-44.6812,36,0.2571,8925,3.9281,-70.9269
lg,1625051475863317166,0,0.0098,-0.8499,0.8499,82,4.2114,22.0947,28.6865,144,1.1766,1.5558,19.5356,-44.7556,36,0.2591,8674,3.9281,-71.7346
lg,1625051475863335555,0,-0.0999,-0.8193,0.6956,83,4.6997,62.8052,5.0049,144,1.1876,1.5568,20.8802,-45.3659,36,0.2601,8714,3.9281,-73.5485
lg,1625051475863353111,0,-0.302,-0.7998,0.6318,84,4.7607,107.9712,-7.6904,144,1.2036,1.5568,23.4603,-46.779,36,0.2601,8398,3.9281,-77.2328
lg,1625051475863370852,0,-0.4656,-0.8508,0.6753,85,8.3008,111.2671,-2.6855,144,1.2236,1.5558,26.3536,-48.1868,36,0.2651,8753,3.9281,-81.0111
lg,1625051475863387870,0,-0.4043,-0.8696,0.8032,86,15.1978,97.4731,-1.4648,144,1.2456,1.5548,28.0296,-48.545,36,0.2581,8786,3.9281,-84.1042
lg,1625051475863404926,0,-0.4473,-0.8442,0.6492,87,35.2783,73.9746,-19.2261,144,1.2686,1.5518,29.1807,-48.7778,36,0.2471,8052,3.9281,-87.2906
lg,1625051475863422703,0,-0.4062,-0.8208,0.4614,88,48.4619,36.2549,-17.9443,144,1.2986,1.5478,29.3826,-48.2022,36,0.2321,8469,3.9281,-89.3215
lg,1625051475863440111,0,-0.3447,-0.686,0.4128,89,51.2695,10.8032,-12.146,144,1.3256,1.5418,29.0862,-46.9549,36,0.2201,8979,3.9281,-90.281
lg,1625051475863459148,0,-0.3052,-0.5774,0.4067,90,42.1143,6.1035,5.3101,144,1.3357,1.5378,29.4312,-45.9554,36,0.2171,8882,3.9281,-89.9033
lg,1625051475863477055,0,-0.1948,-0.5645,0.4504,91,-8.5449,16.7847,31.9824,144,1.3367,1.5347,30.25,-46.2921,36,0.2221,8535,3.9281,-89.555
lg,1625051475863493815,0,-0.4224,-0.77,0.4907,92,-53.1006,64.5752,39.7339,144,1.3236,1.5337,32.9373,-49.3864,35,0.2281,8954,3.9281,-90.7874
lg,1625051475863511518,0,-0.8245,-0.6594,0.5884,93,-60.1807,47.6685,46.5698,144,1.2796,1.5378,35.9607,-51.9414,35,0.2361,9346,3.9281,-91.1351
lg,1625051475863528166,0,-1.0359,-0.7935,0.5732,94,-84.1064,-59.9976,64.5142,144,1.2246,1.5428,36.9585,-52.7838,35,0.2401,8241,3.9281,-86.8491
lg,1625051475863545352,0,-0.8118,-0.9485,0.7986,95,-73.6694,-178.2837,86.9141,144,1.1636,1.5468,35.1016,-49.9515,36,0.2401,9068,3.9281,-77.1922
lg,1625051475863563037,0,-0.1289,-0.8342,0.6882,96,1.6479,-272.4609,47.5464,144,1.1486,1.5488,28.0524,-44.2267,36,0.2481,9438,3.9281,-66.3823
lg,1625051476204110240,0,0.2341,-0.71,0.3486,97,27.2217,-63.2324,-12.3291,144,1.1536,1.5508,26.2613,-43.9065,36,0.2451,26330,3.9281,-66.807
lg,1625051476204147648,0,0.0796,-0.4851,0.2092,98,33.0811,40.9546,-0.8545,144,1.1616,1.5518,26.5574,-43.6996,36,0.2481,8453,3.9281,-68.3472
lg,1625051476204168759,0,-0.1917,-0.6299,0.4983,99,10.437,161.5601,6.5308,144,1.1756,1.5538,30.7744,-46.0086,36,0.2491,7687,3.9281,-73.4858
lg,1625051476204188722,0,-0.5698,-0.8047,0.6631,100,12.4512,191.2842,0.1221,144,1.1946,1.5538,35.7959,-49.4088,36,0.2501,7760,3.9281,-80.3564
lg,1625051476204208370,0,-0.8428,-0.7903,0.7109,101,21.1792,124.6338,-11.3525,144,1.2246,1.5538,37.649,-50.2497,36,0.2501,15260,3.9281,-83.6018
lg,1625051476204227203,0,-0.7881,-0.717,0.7288,102,33.6304,27.5269,-4.0283,144,1.2456,1.5528,38.2251,-49.4048,36,0.2471,7758,3.9281,-84.6559
lg,1625051476204246222,0,-0.4692,-0.7581,0.6021,103,46.7529,-46.5088,0.3662,144,1.2696,1.5518,36.5094,-46.5657,36,0.2491,7760,3.9281,-82.9636
lg,1625051476204264129,0,-0.3442,-0.8335,0.6052,104,47.7295,-54.5654,1.4038,144,1.2906,1.5508,34.1363,-43.9417,36,0.2401,8447,3.9281,-81.4928
lg,1625051476204280962,0,-0.1951,-0.6995,0.6101,105,36.499,-39.4287,-2.4414,144,1.2946,1.5508,32.0647,-42.0576,36,0.2411,7811,3.9281,-80.4302
lg,1625051476204298611,0,-0.1968,-0.7952,0.5845,106,-33.7524,-14.1602,17.2119,144,1.2836,1.5518,31.3275,-43.3641,36,0.2461,8376,3.9281,-79.65
lg,1625051476204363222,0,-0.4302,-0.6702,0.5786,107,-38.208,8.1787,21.2402,144,1.2416,1.5548,32.4423,-45.3362,36,0.2421,8524,3.9281,-79.923
lg,1625051476204385907,0,-0.563,-0.7039,0.6646,108,-47.3633,29.8462,24.9023,144,1.1916,1.5548,33.8815,-47.3803,35,0.2441,7870,3.9281,-80.1595
lg,1625051476204405203,0,-0.6719,-0.8813,0.8408,109,-44.7388,-7.6294,25.1465,144,1.1416,1.5588,34.2187,-48.4967,35,0.2481,9032,3.9281,-79.0391
lg,1625051476204423500,0,-0.5391,-0.8132,0.4702,110,10.0708,-98.3887,-2.5024,144,1.1286,1.5578,31.357,-46.7171,35,0.2511,10051,3.9281,-75.9091
lg,1625051476204441111,0,-0.3667,-0.7266,0.4434,111,0.3662,-119.5679,-1.3428,144,1.1316,1.5578,27.7209,-45.2552,35,0.2521,9506,3.9281,-72.2441
lg,1625051476204458518,0,-0.3608,-0.5869,0.3826,112,4.6997,-90.21,19.2871,144,1.1376,1.5588,25.7064,-43.958,35,0.2541,7824,3.9281,-68.9931
lg,1625051476204476203,0,-0.2283,-0.6763,0.5969,113,4.6997,-73.4863,44.6777,144,1.1496,1.5578,24.3435,-42.4077,35,0.2541,8677,3.9281,-65.4189
lg,1625051476204493537,0,0.082,-0.8875,0.8298,114,8.667,-79.2847,49.0112,144,1.1676,1.5608,22.2116,-40.7146,35,0.2561,8691,3.9281,-61.624
lg,1625051476204511814,0,0.1677,-0.8313,0.6665,115,11.5967,-17.5781,21.9727,144,1.1806,1.5598,21.0857,-40.2409,35,0.2571,7981,3.9281,-60.586
lg,1625051476204529092,0,-0.0955,-0.78,0.6016,116,11.7798,33.2642,13.1226,144,1.1976,1.5608,22.9288,-41.1067,35,0.2591,8742,3.9281,-62.8957
lg,1625051476204546462,0,-0.3765,-0.7166,0.6863,117,18.4937,99.6094,2.0142,144,1.2186,1.5598,25.8626,-41.7359,35,0.2571,12276,3.9281,-65.8099
lg,1625051476204563759,0,-0.439,-0.7048,0.6929,118,20.752,83.5571,7.6294,144,1.2266,1.5588,28.0209,-41.9625,35,0.2501,8051,3.9281,-67.7419
lg,1625051476204581777,0,-0.4993,-0.7332,0.6072,119,5.127,56.5186,9.2773,144,1.2166,1.5588,29.9179,-42.7757,36,0.2551,8058,3.9281,-69.3307
lg,1625051476204599814,0,-0.6267,-0.8079,0.6189,120,-46.6919,28.6255,23.3154,144,1.1696,1.5608,31.4528,-45.0814,36,0.2491,9669,3.9281,-69.6658
lg,1625051476204617407,0,-0.6321,-0.6545,0.7402,121,-38.6963,-12.6343,44.4946,144,1.1055,1.5618,32.4024,-45.4644,36,0.2491,8150,3.9281,-67.6867
lg,1625051476204634629,0,-0.5935,-0.6567,0.5024,122,-26.7944,-65.4907,20.1416,144,1.0635,1.5598,31.2771,-45.2776,36,0.2491,9003,3.9281,-64.9567
lg,1625051476204652018,0,-0.4734,-0.8943,0.7698,123,-46.3867,-72.4487,31.25,144,1.0545,1.5588,29.2091,-44.5322,36,0.2501,9109,3.9281,-61.1784
lg,1625051476204668814,0,-0.3005,-0.896,0.6604,124,-5.4321,-80.2612,32.7759,144,1.0525,1.5598,27.2792,-43.4258,36,0.2501,8201,3.9281,-57.7649
lg,1625051476204685907,0,-0.115,-0.7751,0.6169,125,3.9062,-66.8945,28.5034,144,1.0625,1.5588,25.3113,-42.3012,36,0.2511,8970,3.9281,-54.9655
lg,1625051476204703277,0,0.0974,-0.926,0.7434,126,8.667,-10.0708,19.9585,144,1.0785,1.5608,24.4221,-41.9351,36,0.2521,8640,3.9281,-54.184
lg,1625051476204720907,0,0.0486,-0.894,0.6597,127,14.5874,26.6724,6.6528,144,1.1015,1.5608,24.6107,-42.2254,35,0.2521,8276,3.9281,-55.0205
lg,1625051476204740944,0,-0.2087,-0.7876,0.5249,128,19.4092,86.9141,-23.9868,144,1.1286,1.5618,26.0323,-43.4887,35,0.2491,8699,3.9281,-58.6628
lg,1625051476577200870,0,-0.6135,-0.5874,0.3345,129,49.6216,6.5308,-27.771,144,1.2246,1.5558,26.1256,-42.5248,35,0.2251,27750,3.9281,-59.993
lg,1625051476577234888,0,-0.3513,-0.8618,0.6731,130,-18.7988,-0.6104,24.9634,144,1.2326,1.5568,26.4641,-43.29,35,0.2311,12601,3.9281,-59.3297
lg,1625051476577255647,0,-0.4988,-0.7424,0.5469,131,-35.9497,1.4038,31.4941,144,1.1986,1.5598,27.4605,-44.6734,35,0.2361,9963,3.9281,-58.5351
lg,1625051476577274814,0,-0.6877,-0.625,0.6558,132,-40.6494,-7.019,38.8794,144,1.1516,1.5618,28.4552,-45.3326,36,0.2381,8471,3.9281,-56.4386
lg,1625051476577293647,0,-0.7327,-0.7041,0.7617,133,-46.936,-41.0767,45.5933,144,1.1065,1.5618,28.8742,-45.756,36,0.2431,8537,3.9281,-53.5936
lg,1625051476577312018,0,-0.5701,-0.8572,0.5569,134,-14.3433,-136.5967,15.7471,144,1.0935,1.5618,25.5172,-44.5283,36,0.2451,8131,3.9281,-48.9343
lg,1625051476577330833,0,-0.1487,-0.8728,0.6418,135,-11.9019,-180.0537,14.0381,144,1.0905,1.5618,20.0646,-43.1164,36,0.2461,8149,3.9281,-43.2534
lg,1625051476577348833,0,-0.0688,-0.7561,0.4773,136,2.8687,-171.4478,14.7095,144,1.0895,1.5608,15.9887,-42.2122,35,0.2471,9497,3.9281,-39.1287
lg,1625051476577366351,0,0.189,-0.7205,0.5654,137,4.8218,-75.0122,28.8086,144,1.0935,1.5588,13.4912,-41.6443,35,0.2481,8673,3.9281,-36.2783
lg,1625051476577383370,0,-0.0139,-0.8276,0.5376,138,-0.1831,77.8198,10.437,144,1.0985,1.5618,15.581,-42.7232,35,0.2501,13594,3.9281,-38.2643
lg,1625051476577400814,0,-0.3564,-0.7234,0.4973,139,2.9297,105.957,3.418,144,1.1045,1.5618,19.197,-44.0564,35,0.2511,8552,3.9281,-41.6863
lg,1625051476577418018,0,-0.4707,-0.739,0.5442,140,2.6245,112.3657,3.0518,144,1.1155,1.5618,22.7696,-45.4845,35,0.2531,7864,3.9281,-45.1112
lg,1625051476577434518,0,-0.5862,-0.8557,0.6653,141,7.5684,65.1855,8.606,144,1.1336,1.5628,25.0426,-46.148,35,0.2521,8245,3.9281,-46.9958
lg,1625051476577451592,0,-0.4211,-0.834,0.6724,142,22.1558,-13.0005,13.916,144,1.1556,1.5618,24.935,-45.0998,35,0.2481,8660,3.9281,-46.2387
lg,1625051476577469444,0,-0.2373,-0.7756,0.6956,143,32.8979,-37.2925,19.104,144,1.1896,1.5618,23.6162,-43.3083,36,0.2391,8954,3.9281,-44.6084
lg,1625051476577487036,0,-0.0261,-0.8579,0.6135,144,46.5698,-28.0151,5.4321,144,1.2326,1.5578,22.0976,-41.5347,36,0.2261,9378,3.9281,-43.8156
lg,1625051476577504370,0,-0.0596,-0.7571,0.5293,145,50.7202,21.7285,2.6245,144,1.2736,1.5538,22.123,-40.2758,36,0.2251,9670,3.9281,-44.5691
lg,1625051476577521166,0,-0.1101,-0.5547,0.4819,146,32.0435,50.7202,23.5596,144,1.2856,1.5468,23.7453,-39.6048,36,0.2241,10359,3.9281,-45.3458
lg,1625051476577538481,0,-0.3213,-0.7927,0.655,147,-39.6118,98.4497,34.4238,144,1.2756,1.5518,27.3525,-42.3613,35,0.2241,8394,3.9281,-47.2399
lg,1625051476577555129,0,-0.7327,-0.8137,0.6389,148,-57.9834,107.2998,50.4761,144,1.2276,1.5548,32.1245,-45.9001,35,0.2271,8412,3.9281,-49.1951
lg,1625051476577572055,0,-0.8955,-0.7341,0.6035,149,-60.1807,62.6221,50.0488,144,1.1596,1.5588,35.8597,-48.6953,35,0.2291,8516,3.9281,-49.8378
lg,1625051476577592073,0,-0.9775,-0.7322,0.7341,150,-61.8896,-41.8091,60.1807,144,1.1015,1.5608,36.863,-48.916,35,0.2351,8127,3.9281,-46.2162
lg,1625051476577610462,0,-0.4932,-0.7209,0.5381,151,1.1597,-152.9541,29.1748,144,1.0915,1.5588,33.2639,-45.3341,35,0.2371,8239,3.9281,-39.8678
lg,1625051476577627555,0,-0.103,-0.9915,0.8174,152,-15.3198,-144.165,7.5684,144,1.0935,1.5588,28.306,-43.6396,35,0.2381,8944,3.9281,-35.046
lg,1625051476577644610,0,-0.2024,-0.783,0.4248,153,13.6108,-123.4131,-10.0708,144,1.0965,1.5588,23.9937,-42.1722,35,0.2401,8887,3.9281,-31.9043
lg,1625051476577661444,0,-0.1836,-0.6008,0.4788,154,13.0005,-50.5981,15.2588,144,1.1025,1.5598,22.49,-41.2566,35,0.2401,8191,3.9281,-30.0976
lg,1625051476577677870,0,-0.1704,-0.7681,0.5957,155,3.2959,-2.3804,20.5078,144,1.1095,1.5598,22.4771,-41.2926,35,0.2411,8643,3.9281,-29.5371
lg,1625051476577694110,0,-0.2458,-0.8484,0.7126,156,10.8032,41.8701,11.4746,144,1.1235,1.5608,23.6398,-41.5399,35,0.2431,8959,3.9281,-30.5077
lg,1625051476577711333,0,-0.2766,-0.7983,0.719,157,17.7002,46.7529,4.5776,144,1.1416,1.5618,24.9286,-41.6358,35,0.2441,8630,3.9281,-31.8469
lg,1625051476577727907,0,-0.3909,-0.771,0.6282,158,15.564,42.9688,-10.2539,87,1.1636,1.5598,25.7946,-42.0671,35,0.2461,9017,3.9699,-33.6118
lg,1625051476577744703,0,-0.4463,-0.8245,0.624,159,20.2026,38.9404,-12.085,87,1.1866,1.5628,26.5284,-42.3771,35,0.2471,9302,3.9699,-35.3667
lg,1625051476577761036,0,-0.3574,-0.7063,0.6968,160,40.2832,1.77,-8.4839,87,1.2126,1.5618,26.0856,-41.0346,35,0.2441,8687,3.9699,-35.757
lg,1625051476945182351,0,-0.1523,-0.7456,0.6787,161,28.9307,49.1333,4.6997,87,1.2796,1.5558,27.004,-40.7343,35,0.2381,28325,3.9699,-37.1689
lg,1625051476945248851,0,-0.3523,-0.8618,0.6072,162,-33.2031,68.4204,10.6812,87,1.2736,1.5548,28.9876,-43.4463,35,0.2441,11595,3.9699,-39.1547
lg,1625051476945270592,0,-0.5889,-0.7378,0.6484,163,-38.147,69.1528,15.1367,87,1.2376,1.5588,31.5888,-46.0285,35,0.2481,10978,3.9699,-41.009
lg,1625051476945290018,0,-0.7,-0.7898,0.6379,164,-48.3398,8.1177,34.5459,87,1.1946,1.5608,32.9284,-47.6915,36,0.2441,7758,3.9699,-40.2728
lg,1625051476945308981,0,-0.6135,-0.7959,0.6594,165,-37.1704,-66.7725,43.5181,87,1.1486,1.5618,32.3225,-47.2515,36,0.2461,8081,3.9699,-36.5851
lg,1625051476945327592,0,-0.3496,-0.7866,0.8904,166,-29.6021,-102.6611,43.0908,87,1.1276,1.5618,30.1366,-45.638,36,0.2501,8129,3.9699,-31.5732
lg,1625051476945345555,0,-0.2314,-0.7761,0.3765,167,-6.958,-132.3242,14.0991,87,1.1225,1.5608,26.2844,-44.4698,35,0.2511,8452,3.9699,-27.2604
lg,1625051476945363332,0,-0.1853,-0.7351,0.3882,168,2.6855,-91.6138,7.6904,87,1.1245,1.5618,23.3903,-43.8102,35,0.2521,9712,3.9699,-24.5279
lg,1625051476945381406,0,-0.23,-0.7322,0.5979,169,0.8545,-26.4893,36.8652,87,1.1336,1.5618,23.2606,-43.2798,35,0.2521,7873,3.9699,-22.6831
lg,1625051476945398795,0,-0.1428,-0.7637,0.7097,170,7.6904,-20.2026,48.2788,87,1.1466,1.5618,23.3732,-42.279,35,0.2531,8133,3.9699,-20.6104
lg,1625051476945416092,0,-0.0503,-0.8467,0.7202,171,10.5591,-2.9907,43.396,87,1.1616,1.5638,23.6404,-41.5684,35,0.2541,8166,3.9699,-19.2461
lg,1625051476945472518,0,-0.145,-0.8005,0.6042,172,17.0288,44.8608,23.9258,87,1.1786,1.5648,25.018,-41.5806,35,0.2561,8577,3.9699,-19.9665
lg,1625051476945494166,0,-0.2471,-0.7639,0.6472,173,21.9727,63.8428,16.0522,87,1.1916,1.5638,26.9052,-41.6334,35,0.2571,7828,3.9699,-21.4701
lg,1625051476945512314,0,-0.3101,-0.6462,0.7148,174,26.062,47.2412,6.5918,87,1.1956,1.5648,28.1239,-41.1525,35,0.2561,7829,3.9699,-22.6678
lg,1625051476945532499,0,-0.4856,-0.8635,0.5876,175,-28.6865,39.1846,10.8032,87,1.1816,1.5658,29.46,-43.2811,35,0.2591,8252,3.9699,-23.784
lg,1625051476945550925,0,-0.5515,-0.8218,0.6348,176,-33.6914,29.4189,19.104,87,1.1316,1.5658,30.7728,-45.1353,36,0.2591,7915,3.9699,-24.2778
lg,1625051476945568351,0,-0.5569,-0.6287,0.7437,177,-11.9629,2.3193,15.0757,87,1.0895,1.5648,31.2213,-45.1856,36,0.2581,8304,3.9699,-23.751
lg,1625051476945585555,0,-0.5806,-0.8394,0.7874,178,-28.1372,-37.6587,4.2114,87,1.0725,1.5618,30.1086,-45.655,36,0.2581,7968,3.9699,-22.3899
lg,1625051476945602573,0,-0.5684,-0.7983,0.5476,179,-8.1787,-72.2046,-1.0986,87,1.0665,1.5588,28.0855,-45.2245,36,0.2591,8011,3.9699,-20.2504
lg,1625051476945619518,0,-0.3035,-0.8115,0.6304,180,0.9155,-91.6748,17.9443,87,1.0655,1.5598,25.5386,-43.9122,36,0.2591,8722,3.9699,-16.9275
lg,1625051476945636740,0,-0.1118,-0.717,0.5493,181,6.7749,-68.7256,22.583,87,1.0695,1.5598,23.46,-42.845,36,0.2601,8303,3.9699,-14.2917
lg,1625051476945653666,0,0.0005,-0.8328,0.6543,182,3.8452,2.7466,21.3623,87,1.0765,1.5608,23.2216,-42.8303,36,0.2611,9261,3.9699,-13.8453
lg,1625051476945671351,0,-0.0681,-0.8513,0.6477,183,12.5732,55.9692,9.5825,87,1.0965,1.5618,24.7106,-43.3908,36,0.2591,13738,3.9699,-16.1634
lg,1625051476945689184,0,-0.1895,-0.8132,0.6614,184,20.1416,93.4448,-6.5308,87,1.1215,1.5638,26.6434,-44.2344,36,0.2571,8867,3.9699,-19.3804
lg,1625051476945705962,0,-0.345,-0.8376,0.6638,185,24.1699,112.4268,-22.2778,87,1.1516,1.5648,28.833,-45.5743,36,0.2521,8482,3.9699,-23.8222
lg,1625051476945723462,0,-0.4265,-0.8142,0.573,186,43.6401,90.6372,-39.3066,87,1.1946,1.5638,29.9901,-46.2966,36,0.2401,8524,3.9699,-28.2562
lg,1625051476945740666,0,-0.4966,-0.7642,0.4404,187,52.8564,81.2378,-39.2456,87,1.2556,1.5608,30.6977,-45.8632,36,0.2351,8910,3.9699,-31.6523
lg,1625051476945769758,0,-0.458,-0.6711,0.3979,188,68.2373,23.1323,-17.4561,87,1.3076,1.5578,30.8636,-44.3462,36,0.2241,8473,3.9699,-33.2578
lg,1625051476945788740,0,-0.2725,-0.519,0.4248,189,45.5933,-2.8076,19.104,87,1.3256,1.5548,30.9624,-42.4114,36,0.2191,8263,3.9699,-32.6627
lg,1625051476945805666,0,-0.2498,-0.751,0.5239,190,-18.1885,53.2227,39.1235,87,1.3327,1.5528,32.9753,-43.8848,36,0.2241,8650,3.9699,-33.3223
lg,1625051476945822462,0,-0.5776,-0.8406,0.6931,191,-44.4336,98.6328,37.1094,87,1.3236,1.5518,36.5692,-47.1558,36,0.2301,9046,3.9699,-35.6393
lg,1625051476945841166,0,-0.7646,-0.7119,0.7317,192,-44.0063,82.5195,40.6494,87,1.2896,1.5548,39.9541,-49.8814,36,0.2261,8352,3.9699,-37.3538
lg,1625051477318151369,0,-0.6228,-0.8386,0.7068,193,-60.3638,-181.0913,75.9277,87,1.1376,1.5608,37.0025,-46.3731,35,0.2361,27058,3.9699,-27.865
lg,1625051477318189406,0,-0.053,-0.6885,0.5559,194,6.2866,-237.1826,34.79,87,1.1245,1.5608,29.5776,-41.3921,35,0.2391,8973,3.9699,-19.0054
lg,1625051477318210240,0,0.1804,-0.9368,0.4707,195,5.0049,-102.1729,-14.7705,87,1.1266,1.5608,24.7646,-40.9635,35,0.2391,8204,3.9699,-16.9432
lg,1625051477318229684,0,0.0308,-0.801,0.3811,196,8.667,-26.6724,-21.5454,87,1.1286,1.5608,22.4507,-41.5742,36,0.2411,7668,3.9699,-17.2899
lg,1625051477318248406,0,-0.1785,-0.5898,0.3787,197,20.9351,62.6831,-3.1738,87,1.1336,1.5618,23.9245,-42.1353,36,0.2431,8588,3.9699,-19.4633
lg,1625051477318266647,0,-0.3257,-0.6726,0.5229,198,7.4463,81.7871,12.3901,87,1.1386,1.5618,26.5379,-43.1074,36,0.2431,8198,3.9699,-21.6788
lg,1625051477318284888,0,-0.4246,-0.7603,0.5374,199,5.4321,84.2896,17.1509,87,1.1496,1.5628,29.1328,-44.0681,35,0.2441,9401,3.9699,-23.6477
lg,1625051477318302777,0,-0.4744,-0.7517,0.5527,200,12.4512,60.791,18.1885,87,1.1616,1.5638,31.3476,-44.4733,35,0.2461,8810,3.9699,-25.1233
lg,1625051477318320573,0,-0.5071,-0.7268,0.6777,201,16.7236,29.1138,18.9819,87,1.1746,1.5638,32.5272,-44.0675,35,0.2451,8593,3.9699,-25.495
lg,1625051477318338332,0,-0.4246,-0.782,0.6643,202,18.1274,-17.8223,25.2686,87,1.1926,1.5648,32.3096,-42.7984,35,0.2441,8616,3.9699,-24.1741
lg,1625051477318361999,0,-0.1606,-0.7439,0.7202,203,23.5596,-32.4097,32.2266,87,1.2116,1.5648,31.1436,-40.6734,35,0.2421,7995,3.9699,-22.1062
lg,1625051477318428147,0,-0.1025,-0.8035,0.6851,204,24.7192,-21.7896,21.3623,87,1.2316,1.5628,30.058,-39.3699,35,0.2461,8634,3.9699,-20.9134
lg,1625051477318452128,0,-0.1123,-0.8398,0.6599,205,18.0054,27.5879,19.3481,87,1.2526,1.5618,30.4907,-39.2667,35,0.2411,8712,3.9699,-21.3167
lg,1625051477318469591,0,-0.2097,-0.7651,0.645,206,13.3667,66.9556,22.644,87,1.2696,1.5618,32.4034,-39.8172,35,0.2381,7964,3.9699,-22.7427
lg,1625051477318487443,0,-0.2556,-0.7478,0.6294,207,7.4463,76.0498,23.9258,87,1.2806,1.5608,34.7505,-40.7263,36,0.2371,7986,3.9699,-24.442
lg,1625051477318505054,0,-0.3743,-0.7375,0.6489,208,-4.3335,83.6792,26.123,87,1.2826,1.5608,37.3848,-42.2926,36,0.2381,7998,3.9699,-26.425
lg,1625051477318521258,0,-0.4819,-0.8042,0.6816,209,-42.4194,51.2695,34.2407,87,1.2656,1.5618,39.2957,-44.634,36,0.2421,8001,3.9699,-27.1545
lg,1625051477318537980,0,-0.5835,-0.7886,0.4514,210,-61.8896,29.9072,45.8374,87,1.2006,1.5638,40.8994,-47.45,36,0.2371,8815,3.9699,-25.7654
lg,1625051477318555017,0,-0.676,-0.7937,0.4319,211,-98.4497,0.2441,56.4575,87,1.0925,1.5648,42.4595,-50.632,35,0.2401,8813,3.9699,-24.1721
lg,1625051477318571628,0,-0.4146,-0.5415,0.8989,212,-32.3486,-28.8086,38.8794,87,1.0665,1.5618,42.1722,-49.2359,35,0.2431,8764,3.9699,-20.9703
lg,1625051477318589295,0,-0.2739,-1.0884,1.2339,213,-40.4663,-32.8979,-1.6479,87,1.0655,1.5568,40.0582,-49.5905,35,0.2441,8456,3.9699,-19.4062
lg,1625051477318606628,0,-0.5552,-0.9587,0.573,214,5.9204,-26.3672,-42.8467,87,1.0775,1.5568,37.5527,-50.0141,35,0.2441,8685,3.9699,-20.0538
lg,1625051477318624332,0,-0.4834,-0.8748,0.6357,215,27.3438,-36.0107,-32.3486,87,1.0885,1.5588,35.0745,-48.8528,35,0.2441,8497,3.9699,-19.8083
lg,1625051477318644573,0,-0.3635,-0.6028,0.3977,216,37.8418,-64.7583,-30.1514,87,1.0945,1.5598,32.1351,-46.92,35,0.2441,9146,3.9699,-18.6503
lg,1625051477318661980,0,-0.416,-0.5439,0.0955,217,16.3574,-16.3574,-20.3857,87,1.0955,1.5608,31.4347,-47.471,35,0.2471,8535,3.9699,-19.3554
lg,1625051477318678295,0,-0.5408,-0.5461,0.3835,218,0.7324,66.4673,3.7842,87,1.1025,1.5618,33.6031,-48.9039,36,0.2501,11601,3.9699,-21.7348
lg,1625051477318695832,0,-0.6555,-0.9355,0.7183,219,-5.4321,54.6875,16.6016,87,1.1115,1.5628,33.8806,-48.895,36,0.2511,11840,3.9699,-21.294
lg,1625051477318712777,0,-0.5767,-0.8777,0.6367,220,3.6011,-46.5698,16.9678,87,1.1205,1.5638,32.923,-47.7371,36,0.2501,8630,3.9699,-19.1979
lg,1625051477318839091,0,-0.3584,-0.7429,0.6008,221,13.4277,-88.6841,24.9634,87,1.1356,1.5638,30.7344,-45.3105,36,0.2481,8676,3.9699,-15.435
lg,1625051477318874851,0,-0.1008,-0.8145,0.6296,222,7.8125,-99.8535,27.8931,87,1.1546,1.5638,27.7151,-43.3011,35,0.2451,8303,3.9699,-11.4925
lg,1625051477318894795,0,0.0833,-0.8894,0.6914,223,19.2871,-58.8379,17.6392,87,1.1856,1.5638,25.2789,-41.8642,35,0.2411,10165,3.9699,-9.3245
lg,1625051477318931443,0,0.106,-0.8933,0.645,224,30.7617,5.4932,4.2725,87,1.2236,1.5618,24.4124,-41.1707,35,0.2421,9246,3.9699,-9.5793
lg,1625051477685336499,0,-0.189,-0.6826,0.5063,225,18.0664,81.9092,10.498,87,1.2876,1.5568,27.0445,-42.7335,36,0.2351,25911,3.9699,-11.6237
lg,1625051477685366758,0,-0.5439,-0.7449,0.6077,226,-38.9404,90.0269,36.5601,87,1.2596,1.5578,30.7242,-45.396,36,0.2331,13527,3.9699,-13.4378
lg,1625051477685387091,0,-0.7031,-0.8179,0.7019,227,-50.9644,47.2412,42.6636,87,1.1976,1.5608,33.3375,-47.6964,36,0.2351,10449,3.9699,-13.7556
lg,1625051477685426350,0,-0.7549,-0.8728,0.7354,228,-52.124,25.3296,42.7246,87,1.1276,1.5628,35.2787,-49.5974,36,0.2371,7892,3.9699,-13.357
lg,1625051477685444795,0,-0.3081,-0.7761,1.2527,229,-23.9258,-40.5884,34.668,87,1.0925,1.5638,34.4117,-48.2264,36,0.2411,8455,3.9699,-10.2747
lg,1625051477685462665,0,-0.3103,-0.9138,0.7039,230,-6.5918,-50.415,-7.0801,87,1.0885,1.5628,32.1086,-47.8082,36,0.2431,8272,3.9699,-8.8068
lg,1625051477685480480,0,-0.1865,-0.9739,0.7915,231,-1.0986,-38.0249,-16.0522,87,1.0905,1.5618,29.6263,-47.4774,36,0.2441,8109,3.9699,-9.2931
lg,1625051477685498091,0,-0.3755,-0.7563,0.3223,232,25.8789,-10.437,-42.3584,87,1.0915,1.5628,29.0304,-47.5057,36,0.2451,9860,3.9699,-10.6063
lg,1625051477685515295,0,-0.4988,-0.4521,0.1221,233,36.1938,8.5449,-13.7939,87,1.0935,1.5638,29.6254,-47.2223,36,0.2451,7793,3.9699,-11.7161
lg,1625051477685533110,0,-0.5823,-0.417,0.3574,234,4.3335,46.936,14.8315,87,1.0975,1.5638,31.9787,-47.6939,36,0.2451,10236,3.9699,-12.8965
lg,1625051477685553017,0,-0.6611,-0.7781,0.615,235,-11.9019,25.5737,35.0952,87,1.1025,1.5658,33.7604,-48.1947,36,0.2441,8578,3.9699,-12.7637
lg,1625051477685570499,0,-0.5718,-0.8608,0.7332,236,-5.3101,-15.0757,37.9639,87,1.1145,1.5658,33.1336,-46.1889,36,0.2441,8245,3.9699,-9.388
lg,1625051477685587165,0,-0.4282,-0.814,0.782,237,14.2212,-89.0503,46.3867,87,1.1356,1.5658,31.4298,-43.1945,36,0.2441,8373,3.9699,-4.8644
lg,1625051477685603721,0,-0.0457,-0.8506,0.7708,238,18.6768,-121.7041,40.2222,87,1.1596,1.5658,27.7811,-40.1402,35,0.2441,7903,3.9699,0.1079
lg,1625051477685620276,0,0.1865,-0.8801,0.7261,239,20.1416,-111.7554,30.0293,87,1.1886,1.5648,24.4832,-38.1667,35,0.2421,7892,3.9699,3.0359
lg,1625051477685637499,0,0.2397,-0.8833,0.7168,240,37.4756,-40.5273,13.1226,87,1.2246,1.5608,22.1964,-36.6017,35,0.2371,8293,3.9699,4.3226
lg,1625051477685654665,0,0.0134,-0.8779,0.5532,241,34.8511,68.7256,-10.0098,87,1.2516,1.5608,23.3147,-36.9178,35,0.2391,7979,3.9699,1.8503
lg,1625051477685671406,0,-0.2554,-0.6824,0.5168,242,32.4707,90.3931,-8.8501,87,1.2586,1.5598,26.1571,-37.9573,36,0.2401,8306,3.9699,-0.8322
lg,1625051477685697517,0,-0.3328,-0.7253,0.6023,243,-19.8364,93.3838,11.7798,87,1.2496,1.5598,29.0791,-40.2947,36,0.2381,7933,3.9699,-3.309
lg,1625051477685714536,0,-0.5864,-0.7786,0.5757,244,-48.5229,84.8389,25.1465,87,1.2036,1.5628,32.3499,-43.6426,36,0.2391,8000,3.9699,-5.3407
lg,1625051477685730795,0,-0.7058,-0.6987,0.6641,245,-47.7295,56.4575,34.4238,87,1.1506,1.5648,34.3549,-45.1362,36,0.2391,8060,3.9699,-5.0331
lg,1625051477685746888,0,-0.7209,-0.7363,0.7458,246,-30.1514,7.2632,38.147,87,1.1035,1.5648,35.6401,-45.699,35,0.2421,8842,3.9699,-3.9622
lg,1625051477685763647,0,-0.5654,-0.7817,0.5911,247,2.9297,-54.3823,8.9111,87,1.0875,1.5638,34.1484,-44.6181,35,0.2441,8094,3.9699,-1.9395
lg,1625051477685780795,0,-0.3965,-0.8647,0.6299,248,-2.9907,-72.0825,-0.4272,87,1.0885,1.5638,31.5535,-43.8448,35,0.2451,8098,3.9699,0.2191
lg,1625051477685797258,0,-0.4316,-0.542,0.354,249,12.7563,-55.9082,6.2866,87,1.0925,1.5638,30.2141,-42.7901,35,0.2461,13727,3.9699,1.9729
lg,1625051477685814462,0,-0.2385,-0.6877,0.5747,250,2.1362,-31.8604,43.1519,87,1.1005,1.5648,29.841,-41.7844,36,0.2451,8916,3.9699,4.2746
lg,1625051477685831499,0,-0.1636,-0.835,0.6016,251,0.6104,-6.0425,46.0205,87,1.1095,1.5648,30.0958,-41.4217,36,0.2471,8542,3.9699,5.7686
lg,1625051477685848591,0,-0.2073,-0.7727,0.6426,252,4.8218,18.5547,43.5791,87,1.1195,1.5658,31.8603,-41.6226,36,0.2471,8183,3.9699,5.4492
lg,1625051477685865128,0,-0.2742,-0.76,0.6809,253,5.6152,62.8662,36.6821,87,1.1386,1.5668,34.0398,-42.0621,35,0.2491,8317,3.9699,4.5928
lg,1625051477685881295,0,-0.385,-0.7993,0.6904,254,5.3711,58.2886,33.3862,87,1.1606,1.5678,35.7219,-42.0741,35,0.2521,9188,3.9699,4.1104
lg,1625051477685897388,0,-0.3806,-0.7876,0.6873,255,14.6484,35.8887,32.1655,87,1.1766,1.5658,37.0257,-41.7959,35,0.2511,8648,3.9699,3.9199
lg,1625051477685913906,0,-0.3086,-0.7344,0.6553,256,10.3149,25.5737,22.644,87,1.1776,1.5668,37.6233,-41.6843,35,0.2511,8411,3.9699,3.7276
lg,1625051478056294221,0,-0.5364,-0.6704,0.6313,257,-21.0571,-7.0801,18.6157,87,1.1155,1.5688,37.613,-42.1541,35,0.2521,26605,3.9699,4.5417
lg,1625051478056410091,0,-0.5063,-0.8303,0.5808,258,-15.3198,-28.8696,11.7188,87,1.0925,1.5678,36.6663,-42.4674,36,0.2531,8947,3.9699,5.6148
lg,1625051478056431239,0,-0.4241,-0.7925,0.49,259,-6.4087,-42.2974,12.2681,87,1.0905,1.5678,35.2502,-42.0384,36,0.2561,11213,3.9699,6.931
lg,1625051478056450461,0,-0.4043,-0.7019,0.4944,260,5.6763,-34.729,9.8267,87,1.0935,1.5678,34.1098,-41.5108,36,0.2561,7736,3.9699,8.0995
lg,1625051478056468684,0,-0.4763,-0.6487,0.4578,261,-0.6714,-26.8555,17.0898,87,1.0975,1.5678,33.6569,-41.2427,36,0.2571,9277,3.9699,9.2771
lg,1625051478056486498,0,-0.426,-0.782,0.5259,262,3.9062,-34.79,29.8462,87,1.1065,1.5688,33.0558,-40.5161,35,0.2581,8471,3.9699,11.1005
lg,1625051478056503943,0,-0.2766,-0.79,0.6006,263,7.8125,-42.3584,32.1655,87,1.1225,1.5688,32.0524,-39.2769,35,0.2581,8354,3.9699,13.1545
lg,1625051478056521535,0,-0.1975,-0.7878,0.6294,264,14.2212,-27.832,29.1138,87,1.1406,1.5688,31.3593,-38.5667,35,0.2591,9081,3.9699,14.1182
lg,1625051478056538906,0,-0.2014,-0.7917,0.6877,265,16.7847,2.0142,16.9067,87,1.1596,1.5638,31.0593,-38.0714,35,0.2581,8199,3.9699,14.4311
lg,1625051478056556758,0,-0.2532,-0.8186,0.6633,266,25.8789,33.7524,4.8828,87,1.1836,1.5638,31.5728,-38.0209,36,0.2531,8206,3.9699,13.336
lg,1625051478056574147,0,-0.3528,-0.79,0.5845,267,30.9448,43.396,-1.8311,87,1.2056,1.5598,32.4521,-38.1565,36,0.2481,8190,3.9699,11.6494
lg,1625051478056590776,0,-0.3679,-0.6882,0.5913,268,30.2124,41.626,0.9766,87,1.2156,1.5578,33.3825,-38.0735,36,0.2461,8624,3.9699,10.1982
lg,1625051478056607128,0,-0.4526,-0.7886,0.6531,269,-21.2402,33.8745,16.2354,94,1.1916,1.5598,34.3696,-40.1413,36,0.2521,8582,3.9688,10.062
lg,1625051478056623795,0,-0.6978,-0.6921,0.5559,270,-46.6309,-9.0942,28.1982,94,1.1316,1.5628,34.9911,-41.6523,36,0.2501,9279,3.9688,11.155
lg,1625051478056651258,0,-0.5303,-0.8552,0.925,271,-41.5649,-57.0679,38.9404,94,1.0715,1.5648,33.8421,-41.5071,36,0.2541,8700,3.9688,14.3877
lg,1625051478056670406,0,-0.3911,-0.7263,0.8398,272,-7.2021,-84.8389,17.2119,94,1.0525,1.5638,31.1652,-40.0113,36,0.2561,8143,3.9688,17.656
lg,1625051478056704517,0,-0.2561,-0.99,0.7468,273,-22.7051,-85.8765,-9.7046,94,1.0555,1.5618,27.5746,-40.3942,35,0.2561,7984,3.9688,19.5781
lg,1625051478056723424,0,-0.365,-0.7651,0.3513,274,9.5215,-58.6548,-29.6021,94,1.0635,1.5608,24.9527,-40.6763,35,0.2561,8042,3.9688,19.8293
lg,1625051478056740665,0,-0.3726,-0.6018,0.3621,275,16.0522,-25.5737,-3.2959,94,1.0665,1.5608,24.2498,-40.4585,35,0.2561,8986,3.9688,20.1641
lg,1625051478056757332,0,-0.366,-0.6021,0.418,276,8.1177,-16.9678,4.2725,94,1.0685,1.5608,23.9588,-40.4358,35,0.2581,8759,3.9688,20.5601
lg,1625051478056773998,0,-0.3845,-0.824,0.5559,277,2.3804,4.1504,24.5361,94,1.0685,1.5608,24.6351,-40.6659,36,0.2571,8025,3.9688,21.0071
lg,1625051478056790647,0,-0.3533,-0.7222,0.5833,278,9.5825,-8.3618,28.6865,94,1.0675,1.5618,24.984,-40.1907,36,0.2591,8054,3.9688,22.034
lg,1625051478056808721,0,-0.3186,-0.7063,0.6135,279,9.0942,-14.5874,30.3345,94,1.0695,1.5628,25.0774,-39.5716,36,0.2601,8463,3.9688,23.3224
lg,1625051478056826276,0,-0.2659,-0.7715,0.6277,280,3.7231,-18.3716,27.8931,94,1.0745,1.5638,24.8347,-39.2683,36,0.2611,8826,3.9688,24.5883
lg,1625051478056843498,0,-0.2959,-0.7612,0.6343,281,6.1035,0.4272,24.4751,94,1.0845,1.5648,25.1525,-39.1211,36,0.2611,8883,3.9688,25.223
lg,1625051478056860461,0,-0.3618,-0.7759,0.7017,282,7.8735,10.9863,23.4375,94,1.0995,1.5648,25.8458,-38.9433,36,0.2591,8097,3.9688,25.5695
lg,1625051478056877313,0,-0.3708,-0.8157,0.7556,283,9.5215,10.1318,17.5171,94,1.1245,1.5648,26.2842,-38.714,36,0.2561,8966,3.9688,25.7625
lg,1625051478056893647,0,-0.2881,-0.7681,0.7439,284,26.062,2.2583,11.7798,94,1.1556,1.5648,26.2073,-37.8177,36,0.2511,8592,3.9688,25.975
lg,1625051478056909850,0,-0.356,-0.9263,0.6833,285,26.4282,28.8086,-11.1084,94,1.1936,1.5608,26.5124,-37.9363,36,0.2511,8588,3.9688,24.5027
lg,1625051478056926369,0,-0.3909,-0.7703,0.5918,286,38.8794,31.6162,-9.4604,94,1.2316,1.5578,27.1177,-37.5117,36,0.2441,8245,3.9688,23.0342
lg,1625051478056943184,0,-0.4214,-0.6929,0.5579,287,33.02,26.4282,-3.1128,94,1.2476,1.5548,27.8869,-37.0026,36,0.2411,9045,3.9688,22.004
lg,1625051478056970017,0,-0.4636,-0.6958,0.6196,288,-8.7891,12.6953,10.8032,94,1.2466,1.5538,28.4955,-37.8965,35,0.2481,9068,3.9688,21.7764
lg,1625051478428071165,0,-0.5791,-0.8235,0.6404,289,-54.8096,-83.0688,31.9214,94,1.1125,1.5628,26.0195,-38.4042,35,0.2431,28630,3.9688,26.0027
lg,1625051478428106480,0,-0.0435,-0.7581,1.1021,290,-26.3062,-159.2407,23.2544,94,1.0805,1.5618,20.6602,-37.276,36,0.2481,13415,3.9688,31.1309
lg,1625051478428126794,0,0.0083,-0.9578,0.8135,291,-19.165,-87.3413,-8.4229,94,1.0825,1.5618,16.9019,-37.9082,36,0.2491,7820,3.9688,32.93
lg,1625051478428146369,0,-0.1257,-0.8564,0.4531,292,7.2021,-67.2607,-19.4092,94,1.0875,1.5618,13.9959,-38.2786,36,0.2491,7761,3.9688,33.7464
lg,1625051478428164776,0,0.0144,-0.6877,0.5923,293,19.8364,-19.6533,9.2163,94,1.0925,1.5618,13.0298,-37.7377,36,0.2501,7704,3.9688,34.4336
lg,1625051478428182980,0,0.0571,-0.6858,0.5359,294,21.1792,4.3945,17.2119,94,1.0945,1.5618,14.1458,-37.9957,36,0.2501,7744,3.9688,33.5659
lg,1625051478428201443,0,-0.2153,-0.7693,0.4934,295,2.1973,94.5435,10.9253,94,1.0965,1.5628,18.4469,-39.5601,36,0.2501,10054,3.9688,30.3171
lg,1625051478428220017,0,-0.3801,-0.7698,0.5454,296,4.3335,143.4326,8.728,94,1.1025,1.5638,23.4351,-41.14,36,0.2511,7791,3.9688,26.4734
lg,1625051478428237443,0,-0.5891,-0.7229,0.6187,297,3.0518,106.7505,12.146,94,1.1095,1.5638,27.2491,-42.4965,36,0.2521,7815,3.9688,23.5908
lg,1625051478428254961,0,-0.5745,-0.7686,0.6633,298,2.0752,34.4238,19.6533,94,1.1185,1.5648,28.8749,-42.8538,35,0.2521,7912,3.9688,23.0675
lg,1625051478428272017,0,-0.4707,-0.7871,0.6511,299,4.2114,0.8545,24.292,94,1.1296,1.5648,29.3962,-42.5993,35,0.2531,7813,3.9688,23.7108
lg,1625051478428289535,0,-0.2817,-0.7949,0.5637,300,10.1929,-25.3906,26.6724,94,1.1466,1.5658,28.8628,-41.8832,35,0.2531,8407,3.9688,25.1412
lg,1625051478428306387,0,-0.0837,-0.7747,0.6851,301,20.752,-7.0801,23.1934,94,1.1676,1.5658,28.3348,-40.8651,35,0.2521,8406,3.9688,25.9963
lg,1625051478428323998,0,-0.0701,-0.8,0.6343,302,21.4233,23.2544,16.1743,94,1.1896,1.5648,28.5324,-40.5448,36,0.2551,7914,3.9688,25.6316
lg,1625051478428340517,0,-0.1987,-0.8704,0.5698,303,21.2402,79.9561,2.5024,94,1.2176,1.5648,30.3363,-41.5454,36,0.2511,7917,3.9688,22.9628
lg,1625051478428357406,0,-0.3389,-0.8025,0.5742,304,29.1748,107.2388,-0.4272,94,1.2466,1.5638,33.0527,-42.7184,36,0.2461,7975,3.9688,19.277
lg,1625051478428395313,0,-0.3875,-0.7646,0.5571,305,26.6724,105.957,3.8452,94,1.2716,1.5618,35.8014,-44.0576,36,0.2301,7967,3.9688,15.6077
lg,1625051478428415091,0,-0.4724,-0.7454,0.5762,306,16.6016,95.7031,6.1646,94,1.2856,1.5598,38.3057,-45.6551,35,0.2281,8487,3.9688,12.2259
lg,1625051478428432739,0,-0.584,-0.7642,0.603,307,-15.625,54.1992,16.8457,94,1.2856,1.5598,39.9768,-47.4326,35,0.2421,8054,3.9688,10.6315
lg,1625051478428449980,0,-0.6741,-0.7744,0.5422,308,-46.7529,8.9111,34.5459,94,1.2606,1.5608,41.0603,-49.0404,35,0.2461,8168,3.9688,11.2936
lg,1625051478428466906,0,-0.7034,-0.7847,0.5464,309,-63.0493,-20.6909,40.1001,94,1.2016,1.5638,41.558,-50.3262,35,0.2391,8088,3.9688,13.3582
lg,1625051478428483887,0,-0.7683,-0.7761,0.511,310,-63.5986,-71.6553,44.1895,94,1.1346,1.5658,41.017,-50.1671,36,0.2391,8097,3.9688,17.6456
lg,1625051478428506406,0,-0.3215,-0.7693,1.1692,311,-48.4009,-127.9907,51.0864,94,1.0955,1.5648,38.1639,-46.9685,36,0.2451,8130,3.9688,24.9205
lg,1625051478428525813,0,-0.2893,-0.6589,0.6279,312,6.1035,-150.6958,13.6719,94,1.0895,1.5638,33.239,-43.6816,36,0.2471,8191,3.9688,30.4626
lg,1625051478428544294,0,-0.0557,-1.0178,0.8953,313,-15.564,-85.6323,-5.9204,94,1.0955,1.5628,29.4431,-43.1938,36,0.2471,8226,3.9688,32.8996
lg,1625051478428561869,0,-0.2498,-0.8372,0.4622,314,18.0664,-21.6064,-19.8364,94,1.1045,1.5628,27.7411,-43.2241,36,0.2481,8223,3.9688,32.5419
lg,1625051478428579757,0,-0.0803,-0.613,0.4038,315,32.3486,-7.2632,7.3242,94,1.1095,1.5628,26.9209,-42.3025,36,0.2491,11521,3.9688,32.7261
lg,1625051478428596739,0,-0.2361,-0.6091,0.4006,316,9.4604,64.0259,7.8125,94,1.1125,1.5638,28.667,-43.316,36,0.2501,8979,3.9688,30.7417
lg,1625051478428613665,0,-0.5388,-0.7122,0.5054,317,-1.3428,107.666,11.8408,94,1.1165,1.5638,32.1808,-45.3707,36,0.2511,9011,3.9688,27.4216
lg,1625051478428630757,0,-0.665,-0.7422,0.564,318,-0.4272,92.2852,14.3433,94,1.1235,1.5658,35.2422,-47.0329,36,0.2521,8270,3.9688,24.612
lg,1625051478428648498,0,-0.6982,-0.7783,0.7341,319,4.5166,20.752,22.8271,94,1.1376,1.5658,36.378,-46.8119,36,0.2531,8987,3.9688,24.645
lg,1625051478428665202,0,-0.4866,-0.7932,0.6392,320,7.6904,-59.3262,27.4048,94,1.1566,1.5658,35.093,-44.9089,36,0.2531,10441,3.9688,27.5761
lg,1625051478780416924,0,-0.0796,-0.8389,0.6204,321,30.3345,-2.2583,6.958,94,1.2286,1.5648,34.0733,-43.9263,36,0.2561,27750,3.9688,27.6482
lg,1625051478780455313,0,-0.1694,-0.8745,0.5469,322,29.2969,48.2788,-1.0376,94,1.2546,1.5628,34.4988,-44.3431,36,0.2501,8546,3.9688,25.614
lg,1625051478780475294,0,-0.4685,-0.6853,0.5732,323,-8.606,82.2754,2.0752,94,1.2606,1.5608,36.5737,-46.5543,35,0.2531,14860,3.9688,22.663
lg,1625051478780494609,0,-0.6699,-0.8601,0.541,324,-44.6167,49.4995,25.5737,94,1.2456,1.5628,38.5265,-49.3914,35,0.2571,8339,3.9688,21.3923
lg,1625051478780513294,0,-0.7407,-0.7607,0.5774,325,-39.978,31.4331,33.0811,94,1.2136,1.5638,40.2995,-51.2095,35,0.2591,7782,3.9688,21.1492
lg,1625051478780531665,0,-0.7812,-0.6848,0.5828,326,-39.4287,-42.2974,37.7197,94,1.1756,1.5658,40.4319,-50.7724,35,0.2501,7791,3.9688,24.179
lg,1625051478780549591,0,-0.6572,-0.8333,0.5623,327,-45.5933,-105.957,46.0815,94,1.1316,1.5668,38.848,-49.1227,35,0.2501,10177,3.9688,29.8056
lg,1625051478780568479,0,-0.27,-0.7629,0.772,328,-7.5684,-140.1978,26.001,94,1.1215,1.5668,34.8834,-45.5875,35,0.2541,8192,3.9688,35.9651
lg,1625051478780587498,0,-0.2463,-0.8833,0.5066,329,0.4883,-130.6763,11.7188,94,1.1185,1.5668,30.7345,-43.6397,35,0.2541,8584,3.9688,40.3518
lg,1625051478780605424,0,-0.0505,-0.8354,0.5054,330,8.2397,-95.6421,-2.4414,94,1.1195,1.5668,26.8761,-42.5829,35,0.2541,8369,3.9688,42.9075
lg,1625051478780696202,0,-0.1753,-0.6848,0.3391,331,6.1646,-13.7939,3.6011,94,1.1215,1.5668,26.0839,-42.9751,35,0.2551,7854,3.9688,43.0462
lg,1625051478780717054,0,-0.199,-0.7288,0.4985,332,9.5215,12.9395,17.5781,94,1.1255,1.5678,27.1456,-43.2245,35,0.2551,9413,3.9688,42.6808
lg,1625051478780737591,0,-0.2395,-0.7695,0.5662,333,9.6436,47.3633,25.0244,94,1.1296,1.5668,28.6962,-43.584,35,0.2551,8644,3.9688,41.8224
lg,1625051478780756276,0,-0.3296,-0.7654,0.6057,334,12.8784,64.8193,21.3623,94,1.1346,1.5688,30.7512,-44.0795,35,0.2551,8238,3.9688,40.2944
lg,1625051478780774868,0,-0.4456,-0.7349,0.6189,335,12.6343,59.9365,20.0195,94,1.1386,1.5688,32.7781,-44.4913,35,0.2551,7948,3.9688,38.8711
lg,1625051478780794794,0,-0.4297,-0.7307,0.7517,336,8.1177,33.8135,26.6113,94,1.1306,1.5688,34.0598,-44.2645,35,0.2531,12560,3.9688,38.6558
lg,1625051478780881405,0,-0.3555,-0.853,0.835,337,-21.7896,19.8364,10.9863,94,1.1035,1.5688,34.2394,-45.3469,35,0.2511,8396,3.9688,38.3325
lg,1625051478780902554,0,-0.4121,-0.8835,0.7026,338,-23.6816,11.6577,5.4321,94,1.0795,1.5678,34.2633,-46.5109,35,0.2521,8032,3.9688,37.7963
lg,1625051478780922628,0,-0.5376,-0.8406,0.6367,339,-13.6719,22.3999,-4.7607,94,1.0715,1.5648,34.439,-47.8507,35,0.2541,8035,3.9688,36.6976
lg,1625051478780940350,0,-0.6511,-0.8352,0.481,340,-7.6294,-15.686,-4.7607,94,1.0745,1.5628,33.8808,-48.3923,35,0.2561,8430,3.9688,36.8442
lg,1625051478780960109,0,-0.4668,-0.708,0.3745,341,16.7847,-67.2607,15.1367,94,1.0825,1.5638,32.4072,-46.7015,35,0.2561,8759,3.9688,39.4036
lg,1625051478780977313,0,-0.2681,-0.6804,0.353,342,15.9302,-77.5146,30.7617,94,1.0935,1.5658,30.6671,-44.8527,35,0.2571,10639,3.9688,42.6505
lg,1625051478780997072,0,-0.1663,-0.741,0.3789,343,14.9536,-68.1152,37.2925,94,1.1035,1.5668,28.826,-43.2725,35,0.2581,8111,3.9688,45.6931
lg,1625051478781014683,0,-0.0181,-0.8701,0.5452,344,20.3857,-29.1138,36.6211,94,1.1175,1.5678,27.941,-42.0986,35,0.2601,8120,3.9688,47.4893
lg,1625051478781033294,0,0.0139,-0.8228,0.6592,345,29.48,12.6953,18.5547,94,1.1346,1.5668,27.7298,-41.2135,36,0.2601,8897,3.9688,47.5316
lg,1625051478781051109,0,-0.1438,-0.7378,0.6121,346,28.6255,75.2563,3.9673,94,1.1546,1.5668,29.3405,-41.4828,36,0.2601,8552,3.9688,45.211
lg,1625051478781070387,0,-0.2539,-0.7124,0.6687,347,25.5127,106.2622,-1.9531,94,1.1726,1.5638,31.8467,-42.4052,36,0.2541,8230,3.9688,41.7241
lg,1625051478781087572,0,-0.5508,-0.6504,0.6028,348,28.8086,142.7002,-9.3994,94,1.2006,1.5608,35.704,-44.2449,36,0.2561,8627,3.9688,36.5714
lg,1625051478781105887,0,-0.823,-0.7893,0.7219,349,29.9683,140.1367,-24.231,94,1.2366,1.5528,38.9766,-46.7453,35,0.2441,9008,3.9688,30.5988
lg,1625051478781125035,0,-0.9297,-0.7046,0.6848,350,27.771,79.3457,-18.5547,94,1.2726,1.5438,40.729,-47.9651,35,0.2291,9046,3.9688,26.9176
lg,1625051478781142572,0,-0.8892,-0.687,0.6272,351,21.5454,41.687,-14.6484,94,1.2996,1.5347,40.8637,-47.5665,35,0.2241,8714,3.9688,26.6124
lg,1625051478781189961,0,-0.8142,-0.697,0.5901,352,5.5542,-28.9307,9.7656,94,1.3086,1.5307,40.3155,-46.5157,35,0.2211,9165,3.9688,27.9997
lg,1625051479148679109,0,-0.6238,-0.8699,0.5154,353,-59.082,-149.353,32.7148,94,1.2366,1.5357,36.8131,-45.2538,35,0.2271,26780,3.9688,34.3153
lg,1625051479148713664,0,-0.4197,-0.9316,0.4924,354,-75.0732,-210.9375,66.04,94,1.1546,1.5458,32.1467,-43.6291,36,0.2241,11387,3.9688,43.3252
lg,1625051479148734072,0,0.2517,-0.9524,1.0042,355,-61.5845,-258.0566,69.0308,94,1.0975,1.5508,24.9062,-41.1959,36,0.2311,9735,3.9688,53.5228
lg,1625051479148759109,0,0.3491,-0.7915,0.4771,356,-5.3711,-261.2305,35.1562,94,1.0865,1.5508,16.3073,-39.1603,36,0.2321,7789,3.9688,61.5358
lg,1625051479148778238,0,0.6411,-1.0088,0.7002,357,-17.0288,-119.812,14.5264,94,1.0875,1.5508,11.4322,-39.5323,36,0.2331,7963,3.9688,64.9738
lg,1625051479148796776,0,0.3203,-0.7556,0.2324,358,24.5361,46.875,-18.2495,94,1.0945,1.5518,11.2121,-40.0788,36,0.2351,7910,3.9688,62.9443
lg,1625051479148814720,0,0.1641,-0.6777,0.4956,359,30.8838,183.4717,1.8921,94,1.0995,1.5528,15.9751,-40.5159,36,0.2361,9411,3.9688,58.0101
lg,1625051479148832479,0,-0.0554,-0.6025,0.4185,360,27.5269,222.6562,-2.5635,94,1.0995,1.5528,23.5289,-42.9817,36,0.2381,7764,3.9688,50.6935
lg,1625051479148850405,0,-0.5212,-0.593,0.3655,361,2.5635,270.6909,1.4648,94,1.0985,1.5538,31.6772,-47.43,36,0.2391,8029,3.9688,41.837
lg,1625051479148868072,0,-0.9863,-0.7942,0.6484,362,2.0142,242.1875,5.188,94,1.1015,1.5548,38.4776,-52.5959,35,0.2401,7960,3.9688,32.8376
lg,1625051479148989424,0,-1.1047,-0.6992,0.7454,363,8.9722,173.7671,9.4604,94,1.1055,1.5558,41.3707,-53.762,35,0.2411,8045,3.9688,29.9136
lg,1625051479149012331,0,-1.0029,-0.6868,0.729,364,9.8877,6.1035,21.2402,94,1.1135,1.5568,42.3454,-52.6752,35,0.2431,7913,3.9688,30.606
lg,1625051479149032090,0,-0.5938,-0.762,0.668,365,7.6904,-89.9658,32.3486,94,1.1235,1.5578,40.6157,-48.9871,35,0.2431,7971,3.9688,35.5495
lg,1625051479149050868,0,-0.4053,-0.8074,0.647,366,8.0566,-106.6284,34.6069,94,1.1346,1.5578,37.6411,-45.5519,35,0.2431,8080,3.9688,40.4368
lg,1625051479149069424,0,-0.113,-0.7759,0.6602,367,12.146,-76.355,22.7051,94,1.1516,1.5578,34.9299,-43.2223,35,0.2511,7925,3.9688,43.7567
lg,1625051479149087887,0,-0.0979,-0.8174,0.6165,368,17.7612,0.6714,12.6343,94,1.1756,1.5568,34.19,-42.7296,35,0.2531,7942,3.9688,43.9131
lg,1625051479149150720,0,-0.1562,-0.8416,0.6406,369,20.752,39.2456,6.0425,94,1.2056,1.5558,35.4007,-43.5519,35,0.2511,8073,3.9688,41.4243
lg,1625051479149173201,0,-0.3882,-0.8687,0.6077,370,24.9634,81.7871,-0.1831,94,1.2316,1.5548,37.1396,-44.7463,36,0.2491,8581,3.9688,38.2847
lg,1625051479149193331,0,-0.5305,-0.7324,0.5964,371,18.9819,58.4106,9.2773,94,1.2436,1.5538,38.7269,-45.3286,36,0.2501,8133,3.9688,36.3577
lg,1625051479149210664,0,-0.5374,-0.7556,0.6147,372,-20.3857,12.8174,23.3154,94,1.2446,1.5548,39.3555,-46.1427,36,0.2541,8056,3.9688,36.5754
lg,1625051479149228961,0,-0.5186,-0.8489,0.6099,373,-37.1704,-0.9766,28.6255,94,1.2256,1.5558,39.6533,-47.3096,36,0.2551,8106,3.9688,37.4038
lg,1625051479149248276,0,-0.5803,-0.7629,0.4966,374,-51.5137,-31.0059,31.9214,94,1.1876,1.5608,39.4949,-48.2923,35,0.2451,8077,3.9688,39.4568
lg,1625051479149268535,0,-0.624,-0.803,0.5808,375,-44.7388,-47.4243,34.4238,94,1.1446,1.5618,38.9805,-48.4041,35,0.2431,8120,3.9688,42.323
lg,1625051479149290813,0,-0.5286,-0.8296,0.7742,376,-35.8276,-65.5518,28.4424,94,1.1195,1.5598,37.5286,-47.6142,35,0.2461,8132,3.9688,45.8291
lg,1625051479149311850,0,-0.3923,-0.8235,0.3672,377,5.6152,-108.1543,-16.4795,94,1.1125,1.5588,33.6307,-46.2445,35,0.2481,8159,3.9688,48.6827
lg,1625051479149331998,0,-0.1836,-0.8701,0.5039,378,3.9673,-88.6841,-21.6064,94,1.1135,1.5578,29.6946,-45.4976,36,0.2491,8167,3.9688,50.6308
lg,1625051479149351035,0,-0.2488,-0.6382,0.2756,379,13.7939,-40.4663,-18.3105,94,1.1145,1.5588,27.7166,-45.4646,36,0.2491,8822,3.9688,50.9326
lg,1625051479149371127,0,-0.2576,-0.5483,0.2393,380,12.207,-18.1885,-0.4883,94,1.1145,1.5578,26.9627,-45.3557,36,0.2491,8196,3.9688,51.2021
lg,1625051479149389127,0,-0.2751,-0.7161,0.5076,381,-1.77,31.9824,18.7988,94,1.1155,1.5598,28.0158,-46.0125,36,0.2491,8191,3.9688,50.5839
lg,1625051479149408035,0,-0.3899,-0.7966,0.5266,382,-0.2441,38.9404,23.3154,94,1.1155,1.5598,29.5356,-46.7138,36,0.2511,8354,3.9688,49.8253
lg,1625051479149426813,0,-0.47,-0.7415,0.5032,383,0.6104,27.9541,25.1465,94,1.1175,1.5608,30.7397,-46.7284,36,0.2511,8196,3.9688,50.0051
lg,1625051479149475498,0,-0.4409,-0.7627,0.6506,384,2.8076,-3.9673,33.02,94,1.1245,1.5598,31.3038,-46.1054,36,0.2511,8326,3.9688,51.1435
lg,1625051479506378998,0,-0.0969,-0.8232,0.6655,385,25.4517,-7.2632,17.1509,99,1.1836,1.5618,30.5915,-44.8992,36,0.2461,27245,3.9688,51.8186
lg,1625051479506438720,0,-0.2104,-0.8647,0.5989,386,32.3486,45.2881,-2.5024,99,1.2156,1.5598,31.0572,-44.8727,36,0.2501,8606,3.9688,50.0058
lg,1625051479506493738,0,-0.3408,-0.8767,0.5442,387,40.7104,76.7212,-8.7891,99,1.2576,1.5558,32.4778,-45.3226,35,0.2371,8457,3.9688,46.8517
lg,1625051479506524035,0,-0.408,-0.6016,0.5671,388,30.5176,65.7959,-2.7466,99,1.2656,1.5538,33.9811,-45.4306,35,0.2381,7992,3.9688,44.4866
lg,1625051479506551664,0,-0.5068,-0.8472,0.6387,389,-33.3862,40.4663,19.7144,99,1.2606,1.5538,35.3231,-47.5097,35,0.2451,7956,3.9688,43.5425
lg,1625051479506579423,0,-0.7212,-0.7783,0.563,390,-39.2456,30.0903,28.9307,99,1.2246,1.5558,37.0366,-49.4191,35,0.2471,7825,3.9688,43.226
lg,1625051479506606701,0,-0.7966,-0.7129,0.5959,391,-42.9688,1.5869,36.2549,99,1.1756,1.5588,38.3162,-50.4604,35,0.2381,7801,3.9688,44.3328
lg,1625051479506632961,0,-0.762,-0.7664,0.6714,392,-45.7153,-66.4673,53.833,99,1.1215,1.5618,38.1979,-49.4962,35,0.2371,8043,3.9688,48.7484
lg,1625051479506672220,0,-0.2886,-0.7732,1.1375,393,-26.9775,-134.3994,42.4805,99,1.0875,1.5618,34.8945,-46.0427,35,0.2421,9100,3.9688,55.5654
lg,1625051479506701757,0,-0.1772,-0.9595,0.6682,394,6.4087,-151.9775,7.6294,99,1.0825,1.5608,30.4487,-44.9209,35,0.2431,8432,3.9688,59.6093
lg,1625051479506728349,0,-0.0938,-0.936,0.6553,395,-10.8643,-109.6802,-5.3711,99,1.0825,1.5598,26.2225,-44.2167,36,0.2441,7872,3.9688,62.7107
lg,1625051479506755423,0,-0.1594,-0.698,0.3518,396,7.5684,-46.1426,-8.0566,99,1.0845,1.5588,24.1567,-44.2083,36,0.2441,9310,3.9688,63.5296
lg,1625051479506781423,0,-0.1765,-0.687,0.4668,397,8.4839,25.7568,12.085,99,1.0895,1.5598,24.7606,-44.5195,36,0.2441,8733,3.9688,62.9172
lg,1625051479506938368,0,-0.2451,-0.7551,0.5254,398,2.5635,50.1709,13.7329,99,1.0925,1.5598,26.9124,-45.6899,35,0.2461,7902,3.9688,61.1145
lg,1625051479507074998,0,-0.467,-0.7363,0.4949,399,0.2441,65.3687,16.8457,99,1.0955,1.5608,29.2331,-46.8399,35,0.2471,7904,3.9688,59.3104
lg,1625051479507107961,0,-0.5515,-0.7622,0.5999,400,1.8921,35.4004,22.522,99,1.0995,1.5628,30.8606,-47.1934,35,0.2471,7969,3.9688,58.7265
lg,1625051479507177664,0,-0.5312,-0.7732,0.6404,401,2.2583,10.9863,26.9165,99,1.1095,1.5628,31.6932,-46.9699,35,0.2481,8066,3.9688,59.1434
lg,1625051479507212053,0,-0.3823,-0.8442,0.6763,402,5.0049,-28.9917,29.0527,99,1.1225,1.5638,31.2572,-45.9434,35,0.2491,8247,3.9688,60.9702
lg,1625051479507242738,0,-0.2139,-0.8413,0.6978,403,10.2539,-30.9448,23.5596,99,1.1486,1.5638,30.2778,-44.8054,35,0.2501,8098,3.9688,62.6605
lg,1625051479507273701,0,-0.1348,-0.825,0.6389,404,18.7988,1.2817,11.7188,99,1.1716,1.5628,29.8151,-44.3227,35,0.2601,13409,3.9688,62.776
lg,1625051479507301090,0,-0.1919,-0.8931,0.5894,405,20.5078,40.5884,4.1504,99,1.1996,1.5618,30.3358,-44.6326,35,0.2561,8398,3.9688,61.3246
lg,1625051479507330535,0,-0.3032,-0.8728,0.6091,406,26.8555,69.2139,1.2817,99,1.2256,1.5608,31.7629,-45.168,35,0.2511,9603,3.9688,58.8494
lg,1625051479507375405,0,-0.4111,-0.7126,0.5688,407,13.6719,65.5518,5.3101,99,1.2336,1.5598,33.438,-45.9803,35,0.2531,8163,3.9688,56.661
lg,1625051479507404090,0,-0.4749,-0.8999,0.6006,408,-27.71,37.9028,29.48,99,1.2326,1.5608,34.9483,-47.7229,35,0.2591,9313,3.9688,56.0549
lg,1625051479507445812,0,-0.5271,-0.8079,0.5352,409,-31.0059,28.8086,33.5083,99,1.2066,1.5628,36.5584,-49.2309,35,0.2581,8742,3.9688,55.914
lg,1625051479507555127,0,-0.5942,-0.7046,0.5322,410,-36.1328,-0.4883,32.6538,99,1.1716,1.5648,37.4287,-50.1603,36,0.2491,8273,3.9688,56.9064
lg,1625051479507587109,0,-0.6025,-0.8528,0.6287,411,-28.6865,-27.0386,36.3159,99,1.1416,1.5658,37.5393,-50.0854,36,0.2451,8260,3.9688,59.0453
lg,1625051479507616312,0,-0.3401,-0.7544,0.7827,412,-26.9165,-53.1616,35.4614,99,1.1165,1.5658,35.8513,-48.3418,36,0.2481,8283,3.9688,62.8545
lg,1625051479507642886,0,-0.3423,-0.7156,0.5386,413,7.2021,-74.646,8.3008,99,1.1105,1.5638,33.5067,-46.5772,35,0.2481,8357,3.9688,65.6846
lg,1625051479507669590,0,-0.2886,-0.7998,0.6243,414,-3.0518,-36.9263,7.5073,99,1.1115,1.5638,32.0229,-46.1126,35,0.2491,8342,3.9688,67.0718
lg,1625051479507697294,0,-0.4612,-0.6294,0.3447,415,8.3618,-22.7051,3.6621,99,1.1195,1.5668,31.5575,-45.8865,35,0.2481,9600,3.9688,67.6551
lg,1625051479507768498,0,-0.3494,-0.74,0.5205,416,11.9629,-27.5879,29.6021,99,1.1296,1.5658,31.2252,-44.7984,35,0.2501,8482,3.9688,69.3485
lg,1625051479874622608,0,-0.3389,-0.8181,0.6858,417,18.3105,27.771,13.9771,99,1.1756,1.5668,31.8651,-44.5241,36,0.2531,26000,3.9688,68.7773
lg,1625051479874679590,0,-0.3103,-0.7771,0.718,418,18.4326,27.4658,12.6343,99,1.1856,1.5668,32.0584,-43.9467,36,0.2541,8449,3.9688,68.2858
lg,1625051479874699794,0,-0.3491,-0.8657,0.6658,419,-16.0522,9.0332,4.8828,99,1.1666,1.5678,31.8927,-45.02,36,0.2531,7968,3.9688,67.9602
lg,1625051479874718997,0,-0.5244,-0.8538,0.5266,420,-43.1519,7.9346,13.9771,99,1.0995,1.5698,32.3592,-47.1749,36,0.2531,7741,3.9688,67.8639
lg,1625051479874737423,0,-0.4338,-0.5735,0.7854,421,-30.4565,-5.188,10.437,99,1.0595,1.5668,32.3653,-47.3489,36,0.2541,7819,3.9688,68.3602
lg,1625051479874755701,0,-0.5745,-0.8721,0.7598,422,-31.189,-11.1694,3.479,99,1.0445,1.5638,31.9285,-48.3776,35,0.2551,7782,3.9688,68.8366
lg,1625051479874773349,0,-0.6182,-0.9207,0.4297,423,-1.1597,-73.5474,-12.7563,99,1.0445,1.5618,29.614,-47.952,35,0.2561,10799,3.9688,70.6642
lg,1625051479874792053,0,-0.4739,-0.7212,0.4553,424,13.1226,-99.5483,0.3052,99,1.0485,1.5618,26.9193,-46.2233,35,0.2571,8287,3.9688,73.8107
lg,1625051479874809849,0,-0.2275,-0.6758,0.4055,425,7.6904,-117.0044,14.6484,99,1.0515,1.5618,23.6712,-44.6689,35,0.2561,12489,3.9688,77.7173
lg,1625051479874826979,0,-0.0469,-0.8367,0.5005,426,7.2632,-75.0732,27.6489,99,1.0555,1.5618,21.5195,-43.7806,36,0.2571,7842,3.9688,80.5971
lg,1625051479874844183,0,0.0627,-0.8171,0.6121,427,13.5498,-43.6401,28.8696,99,1.0615,1.5628,20.7526,-43.0868,36,0.2581,7879,3.9688,81.6365
lg,1625051479874861145,0,0.0173,-0.7632,0.6245,428,14.8926,15.8081,17.395,99,1.0715,1.5638,20.8486,-42.7752,36,0.2591,7906,3.9688,81.6029
lg,1625051479874880497,0,-0.1697,-0.7908,0.6238,429,11.2915,74.4019,7.2021,99,1.0875,1.5648,22.7646,-43.4188,36,0.2591,7916,3.9688,79.5033
lg,1625051479874897516,0,-0.3696,-0.8252,0.6338,430,12.207,91.7969,4.3335,99,1.1095,1.5658,25.5209,-44.325,35,0.2601,8727,3.9688,76.5062
lg,1625051479874914220,0,-0.4258,-0.8042,0.6729,431,21.8506,91.1255,2.3804,99,1.1346,1.5668,28.0261,-44.9375,35,0.2571,7900,3.9688,73.6076
lg,1625051479874968664,0,-0.3838,-0.7627,0.6936,432,37.0483,62.561,4.6997,99,1.1706,1.5658,29.6183,-44.4626,35,0.2511,9034,3.9688,71.6916
lg,1625051479874987571,0,-0.3516,-0.8599,0.5828,433,35.5225,59.8145,-1.2817,99,1.2136,1.5658,30.8604,-44.5276,35,0.2531,9770,3.9688,69.4607
lg,1625051479875005331,0,-0.3489,-0.8206,0.5725,434,41.2598,68.1152,-0.1221,99,1.2476,1.5638,32.3386,-44.5119,36,0.2471,8028,3.9688,66.9714
lg,1625051479875023016,0,-0.3574,-0.7339,0.563,435,37.8418,75.2563,5.188,99,1.2716,1.5608,34.1743,-44.6332,36,0.2411,8011,3.9688,64.4278
lg,1625051479875039794,0,-0.3962,-0.7117,0.5955,436,19.2871,76.9043,17.8833,99,1.2846,1.5608,36.4001,-45.275,36,0.2381,8079,3.9688,62.2448
lg,1625051479875056275,0,-0.5549,-0.708,0.637,437,-13.1226,67.3218,17.2729,99,1.2876,1.5598,38.4945,-47.0239,36,0.2411,8093,3.9688,60.331
lg,1625051479875073220,0,-0.6467,-0.8472,0.6492,438,-35.5835,48.7671,20.813,99,1.2836,1.5598,40.108,-49.4037,36,0.2471,8122,3.9688,59.0229
lg,1625051479875091108,0,-0.7617,-0.7349,0.613,439,-47.1802,4.0283,30.2734,99,1.2606,1.5608,41.0635,-50.7387,36,0.2491,8102,3.9688,59.8718
lg,1625051479875108479,0,-0.7605,-0.8091,0.4919,440,-61.6455,-67.3218,40.1611,99,1.2166,1.5638,40.5287,-50.8209,36,0.2431,8157,3.9688,63.7756
lg,1625051479875125979,0,-0.6934,-0.8284,0.4949,441,-61.9507,-94.4824,46.5088,99,1.1576,1.5648,39.3923,-50.1812,36,0.2411,8161,3.9688,68.918
lg,1625051479875142720,0,-0.4812,-0.8313,0.5442,442,-61.5234,-149.231,53.5278,99,1.0995,1.5678,36.6175,-48.2892,35,0.2451,8215,3.9688,76.2527
lg,1625051479875160071,0,-0.1069,-0.6848,0.3708,443,5.127,-169.8608,10.6201,99,1.0845,1.5658,31.2542,-45.1824,35,0.2481,8236,3.9688,82.1792
lg,1625051479875176979,0,0.0271,-0.8789,0.5442,444,-16.9067,-126.5259,7.6904,99,1.0875,1.5638,27.4849,-44.8987,35,0.2491,8268,3.9688,84.9846
lg,1625051479875193868,0,-0.0269,-0.9099,0.408,445,6.5308,-34.2407,-16.6626,99,1.0915,1.5638,25.1239,-45.2846,35,0.2501,8264,3.9688,85.1317
lg,1625051479875210257,0,-0.2073,-0.7209,0.4468,446,11.2305,43.8232,0.8545,99,1.0975,1.5648,25.9342,-45.9592,35,0.2521,8289,3.9688,83.5378
lg,1625051479875227090,0,-0.3655,-0.6873,0.5347,447,14.7705,59.6924,11.2305,99,1.0995,1.5648,28.0378,-46.7245,35,0.2521,8277,3.9688,81.5983
lg,1625051479875259775,0,-0.449,-0.6719,0.4819,448,0.1221,63.5986,16.1743,99,1.1005,1.5668,30.2439,-47.8091,35,0.2531,8319,3.9688,79.815
lg,1625051480228783695,0,-0.3477,-0.7993,0.6162,449,10.5591,-29.4189,26.5503,99,1.1276,1.5678,29.7841,-46.6579,36,0.2561,25675,3.9688,81.5478
lg,1625051480228878505,0,-0.2693,-0.8286,0.5989,450,12.2681,-14.3433,20.3857,99,1.1476,1.5678,29.3937,-45.9314,36,0.2561,11281,3.9688,82.509
lg,1625051480228904188,0,-0.2473,-0.8315,0.6418,451,17.1509,11.1084,11.9019,99,1.1736,1.5668,29.4268,-45.516,35,0.2541,7680,3.9688,82.3834
lg,1625051480228924539,0,-0.2463,-0.8115,0.5952,452,28.8696,36.1938,5.188,99,1.1956,1.5658,29.9756,-45.2225,35,0.2601,7758,3.9688,81.1832
lg,1625051480228944464,0,-0.3252,-0.874,0.5676,453,30.3345,65.1855,-2.6855,99,1.2236,1.5648,31.2329,-45.6598,35,0.2581,8469,3.9688,78.6772
lg,1625051480228964019,0,-0.4253,-0.8274,0.5266,454,35.1562,74.8901,0.7324,99,1.2486,1.5628,33.0303,-46.0914,35,0.2561,9762,3.9688,75.8948
lg,1625051480228982999,0,-0.479,-0.709,0.5308,455,29.7852,65.3687,5.3711,99,1.2566,1.5608,34.82,-46.1657,35,0.2561,8378,3.9688,73.742
lg,1625051480229001776,0,-0.4868,-0.7063,0.6079,456,-5.4321,30.6396,20.3247,99,1.2556,1.5608,35.9527,-46.7361,35,0.2621,8530,3.9688,73.2653
lg,1625051480229020090,0,-0.6228,-0.8406,0.5752,457,-42.9688,7.6294,26.9165,99,1.2346,1.5628,36.7735,-48.4365,35,0.2651,8604,3.9688,73.6755
lg,1625051480229038626,0,-0.6836,-0.781,0.5806,458,-47.3022,-36.6211,35.7056,99,1.1836,1.5658,36.8137,-48.9769,35,0.2531,8428,3.9688,76.1189
lg,1625051480229057236,0,-0.6372,-0.7881,0.6013,459,-39.6118,-87.0361,39.3677,99,1.1376,1.5678,35.5358,-48.0196,36,0.2531,9751,3.9688,80.5673
lg,1625051480229074957,0,-0.3613,-0.7708,0.8669,460,-30.7617,-117.4316,35.9497,99,1.1195,1.5658,33.0456,-46.6627,36,0.2561,8269,3.9688,85.6767
lg,1625051480229093734,0,-0.3347,-0.8665,0.4778,461,-9.9487,-124.939,4.8218,99,1.1195,1.5658,29.212,-45.4213,36,0.2571,8260,3.9688,89.7024
lg,1625051480229111955,0,-0.2036,-0.7683,0.4214,462,14.1602,-114.9902,-4.0894,99,1.1215,1.5658,25.2572,-43.9214,36,0.2581,7871,3.9688,92.8805
lg,1625051480229129566,0,-0.1819,-0.6726,0.4204,463,9.7656,-89.5386,2.1973,99,1.1245,1.5668,22.0847,-42.869,35,0.2581,8253,3.9688,95.4462
lg,1625051480229181470,0,-0.0532,-0.6707,0.4688,464,8.7891,-51.6968,22.2168,99,1.1306,1.5668,20.4718,-42.2218,35,0.2591,8664,3.9688,97.4564
lg,1625051480229204821,0,-0.0637,-0.7776,0.5374,465,3.2349,27.4658,25.4517,99,1.1386,1.5678,21.3302,-42.6291,35,0.2601,8477,3.9688,97.2739
lg,1625051480229224190,0,-0.2822,-0.811,0.6616,466,6.4697,96.4966,16.3574,99,1.1456,1.5678,24.331,-43.6079,35,0.2611,8354,3.9688,94.8022
lg,1625051480229243189,0,-0.4319,-0.7888,0.6558,467,5.7983,103.6377,13.3667,99,1.1526,1.5658,27.5924,-44.8579,35,0.2621,8002,3.9688,91.8948
lg,1625051480229262762,0,-0.6116,-0.8064,0.6814,468,4.3945,72.876,13.6108,99,1.1606,1.5698,30.1079,-45.7969,35,0.2621,8731,3.9688,89.8708
lg,1625051480229281928,0,-0.5535,-0.8071,0.6743,469,10.3149,16.1133,16.6016,99,1.1706,1.5688,30.9318,-45.5473,35,0.2621,9392,3.9688,89.7881
lg,1625051480229299390,0,-0.325,-0.7881,0.6541,470,17.4561,-15.564,15.9302,99,1.1846,1.5688,30.4193,-44.5214,36,0.2591,8821,3.9688,90.7166
lg,1625051480229318537,0,-0.2498,-0.8628,0.6328,471,2.2583,7.9346,12.5122,99,1.1806,1.5698,30.3273,-44.7521,36,0.2631,11803,3.9688,90.6657
lg,1625051480229337758,0,-0.376,-0.9092,0.6055,472,-32.7148,14.6484,13.3057,99,1.1536,1.5708,30.6791,-46.5699,36,0.2631,8132,3.9688,90.3667
lg,1625051480229355758,0,-0.5525,-0.6826,0.5222,473,-36.0718,2.8687,18.3105,99,1.1145,1.5708,31.3712,-47.9816,36,0.2631,8167,3.9688,90.7321
lg,1625051480229373349,0,-0.4824,-0.6404,0.709,474,-21.9116,-8.9111,15.9912,99,1.1015,1.5688,31.4276,-48.1742,36,0.2631,8221,3.9688,91.679
lg,1625051480229391422,0,-0.5391,-0.9216,0.6946,475,-20.0195,-27.6489,13.2446,99,1.1015,1.5688,30.8366,-48.4484,36,0.2651,8265,3.9688,92.9592
lg,1625051480229408995,0,-0.491,-0.675,0.353,476,5.3711,-82.6416,6.958,99,1.1065,1.5698,28.9421,-47.2333,36,0.2651,9015,3.9688,95.7439
lg,1625051480229426902,0,-0.2827,-0.8232,0.6194,477,4.2725,-92.2852,22.522,99,1.1205,1.5698,26.5329,-45.57,36,0.2651,8839,3.9688,99.3478
lg,1625051480229444883,0,-0.123,-0.8958,0.6663,478,11.5356,-98.6938,23.6816,99,1.1366,1.5708,23.4149,-43.8596,35,0.2671,8280,3.9688,102.9839
lg,1625051480229480381,0,0.1094,-0.8601,0.6138,479,22.3389,-59.3262,12.6343,99,1.1516,1.5708,20.9433,-42.6002,35,0.2671,8324,3.9688,104.9492
lg,1625051480229499620,0,-0.0149,-0.8457,0.5173,480,24.5361,41.5649,-6.5918,99,1.1696,1.5708,21.2269,-42.7892,35,0.2681,8355,3.9688,103.2925
lg,1625051480601565774,0,-0.4814,-0.793,0.5034,481,30.1514,110.2295,-24.7192,99,1.2256,1.5638,23.7409,-43.1828,35,0.2571,25633,3.9688,99.6558
lg,1625051480601648992,0,-0.5098,-0.7261,0.5439,482,42.2974,82.7637,-13.3667,99,1.2476,1.5608,26.0028,-43.0944,35,0.2601,8407,3.9688,96.5758
lg,1625051480601670935,0,-0.6013,-0.7319,0.5742,483,-12.085,33.1421,14.6484,99,1.2436,1.5608,27.6335,-44.1415,35,0.2641,14386,3.9688,95.8802
lg,1625051480601691989,0,-0.7021,-0.8469,0.5925,484,-49.5605,1.5259,32.959,99,1.2136,1.5628,28.8728,-46.0337,35,0.2581,7678,3.9688,96.6982
lg,1625051480601711562,0,-0.7568,-0.7568,0.5674,485,-52.8564,-13.0005,42.9077,99,1.1656,1.5648,30.1509,-47.5033,35,0.2551,7772,3.9688,98.3611
lg,1625051480601730061,0,-0.8098,-0.6663,0.5112,486,-50.7812,-91.7969,47.5464,99,1.1135,1.5668,29.622,-47.3825,35,0.2571,7801,3.9688,102.8954
lg,1625051480601773707,0,-0.4761,-0.8049,0.6731,487,-25.1465,-165.8936,39.3066,99,1.0965,1.5678,26.0023,-45.3744,35,0.2591,9823,3.9688,109.5079
lg,1625051480601794577,0,-0.0837,-1.0161,0.6921,488,-31.6772,-184.1431,29.3579,99,1.0955,1.5678,20.3692,-44.3982,35,0.2611,7971,3.9688,116.0425
lg,1625051480601811779,0,0.0208,-0.8982,0.4836,489,-2.1362,-184.2041,9.3994,99,1.0985,1.5688,14.5601,-43.4858,35,0.2621,7890,3.9688,121.437
lg,1625051480601830130,0,0.1624,-0.7969,0.4897,490,4.0894,-85.3271,8.3618,99,1.1035,1.5688,11.4022,-43.306,35,0.2631,7833,3.9688,123.9463
lg,1625051480601847889,0,0.1538,-0.7725,0.4199,491,5.7373,-39.6118,7.8735,99,1.1095,1.5678,9.8108,-43.5555,35,0.2631,7827,3.9688,125.1447
lg,1625051480601865351,0,-0.1384,-0.7891,0.3889,492,9.7046,86.6089,9.3384,99,1.1175,1.5688,12.5341,-44.3705,35,0.2641,11056,3.9688,122.8274
lg,1625051480601882424,0,-0.2654,-0.7422,0.3936,493,10.3149,103.6377,10.1318,99,1.1255,1.5688,15.9562,-45.2977,35,0.2651,8281,3.9688,119.9537
lg,1625051480601900515,0,-0.4629,-0.7598,0.5461,494,12.8174,97.7783,17.0288,99,1.1386,1.5698,19.5723,-45.853,35,0.2651,8297,3.9688,117.4227
lg,1625051480601918385,0,-0.4873,-0.7964,0.6191,495,19.104,54.0771,20.4468,99,1.1566,1.5698,21.9014,-45.6899,35,0.2661,7926,3.9688,116.2932
lg,1625051480601935569,0,-0.3601,-0.7593,0.7175,496,32.3486,9.0942,28.5645,99,1.1826,1.5688,22.8442,-44.1985,35,0.2661,10293,3.9688,116.8755
lg,1625051480601953402,0,-0.1907,-0.7986,0.6536,497,38.6963,7.6294,14.7705,99,1.2116,1.5668,22.9853,-42.8285,35,0.2621,9529,3.9688,117.0005
lg,1625051480601984678,0,-0.2095,-0.8604,0.5984,498,31.6772,24.292,9.6436,95,1.2346,1.5628,23.513,-42.2344,36,0.2641,8443,3.9688,116.3886
lg,1625051480602004214,0,-0.2786,-0.7419,0.5811,499,35.3394,61.4014,6.1035,95,1.2456,1.5628,25.2173,-41.8805,36,0.2611,8744,3.9688,114.6163
lg,1625051480602022361,0,-0.439,-0.6934,0.6541,500,-2.5635,67.3218,18.4326,95,1.2526,1.5608,27.6672,-42.7956,36,0.2651,8769,3.9688,113.1139
lg,1625051480602040249,0,-0.6865,-0.855,0.6414,501,-37.1704,55.2979,19.043,95,1.2486,1.5618,29.9783,-45.2046,36,0.2721,8784,3.9688,111.7961
lg,1625051480602058137,0,-0.7876,-0.7847,0.6357,502,-37.8418,29.4189,27.8931,95,1.2296,1.5638,31.9003,-46.959,36,0.2651,8091,3.9688,111.5999
lg,1625051480602076673,0,-0.7759,-0.6941,0.584,503,-44.1284,-54.5654,44.0674,95,1.1986,1.5668,32.0446,-47.0614,36,0.2631,8135,3.9688,114.8539
lg,1625051480602095116,0,-0.647,-0.7878,0.562,504,-45.8374,-108.9478,50.0488,95,1.1636,1.5678,30.6041,-46.3913,36,0.2621,8912,3.9688,120.0376
lg,1625051480602113560,0,-0.1882,-0.8093,0.7991,505,-26.8555,-136.2915,46.814,95,1.1386,1.5678,27.3129,-44.5298,36,0.2661,9881,3.9688,126.0005
lg,1625051480602131781,0,0.0813,-0.967,0.8123,506,-20.2637,-89.4775,31.3721,95,1.1356,1.5678,24.4723,-43.9191,35,0.2661,9754,3.9688,129.6659
lg,1625051480602151076,0,0.0811,-0.8464,0.6184,507,-2.9297,-61.2183,15.8081,95,1.1396,1.5678,23.2947,-44.1909,35,0.2671,8962,3.9688,129.9133
lg,1625051480602171964,0,-0.1248,-0.8137,0.5496,508,2.7466,32.1045,3.9062,95,1.1486,1.5658,23.6986,-44.9136,35,0.2671,8594,3.9688,128.8565
lg,1625051480602193296,0,-0.3464,-0.8171,0.4607,509,9.9487,59.3872,5.4932,95,1.1576,1.5678,25.4004,-45.8401,35,0.2681,8364,3.9688,126.9104
lg,1625051480602211870,0,-0.4915,-0.7524,0.4739,510,14.8315,62.1338,5.9814,95,1.1716,1.5698,27.4322,-46.5066,35,0.2691,9021,3.9688,124.892
lg,1625051480602232387,0,-0.5295,-0.7505,0.5491,511,14.9536,56.8848,6.5308,95,1.1846,1.5698,28.8434,-46.7363,35,0.2711,8398,3.9688,123.6825
lg,1625051480602253404,0,-0.5752,-0.8074,0.5505,512,14.8926,22.8271,9.8877,95,1.1996,1.5658,29.8215,-46.7018,35,0.2731,8671,3.9688,123.0634
lg,1625051480956812433,0,-0.1797,-0.8501,0.5325,513,32.5928,0.2441,1.9531,95,1.2506,1.5638,29.5303,-46.003,36,0.2671,28080,3.9688,122.1683
lg,1625051480956848764,0,-0.1743,-0.7524,0.5803,514,30.8228,42.2363,-0.4883,95,1.2536,1.5628,30.4804,-46.9471,36,0.2681,8482,3.9688,119.9343
lg,1625051480956869096,0,-0.4561,-0.8447,0.5671,515,-35.5225,54.0771,5.9204,95,1.2416,1.5638,31.8364,-49.6173,35,0.2731,12601,3.9688,118.0395
lg,1625051480956909854,0,-0.6895,-0.6997,0.4492,516,-48.2788,23.0713,24.5972,95,1.2046,1.5658,33.4824,-51.8708,35,0.2651,8511,3.9688,117.7778
lg,1625051480956930130,0,-0.801,-0.697,0.5085,517,-44.4336,-36.5601,36.1938,95,1.1486,1.5678,34.0945,-52.3303,35,0.2641,9926,3.9688,120.2061
lg,1625051480956948648,0,-0.7104,-0.7319,0.6182,518,-40.6494,-71.8994,45.4102,95,1.1095,1.5678,33.1342,-51.0878,35,0.2671,8672,3.9688,124.6122
lg,1625051480956965999,0,-0.3528,-0.8838,0.5452,519,-9.8877,-135.9253,25.8789,95,1.0995,1.5668,29.8971,-48.8268,35,0.2691,8486,3.9688,130.106
lg,1625051480956983146,0,0.0002,-0.9531,0.6165,520,-5.0049,-121.0327,10.8643,95,1.0985,1.5658,25.8868,-47.3293,35,0.2691,7759,3.9688,134.3206
lg,1625051480957001330,0,0.012,-0.8247,0.4849,521,8.9722,-85.8154,-1.2207,95,1.0975,1.5648,22.6154,-46.3493,35,0.2691,7804,3.9688,136.8121
lg,1625051480957019033,0,-0.1028,-0.7773,0.4692,522,6.1035,-3.9673,13.6719,95,1.1005,1.5658,23.3484,-46.7161,35,0.2701,11081,3.9688,136.3405
lg,1625051480957036754,0,-0.2068,-0.749,0.4475,523,9.2773,54.9927,22.4609,95,1.1035,1.5668,25.113,-47.3046,35,0.2711,8540,3.9688,135.0383
lg,1625051480957054328,0,-0.394,-0.7219,0.5393,524,11.3525,80.9326,23.0103,95,1.1125,1.5678,27.8961,-47.9642,35,0.2711,8240,3.9688,132.9514
lg,1625051480957071975,0,-0.5071,-0.7761,0.6543,525,13.7329,58.1055,22.644,95,1.1255,1.5688,30.0509,-48.1031,35,0.2721,8590,3.9688,131.6297
lg,1625051480957089066,0,-0.5195,-0.7871,0.6423,526,11.6577,35.0952,22.522,95,1.1406,1.5678,31.5272,-47.9989,35,0.2731,7912,3.9688,131.06
lg,1625051480957106177,0,-0.4353,-0.8013,0.6692,527,15.686,7.3853,21.9727,95,1.1606,1.5688,32.0156,-47.2211,35,0.2721,8046,3.9688,131.4531
lg,1625051480957125694,0,-0.2622,-0.8276,0.7263,528,29.6021,-2.4414,15.9302,95,1.1846,1.5688,31.6794,-45.7849,35,0.2681,7965,3.9688,132.0103
lg,1625051480957143415,0,-0.2305,-0.8586,0.6758,529,36.438,7.9346,8.2397,95,1.2136,1.5658,31.3678,-44.5935,35,0.2711,8400,3.9688,131.8681
lg,1625051480957160933,0,-0.2361,-0.8879,0.5869,530,40.5884,45.6543,-8.0566,95,1.2456,1.5608,31.719,-44.4315,35,0.2601,8726,3.9688,129.8115
lg,1625051480957178099,0,-0.3262,-0.8286,0.5793,531,45.9595,83.9233,-10.376,95,1.2696,1.5558,33.2691,-44.7503,35,0.2491,8773,3.9688,126.4136
lg,1625051480957195635,0,-0.4956,-0.6292,0.5596,532,9.0332,79.7729,-7.6294,95,1.2746,1.5538,35.1544,-46.2207,35,0.2521,8806,3.9688,123.319
lg,1625051480957213171,0,-0.6055,-0.9033,0.647,533,-26.4282,61.6455,2.9297,95,1.2716,1.5548,36.6628,-48.9266,35,0.2591,8839,3.9688,121.7302
lg,1625051480957243095,0,-0.7544,-0.7942,0.4863,534,-37.5977,28.7476,15.3809,95,1.2436,1.5568,37.9596,-51.1552,35,0.2601,8488,3.9688,120.8963
lg,1625051480957261798,0,-0.865,-0.6675,0.4446,535,-43.6401,-50.354,27.0996,95,1.2116,1.5608,37.9103,-51.3006,35,0.2541,8849,3.9688,123.6543
lg,1625051480957279390,0,-0.7117,-0.864,0.7085,536,-32.5928,-108.0322,43.8232,95,1.1666,1.5638,36.2929,-49.1916,35,0.2531,8164,3.9688,129.2598
lg,1625051480957296648,0,-0.3713,-0.9006,0.7161,537,-24.4751,-174.3164,36.2549,95,1.1486,1.5648,31.4217,-45.8648,35,0.2561,8295,3.9688,136.7251
lg,1625051480957313481,0,-0.0457,-0.8257,0.4087,538,11.8408,-157.1045,-0.7935,95,1.1406,1.5648,25.9445,-43.7658,35,0.2571,8355,3.9688,141.3261
lg,1625051480957330924,0,0.0359,-0.8071,0.3877,539,0,-73.1201,-6.0425,95,1.1376,1.5638,22.6638,-43.7954,35,0.2581,8182,3.9688,142.9782
lg,1625051480957348497,0,-0.1685,-0.6252,0.2837,540,10.2539,-24.9023,-8.3618,95,1.1376,1.5638,23.1214,-44.791,35,0.2591,8456,3.9688,141.9981
lg,1625051480957376144,0,-0.3257,-0.698,0.5322,541,-2.0142,62.9272,20.9351,95,1.1436,1.5648,25.3668,-45.7202,35,0.2601,10600,3.9688,140.5549
lg,1625051480957396013,0,-0.3528,-0.8167,0.6816,542,-2.4414,56.1523,29.6021,95,1.1526,1.5648,27.4322,-46.4116,35,0.2601,8821,3.9688,139.574
lg,1625051480957416179,0,-0.3306,-0.8613,0.7551,543,7.0801,22.644,24.9634,95,1.1696,1.5678,28.3231,-46.2,35,0.2631,8349,3.9688,139.5663
lg,1625051480957434011,0,-0.2368,-0.8145,0.6819,544,12.207,9.7656,17.2119,95,1.1866,1.5678,28.4667,-45.7653,35,0.2641,8323,3.9688,139.7093
lg,1625051481326132281,0,-0.2192,-0.8892,0.5393,545,43.9453,75.0732,-22.583,95,1.2806,1.5628,29.3755,-46.1875,36,0.2601,27182,3.9688,136.215
lg,1625051481326189242,0,-0.3533,-0.7537,0.4807,546,50.0488,106.5063,-28.1372,95,1.2926,1.5578,31.1709,-46.9173,35,0.2451,8913,3.9688,131.4991
lg,1625051481326209518,0,-0.5442,-0.5933,0.5583,547,4.2725,102.2949,-11.4746,95,1.2926,1.5558,33.6476,-48.8544,35,0.2561,7787,3.9688,127.536
lg,1625051481326228943,0,-0.7549,-0.9038,0.6138,548,-49.8657,71.167,12.207,95,1.2746,1.5578,35.8481,-52.4214,35,0.2621,11969,3.9688,125.0754
lg,1625051481326268571,0,-0.9548,-0.6936,0.51,549,-45.5322,-7.6904,30.1514,95,1.2436,1.5608,37.0921,-53.5478,35,0.2651,7777,3.9688,126.2617
lg,1625051481326288144,0,-0.9001,-0.6357,0.5732,550,-39.4897,-62.9272,42.1753,95,1.2096,1.5638,36.3222,-51.7341,36,0.2561,7778,3.9688,131.6295
lg,1625051481326306254,0,-0.7432,-0.8513,0.6372,551,-40.8325,-133.8501,49.6826,95,1.1766,1.5648,34.4279,-49.5627,36,0.2561,7785,3.9688,138.2386
lg,1625051481326324235,0,-0.4138,-0.873,0.5688,552,-39.5508,-196.0449,49.0723,95,1.1436,1.5668,30.2144,-46.9206,36,0.2591,7796,3.9688,146.5282
lg,1625051481326342067,0,-0.0286,-0.8608,0.4561,553,1.4038,-179.0161,20.0195,95,1.1316,1.5648,24.7828,-44.5669,36,0.2601,9184,3.9688,152.588
lg,1625051481326359863,0,0.1248,-0.9521,0.6392,554,-20.3247,-131.8359,13.7329,95,1.1266,1.5608,20.2677,-44.1628,36,0.2601,7797,3.9688,156.8022
lg,1625051481326377899,0,0.0315,-0.7417,0.2952,555,2.0752,-52.8564,0.4883,95,1.1276,1.5618,17.9738,-44.5333,36,0.2611,7804,3.9688,158.047
lg,1625051481326395435,0,-0.0354,-0.7417,0.4387,556,-0.6714,7.4463,4.5166,95,1.1336,1.5628,19.1229,-45.1369,36,0.2611,7771,3.9688,156.9729
lg,1625051481326412434,0,-0.1567,-0.823,0.5369,557,6.5918,56.0303,14.9536,95,1.1446,1.5638,20.7245,-45.7748,36,0.2621,7823,3.9688,155.5592
lg,1625051481326429545,0,-0.3994,-0.7651,0.4956,558,13.6719,71.2891,7.2021,95,1.1616,1.5658,23.0204,-46.4021,36,0.2651,12134,3.9688,153.4013
lg,1625051481326446581,0,-0.4678,-0.7556,0.5071,559,13.4888,60.4248,11.4136,95,1.1776,1.5668,25.1704,-46.8732,36,0.2661,8222,3.9688,151.6699
lg,1625051481326475802,0,-0.4912,-0.8362,0.5703,560,18.3716,21.9116,17.9443,95,1.1956,1.5668,26.3217,-46.5471,36,0.2681,8611,3.9688,151.3605
lg,1625051481326494523,0,-0.2527,-0.7485,0.6626,561,32.7759,-21.4844,18.1885,95,1.2126,1.5668,25.7628,-44.7644,36,0.2691,8668,3.9688,152.5706
lg,1625051481326512633,0,-0.1606,-0.7708,0.5828,562,32.5317,-21.9727,13.4888,95,1.2286,1.5658,24.7892,-43.4434,36,0.2751,7919,3.9688,153.4713
lg,1625051481326529855,0,-0.1101,-0.8174,0.6201,563,28.2593,23.7427,13.1226,95,1.2386,1.5648,25.1177,-42.837,36,0.2721,9055,3.9688,153.0018
lg,1625051481326546983,0,-0.23,-0.7471,0.6672,564,1.0376,69.8853,6.4697,95,1.2366,1.5658,26.833,-43.8582,36,0.2731,8962,3.9688,150.9788
lg,1625051481326564094,0,-0.5593,-0.8728,0.5962,565,-36.6211,80.2612,9.3994,95,1.2136,1.5668,29.3886,-46.8542,35,0.2771,8694,3.9688,148.4717
lg,1625051481326580982,0,-0.7456,-0.7366,0.5505,566,-40.0391,65.4297,16.9067,95,1.1646,1.5688,31.4619,-48.8665,35,0.2681,8767,3.9688,148.0271
lg,1625051481326598185,0,-0.7781,-0.665,0.5127,567,-41.1377,-3.1738,28.9917,95,1.1175,1.5668,32.6999,-50.0836,35,0.2661,8055,3.9688,148.9675
lg,1625051481326615813,0,-0.554,-0.7332,0.8066,568,-30.0293,-64.5142,41.3818,95,1.0875,1.5688,32.0705,-49.0118,35,0.2691,8103,3.9688,152.7524
lg,1625051481326632813,0,-0.3589,-0.9631,0.6812,569,-27.71,-96.1914,33.0811,95,1.0775,1.5668,29.9406,-48.0955,35,0.2701,8860,3.9688,157.0129
lg,1625051481326649349,0,-0.2058,-0.8413,0.6184,570,-10.8032,-110.0464,27.1606,95,1.0795,1.5668,27.0471,-46.6055,35,0.2711,8086,3.9688,161.4126
lg,1625051481326666552,0,-0.1504,-0.7998,0.6003,571,0.4272,-50.7812,13.0615,95,1.0885,1.5668,25.3122,-45.9617,35,0.2721,8893,3.9688,163.3249
lg,1625051481326683366,0,-0.1436,-0.8667,0.5916,572,8.4839,-6.5918,15.8691,95,1.1025,1.5678,24.9094,-45.7364,35,0.2731,9083,3.9688,163.8428
lg,1625051481326700180,0,-0.1921,-0.8381,0.583,573,21.0571,42.1143,9.0942,95,1.1155,1.5678,25.7853,-45.7421,35,0.2731,8558,3.9688,162.6155
lg,1625051481326717179,0,-0.366,-0.7324,0.5027,574,22.3999,52.8564,-0.061,95,1.1336,1.5698,27.1233,-46.1452,35,0.2731,8978,3.9688,160.39
lg,1625051481326734474,0,-0.4529,-0.7666,0.4875,575,21.3623,63.1714,-8.606,95,1.1566,1.5698,28.5868,-46.8308,35,0.2741,8949,3.9688,157.8396
lg,1625051481326761936,0,-0.509,-0.7825,0.5723,576,27.71,43.8843,-8.9111,95,1.1846,1.5688,29.4843,-46.8406,35,0.2751,8245,3.9688,155.9625
lg,1625051481700034186,0,-0.2224,-0.8298,0.5444,577,49.6216,19.2261,-4.3945,95,1.2716,1.5578,29.2392,-45.6715,35,0.2661,26908,3.9688,154.9639
lg,1625051481700089961,0,-0.2559,-0.6475,0.5144,578,35.6445,42.8467,-5.0049,95,1.2806,1.5538,29.8155,-45.2661,36,0.2641,11040,3.9688,153.2714
lg,1625051481700110979,0,-0.4294,-0.7812,0.571,579,-40.5273,52.4292,13.9771,95,1.2616,1.5548,31.4191,-47.9023,36,0.2721,9802,3.9688,151.772
lg,1625051481700129867,0,-0.7515,-0.8167,0.5862,580,-59.1431,55.481,31.7383,95,1.2146,1.5598,33.2936,-50.0722,36,0.2631,10809,3.9688,152.4644
lg,1625051481700148199,0,-0.9133,-0.6604,0.5066,581,-63.4155,-44.4336,47.6685,95,1.1616,1.5628,34.1958,-50.9391,36,0.2621,8172,3.9688,155.5345
lg,1625051481700166032,0,-0.5662,-0.8062,0.9016,582,-56.8848,-141.6626,66.4673,95,1.1205,1.5648,32.2492,-48.8382,35,0.2651,8155,3.9688,162.9922
lg,1625051481700183920,0,-0.2969,-0.8196,0.8057,583,-23.9868,-181.5796,42.7856,95,1.1065,1.5648,27.083,-46.7267,35,0.2671,7798,3.9688,169.825
lg,1625051481700201659,0,0.1211,-1.0996,0.8306,584,-31.0059,-171.5088,21.0571,95,1.1065,1.5638,21.9391,-45.3087,35,0.2681,8307,3.9688,-185.956
lg,1625051481700219677,0,0.1226,-0.8447,0.4788,585,7.4463,-70.4346,-12.6953,95,1.1105,1.5628,18.5284,-45.0246,35,0.2691,8399,3.9688,-184.4394
lg,1625051481700238324,0,-0.0542,-0.7114,0.3457,586,11.9629,26.7944,-6.2256,95,1.1155,1.5638,18.5623,-45.6308,36,0.2711,8146,3.9688,-185.6745
lg,1625051481700256731,0,-0.1531,-0.7034,0.354,587,9.3384,59.082,-3.7842,95,1.1165,1.5638,20.939,-46.8862,36,0.2711,7844,3.9688,171.3999
lg,1625051481700274304,0,-0.4028,-0.7671,0.4478,588,6.1035,105.4077,1.4038,95,1.1175,1.5618,23.9488,-48.402,36,0.2721,8590,3.9688,167.8847
lg,1625051481700291359,0,-0.6445,-0.7129,0.4768,589,6.4087,74.646,10.6201,95,1.1215,1.5658,26.7274,-49.3441,36,0.2721,8604,3.9688,165.5868
lg,1625051481700307784,0,-0.6208,-0.7681,0.6157,590,8.1177,8.9111,23.0103,95,1.1255,1.5658,27.8659,-48.9079,36,0.2721,7904,3.9688,165.9327
lg,1625051481700333135,0,-0.5249,-0.7827,0.5859,591,7.3853,-31.6772,28.3203,95,1.1346,1.5668,27.8872,-47.8685,36,0.2721,8284,3.9688,167.7838
lg,1625051481700352541,0,-0.2195,-0.7905,0.5842,592,16.0522,-73.8525,29.3579,95,1.1486,1.5658,26.142,-45.955,36,0.2721,7948,3.9688,170.9889
lg,1625051481700370114,0,0.0371,-0.897,0.7539,593,21.9727,-41.0156,27.1606,95,1.1746,1.5668,24.6965,-44.3319,36,0.2691,8711,3.9688,-186.9645
lg,1625051481700387687,0,0.0806,-0.8323,0.7002,594,39.856,39.917,1.5869,95,1.2116,1.5638,24.7852,-43.4687,35,0.2641,9620,3.9688,-188.2467
lg,1625051481700405538,0,-0.1582,-0.8752,0.5571,595,48.584,122.4976,-28.3203,95,1.2496,1.5598,26.9046,-44.1664,35,0.2661,10149,3.9688,166.8185
lg,1625051481700422612,0,-0.2949,-0.9216,0.5413,596,49.7437,152.71,-40.1001,95,1.2856,1.5488,29.638,-45.7655,35,0.2511,8021,3.9688,160.329
lg,1625051481700439592,0,-0.5166,-0.7922,0.467,597,57.0068,160.7056,-35.0952,95,1.3196,1.5448,33.0066,-47.4666,35,0.2291,8796,3.9688,153.4521
lg,1625051481700474757,0,-0.647,-0.5723,0.5017,598,36.499,117.8589,-6.897,95,1.3357,1.5388,36.2098,-48.5977,36,0.2251,8950,3.9688,148.9327
lg,1625051481700494201,0,-0.7214,-0.7314,0.6208,599,-19.104,75.3784,20.874,95,1.3407,1.5347,38.798,-50.7415,36,0.2401,8875,3.9688,146.6848
lg,1625051481700516052,0,-0.7603,-0.9055,0.6765,600,-39.0625,50.7812,24.5361,95,1.3327,1.5357,40.8035,-53.2502,36,0.2461,8533,3.9688,145.3017
lg,1625051481700545791,0,-0.8799,-0.7004,0.585,601,-43.8232,-24.4751,25.9399,95,1.3026,1.5418,41.1743,-53.6401,35,0.2511,8402,3.9688,147.2535
lg,1625051481700564994,0,-0.8933,-0.8613,0.5869,602,-59.4482,-95.2759,43.7012,95,1.2626,1.5498,40.2712,-52.5401,35,0.2441,8547,3.9688,152.6298
lg,1625051481700581845,0,-0.7017,-0.9072,0.6221,603,-47.8516,-174.6826,51.8188,95,1.2086,1.5548,37.1939,-49.1604,35,0.2441,9085,3.9688,161.1871
lg,1625051481700599140,0,-0.5256,-0.8728,0.5791,604,-41.3208,-215.332,48.9502,95,1.1646,1.5568,31.3257,-45.3181,35,0.2461,8616,3.9688,170.9616
lg,1625051481700616695,0,0.1191,-0.7834,0.8384,605,-23.1934,-239.0137,39.4287,95,1.1476,1.5558,24.1724,-42.0742,35,0.2481,9000,3.9688,-180.2806
lg,1625051481700634361,0,0.2385,-0.9084,0.4707,606,-13.6108,-159.1187,-3.0518,95,1.1436,1.5548,18.0636,-41.8239,35,0.2511,8239,3.9688,-176.1563
lg,1625051481700651545,0,0.0938,-0.8035,0.2466,607,7.5684,-37.7197,-17.9443,95,1.1436,1.5548,15.6268,-42.5825,35,0.2511,8338,3.9688,-176.023
lg,1625051481700668951,0,-0.0188,-0.7166,0.2876,608,5.4932,24.231,-10.7422,95,1.1426,1.5558,17.1172,-43.5121,35,0.2521,8849,3.9688,-177.9009
lg,1625051482064698900,0,-0.48,-0.7827,0.5713,609,-2.5024,67.688,20.1416,95,1.1456,1.5568,19.6623,-44.0803,35,0.2531,28195,3.9688,-178.7132
lg,1625051482064742231,0,-0.4653,-0.7822,0.6235,610,3.9673,33.9966,26.9775,84,1.1576,1.5568,21.4133,-44.2082,36,0.2531,8413,3.9721,-178.9774
lg,1625051482064762397,0,-0.2178,-0.8171,0.6536,611,10.6812,-11.3525,27.8931,84,1.1716,1.5598,21.482,-43.6287,36,0.2521,9858,3.9721,-177.8842
lg,1625051482064781822,0,-0.1672,-0.8101,0.6553,612,12.0239,0.8545,25.9399,84,1.1856,1.5598,22.1634,-43.3681,36,0.2521,7648,3.9721,-177.9099
lg,1625051482064801154,0,-0.2119,-0.8159,0.6145,613,15.1367,45.0439,17.2119,84,1.2046,1.5598,24.024,-43.774,36,0.2511,10525,3.9721,-179.8703
lg,1625051482064818968,0,-0.2825,-0.8306,0.6509,614,20.4468,92.041,1.2207,84,1.2176,1.5598,26.3286,-44.4797,35,0.2531,8172,3.9721,-182.8074
lg,1625051482064836319,0,-0.5,-0.8013,0.6208,615,7.9346,100.5249,-2.0142,84,1.2216,1.5598,29.0801,-45.9932,35,0.2541,7737,3.9721,-186.2395
lg,1625051482064854726,0,-0.6221,-0.7998,0.5977,616,-13.0615,85.9985,-0.6104,84,1.2166,1.5608,31.6697,-48.3586,35,0.2601,7778,3.9721,170.6292
lg,1625051482064873910,0,-0.7947,-0.7781,0.5669,617,-24.4141,35.3394,16.5405,84,1.1986,1.5618,33.3917,-49.9302,35,0.2611,8158,3.9721,169.7642
lg,1625051482064891724,0,-0.7854,-0.7366,0.6079,618,-29.3579,-31.1279,39.1846,84,1.1696,1.5648,34.0222,-49.7949,36,0.2611,10272,3.9721,-187.8777
lg,1625051482064910149,0,-0.552,-0.8274,0.6689,619,-24.9634,-100.4639,44.0674,84,1.1456,1.5638,32.4622,-48.0808,36,0.2631,8605,3.9721,-182.8878
lg,1625051482064928130,0,-0.2988,-0.8701,0.4497,620,-6.958,-127.3804,32.1045,84,1.1366,1.5648,29.3921,-46.2229,36,0.2641,8234,3.9721,-177.8544
lg,1625051482064946536,0,-0.1746,-0.8887,0.5752,621,-10.376,-109.5581,35.2173,84,1.1386,1.5618,26.5885,-44.9177,36,0.2641,7878,3.9721,-173.4282
lg,1625051482064964221,0,-0.126,-0.7664,0.4778,622,10.5591,-62.0117,22.2168,84,1.1476,1.5648,24.7461,-43.9156,35,0.2641,8239,3.9721,-171.0526
lg,1625051482064981905,0,-0.0076,-0.927,0.627,623,15.8691,-10.8643,24.4751,84,1.1606,1.5648,24.1882,-43.3347,35,0.2651,8247,3.9721,-170.1668
lg,1625051482065031755,0,-0.0146,-0.9041,0.6626,624,23.3154,21.9116,16.1743,84,1.1806,1.5658,24.3732,-42.9044,35,0.2661,8758,3.9721,-170.4966
lg,1625051482065056031,0,-0.228,-0.7847,0.5715,625,29.541,104.8584,-17.0898,84,1.2056,1.5638,26.5057,-43.7895,35,0.2661,13434,3.9721,-174.4309
lg,1625051482065073531,0,-0.468,-0.8037,0.5181,626,31.1279,123.9624,-20.874,84,1.2236,1.5618,29.4308,-45.2377,35,0.2621,8313,3.9721,-179.2868
lg,1625051482065090659,0,-0.55,-0.7363,0.4763,627,36.438,107.1777,-20.9961,84,1.2426,1.5588,31.9112,-46.4075,35,0.2571,8767,3.9721,-183.7754
lg,1625051482065107399,0,-0.6184,-0.6169,0.5347,628,30.4565,73.1812,-8.9111,84,1.2536,1.5578,33.8475,-46.8174,35,0.2571,8035,3.9721,-186.6565
lg,1625051482065125343,0,-0.6223,-0.7261,0.5737,629,-7.2021,29.6021,17.2119,84,1.2546,1.5568,35.1474,-47.5617,35,0.2611,8049,3.9721,-187.2499
lg,1625051482065141953,0,-0.7297,-0.8562,0.6602,630,-40.8325,9.6436,25.0854,84,1.2276,1.5598,36.0986,-49.0979,35,0.2631,9366,3.9721,-186.8906
lg,1625051482065159527,0,-0.8145,-0.8015,0.5945,631,-49.5605,-9.1553,37.2925,84,1.1726,1.5638,36.1118,-49.5029,35,0.2591,8499,3.9721,-183.5682
lg,1625051482065177359,0,-0.7949,-0.7795,0.5771,632,-58.7158,-94.9707,47.6074,84,1.1025,1.5628,35.215,-49.0161,35,0.2621,8139,3.9721,-178.5657
lg,1625051482065194895,0,-0.4043,-0.8064,0.6042,633,-13.1836,-165.2832,30.3955,84,1.0735,1.5638,31.1523,-45.9868,35,0.2641,9000,3.9721,-171.8615
lg,1625051482065212487,0,-0.009,-0.9907,0.5752,634,-25.8789,-181.6406,9.7046,84,1.0745,1.5598,25.2359,-44.7136,35,0.2651,8667,3.9721,-166.0115
lg,1625051482065229690,0,0.0515,-0.8196,0.3447,635,4.4556,-84.4116,-14.4043,84,1.0815,1.5598,21.4287,-44.6202,35,0.2661,8916,3.9721,-164.2697
lg,1625051482065247597,0,0.0806,-0.7925,0.429,636,9.7656,-21.2402,-7.2632,84,1.0865,1.5578,19.6413,-44.7788,35,0.2661,8215,3.9721,-164.1063
lg,1625051482065265188,0,-0.0461,-0.699,0.3823,637,8.606,58.7158,-5.3101,84,1.0885,1.5588,20.5204,-45.7755,35,0.2671,8949,3.9721,-166.2717
lg,1625051482065313168,0,-0.3049,-0.7468,0.3784,638,1.5869,111.8164,-0.6104,84,1.0895,1.5588,23.5512,-47.715,35,0.2681,8239,3.9721,-170.0513
lg,1625051482065337593,0,-0.4126,-0.7378,0.4065,639,4.9438,117.0654,4.5776,84,1.0925,1.5598,26.5561,-48.9494,35,0.2691,8224,3.9721,-173.2445
lg,1625051482065356332,0,-0.4683,-0.7756,0.6316,640,12.4512,83.4961,8.0566,84,1.1005,1.5618,28.8951,-49.7399,35,0.2711,9034,3.9721,-175.9076
lg,1625051482435629063,0,-0.3677,-0.7893,0.5579,641,20.3857,-7.019,4.8218,84,1.1506,1.5648,28.539,-48.9404,35,0.2701,28194,3.9721,-175.6207
lg,1625051482435695875,0,-0.2869,-0.7795,0.6672,642,23.6816,2.5024,3.1128,84,1.1746,1.5648,28.1841,-48.0025,35,0.2641,8531,3.9721,-175.6225
lg,1625051482435716004,0,-0.2324,-0.7969,0.5942,643,34.2407,23.8037,-7.1411,84,1.2156,1.5618,28.0415,-47.4868,35,0.2671,11985,3.9721,-176.8212
lg,1625051482435735651,0,-0.2805,-0.8826,0.5632,644,34.9731,62.8662,-14.5264,84,1.2536,1.5578,28.792,-47.7302,35,0.2551,8472,3.9721,-179.5832
lg,1625051482435753706,0,-0.4084,-0.8254,0.5618,645,43.5181,91.4917,-13.6719,84,1.2966,1.5508,30.5652,-48.0791,35,0.2371,10487,3.9721,-183.2977
lg,1625051482435771668,0,-0.5527,-0.7292,0.5154,646,29.6631,78.2471,1.3428,84,1.3246,1.5448,32.7155,-48.5678,36,0.2291,11026,3.9721,-186.1402
lg,1625051482435789611,0,-0.5701,-0.6965,0.5129,647,16.7236,35.0342,26.7944,84,1.3327,1.5418,34.4604,-48.3129,36,0.2281,9806,3.9721,-186.6544
lg,1625051482435808037,0,-0.5393,-0.74,0.5342,648,0.7324,-9.8267,49.4385,84,1.3407,1.5418,35.5062,-47.3798,36,0.2291,8561,3.9721,-184.8134
lg,1625051482435825962,0,-0.4915,-0.7974,0.6345,649,-7.2632,-39.0625,51.2695,84,1.3457,1.5418,35.5437,-46.0193,35,0.2301,8187,3.9721,-181.7885
lg,1625051482435843850,0,-0.4646,-0.8286,0.6631,650,-6.8359,-53.7109,44.4336,84,1.3497,1.5408,34.0922,-44.2603,35,0.2291,8575,3.9721,-178.2159
lg,1625051482435861016,0,-0.3276,-0.8479,0.7581,651,-0.4272,-78.125,32.5928,84,1.3497,1.5378,32.0247,-42.4345,35,0.2311,8984,3.9721,-174.6255
lg,1625051482435878052,0,-0.2166,-0.8357,0.7322,652,-19.7144,-76.1108,14.3433,84,1.3477,1.5368,29.3589,-42.0287,35,0.2431,8220,3.9721,-171.8958
lg,1625051482435895310,0,-0.3423,-0.8545,0.5525,653,-44.3115,-42.3584,-1.9531,84,1.3337,1.5368,27.6748,-43.8232,36,0.2491,8591,3.9721,-170.9465
lg,1625051482435932883,0,-0.4482,-0.8792,0.4795,654,-49.1333,-45.5322,-1.4648,84,1.3126,1.5418,26.5587,-45.5889,36,0.2521,8646,3.9721,-169.8261
lg,1625051482435951734,0,-0.4258,-0.7959,0.5737,655,-34.0576,-41.2598,15.686,84,1.2826,1.5468,25.7522,-46.4851,36,0.2531,8301,3.9721,-168.165
lg,1625051482435968529,0,-0.3147,-0.7617,0.6062,656,-31.4331,-47.6685,24.7192,84,1.2406,1.5538,24.8607,-46.9565,36,0.2451,7933,3.9721,-165.9618
lg,1625051482435985473,0,-0.3813,-0.825,0.4695,657,-35.9497,-7.9346,22.583,84,1.1926,1.5568,25.2138,-48.5235,36,0.2461,8709,3.9721,-165.255
lg,1625051482436002472,0,-0.2239,-0.8076,0.7676,658,-24.1699,12.3291,20.5688,84,1.1686,1.5548,25.6067,-49.3042,36,0.2481,8682,3.9721,-165.0241
lg,1625051482436019323,0,-0.6108,-0.7375,0.4368,659,-0.9766,53.6499,-1.6479,84,1.1626,1.5528,27.321,-50.5341,36,0.2491,8021,3.9721,-167.0671
lg,1625051482436036119,0,-0.6558,-0.7275,0.5061,660,9.8877,13.7939,18.4326,84,1.1606,1.5528,28.5956,-50.2697,36,0.2511,7925,3.9721,-167.0892
lg,1625051482436115004,0,-0.5464,-0.7585,0.6328,661,2.0142,-24.4141,35.9497,84,1.1596,1.5538,28.7135,-49.2265,36,0.2521,8765,3.9721,-165.162
lg,1625051482436134688,0,-0.179,-0.7747,0.7288,662,0.4272,-74.707,54.3213,84,1.1586,1.5538,27.6008,-47.1231,36,0.2541,8408,3.9721,-160.9468
lg,1625051482436152817,0,-0.0229,-0.7302,0.5388,663,-6.2866,-56.8848,33.8135,84,1.1606,1.5548,26.0368,-46.3441,36,0.2551,8033,3.9721,-158.1859
lg,1625051482436170372,0,-0.0786,-0.7397,0.4875,664,-11.1084,-30.6396,25.3906,84,1.1636,1.5558,25.968,-46.9966,36,0.2561,8121,3.9721,-157.6579
lg,1625051482436188001,0,-0.2095,-0.8296,0.5303,665,-11.0474,19.043,19.3481,84,1.1686,1.5568,26.5103,-47.8899,36,0.2581,8147,3.9721,-157.8921
lg,1625051482436204926,0,-0.3838,-0.8196,0.5647,666,-2.9297,34.0576,15.4419,84,1.1826,1.5568,27.6571,-48.6164,36,0.2591,10192,3.9721,-158.7106
lg,1625051482436313162,0,-0.4666,-0.8098,0.5659,667,2.9907,21.5454,15.564,84,1.1966,1.5568,28.5932,-48.8726,36,0.2601,8922,3.9721,-159.0997
lg,1625051482436335235,0,-0.4653,-0.8054,0.5398,668,10.6201,-3.418,14.7095,84,1.2126,1.5598,28.829,-48.4636,36,0.2671,8645,3.9721,-158.6779
lg,1625051482436353752,0,-0.3735,-0.803,0.5522,669,24.1089,-15.1367,8.4229,84,1.2296,1.5608,28.3678,-47.4172,36,0.2661,8280,3.9721,-158.0487
lg,1625051482436409620,0,-0.3655,-0.8108,0.5312,670,29.6631,-17.0288,-0.3052,84,1.2466,1.5608,27.5218,-46.3504,36,0.2641,8431,3.9721,-157.6774
lg,1625051482436431989,0,-0.3206,-0.8486,0.5559,671,35.0342,-3.6011,0.1221,84,1.2646,1.5598,27.0435,-45.3288,36,0.2611,8553,3.9721,-157.7614
lg,1625051482436515152,0,-0.3206,-0.7993,0.5127,672,35.0952,13.2446,4.8218,84,1.2816,1.5588,27.2372,-44.5425,36,0.2591,8279,3.9721,-158.2582
lg,1625051482793427476,0,-0.4707,-0.7659,0.5703,673,6.3477,41.687,15.3198,84,1.3076,1.5578,28.8074,-45.0243,35,0.2591,27233,3.9721,-159.2589
lg,1625051482793465734,0,-0.5518,-0.7432,0.6897,674,0.9155,24.292,16.0522,84,1.3096,1.5578,29.926,-45.1924,36,0.2621,10452,3.9721,-159.5677
lg,1625051482793486455,0,-0.4895,-0.8596,0.7676,675,-26.7334,-23.7427,19.5923,84,1.3046,1.5588,29.5431,-45.6717,36,0.2681,12029,3.9721,-158.2105
lg,1625051482793506436,0,-0.4299,-0.8735,0.5242,676,-54.5044,-66.04,24.8413,84,1.2816,1.5618,28.2039,-46.951,36,0.2711,7649,3.9721,-155.5063
lg,1625051482793525916,0,-0.4141,-0.8438,0.4683,677,-57.9224,-72.1436,27.771,84,1.2336,1.5638,26.9157,-48.3136,36,0.2601,7683,3.9721,-152.516
lg,1625051482793544397,0,-0.4529,-0.7886,0.594,678,-56.5186,-63.7207,28.5034,84,1.1656,1.5648,26.0148,-49.4132,36,0.2671,7898,3.9721,-149.6095
lg,1625051482793561822,0,-0.2854,-0.7246,0.3811,679,0.061,-73.7915,-8.3008,84,1.1416,1.5608,23.5993,-48.9903,36,0.2681,7844,3.9721,-147.6076
lg,1625051482793580451,0,-0.2498,-0.9358,0.6907,680,-12.085,-45.2271,-23.9258,84,1.1386,1.5558,21.248,-49.3445,36,0.2681,8491,3.9721,-146.8697
lg,1625051482793602487,0,-0.4475,-0.8208,0.3384,681,14.4653,-36.438,-47.2412,84,1.1386,1.5548,19.1226,-49.4773,36,0.2691,7766,3.9721,-147.2359
lg,1625051482793620745,0,-0.3516,-0.7092,0.5039,682,24.6582,-22.8882,-0.9155,84,1.1416,1.5548,18.611,-48.4518,35,0.2711,7798,3.9721,-146.5899
lg,1625051482793639411,0,-0.1926,-0.6899,0.4592,683,12.6953,-15.9302,4.0894,84,1.1476,1.5558,18.0957,-48.0598,35,0.2721,9734,3.9721,-146.0737
lg,1625051482793658410,0,-0.1963,-0.7236,0.3921,684,4.8218,30.8228,9.3994,84,1.1476,1.5558,19.0187,-48.6247,35,0.2721,10427,3.9721,-146.9511
lg,1625051482793676576,0,-0.3655,-0.7148,0.4739,685,5.0659,48.9502,4.3335,84,1.1526,1.5568,20.7956,-49.4022,35,0.2741,8261,3.9721,-148.9281
lg,1625051482793694723,0,-0.4443,-0.7617,0.6104,686,2.0752,63.9038,3.8452,84,1.1576,1.5608,22.6933,-50.1206,35,0.2761,7865,3.9721,-150.9502
lg,1625051482793711889,0,-0.4971,-0.8477,0.6509,687,1.2207,22.522,7.2632,84,1.1636,1.5598,23.5726,-50.3684,35,0.2771,8261,3.9721,-151.535
lg,1625051482793729222,0,-0.4204,-0.8218,0.5657,688,4.8828,-26.8555,14.9536,84,1.1686,1.5618,23.3163,-49.8388,35,0.2761,8635,3.9721,-150.2938
lg,1625051482793746573,0,-0.3403,-0.7871,0.574,689,6.1646,-38.208,17.1509,84,1.1786,1.5628,22.6869,-49.0623,35,0.2741,8667,3.9721,-148.6077
lg,1625051482793763831,0,-0.1531,-0.834,0.6199,690,11.0474,-35.3394,23.9258,84,1.1916,1.5638,21.9118,-48.0988,36,0.2721,7906,3.9721,-146.8489
lg,1625051482793781423,0,-0.0627,-0.8672,0.6414,691,16.4795,0.3052,18.5547,84,1.2176,1.5638,21.7445,-47.4657,36,0.2651,12625,3.9721,-146.4111
lg,1625051482793798811,0,-0.1003,-0.8442,0.6414,692,30.0903,59.9365,-0.4883,84,1.2416,1.5628,22.7039,-47.2071,36,0.2681,8706,3.9721,-148.4184
lg,1625051482793815940,0,-0.2578,-0.8147,0.5227,693,34.0576,98.2056,-11.0474,84,1.2716,1.5598,24.7173,-47.6603,35,0.2601,9527,3.9721,-152.0706
lg,1625051482793833736,0,-0.4429,-0.8433,0.5503,694,34.9121,121.1548,-11.1694,84,1.3016,1.5548,27.563,-48.5458,35,0.2431,8046,3.9721,-156.5816
lg,1625051482793852679,0,-0.5117,-0.8271,0.5645,695,35.7666,117.3706,-9.6436,84,1.3266,1.5498,30.307,-49.4968,35,0.2331,8045,3.9721,-161.0594
lg,1625051482793871308,0,-0.6262,-0.8132,0.5676,696,32.8369,87.7075,2.5635,84,1.3467,1.5458,32.7078,-49.997,35,0.2251,9341,3.9721,-164.2381
lg,1625051482793889214,0,-0.6228,-0.697,0.5627,697,20.0806,20.6299,22.1558,84,1.3547,1.5408,33.9872,-49.26,36,0.2241,8196,3.9721,-164.3228
lg,1625051482793907658,0,-0.5107,-0.696,0.543,698,-16.2354,-31.1279,44.8608,84,1.3597,1.5378,34.3633,-48.5686,36,0.2361,8212,3.9721,-161.8199
lg,1625051482793926139,0,-0.5203,-0.8108,0.5188,699,-34.8511,-40.8936,44.9829,84,1.3567,1.5337,34.4107,-48.5671,36,0.2431,8600,3.9721,-159.0397
lg,1625051482793943064,0,-0.644,-0.8093,0.6807,700,-37.3535,-40.4053,43.396,84,1.3397,1.5337,34.5177,-48.4756,36,0.2471,8966,3.9721,-156.1977
lg,1625051482793960359,0,-0.6538,-0.7607,0.5107,701,-57.8003,-110.4736,53.3447,84,1.3056,1.5388,33.223,-47.8916,35,0.2501,9017,3.9721,-150.6695
lg,1625051482793977766,0,-0.6707,-0.791,0.4692,702,-63.1714,-148.3154,59.3262,84,1.2336,1.5478,31.1171,-47.0614,35,0.2431,9761,3.9721,-143.829
lg,1625051482793995061,0,-0.4941,-0.7788,0.5139,703,-67.0166,-198.7305,69.7021,84,1.1656,1.5538,27.5783,-45.7832,35,0.2461,11037,3.9721,-135.2084
lg,1625051482794013709,0,0.2366,-0.8162,1.1062,704,-45.3491,-234.1309,71.9604,84,1.1366,1.5548,21.593,-43.2529,36,0.2501,9051,3.9721,-125.5866
lg,1625051483161166429,0,0.1304,-0.9006,0.6301,705,10.0098,103.8818,-7.2632,84,1.1366,1.5558,23.2925,-44.6062,36,0.2541,26654,3.9721,-129.1097
lg,1625051483161220889,0,-0.1006,-0.803,0.5776,706,18.9209,155.1514,-2.1973,84,1.1436,1.5568,26.8749,-46.3572,35,0.2551,11642,3.9721,-134.2272
lg,1625051483161242648,0,-0.4194,-0.7107,0.3442,707,8.606,179.9927,-14.6484,84,1.1476,1.5578,31.2802,-49.9124,35,0.2571,9396,3.9721,-141.1376
lg,1625051483161262610,0,-0.7124,-0.7,0.3628,708,2.7466,163.8184,-8.4229,84,1.1526,1.5578,35.4607,-53.7817,35,0.2591,7757,3.9721,-147.8147
lg,1625051483161282016,0,-0.7937,-0.7378,0.4888,709,4.3945,134.0332,-3.6011,84,1.1616,1.5578,38.5733,-57.0057,35,0.2611,7777,3.9721,-153.4685
lg,1625051483161300256,0,-0.769,-0.7695,0.562,710,8.3008,28.7476,8.9722,84,1.1716,1.5598,39.4981,-57.1595,36,0.2621,8593,3.9721,-154.3775
lg,1625051483161319329,0,-0.5596,-0.7571,0.5149,711,11.2915,-52.7954,15.8691,84,1.1826,1.5598,38.5287,-54.9254,36,0.2601,7850,3.9721,-151.6174
lg,1625051483161337218,0,-0.3374,-0.8049,0.5225,712,12.207,-81.2378,19.4702,84,1.1996,1.5608,36.4916,-52.1674,36,0.2591,12083,3.9721,-147.8033
lg,1625051483161354124,0,-0.2109,-0.8494,0.5859,713,17.5171,-57.6172,4.5776,84,1.2116,1.5608,34.2427,-50.2607,36,0.2661,7842,3.9721,-145.5564
lg,1625051483161370975,0,-0.2161,-0.8354,0.5518,714,25.5737,-40.1611,-2.0752,84,1.2296,1.5608,32.6121,-48.829,36,0.2641,8494,3.9721,-144.8447
lg,1625051483161387697,0,-0.2083,-0.8369,0.5618,715,33.7524,-12.8784,-2.9297,84,1.2496,1.5598,31.3779,-47.6174,36,0.2621,7790,3.9721,-144.6676
lg,1625051483161404270,0,-0.1931,-0.8508,0.5652,716,38.8794,17.5781,-1.2817,84,1.2696,1.5588,31.0212,-46.7911,36,0.2591,8164,3.9721,-145.5249
lg,1625051483161421047,0,-0.26,-0.7883,0.5496,717,39.5508,35.0952,1.0986,84,1.2836,1.5568,31.8377,-46.8414,36,0.2581,8103,3.9721,-147.5928
lg,1625051483161438065,0,-0.3545,-0.7441,0.5544,718,13.855,60.791,4.4556,84,1.2856,1.5558,33.1755,-47.6201,36,0.2641,8810,3.9721,-149.7157
lg,1625051483161455583,0,-0.5244,-0.8037,0.5605,719,-25.9399,52.1851,14.4653,84,1.2736,1.5588,34.9933,-49.6314,36,0.2691,10791,3.9721,-151.2499
lg,1625051483161472897,0,-0.6741,-0.7266,0.5652,720,-42.0532,11.5967,33.9966,84,1.2356,1.5588,36.3712,-51.0252,36,0.2701,8770,3.9721,-150.6741
lg,1625051483161489933,0,-0.8091,-0.748,0.5137,721,-46.3257,-36.0718,41.0156,84,1.1936,1.5648,36.9568,-51.4185,35,0.2591,9297,3.9721,-148.0789
lg,1625051483161507081,0,-0.6375,-0.8091,0.8433,722,-36.6211,-105.3467,56.2744,84,1.1596,1.5658,35.6832,-49.0924,35,0.2621,9064,3.9721,-142.0612
lg,1625051483161524469,0,-0.3398,-1.0181,0.7024,723,-13.3667,-162.1094,28.0151,84,1.1446,1.5638,31.3948,-46.2287,35,0.2631,7993,3.9721,-135.5779
lg,1625051483161541598,0,-0.1118,-1.0544,0.8047,724,-21.9727,-168.5181,24.0479,90,1.1406,1.5618,25.8658,-43.9201,35,0.2631,9154,3.9721,-130.3029
lg,1625051483161558393,0,0.0366,-0.8538,0.4727,725,12.085,-120.0562,2.5024,90,1.1426,1.5588,21.4398,-42.6836,35,0.2651,8770,3.9721,-126.9494
lg,1625051483161575874,0,0.1143,-0.7275,0.364,726,19.3481,-25.7568,12.6953,90,1.1446,1.5618,19.9634,-42.3498,35,0.2641,8387,3.9721,-126.1191
lg,1625051483161593336,0,-0.0391,-0.6392,0.3811,727,16.4185,71.8994,11.4746,90,1.1476,1.5628,21.7411,-43.0013,35,0.2661,8397,3.9721,-128.087
lg,1625051483161610261,0,-0.1736,-0.6692,0.405,728,12.2681,114.6851,9.7656,90,1.1566,1.5628,25.3133,-44.2763,35,0.2671,8775,3.9721,-131.4309
lg,1625051483161627131,0,-0.4678,-0.7583,0.5581,729,7.8125,133.3618,8.9111,90,1.1676,1.5648,29.343,-46.1559,35,0.2681,9191,3.9721,-135.5788
lg,1625051483161644316,0,-0.6882,-0.7454,0.6067,730,7.9346,91.8579,5.7373,90,1.1816,1.5648,32.2467,-47.5113,35,0.2701,9210,3.9721,-138.6107
lg,1625051483161661556,0,-0.7026,-0.7734,0.6396,731,7.6904,12.9395,14.8926,90,1.1956,1.5668,33.1342,-47.2886,35,0.2711,8909,3.9721,-138.6396
lg,1625051483161678184,0,-0.4932,-0.8577,0.6277,732,11.7798,-52.6123,21.3013,90,1.2126,1.5658,31.9898,-45.7337,36,0.2811,9307,3.9721,-136.2776
lg,1625051483161694962,0,-0.1943,-0.8193,0.7207,733,25.5737,-71.4111,24.4751,90,1.2326,1.5648,29.8013,-43.2277,36,0.2791,9312,3.9721,-133.2123
lg,1625051483161711535,0,-0.1274,-0.8401,0.6565,734,27.2217,-56.4575,18.1274,90,1.2526,1.5648,27.688,-41.5347,36,0.2751,8563,3.9721,-131.1358
lg,1625051483161728256,0,-0.0903,-0.9011,0.5999,735,26.2451,-2.9907,8.8501,90,1.2706,1.5618,26.9777,-40.9537,36,0.2691,8617,3.9721,-131.0547
lg,1625051483161745311,0,-0.0913,-0.8318,0.5967,736,29.3579,59.1431,6.2256,90,1.2826,1.5608,28.0904,-41.0757,35,0.2641,9367,3.9721,-132.8665
lg,1625051483517651255,0,-0.6594,-0.76,0.5193,737,-46.6309,66.1621,28.6255,90,1.2486,1.5618,31.1108,-44.0015,36,0.2751,29315,3.9721,-134.2204
lg,1625051483517752399,0,-0.7988,-0.6594,0.4666,738,-50.7202,5.188,42.2363,90,1.1886,1.5648,32.4668,-45.2813,36,0.2731,11280,3.9721,-132.261
lg,1625051483517783991,0,-0.8367,-0.7407,0.5356,739,-57.8613,-53.894,55.542,90,1.1396,1.5658,32.2289,-45.4785,36,0.2761,9737,3.9721,-128.5149
lg,1625051483517813211,0,-0.4419,-0.772,0.6897,740,-22.0337,-141.0522,43.457,90,1.1276,1.5648,29.0787,-43.3825,36,0.2781,7766,3.9721,-122.5344
lg,1625051483517840988,0,-0.0764,-1.0137,0.894,741,-26.123,-132.3242,27.771,90,1.1286,1.5648,24.9932,-42.392,35,0.2791,7707,3.9721,-117.6877
lg,1625051483517868450,0,-0.0852,-0.9072,0.5806,742,0.9155,-120.7275,4.8218,90,1.1316,1.5638,20.7903,-41.5575,35,0.2801,7752,3.9721,-114.2922
lg,1625051483517895652,0,-0.092,-0.8108,0.5566,743,3.8452,-38.4521,5.9204,90,1.1366,1.5648,19.2183,-41.5383,35,0.2791,7698,3.9721,-113.2204
lg,1625051483517921799,0,-0.0654,-0.7832,0.457,744,10.7422,-2.3804,4.9438,90,1.1426,1.5648,18.7199,-41.7756,35,0.2811,8580,3.9721,-113.2425
lg,1625051483517947169,0,-0.0872,-0.7417,0.387,745,11.7188,27.832,5.0659,90,1.1506,1.5658,19.2167,-42.3451,36,0.2821,8267,3.9721,-114.1428
lg,1625051483517972501,0,-0.2529,-0.7544,0.4387,746,12.207,90.21,-1.8311,90,1.1586,1.5668,21.6982,-43.4846,36,0.2831,8120,3.9721,-117.0573
lg,1625051483518002166,0,-0.4773,-0.7397,0.47,747,12.7563,105.4077,-4.0894,90,1.1726,1.5688,24.8754,-44.8103,36,0.2841,7832,3.9721,-120.5861
lg,1625051483518029036,0,-0.5872,-0.7817,0.4998,748,12.085,99.1821,-3.3569,90,1.1846,1.5688,27.845,-46.2378,36,0.2841,7819,3.9721,-124.0565
lg,1625051483518055109,0,-0.7058,-0.7749,0.5022,749,16.6016,51.8799,-2.1362,90,1.1976,1.5678,29.584,-46.8094,36,0.2861,7841,3.9721,-126.0241
lg,1625051483518081811,0,-0.6562,-0.7402,0.5068,750,19.9585,13.916,2.8687,90,1.2136,1.5688,30.0864,-46.4191,36,0.2871,7872,3.9721,-126.5102
lg,1625051483518109014,0,-0.4463,-0.7651,0.5859,751,29.7241,-31.8604,6.3477,90,1.2336,1.5668,29.1759,-44.8559,36,0.2861,8134,3.9721,-125.3797
lg,1625051483518135531,0,-0.2515,-0.8533,0.6135,752,37.5366,-38.6963,0.3662,90,1.2546,1.5648,27.4761,-43.1769,36,0.2811,7919,3.9721,-124.3493
lg,1625051483518162622,0,-0.1946,-0.8521,0.5627,753,38.208,-26.9775,-3.9673,90,1.2746,1.5608,25.8768,-41.9139,36,0.2751,7901,3.9721,-123.9335
lg,1625051483518189140,0,-0.1545,-0.8357,0.5801,754,41.0156,16.4185,-5.127,90,1.2916,1.5588,25.579,-41.1283,36,0.2691,7998,3.9721,-124.843
lg,1625051483518214416,0,-0.2744,-0.7236,0.5596,755,21.3623,61.8896,1.1597,90,1.2996,1.5548,27.1174,-41.5281,36,0.2691,9200,3.9721,-126.834
lg,1625051483518241860,0,-0.5134,-0.8748,0.5874,756,-9.3994,62.7441,5.9204,90,1.3006,1.5528,29.1077,-44.1545,36,0.2751,8142,3.9721,-128.5168
lg,1625051483518266655,0,-0.7351,-0.73,0.5149,757,-36.377,50.5981,25.6348,90,1.2706,1.5598,31.4409,-45.8512,36,0.2791,9968,3.9721,-128.4686
lg,1625051483518293135,0,-0.8127,-0.7402,0.5608,758,-44.7998,-38.3911,41.3818,90,1.2396,1.5628,31.9592,-46.4769,36,0.2691,8159,3.9721,-125.9409
lg,1625051483518320634,0,-0.6899,-0.8523,0.5588,759,-43.335,-112.854,50.293,90,1.2066,1.5648,30.3946,-45.7665,36,0.2711,8116,3.9721,-120.7007
lg,1625051483518345763,0,-0.3367,-0.8713,0.9697,760,-33.3252,-145.6299,49.5605,90,1.1876,1.5668,25.8446,-43.4817,36,0.2731,8160,3.9721,-114.9075
lg,1625051483518371632,0,-0.073,-0.9958,0.6875,761,-17.2119,-151.8555,20.0195,90,1.1776,1.5658,21.1347,-42.6104,35,0.2741,8157,3.9721,-109.9693
lg,1625051483518400427,0,0.1062,-0.8435,0.4341,762,10.0098,-114.7461,-4.7607,90,1.1726,1.5658,16.6335,-42.0152,35,0.2751,9126,3.9721,-107.1482
lg,1625051483518427370,0,0.033,-0.6934,0.3235,763,11.1694,-9.8877,-3.8452,90,1.1726,1.5658,15.5439,-42.4371,35,0.2761,8761,3.9721,-107.2511
lg,1625051483518453425,0,-0.071,-0.6436,0.3123,764,8.9111,41.626,-3.418,90,1.1766,1.5668,16.6327,-43.0415,35,0.2771,8218,3.9721,-108.698
lg,1625051483518478239,0,-0.3328,-0.7563,0.5645,765,5.249,107.5439,3.2959,90,1.1786,1.5668,19.9334,-44.1713,36,0.2771,8256,3.9721,-111.8429
lg,1625051483518502941,0,-0.52,-0.7473,0.5312,766,8.8501,75.6226,9.8267,90,1.1846,1.5678,22.7355,-44.9121,36,0.2791,8252,3.9721,-113.9569
lg,1625051483518528847,0,-0.5745,-0.7231,0.575,767,8.4229,51.6357,13.6108,90,1.1936,1.5688,24.5984,-45.0734,36,0.2791,8473,3.9721,-114.641
lg,1625051483518553161,0,-0.5317,-0.7888,0.6548,768,7.6294,20.0806,21.3623,90,1.2036,1.5698,25.8748,-44.9433,35,0.2801,8319,3.9721,-114.6845
lg,1625051483875300773,0,-0.1787,-0.8303,0.7131,769,10.0708,-3.418,18.0054,90,1.2406,1.5698,25.6328,-44.4287,35,0.2891,25727,3.9721,-114.0934
lg,1625051483875332772,0,-0.2754,-0.8772,0.5957,770,17.9443,49.8047,3.2349,90,1.2626,1.5688,26.7075,-44.8285,35,0.2831,13231,3.9721,-115.7611
lg,1625051483875353215,0,-0.3074,-0.8767,0.603,771,21.7896,62.8662,2.0142,90,1.2756,1.5668,28.1204,-45.2967,35,0.2791,7720,3.9721,-117.9088
lg,1625051483875371955,0,-0.4231,-0.8796,0.5881,772,20.5078,71.7773,4.5776,90,1.2846,1.5658,30.0035,-45.9955,35,0.2761,7879,3.9721,-120.3303
lg,1625051483875391714,0,-0.5581,-0.7378,0.5505,773,7.4463,49.3774,10.8643,90,1.2856,1.5648,31.719,-46.6484,35,0.2781,9583,3.9721,-121.7902
lg,1625051483875410065,0,-0.5725,-0.7781,0.5808,774,-18.1885,20.3857,18.4326,90,1.2786,1.5668,32.3716,-48.0501,36,0.2851,7767,3.9721,-121.0355
lg,1625051483875428138,0,-0.5996,-0.803,0.4512,775,-42.7856,-24.7192,39.0625,90,1.2466,1.5698,32.9337,-49.0988,36,0.2861,8282,3.9721,-119.1868
lg,1625051483875464618,0,-0.634,-0.6392,0.5166,776,-36.9263,-54.0161,48.0957,90,1.2046,1.5698,33.1521,-48.7452,36,0.2851,8782,3.9721,-115.7635
lg,1625051483875482858,0,-0.5164,-0.8013,0.6111,777,-47.7295,-103.2715,58.8379,90,1.1596,1.5678,31.9358,-47.8276,36,0.2761,8209,3.9721,-110.3258
lg,1625051483875500598,0,-0.2627,-0.8311,0.8723,778,-39.2456,-124.6948,53.833,90,1.1376,1.5608,29.3648,-46.1597,36,0.2771,8237,3.9721,-104.2774
lg,1625051483875517912,0,-0.1597,-0.7903,0.395,779,-7.1411,-96.8018,18.9209,90,1.1326,1.5548,26.5276,-45.4328,36,0.2791,12544,3.9721,-100.9022
lg,1625051483875535504,0,-0.2754,-0.7871,0.4094,780,1.9531,-51.6357,11.4746,90,1.1396,1.5548,24.6501,-44.692,36,0.2791,8202,3.9721,-99.0102
lg,1625051483875552559,0,0.0083,-0.8032,0.666,781,23.1323,-37.0483,36.499,90,1.1476,1.5558,23.6374,-43.0761,36,0.2791,8269,3.9721,-96.8453
lg,1625051483875569743,0,0.0435,-0.7896,0.5642,782,8.3008,17.395,28.0762,90,1.1566,1.5578,23.9204,-43.0715,36,0.2791,8763,3.9721,-96.6668
lg,1625051483875587279,0,-0.1665,-0.8679,0.6094,783,12.6953,107.1777,10.0098,90,1.1686,1.5588,26.6994,-44.3271,36,0.2801,8266,3.9721,-99.8317
lg,1625051483875604667,0,-0.3259,-0.823,0.583,784,14.0381,124.7559,0.2441,90,1.1826,1.5598,29.8562,-46.0989,36,0.2811,8881,3.9721,-104.047
lg,1625051483875621852,0,-0.5317,-0.7424,0.5596,785,14.7095,121.9482,-8.4839,90,1.1946,1.5628,32.897,-48.1016,35,0.2841,8877,3.9721,-108.6487
lg,1625051483875638740,0,-0.6597,-0.73,0.498,786,13.5498,85.8154,-12.3291,90,1.2016,1.5638,34.912,-49.8014,35,0.2941,8378,3.9721,-112.3232
lg,1625051483875655276,0,-0.6799,-0.7559,0.5999,787,1.8921,48.3398,-4.6997,90,1.2006,1.5648,35.9922,-50.9304,35,0.2931,8466,3.9721,-114.3381
lg,1625051483875689664,0,-0.7092,-0.772,0.5986,788,-7.3242,27.0996,4.7607,90,1.1916,1.5648,36.8023,-51.7967,35,0.2941,8433,3.9721,-115.2687
lg,1625051483875707107,0,-0.75,-0.7368,0.5093,789,-14.5264,-24.4141,16.9067,90,1.1796,1.5628,36.8495,-51.6059,35,0.2951,8469,3.9721,-113.8566
lg,1625051483875724144,0,-0.7163,-0.7336,0.5125,790,-12.6343,-60.791,22.0947,90,1.1736,1.5608,36.0847,-50.4152,35,0.2951,8493,3.9721,-110.8769
lg,1625051483875741587,0,-0.5461,-0.8274,0.5642,791,-9.6436,-103.2104,28.0151,90,1.1716,1.5588,33.97,-48.3005,35,0.2971,9215,3.9721,-106.2796
lg,1625051483875758550,0,-0.3176,-0.8735,0.5674,792,-2.2583,-112.0605,29.7241,90,1.1776,1.5598,31.1665,-46.153,35,0.2971,10738,3.9721,-101.6341
lg,1625051483875775512,0,-0.1296,-0.8784,0.6392,793,5.188,-73.7305,26.001,90,1.1816,1.5608,28.9202,-44.6561,35,0.2981,8395,3.9721,-98.5522
lg,1625051483875792752,0,-0.0601,-0.8806,0.6479,794,5.9204,-54.5654,17.6392,90,1.1886,1.5628,26.879,-43.7399,35,0.2991,8191,3.9721,-96.4545
lg,1625051483875809659,0,-0.0667,-0.8687,0.5518,795,6.4087,-6.7749,4.5776,90,1.1956,1.5628,25.9418,-43.9198,35,0.2991,8622,3.9721,-96.3683
lg,1625051483875826528,0,-0.1628,-0.8445,0.4587,796,9.0942,33.9355,-3.0518,90,1.2036,1.5648,26.2206,-44.8043,35,0.2991,8222,3.9721,-97.8486
lg,1625051483875843065,0,-0.2129,-0.8391,0.4558,797,11.2915,51.6357,-7.4463,90,1.2116,1.5658,26.9858,-45.7293,36,0.2971,8213,3.9721,-99.9646
lg,1625051483875859508,0,-0.3213,-0.7866,0.4756,798,20.9961,57.4951,-10.8643,90,1.2176,1.5658,27.9698,-46.4471,36,0.2981,8611,3.9721,-102.4212
lg,1625051483875876211,0,-0.4424,-0.7395,0.3992,799,-1.8311,33.8745,-1.4648,90,1.2186,1.5668,28.8583,-47.6668,36,0.3011,9028,3.9721,-103.8761
lg,1625051483875892859,0,-0.5244,-0.7083,0.5142,800,-13.916,14.6484,18.5547,90,1.2156,1.5678,29.878,-48.4229,36,0.3021,9061,3.9721,-103.9245
lg,1625051484245507427,0,-0.408,-0.7698,0.4944,801,-1.8311,-71.228,5.6763,90,1.1996,1.5698,27.7478,-47.5327,36,0.3021,27312,3.9721,-101.4753
lg,1625051484245542908,0,-0.2498,-0.76,0.5127,802,-2.4414,-59.021,18.3105,90,1.1966,1.5698,26.6779,-47.0982,36,0.3021,8575,3.9721,-99.4961
lg,1625051484245563814,0,-0.1943,-0.8245,0.5708,803,-2.4414,-21.4844,22.3389,90,1.1946,1.5698,26.1388,-46.924,36,0.3021,7640,3.9721,-98.2708
lg,1625051484245583961,0,-0.2917,-0.7498,0.5837,804,-1.9531,10.2539,21.9727,90,1.1926,1.5698,26.6985,-47.0589,36,0.3031,8418,3.9721,-98.0307
lg,1625051484245603368,0,-0.3188,-0.7822,0.5994,805,-1.6479,17.334,20.0806,90,1.1926,1.5698,27.5113,-47.2682,36,0.3031,8048,3.9721,-97.8189
lg,1625051484245622182,0,-0.3511,-0.7795,0.5403,806,-5.8594,5.5542,26.8555,90,1.1916,1.5698,28.1684,-47.5266,36,0.3041,9189,3.9721,-97.3342
lg,1625051484245641052,0,-0.3108,-0.8054,0.5286,807,-2.5635,5.4932,29.2358,90,1.1946,1.5708,28.7787,-47.6691,36,0.3031,9050,3.9721,-96.8056
lg,1625051484245659292,0,-0.2668,-0.8306,0.5845,808,1.6479,11.5356,26.1841,90,1.1996,1.5658,29.3103,-47.7037,36,0.3041,8930,3.9721,-96.5402
lg,1625051484245676847,0,-0.3269,-0.8408,0.5801,809,4.2725,20.5688,22.583,90,1.2066,1.5698,30.074,-47.8555,35,0.3051,8544,3.9721,-96.7056
lg,1625051484245716234,0,-0.3057,-0.8694,0.6199,810,8.5449,19.4702,19.8975,90,1.2146,1.5708,30.6291,-47.8211,35,0.3041,8562,3.9721,-96.9024
lg,1625051484245735529,0,-0.27,-0.8518,0.6196,811,14.0991,21.4233,14.1602,90,1.2216,1.5698,31.0682,-47.6395,35,0.3011,8522,3.9721,-97.6055
lg,1625051484245753121,0,-0.2476,-0.825,0.4868,812,25.2686,27.0996,9.5215,90,1.2306,1.5688,31.445,-47.4767,35,0.2931,7812,3.9721,-98.5145
lg,1625051484245770584,0,-0.2258,-0.7874,0.501,813,32.3486,49.3164,8.3008,90,1.2416,1.5688,32.3288,-47.3941,35,0.2861,8640,3.9721,-100.2023
lg,1625051484245787657,0,-0.2944,-0.7795,0.5354,814,30.2734,65.918,8.1177,90,1.2476,1.5678,34.1986,-48.2051,35,0.2811,8241,3.9721,-103.1026
lg,1625051484245804508,0,-0.4272,-0.7649,0.5227,815,16.5405,98.938,5.6763,90,1.2496,1.5638,36.5689,-49.8778,35,0.2841,7910,3.9721,-106.773
lg,1625051484245821859,0,-0.687,-0.8901,0.6135,816,-16.9067,83.0688,15.625,90,1.2486,1.5668,38.9485,-52.4754,35,0.2891,8666,3.9721,-109.6947
lg,1625051484245839562,0,-0.7805,-0.741,0.563,817,-29.7852,8.1787,26.001,90,1.2256,1.5688,40.0029,-53.3573,36,0.2901,8401,3.9721,-109.2216
lg,1625051484245857043,0,-0.7944,-0.7317,0.5281,818,-35.4614,-28.1372,28.3813,90,1.1916,1.5708,40.2919,-53.4507,36,0.2871,7963,3.9721,-107.1608
lg,1625051484245885690,0,-0.6267,-0.8279,0.7788,819,-31.1279,-80.8716,41.9312,90,1.1556,1.5718,39.2129,-51.3883,36,0.2911,7992,3.9721,-102.287
lg,1625051484245903893,0,-0.4436,-0.8567,0.4065,820,1.1597,-121.521,9.6436,90,1.1356,1.5708,35.8979,-48.8648,36,0.2931,7995,3.9721,-97.6362
lg,1625051484245920911,0,-0.2717,-0.9668,0.7886,821,-22.522,-112.2437,5.9814,90,1.1326,1.5678,32.1932,-47.4745,36,0.2931,8017,3.9721,-93.453
lg,1625051484245939058,0,-0.2302,-0.7932,0.4187,822,13.7329,-98.2666,-11.6577,90,1.1326,1.5678,28.524,-46.0738,36,0.2941,8809,3.9721,-90.8441
lg,1625051484245957169,0,-0.158,-0.738,0.3999,823,15.8081,-38.9404,4.1504,90,1.1356,1.5678,26.9017,-45.4585,36,0.2931,8409,3.9721,-89.7722
lg,1625051484245975057,0,-0.1497,-0.8008,0.4741,824,16.4795,-11.1084,7.5073,90,1.1386,1.5678,26.9986,-45.6226,36,0.2941,8448,3.9721,-90.4028
lg,1625051484245992315,0,-0.3005,-0.802,0.4587,825,13.855,61.7676,6.897,90,1.1406,1.5668,28.5682,-46.5103,35,0.2941,13133,3.9721,-92.4789
lg,1625051484246009426,0,-0.4717,-0.6909,0.4431,826,15.9302,59.2041,5.3711,90,1.1406,1.5678,30.3928,-47.1826,35,0.2951,8477,3.9721,-94.5012
lg,1625051484246026444,0,-0.5144,-0.6873,0.532,827,14.0381,40.4053,11.2915,90,1.1416,1.5678,31.5001,-47.0344,35,0.2961,8467,3.9721,-94.7697
lg,1625051484246043313,0,-0.397,-0.8486,0.6094,828,7.8125,-0.1221,24.7803,90,1.1436,1.5688,31.3734,-46.1452,35,0.2951,10129,3.9721,-93.3555
lg,1625051484246060053,0,-0.2964,-0.8442,0.5986,829,13.0615,-32.5928,29.4189,90,1.1466,1.5698,30.5871,-44.7884,35,0.2941,8911,3.9721,-91.4709
lg,1625051484246088534,0,-0.1865,-0.7625,0.5688,830,17.6392,-24.231,27.71,90,1.1496,1.5708,29.9195,-43.5994,35,0.2931,9532,3.9721,-89.9667
lg,1625051484246106477,0,-0.2188,-0.7458,0.5305,831,14.2212,10.7422,23.8037,90,1.1536,1.5708,30.2528,-43.2787,35,0.2921,8959,3.9721,-89.7537
lg,1625051484246123680,0,-0.3442,-0.7588,0.5386,832,13.7329,40.8936,22.9492,90,1.1586,1.5718,31.6841,-43.4821,36,0.2911,9235,3.9721,-90.5345
lg,1625051484629509826,0,-0.4485,-0.7639,0.6089,833,22.7051,31.6772,27.4048,90,1.1866,1.5728,33.1144,-42.922,36,0.2861,27105,3.9721,-90.7246
lg,1625051484629618729,0,-0.5469,-0.7842,0.572,834,26.062,16.9678,32.5928,90,1.1966,1.5718,34.3556,-41.9875,36,0.2851,10166,3.9721,-90.3671
lg,1625051484629640283,0,-0.533,-0.7256,0.5786,835,27.5269,-10.8643,35.2173,90,1.2026,1.5718,34.7876,-40.3427,36,0.2821,9625,3.9721,-88.9512
lg,1625051484629660560,0,-0.4983,-0.7319,0.5701,836,26.2451,-24.4751,38.208,90,1.2086,1.5718,34.7658,-38.5299,36,0.2821,8064,3.9721,-87.0383
lg,1625051484629679745,0,-0.4277,-0.7375,0.533,837,23.4375,-34.6069,39.7339,90,1.2136,1.5718,34.3086,-36.8093,35,0.2811,7733,3.9743,-84.8666
lg,1625051484629697911,0,-0.4041,-0.718,0.5295,838,23.0103,-32.1655,39.0625,90,1.2166,1.5718,33.8464,-35.2367,35,0.2801,9338,3.9743,-82.8337
lg,1625051484629715243,0,-0.4099,-0.7119,0.4949,839,22.522,-28.0762,39.6118,90,1.2196,1.5718,33.5525,-33.8765,35,0.2821,8740,3.9743,-80.9682
lg,1625051484629733261,0,-0.4219,-0.7329,0.5171,840,22.8882,-27.4048,39.917,90,1.2206,1.5718,33.2556,-32.5564,35,0.2831,8113,3.9743,-79.134
lg,1625051484629750520,0,-0.4067,-0.7449,0.5195,841,24.1089,-31.6162,38.5132,90,1.2216,1.5718,32.725,-31.2508,36,0.2841,7786,3.9743,-77.2973
lg,1625051484629768223,0,-0.4011,-0.7368,0.4888,842,24.231,-39.978,37.5977,90,1.2206,1.5728,31.8967,-29.9835,36,0.2861,8205,3.9743,-75.3642
lg,1625051484629786851,0,-0.385,-0.7295,0.5156,843,26.6113,-42.4194,37.5977,90,1.2196,1.5698,30.9209,-28.6295,36,0.2881,7823,3.9743,-73.3946
lg,1625051484629804628,0,-0.3691,-0.73,0.5427,844,32.0435,-49.3774,39.1235,90,1.2186,1.5738,29.6628,-27.0171,36,0.2891,8714,3.9743,-71.2482
lg,1625051484629855071,0,-0.323,-0.6885,0.5557,845,39.4287,-56.9458,35.2783,90,1.2176,1.5748,27.9607,-25.1847,36,0.2891,8584,3.9743,-69.1516
lg,1625051484629874570,0,-0.2947,-0.6768,0.5798,846,45.7153,-54.9316,31.5552,90,1.2166,1.5728,26.3777,-23.3261,36,0.2901,13384,3.9743,-67.5184
lg,1625051484629892792,0,-0.2979,-0.6648,0.5781,847,51.0864,-41.4429,28.8696,90,1.2166,1.5738,25.0826,-21.5001,36,0.2901,8623,3.9743,-66.094
lg,1625051484629912050,0,-0.2986,-0.6335,0.6152,848,58.1055,-29.2358,28.3813,90,1.2166,1.5738,24.2175,-19.4791,36,0.2901,8281,3.9743,-64.8903
lg,1625051484629929790,0,-0.2622,-0.634,0.5896,849,62.439,-15.3198,30.0293,90,1.2166,1.5738,23.831,-17.4946,36,0.2901,8312,3.9743,-63.8877
lg,1625051484629947975,0,-0.2676,-0.6235,0.6023,850,62.6221,-2.6245,31.6162,90,1.2166,1.5748,23.9339,-15.5772,36,0.2901,7928,3.9743,-62.9919
lg,1625051484629966696,0,-0.3113,-0.6743,0.5789,851,65.1245,28.5645,31.311,90,1.2176,1.5748,25.3169,-13.8659,36,0.2911,8836,3.9743,-62.5156
lg,1625051484629985658,0,-0.373,-0.6855,0.6147,852,66.8335,50.7202,31.0059,90,1.2176,1.5748,27.5915,-12.1452,35,0.2911,7967,3.9743,-62.2459
lg,1625051484630004620,0,-0.4597,-0.6794,0.6587,853,67.749,54.0161,28.8086,90,1.2186,1.5748,29.8845,-10.3174,35,0.2911,8723,3.9743,-62.001
