name,time,activity,ax,ay,az,batch_val,gx,gy,gz,ibat,index,middle,pitch,roll,temp,thumb,ts,vbat,yaw
lg,1625105434655080863,0,0.5911,-0.1917,0.8879,1,0.1831,21.1182,17.5171,77,1.5137,1.5388,-33.8631,-20.9733,35,0.1041,19851,3.9963,38.1584
lg,1625105434655260788,0,0.5396,-0.1799,0.8867,2,-0.3052,24.4141,18.1885,77,1.5117,1.5378,-32.5816,-20.8112,35,0.1051,8353,3.9963,38.333
lg,1625105434655285788,0,0.5039,-0.1755,0.8726,3,-1.2817,22.3999,17.6392,77,1.5127,1.5378,-31.383,-20.6881,35,0.1051,7815,3.9963,38.5244
lg,1625105434655308233,0,0.5225,-0.1787,0.8694,4,-1.8921,19.8975,18.3716,77,1.5127,1.5378,-30.3517,-20.662,35,0.1041,7930,3.9963,38.8157
lg,1625105434655337844,0,0.5525,-0.1875,0.8604,5,-2.6855,18.2495,20.0195,77,1.5107,1.5388,-29.4615,-20.7226,35,0.1051,7890,3.9963,39.2134
lg,1625105434655367066,0,0.5735,-0.1929,0.8594,6,-1.77,20.2026,19.8975,77,1.5127,1.5378,-28.5723,-20.7358,35,0.1041,7901,3.9963,39.5815
lg,1625105434655393381,0,0.5771,-0.1702,0.8506,7,-0.5493,24.1089,20.6299,77,1.5117,1.5368,-27.5881,-20.631,35,0.1041,7922,3.9963,39.8963
lg,1625105434655417474,0,0.5598,-0.1848,0.8601,8,0.4883,32.0435,18.9819,77,1.5127,1.5378,-26.3228,-20.4207,35,0.1041,7870,3.9963,40.0359
lg,1625105434655444714,0,0.5103,-0.1548,0.8765,9,1.0986,35.3394,18.3105,77,1.5127,1.5378,-24.8642,-20.0124,35,0.1051,7872,3.9963,40.0269
lg,1625105434655467881,0,0.4536,-0.1411,0.9099,10,2.0142,28.8086,16.5405,77,1.5127,1.5388,-23.6242,-19.5973,35,0.1051,10113,3.9963,40.0929
lg,1625105434655493140,0,0.4456,-0.1213,0.907,11,0.4883,21.6675,15.3198,77,1.5127,1.5368,-22.7106,-19.2359,35,0.1051,7994,3.9963,40.218
lg,1625105434655514048,0,0.4624,-0.1389,0.8875,12,-3.7231,6.958,17.6392,77,1.5127,1.5368,-22.4023,-19.2258,35,0.1051,7904,3.9963,40.6847
lg,1625105434655539474,0,0.5127,-0.1484,0.897,13,-7.2021,1.3428,18.6157,77,1.5127,1.5378,-22.3882,-19.4249,35,0.1041,8033,3.9963,41.2832
lg,1625105434655559955,0,0.5273,-0.1567,0.9058,14,-7.7515,2.1362,19.7144,77,1.5117,1.5357,-22.3437,-19.6675,35,0.1041,8106,3.9963,41.9175
lg,1625105434655580918,0,0.5796,-0.1965,0.9485,15,-7.019,11.7188,17.6392,77,1.5127,1.5368,-22.0049,-19.8568,35,0.1051,8046,3.9963,42.3491
lg,1625105434655598918,0,0.5801,-0.2007,0.9688,16,-4.3945,24.292,13.6108,77,1.5137,1.5368,-21.2424,-19.8001,35,0.1051,8307,3.9963,42.4285
lg,1625105434655623048,0,0.5845,-0.1982,0.9597,17,-3.54,29.7852,13.2446,77,1.5127,1.5347,-20.3256,-19.6774,35,0.1041,8207,3.9963,42.4192
lg,1625105434655662659,0,0.5632,-0.176,0.9609,18,-2.0142,39.978,10.6812,77,1.5127,1.5357,-19.0655,-19.3673,35,0.1041,8136,3.9963,42.1554
lg,1625105434655692696,0,0.5151,-0.1492,0.9397,19,-2.0752,46.6919,10.7422,77,1.5137,1.5357,-17.5424,-18.998,35,0.1041,8117,3.9963,41.8061
lg,1625105434656195233,0,0.4937,-0.1509,0.9231,20,-3.2349,47.7295,11.7188,77,1.5127,1.5347,-16.0007,-18.7155,35,0.1041,8154,3.9963,41.5118
lg,1625105434656346548,0,0.4697,-0.1545,0.9026,21,-5.7983,48.2178,13.0005,77,1.5137,1.5357,-14.4558,-18.5806,35,0.1031,8265,3.9963,41.2875
lg,1625105434656397029,0,0.4414,-0.1555,0.8835,22,-7.6904,48.2178,17.0898,77,1.5127,1.5347,-12.8802,-18.5776,35,0.1041,8147,3.9963,41.2391
lg,1625105434656461122,0,0.4331,-0.1733,0.9146,23,-9.1553,47.1802,19.6533,77,1.5137,1.5347,-11.3232,-18.6813,35,0.1031,8253,3.9963,41.3163
lg,1625105434656509307,0,0.4043,-0.2334,0.9153,24,-10.8032,42.5415,20.9351,77,1.5107,1.5347,-9.9127,-18.9911,35,0.1041,8268,3.9963,41.5293
lg,1625105434656552159,0,0.4014,-0.248,0.9434,25,-10.0708,36.8042,20.0195,77,1.5127,1.5347,-8.7526,-19.275,35,0.1041,8235,3.9963,41.7775
lg,1625105434656589196,0,0.3982,-0.2451,0.9551,26,-8.8501,33.6304,18.9819,77,1.5137,1.5347,-7.7562,-19.4399,35,0.1041,8272,3.9963,42.0144
lg,1625105434656651585,0,0.4033,-0.2288,0.9541,27,-7.9346,23.6206,14.8315,77,1.5137,1.5347,-7.2422,-19.5637,35,0.1031,8308,3.9963,42.2284
lg,1625105434656677974,0,0.4478,-0.2283,0.9346,28,-8.728,15.3809,11.0474,77,1.5137,1.5337,-7.2065,-19.7225,35,0.1041,8422,3.9963,42.4113
lg,1625105434656747418,0,0.479,-0.2236,0.9368,29,-8.7891,15.7471,10.437,77,1.5137,1.5337,-7.1028,-19.8675,35,0.1031,8354,3.9963,42.5345
lg,1625105434656778418,0,-0.0103,-0.7271,0.5974,30,18.1885,53.3447,1.1597,110,1.3727,1.4217,-4.8226,-20.231,35,0.102,14577,3.9688,41.9849
lg,1625105434656807363,0,-0.1848,-0.7397,0.6394,31,9.3384,62.2559,13.7329,110,1.3777,1.4167,-1.7232,-20.9116,35,0.102,8629,3.9688,41.7091
lg,1625105434656833751,0,-0.3291,-0.7451,0.678,32,-3.479,25.8789,43.2739,110,1.3797,1.4147,0.6322,-22.0295,35,0.1051,8386,3.9688,42.9616
lg,1625105434976040677,0,-0.3137,-0.8184,0.7683,33,-52.063,-79.7119,105.7129,110,1.2966,1.4377,-0.0058,-24.9871,35,0.1051,27126,3.9688,48.0828
lg,1625105434976074473,0,0.0464,-0.7312,0.7815,34,-61.7065,-127.9297,104.9194,110,1.2486,1.4437,-2.7762,-28.2936,35,0.1041,8543,3.9688,54.1275
lg,1625105434976095677,0,0.6213,-0.4705,1.4421,35,-55.3589,-144.9585,62.6831,110,1.2356,1.4397,-7.3275,-30.5668,35,0.1031,7779,3.9688,59.1739
lg,1625105434976115566,0,0.2559,-0.9573,0.9126,36,-54.3213,-73.3643,9.7046,110,1.2276,1.4377,-11.1556,-32.4336,35,0.1031,7935,3.9688,61.3771
lg,1625105434976136029,0,-0.0613,-0.8184,0.4409,37,-8.3008,-73.9136,-43.7012,110,1.2256,1.4407,-11.4103,-33.1292,35,0.1031,7917,3.9688,60.5166
lg,1625105434976154973,0,-0.0273,-0.6416,0.5796,38,20.0806,8.9722,-15.564,110,1.2226,1.4437,-10.6455,-33.0533,35,0.1031,8034,3.9688,60.1877
lg,1625105434976173844,0,-0.0566,-0.677,0.5142,39,7.9346,31.3721,0.5493,110,1.2196,1.4457,-9.0442,-33.3881,35,0.1031,7851,3.9688,59.649
lg,1625105434976192233,0,-0.074,-0.7488,0.7637,40,15.1367,78.4912,21.0571,110,1.2176,1.4477,-5.464,-33.0843,35,0.1031,7843,3.9688,58.6895
lg,1625105434976210511,0,-0.0579,-0.769,0.8157,41,18.2495,79.2236,20.0806,110,1.2186,1.4517,-2.0387,-32.6881,35,0.1031,7898,3.9688,57.6762
lg,1625105434976228399,0,-0.0798,-0.8098,0.7974,42,22.1558,67.8101,9.0332,110,1.2366,1.4557,0.6702,-32.2825,35,0.1061,9075,3.9688,56.5389
lg,1625105434976245548,0,-0.1379,-0.8113,0.7583,43,22.7661,54.1382,-17.7612,110,1.2586,1.4597,2.372,-31.9832,35,0.1061,14398,3.9688,54.7771
lg,1625105434976262807,0,-0.0935,-0.7292,0.7661,44,26.6724,39.978,-29.9072,110,1.2806,1.4607,3.205,-31.4574,35,0.1031,7946,3.9688,52.8974
lg,1625105434976279659,0,-0.0457,-0.7515,0.751,45,29.4189,37.7197,-40.5884,110,1.2876,1.4577,3.6226,-30.9387,35,0.1031,7993,3.9688,50.693
lg,1625105434976296733,0,-0.0759,-0.8655,0.7268,46,23.8647,41.5649,-59.6924,110,1.3016,1.4507,3.8318,-30.909,35,0.102,7992,3.9688,47.7377
lg,1625105434976313881,0,-0.0442,-0.8743,0.5439,47,25.0244,48.584,-57.9834,110,1.3276,1.4407,4.2558,-31.1544,35,0.1,8005,3.9688,44.6713
lg,1625105434976331566,0,-0.0217,-0.8174,0.5325,48,30.8228,58.3496,-45.5322,110,1.3547,1.4267,5.0897,-30.966,35,0.098,9245,3.9688,41.8347
lg,1625105434976348325,0,0.0085,-0.6667,0.5955,49,28.8696,106.5063,-4.1504,110,1.3707,1.4127,8.4292,-30.7614,35,0.099,8107,3.9688,39.4246
lg,1625105434976366288,0,-0.2156,-0.7393,0.6968,50,14.7095,128.3569,19.8364,110,1.3797,1.4027,13.3672,-31.165,35,0.099,8092,3.9688,37.3297
lg,1625105434976384029,0,-0.4463,-0.7717,0.739,51,9.1553,115.5396,33.6914,110,1.3847,1.3957,17.8739,-31.6884,35,0.101,8112,3.9688,37.0293
lg,1625105434976401270,0,-0.5718,-0.7083,0.8113,52,-5.6152,59.8145,66.4673,110,1.3827,1.3937,20.6735,-31.9001,35,0.101,8156,3.9688,39.0311
lg,1625105434976418233,0,-0.5991,-0.6521,0.7268,53,-24.9634,-18.8599,82.0312,110,1.3667,1.3987,22.2036,-31.9972,35,0.1041,8120,3.9688,42.3241
lg,1625105434976436048,0,-0.4971,-0.7385,0.7661,54,-52.002,-98.999,106.3232,110,1.3417,1.4087,21.2491,-32.2445,35,0.1041,8397,3.9688,48.296
lg,1625105434976453492,0,-0.2686,-0.8232,0.8091,55,-62.5,-150.6958,123.1689,110,1.3126,1.4187,18.5216,-32.5943,35,0.102,8192,3.9688,55.9558
lg,1625105434976471159,0,-0.0957,-0.8413,0.8191,56,-65.3687,-163.4521,119.0796,110,1.2776,1.4257,15.1314,-33.4447,35,0.101,8224,3.9688,63.6752
lg,1625105434976487899,0,0.1538,-0.8359,0.8064,57,-68.0542,-151.4282,103.4546,129,1.2426,1.4297,11.6103,-35.0272,35,0.102,8270,3.9424,70.5675
lg,1625105434976505603,0,0.1677,-0.7212,0.3682,58,-27.3438,-117.981,9.6436,129,1.2346,1.4347,7.1804,-36.6502,35,0.1031,8270,3.9424,73.4875
lg,1625105434976522455,0,-0.0547,-1.1213,0.9167,59,-43.335,-48.1567,11.6577,129,1.2276,1.4347,4.9367,-37.5815,35,0.1031,8482,3.9424,75.5072
lg,1625105434976540788,0,0.1914,-0.7617,0.6025,60,-8.9111,-55.3589,-16.9067,129,1.2266,1.4337,2.1613,-38.4184,35,0.1031,8391,3.9424,76.3004
lg,1625105434976558233,0,-0.1479,-0.8008,0.5015,61,9.6436,45.7764,-25.8179,129,1.2266,1.4397,3.2101,-38.8665,35,0.1041,8348,3.9424,74.3182
lg,1625105434976575436,0,-0.2188,-0.6958,0.4829,62,22.583,60.9131,-16.9067,129,1.2286,1.4447,5.1235,-38.7273,35,0.1041,8316,3.9424,72.2233
lg,1625105434976607881,0,-0.2429,-0.6807,0.5493,63,27.71,68.9697,-11.7798,129,1.2396,1.4477,7.4007,-38.1905,35,0.1051,8504,3.9424,70.0949
lg,1625105434976626622,0,-0.3257,-0.7341,0.6934,64,27.9541,78.6743,-7.6904,129,1.2566,1.4507,10.0938,-37.7223,35,0.1061,8397,3.9424,67.8491
lg,1625105435336223270,0,-0.1504,-0.7764,0.6863,65,19.6533,-23.1323,-38.0249,129,1.2926,1.4407,7.8006,-37.6207,35,0.1051,29115,3.9424,67.3889
lg,1625105435336262751,0,-0.0098,-0.8481,0.6011,66,14.4653,-50.354,-41.8091,129,1.3206,1.4327,4.9183,-37.7149,35,0.1041,8627,3.9424,67.21
lg,1625105435336283862,0,0.1287,-0.7612,0.6125,67,20.0195,-17.7002,-15.9912,129,1.3407,1.4247,3.487,-37.4378,35,0.1041,7791,3.9424,67.0898
lg,1625105435336303844,0,0.1086,-0.7722,0.6787,68,16.8457,13.6719,3.7842,129,1.3567,1.4187,3.638,-37.2113,35,0.1041,7737,3.9424,66.8491
lg,1625105435336322714,0,-0.1965,-0.8318,0.6057,69,7.3242,55.2368,38.5132,129,1.3617,1.4167,6.6073,-37.5652,35,0.1091,8769,3.9424,66.6844
lg,1625105435336340881,0,-0.4446,-0.7756,0.7927,70,-10.9253,28.6865,77.6367,129,1.3497,1.4197,10.0055,-37.9886,35,0.1091,8990,3.9424,68.4186
lg,1625105435336359677,0,-0.4641,-0.6821,0.6775,71,-34.3628,-43.335,111.7554,129,1.3246,1.4307,12.0413,-38.7191,35,0.1071,8478,3.9424,73.0328
lg,1625105435336378695,0,-0.4451,-0.7832,0.7278,72,-48.0957,-71.3501,126.77,129,1.2856,1.4377,13.4583,-39.6434,35,0.1051,7879,3.9424,78.8376
lg,1625105435336396047,0,-0.2097,-0.8071,0.8689,73,-61.5845,-121.8262,135.7422,129,1.2336,1.4437,13.104,-40.4991,35,0.1051,7916,3.9424,86.293
lg,1625105435336414918,0,0.543,-0.5266,1.6731,74,-64.6973,-144.165,116.272,129,1.2096,1.4397,7.5763,-40.9212,35,0.1061,7893,3.9424,92.1123
lg,1625105435336433455,0,0.123,-1.1123,1.0374,75,-55.9082,-96.2524,36.9263,129,1.2006,1.4387,5.235,-42.9665,35,0.1051,8009,3.9424,95.7858
lg,1625105435336451584,0,0.2952,-0.9121,0.6218,76,-19.7754,-93.0786,-16.7847,129,1.2016,1.4387,1.3103,-44.1113,35,0.1031,8052,3.9424,97.8354
lg,1625105435336470047,0,0.0435,-1.0066,0.614,77,-15.1978,-16.7847,-33.4473,129,1.2036,1.4417,1.0232,-44.4871,35,0.1031,7990,3.9424,96.566
lg,1625105435336488307,0,0.0354,-0.7046,0.3413,78,23.2544,37.2925,-24.4751,129,1.2066,1.4447,1.2574,-44.3469,35,0.1051,8080,3.9424,94.8075
lg,1625105435336506733,0,-0.1936,-0.6572,0.5637,79,31.7383,122.2534,-23.7427,129,1.2216,1.4497,4.548,-43.471,35,0.1051,8010,3.9424,90.724
lg,1625105435336524936,0,-0.3315,-0.7004,0.6987,80,34.2407,140.9302,-20.6909,129,1.2446,1.4537,8.7429,-42.6482,35,0.1051,8051,3.9424,86.2417
lg,1625105435336542362,0,-0.4692,-0.7529,0.7781,81,31.8604,102.478,-28.6255,129,1.2726,1.4587,11.557,-42.0649,35,0.1051,8461,3.9424,82.5712
lg,1625105435336560010,0,-0.3279,-0.6995,0.8108,82,32.1045,28.9307,-46.1426,129,1.2996,1.4607,11.4065,-41.1606,35,0.1051,8101,3.9424,80.3941
lg,1625105435336577177,0,-0.1057,-0.7905,0.7886,83,32.1655,1.3428,-58.2275,129,1.3176,1.4577,8.7522,-40.6052,35,0.1041,8170,3.9424,78.2465
lg,1625105435336595084,0,-0.0754,-0.9001,0.6824,84,20.5078,-13.1836,-95.0928,129,1.3417,1.4477,5.6922,-40.5838,35,0.101,8106,3.9424,75.6155
lg,1625105435336612603,0,-0.0264,-0.9934,0.4414,85,26.7944,-0.9155,-104.6143,129,1.3627,1.4337,2.7914,-40.7184,35,0.097,8179,3.9424,72.3667
lg,1625105435336629658,0,0.0898,-0.6726,0.4094,86,36.7432,16.7236,-85.6934,129,1.3767,1.4217,2.3993,-39.7655,35,0.097,8148,3.9424,69.7578
lg,1625105435336647288,0,0.1074,-0.5684,0.4595,87,35.6445,74.2798,-13.5498,129,1.3837,1.4127,3.92,-38.9014,35,0.098,8172,3.9424,67.4259
lg,1625105435336664936,0,-0.187,-0.6995,0.5229,88,11.1694,121.1548,22.3999,129,1.3887,1.4117,8.5505,-39.2563,35,0.1,8221,3.9424,65.0075
lg,1625105435336682547,0,-0.7087,-0.8079,0.7883,89,-13.2446,44.4946,80.0171,129,1.3797,1.4177,12.855,-39.7426,35,0.102,15244,3.9424,66.3268
lg,1625105435336701381,0,-0.7314,-0.7219,0.6885,90,-21.1182,-26.4893,102.8442,129,1.3537,1.4277,14.2975,-39.759,35,0.101,8185,3.9424,72.3702
lg,1625105435336719140,0,-0.6667,-0.6694,0.7515,91,-48.2178,-108.8257,135.7422,129,1.3196,1.4377,15.1918,-39.9075,35,0.1,8250,3.9424,79.5431
lg,1625105435336736733,0,-0.4207,-0.7488,0.7783,92,-75.5615,-201.2939,151.001,129,1.2766,1.4437,13.219,-40.5855,35,0.098,8213,3.9424,89.6047
lg,1625105435336754158,0,0.6392,-0.6238,1.2275,93,-87.0361,-257.1411,146.4844,129,1.2416,1.4447,6.75,-41.6978,35,0.099,8311,3.9424,101.1755
lg,1625105435336771677,0,0.6812,-0.6125,0.6006,94,-62.0728,-284.1797,53.1616,129,1.2316,1.4397,-1.7052,-43.876,35,0.099,8544,3.9424,110.4466
lg,1625105435336789195,0,0.6799,-1.1982,1.1377,95,-55.4199,-123.291,45.4712,129,1.2256,1.4397,-4.6747,-46.4245,35,0.099,8751,3.9424,115.2517
lg,1625105435336820381,0,0.1843,-0.9827,0.5801,96,-9.6436,-3.54,-25.9399,129,1.2266,1.4417,-5.7083,-47.2513,35,0.099,8453,3.9424,114.6865
lg,1625105435696041177,0,-0.2549,-0.751,0.6243,97,31.7383,125.6104,4.4556,129,1.2596,1.4567,-1.2041,-45.8588,35,0.101,26996,3.9424,111.1725
lg,1625105435696081640,0,-0.3843,-0.7063,0.6729,98,35.9497,107.3608,5.0659,129,1.2816,1.4577,2.8243,-44.4745,35,0.102,8488,3.9424,108.2776
lg,1625105435696102621,0,-0.3191,-0.6099,0.8418,99,30.9448,52.7344,0.6714,129,1.2996,1.4567,4.9168,-43.0027,35,0.101,7775,3.9424,106.8574
lg,1625105435696123084,0,-0.0898,-0.8022,0.8352,100,11.4746,-15.0146,-18.5547,129,1.3106,1.4517,3.9546,-42.5784,35,0.102,7707,3.9424,106.7204
lg,1625105435696142973,0,0.0022,-0.9141,0.8005,101,6.6528,-27.2217,-27.4048,129,1.3206,1.4437,2.2558,-42.5523,35,0.101,7805,3.9424,106.6362
lg,1625105435696161899,0,0.1472,-0.9468,0.7285,102,10.1929,-8.8501,-36.2549,129,1.3377,1.4367,0.6518,-42.5428,35,0.101,7899,3.9424,105.7941
lg,1625105435696180010,0,0.1179,-0.8608,0.5308,103,15.9302,45.7764,1.709,129,1.3477,1.4357,1.7522,-42.5364,35,0.102,7899,3.9424,104.5955
lg,1625105435696197695,0,0.019,-0.8235,0.6174,104,11.5356,75.8667,23.1323,129,1.3497,1.4387,4.4896,-42.5589,35,0.1051,7835,3.9424,103.2042
lg,1625105435696215380,0,-0.3035,-0.7864,0.6958,105,-8.1787,89.7827,54.1992,129,1.3397,1.4467,9.0354,-43.2039,35,0.1041,7858,3.9424,102.3153
lg,1625105435696232899,0,-0.488,-0.6362,0.5723,106,-18.3716,55.542,81.7261,129,1.3196,1.4557,13.6826,-43.9284,35,0.1051,10476,3.9424,103.131
lg,1625105435696250677,0,-0.5039,-0.6753,0.7698,107,-25.1465,30.4565,89.4775,129,1.2876,1.4587,16.6733,-44.3873,35,0.1041,7904,3.9424,106.1582
lg,1625105435696269806,0,-0.3955,-0.7307,0.824,108,-43.8232,-43.0298,97.6562,129,1.2536,1.4607,18.3116,-44.7551,35,0.101,7889,3.9424,110.3723
lg,1625105435696287621,0,-0.0437,-0.6104,0.7173,109,-34.1797,-89.1113,56.8237,129,1.2386,1.4527,16.7754,-44.6222,35,0.101,8106,3.9424,114.7562
lg,1625105435696304769,0,-0.2632,-0.8892,0.7014,110,-34.4849,-74.1577,35.3394,129,1.2356,1.4527,15.7452,-44.956,35,0.099,7990,3.9424,117.783
lg,1625105435696321658,0,0.0627,-0.8264,0.7534,111,-19.2871,-60.9131,7.1411,129,1.2446,1.4577,13.4991,-45.3206,35,0.099,13040,3.9424,119.7534
lg,1625105435696339936,0,0.3191,-0.8933,0.6411,112,-0.2441,-30.4565,4.0283,129,1.2666,1.4617,11.6428,-45.4518,35,0.098,8040,3.9424,120.6784
lg,1625105435696357584,0,0.2261,-0.9744,0.7124,113,13.4277,25.5127,-12.8784,129,1.2956,1.4647,11.1312,-45.4568,35,0.098,8019,3.9424,119.4995
lg,1625105435696375010,0,0.0356,-0.8728,0.8672,114,44.8608,105.5908,-46.936,129,1.3246,1.4667,12.2693,-44.5399,35,0.097,8054,3.9424,115.0909
lg,1625105435696392584,0,-0.1277,-0.7839,0.636,115,48.8892,112.1216,-88.9282,129,1.3437,1.4647,12.7766,-44.0985,35,0.096,8102,3.9424,109.2228
lg,1625105435696410140,0,-0.3013,-0.7642,0.3315,116,37.5977,83.8623,-104.8584,129,1.3517,1.4607,12.5437,-44.6266,35,0.097,10121,3.9424,103.5653
lg,1625105435696427547,0,-0.3992,-0.7451,0.4158,117,24.7192,92.4072,-79.7729,129,1.3547,1.4597,13.3954,-45.3431,35,0.099,8690,3.9424,98.4405
lg,1625105435696444769,0,-0.5859,-0.8044,0.7166,118,-8.1787,109.8633,16.1743,129,1.3547,1.4627,17.4853,-46.5157,35,0.099,8133,3.9424,95.5968
lg,1625105435696461806,0,-0.8914,-0.6194,0.6572,119,-15.1367,54.7485,41.2598,129,1.3467,1.4697,21.2057,-47.1801,35,0.101,8183,3.9424,95.1206
lg,1625105435696479232,0,-0.9072,-0.52,0.7571,120,-19.7754,-2.9297,52.3071,129,1.3407,1.4737,23.5674,-46.95,35,0.101,8165,3.9424,96.8989
lg,1625105435696496343,0,-0.697,-0.5593,0.7666,121,-50.1099,-140.1367,74.707,129,1.3276,1.4757,22.4011,-45.9609,35,0.101,8306,3.9424,103.7116
lg,1625105435696514251,0,0.1343,-0.5303,0.8801,122,-73.3643,-281.9824,48.4009,129,1.3216,1.4737,14.8391,-45.1143,35,0.1041,8224,3.9424,113.8383
lg,1625105435696532084,0,0.3069,-0.7275,0.2173,123,-67.688,-310.9741,8.7891,129,1.3156,1.4697,5.2586,-47.1738,35,0.1041,8261,3.9424,122.9235
lg,1625105435696606269,0,0.5564,-1.2065,0.6541,124,-73.3032,-164.856,16.2354,129,1.3136,1.4687,0.3889,-50.3288,35,0.1041,8248,3.9424,128.2932
lg,1625105435696632955,0,0.1628,-1.0596,0.4421,125,-0.8545,24.1089,-5.5542,129,1.3116,1.4687,0.4909,-51.0139,35,0.1041,8718,3.9424,127.402
lg,1625105435696652140,0,0.1497,-0.6743,0.6184,126,44.6167,87.8906,18.7378,129,1.3166,1.4737,2.9198,-49.1491,35,0.1051,8271,3.9424,125.1733
lg,1625105435696673343,0,0.0515,-0.812,0.6116,127,33.5083,85.6934,12.8784,129,1.3276,1.4767,5.2626,-48.5172,35,0.1051,8383,3.9424,122.5545
lg,1625105435696708288,0,-0.0449,-0.9319,0.6362,128,23.4985,107.3608,0.4883,129,1.3417,1.4777,7.9938,-48.2247,35,0.1051,8399,3.9424,119.3045
lg,1625105436054602047,0,-0.1809,-0.7231,0.4897,129,27.8931,38.3301,-51.0254,129,1.3467,1.4597,7.8124,-47.684,35,0.102,27259,3.9424,116.7474
lg,1625105436054649288,0,-0.3384,-0.7527,0.5295,130,12.9395,42.9688,32.0435,129,1.3477,1.4557,10.3956,-47.4911,35,0.1041,8600,3.9424,116.299
lg,1625105436054671917,0,-0.481,-0.8208,0.9207,131,-5.7983,32.7148,57.251,129,1.3477,1.4577,13.6379,-47.6069,35,0.1061,7959,3.9424,117.9629
lg,1625105436054692899,0,-0.4827,-0.7234,0.7561,132,-19.165,-10.1929,94.7876,129,1.3437,1.4627,16.5927,-47.4417,35,0.1061,7774,3.9424,120.9575
lg,1625105436054713177,0,-0.4275,-0.5857,0.6506,133,-34.4849,-82.2144,95.2148,129,1.3276,1.4697,17.1177,-47.4965,35,0.1061,11872,3.9424,126.8702
lg,1625105436054732436,0,-0.2739,-0.7222,0.8169,134,-56.0913,-128.6011,102.9663,129,1.3116,1.4727,16.5775,-47.4883,35,0.1081,7827,3.9424,133.8097
lg,1625105436054751177,0,0.0012,-0.8879,0.4917,135,-49.1943,-171.4478,50.5981,129,1.3026,1.4737,12.8737,-48.2944,35,0.1081,7874,3.9424,140.3202
lg,1625105436054771343,0,0.1919,-1.126,0.9453,136,-56.5186,-134.5215,56.4575,129,1.3006,1.4747,9.7849,-49.5071,35,0.1091,7942,3.9424,145.9621
lg,1625105436054790732,0,0.4734,-0.929,0.7622,137,-15.9302,-71.228,8.3008,129,1.3066,1.4757,7.0267,-49.8209,35,0.1091,7899,3.9424,148.3728
lg,1625105436054809788,0,0.29,-0.9683,0.6921,138,15.9912,38.147,-14.0991,129,1.3246,1.4767,6.775,-49.5362,35,0.1081,8478,3.9424,146.8072
lg,1625105436054829417,0,0.1599,-0.9414,0.7317,139,24.5972,75.6226,-30.6396,129,1.3437,1.4757,7.9859,-48.6617,35,0.1081,8527,3.9424,142.0728
lg,1625105436054848547,0,-0.0303,-0.8191,0.7788,140,49.2554,130.9204,-64.7583,129,1.3587,1.4697,9.2827,-47.4512,35,0.1061,7918,3.9424,136.3938
lg,1625105436054867510,0,-0.2734,-0.8735,0.5449,141,46.0205,120.7886,-107.5439,129,1.3657,1.4517,9.6097,-47.09,35,0.1041,8043,3.9424,129.7801
lg,1625105436054885825,0,-0.4575,-0.6921,0.2539,142,44.5557,68.9087,-107.605,129,1.3777,1.4347,9.2158,-46.881,35,0.102,9343,3.9424,124.6452
lg,1625105436054979232,0,-0.3843,-0.5886,0.4153,143,24.7192,62.439,-3.418,129,1.3827,1.4287,11.5525,-46.5144,35,0.101,9749,3.9424,122.659
lg,1625105436055008565,0,-0.4543,-0.7512,0.554,144,2.4414,61.0962,34.4238,129,1.3817,1.4277,14.7833,-46.8601,35,0.1041,8053,3.9424,121.7457
lg,1625105436055030195,0,-0.7405,-0.8276,0.6934,145,-18.7378,4.1504,61.7676,129,1.3757,1.4277,17.4617,-47.2538,35,0.1051,8076,3.9424,123.3401
lg,1625105436055049584,0,-0.6133,-0.5515,0.6404,146,-24.292,-91.1865,98.7549,129,1.3657,1.4367,18.5718,-46.2432,35,0.1071,8081,3.9424,129.0546
lg,1625105436055068158,0,-0.5203,-0.5374,0.6379,147,-36.8652,-139.0381,107.2998,129,1.3467,1.4477,18.3038,-45.1556,35,0.1061,8164,3.9424,136.4855
lg,1625105436055089880,0,-0.1807,-0.8276,0.6838,148,-80.8716,-240.0513,110.4736,129,1.3166,1.4557,14.4064,-45.6761,35,0.1061,8124,3.9424,146.7588
lg,1625105436055109843,0,0.6982,-0.7656,0.5959,149,-71.7163,-275.6348,52.3682,129,1.3036,1.4567,6.6223,-46.9919,35,0.1071,8189,3.9424,156.2757
lg,1625105436055141639,0,0.4084,-1.1282,0.3032,150,-66.3452,-192.8711,25.6348,129,1.2916,1.4557,1.3551,-50.1744,35,0.1061,8128,3.9424,162.6578
lg,1625105436055164751,0,0.6541,-1.0088,0.5576,151,-13.7329,-71.7163,33.2642,129,1.2856,1.4557,-0.5917,-51.0595,35,0.1061,8246,3.9424,165.7176
lg,1625105436055184232,0,0.1487,-0.9268,0.6682,152,17.5171,85.8154,16.8457,129,1.2816,1.4577,1.8159,-50.4961,35,0.1051,8225,3.9424,163.4772
lg,1625105436055205121,0,0.0586,-0.8691,0.7432,153,37.1094,123.5962,30.1514,129,1.2836,1.4607,5.7147,-49.1601,35,0.1061,8267,3.9424,160.462
lg,1625105436055227825,0,-0.0286,-0.7424,0.5928,154,41.5039,126.8311,24.0479,129,1.2866,1.4627,9.6091,-48.0083,35,0.1081,8279,3.9424,157.2476
lg,1625105436055277602,0,-0.2139,-0.7834,0.6245,155,43.5791,136.7798,19.9585,129,1.3016,1.4657,13.9587,-47.124,35,0.1081,8261,3.9424,153.6454
lg,1625105436055300362,0,-0.2825,-0.7598,0.6985,156,43.8232,132.0801,13.916,129,1.3196,1.4677,17.3123,-46.2357,35,0.1071,8280,3.9424,150.4276
lg,1625105436055321232,0,-0.2903,-0.7031,0.7329,157,37.0483,88.0737,-3.6621,129,1.3347,1.4667,19.5862,-45.5274,35,0.1061,8915,3.9424,147.6801
lg,1625105436055341010,0,-0.1782,-0.7288,0.7229,158,30.0903,38.7573,-32.959,129,1.3367,1.4607,19.3465,-45.0219,35,0.1071,8355,3.9424,145.5322
lg,1625105436055361528,0,-0.1016,-0.8936,0.6387,159,18.4326,14.7095,-45.5322,129,1.3407,1.4507,17.9234,-45.2408,35,0.1051,8370,3.9424,143.6111
lg,1625105436055379195,0,-0.0679,-0.9265,0.5347,160,21.0571,20.5688,-40.2222,129,1.3507,1.4427,17.6883,-45.3172,35,0.1051,8521,3.9424,141.6096
lg,1625105436411936121,0,-0.5903,-0.7378,0.6758,161,-1.3428,85.6323,65.4297,129,1.3467,1.4507,22.0919,-45.3996,35,0.1061,28285,3.9424,142.0926
lg,1625105436411972084,0,-0.5642,-0.6663,0.6799,162,-26.9775,-9.2163,94.7266,129,1.3286,1.4577,24.855,-45.1538,35,0.1071,8545,3.9424,145.2982
lg,1625105436411992732,0,-0.5171,-0.7749,0.7585,163,-45.2881,-66.3452,102.6611,129,1.2956,1.4617,25.9037,-44.6946,35,0.1071,7784,3.9424,150.5855
lg,1625105436412012102,0,0.0532,-0.5032,0.8093,164,-53.1616,-100.5249,96.0693,129,1.2776,1.4627,22.3727,-43.3008,35,0.1081,7846,3.9424,156.5757
lg,1625105436412055010,0,-0.2981,-0.8916,0.3503,165,-44.7998,-125.9155,15.8691,129,1.2646,1.4607,19.0781,-44.5683,35,0.1091,7806,3.9424,160.4335
lg,1625105436412074936,0,0.1421,-0.7922,0.6313,166,-28.5645,-130.9814,13.855,129,1.2616,1.4617,14.734,-44.7383,35,0.1091,7990,3.9424,164.6091
lg,1625105436412094232,0,-0.1775,-0.9597,0.6084,167,-26.9775,-83.0078,-7.8125,129,1.2626,1.4617,13.5822,-45.6386,35,0.1101,8058,3.9424,165.1683
lg,1625105436412112232,0,-0.1875,-0.8306,0.4688,168,0.7324,-19.3481,1.0376,129,1.2666,1.4677,12.9926,-46.0496,35,0.1101,8035,3.9424,165.6331
lg,1625105436412130436,0,-0.0479,-0.7068,0.5159,169,10.0708,-4.2114,-0.4272,129,1.2806,1.4707,12.4771,-45.9287,35,0.1091,8387,3.9424,165.6749
lg,1625105436412148510,0,-0.0811,-0.8882,0.7266,170,12.146,11.5967,-1.77,129,1.3016,1.4747,12.4027,-45.6878,35,0.1091,7898,3.9424,164.8865
lg,1625105436412166565,0,-0.124,-0.9009,0.8066,171,19.6533,21.6675,-19.5312,129,1.3256,1.4737,12.1897,-45.2466,35,0.1111,7945,3.9424,163.6724
lg,1625105436412184102,0,0.0073,-0.7185,0.7937,172,35.7666,16.2964,-53.2837,85,1.3447,1.4687,10.6573,-44.0838,35,0.1091,8106,3.9864,161.6839
lg,1625105436412201287,0,-0.0334,-0.7837,0.7375,173,26.6724,14.8926,-77.0874,85,1.3517,1.4587,8.3042,-44.1128,35,0.1091,8016,3.9864,158.4976
lg,1625105436412218195,0,-0.1262,-0.9246,0.5635,174,24.292,15.7471,-95.1538,85,1.3557,1.4457,6.0504,-44.1035,35,0.1071,8028,3.9864,155.2261
lg,1625105436412237343,0,-0.1414,-0.7642,0.449,175,28.0762,37.4146,-68.4204,85,1.3587,1.4357,5.3486,-43.8746,35,0.1071,7994,3.9864,152.1431
lg,1625105436412255010,0,-0.2043,-0.6562,0.4617,176,21.7285,59.2041,-32.2876,85,1.3617,1.4347,8.354,-44.1686,35,0.1091,8014,3.9864,150.1514
lg,1625105436412272639,0,-0.4744,-0.8596,0.8271,177,-12.4512,75.9888,39.7339,85,1.3617,1.4407,12.1409,-44.9085,35,0.1101,8192,3.9864,149.1173
lg,1625105436412290917,0,-0.6558,-0.7278,0.7129,178,-16.9067,5.9814,62.6831,85,1.3577,1.4487,14.8775,-45.2112,35,0.1101,8104,3.9864,150.7563
lg,1625105436412308010,0,-0.6052,-0.6589,0.7302,179,-27.0996,-40.7715,71.5332,85,1.3367,1.4607,15.3894,-45.3119,35,0.1081,8104,3.9864,155.6878
lg,1625105436412325510,0,-0.293,-0.7517,0.6833,180,-68.9697,-183.7769,88.9893,85,1.3056,1.4667,12.8652,-46.1991,35,0.1121,9659,3.9864,163.6488
lg,1625105436412343047,0,0.3835,-0.6331,0.3335,181,-53.772,-253.479,12.3901,85,1.2926,1.4647,4.8852,-47.6885,35,0.1101,8099,3.9864,171.3661
lg,1625105436412361028,0,0.1521,-1.0632,0.3992,182,-74.707,-188.1714,-6.1035,85,1.2836,1.4597,0.4538,-50.1827,35,0.1101,8094,3.9864,-183.9329
lg,1625105436412379362,0,0.3767,-0.9434,0.3875,183,-23.0103,-108.4595,-13.3057,85,1.2786,1.4587,-3.473,-51.8107,35,0.1111,8112,3.9864,-180.8856
lg,1625105436412397139,0,-0.2122,-0.8457,0.4399,184,3.8452,41.3818,-13.7939,85,1.2766,1.4617,-2.2677,-51.9757,35,0.1111,9078,3.9864,-182.5068
lg,1625105436412414843,0,-0.0991,-0.6907,0.6763,185,21.9727,48.9502,23.1934,85,1.2796,1.4657,-0.0102,-50.8171,35,0.1121,8759,3.9864,-183.4696
lg,1625105436412432047,0,-0.0061,-0.7544,0.5991,186,13.2446,31.9824,26.1841,85,1.2896,1.4687,1.4647,-50.4387,35,0.1131,8167,3.9864,-183.7992
lg,1625105436412578213,0,0.0654,-0.9617,0.6702,187,16.7236,49.0723,23.4375,85,1.3036,1.4717,3.2476,-49.9824,35,0.1131,8367,3.9864,-184.719
lg,1625105436412662732,0,-0.0015,-0.8389,0.5913,188,28.6865,55.3589,-2.6245,85,1.3216,1.4737,4.4693,-49.1363,35,0.1131,8294,3.9864,-186.4911
lg,1625105436412706528,0,0.0403,-0.7063,0.7517,189,32.3486,57.0068,-8.9111,85,1.3377,1.4707,4.9602,-47.6704,35,0.1131,8331,3.9864,-188.47
lg,1625105436412726917,0,0.0056,-0.7336,0.7009,190,30.3345,37.1704,-33.9966,85,1.3397,1.4607,4.7607,-46.566,35,0.1131,8284,3.9864,169.5113
lg,1625105436412746565,0,-0.0352,-0.8865,0.5479,191,21.7285,26.9165,-41.1987,85,1.3397,1.4517,4.1964,-46.3008,35,0.1101,8360,3.9864,167.5526
lg,1625105436412773158,0,-0.0186,-0.8337,0.5232,192,26.9165,55.481,-16.7847,85,1.3467,1.4397,5.1231,-45.8416,35,0.1091,8398,3.9864,165.4456
lg,1625105436771441565,0,-0.4243,-0.8789,0.8044,193,2.5635,90.21,57.0679,85,1.3557,1.4287,9.8202,-45.9234,35,0.1131,25919,3.9864,164.4223
lg,1625105436771523102,0,-0.4009,-0.7029,0.5908,194,-22.1558,-21.6675,102.2949,85,1.3447,1.4407,12.7046,-46.2555,35,0.1121,14935,3.9864,167.9207
lg,1625105436771558084,0,-0.3418,-0.7844,0.6228,195,-38.5132,-60.1196,112.1826,85,1.3266,1.4487,14.5549,-46.8124,35,0.1101,7751,3.9864,-187.1576
lg,1625105436771589343,0,-0.2605,-0.8108,0.6436,196,-43.9453,-82.2754,116.0278,85,1.2876,1.4537,15.4617,-47.2564,35,0.1091,7832,3.9864,-181.4431
lg,1625105436771770195,0,0.293,-0.6362,0.9907,197,-48.0347,-117.3706,96.7407,85,1.2606,1.4547,14.0213,-46.9914,35,0.1101,9748,3.9864,-175.0163
lg,1625105436771802472,0,-0.0408,-1.0859,0.5437,198,-37.1704,-82.5806,30.3955,85,1.2476,1.4547,12.2515,-48.3592,35,0.1091,7826,3.9864,-171.819
lg,1625105436771831713,0,0.1235,-0.8181,0.6265,199,-1.5259,-49.9268,5.9814,85,1.2466,1.4557,10.3664,-48.2473,35,0.1081,8102,3.9864,-170.1693
lg,1625105436771861472,0,-0.0942,-0.8308,0.6682,200,3.1738,2.6245,-8.9722,85,1.2496,1.4587,10.1151,-48.412,35,0.1091,7879,3.9864,-170.5335
lg,1625105436771890213,0,-0.0872,-0.7385,0.5415,201,22.7051,32.0435,-4.1504,85,1.2596,1.4637,10.6554,-47.904,35,0.1101,12377,3.9864,-171.656
lg,1625105436771918509,0,-0.1011,-0.7539,0.5308,202,29.541,54.3213,-4.2114,85,1.2726,1.4667,11.9279,-47.2765,35,0.1091,7937,3.9864,-173.4504
lg,1625105436771950824,0,-0.2534,-0.7888,0.687,203,39.7949,100.4639,-4.6387,85,1.2916,1.4687,14.5865,-46.4645,35,0.1101,7925,3.9864,-176.61
lg,1625105436772049732,0,-0.3833,-0.7124,0.7888,204,41.1987,89.5996,-16.3574,85,1.3136,1.4687,16.7966,-45.4918,35,0.1121,7974,3.9864,-179.7155
lg,1625105436772082806,0,-0.3313,-0.658,0.8372,205,39.4897,64.0869,-22.644,85,1.3337,1.4667,17.9807,-44.3834,35,0.1121,8003,3.9864,-182.1998
lg,1625105436772111232,0,-0.2395,-0.7659,0.8059,206,21.1182,16.4185,-45.7764,85,1.3457,1.4597,16.9387,-44.053,35,0.1101,8876,3.9864,-184.0409
lg,1625105436772139380,0,-0.1755,-0.9153,0.616,207,16.5405,-0.4883,-59.3872,85,1.3517,1.4537,14.9685,-44.3512,35,0.1101,8545,3.9864,-185.933
lg,1625105436772166935,0,-0.1611,-0.8035,0.52,208,16.6626,2.7466,-54.8096,85,1.3557,1.4507,14.0454,-44.5184,35,0.1091,8033,3.9864,-187.4098
lg,1625105436772196269,0,-0.1802,-0.7834,0.4785,209,9.5825,23.8647,-9.2773,85,1.3567,1.4477,14.3546,-44.9213,35,0.1121,8078,3.9864,171.4901
lg,1625105436772224195,0,-0.4397,-0.8523,0.7368,210,-17.2729,29.2969,32.4097,85,1.3597,1.4547,16.3667,-45.7404,35,0.1131,8202,3.9864,-188.4727
lg,1625105436772253269,0,-0.573,-0.7334,0.6897,211,-29.7852,-13.7329,70.3735,85,1.3537,1.4617,18.5262,-46.2151,35,0.1131,8161,3.9864,-186.0209
lg,1625105436772282713,0,-0.5742,-0.6487,0.6794,212,-31.4331,-47.3633,81.1157,85,1.3327,1.4677,20.0632,-46.0995,35,0.1121,8127,3.9864,-182.1604
lg,1625105436772310398,0,-0.2747,-0.687,0.8357,213,-58.1665,-139.0381,88.0737,85,1.3066,1.4717,18.525,-45.8777,35,0.1141,8220,3.9864,-175.2345
lg,1625105436772338732,0,0.0352,-0.9167,0.2346,214,-58.1055,-195.4346,9.2773,85,1.2906,1.4687,12.7686,-47.6883,35,0.1121,8173,3.9864,-169.4157
lg,1625105436772367250,0,0.116,-1.2183,0.8296,215,-75.1953,-147.0947,18.8599,85,1.2806,1.4637,8.82,-50.0541,35,0.1121,8184,3.9864,-164.4547
lg,1625105436772395658,0,0.2788,-0.9084,0.4355,216,-24.231,-84.7778,-8.8501,85,1.2766,1.4637,5.4855,-51.2536,35,0.1111,9385,3.9864,-162.1082
lg,1625105436772424769,0,-0.1011,-0.8333,0.5215,217,8.9111,40.1001,2.8076,85,1.2756,1.4667,6.5854,-51.2763,35,0.1121,10085,3.9864,-163.3229
lg,1625105436772452121,0,-0.0598,-0.7458,0.5596,218,16.7236,47.8516,19.2261,85,1.2796,1.4697,8.2611,-50.8015,35,0.1131,8246,3.9864,-164.3488
lg,1625105436772660306,0,-0.0769,-0.8657,0.6069,219,15.625,51.5747,21.9116,85,1.2906,1.4727,10.3044,-50.4916,35,0.1151,8314,3.9864,-165.7532
lg,1625105436772707287,0,-0.1641,-0.866,0.6406,220,20.6299,65.0635,15.1978,85,1.3036,1.4747,12.3557,-50.1005,35,0.1141,8329,3.9864,-167.4247
lg,1625105436772735954,0,-0.1433,-0.7771,0.6663,221,20.3857,40.8936,2.6855,85,1.3226,1.4767,13.3099,-49.5157,35,0.1151,8355,3.9864,-168.631
lg,1625105436772764658,0,0.0068,-0.7732,0.7451,222,16.7847,15.1367,-5.7373,85,1.3387,1.4747,12.9908,-48.8364,35,0.1141,8366,3.9864,-169.2255
lg,1625105436772797435,0,0.0852,-0.8054,0.6929,223,16.9678,7.4463,-17.5171,85,1.3427,1.4677,12.0301,-48.509,35,0.1141,8420,3.9864,-169.9757
lg,1625105436772962713,0,0.0193,-0.9585,0.6316,224,15.686,26.062,-33.4473,85,1.3397,1.4597,11.2065,-48.542,35,0.1111,8415,3.9864,-171.7444
lg,1625105437128053491,0,-0.3799,-0.811,0.7363,225,-0.4272,76.2939,54.0771,85,1.3477,1.4577,15.4024,-48.6938,35,0.1151,27305,3.9864,-172.6232
lg,1625105437128099139,0,-0.4976,-0.6428,0.6084,226,-22.4609,-10.0098,76.2939,85,1.3447,1.4637,17.9747,-48.8077,35,0.1161,8536,3.9864,-170.1899
lg,1625105437128121157,0,-0.4902,-0.6899,0.6309,227,-30.1514,-40.5884,81.665,85,1.3286,1.4697,19.5577,-48.8794,35,0.1141,7752,3.9864,-166.6371
lg,1625105437128141880,0,-0.2712,-0.7932,0.7402,228,-46.5088,-92.4683,85.8154,85,1.3096,1.4717,19.5006,-48.8537,35,0.1151,7812,3.9864,-161.2577
lg,1625105437128160713,0,-0.0322,-0.832,0.3259,229,-30.9448,-122.6196,31.9214,85,1.2966,1.4717,16.6364,-49.3996,35,0.1141,7760,3.9864,-156.74
lg,1625105437128215583,0,0.0012,-1.1118,0.8896,230,-43.2739,-81.4819,43.5181,85,1.2906,1.4707,14.7876,-50.2625,35,0.1141,7867,3.9864,-153.0243
lg,1625105437128239972,0,0.1904,-0.813,0.5999,231,-8.667,-53.5889,3.54,85,1.2926,1.4727,12.5585,-50.3066,35,0.1161,8055,3.9864,-151.2643
lg,1625105437128261861,0,-0.043,-0.8787,0.6157,232,13.0005,13.1226,-12.5122,85,1.3096,1.4757,12.1022,-50.1239,35,0.1141,7855,3.9864,-152.0455
lg,1625105437128281065,0,-0.0911,-0.9055,0.6907,233,19.8975,30.3345,-21.1792,85,1.3276,1.4787,11.9309,-49.7349,35,0.1131,7896,3.9864,-153.5739
lg,1625105437128299713,0,-0.0376,-0.821,0.7983,234,36.7432,44.3115,-45.7764,85,1.3517,1.4787,11.3003,-48.6208,35,0.1121,10485,3.9864,-156.1337
lg,1625105437128322213,0,-0.0151,-0.7935,0.6121,235,44.6167,48.7061,-82.3364,85,1.3597,1.4747,9.7304,-47.6577,35,0.1131,7896,3.9864,-159.8722
lg,1625105437128343380,0,-0.1848,-0.8149,0.4241,236,42.5415,45.2271,-111.0229,85,1.3587,1.4677,7.7562,-47.1943,35,0.1101,7902,3.9864,-164.3479
lg,1625105437128361806,0,-0.248,-0.7434,0.3794,237,41.5649,62.6831,-96.3135,85,1.3607,1.4637,7.0019,-46.6998,35,0.1091,7972,3.9864,-168.9194
lg,1625105437128381528,0,-0.4851,-0.6885,0.5303,238,18.9819,88.3789,-12.7563,85,1.3617,1.4647,9.8987,-46.5648,35,0.1121,7936,3.9864,-171.8956
lg,1625105437128399694,0,-0.7959,-0.8357,0.8623,239,-5.127,82.8857,25.1465,85,1.3607,1.4677,13.6389,-47.1864,35,0.1141,7995,3.9864,-172.0358
lg,1625105437128419268,0,-0.8467,-0.7622,0.7573,240,-22.644,-3.1738,69.0918,85,1.3537,1.4727,16.5244,-47.4848,35,0.1141,7981,3.9864,-169.9874
lg,1625105437128436935,0,-0.7209,-0.5845,0.7046,241,-39.4897,-119.9341,85.3271,85,1.3417,1.4797,16.6341,-47.0545,35,0.1111,8029,3.9864,-163.8151
lg,1625105437128455176,0,-0.0867,-0.6226,0.7576,242,-55.7861,-190.4907,86.3037,85,1.3216,1.4797,11.781,-47.4212,35,0.1141,8070,3.9864,-153.6288
lg,1625105437128474120,0,0.5054,-0.5723,0.8723,243,-85.2051,-301.1475,59.6313,85,1.3116,1.4727,4.1995,-48.8308,35,0.1151,8126,3.9864,-142.8868
lg,1625105437128492157,0,0.5083,-1.3069,0.637,244,-89.0503,-180.0537,20.5078,85,1.3066,1.4697,-0.5874,-52.7285,35,0.1161,8085,3.9864,-136.8029
lg,1625105437128510806,0,0.4255,-1.1787,0.5222,245,-45.2881,-120.4224,18.1274,85,1.3036,1.4677,-1.9698,-53.7151,35,0.1141,8115,3.9864,-135.838
lg,1625105437128529731,0,0.2415,-1.0483,0.5249,246,6.4087,49.0723,4.1504,85,1.3016,1.4677,-1.0654,-53.7825,35,0.1151,8195,3.9864,-137.3149
lg,1625105437128548583,0,0.1431,-0.8235,0.553,247,28.9307,105.3467,18.9819,85,1.3066,1.4707,1.7631,-52.7246,35,0.1181,8175,3.9864,-140.246
lg,1625105437128570454,0,-0.0398,-0.8906,0.4463,248,29.8462,119.0796,15.5029,85,1.3176,1.4737,5.3529,-51.9831,35,0.1171,13257,3.9864,-143.6571
lg,1625105437128589824,0,-0.158,-0.8352,0.6018,249,42.1753,129.1504,9.6436,85,1.3327,1.4767,8.9849,-50.8542,35,0.1181,8212,3.9864,-147.4963
lg,1625105437128608287,0,-0.1797,-0.7122,0.6548,250,38.5132,88.501,-10.0098,85,1.3477,1.4777,10.9837,-49.6936,35,0.1181,8185,3.9864,-150.5007
lg,1625105437128626843,0,-0.1138,-0.6975,0.7048,251,38.269,63.9038,-23.1323,85,1.3517,1.4757,10.68,-48.7758,35,0.1151,8260,3.9864,-152.9658
lg,1625105437128645991,0,-0.1013,-0.876,0.6306,252,28.6255,32.4707,-49.5605,85,1.3497,1.4667,9.8407,-48.2557,35,0.1111,8270,3.9864,-155.3276
lg,1625105437128689472,0,-0.0872,-0.8906,0.4741,253,33.5083,33.5693,-44.6777,85,1.3557,1.4567,9.2207,-47.82,35,0.1091,9176,3.9864,-157.6434
lg,1625105437128713602,0,-0.1223,-0.7207,0.5522,254,30.0293,75.1343,7.2021,85,1.3607,1.4487,11.3883,-47.1663,35,0.1101,10224,3.9864,-159.7318
lg,1625105437128732657,0,-0.4873,-0.7651,0.6987,255,5.7373,89.0503,45.6543,85,1.3627,1.4447,15.6679,-47.2729,35,0.1131,8433,3.9864,-161.1543
lg,1625105437128752787,0,-0.772,-0.7751,0.7561,256,-17.0288,15.9912,83.252,85,1.3627,1.4457,19.3073,-47.3243,35,0.1131,8379,3.9864,-159.269
lg,1625105437490507046,0,-0.5083,-0.7451,0.6555,257,-63.6597,-157.4707,114.8682,85,1.2926,1.4647,17.1656,-47.481,35,0.1131,26982,3.9864,-149.6854
lg,1625105437490693139,0,0.3784,-0.7397,0.2974,258,-55.8472,-247.2534,29.48,85,1.2776,1.4667,9.9704,-48.4797,35,0.1121,10407,3.9864,-141.5394
lg,1625105437490721639,0,0.616,-1.1643,0.8677,259,-49.8657,-144.5923,29.7241,85,1.2736,1.4677,5.8782,-49.9066,35,0.1131,7799,3.9864,-136.3516
lg,1625105437490753861,0,0.5193,-0.9939,0.4558,260,-21.6675,-87.4023,-1.1597,85,1.2726,1.4687,2.9157,-50.9806,35,0.1131,7849,3.9864,-133.7113
lg,1625105437490780435,0,0.0525,-0.9246,0.5063,261,19.7754,73.2422,-14.7705,85,1.2756,1.4707,4.0679,-50.7486,35,0.1161,9063,3.9864,-136.386
lg,1625105437490891268,0,-0.1189,-0.7539,0.4858,262,36.5601,111.2061,-10.7422,85,1.2866,1.4737,6.6971,-49.8804,35,0.1151,9232,3.9864,-140.12
lg,1625105437490920583,0,-0.2551,-0.8013,0.5303,263,39.4287,118.8965,-6.0425,85,1.3046,1.4767,9.9045,-49.1015,35,0.1181,8444,3.9864,-143.9633
lg,1625105437490944824,0,-0.301,-0.823,0.5918,264,38.9404,111.084,-5.0049,85,1.3196,1.4777,12.4584,-48.2955,35,0.1171,7892,3.9864,-147.2092
lg,1625105437490966509,0,-0.3293,-0.688,0.6216,265,36.499,69.6411,-14.5874,85,1.3327,1.4767,14.1611,-47.3936,35,0.1191,7895,3.9864,-149.7283
lg,1625105437491024120,0,-0.2034,-0.6592,0.6787,266,24.353,17.0288,-18.9819,85,1.3447,1.4747,13.9859,-46.5365,35,0.1181,7966,3.9864,-150.7419
lg,1625105437491057416,0,-0.2251,-0.7979,0.7173,267,14.5874,5.3101,-16.4795,85,1.3507,1.4737,13.6013,-46.4791,35,0.1171,7994,3.9864,-151.4586
lg,1625105437491079120,0,-0.25,-0.8936,0.5476,268,3.8452,-3.1738,15.4419,85,1.3527,1.4747,13.9632,-46.6618,35,0.1201,7972,3.9864,-151.037
lg,1625105437491100731,0,-0.2952,-0.8442,0.7603,269,-13.1226,2.0142,48.8892,85,1.3517,1.4787,15.5357,-46.8487,35,0.1221,12528,3.9864,-149.7162
lg,1625105437491123861,0,-0.2798,-0.6753,0.6653,270,-15.8081,-16.9067,65.6738,85,1.3407,1.4827,17.0205,-46.7416,35,0.1211,8154,3.9864,-147.3145
lg,1625105437491174990,0,-0.1091,-0.6936,0.8955,271,-25.0244,-51.2085,58.7769,85,1.3337,1.4837,16.8781,-46.4127,35,0.1211,9557,3.9864,-143.9604
lg,1625105437491197231,0,-0.0815,-1.0457,0.7449,272,-28.5645,-62.5,40.0391,85,1.3306,1.4847,15.8222,-47.017,35,0.1211,8150,3.9864,-141.0108
lg,1625105437491215953,0,0.1235,-0.96,0.7092,273,-16.2964,-58.2886,38.4521,85,1.3327,1.4847,14.5309,-47.174,35,0.1221,8139,3.9864,-138.226
lg,1625105437491331009,0,0.1765,-0.897,0.699,274,2.0752,1.1597,10.1929,85,1.3437,1.4857,13.9602,-47.2165,35,0.1201,8623,3.9864,-138.0252
lg,1625105437491356731,0,0.1445,-0.9644,0.825,275,19.3481,38.6353,-15.0757,85,1.3547,1.4857,13.7704,-46.9059,35,0.1211,8584,3.9864,-139.639
lg,1625105437491433083,0,0.2217,-0.9207,0.7429,276,36.3159,53.2837,-67.5659,85,1.3617,1.4797,12.3235,-46.4046,35,0.1191,8272,3.9864,-143.1761
lg,1625105437491457083,0,0.1707,-1.0073,0.7217,277,40.2832,69.8853,-100.8911,85,1.3647,1.4687,10.5541,-46.0795,35,0.1141,8163,3.9864,-148.1484
lg,1625105437491481416,0,-0.0601,-1.0999,0.217,278,55.6641,113.0371,-148.8647,85,1.3687,1.4547,9.1354,-46.3802,35,0.1081,8243,3.9864,-155.8571
lg,1625105437491505398,0,-0.1948,-0.584,0.1162,279,71.7163,130.8594,-103.7598,85,1.3767,1.4447,10.162,-45.8105,35,0.1071,8297,3.9864,-162.7781
lg,1625105437491596231,0,-0.1587,-0.3962,0.2153,280,54.7485,173.2788,-29.7241,85,1.3787,1.4407,14.503,-45.4741,35,0.1081,8249,3.9864,-168.804
lg,1625105437491623213,0,-0.7119,-0.8342,0.7639,281,-4.7607,230.7739,30.4565,85,1.3767,1.4417,22.3682,-47.6944,35,0.1121,8223,3.9864,-175.0189
lg,1625105437491647231,0,-1.2773,-0.8494,0.5967,282,-9.7656,77.1484,58.1055,85,1.3737,1.4467,27.2156,-48.6133,35,0.1111,8287,3.9864,-175.9338
lg,1625105437491669102,0,-1.2498,-0.6465,0.7419,283,-11.9629,-18.5547,85.6934,85,1.3637,1.4557,28.7032,-45.9822,35,0.1081,8357,3.9864,-169.2306
lg,1625105437491693435,0,-1.0425,-0.3667,0.6858,284,-44.3115,-180.2979,120.8496,85,1.3447,1.4637,27.9167,-42.6705,35,0.1081,8359,3.9864,-159.3134
lg,1625105437491711953,0,-0.4932,-0.6052,0.519,285,-107.1167,-359.4971,137.5122,85,1.3196,1.4687,21.0926,-40.9576,35,0.1071,8383,3.9864,-144.4544
lg,1625105437491731639,0,0.8079,-0.8191,0.4216,286,-112.6099,-478.2715,71.3501,85,1.3126,1.4687,6.8757,-42.4123,35,0.1081,8399,3.9864,-129.5448
lg,1625105437491753416,0,0.8567,-1.2593,0.1851,287,-115.5396,-404.3579,23.1934,85,1.3056,1.4657,-5.1978,-48.0141,35,0.1091,8400,3.9864,-117.5937
lg,1625105437491774750,0,1.2644,-1.3713,0.6389,288,-35.5225,-156.189,17.395,85,1.3036,1.4667,-10.0097,-50.599,35,0.1081,8490,3.9864,-112.2839
lg,1625105437844123027,0,-0.1567,-0.7251,0.4907,289,56.2744,216.3696,-20.3857,98,1.3186,1.4767,-3.9653,-47.9179,35,0.1111,27781,3.982,-119.1899
lg,1625105437844203490,0,-0.5249,-0.718,0.5605,290,52.4292,185.0586,-5.4321,98,1.3266,1.4787,2.1661,-45.868,35,0.1111,8518,3.982,-124.707
lg,1625105437844225527,0,-0.625,-0.5857,0.605,291,40.1611,99.4873,1.4038,98,1.3377,1.4797,6.2776,-44.3992,35,0.1131,10643,3.982,-127.4775
lg,1625105437844245638,0,-0.5117,-0.5801,0.6582,292,28.3203,52.9175,8.4839,98,1.3477,1.4797,7.9226,-43.6069,35,0.1131,7730,3.982,-127.3514
lg,1625105437844328601,0,-0.4319,-0.6816,0.677,293,4.3335,-29.541,18.2495,98,1.3547,1.4777,8.2061,-43.291,35,0.1131,7815,3.982,-125.9979
lg,1625105437844351250,0,-0.1777,-0.8462,0.6885,294,-6.4087,-76.355,23.1323,98,1.3577,1.4747,6.6761,-43.4722,35,0.1121,7847,3.982,-123.2424
lg,1625105437844369768,0,-0.0422,-0.8831,0.6968,295,-4.9438,-80.0171,24.4751,98,1.3587,1.4697,4.591,-43.6374,35,0.1131,7829,3.982,-120.3408
lg,1625105437844388620,0,0.208,-0.9507,0.7754,296,-4.5776,-56.5796,17.0898,98,1.3627,1.4637,2.8829,-43.9545,35,0.1121,8702,3.982,-118.2959
lg,1625105437844407250,0,0.2627,-0.9883,0.7407,297,4.1504,3.9062,10.9863,98,1.3647,1.4627,2.7179,-44.1237,35,0.1131,7842,3.982,-118.1073
lg,1625105437844425398,0,0.2004,-0.9661,0.7437,298,9.9487,40.5273,6.958,98,1.3687,1.4627,4.7438,-44.2469,35,0.1151,7976,3.982,-119.9367
lg,1625105437844442416,0,-0.1465,-1.0249,0.8313,299,-0.6714,81.543,16.4185,98,1.3737,1.4677,7.5795,-44.7243,35,0.1181,7888,3.982,-121.7916
lg,1625105437844460750,0,-0.3694,-0.8049,0.5425,300,-7.3242,61.7676,39.978,98,1.3727,1.4747,10.9671,-45.5298,35,0.1171,7935,3.982,-122.4866
lg,1625105437844478213,0,-0.5088,-0.6929,0.6021,301,-10.498,47.3633,40.2222,98,1.3567,1.4797,14.2374,-45.9195,35,0.1161,7938,3.982,-122.7171
lg,1625105437844496083,0,-0.5667,-0.6016,0.6931,302,-19.8364,-23.8647,49.2554,98,1.3246,1.4837,15.672,-45.9771,35,0.1151,7992,3.982,-120.5441
lg,1625105437844513990,0,-0.1624,-0.6243,1.03,303,-39.1846,-106.0181,36.377,98,1.3116,1.4827,13.4864,-45.8803,35,0.1131,8032,3.982,-116.1837
lg,1625105437844533009,0,-0.1958,-0.6421,0.3027,304,-24.7803,-144.7144,-9.5825,98,1.3026,1.4767,9.5177,-46.6645,35,0.1131,8080,3.982,-112.3188
lg,1625105437844551213,0,-0.2087,-0.9021,0.7356,305,-35.7056,-87.4634,2.9297,98,1.2976,1.4767,7.2686,-47.8501,35,0.1121,8075,3.982,-109.6619
lg,1625105437844569768,0,-0.3779,-0.854,0.5684,306,-16.5405,-46.5698,-1.3428,98,1.2966,1.4777,6.5062,-48.6538,35,0.1121,8090,3.982,-108.3363
lg,1625105437844619231,0,-0.2703,-0.7659,0.5559,307,-3.8452,-35.6445,26.2451,98,1.2956,1.4797,6.1841,-48.596,35,0.1121,8098,3.982,-106.5602
lg,1625105437844641231,0,0.1758,-0.8271,0.7463,308,-7.5684,-55.603,44.4946,98,1.2986,1.4827,5.2826,-48.8542,35,0.1141,8946,3.982,-103.727
lg,1625105437844660213,0,0.3025,-1.0457,0.6301,309,-6.8359,-16.6016,30.3955,98,1.3036,1.4847,5.025,-49.3857,35,0.1141,8143,3.982,-102.4585
lg,1625105437844679194,0,0.0903,-0.9294,0.6433,310,17.6392,57.6172,8.1787,98,1.3176,1.4857,6.3895,-49.0586,35,0.1161,8182,3.982,-104.0239
lg,1625105437844706027,0,-0.0303,-0.8076,0.6262,311,24.8413,71.2891,-0.4883,98,1.3327,1.4867,8.1675,-48.4767,35,0.1161,8200,3.982,-106.2187
lg,1625105437844726231,0,-0.0227,-0.7915,0.7517,312,23.3154,60.1807,-9.7656,98,1.3487,1.4877,9.1963,-47.7686,35,0.1161,8230,3.982,-108.2881
lg,1625105437844772064,0,0.0212,-0.8931,0.5845,313,18.1885,39.5508,-32.8979,98,1.3577,1.4857,8.8755,-47.72,35,0.1151,8264,3.982,-110.4274
lg,1625105437844796231,0,-0.0044,-0.9573,0.5471,314,19.8975,43.0908,-38.6963,98,1.3567,1.4827,8.8553,-47.642,35,0.1141,8242,3.982,-113.1302
lg,1625105437844815268,0,-0.0374,-0.8447,0.4453,315,29.9072,64.5142,-32.5928,98,1.3527,1.4807,9.3731,-47.4626,35,0.1151,8287,3.982,-116.0404
lg,1625105437844833453,0,-0.3274,-0.8818,0.6191,316,1.5259,102.5391,13.3667,98,1.3537,1.4837,12.8018,-48.2044,35,0.1191,8308,3.982,-118.826
lg,1625105437844851361,0,-0.5212,-0.74,0.5266,317,-3.7231,69.2139,62.8662,98,1.3567,1.4877,17.1686,-48.6763,35,0.1191,8349,3.982,-119.3026
lg,1625105437844872435,0,-0.6533,-0.6526,0.6172,318,-9.1553,46.6919,65.6128,98,1.3497,1.4907,21.0913,-48.8466,35,0.1181,8362,3.982,-118.9422
lg,1625105437844890250,0,-0.7605,-0.5537,0.6033,319,-25.8179,-33.8135,91.0034,98,1.3327,1.4927,23.7677,-48.2501,35,0.1181,8369,3.982,-115.1615
lg,1625105437844908083,0,-0.2942,-0.551,0.2288,320,-27.832,-173.0347,45.2881,98,1.3226,1.4847,20.638,-47.4779,35,0.1181,8386,3.982,-108.5885
lg,1625105438202068953,0,0.2141,-1.1108,0.5894,321,-29.541,-102.1118,5.7373,98,1.3206,1.4847,16.9605,-48.1542,35,0.1181,25297,3.982,-105.426
lg,1625105438202103583,0,0.1638,-0.8662,0.5898,322,26.9775,53.2227,14.4653,98,1.3296,1.4887,17.8186,-47.7536,35,0.1181,15230,3.982,-106.7763
lg,1625105438202124231,0,0.0042,-0.8203,0.6462,323,38.3911,95.5811,6.5308,98,1.3417,1.4907,19.8703,-47.2828,35,0.1191,7792,3.982,-109.6298
lg,1625105438202144083,0,-0.1213,-0.8313,0.7083,324,41.3818,104.9805,-20.813,98,1.3547,1.4907,21.5597,-47.0974,35,0.1171,7832,3.982,-113.5655
lg,1625105438202163953,0,-0.1243,-0.8147,0.7749,325,44.8608,104.0039,-37.0483,98,1.3637,1.4857,21.9717,-46.6901,35,0.1181,8008,3.982,-118.1592
lg,1625105438202182194,0,-0.1631,-0.7876,0.6033,326,49.9268,79.4067,-73.6694,98,1.3647,1.4747,21.499,-46.6623,35,0.1151,7840,3.982,-122.9128
lg,1625105438202200823,0,-0.2056,-0.7695,0.3721,327,44.0674,51.8188,-66.7725,98,1.3697,1.4637,20.6822,-46.8959,35,0.1131,8952,3.982,-126.7504
lg,1625105438202219231,0,-0.2129,-0.7058,0.5525,328,26.4893,89.8438,6.4697,98,1.3717,1.4577,23.0158,-47.0205,35,0.1151,7887,3.982,-129.4686
lg,1625105438202237064,0,-0.4282,-0.864,0.7578,329,-1.5869,110.7788,39.1235,98,1.3717,1.4567,27.0274,-48.178,35,0.1161,8128,3.982,-131.9498
lg,1625105438202254212,0,-0.9392,-0.8752,0.7878,330,-19.7754,75.4395,75.0732,98,1.3707,1.4617,31.7005,-49.1083,35,0.1151,7899,3.982,-132.281
lg,1625105438202271509,0,-0.8323,-0.4617,0.7192,331,-22.2168,11.2915,91.2476,98,1.3607,1.4707,33.1203,-46.6356,35,0.1121,7953,3.982,-126.5115
lg,1625105438202288305,0,-0.7251,-0.4438,0.7434,332,-42.6636,-137.146,90.7593,98,1.3427,1.4747,32.1381,-43.6181,35,0.1111,7973,3.982,-118.5195
lg,1625105438202305675,0,-0.2439,-0.7646,0.7529,333,-88.1958,-245.9717,91.3696,98,1.3266,1.4797,26.6948,-41.9355,35,0.1141,7988,3.982,-107.8324
lg,1625105438202322860,0,0.3228,-1.0417,0.2771,334,-80.3833,-288.3301,64.8193,98,1.3166,1.4827,17.6472,-42.9319,35,0.1151,7995,3.982,-99.5833
lg,1625105438202340916,0,0.533,-1.2192,0.7449,335,-81.9702,-210.3271,24.1089,98,1.3096,1.4797,10.9246,-45.1053,35,0.1151,8177,3.982,-92.997
lg,1625105438202358694,0,0.3518,-1.1108,0.4221,336,-19.104,-39.0625,1.4648,98,1.3036,1.4817,8.8695,-46.5475,35,0.1141,8086,3.982,-91.9754
lg,1625105438202376490,0,-0.1333,-0.8171,0.5881,337,5.0049,57.8003,0.8545,98,1.3016,1.4817,11.7805,-46.3353,35,0.1161,8132,3.982,-94.7635
lg,1625105438202393768,0,-0.2324,-0.7622,0.5808,338,22.1558,74.8901,11.2915,98,1.3096,1.4837,14.2389,-46.1186,35,0.1161,8104,3.982,-96.7177
lg,1625105438202411120,0,-0.186,-0.9243,0.5503,339,16.7847,46.3867,10.9253,98,1.3216,1.4867,15.6659,-46.2408,35,0.1171,8097,3.982,-97.9223
lg,1625105438202428731,0,-0.1519,-0.9231,0.5322,340,20.4468,38.4521,6.6528,98,1.3327,1.4887,16.5174,-46.2829,35,0.1191,8094,3.982,-99.0524
lg,1625105438202445860,0,-0.0173,-0.7676,0.498,341,29.1748,24.292,0.7935,98,1.3427,1.4887,16.6145,-45.7523,35,0.1191,8096,3.982,-99.8886
lg,1625105438202486953,0,0.0342,-0.7849,0.5737,342,21.9727,13.6108,-8.606,98,1.3547,1.4887,16.0266,-45.3824,35,0.1181,8129,3.982,-100.6421
lg,1625105438202506768,0,-0.0408,-0.8972,0.5618,343,20.752,21.2402,-6.6528,98,1.3627,1.4887,16.3705,-45.1855,35,0.1191,8315,3.982,-101.8432
lg,1625105438202524453,0,-0.0527,-0.8308,0.5938,344,30.7007,47.9736,0.4883,98,1.3647,1.4867,17.2377,-44.5942,35,0.1201,8182,3.982,-103.3158
lg,1625105438202541212,0,-0.1194,-0.7192,0.6262,345,32.0435,67.1387,2.8076,98,1.3647,1.4847,18.8255,-44.0708,35,0.1181,9157,3.982,-105.2637
lg,1625105438202558416,0,-0.2339,-0.771,0.6948,346,24.9023,72.8149,4.8218,98,1.3617,1.4807,20.7965,-43.9061,35,0.1191,8610,3.982,-107.322
lg,1625105438202575249,0,-0.2739,-0.8164,0.7307,347,16.5405,52.7344,10.7422,98,1.3577,1.4757,22.3347,-43.8674,35,0.1201,8954,3.982,-108.6265
lg,1625105438202693897,0,-0.3491,-0.8984,0.8145,348,8.2397,39.1235,18.2495,98,1.3587,1.4737,23.5818,-44.012,35,0.1221,8258,3.982,-108.2477
lg,1625105438202715842,0,-0.3123,-0.9048,0.7273,349,-12.8174,-1.9531,52.3682,98,1.3647,1.4807,24.6457,-44.1136,35,0.1211,8578,3.982,-106.6591
lg,1625105438202734823,0,-0.3752,-0.76,0.4902,350,-31.9214,-22.8882,76.1108,98,1.3527,1.4867,26.0518,-44.5632,35,0.1171,8291,3.982,-103.76
lg,1625105438202775064,0,-0.5034,-0.6226,0.6074,351,-28.9917,-39.917,79.2847,98,1.3226,1.4897,27.2812,-44.0486,35,0.1171,9078,3.982,-99.9867
lg,1625105438202794768,0,-0.1975,-0.5176,0.4094,352,-20.6299,-79.2847,68.1763,98,1.3076,1.4867,23.6332,-42.9975,35,0.1151,8367,3.982,-95.5455
lg,1625105438562950027,0,-0.0244,-0.9773,0.6807,353,-23.7427,-92.2241,-35.0342,98,1.2936,1.4767,20.8676,-43.743,35,0.1111,27640,3.982,-95.3535
lg,1625105438562994971,0,-0.0652,-0.8203,0.333,354,25.5737,13.3667,-9.6436,98,1.2936,1.4797,20.3984,-43.9484,35,0.1131,8564,3.982,-96.3997
lg,1625105438563017582,0,-0.1399,-0.6897,0.4248,355,34.668,75.9888,10.8643,98,1.2976,1.4817,22.478,-43.8586,35,0.1151,7809,3.982,-98.5426
lg,1625105438563041675,0,-0.23,-0.7332,0.5786,356,33.6914,94.9707,20.813,98,1.3046,1.4847,25.3216,-43.6117,35,0.1151,7808,3.982,-100.4658
lg,1625105438563062397,0,-0.303,-0.7634,0.6558,357,29.1748,59.3872,21.1182,98,1.3166,1.4877,27.2763,-43.1833,35,0.1141,7826,3.982,-101.7106
lg,1625105438563082897,0,-0.1804,-0.7512,0.7136,358,26.2451,13.6719,12.7563,98,1.3306,1.4907,27.3384,-42.2706,35,0.1161,7756,3.982,-101.7774
lg,1625105438563101860,0,0.0161,-0.8062,0.7231,359,23.3154,-8.728,-4.7607,98,1.3517,1.4907,25.8813,-41.5466,35,0.1161,11606,3.982,-101.7985
lg,1625105438563121360,0,0.1008,-0.8813,0.7588,360,29.541,15.564,-28.7476,98,1.3587,1.4877,24.4267,-41.2951,35,0.1151,7875,3.982,-103.3548
lg,1625105438563140545,0,0.0488,-0.959,0.7473,361,28.3813,35.0952,-41.0156,98,1.3547,1.4787,23.3794,-41.5742,35,0.1131,7865,3.982,-105.9059
lg,1625105438563191582,0,0.0081,-0.8999,0.6716,362,38.8184,77.3315,-44.4946,98,1.3497,1.4657,23.5844,-41.9904,35,0.1121,8543,3.982,-109.7991
lg,1625105438563213601,0,-0.1008,-0.7625,0.6155,363,36.9873,118.9575,-28.9917,98,1.3477,1.4527,25.6122,-42.7577,35,0.1121,7930,3.982,-114.4266
lg,1625105438563233601,0,-0.1677,-0.6956,0.5845,364,33.2642,132.2021,-12.6343,98,1.3497,1.4467,29.3676,-43.9198,35,0.1121,8865,3.982,-118.6605
lg,1625105438563254619,0,-0.4014,-0.7131,0.739,365,7.2021,130.188,25.0244,98,1.3537,1.4507,33.4213,-45.4234,35,0.1171,8554,3.982,-122.1223
lg,1625105438563272860,0,-0.6367,-0.8625,0.7588,366,-19.165,82.6416,73.0591,98,1.3577,1.4577,37.6127,-46.5594,35,0.1151,7956,3.982,-122.6326
lg,1625105438563291786,0,-0.8442,-0.7512,0.6416,367,-30.5176,45.8984,86.2427,98,1.3507,1.4677,40.646,-46.5539,35,0.1131,7973,3.982,-120.385
lg,1625105438563310786,0,-0.9517,-0.6567,0.6514,368,-34.4849,-18.7988,83.8623,98,1.3286,1.4717,42.7249,-45.2966,35,0.1091,8006,3.982,-116.4915
lg,1625105438563329397,0,-0.5991,-0.5259,0.7898,369,-58.8379,-161.7432,103.0884,98,1.3046,1.4767,40.4232,-40.5204,35,0.1121,8040,3.982,-106.2026
lg,1625105438563348101,0,-0.2546,-0.7539,0.1052,370,-60.1807,-228.8818,74.2798,98,1.2936,1.4747,31.9695,-39.4773,35,0.1111,8074,3.982,-98.4146
lg,1625105438563367305,0,-0.0864,-1.1379,0.8901,371,-97.9004,-241.6382,11.7188,98,1.2916,1.4737,23.8561,-40.44,35,0.1091,8092,3.982,-91.2708
lg,1625105438563385619,0,0.2224,-0.9744,0.3667,372,-37.8418,-197.2656,-29.0527,98,1.2916,1.4757,15.9526,-41.5172,35,0.1101,8395,3.982,-87.1487
lg,1625105438563404323,0,0.0632,-0.8704,0.4329,373,-4.0894,-56.6406,-23.3154,98,1.2916,1.4787,12.9293,-42.3305,35,0.1101,8109,3.982,-86.5335
lg,1625105438563422953,0,0.0647,-0.7644,0.4597,374,6.1646,-17.5781,-8.9111,98,1.2946,1.4797,11.5245,-42.6927,35,0.1121,8146,3.982,-86.4614
lg,1625105438563441175,0,-0.0195,-0.8237,0.645,375,12.5122,26.9165,-6.897,98,1.3046,1.4837,11.7152,-42.7478,35,0.1131,8197,3.982,-87.4892
lg,1625105438563459990,0,-0.0535,-0.9033,0.7039,376,19.2261,35.6445,-13.7329,98,1.3166,1.4867,12.0317,-42.6347,35,0.1131,8177,3.982,-88.9674
lg,1625105438563478286,0,-0.0774,-0.8794,0.6538,377,23.9868,32.0435,-25.6958,98,1.3306,1.4877,11.9663,-42.4446,35,0.1151,8186,3.982,-90.7181
lg,1625105438563496508,0,-0.0032,-0.7524,0.7178,378,29.6021,26.7944,-36.1938,98,1.3467,1.4887,11.3217,-41.7815,35,0.1151,8218,3.982,-92.5827
lg,1625105438563514008,0,-0.0513,-0.7478,0.6172,379,22.0947,21.9727,-52.002,98,1.3577,1.4867,10.2668,-41.646,35,0.1161,8280,3.982,-94.825
lg,1625105438563531508,0,-0.0723,-0.8247,0.6392,380,16.8457,29.6021,-48.8892,98,1.3607,1.4837,9.6028,-41.7379,35,0.1151,8291,3.982,-97.1728
lg,1625105438563549657,0,-0.0881,-0.8455,0.6785,381,18.2495,49.5605,-33.7524,98,1.3577,1.4807,9.9817,-41.7816,35,0.1161,8270,3.982,-99.5984
lg,1625105438563568731,0,-0.1963,-0.8948,0.6907,382,-3.6011,60.3638,-9.1553,98,1.3587,1.4817,11.5118,-42.6921,35,0.1181,8885,3.982,-101.601
lg,1625105438563586675,0,-0.2932,-0.7969,0.7256,383,-7.019,58.4717,19.5923,98,1.3627,1.4847,13.8908,-43.3881,35,0.1201,8321,3.982,-102.6933
lg,1625105438563605360,0,-0.3953,-0.7358,0.6978,384,-10.1318,19.7144,25.0854,98,1.3667,1.4877,15.4396,-43.8537,35,0.1211,8518,3.982,-102.5348
lg,1625105438922647156,0,-0.0869,-0.8564,0.606,385,-25.2075,-84.4116,35.5225,98,1.3727,1.4947,13.6042,-44.4151,35,0.1221,25515,3.982,-99.1641
lg,1625105438922783027,0,0.0659,-0.8833,0.5066,386,-16.5405,-55.8472,30.5176,98,1.3677,1.4967,12.2278,-45.135,35,0.1231,15051,3.982,-96.8037
lg,1625105438922901323,0,-0.0015,-0.8513,0.4231,387,-26.7334,-38.7573,31.8604,98,1.3497,1.4977,11.6096,-46.5019,35,0.1201,7809,3.982,-94.9095
lg,1625105438922927175,0,-0.0205,-0.8416,0.6218,388,-36.499,-23.8647,46.814,98,1.3417,1.4967,11.3649,-46.6605,35,0.1191,7918,3.982,-92.829
lg,1625105438922948360,0,0.0005,-0.7402,0.1108,389,-2.1973,-52.063,-4.2725,98,1.3337,1.4917,9.4609,-47.7969,35,0.1161,7899,3.982,-91.6461
lg,1625105438922972230,0,-0.2537,-0.937,0.9211,390,-20.9351,-2.0142,13.9771,98,1.3286,1.4847,9.8796,-48.4559,35,0.1141,7870,3.982,-91.1908
lg,1625105438923023730,0,-0.437,-0.7393,0.4778,391,-0.1221,-28.0151,-13.0615,98,1.3276,1.4847,9.3981,-48.6767,35,0.1121,9265,3.982,-90.7378
lg,1625105438923045638,0,-0.5332,-0.6663,0.4922,392,7.9956,-17.0288,-9.8877,98,1.3266,1.4877,9.8358,-47.9127,35,0.1131,7822,3.982,-89.772
lg,1625105438923064693,0,-0.2844,-0.6912,0.7065,393,3.6621,-55.1147,27.9541,98,1.3306,1.4907,9.426,-47.2133,35,0.1151,7914,3.982,-87.3272
lg,1625105438923084656,0,0.2607,-0.9292,0.7034,394,-7.9346,-111.6333,32.8979,98,1.3357,1.4927,6.5231,-47.1551,35,0.1161,7984,3.982,-83.1515
lg,1625105438923106045,0,0.4905,-1.0334,0.7451,395,-5.127,-86.4868,27.2217,98,1.3427,1.4947,3.86,-47.4273,35,0.1181,7924,3.982,-79.8973
lg,1625105438923125323,0,0.4966,-1.053,0.665,396,16.9067,29.4189,0.9766,98,1.3477,1.4957,3.7033,-47.1762,35,0.1171,8042,3.982,-80.7691
lg,1625105438923143434,0,0.145,-0.8787,0.5923,397,36.3159,118.6523,-23.1323,98,1.3587,1.4957,5.8076,-46.4042,35,0.1181,8027,3.982,-84.9058
lg,1625105438923161804,0,0.0176,-0.7334,0.6152,398,41.8091,135.498,-29.1138,98,1.3647,1.4937,8.4466,-45.4575,35,0.1171,8040,3.982,-89.6662
lg,1625105438923179471,0,-0.1997,-0.6396,0.5659,399,40.5884,136.2915,-31.7383,98,1.3647,1.4897,11.556,-44.7859,35,0.1181,8616,3.982,-94.5158
lg,1625105438923198082,0,-0.4741,-0.8232,0.5828,400,19.9585,122.3755,-15.8081,98,1.3617,1.4837,15.0846,-45.2701,35,0.1181,8069,3.982,-98.6111
lg,1625105438923217212,0,-0.5366,-0.7632,0.5615,401,8.3008,62.6831,21.4233,98,1.3617,1.4817,18.0105,-45.5818,35,0.1181,8232,3.982,-99.9295
lg,1625105438923235564,0,-0.5039,-0.7905,0.6753,402,-3.6011,32.4097,45.7764,98,1.3647,1.4807,20.5252,-45.7385,35,0.1201,8122,3.982,-99.6042
lg,1625105438923254582,0,-0.3501,-0.8525,0.7744,403,-19.7144,-18.6157,81.665,98,1.3667,1.4837,22.1916,-45.4921,35,0.1221,8113,3.982,-96.6093
lg,1625105438923277971,0,-0.2097,-0.7966,0.5833,404,-23.6816,-68.7866,72.998,81,1.3707,1.4857,21.9451,-45.1441,35,0.1221,8157,3.9897,-92.412
lg,1625105438923298675,0,-0.0828,-0.8972,0.5593,405,-34.8511,-92.5903,76.7822,81,1.3667,1.4897,20.8605,-45.187,35,0.1251,12440,3.9897,-87.4667
lg,1625105438923316490,0,-0.0037,-0.9773,0.5376,406,-38.0249,-86.4258,84.8999,81,1.3557,1.4927,20.0853,-45.55,35,0.1241,8139,3.9897,-82.5303
lg,1625105438923341601,0,0.011,-0.9377,0.5215,407,-32.959,-73.4863,86.1816,81,1.3357,1.4937,19.9576,-45.5115,35,0.1221,8287,3.9897,-78.3624
lg,1625105438923365156,0,0.3672,-0.5891,0.855,408,-14.7705,-50.5981,70.1904,81,1.3276,1.4927,19.084,-44.452,35,0.1231,8179,3.9897,-74.6042
lg,1625105438923383638,0,-0.0862,-1.0579,0.8677,409,-20.0195,-9.3384,47.4854,81,1.3226,1.4897,19.5484,-44.9319,35,0.1231,8760,3.9897,-72.9776
lg,1625105438923402341,0,0.0613,-0.8716,0.7297,410,10.6201,-11.1694,13.4888,81,1.3226,1.4897,18.7375,-44.4712,35,0.1231,10097,3.9897,-72.3134
lg,1625105438923425564,0,-0.0388,-0.8533,0.6069,411,26.001,31.3721,-15.686,81,1.3276,1.4927,18.5486,-44.2919,35,0.1231,8759,3.9897,-73.8498
lg,1625105438923487953,0,-0.135,-0.8215,0.5156,412,30.9448,44.6777,-30.7617,81,1.3377,1.4947,19.1194,-44.2051,35,0.1211,8608,3.9897,-77.1186
lg,1625105438923518619,0,-0.3289,-0.7708,0.5737,413,46.3867,81.1157,-42.7246,81,1.3517,1.4957,20.2438,-43.9534,35,0.1211,9011,3.9897,-80.9385
lg,1625105438923539971,0,-0.3962,-0.6533,0.7935,414,52.2461,76.6602,-53.2837,81,1.3647,1.4957,21.0188,-43.0587,35,0.1201,9054,3.9897,-84.7817
lg,1625105438923559564,0,-0.3794,-0.6609,0.541,415,36.1328,9.3994,-72.937,81,1.3647,1.4867,19.426,-42.7827,35,0.1191,9056,3.9897,-87.4291
lg,1625105438923581601,0,-0.3638,-0.7402,0.5159,416,16.9067,-15.1978,-56.3965,81,1.3607,1.4777,17.5612,-42.987,35,0.1191,8330,3.9897,-88.8865
lg,1625105439278059008,0,-0.4856,-0.9062,0.6968,417,-45.2881,-26.7944,93.689,81,1.3427,1.4937,19.5825,-43.9827,35,0.1191,27697,3.9897,-85.3538
lg,1625105439278125878,0,-0.5552,-0.6187,0.73,418,-33.9966,-78.3691,93.6279,81,1.3186,1.4887,20.3266,-43.4204,35,0.1211,10167,3.9897,-80.1187
lg,1625105439278147267,0,-0.1497,-0.5459,0.4475,419,-55.6641,-217.1021,27.71,81,1.3036,1.4767,14.5185,-43.7949,35,0.1221,7781,3.9897,-73.1006
lg,1625105439278167082,0,0.4534,-1.0557,0.5239,420,-103.6377,-238.5254,34.668,81,1.3016,1.4697,6.6279,-46.4558,35,0.1221,7752,3.9897,-65.2116
lg,1625105439278186045,0,0.3643,-1.2712,0.5271,421,-70.0073,-163.6353,-3.7842,81,1.2996,1.4677,1.3547,-49.6845,35,0.1221,7830,3.9897,-60.5002
lg,1625105439278204971,0,0.3645,-0.9905,0.4692,422,7.6904,-4.0283,2.6855,81,1.3006,1.4687,0.5674,-49.9179,35,0.1221,7847,3.9897,-60.3211
lg,1625105439278224138,0,0.1606,-0.781,0.626,423,20.1416,74.1577,-2.9297,81,1.3046,1.4717,2.0081,-49.2085,35,0.1221,7919,3.9897,-62.6634
lg,1625105439278242786,0,0.0984,-0.8147,0.5671,424,19.2261,75.9277,-4.0894,81,1.3126,1.4757,3.5622,-48.781,35,0.1231,7842,3.9897,-65.0795
lg,1625105439278260193,0,-0.0212,-0.9075,0.5925,425,22.7661,93.0176,-18.9209,81,1.3266,1.4817,5.3435,-48.4378,35,0.1221,7858,3.9897,-68.4046
lg,1625105439278278397,0,-0.061,-0.9041,0.6411,426,29.0527,102.8442,-28.1982,81,1.3417,1.4857,6.8878,-47.7784,35,0.1231,7855,3.9897,-72.5262
lg,1625105439278295971,0,-0.0063,-0.7163,0.6033,427,39.4897,59.2651,-69.8242,81,1.3577,1.4847,6.1812,-46.693,35,0.1211,11346,3.9897,-76.1961
lg,1625105439278313249,0,-0.054,-0.7825,0.4607,428,30.0903,45.6543,-82.5195,81,1.3557,1.4817,4.9327,-46.3374,35,0.1191,7958,3.9897,-79.8596
lg,1625105439278330730,0,-0.1333,-0.8284,0.4453,429,25.4517,56.1523,-63.1714,81,1.3557,1.4757,4.7821,-46.1972,35,0.1171,7987,3.9897,-83.2904
lg,1625105439278347712,0,-0.2239,-0.7917,0.573,430,15.8691,105.0415,10.0098,81,1.3567,1.4687,8.282,-46.1749,35,0.1161,8016,3.9897,-86.0932
lg,1625105439278365434,0,-0.2952,-0.7581,0.6145,431,7.5073,96.7407,39.3066,81,1.3587,1.4657,12.4101,-46.3612,35,0.1191,8003,3.9897,-87.8642
lg,1625105439278384267,0,-0.4639,-0.9272,0.9248,432,-20.0806,49.2554,73.4863,81,1.3617,1.4637,16.1653,-46.9528,35,0.1201,8687,3.9897,-87.2579
lg,1625105439278402360,0,-0.4072,-0.698,0.5469,433,-33.0811,-50.415,84.4727,81,1.3647,1.4687,17.6084,-47.3002,35,0.1201,8598,3.9897,-83.3641
lg,1625105439278419804,0,-0.3767,-0.6475,0.5117,434,-40.6494,-79.1016,92.4683,81,1.3547,1.4757,18.5105,-47.4945,35,0.1181,8060,3.9897,-77.7609
lg,1625105439278436767,0,-0.4192,-0.7432,0.5701,435,-52.063,-112.7319,108.5815,81,1.3327,1.4797,18.9083,-47.6289,35,0.1181,8280,3.9897,-71.2155
lg,1625105439278454156,0,0.0139,-0.8022,0.7024,436,-69.8242,-188.2324,107.1777,81,1.3136,1.4787,16.2762,-47.7746,35,0.1211,10031,3.9897,-62.3715
lg,1625105439278472045,0,0.2839,-1.0613,0.4487,437,-60.0586,-188.7817,43.0908,81,1.3066,1.4827,11.4871,-49.2261,35,0.1201,8335,3.9897,-55.5716
lg,1625105439278489730,0,0.5718,-1.0601,0.522,438,-25.5737,-111.3892,29.541,81,1.3046,1.4837,8.1541,-50.0315,35,0.1211,8292,3.9897,-51.4443
lg,1625105439278507156,0,0.4141,-1.0605,0.623,439,-5.9814,-24.0479,4.6997,81,1.3076,1.4847,6.6691,-50.5069,35,0.1221,8242,3.9897,-50.6242
lg,1625105439278524489,0,0.1318,-0.8611,0.3992,440,30.0293,74.9512,-9.7656,81,1.3166,1.4877,7.7052,-50.1927,35,0.1231,8244,3.9897,-53.2745
lg,1625105439278541249,0,-0.1184,-0.8342,0.5295,441,41.687,123.9624,-22.0337,81,1.3296,1.4897,10.1748,-49.4972,35,0.1241,8224,3.9897,-57.7282
lg,1625105439278557878,0,-0.2271,-0.8188,0.5691,442,45.9595,131.1646,-21.1182,81,1.3427,1.4897,13.252,-48.9321,35,0.1241,8266,3.9897,-62.4088
lg,1625105439278574841,0,-0.2876,-0.6567,0.5188,443,48.0957,86.1816,-27.1606,81,1.3527,1.4887,14.9359,-47.9368,35,0.1261,8261,3.9897,-65.8335
lg,1625105439278591971,0,-0.4067,-0.7612,0.54,444,25.6348,36.9873,-20.3857,81,1.3597,1.4897,15.6608,-47.6045,35,0.1281,8277,3.9897,-67.5994
lg,1625105439278609138,0,-0.4849,-0.8391,0.5054,445,9.6436,12.7563,2.6245,81,1.3607,1.4917,16.8885,-47.7882,35,0.1301,8345,3.9897,-66.7293
lg,1625105439278627008,0,-0.4392,-0.8333,0.7439,446,-10.9863,-17.7612,56.5186,81,1.3487,1.4947,18.26,-47.5829,35,0.1261,8321,3.9897,-64.5856
lg,1625105439278644323,0,-0.0276,-0.4202,0.8528,447,-1.9531,-67.5049,53.833,81,1.3417,1.4957,17.3743,-45.6769,35,0.1251,8385,3.9897,-60.7043
lg,1625105439278661823,0,-0.2366,-0.8926,0.9636,448,-41.0767,-94.9707,36.3159,81,1.3337,1.4927,15.5023,-46.0832,35,0.1251,8423,3.9897,-56.7645
lg,1625105439638495211,0,0.1973,-0.9646,0.6765,449,1.0376,-21.1792,29.8462,81,1.3357,1.4917,15.435,-45.8581,35,0.1251,27125,3.9897,-56.5748
lg,1625105439638530582,0,0.2283,-0.95,0.7285,450,19.104,50.7202,5.4321,81,1.3447,1.4947,15.9949,-45.7215,35,0.1241,8568,3.9897,-58.0053
lg,1625105439638551304,0,0.1731,-0.9785,0.7786,451,25.8789,78.6743,-26.123,81,1.3517,1.4967,16.5113,-45.7846,35,0.1231,7768,3.9897,-61.1808
lg,1625105439638570897,0,0.1836,-0.9109,0.7529,452,32.8979,94.2383,-41.4429,81,1.3557,1.4957,16.7602,-45.8516,35,0.1231,7822,3.9897,-66.495
lg,1625105439638589193,0,0.0913,-0.958,0.6963,453,44.1895,128.0518,-95.7642,81,1.3517,1.4877,16.2037,-46.8554,35,0.1201,9606,3.9897,-74.3694
lg,1625105439638607230,0,-0.1926,-0.9722,0.1619,454,56.5186,144.2261,-146.0571,81,1.3537,1.4777,15.6628,-48.2222,35,0.1151,8962,3.9897,-83.2399
lg,1625105439638626026,0,-0.2913,-0.532,0.2759,455,58.7769,139.0381,-69.7632,81,1.3607,1.4687,17.683,-48.1913,35,0.1141,8479,3.9897,-89.6481
lg,1625105439638644674,0,-0.4631,-0.6653,0.6047,456,11.1084,194.519,42.4805,81,1.3657,1.4637,24.4112,-49.5516,35,0.1171,7940,3.9897,-94.7346
lg,1625105439638663452,0,-0.7168,-0.908,0.7139,457,-11.8408,156.5552,48.584,81,1.3677,1.4617,30.125,-51.9666,35,0.1181,7907,3.9897,-98.86
lg,1625105439638682100,0,-0.9546,-0.9116,0.6426,458,-26.4282,-0.6714,61.2183,81,1.3667,1.4657,32.4403,-52.1787,35,0.1151,8042,3.9897,-97.1234
lg,1625105439638699545,0,-0.7825,-0.5251,0.4497,459,-37.1704,-135.6201,92.9565,81,1.3597,1.4747,32.5345,-49.3689,35,0.1131,7957,3.9897,-89.2755
lg,1625105439638730897,0,-0.7151,-0.4644,0.4661,460,-52.1851,-182.8613,102.478,81,1.3427,1.4807,31.2639,-46.1936,35,0.1131,8067,3.9897,-79.5435
lg,1625105439638749360,0,-0.3833,-0.7334,0.4375,461,-98.877,-293.0298,132.6904,81,1.3226,1.4837,26.5532,-44.0134,35,0.1151,8051,3.9897,-66.0927
lg,1625105439638767137,0,0.6445,-0.8955,0.4441,462,-85.6323,-397.4609,67.749,81,1.3136,1.4827,15.1058,-43.2072,35,0.1151,8059,3.9897,-52.6843
lg,1625105439638784693,0,0.7275,-1.1907,0.3833,463,-87.0972,-337.2803,29.2969,81,1.3086,1.4807,4.8221,-45.8162,35,0.1161,8068,3.9897,-42.5084
lg,1625105439638806397,0,1.082,-1.3154,0.6213,464,-25.4517,-138.916,7.9956,81,1.3086,1.4817,-0.2454,-47.2208,35,0.1161,8122,3.9897,-38.2852
lg,1625105439638825267,0,0.469,-1.054,0.4565,465,36.9873,111.3281,-34.2407,81,1.3096,1.4847,0.9357,-46.4556,35,0.1171,8188,3.9897,-42.4781
lg,1625105439638843841,0,0.2703,-0.8726,0.3489,466,58.7769,165.5273,-32.5928,81,1.3116,1.4857,3.93,-45.1497,35,0.1191,8129,3.9897,-48.1632
lg,1625105439638861471,0,-0.165,-0.6987,0.4658,467,65.3076,232.5439,-32.0435,81,1.3156,1.4877,9.9089,-43.8769,35,0.1181,8174,3.9897,-55.67
lg,1625105439638879674,0,-0.5417,-0.7092,0.5627,468,56.0303,215.4541,-22.2778,81,1.3256,1.4897,16.3021,-43.4342,35,0.1191,8167,3.9897,-62.4754
lg,1625105439638897286,0,-0.679,-0.6807,0.6257,469,50.1709,181.1523,-16.6626,81,1.3347,1.4897,21.972,-43.3983,35,0.1181,8232,3.9897,-68.2797
lg,1625105439638914952,0,-0.6868,-0.5549,0.6775,470,32.5317,61.7065,-8.4839,81,1.3447,1.4897,24.1569,-42.7711,35,0.1211,8219,3.9897,-70.3252
lg,1625105439638932823,0,-0.4172,-0.6313,0.7654,471,4.7607,-35.5225,7.6904,81,1.3557,1.4867,23.2623,-41.9193,35,0.1201,8220,3.9897,-68.9707
lg,1625105439638952026,0,-0.1494,-0.8762,0.6841,472,-6.2256,-69.9463,9.7656,81,1.3627,1.4837,20.1487,-41.668,35,0.1201,8244,3.9897,-66.1951
lg,1625105439638969823,0,0.1736,-0.9819,0.6353,473,-10.7422,-99.5483,13.4277,81,1.3667,1.4757,16.8934,-41.7729,35,0.1201,10309,3.9897,-63.4986
lg,1625105439638988471,0,0.2046,-1.0039,0.6628,474,-3.6621,-23.3765,20.5688,81,1.3687,1.4707,15.7556,-42.1415,35,0.1201,8303,3.9897,-62.3795
lg,1625105439639006397,0,-0.0095,-1.0195,0.6436,475,-6.897,30.0903,38.5132,81,1.3717,1.4717,17.0969,-42.9472,35,0.1231,8365,3.9897,-62.2179
lg,1625105439639024508,0,-0.1365,-1.0281,0.6709,476,-17.395,33.5693,55.6641,81,1.3747,1.4767,19.6524,-43.9133,35,0.1241,8352,3.9897,-61.026
lg,1625105439639042582,0,-0.2876,-0.7668,0.376,477,-17.8223,16.0522,85.9375,81,1.3587,1.4827,22.5006,-44.625,35,0.1231,8363,3.9897,-59.1397
lg,1625105439639060508,0,-0.4749,-0.7144,0.4438,478,-29.6021,-0.6104,109.4971,81,1.3126,1.4867,25.8509,-44.8952,35,0.1211,9198,3.9897,-55.9119
lg,1625105439639078230,0,-0.002,-0.6138,1.2019,479,-30.4565,-70.0684,121.0938,81,1.2836,1.4837,26.2395,-42.6728,35,0.1191,8799,3.9897,-49.5419
lg,1625105439639096397,0,0.0889,-1.0356,1.0867,480,-59.6313,-121.6431,63.7817,81,1.2656,1.4767,23.2874,-42.6925,35,0.1191,8713,3.9897,-43.8569
lg,1625105440004986600,0,0.3298,-0.9204,0.4214,481,5.3711,-31.1279,-20.2637,81,1.2876,1.4837,21.9886,-43.0657,35,0.1201,27367,3.9897,-46.7043
lg,1625105440005040341,0,0.2319,-0.8491,0.49,482,45.7153,109.2529,-50.9644,81,1.3046,1.4877,22.4638,-43.7604,35,0.1201,8594,3.9897,-51.8065
lg,1625105440005071489,0,-0.3081,-0.8489,0.5166,483,53.6499,211.853,-76.0498,81,1.3206,1.4897,26.1078,-45.901,35,0.1201,7714,3.9897,-60.953
lg,1625105440005101415,0,-0.7449,-0.7576,0.625,484,56.5186,196.5332,-88.501,81,1.3377,1.4917,29.2787,-48.0937,35,0.1201,7782,3.9897,-70.2462
lg,1625105440005129730,0,-0.7954,-0.6465,0.7332,485,53.4058,140.8081,-90.3931,81,1.3527,1.4887,30.629,-49.5327,35,0.1201,7821,3.9897,-77.7714
lg,1625105440005157582,0,-0.5154,-0.5537,0.6531,486,40.2832,22.2168,-66.2842,81,1.3607,1.4817,29.222,-48.9372,35,0.1211,9067,3.9897,-80.3507
lg,1625105440005185637,0,-0.2681,-0.8303,0.6265,487,8.4839,-40.8325,-73.1201,81,1.3587,1.4697,25.3734,-49.1136,35,0.1171,8358,3.9897,-81.1904
lg,1625105440005213619,0,-0.207,-0.865,0.4739,488,10.3149,-53.1006,-67.8101,81,1.3557,1.4587,21.2483,-49.4339,35,0.1141,7843,3.9897,-81.6401
lg,1625105440005240396,0,-0.0469,-0.7764,0.373,489,5.4932,-42.4194,-30.0293,81,1.3557,1.4537,18.5592,-49.6379,35,0.1171,9087,3.9897,-81.3129
lg,1625105440005266285,0,-0.0923,-0.7803,0.5852,490,-20.3247,-1.1597,42.0532,81,1.3587,1.4577,19.2957,-50.1976,35,0.1201,9906,3.9897,-80.175
lg,1625105440005291637,0,-0.3313,-0.9924,0.7029,491,-35.9497,-0.1831,93.4448,81,1.3617,1.4687,22.0092,-50.904,35,0.1181,7885,3.9897,-77.6958
lg,1625105440005316452,0,-0.4241,-0.9087,0.5164,492,-37.0483,-41.0156,101.8066,81,1.3557,1.4757,23.7732,-50.6255,35,0.1161,7906,3.9897,-72.414
lg,1625105440005342933,0,-0.5837,-0.6467,0.4587,493,-37.2314,-82.7026,117.3096,81,1.3337,1.4807,25.7565,-49.6747,35,0.1141,7975,3.9897,-66.3585
lg,1625105440005369063,0,-0.2493,-0.5249,0.8782,494,-57.1289,-167.6636,149.4141,81,1.3106,1.4817,25.3455,-46.8622,35,0.1181,8013,3.9897,-56.0764
lg,1625105440005395841,0,0.0061,-0.9731,0.4197,495,-79.2847,-269.7754,74.7681,81,1.2936,1.4787,19.2645,-46.784,35,0.1171,12172,3.9897,-45.7395
lg,1625105440005422619,0,0.7876,-1.1948,0.6377,496,-62.8662,-284.6069,46.0205,81,1.2936,1.4797,11.1986,-47.2058,35,0.1171,8021,3.9897,-36.0123
lg,1625105440005449082,0,0.8606,-1.2312,0.6228,497,-51.8188,-208.7402,12.3901,81,1.2956,1.4807,4.5065,-48.8593,35,0.1171,8107,3.9897,-29.497
lg,1625105440005475156,0,0.7166,-1.1448,0.5488,498,4.0894,-18.2495,1.3428,81,1.2996,1.4827,2.8073,-49.1726,35,0.1181,8086,3.9897,-28.9493
lg,1625105440005500637,0,0.3579,-0.8604,0.4358,499,37.7808,109.6191,-16.1743,81,1.3056,1.4847,4.3015,-48.4014,35,0.1191,8263,3.9897,-32.7189
lg,1625105440005527008,0,-0.082,-0.8008,0.4966,500,47.9126,195.9229,-20.9961,81,1.3156,1.4867,8.915,-47.6087,35,0.1191,8627,3.9897,-39.1755
lg,1625105440005552211,0,-0.2878,-0.7817,0.5015,501,47.7295,200.1343,-16.5405,81,1.3256,1.4887,14.4161,-47.3138,35,0.1191,8654,3.9897,-45.6971
lg,1625105440005606637,0,-0.5312,-0.7302,0.5466,502,46.3257,160.5835,-16.4795,81,1.3357,1.4897,18.8782,-47.2061,35,0.1191,8164,3.9897,-51.1394
lg,1625105440005635489,0,-0.4934,-0.6289,0.5825,503,35.5835,75.1343,-9.8877,81,1.3467,1.4897,21.0574,-46.6696,35,0.1211,8402,3.9897,-53.7609
lg,1625105440005662082,0,-0.3093,-0.7051,0.6689,504,26.8555,38.6353,-5.3711,81,1.3567,1.4887,20.8986,-46.0892,35,0.1221,8209,3.9897,-53.9804
lg,1625105440005688137,0,-0.2278,-0.8176,0.6426,505,6.5308,-24.6582,-3.7842,81,1.3637,1.4867,19.7707,-45.8304,35,0.1231,8433,3.9897,-53.4167
lg,1625105440005714748,0,-0.1316,-0.9678,0.6304,506,3.2349,-39.856,9.4604,81,1.3667,1.4867,18.4249,-45.6626,35,0.1251,8243,3.9897,-52.0809
lg,1625105440005815415,0,-0.1072,-0.9778,0.593,507,-3.418,-29.2969,36.0107,81,1.3707,1.4897,18.1418,-45.7178,35,0.1261,8295,3.9897,-50.3075
lg,1625105440005849637,0,-0.0627,-0.9299,0.6719,508,-7.8125,-29.8462,48.3398,81,1.3717,1.4907,18.1103,-45.6461,35,0.1281,8278,3.9897,-48.0964
lg,1625105440005879137,0,-0.052,-0.7793,0.5588,509,-8.4839,-33.6304,64.27,81,1.3677,1.4947,18.4234,-45.423,35,0.1271,10332,3.9897,-45.3032
lg,1625105440005906600,0,-0.0486,-0.814,0.5413,510,-12.7563,-28.8696,69.2749,81,1.3577,1.4967,18.9896,-45.4378,35,0.1241,8362,3.9897,-42.5268
lg,1625105440005933878,0,-0.0347,-0.884,0.7153,511,-10.3149,-20.4468,73.3032,81,1.3477,1.4967,19.8255,-45.1406,35,0.1251,8424,3.9897,-39.8035
lg,1625105440005962193,0,0.1685,-0.8481,0.6799,512,-3.9062,-26.001,66.3452,81,1.3477,1.4957,19.2755,-44.6178,35,0.1251,8439,3.9897,-37.795
lg,1625105440368944063,0,0.2622,-0.9478,0.7004,513,24.1699,50.293,-36.9873,81,1.3747,1.4967,19.0578,-44.8807,35,0.1241,27497,3.9897,-42.2376
lg,1625105440369007933,0,-0.0349,-0.8999,0.6138,514,50.5371,148.9868,-82.3975,81,1.3787,1.4877,20.2232,-45.6473,35,0.1211,11382,3.9897,-49.3372
lg,1625105440369030192,0,-0.2273,-0.8052,0.4644,515,62.1338,181.7017,-83.252,81,1.3777,1.4787,22.5863,-46.7113,35,0.1171,7803,3.9897,-57.6424
lg,1625105440369050044,0,-0.3577,-0.667,0.4167,516,59.3262,175.8423,-78.7354,81,1.3787,1.4687,25.2011,-48.2044,35,0.1171,7810,3.9897,-65.2646
lg,1625105440369068785,0,-0.4656,-0.7329,0.5913,517,14.5264,156.5552,-2.5024,88,1.3787,1.4667,29.2223,-50.2016,35,0.1191,7958,3.9831,-70.7254
lg,1625105440369088396,0,-0.8164,-0.887,0.7244,518,-22.3999,102.7222,37.4146,88,1.3767,1.4697,33.1727,-52.4858,35,0.1191,7852,3.9831,-73.4074
lg,1625105440369107118,0,-1.0154,-0.8813,0.6394,519,-29.541,65.2466,60.2417,88,1.3717,1.4757,37.022,-54.1697,35,0.1151,7918,3.9831,-74.2505
lg,1625105440369126248,0,-1.0881,-0.6709,0.6858,520,-31.3721,-65.5518,96.0693,88,1.3637,1.4827,38.969,-51.6175,35,0.1151,7946,3.9831,-68.4329
lg,1625105440369144230,0,-0.8567,-0.4954,0.6226,521,-55.603,-231.0181,114.6851,88,1.3437,1.4877,36.6779,-45.613,35,0.1141,8009,3.9831,-55.4948
lg,1625105440369163174,0,-0.3037,-0.373,0.9001,522,-78.3081,-325.2563,117.2485,88,1.3337,1.4887,28.7759,-41.0338,35,0.1151,8148,3.9831,-41.0695
lg,1625105440369181322,0,0.2808,-0.9153,0.0752,523,-109.8633,-440.4297,30.7007,88,1.3286,1.4887,15.1943,-41.9637,35,0.1141,7953,3.9831,-28.3872
lg,1625105440369200396,0,0.854,-1.3594,0.4465,524,-89.4165,-333.7402,11.1694,88,1.3256,1.4867,4.3058,-44.8545,35,0.1131,7947,3.9831,-19.0224
lg,1625105440369218600,0,0.9287,-1.3416,0.397,525,-46.3257,-212.0361,-9.5215,88,1.3236,1.4877,-3.1762,-47.5273,35,0.1121,8070,3.9831,-13.2095
lg,1625105440369237248,0,0.647,-0.9958,0.3733,526,21.2402,7.9956,-18.6157,88,1.3216,1.4877,-4.4439,-47.2077,35,0.1111,10241,3.9831,-13.922
lg,1625105440369255785,0,0.2356,-0.7373,0.4973,527,46.936,153.9307,-6.5308,88,1.3206,1.4887,-0.8186,-45.4461,35,0.1121,8373,3.9831,-18.5474
lg,1625105440369278230,0,-0.1628,-0.793,0.4272,528,41.9922,184.5093,11.3525,88,1.3236,1.4907,5.1194,-44.5713,35,0.1121,8663,3.9831,-23.4395
lg,1625105440369297952,0,-0.3079,-0.7512,0.6077,529,45.6543,156.3721,20.5688,88,1.3276,1.4917,10.6499,-43.5029,35,0.1151,8694,3.9831,-27.2532
lg,1625105440369316767,0,-0.2993,-0.7175,0.6301,530,41.9312,124.1455,22.9492,88,1.3347,1.4927,15.1458,-42.6435,35,0.1161,8004,3.9831,-30.0852
lg,1625105440369334859,0,-0.1731,-0.7424,0.7092,531,27.3438,62.1338,22.583,88,1.3447,1.4937,17.3574,-41.9849,35,0.1171,8840,3.9831,-31.1766
lg,1625105440369352692,0,0.0449,-0.8264,0.8828,532,23.1934,34.6069,11.6577,88,1.3597,1.4927,17.9355,-41.2797,35,0.1151,8630,3.9831,-31.7969
lg,1625105440369371007,0,0.1533,-0.866,0.9438,533,27.71,30.7007,-5.7373,88,1.3687,1.4897,17.119,-40.9177,35,0.1161,8117,3.9831,-33.71
lg,1625105440369389155,0,0.177,-0.9958,0.8557,534,24.7803,41.2598,-56.3354,88,1.3697,1.4827,15.9327,-41.089,35,0.1141,8790,3.9831,-36.7123
lg,1625105440369407970,0,0.0696,-0.9944,0.5669,535,37.2925,89.2944,-88.562,88,1.3697,1.4747,15.5287,-41.7815,35,0.1111,8103,3.9831,-42.1347
lg,1625105440369426711,0,-0.2915,-0.7544,0.3608,536,41.9312,135.1929,-63.7207,88,1.3717,1.4667,17.9852,-42.6261,35,0.1101,8879,3.9831,-48.1328
lg,1625105440369445415,0,-0.4512,-0.5698,0.6016,537,32.0435,141.1133,-16.9678,88,1.3757,1.4657,23.1911,-43.4706,35,0.1131,8917,3.9831,-51.4043
lg,1625105440369483804,0,-0.6411,-0.7822,0.8164,538,-17.5781,122.8638,44.7998,88,1.3787,1.4667,28.1755,-45.2106,35,0.1161,8570,3.9831,-53.8105
lg,1625105440369505952,0,-0.8291,-0.8315,0.6003,539,-27.5879,-7.4463,58.2275,88,1.3807,1.4717,30.0498,-45.5843,35,0.1111,8960,3.9831,-51.8438
lg,1625105440369524822,0,-0.8396,-0.6123,0.6548,540,-21.9727,-87.8906,76.8433,88,1.3747,1.4797,30.2262,-43.6507,35,0.1121,9003,3.9831,-46.3947
lg,1625105440369543192,0,-0.6248,-0.6611,0.6235,541,-52.6733,-203.5522,93.9941,88,1.3567,1.4847,26.9658,-41.3392,35,0.1111,8614,3.9831,-37.0198
lg,1625105440369560933,0,-0.4041,-0.759,0.5354,542,-72.3267,-270.5078,95.0317,88,1.3327,1.4887,20.5797,-40.6414,35,0.1131,8643,3.9831,-26.5254
lg,1625105440369578822,0,0.3735,-0.8699,0.604,543,-76.5991,-316.1621,86.6089,88,1.3246,1.4897,11.9069,-41.081,35,0.1131,8643,3.9831,-15.4224
lg,1625105440369596711,0,0.6482,-1.1135,0.1406,544,-56.4575,-224.0601,27.71,88,1.3196,1.4907,4.6521,-43.6343,35,0.1141,8738,3.9831,-8.7484
lg,1625105440723644489,0,0.1899,-0.8311,0.5542,545,34.6069,124.4507,13.0005,88,1.3337,1.4937,8.344,-43.0812,35,0.1171,28531,3.9831,-11.8563
lg,1625105440723697026,0,-0.2605,-0.8508,0.5439,546,42.4194,147.583,1.4038,88,1.3437,1.4947,12.9309,-42.6791,35,0.1181,8521,3.9831,-15.9854
lg,1625105440723718729,0,-0.3342,-0.5928,0.5715,547,34.9121,87.4634,-1.4038,88,1.3497,1.4947,15.8225,-42.0181,35,0.1191,7741,3.9831,-18.4901
lg,1625105440723739933,0,-0.3994,-0.6289,0.5952,548,17.2119,57.312,6.1646,88,1.3527,1.4947,18.0322,-41.9032,35,0.1191,7760,3.9831,-19.9484
lg,1625105440723758952,0,-0.4819,-0.8606,0.749,549,-13.7329,21.3013,49.8657,88,1.3517,1.4967,20.1894,-42.398,35,0.1201,7760,3.9831,-19.0754
lg,1625105440723779137,0,-0.2639,-0.6865,0.9438,550,-13.1836,2.9907,64.0259,88,1.3487,1.4987,20.981,-41.5803,35,0.1201,7764,3.9831,-16.3574
lg,1625105440723797489,0,-0.1521,-0.5999,0.7092,551,-9.3384,-55.7861,46.5088,88,1.3457,1.4967,20.0715,-40.8109,35,0.1191,7965,3.9831,-13.2714
lg,1625105440723816840,0,-0.0471,-0.9087,0.7271,552,-32.1045,-70.5566,45.8374,88,1.3447,1.4997,18.4771,-41.3864,35,0.1201,7796,3.9831,-9.9862
lg,1625105440723835026,0,0.0115,-0.9434,0.6519,553,-21.4844,-63.9038,37.6587,88,1.3467,1.4997,17.6883,-41.838,35,0.1201,7882,3.9831,-8.4834
lg,1625105440723853785,0,0.0007,-0.9163,0.6743,554,1.5259,7.6294,23.3154,88,1.3507,1.4997,17.856,-42.098,35,0.1191,7887,3.9831,-8.1178
lg,1625105440723872600,0,0.0076,-0.8621,0.6545,555,7.019,30.3345,2.4414,88,1.3537,1.4997,18.1101,-42.4924,35,0.1191,7863,3.9831,-9.0359
lg,1625105440723890452,0,-0.0151,-0.8777,0.6353,556,10.9863,39.3677,-6.5308,88,1.3617,1.4987,18.4172,-42.9412,35,0.1201,7877,3.9831,-10.5122
lg,1625105440723908674,0,-0.0369,-0.8838,0.6069,557,21.0571,57.312,-29.541,88,1.3697,1.4957,18.6403,-43.4273,35,0.1191,7911,3.9831,-13.2397
lg,1625105440723927470,0,-0.0566,-0.9729,0.6484,558,25.3296,67.1387,-51.1475,88,1.3747,1.4907,18.5482,-44.0624,35,0.1181,7916,3.9831,-16.9264
lg,1625105440723946581,0,-0.0874,-0.9597,0.4636,559,29.7852,64.9414,-58.96,88,1.3757,1.4837,18.2351,-44.8514,35,0.1161,7990,3.9831,-20.8761
lg,1625105440724000952,0,-0.2898,-0.8044,0.3325,560,27.832,67.4438,-45.3491,88,1.3767,1.4807,18.8876,-45.6819,35,0.1181,7988,3.9831,-24.5202
lg,1625105440724024137,0,-0.4543,-0.863,0.5706,561,21.6675,81.1157,-3.54,88,1.3787,1.4787,21.9566,-46.366,35,0.1211,8029,3.9831,-25.7411
lg,1625105440724043359,0,-0.5698,-0.9045,0.6621,562,-13.1836,36.6821,49.6216,88,1.3777,1.4797,24.8898,-47.0613,35,0.1191,8043,3.9831,-25.5426
lg,1625105440724061322,0,-0.6721,-0.5549,0.5388,563,-19.8975,-89.2334,81.7871,88,1.3617,1.4857,25.425,-45.5216,35,0.1181,9670,3.9831,-20.1606
lg,1625105440724080470,0,-0.2908,-0.5725,0.7314,564,-58.2886,-204.4067,94.1162,88,1.3447,1.4897,21.9788,-43.832,35,0.1201,8079,3.9831,-10.8328
lg,1625105440724100100,0,0.197,-0.5464,0.8921,565,-64.8193,-274.6582,63.1104,88,1.3347,1.4917,14.5637,-42.8209,35,0.1201,8085,3.9831,-0.8073
lg,1625105440724119174,0,0.3884,-1.2654,0.7212,566,-94.2383,-250.4883,24.1699,88,1.3256,1.4907,7.0209,-45.7689,35,0.1181,8041,3.9831,6.8607
lg,1625105440724138896,0,0.6196,-1.0781,0.5029,567,-24.5972,-116.5161,-2.2583,88,1.3176,1.4897,2.4883,-47.1171,35,0.1141,9176,3.9831,10.123
lg,1625105440724158748,0,0.2117,-0.874,0.5649,568,15.625,54.9316,3.7842,88,1.3136,1.4887,3.5396,-46.95,35,0.1151,8805,3.9831,8.5937
lg,1625105440724177248,0,-0.0439,-0.8687,0.582,569,27.6489,110.7178,13.4277,88,1.3126,1.4877,6.9039,-46.462,35,0.1151,8136,3.9831,5.6977
lg,1625105440724195970,0,-0.1704,-0.7336,0.5879,570,38.9404,118.7134,17.4561,88,1.3146,1.4897,10.8153,-45.5444,35,0.1151,8242,3.9831,2.7039
lg,1625105440724215044,0,-0.144,-0.7866,0.5237,571,31.189,99.0601,22.2168,88,1.3196,1.4927,14.1327,-45.2061,35,0.1171,8228,3.9831,0.3674
lg,1625105440724234507,0,-0.1746,-0.8262,0.6226,572,32.1655,107.2388,26.062,88,1.3266,1.4937,17.7021,-44.884,35,0.1191,8186,3.9831,-2.1081
lg,1625105440724252840,0,-0.0828,-0.8191,0.7139,573,30.3955,78.3081,9.6436,88,1.3377,1.4957,19.6597,-44.4824,35,0.1201,8297,3.9831,-4.2019
lg,1625105440724272822,0,-0.0122,-0.8484,0.7139,574,25.2686,64.0869,-8.4839,88,1.3527,1.4967,20.4993,-44.4388,35,0.1181,8275,3.9831,-6.4524
lg,1625105440724291896,0,0.0457,-0.8594,0.761,575,25.6348,66.2842,-20.6909,88,1.3647,1.4947,20.5467,-44.7864,35,0.1191,8270,3.9831,-9.911
lg,1625105440724311711,0,-0.0547,-0.9023,0.592,576,33.9966,78.2471,-53.5889,88,1.3657,1.4877,20.5519,-45.3198,35,0.1161,8362,3.9831,-14.0679
lg,1625105441087492340,0,-0.3323,-0.7002,0.4646,577,34.3628,106.0181,-30.4565,88,1.3497,1.4397,24.0986,-45.8996,35,0.1141,27105,3.9831,-17.4453
lg,1625105441087531488,0,-0.6052,-0.7415,0.6743,578,2.0752,74.3408,67.1997,88,1.3527,1.4387,28.3508,-46.0058,35,0.1171,8555,3.9831,-17.7798
lg,1625105441087552562,0,-0.6819,-0.8865,0.8843,579,-15.4419,44.5557,93.2617,88,1.3567,1.4427,32.2723,-45.8789,35,0.1171,7718,3.9831,-16.2831
lg,1625105441087572377,0,-0.6531,-0.8257,0.6667,580,-28.2593,-52.4902,121.0938,88,1.3567,1.4517,34.183,-43.9783,35,0.1151,8538,3.9831,-10.5192
lg,1625105441087591340,0,-0.6226,-0.6213,0.5718,581,-42.9688,-109.9243,122.0703,88,1.3447,1.4617,34.3576,-41.3226,35,0.1121,8066,3.9831,-2.6284
lg,1625105441087609748,0,-0.4253,-0.7161,0.635,582,-70.3125,-197.0215,129.8218,88,1.3146,1.4687,31.286,-38.5923,35,0.1111,9189,3.9831,7.9499
lg,1625105441087627970,0,0.0754,-0.7104,0.9983,583,-82.7026,-242.0654,123.6572,88,1.2926,1.4707,22.6027,-37.1593,35,0.1131,8562,3.9831,17.9314
lg,1625105441087646877,0,0.6233,-1.2261,0.8608,584,-77.6978,-201.9043,48.4009,88,1.2756,1.4697,15.8785,-38.6474,35,0.1131,11787,3.9831,24.5562
lg,1625105441087665655,0,0.6985,-1.0303,0.5547,585,-38.3301,-146.4233,16.9678,88,1.2736,1.4707,10.5142,-40.0624,35,0.1131,8235,3.9831,28.6807
lg,1625105441087683655,0,0.1467,-1.0623,0.5933,586,-1.8921,37.4146,-7.3242,88,1.2746,1.4717,10.7984,-41.1648,35,0.1141,8250,3.9831,27.3181
lg,1625105441087701636,0,-0.1963,-0.8054,0.4434,587,28.8086,116.5161,-3.7842,88,1.2806,1.4737,14.2495,-41.4934,35,0.1151,7891,3.9831,23.8975
lg,1625105441087720544,0,-0.1577,-0.6821,0.5032,588,32.7759,112.1826,-4.5166,88,1.2946,1.4767,17.2164,-41.3365,35,0.1161,8245,3.9831,20.5969
lg,1625105441087739303,0,-0.1047,-0.8411,0.6399,589,27.0386,93.9331,-10.8643,88,1.3166,1.4797,19.3297,-41.9022,35,0.1161,8753,3.9831,17.4091
lg,1625105441087792099,0,-0.1436,-0.9238,0.5784,590,31.311,84.6558,-38.0859,88,1.3347,1.4837,20.3578,-42.5341,35,0.1161,7901,3.9831,13.5706
lg,1625105441087811618,0,-0.1592,-0.76,0.6914,591,43.335,85.6934,-63.2935,88,1.3517,1.4817,20.701,-42.5789,35,0.1161,7894,3.9831,9.0292
lg,1625105441087830488,0,-0.1289,-0.7083,0.6538,592,44.7998,78.6133,-74.2188,88,1.3577,1.4767,20.5968,-42.6699,35,0.1171,7926,3.9831,4.3289
lg,1625105441087849155,0,-0.281,-0.8662,0.6208,593,30.2124,71.7163,-86.3037,88,1.3527,1.4687,20.0994,-43.5922,35,0.1161,8254,3.9831,-0.612
lg,1625105441087867340,0,-0.4233,-0.8047,0.4395,594,27.4658,66.1621,-59.2041,88,1.3537,1.4637,20.5585,-44.4713,35,0.1161,8702,3.9831,-4.6205
lg,1625105441087885655,0,-0.6821,-0.7683,0.6492,595,-7.6294,46.1426,15.8081,88,1.3557,1.4637,22.8333,-45.2943,35,0.1211,8791,3.9831,-5.6108
lg,1625105441087903729,0,-0.7341,-0.7998,0.7361,596,-23.0713,14.0991,57.8613,88,1.3627,1.4727,25.4042,-45.7762,35,0.1211,8778,3.9831,-4.3242
lg,1625105441087921636,0,-0.675,-0.6753,0.6479,597,-35.5835,-77.3315,100.647,88,1.3557,1.4807,26.5007,-44.7439,35,0.1191,8049,3.9831,1.2733
lg,1625105441087964081,0,-0.7856,-0.7642,0.6152,598,-52.7344,-153.7476,97.4731,88,1.3337,1.4847,25.3112,-43.6104,35,0.1171,8068,3.9831,9.0595
lg,1625105441087985451,0,-0.0317,-0.5098,0.5435,599,-54.8096,-307.1899,63.5376,88,1.3126,1.4837,17.1891,-41.8176,35,0.1191,10732,3.9831,19.9694
lg,1625105441088006303,0,0.3408,-1.0662,0.6052,600,-89.4775,-320.2515,25.2075,88,1.3016,1.4817,7.2672,-44.5888,35,0.1181,8552,3.9831,29.8022
lg,1625105441088025081,0,0.5901,-1.0669,0.376,601,-74.646,-308.0444,10.6201,88,1.2976,1.4787,-2.1436,-48.0244,35,0.1181,8232,3.9831,38.9
lg,1625105441088043025,0,0.4282,-1.093,0.4097,602,-32.0435,-111.2061,-12.0239,88,1.2956,1.4807,-6.1011,-50.2747,35,0.1181,8276,3.9831,42.0045
lg,1625105441088072766,0,0.4229,-0.8923,0.5161,603,10.3149,-5.7983,-0.5493,88,1.2966,1.4817,-6.9009,-50.2268,35,0.1171,8651,3.9831,42.2052
lg,1625105441088090785,0,0.3926,-0.916,0.5254,604,19.165,30.3345,-0.4883,88,1.3036,1.4837,-6.6727,-49.7083,35,0.1181,8181,3.9831,41.2946
lg,1625105441088108488,0,0.2722,-0.9824,0.5286,605,34.729,102.2949,-10.3149,88,1.3166,1.4867,-4.6038,-48.4397,35,0.1201,8957,3.9831,37.9606
lg,1625105441088125599,0,-0.0256,-0.9341,0.4709,606,48.3398,154.0527,-27.6489,88,1.3296,1.4897,-1.0619,-46.818,35,0.1211,8719,3.9831,32.7045
lg,1625105441088143655,0,-0.2974,-0.7891,0.4717,607,55.8472,149.9023,-32.3486,88,1.3427,1.4927,2.8863,-45.1222,35,0.1191,8286,3.9831,27.514
lg,1625105441088161155,0,-0.3582,-0.728,0.4978,608,54.4434,126.4648,-28.9917,88,1.3557,1.4917,5.7246,-43.1986,35,0.1211,9316,3.9831,24.003
lg,1625105441443951451,0,-0.0557,-0.8962,0.6885,609,27.71,29.48,-36.0718,88,1.3577,1.4557,5.9647,-42.6542,35,0.1191,27345,3.9831,21.9896
lg,1625105441443986544,0,-0.1165,-0.7749,0.5911,610,26.2451,73.1812,-7.3853,88,1.3617,1.4477,7.9488,-42.2591,35,0.1191,8524,3.9831,19.7353
lg,1625105441444007525,0,-0.3655,-0.7136,0.6289,611,13.5498,81.4819,37.1704,88,1.3647,1.4457,11.8591,-42.1361,35,0.1201,7708,3.9831,18.5937
lg,1625105441444027692,0,-0.4617,-0.7583,0.7092,612,3.7231,63.2324,62.9272,88,1.3687,1.4477,15.882,-42.0652,35,0.1221,7793,3.9831,18.7384
lg,1625105441444047044,0,-0.5942,-0.8867,0.7549,613,-35.8276,-10.3149,100.2197,88,1.3707,1.4537,18.7179,-42.7523,35,0.1181,7762,3.9831,22.0474
lg,1625105441444065951,0,-0.6182,-0.7068,0.5283,614,-48.4619,-77.5757,128.0518,88,1.3527,1.4637,20.5775,-42.9379,35,0.1151,7896,3.9831,28.1557
lg,1625105441444083914,0,-0.6687,-0.6882,0.5393,615,-51.5137,-88.6841,136.5356,88,1.3116,1.4717,22.2459,-42.7484,35,0.1141,8035,3.9831,34.9449
lg,1625105441444101173,0,-0.2605,-0.7637,0.8901,616,-71.3501,-196.0449,138.4888,88,1.2816,1.4707,18.8111,-41.6413,35,0.1151,8305,3.9831,45.0889
lg,1625105441444118747,0,0.2043,-1.0117,0.5522,617,-82.0923,-267.334,50.9033,88,1.2706,1.4667,11.2969,-43.3412,35,0.1141,7824,3.9831,53.8631
lg,1625105441444136896,0,0.8352,-1.1218,0.5618,618,-54.1382,-215.271,25.0854,88,1.2726,1.4677,4.2892,-45.2173,35,0.1151,7902,3.9831,60.5417
lg,1625105441444176433,0,0.7378,-1.2144,0.5745,619,-38.147,-114.9292,-10.376,88,1.2776,1.4697,-0.3988,-47.2816,35,0.1151,7934,3.9831,63.552
lg,1625105441444195488,0,0.5144,-1.0847,0.3782,620,21.4844,53.2227,-23.9868,88,1.2846,1.4747,-0.5798,-47.2221,35,0.1141,7889,3.9831,61.3387
lg,1625105441444213229,0,0.1594,-0.8804,0.3179,621,42.4194,123.7183,-31.6162,88,1.2956,1.4777,2.8544,-45.9068,35,0.1151,7937,3.9831,54.6827
lg,1625105441444230488,0,-0.1023,-0.8201,0.3438,622,65.0635,236.6333,-51.7578,88,1.3076,1.4807,8.139,-44.9202,35,0.1161,7904,3.9831,46.4228
lg,1625105441444248377,0,-0.5488,-0.772,0.5022,623,69.0308,254.2725,-49.0723,88,1.3206,1.4837,14.8343,-44.3107,35,0.1151,8180,3.9831,37.6746
lg,1625105441444266396,0,-0.698,-0.6238,0.6033,624,64.0869,212.9517,-50.1099,88,1.3327,1.4857,18.8978,-43.8434,35,0.1171,7963,3.9831,31.7092
lg,1625105441444283321,0,-0.6348,-0.5867,0.6414,625,46.9971,99.3652,-41.1377,88,1.3457,1.4857,21.2928,-43.3477,35,0.1161,8008,3.9831,27.5419
lg,1625105441444301433,0,-0.4441,-0.6826,0.6868,626,22.2778,7.2632,-32.8369,88,1.3557,1.4857,20.7341,-42.9498,35,0.1181,8057,3.9831,26.2878
lg,1625105441444318747,0,-0.3403,-0.748,0.6521,627,17.334,-21.3623,-28.1372,88,1.3597,1.4827,18.5983,-42.7131,35,0.1181,8081,3.9831,26.4505
lg,1625105441444336247,0,-0.1062,-0.939,0.7117,628,10.6812,-36.0718,-28.5645,88,1.3587,1.4777,16.2498,-42.6499,35,0.1171,8070,3.9831,26.4679
lg,1625105441444353025,0,-0.0889,-0.9475,0.5361,629,15.0146,-10.5591,-22.644,88,1.3587,1.4727,14.8976,-42.8669,35,0.1171,8093,3.9831,25.8768
lg,1625105441444370044,0,-0.1421,-0.8005,0.5405,630,17.2729,13.4888,4.0894,88,1.3617,1.4697,15.1558,-42.7608,35,0.1201,12690,3.9831,25.4854
lg,1625105441444387303,0,-0.3074,-0.8647,0.7249,631,-11.4136,18.8599,51.2695,88,1.3677,1.4727,17.1048,-43.2085,35,0.1211,8159,3.9831,26.4336
lg,1625105441444405284,0,-0.4644,-0.9277,0.5891,632,-27.2217,-23.1323,93.5059,88,1.3717,1.4807,19.2505,-43.7291,35,0.1181,8234,3.9831,29.7957
lg,1625105441444422525,0,-0.4529,-0.7297,0.5591,633,-25.9399,-50.5371,102.478,88,1.3577,1.4867,20.8986,-43.4889,35,0.1161,8162,3.9831,34.3303
lg,1625105441444440062,0,-0.5571,-0.5999,0.6011,634,-34.6069,-82.0312,106.3843,83,1.3276,1.4887,21.9074,-42.8097,35,0.1191,8230,3.9886,40.0617
lg,1625105441444457340,0,0.0974,-0.5754,0.8232,635,-52.9785,-205.2002,87.2803,83,1.3176,1.4877,17.1764,-41.7164,35,0.1181,8795,3.9886,48.7657
lg,1625105441444474914,0,0.365,-1.1282,0.8293,636,-85.022,-222.4731,47.7905,83,1.3066,1.4837,10.7919,-43.7115,35,0.1181,10877,3.9886,56.3033
lg,1625105441444505562,0,0.6182,-1.0947,0.4873,637,-30.2734,-117.3706,4.6387,83,1.3056,1.4827,6.2141,-45.1619,35,0.1181,8354,3.9886,59.6346
lg,1625105441444545044,0,0.5103,-1.0737,0.6018,638,-8.8501,-11.9629,-5.3711,83,1.3086,1.4837,4.6445,-46.0524,35,0.1181,8408,3.9886,59.7735
lg,1625105441444566877,0,0.3096,-0.8896,0.5322,639,31.5552,109.0698,-5.3101,83,1.3186,1.4887,6.6939,-45.6036,35,0.1171,8394,3.9886,56.4298
lg,1625105441444587710,0,0.0554,-0.8845,0.5491,640,41.3208,167.7246,-30.2734,83,1.3306,1.4917,10.1312,-45.2765,35,0.1181,8379,3.9886,50.6769
lg,1625105441812242229,0,-0.4995,-0.7017,0.6572,641,46.875,168.2739,-59.021,83,1.3677,1.4957,13.1324,-44.5033,35,0.1191,27077,3.9886,45.1504
lg,1625105441812281895,0,-0.4092,-0.6631,0.6392,642,36.7432,62.439,-42.2974,83,1.3677,1.4907,14.1594,-43.8016,35,0.1191,8630,3.9886,42.1028
lg,1625105441812302840,0,-0.3225,-0.769,0.5642,643,18.6768,14.8926,-34.3628,83,1.3647,1.4847,13.82,-43.7782,35,0.1181,7779,3.9886,40.5653
lg,1625105441812322488,0,-0.3523,-0.7964,0.4285,644,7.3242,7.2632,0.6714,83,1.3647,1.4817,14.3614,-44.1934,35,0.1191,7796,3.9886,40.2169
lg,1625105441812341358,0,-0.3931,-0.7856,0.4631,645,-1.0986,1.6479,26.4893,83,1.3677,1.4837,15.5125,-44.2887,35,0.1231,7749,3.9886,40.8931
lg,1625105441812359636,0,-0.5588,-0.9377,0.8186,646,-33.2031,-17.395,93.0786,83,1.3737,1.4897,17.9681,-44.83,35,0.1201,8977,3.9886,44.1222
lg,1625105441812377821,0,-0.5354,-0.7854,0.5039,647,-42.7856,-96.2524,137.7563,83,1.3637,1.4957,19.6059,-44.7209,35,0.1181,8451,3.9886,50.974
lg,1625105441812396099,0,-0.415,-0.6169,0.5542,648,-48.3398,-155.8228,126.8921,83,1.3397,1.4967,18.9931,-43.9659,35,0.1211,7920,3.9886,59.3915
lg,1625105441812414321,0,-0.0164,-0.5398,0.9207,649,-54.8096,-198.1201,123.1079,83,1.3296,1.4947,15.9524,-42.7467,35,0.1211,7897,3.9886,69.0117
lg,1625105441812432229,0,0.2529,-1.1079,0.5679,650,-90.9424,-249.6338,80.8105,83,1.3206,1.4957,10.028,-45.0156,35,0.1191,7889,3.9886,78.2844
lg,1625105441812451043,0,0.6614,-1.2458,0.7925,651,-77.5757,-233.2764,77.6367,83,1.3196,1.4947,5.008,-46.2657,35,0.1181,7977,3.9886,84.5864
lg,1625105441812469432,0,0.7827,-1.1045,0.5955,652,4.0894,4.6387,9.1553,83,1.3256,1.4967,4.0401,-46.5942,35,0.1191,13222,3.9886,84.6601
lg,1625105441812487729,0,0.2493,-0.9971,0.4314,653,42.8467,154.3579,-18.6157,83,1.3337,1.4997,7.0829,-46.1214,35,0.1201,8655,3.9886,79.5927
lg,1625105441812505710,0,-0.0017,-0.8933,0.4666,654,56.2134,199.2188,-24.292,83,1.3437,1.5007,12.5492,-45.3469,35,0.1191,8008,3.9886,72.3766
lg,1625105441812523377,0,-0.3284,-0.7781,0.5693,655,63.6597,216.6138,-31.6162,83,1.3547,1.5017,17.9682,-45.0459,35,0.1201,8238,3.9886,65.0163
lg,1625105441812540155,0,-0.5037,-0.6707,0.5796,656,58.3496,168.5181,-39.1846,83,1.3657,1.5017,22.0474,-44.9957,35,0.1181,8305,3.9886,58.7185
lg,1625105441812578877,0,-0.48,-0.614,0.5649,657,49.6826,101.3184,-45.0439,83,1.3727,1.4987,23.9322,-44.8467,35,0.1191,10061,3.9886,54.1915
lg,1625105441812598136,0,-0.439,-0.7241,0.6492,658,30.3955,58.1665,-41.626,83,1.3717,1.4927,24.4039,-45.0204,35,0.1191,8750,3.9886,51.0474
lg,1625105441812615321,0,-0.426,-0.7466,0.6494,659,27.6489,50.6592,-31.6162,83,1.3677,1.4877,24.8833,-45.1337,35,0.1211,8376,3.9886,48.4222
lg,1625105441812632895,0,-0.522,-0.8257,0.5957,660,7.6904,34.8511,5.0659,83,1.3697,1.4877,26.0936,-45.5735,35,0.1231,8764,3.9886,47.3324
lg,1625105441812650099,0,-0.6106,-0.8716,0.7896,661,-18.0664,-14.2212,45.2271,83,1.3737,1.4917,27.0351,-45.5328,35,0.1241,8396,3.9886,49.1677
lg,1625105441812667043,0,-0.6589,-0.8186,0.6951,662,-27.6489,-49.9878,61.1572,83,1.3747,1.4977,26.837,-44.6938,35,0.1201,8041,3.9886,54.5892
lg,1625105441812684043,0,-0.5381,-0.6458,0.5645,663,-39.2456,-127.3193,86.6699,83,1.3627,1.5017,25.8127,-43.412,35,0.1201,8067,3.9886,61.2606
lg,1625105441812702081,0,-0.1284,-0.5481,0.9639,664,-41.0156,-188.1714,72.8149,83,1.3527,1.5027,21.5197,-41.2904,35,0.1221,8095,3.9886,69.3918
lg,1625105441812731562,0,0.0505,-0.6631,0.3877,665,-46.3257,-251.77,40.7104,83,1.3467,1.5027,13.9948,-41.5187,35,0.1221,8134,3.9886,77.3219
lg,1625105441812849284,0,0.4502,-1.1206,0.5818,666,-72.5098,-238.5254,26.7944,83,1.3447,1.4997,6.5302,-43.8635,35,0.1221,8927,3.9886,84.5181
lg,1625105441812873599,0,0.4668,-1.1318,0.5405,667,-17.7612,-67.688,-2.6855,83,1.3417,1.5017,3.5191,-45.1439,35,0.1211,8969,3.9886,86.2742
lg,1625105441812894395,0,0.3254,-0.886,0.5378,668,27.5879,53.0396,-4.4556,83,1.3487,1.5037,4.0787,-44.6524,35,0.1201,9043,3.9886,84.6073
lg,1625105441812913543,0,0.1882,-0.8625,0.5369,669,32.0435,103.2104,-20.752,83,1.3567,1.5057,5.8622,-44.1883,35,0.1221,8964,3.9886,81.0673
lg,1625105441812932821,0,0.0444,-0.9543,0.5471,670,32.5928,136.0474,-23.1934,83,1.3657,1.5077,9.0865,-44.1181,35,0.1241,8630,3.9886,76.5024
lg,1625105441812951710,0,-0.207,-0.9329,0.5359,671,43.457,150.3296,-29.6631,83,1.3727,1.5097,12.6416,-43.9669,35,0.1231,9047,3.9886,71.2766
lg,1625105441813034395,0,-0.2502,-0.5916,0.5396,672,55.2368,108.2764,-28.9307,83,1.3807,1.5077,14.5647,-42.8227,35,0.1221,11892,3.9886,68.0277
lg,1625105442176206247,0,-0.4282,-0.8137,0.6179,673,18.4326,63.7817,9.2773,83,1.3817,1.5027,17.1707,-42.8621,35,0.1251,27531,3.9886,68.2908
lg,1625105442176254488,0,-0.5059,-0.884,0.8843,674,-12.3901,14.8926,65.0024,83,1.3847,1.5067,19.5602,-42.9296,35,0.1261,8582,3.9886,69.8441
lg,1625105442176276303,0,-0.5408,-0.79,0.6433,675,-29.1748,-49.3774,90.1489,83,1.3777,1.5107,20.908,-42.906,35,0.1231,7747,3.9886,73.9942
lg,1625105442176325451,0,-0.5464,-0.6458,0.6199,676,-36.1328,-74.5239,99.3652,83,1.3617,1.5117,21.6598,-42.3337,35,0.1261,7791,3.9886,79.7969
lg,1625105442176347284,0,-0.2395,-0.4268,0.9958,677,-23.7427,-112.3657,95.459,83,1.3527,1.5107,20.4924,-40.2412,35,0.1231,7809,3.9886,86.3366
lg,1625105442176367858,0,-0.1213,-0.908,0.7849,678,-75.2563,-201.2939,71.6553,83,1.3447,1.5077,15.7246,-41.1753,35,0.1211,9083,3.9886,94.018
lg,1625105442176386636,0,0.3442,-1.032,0.47,679,-48.645,-211.1816,34.668,83,1.3397,1.5057,9.2236,-42.5452,35,0.1211,8458,3.9886,100.6064
lg,1625105442176405821,0,0.3699,-1.0916,0.5664,680,-38.8184,-147.522,24.231,83,1.3367,1.5027,4.6515,-44.2475,35,0.1191,7933,3.9886,105.294
lg,1625105442176427265,0,0.2629,-0.9641,0.4792,681,1.2817,-18.9819,19.8975,83,1.3357,1.5007,3.9639,-44.8358,35,0.1191,8001,3.9886,106.3398
lg,1625105442176446525,0,0.0112,-0.8855,0.5449,682,21.9727,48.584,15.3198,83,1.3367,1.4997,5.5899,-44.5608,35,0.1191,7864,3.9886,105.3636
lg,1625105442176464858,0,-0.064,-0.8389,0.498,683,27.832,59.2041,14.1602,83,1.3377,1.5007,7.602,-44.1644,35,0.1191,7883,3.9886,104.0433
lg,1625105442176483988,0,-0.1323,-0.8376,0.3774,684,34.6069,58.3496,10.9863,83,1.3407,1.5007,9.6192,-43.8079,35,0.1201,7899,3.9886,102.6091
lg,1625105442176503080,0,-0.1824,-0.8203,0.4797,685,38.3301,61.9507,12.085,83,1.3437,1.5017,11.9823,-43.0628,35,0.1201,7956,3.9886,101.0521
lg,1625105442176521895,0,-0.2122,-0.792,0.4902,686,43.335,63.1714,14.7095,83,1.3477,1.5027,14.2757,-42.2172,35,0.1211,7918,3.9886,99.6117
lg,1625105442176540358,0,-0.2524,-0.7334,0.5364,687,45.2881,44.4336,16.5405,83,1.3527,1.5037,16.0935,-41.0424,35,0.1211,7997,3.9886,98.7863
lg,1625105442176558265,0,-0.2532,-0.7236,0.5759,688,44.8608,32.2876,21.4233,83,1.3567,1.5047,17.2416,-39.6317,35,0.1211,8002,3.9886,98.9092
lg,1625105442176576358,0,-0.1912,-0.7554,0.6326,689,39.978,8.728,28.1982,83,1.3617,1.5047,17.9807,-38.2418,35,0.1201,8045,3.9886,99.4704
lg,1625105442176594488,0,-0.1841,-0.7913,0.6387,690,38.8794,-1.4038,29.4189,83,1.3667,1.5057,18.3629,-36.8879,35,0.1211,9955,3.9886,100.3228
lg,1625105442176684025,0,-0.1763,-0.7917,0.6365,691,40.4053,-7.2021,22.1558,83,1.3707,1.5067,18.3382,-35.5574,35,0.1221,8079,3.9886,101.0683
lg,1625105442176758562,0,-0.1807,-0.7749,0.6025,692,43.2739,-9.2163,12.085,83,1.3737,1.5067,18.0289,-34.2938,35,0.1231,8083,3.9886,101.4942
lg,1625105442176815432,0,-0.198,-0.7571,0.6033,693,44.0674,-10.8032,7.9956,83,1.3757,1.5057,17.6211,-33.0543,35,0.1221,8139,3.9886,101.8107
lg,1625105442176837377,0,-0.2639,-0.7642,0.6055,694,44.9219,-19.5312,-2.4414,83,1.3787,1.5057,16.847,-31.8798,35,0.1221,8129,3.9886,101.9438
lg,1625105442176856636,0,-0.2898,-0.7607,0.5767,695,44.0674,-33.2031,-4.0894,83,1.3787,1.5037,15.6739,-30.762,35,0.1211,8306,3.9886,102.2862
lg,1625105442176876340,0,-0.2917,-0.7539,0.55,696,44.3115,-38.269,-5.127,83,1.3777,1.5027,14.3661,-29.7077,35,0.1211,8154,3.9886,102.6669
lg,1625105442176895710,0,-0.2566,-0.7646,0.5481,697,50.9033,-51.7578,-4.5166,83,1.3747,1.5007,12.5605,-28.4056,35,0.1221,13445,3.9886,103.3097
lg,1625105442176916303,0,-0.2224,-0.7026,0.4941,698,54.9316,-55.7251,-3.9673,83,1.3727,1.4997,10.5953,-26.8098,35,0.1221,8230,3.9886,104.0981
lg,1625105442177007803,0,-0.2075,-0.696,0.4897,699,63.8428,-59.8145,-0.1831,83,1.3717,1.4987,8.794,-24.9406,35,0.1221,9812,3.9886,104.9886
lg,1625105442177051506,0,-0.1587,-0.676,0.5083,700,71.4111,-48.3398,7.0801,83,1.3717,1.4987,7.2628,-23.0007,35,0.1231,8238,3.9886,105.8846
lg,1625105442177073858,0,-0.095,-0.6826,0.5356,701,75.1343,-40.4663,14.2212,83,1.3717,1.4977,5.9767,-20.9643,35,0.1241,8257,3.9886,106.8878
lg,1625105442177092451,0,-0.0842,-0.7339,0.6038,702,76.5381,-37.9639,10.6812,83,1.3727,1.4977,4.6959,-18.9422,35,0.1251,8713,3.9886,107.6955
lg,1625105442177112895,0,-0.0898,-0.7278,0.6165,703,79.4067,-36.6821,7.3242,83,1.3737,1.4987,3.504,-16.7577,35,0.1251,8838,3.9886,108.2659
lg,1625105442177131377,0,-0.1294,-0.686,0.6238,704,84.4727,-35.9497,3.3569,83,1.3737,1.4977,2.3564,-14.5172,35,0.1261,8447,3.9886,108.7174
lg,1625105442538173895,0,-0.312,-0.6165,0.7905,705,86.2427,-83.313,-13.1836,83,1.3747,1.4977,-0.4037,-11.9325,35,0.1251,27221,3.9886,108.9473
lg,1625105442538222154,0,-0.2043,-0.5969,0.8586,706,80.8105,-139.6484,-18.7378,83,1.3757,1.4997,-5.6852,-9.6176,35,0.1251,17748,3.9886,109.272
lg,1625105442538253636,0,-0.0654,-0.615,0.8787,707,77.3926,-155.0903,-22.9492,83,1.3767,1.4997,-11.5886,-7.514,35,0.1251,7743,3.9886,109.3961
lg,1625105442538284025,0,0.0679,-0.6721,0.8877,708,76.416,-153.1372,-31.5552,83,1.3767,1.5007,-17.5302,-5.4766,35,0.1251,7827,3.9886,109.0585
lg,1625105442538313395,0,0.1216,-0.6758,0.856,709,78.125,-148.5596,-40.3442,83,1.3767,1.5007,-23.2218,-3.2365,35,0.1251,7832,3.9886,108.2293
lg,1625105442538342191,0,0.2161,-0.7219,0.8694,710,86.5479,-134.4604,-55.1758,83,1.3777,1.5007,-28.3324,-0.2747,35,0.1251,7901,3.9886,106.5583
lg,1625105442538369969,0,0.2683,-0.7141,0.8318,711,99.2432,-110.5347,-67.1997,83,1.3777,1.5007,-32.3457,3.6683,35,0.1251,7959,3.9886,104.0978
lg,1625105442538398876,0,0.2869,-0.6794,0.835,712,104.5532,-96.4355,-72.1436,83,1.3767,1.4997,-35.5224,8.2268,35,0.1241,7905,3.9886,101.1407
lg,1625105442538425895,0,0.3149,-0.6096,0.8284,713,111.6943,-71.5942,-78.125,83,1.3767,1.5007,-37.4105,13.4338,35,0.1231,7922,3.9886,97.7806
lg,1625105442538452876,0,0.3523,-0.5139,0.7522,714,117.6147,-38.0859,-78.9795,83,1.3777,1.4997,-37.8152,18.7957,35,0.1221,7964,3.9886,94.6356
lg,1625105442538520562,0,0.3584,-0.4429,0.7014,715,119.0796,-12.5732,-72.3877,83,1.3767,1.4997,-37.1792,23.6986,35,0.1211,7967,3.9886,92.2734
lg,1625105442538552802,0,0.2996,-0.3677,0.7361,716,113.4033,54.7485,-57.251,83,1.3767,1.4997,-34.0532,27.0011,35,0.1211,7960,3.9886,92.1273
lg,1625105442538581728,0,0.1472,-0.3835,0.8638,717,100.2808,112.2437,-39.4897,83,1.3767,1.4997,-28.8808,28.5233,35,0.1201,7996,3.9886,94.1139
lg,1625105442538608784,0,0.073,-0.3953,0.939,718,96.1304,125.6714,-34.8511,83,1.3757,1.4987,-23.307,29.7775,35,0.1181,7987,3.9886,96.4612
lg,1625105442538636987,0,-0.0759,-0.4526,1.0676,719,93.689,111.8164,-29.541,83,1.3747,1.4997,-18.0845,31.114,35,0.1161,10801,3.9886,98.5796
lg,1625105442538666932,0,-0.176,-0.4465,1.1223,720,97.5952,61.4014,-25.2075,83,1.3737,1.4997,-14.7563,33.0021,35,0.1181,8137,3.9886,99.6492
lg,1625105442538694099,0,-0.1431,-0.3716,1.2192,721,97.1069,7.8125,-18.1274,83,1.3717,1.4997,-13.4867,35.195,35,0.1161,8172,3.9886,99.6816
lg,1625105442538723636,0,-0.0942,-0.3442,1.252,722,94.6655,-14.6484,-18.9819,83,1.3707,1.4997,-13.096,37.3991,35,0.1181,8203,3.9886,99.1264
lg,1625105442538755080,0,-0.0312,-0.2898,1.2605,723,88.2568,-58.7769,-27.3438,83,1.3697,1.4997,-13.8703,39.6729,35,0.1191,8182,3.9886,97.1567
lg,1625105442538782617,0,0.0806,-0.2483,1.1628,724,82.7026,-108.4595,-41.5649,83,1.3697,1.4997,-15.8615,42.214,35,0.1191,8825,3.9886,93.3621
lg,1625105442538812080,0,0.1772,-0.2002,1.0981,725,77.3926,-138.855,-47.7295,83,1.3697,1.4967,-18.522,45.0449,35,0.1201,8654,3.9886,88.4162
lg,1625105442538841191,0,0.2407,-0.166,1.0547,726,67.627,-140.1978,-44.0674,83,1.3697,1.5017,-21.162,47.7358,35,0.1211,9965,3.9886,83.4132
lg,1625105442538870654,0,0.25,-0.1531,1.043,727,60.791,-133.3618,-39.2456,83,1.3707,1.5017,-23.5117,50.2496,35,0.1211,8326,3.9886,78.6649
lg,1625105442538897136,0,0.2839,-0.1948,1.0681,728,46.3867,-116.6992,-28.7476,83,1.3687,1.5017,-25.6334,51.9814,35,0.1201,8310,3.9886,74.7167
lg,1625105442538924895,0,0.2893,-0.2822,1.075,729,38.5132,-102.1729,-19.5923,83,1.3697,1.5027,-27.6255,53.1204,35,0.1211,8386,3.9886,71.5328
lg,1625105442538952673,0,0.2986,-0.3032,1.1165,730,38.0249,-95.9473,-12.7563,83,1.3697,1.5027,-29.6538,54.0369,35,0.1221,8358,3.9886,69.0982
lg,1625105442539011154,0,0.3501,-0.2903,1.1182,731,41.626,-86.6699,-2.8076,83,1.3697,1.5027,-31.7439,55.0551,35,0.1201,8412,3.9886,66.9041
lg,1625105442539040895,0,0.4536,-0.2849,1.1016,732,46.3867,-82.2754,5.0049,83,1.3707,1.5037,-34.0855,56.2326,35,0.1201,8371,3.9886,65.0408
lg,1625105442539068562,0,0.5703,-0.2292,0.9795,733,52.7344,-73.4863,11.6577,83,1.3687,1.5027,-36.6117,57.631,35,0.1191,8418,3.9886,63.601
lg,1625105442539095580,0,0.6226,-0.175,0.9275,734,55.7251,-65.4297,14.2822,83,1.3677,1.5027,-39.0511,59.1155,35,0.1191,8407,3.9886,62.4868
lg,1625105442539332228,0,0.7158,-0.0676,0.8606,735,50.7202,-19.4702,20.9351,83,1.3677,1.5027,-40.7963,59.2799,35,0.1191,8437,3.9886,63.4751
lg,1625105442539394413,0,0.6736,-0.0706,0.8572,736,31.0059,51.1475,24.4141,83,1.3677,1.5027,-41.0619,56.3974,35,0.1201,8469,3.9886,67.8955
lg,1625105442892639024,0,0.1155,-0.2585,1.1665,737,10.9863,133.7891,20.0806,83,1.3657,1.5027,-38.3426,50.6361,35,0.1161,26323,3.9886,75.4222
lg,1625105442892676191,0,-0.0217,-0.2122,1.1699,738,23.9258,60.3638,16.8457,83,1.3647,1.5017,-36.5299,47.3591,35,0.1161,13341,3.9886,79.8245
lg,1625105442892696950,0,0.0281,-0.1606,1.1396,739,21.1182,-11.1084,22.1558,83,1.3647,1.5017,-36.7356,45.6549,35,0.1171,7894,3.9886,81.5699
lg,1625105442892716506,0,0.1931,-0.2151,1.1123,740,14.3433,-53.5889,28.6255,83,1.3647,1.5027,-38.6016,44.4041,35,0.1161,7884,3.9886,82.0908
lg,1625105442892735580,0,0.3708,-0.2576,1.1411,741,13.3667,-60.791,27.2217,83,1.3647,1.5027,-40.8827,43.3125,35,0.1171,10727,3.9886,82.4006
lg,1625105442892753635,0,0.439,-0.2842,1.1526,742,14.9536,-50.1099,25.6348,83,1.3657,1.5027,-42.8612,42.092,35,0.1161,7879,3.9886,83.1332
lg,1625105442892771265,0,0.4719,-0.2427,1.1531,743,18.5547,-18.3716,14.5874,83,1.3657,1.5027,-43.5492,40.5261,35,0.1161,9542,3.9886,84.6746
lg,1625105442892788672,0,0.3831,-0.1978,1.1064,744,20.9351,6.5308,2.5024,83,1.3647,1.5027,-42.9863,38.8388,35,0.1161,7929,3.9886,86.5993
lg,1625105442892828339,0,0.2737,-0.0872,1.0417,745,15.625,20.3247,-1.5259,83,1.3647,1.5017,-41.6293,36.995,35,0.1161,7948,3.9886,88.619
lg,1625105442892848247,0,0.1553,-0.0828,1.0498,746,-0.9766,30.3345,4.5776,83,1.3657,1.5037,-39.8609,34.2579,35,0.1151,9500,3.9886,91.0511
lg,1625105442892866024,0,0.1062,-0.1182,1.0586,747,-8.1177,26.123,9.9487,80,1.3657,1.5037,-38.2509,31.3163,35,0.1151,7994,3.9886,93.4156
lg,1625105442892883561,0,0.1077,-0.22,1.0557,748,-12.8784,-2.6855,15.2588,80,1.3667,1.5037,-37.7764,28.4785,35,0.1151,8054,3.9886,95.2219
lg,1625105442892900450,0,0.1738,-0.2534,1.0203,749,-8.9722,-29.1748,18.3105,80,1.3667,1.5027,-38.3992,26.1123,35,0.1161,8060,3.9886,96.5393
lg,1625105442892917469,0,0.2422,-0.2305,0.9783,750,-6.7139,-33.6304,20.0806,80,1.3667,1.5027,-39.2853,23.9206,35,0.1151,8046,3.9886,97.8564
lg,1625105442892934228,0,0.3098,-0.2463,0.9465,751,-4.5166,-32.959,19.5312,80,1.3677,1.5027,-40.2326,21.815,35,0.1141,8047,3.9886,99.236
lg,1625105442892951043,0,0.3162,-0.2588,0.9597,752,-1.77,-25.5127,18.4937,80,1.3667,1.5027,-40.8297,19.7538,35,0.1121,8291,3.9886,100.7739
lg,1625105442892968228,0,0.3154,-0.251,0.957,753,-0.1831,-20.6909,18.0664,80,1.3677,1.5027,-41.1759,17.7632,35,0.1121,8076,3.9886,102.3878
lg,1625105442892985061,0,0.2974,-0.2517,0.9705,754,3.418,-14.0991,12.5122,80,1.3667,1.5037,-41.1147,16.0814,35,0.1121,8066,3.9886,103.823
lg,1625105442893002469,0,0.2937,-0.2197,1.0105,755,6.5918,-11.2305,11.9629,80,1.3677,1.5027,-40.8601,14.6738,35,0.1121,8131,3.9886,105.1805
lg,1625105442893020043,0,0.2866,-0.2209,0.9905,756,7.0801,-11.3525,12.146,80,1.3677,1.5017,-40.5689,13.3279,35,0.1111,8195,3.9886,106.52
lg,1625105442893036932,0,0.2549,-0.2329,1.0295,757,5.6763,-11.1084,10.2539,80,1.3687,1.5027,-40.1914,12.0256,35,0.1131,8147,3.9886,107.7445
lg,1625105442893054172,0,0.2561,-0.2168,1.0308,758,4.0283,-12.146,11.5967,80,1.3687,1.5037,-39.851,10.7203,35,0.1121,8193,3.9886,108.9644
lg,1625105442893071395,0,0.2542,-0.1982,1.0271,759,4.5776,-14.1602,13.916,80,1.3677,1.5017,-39.6322,9.5135,35,0.1111,8230,3.9886,110.1782
lg,1625105442893101913,0,0.269,-0.2026,1.0264,760,2.2583,-15.1978,14.2212,80,1.3687,1.4997,-39.4274,8.2136,35,0.1121,8256,3.9886,111.4245
lg,1625105442893120413,0,0.2617,-0.1997,0.9988,761,-2.3804,-17.7612,15.686,80,1.3687,1.5017,-39.3163,6.739,35,0.1131,8315,3.9886,112.7076
lg,1625105442893229358,0,0.2732,-0.2212,0.9929,762,-3.9062,-21.1182,16.9067,80,1.3687,1.5007,-39.3524,5.1732,35,0.1121,8253,3.9886,114.0512
lg,1625105442893290543,0,0.2615,-0.2227,1.0083,763,-2.4414,-22.9492,16.7847,80,1.3687,1.5007,-39.4026,3.7291,35,0.1121,9010,3.9886,115.3653
lg,1625105442893373580,0,0.2734,-0.2085,0.9873,764,-2.8076,-24.9023,19.7144,80,1.3687,1.4997,-39.5399,2.2524,35,0.1111,8385,3.9886,116.7974
lg,1625105442893395543,0,0.2827,-0.2163,0.9995,765,-2.0752,-27.2827,19.8975,80,1.3697,1.5007,-39.7515,0.8318,35,0.1111,8572,3.9886,118.2376
lg,1625105442893416228,0,0.2944,-0.2385,0.9849,766,-0.4272,-28.5645,17.9443,80,1.3687,1.4997,-40.0147,-0.4844,35,0.1101,8294,3.9886,119.6161
lg,1625105442893437376,0,0.3237,-0.2231,0.9788,767,0.2441,-28.9307,16.2964,80,1.3697,1.4997,-40.3182,-1.6423,35,0.1111,8317,3.9886,120.8818
lg,1625105442893463321,0,0.3181,-0.2305,1.0068,768,0.1221,-29.1748,14.7095,80,1.3707,1.4997,-40.5768,-2.7268,35,0.1101,8338,3.9886,122.068
lg,1625105443265896098,0,0.3115,-0.2219,0.968,769,1.3428,-33.6304,11.4136,80,1.3717,1.4987,-41.0059,-3.6314,35,0.1081,27302,3.9886,123.0939
lg,1625105443265930765,0,0.342,-0.1956,0.9695,770,0.9155,-37.5977,14.1602,80,1.3717,1.4987,-41.6116,-4.5663,35,0.1081,16169,3.9886,124.2385
lg,1625105443265951654,0,0.3721,-0.197,0.9683,771,-1.3428,-37.1704,15.2588,80,1.3717,1.4977,-42.2164,-5.6221,35,0.1081,7774,3.9886,125.4569
lg,1625105443265971561,0,0.3794,-0.2263,0.9722,772,-2.1362,-35.5835,14.9536,80,1.3717,1.4977,-42.6468,-6.7994,35,0.1091,7820,3.9886,126.7276
lg,1625105443265993450,0,0.3772,-0.2256,0.9861,773,-2.8076,-31.3721,15.0146,80,1.3727,1.4977,-42.9466,-7.9106,35,0.1091,7848,3.9886,127.96
lg,1625105443266012487,0,0.4109,-0.2302,0.9832,774,-1.3428,-28.8086,15.564,80,1.3727,1.4977,-43.1772,-8.954,35,0.1101,9155,3.9886,129.2086
lg,1625105443266052135,0,0.4065,-0.2217,0.9561,775,-0.1221,-22.9492,13.916,80,1.3737,1.4987,-43.1782,-9.813,35,0.1101,8443,3.9886,130.3026
lg,1625105443266071524,0,0.4028,-0.2097,0.9636,776,-0.4272,-19.165,14.1602,80,1.3737,1.4977,-42.8314,-10.6068,35,0.1081,7871,3.9886,131.2802
lg,1625105443266089598,0,0.3733,-0.2249,0.9697,777,-0.7935,-11.9019,13.6719,80,1.3737,1.4977,-42.3232,-11.3308,35,0.1071,7910,3.9886,132.2101
lg,1625105443266107302,0,0.3618,-0.238,0.978,778,0.6104,-9.0332,13.4888,80,1.3747,1.4977,-41.6874,-11.9588,35,0.1081,7944,3.9886,133.0932
lg,1625105443266141394,0,0.3528,-0.2288,1.012,779,1.8921,-7.7515,15.1367,80,1.3747,1.4937,-41.0234,-12.4675,35,0.1081,7912,3.9886,133.9718
lg,1625105443266159783,0,0.343,-0.2068,0.9722,780,2.5635,-5.9204,15.5029,80,1.3757,1.4977,-40.2931,-12.8616,35,0.1061,9867,3.9886,134.7923
lg,1625105443266177969,0,0.3491,-0.1926,0.9761,781,2.3804,-6.2866,16.9678,80,1.3757,1.4977,-39.5634,-13.279,35,0.1061,8047,3.9886,135.6703
lg,1625105443266195635,0,0.3442,-0.2295,0.9729,782,0.6714,-9.2773,19.165,80,1.3757,1.4977,-38.9361,-13.9249,35,0.1071,8091,3.9886,136.7391
lg,1625105443266212913,0,0.3591,-0.2356,0.969,783,0.2441,-11.5356,18.5547,80,1.3757,1.4967,-38.4884,-14.5172,35,0.1071,8008,3.9886,137.7643
lg,1625105443266230561,0,0.3816,-0.2144,0.957,784,1.0376,-16.1743,17.9443,80,1.3767,1.4967,-38.2471,-15.0605,35,0.1061,7958,3.9886,138.8
lg,1625105443266247987,0,0.3823,-0.2175,0.9546,785,0.6714,-16.0522,18.1274,80,1.3757,1.4967,-38.0033,-15.6049,35,0.1061,8349,3.9886,139.8355
lg,1625105443266264987,0,0.3828,-0.2383,0.96,786,-0.1831,-13.4277,16.9067,80,1.3757,1.4967,-37.6663,-16.1468,35,0.1081,8818,3.9886,140.7922
lg,1625105443266282580,0,0.4048,-0.2258,0.9607,787,-0.2441,-10.9253,17.334,80,1.3757,1.4967,-37.2794,-16.6197,35,0.1071,8457,3.9886,141.6986
lg,1625105443266300043,0,0.4028,-0.2349,0.9529,788,0.1831,-8.606,17.5781,80,1.3767,1.4967,-36.8104,-17.0618,35,0.1071,8738,3.9886,142.5848
lg,1625105443266317672,0,0.4045,-0.2485,0.9543,789,0.6104,-5.3711,19.043,80,1.3767,1.4967,-36.2124,-17.5042,35,0.1071,8405,3.9886,143.497
lg,1625105443266346413,0,0.4019,-0.2507,0.9678,790,0.4272,-3.9062,19.5312,80,1.3767,1.4957,-35.4883,-17.8915,35,0.1071,8385,3.9886,144.3817
lg,1625105443266365469,0,0.4114,-0.2517,0.9729,791,1.2207,-0.4272,18.7988,80,1.3767,1.5027,-34.6957,-18.1234,35,0.1071,9602,3.9886,145.1345
lg,1625105443266382228,0,0.3921,-0.2405,0.9646,792,2.0142,2.1973,19.4702,80,1.3777,1.4957,-33.8212,-18.3346,35,0.1071,9609,3.9886,145.8849
lg,1625105443266400117,0,0.3889,-0.2249,0.967,793,3.0518,4.5776,18.7378,80,1.3777,1.4947,-32.9206,-18.4065,35,0.1081,8952,3.9886,146.5346
lg,1625105443266496876,0,0.3628,-0.2297,0.9661,794,3.6011,4.9438,16.4795,80,1.3777,1.4967,-32.0178,-18.3943,35,0.1071,8211,3.9886,147.0779
lg,1625105443266519043,0,0.3499,-0.2185,0.9688,795,3.54,2.5635,15.0757,80,1.3787,1.4967,-31.2335,-18.3315,35,0.1071,8582,3.9886,147.5767
lg,1625105443266539876,0,0.3372,-0.2053,0.9648,796,3.2349,-0.4272,15.3198,80,1.3787,1.4967,-30.5573,-18.2872,35,0.1071,8371,3.9886,148.1222
lg,1625105443266561024,0,0.353,-0.1975,0.9678,797,2.8687,-4.3945,16.6016,80,1.3787,1.4947,-30.0866,-18.2774,35,0.1071,9020,3.9886,148.7653
lg,1625105443266659543,0,0.3594,-0.2058,0.9634,798,1.8921,-6.1035,15.8691,80,1.3787,1.4957,-29.7213,-18.3209,35,0.1071,9740,3.9886,149.4123
lg,1625105443266684376,0,0.3726,-0.2012,0.9497,799,0.9155,-7.0801,15.9912,80,1.3797,1.4967,-29.4424,-18.4042,35,0.1071,11264,3.9886,150.0759
lg,1625105443266707024,0,0.3787,-0.2061,0.9539,800,0.5493,-7.6294,17.334,80,1.3787,1.4967,-29.1848,-18.5376,35,0.1071,9009,3.9886,150.8086
lg,1625105443624718728,0,0.3733,-0.2351,0.9524,801,1.6479,-6.4087,14.4043,80,1.3787,1.4947,-28.9097,-18.6175,35,0.1071,28043,3.9886,151.4274
lg,1625105443624761209,0,0.3623,-0.2273,0.9509,802,1.9531,-4.6997,13.5498,80,1.3797,1.4957,-28.5726,-18.6299,35,0.1071,15364,3.9886,151.9729
lg,1625105443624781857,0,0.3726,-0.2141,0.9578,803,1.709,-5.8594,14.7705,80,1.3797,1.4957,-28.2961,-18.6466,35,0.1071,7699,3.9886,152.5705
lg,1625105443624801320,0,0.3911,-0.2263,0.9521,804,1.4648,-5.8594,14.5264,80,1.3797,1.4957,-28.0708,-18.698,35,0.1071,7699,3.9886,153.173
lg,1625105443624846228,0,0.3831,-0.2292,0.9631,805,0.8545,-5.4321,15.2588,80,1.3807,1.4957,-27.8035,-18.7802,35,0.1071,7699,3.9886,153.7989
lg,1625105443624866931,0,0.3855,-0.2295,0.9573,806,0.7935,-4.6997,16.1133,80,1.3807,1.4957,-27.5163,-18.8742,35,0.1071,9461,3.9886,154.4503
lg,1625105443624884431,0,0.3928,-0.2188,0.9622,807,1.5869,-3.479,15.686,80,1.3807,1.4957,-27.2133,-18.8851,35,0.1081,11548,3.9886,155.0504
lg,1625105443624902376,0,0.3901,-0.2231,0.9683,808,1.0986,-2.3193,15.5029,80,1.3807,1.4947,-26.8697,-18.9065,35,0.1081,8019,3.9886,155.6281
lg,1625105443624919728,0,0.4102,-0.2322,0.9614,809,1.3428,-2.0752,14.6484,80,1.3817,1.4957,-26.5942,-18.9156,35,0.1081,7804,3.9886,156.1743
lg,1625105443624936598,0,0.4492,-0.2451,0.9768,810,2.0752,-0.9155,15.0146,80,1.3817,1.4957,-26.3293,-18.9212,35,0.1081,7777,3.9886,156.7319
lg,1625105443624953654,0,0.4788,-0.2322,0.9539,811,4.5776,5.3101,14.2212,80,1.3817,1.4957,-25.9292,-18.7561,35,0.1081,7773,3.9886,157.1596
lg,1625105443624972339,0,0.4697,-0.2244,0.9558,812,5.6763,11.5967,14.9536,80,1.3817,1.4957,-25.2836,-18.5056,35,0.1081,8631,3.9886,157.524
lg,1625105443624989746,0,0.4695,-0.2122,0.9478,813,5.7983,25.8179,16.2354,80,1.3797,1.4957,-24.1217,-18.1724,35,0.1081,8460,3.9886,157.7416
lg,1625105443625006487,0,0.427,-0.2183,0.9614,814,4.4556,36.6211,15.4419,80,1.3827,1.4957,-22.5133,-17.8349,35,0.1081,7933,3.9886,157.7965
lg,1625105443625023931,0,0.3684,-0.2219,0.9587,815,4.6997,39.5508,15.625,80,1.3837,1.4957,-20.6492,-17.465,35,0.1091,8235,3.9886,157.7725
lg,1625105443625041450,0,0.3257,-0.2207,0.9739,816,5.249,41.626,15.3809,80,1.3827,1.4957,-18.778,-17.0967,35,0.1091,7943,3.9886,157.8011
lg,1625105443625058579,0,0.282,-0.2061,0.9573,817,5.9204,39.856,15.5029,80,1.3817,1.4957,-16.969,-16.7004,35,0.1081,8004,3.9886,157.8705
lg,1625105443625076320,0,0.2483,-0.1931,0.9705,818,5.188,34.6069,15.4419,80,1.3837,1.4967,-15.356,-16.3294,35,0.1091,7974,3.9886,158.0109
lg,1625105443625093746,0,0.2341,-0.1936,0.9724,819,4.2725,30.0903,16.7847,80,1.3827,1.4937,-13.9338,-16.034,35,0.1091,7992,3.9886,158.2746
lg,1625105443625144746,0,0.2327,-0.2019,0.9817,820,2.9907,18.6157,18.5547,80,1.3837,1.4967,-12.9805,-15.8575,35,0.1091,8006,3.9886,158.7537
lg,1625105443625167839,0,0.2424,-0.1963,0.9766,821,2.1973,12.0239,19.2871,80,1.3827,1.4957,-12.5418,-15.7261,35,0.1101,8057,3.9886,159.3784
lg,1625105443625185746,0,0.2544,-0.2024,1.0039,822,1.6479,2.9907,17.8833,80,1.3827,1.4957,-12.2876,-15.6305,35,0.1101,8030,3.9886,160.012
lg,1625105443625205561,0,0.2568,-0.2061,0.9917,823,0.6714,-3.2349,17.6392,80,1.3837,1.4967,-12.2965,-15.6023,35,0.1101,8196,3.9886,160.7094
lg,1625105443625224913,0,0.262,-0.2048,0.9832,824,-0.1831,-6.958,16.7847,80,1.3837,1.4967,-12.5933,-15.6057,35,0.1111,8088,3.9886,161.4009
lg,1625105443625245913,0,0.2783,-0.2019,0.9961,825,-0.3662,-11.7188,16.4795,80,1.3837,1.4967,-12.9712,-15.6265,35,0.1111,8109,3.9886,162.1449
lg,1625105443625265876,0,0.2883,-0.2009,0.9819,826,-1.8311,-17.8833,17.4561,80,1.3837,1.4967,-13.5882,-15.7409,35,0.1111,8277,3.9886,162.998
lg,1625105443625284487,0,0.3123,-0.2119,0.9866,827,-2.2583,-19.2261,16.8457,80,1.3847,1.4967,-14.3396,-15.9131,35,0.1121,8243,3.9886,163.8864
lg,1625105443625302691,0,0.3311,-0.2322,0.9934,828,-2.4414,-22.522,18.6157,80,1.3847,1.4937,-15.1373,-16.1526,35,0.1111,8194,3.9886,164.8568
lg,1625105443625321357,0,0.3787,-0.2202,0.9673,829,-2.0142,-22.9492,17.2119,80,1.3837,1.4967,-16.047,-16.357,35,0.1111,8233,3.9886,165.776
lg,1625105443625340283,0,0.3997,-0.2065,0.9585,830,-0.6104,-17.334,17.395,80,1.3847,1.4967,-16.7525,-16.4708,35,0.1111,8271,3.9886,166.6308
lg,1625105443625442709,0,0.4006,-0.2334,0.97,831,-0.061,-13.0615,15.564,80,1.3837,1.4967,-17.2735,-16.5838,35,0.1111,8270,3.9886,167.3767
lg,1625105443625503598,0,0.3704,-0.2283,0.9905,832,-0.3662,-6.4087,15.5029,80,1.3847,1.4967,-17.4462,-16.6621,35,0.1111,8991,3.9886,168.0329
lg,1625105443984709450,0,0.3799,-0.2124,0.9695,833,0.9766,-1.709,15.9302,80,1.3837,1.4957,-17.4646,-16.6499,35,0.1101,27765,3.9886,168.6414
lg,1625105443984908301,0,0.3423,-0.2192,0.978,834,0.6714,3.54,15.3809,80,1.3847,1.4957,-17.2053,-16.6324,35,0.1111,16727,3.9886,169.1671
lg,1625105443984944283,0,0.3247,-0.2161,0.9763,835,0.5493,3.7842,15.625,80,1.3847,1.4967,-16.9104,-16.6128,35,0.1111,7709,3.9886,169.6978
lg,1625105443984971079,0,0.3271,-0.2273,0.9824,836,0.4883,2.1973,15.2588,80,1.3847,1.4967,-16.6738,-16.6034,35,0.1101,7719,3.9886,170.2357
lg,1625105443985000005,0,0.3059,-0.2334,0.9866,837,0.9155,0.7324,15.3198,80,1.3847,1.4967,-16.472,-16.6044,35,0.1111,7708,3.9886,170.8006
lg,1625105443985026024,0,0.3223,-0.2185,0.9854,838,1.2207,-0.9766,14.0991,80,1.3847,1.4967,-16.3946,-16.5527,35,0.1111,7752,3.9886,171.3282
lg,1625105443985047246,0,0.3252,-0.2178,0.9841,839,1.0376,-1.2207,14.7705,80,1.3877,1.4967,-16.3024,-16.5005,35,0.1111,8056,3.9886,-188.1187
lg,1625105443985068820,0,0.3271,-0.2051,0.9856,840,0.9155,-1.8311,13.855,80,1.3837,1.4967,-16.2804,-16.4348,35,0.1111,7893,3.9886,-187.5974
lg,1625105443985087616,0,0.3228,-0.2346,0.9602,841,0.7324,-3.3569,13.5498,80,1.3857,1.4967,-16.323,-16.4582,35,0.1111,7837,3.9886,-187.0474
lg,1625105443985110468,0,0.3398,-0.21,0.9783,842,0.7935,-5.0049,15.625,80,1.3857,1.4957,-16.4312,-16.4452,35,0.1111,7868,3.9886,-186.4129
lg,1625105443985128764,0,0.3335,-0.2188,0.9683,843,0.8545,-4.0283,14.6484,80,1.3857,1.4967,-16.5009,-16.4409,35,0.1111,7884,3.9886,-185.822
lg,1625105443985147357,0,0.3508,-0.1907,0.9844,844,1.6479,-3.0518,14.9536,80,1.3857,1.4967,-16.5575,-16.3379,35,0.1111,8105,3.9886,-185.2501
lg,1625105443985169672,0,0.3477,-0.2251,0.9812,845,1.4038,-1.2817,14.4653,80,1.3857,1.4947,-16.5393,-16.3133,35,0.1111,7979,3.9886,-184.6955
lg,1625105443985191190,0,0.3469,-0.2139,0.981,846,1.5869,0.4883,13.855,80,1.3857,1.4967,-16.4624,-16.2449,35,0.1111,7966,3.9886,-184.1929
lg,1625105443985210690,0,0.3323,-0.2168,0.9834,847,1.6479,0.3052,13.916,80,1.3867,1.4967,-16.3659,-16.2099,35,0.1111,7998,3.9886,-183.5925
lg,1625105443985228616,0,0.3364,-0.2085,0.9915,848,1.709,-0.3052,16.0522,80,1.3857,1.4967,-16.2754,-16.1493,35,0.1111,7951,3.9886,-182.996
lg,1625105443985261283,0,0.3257,-0.2307,0.9927,849,1.6479,0.1221,13.6108,80,1.3867,1.4977,-16.1734,-16.1106,35,0.1101,8031,3.9886,-182.4882
lg,1625105443985280579,0,0.3281,-0.2085,0.9763,850,1.6479,-0.7324,14.4653,80,1.3857,1.4967,-16.1016,-16.0357,35,0.1101,8105,3.9886,-181.9356
lg,1625105443985299246,0,0.3245,-0.2122,0.9861,851,1.6479,-1.0376,15.8691,80,1.3857,1.4967,-16.032,-15.992,35,0.1101,8066,3.9886,-181.3328
lg,1625105443985317005,0,0.3323,-0.2124,0.9905,852,1.9531,-1.5259,15.0757,80,1.3867,1.4967,-16.006,-15.9289,35,0.1101,8105,3.9886,-180.7558
lg,1625105443985334505,0,0.333,-0.2195,0.9785,853,1.4038,-2.0142,14.5264,80,1.3857,1.4967,-16.0142,-15.9068,35,0.1101,11371,3.9886,-180.1885
