name,time,activity,ax,ay,az,batch_val,gx,gy,gz,ibat,index,middle,pitch,roll,temp,thumb,ts,vbat,yaw
rg,1625105451418859388,1,0.0974,-0.0439,1.0437,1,0.9155,-18.7988,19.3481,63,1.1286,1.0425,-16.8542,-6.7221,31,0.6593,19905,4.0865,-59.4066
rg,1625105451418893369,1,0.0928,-0.0574,1.0571,2,0.9766,-13.5498,18.6768,63,1.1296,1.0365,-16.8339,-6.7762,31,0.6553,33843,4.0865,-58.6087
rg,1625105451418914110,1,0.0854,-0.0525,1.0574,3,1.5869,-11.5967,19.7754,63,1.1306,1.0355,-16.7164,-6.8023,31,0.6543,8009,4.0865,-57.7785
rg,1625105451418933573,1,0.0522,-0.0425,1.0703,4,2.0752,-10.376,19.5923,63,1.1306,1.0335,-16.4657,-6.8287,31,0.6533,8012,4.0865,-56.9438
rg,1625105451418951869,1,0.021,-0.0234,1.0696,5,1.77,-10.3149,20.752,62,1.1306,1.0315,-16.1742,-6.7824,31,0.6523,7980,4.0854,-56.0995
rg,1625105451418969350,1,-0.0386,0.0071,1.0701,6,0.4883,-14.6484,27.5269,62,1.1316,1.0275,-15.9146,-6.8014,31,0.6503,8021,4.0854,-54.9723
rg,1625105451418986221,1,-0.0447,0.0054,1.0752,7,-3.1128,-22.0947,28.4424,62,1.1316,1.0225,-16.3115,-7.2003,31,0.6473,7958,4.0854,-53.6702
rg,1625105451419022146,1,-0.0186,-0.0342,1.1033,8,-6.7749,-38.8794,28.9307,62,1.1316,1.0175,-17.0238,-7.6475,31,0.6433,7999,4.0854,-52.3282
rg,1625105451419041294,1,0.0476,-0.0542,1.0693,9,-4.2114,-52.4292,27.2217,62,1.1306,1.0105,-18.3757,-8.0515,31,0.6413,8116,4.0854,-50.9547
rg,1625105451419060146,1,0.1528,-0.0212,1.0583,10,-3.1738,-58.96,26.3672,62,1.1296,1.0025,-20.191,-8.4571,31,0.6373,8032,4.0854,-49.6145
rg,1625105451419078831,1,-0.1558,-0.7058,0.5308,11,138.1226,32.4707,-18.0054,220,0.7524,0.3552,-18.085,-4.3256,31,0.6033,14216,4.0194,-49.9117
rg,1625105451419096812,1,-0.1638,-0.5388,0.4739,12,91.6748,-5.3101,-9.7656,220,0.7634,0.3762,-17.3548,-2.1783,31,0.6053,7831,4.0194,-49.7807
rg,1625105451419114071,1,-0.1294,-0.5459,0.468,13,63.6597,-18.3105,1.709,220,0.7644,0.3922,-18.3552,-3.3735,31,0.6063,7713,4.0194,-49.0073
rg,1625105451419130904,1,-0.0356,-0.5974,0.6526,14,-46.6309,-94.0552,2.6245,220,0.7444,0.4002,-21.4188,-6.9026,31,0.6063,7668,4.0194,-48.075
rg,1625105451419148034,1,0.1772,-0.8447,0.7424,15,-132.019,-180.2368,-3.479,220,0.7184,0.3942,-28.1655,-14.3406,31,0.6053,7787,4.0194,-46.1777
rg,1625105451419164941,1,0.3066,-1.0745,0.6973,16,-141.6626,-204.1626,-0.061,220,0.6973,0.3472,-35.4777,-23.3515,31,0.5983,7761,4.0194,-42.2703
rg,1625105451419191756,1,0.5857,-1.3281,0.697,17,-108.0322,-195.8618,36.377,220,0.6863,0.3021,-41.2781,-33.2788,31,0.5903,7864,4.0194,-34.935
rg,1625105451419209607,1,0.8667,-1.1206,0.915,18,35.4004,-122.7417,58.5938,220,0.6853,0.2841,-43.5378,-36.9752,31,0.5933,7804,4.0194,-27.9843
rg,1625105451419226663,1,0.7568,-1.061,0.325,19,131.5918,-93.0176,54.5654,220,0.6833,0.2741,-45.3907,-36.8241,31,0.5923,8200,4.0194,-21.5742
rg,1625105451419243255,1,0.8718,-0.6516,0.2903,20,129.3335,-74.0967,32.7759,220,0.6823,0.2641,-47.3174,-35.6283,31,0.5913,7836,4.0194,-16.7694
rg,1625105451419259589,1,0.4329,-0.3013,0.2708,21,113.4644,29.541,-2.3193,220,0.6833,0.2651,-46.3961,-30.8115,31,0.5893,7987,4.0194,-17.4834
rg,1625105451419276959,1,0.3213,-0.1265,0.2029,22,109.8633,55.7251,7.4463,220,0.6843,0.2621,-44.5703,-25.6456,31,0.5893,7862,4.0194,-18.6201
rg,1625105451419293848,1,0.1948,0.0659,0.1636,23,61.5845,59.2651,9.0332,220,0.6873,0.2641,-42.7027,-21.0307,31,0.5893,7991,4.0194,-20.6022
rg,1625105451419310347,1,0.23,0.0078,0.3076,24,-53.6499,25.6958,9.2163,220,0.6903,0.2651,-41.4725,-22.1889,31,0.5913,7907,4.0194,-21.3023
rg,1625105451419327884,1,0.3865,-0.2314,0.5901,25,-122.3145,15.9302,12.9395,220,0.6943,0.2711,-40.0519,-27.6632,31,0.5933,8039,4.0194,-20.7725
rg,1625105451419344403,1,0.6443,-1.0732,1.1924,26,-189.8804,69.7632,15.3809,220,0.7003,0.2811,-36.6848,-35.1086,31,0.5993,7920,4.0194,-21.5941
rg,1625105451419361643,1,0.3625,-1.6013,0.95,27,-109.314,132.6904,1.9531,220,0.7083,0.2891,-31.5312,-38.4289,31,0.6033,8249,4.0194,-24.7364
rg,1625105451419377717,1,0.1719,-1.646,1.1467,28,-59.8755,146.6675,-3.9062,220,0.7184,0.3001,-26.0956,-37.1463,31,0.6073,8060,4.0194,-28.4412
rg,1625105451419393698,1,-0.0906,-1.2571,1.1106,29,60.4858,91.2476,2.7466,220,0.7324,0.3082,-22.0014,-34.3155,31,0.6083,8327,4.0194,-30.4394
rg,1625105451419410309,1,0.1108,-0.8813,0.6921,30,125.9766,-20.2637,2.6245,220,0.7484,0.3212,-22.0317,-30.2401,31,0.6083,8015,4.0194,-29.577
rg,1625105451419427291,1,0.3013,-0.6606,0.5002,31,117.1875,-43.8843,5.188,220,0.7684,0.3452,-23.7007,-27.1543,31,0.6063,8128,4.0194,-27.8839
rg,1625105451419443957,1,0.3176,-0.5461,0.3374,32,111.2671,-50.7202,6.8359,220,0.7904,0.3632,-25.6246,-24.3864,31,0.6033,8024,4.0194,-26.1785
rg,1625105451769932072,1,0.2805,-0.6965,0.6831,33,-92.4683,-69.6411,13.855,220,0.7634,0.4052,-27.5017,-29.8178,31,0.6003,24777,4.0194,-23.84
rg,1625105451770067441,1,0.3892,-0.9741,0.5859,34,-127.5635,-116.9434,20.5078,220,0.7143,0.3972,-30.6496,-37.9079,31,0.6013,9306,4.0194,-19.5395
rg,1625105451770092348,1,0.5879,-1.2888,0.5342,35,-112.4268,-108.4595,57.9834,220,0.6843,0.3312,-32.0728,-46.4038,31,0.5893,9265,4.0194,-13.5141
rg,1625105451770112940,1,0.7798,-0.8896,0.8892,36,41.9922,-20.2637,76.5991,220,0.6803,0.2701,-30.3958,-46.3004,31,0.5893,16608,4.0194,-10.3938
rg,1625105451770138348,1,0.5171,-0.8066,0.3904,37,134.5825,13.3057,61.9507,220,0.6783,0.2601,-29.3973,-42.6268,31,0.5873,7533,4.0194,-7.215
rg,1625105451770164033,1,0.6438,-0.5854,0.3718,38,104.4312,-19.6533,46.3867,220,0.6783,0.2571,-29.3139,-40.0148,31,0.5863,7603,4.0194,-4.7986
rg,1625105451770182514,1,0.2283,-0.4902,0.4133,39,72.1436,61.0352,-13.6108,220,0.6783,0.2551,-27.3769,-36.5021,31,0.5843,7502,4.0194,-6.7938
rg,1625105451770200606,1,0.1111,-0.4109,0.3826,40,76.2329,90.271,-7.6904,220,0.6803,0.2521,-23.9844,-32.805,31,0.5843,7644,4.0194,-9.1308
rg,1625105451770218125,1,-0.0898,-0.2212,0.2656,41,56.4575,110.9009,3.418,220,0.6833,0.2571,-18.7411,-29.9879,31,0.5843,8628,4.0194,-11.3387
rg,1625105451770272791,1,-0.1375,-0.1243,0.4014,42,-3.2349,37.6587,6.2866,220,0.6873,0.2611,-15.9677,-29.4473,31,0.5863,7853,4.0194,-12.0504
rg,1625105451770291532,1,-0.0833,-0.1997,0.5291,43,-49.1943,-11.5356,2.9907,220,0.6933,0.2721,-15.3743,-31.1369,31,0.5913,8459,4.0194,-11.8143
rg,1625105451770313568,1,0.3853,-1.1887,1.136,44,-133.9722,-57.6782,12.7563,220,0.7033,0.2901,-16.4521,-37.5875,31,0.6003,11225,4.0194,-10.0408
rg,1625105451770340753,1,0.4473,-1.4883,1.0735,45,-103.6377,-18.9209,12.8784,220,0.7133,0.2981,-16.6012,-42.6283,31,0.6073,7898,4.0194,-8.9401
rg,1625105451770359531,1,0.302,-1.5518,0.9617,46,10.498,37.5366,-5.188,220,0.7294,0.3071,-15.3768,-42.4909,31,0.6133,8456,4.0194,-9.9796
rg,1625105451770377216,1,0.229,-1.071,0.8101,47,104.6753,28.2593,-11.4746,220,0.7464,0.3232,-14.6041,-38.4365,31,0.6163,8378,4.0194,-10.9839
rg,1625105451770580196,1,0.2334,-0.824,0.6936,48,126.0986,6.3477,-17.8833,220,0.7674,0.3422,-14.7384,-33.6665,31,0.6163,8231,4.0194,-11.6179
rg,1625105451770604029,1,0.21,-0.4805,0.4065,49,110.4126,-22.9492,-21.9116,220,0.7834,0.3592,-16.1445,-29.8011,31,0.6163,8415,4.0194,-11.7374
rg,1625105451770623862,1,0.1809,-0.4089,0.4939,50,19.7144,-0.3052,-10.5591,220,0.7904,0.3772,-16.3531,-29.2897,31,0.6183,9237,4.0194,-12.0068
rg,1625105451770642251,1,0.1187,-0.5867,0.6924,51,-80.2002,-30.7617,-1.8921,220,0.7774,0.3842,-17.0917,-33.0958,31,0.6183,7861,4.0194,-11.2935
rg,1625105451770672676,1,0.2249,-0.7317,0.7319,52,-116.4551,-72.4487,4.6997,220,0.7424,0.3842,-19.1246,-38.8129,31,0.6163,7955,4.0194,-9.2094
rg,1625105451770698010,1,0.4431,-1.0398,0.6855,53,-144.4092,-124.5728,15.7471,220,0.7113,0.3742,-22.3616,-46.7164,31,0.6143,7911,4.0194,-4.8664
rg,1625105451770717454,1,0.6677,-1.2998,0.5374,54,-127.8076,-123.7793,46.814,220,0.6873,0.3192,-24.1681,-54.7579,31,0.6033,8775,4.0194,0.9048
rg,1625105451770746009,1,0.7295,-1.2471,0.5647,55,-91.8579,-87.9517,58.1665,220,0.6843,0.2811,-23.2235,-56.9283,31,0.6033,8012,4.0194,3.9112
rg,1625105451770771509,1,0.6118,-1.0129,0.6133,56,65.979,9.0942,60.791,220,0.6803,0.2741,-21.171,-54.7862,31,0.6003,8702,4.0194,5.0722
rg,1625105451770805286,1,0.7688,-0.8589,0.4692,57,91.7358,-37.2314,62.3779,220,0.6793,0.2641,-20.7078,-52.3529,31,0.5983,8397,4.0194,7.9959
rg,1625105451770828138,1,0.3433,-0.7158,0.3569,58,90.5151,25.8789,-1.2817,220,0.6793,0.2521,-20.2082,-48.8476,31,0.5963,8364,4.0194,7.2506
rg,1625105451770852082,1,0.2197,-0.5244,0.2937,59,104.8584,53.2837,-0.6714,220,0.6813,0.2511,-17.8077,-44.0061,31,0.5963,8296,4.0194,5.2246
rg,1625105451770935582,1,0.0117,-0.1616,0.1055,60,115.1123,74.2188,5.127,220,0.6853,0.2561,-14.9287,-39.4016,31,0.5973,8337,4.0194,3.5042
rg,1625105451770958192,1,0.0139,0.0583,0.1665,61,53.772,10.6812,8.606,220,0.6893,0.2601,-14.2335,-35.2585,31,0.5993,8628,4.0194,3.0029
rg,1625105451770975100,1,0.2197,-0.1436,0.3916,62,-90.8203,-41.3818,23.9258,220,0.6963,0.2671,-15.5211,-38.8017,31,0.6053,8894,4.0194,4.706
rg,1625105451770993822,1,0.6892,-1.0959,1.3367,63,-201.9653,-2.1973,28.1982,220,0.7033,0.2811,-15.0609,-47.1068,31,0.6103,8858,4.0194,5.6408
rg,1625105451771015729,1,0.5876,-1.5322,0.9695,64,-159.729,52.7344,23.7427,220,0.7103,0.2921,-12.9454,-54.0019,31,0.6153,8799,4.0194,4.7829
rg,1625105452108358823,1,-0.072,-0.9707,0.814,65,114.3799,65.7349,-19.5923,220,0.7604,0.3152,-11.2922,-48.7241,31,0.6233,25933,4.0194,2.1741
rg,1625105452108403064,1,-0.002,-0.553,0.4585,66,87.0361,-33.7524,-23.9258,220,0.7814,0.3452,-12.5678,-45.4166,31,0.6233,15074,4.0194,2.5512
rg,1625105452108424471,1,0.0613,-0.4932,0.418,67,41.5649,-48.0347,-6.4697,220,0.7884,0.3612,-13.8214,-44.1966,31,0.6253,7671,4.0194,3.7967
rg,1625105452108445897,1,0.1855,-0.5388,0.5376,68,-40.6494,-96.6187,2.9297,220,0.7804,0.3702,-16.4261,-46.6087,31,0.6253,7666,4.0194,6.744
rg,1625105452108465323,1,0.3254,-0.6379,0.6707,69,-88.6841,-128.1738,9.8877,220,0.7444,0.3732,-19.5828,-51.3598,31,0.6243,7530,4.0194,11.0568
rg,1625105452108484322,1,0.5063,-0.9414,0.645,70,-139.4653,-165.7104,13.4888,220,0.7093,0.3702,-23.0418,-59.3324,31,0.6223,7747,4.0194,17.3002
rg,1625105452108503267,1,0.7334,-1.2959,0.5032,71,-136.9019,-169.0674,28.7476,220,0.6863,0.3162,-23.9043,-67.5095,31,0.6083,7959,4.0194,24.2541
rg,1625105452108522044,1,0.8206,-1.2439,0.5833,72,-110.2295,-94.2993,74.0967,220,0.6853,0.2751,-22.6208,-73.7559,31,0.6113,8015,4.0194,29.1582
rg,1625105452108541378,1,0.6509,-1.092,0.4834,73,78.5522,27.0386,81.4209,220,0.6803,0.2631,-19.4409,-70.3063,31,0.6083,8152,4.0194,28.9953
rg,1625105452108561711,1,0.8357,-0.842,0.3999,74,112.2437,-27.5269,73.9746,220,0.6803,0.2551,-17.9641,-66.3403,31,0.6063,8148,4.0194,31.1214
rg,1625105452108580877,1,0.5791,-0.7188,0.3027,75,109.0698,9.0332,20.9351,220,0.6793,0.2521,-17.478,-61.7221,31,0.6043,8147,4.0194,31.0585
rg,1625105452108600488,1,0.2493,-0.406,0.344,76,115.0513,61.7065,0.5493,220,0.6803,0.2481,-16.4998,-56.0227,31,0.6023,8328,4.0194,28.7024
rg,1625105452108619525,1,0.0278,-0.1345,0.1809,77,104.4922,89.5996,12.5732,220,0.6833,0.2511,-13.6198,-50.3792,31,0.6023,8155,4.0194,25.8314
rg,1625105452108638117,1,0.0029,0.0093,0.2336,78,68.7256,68.2983,15.9912,220,0.6873,0.2541,-11.7628,-47.3292,31,0.6033,8031,4.0194,24.5464
rg,1625105452108656043,1,0.0195,-0.0322,0.323,79,-30.6396,14.7095,12.6343,220,0.6923,0.2561,-10.7815,-46.9909,31,0.6053,8103,4.0194,24.1388
rg,1625105452108675599,1,0.2861,-0.5596,0.8921,80,-153.2593,-13.3667,19.4702,220,0.6973,0.2651,-10.7214,-52.6926,31,0.6093,8242,4.0194,24.9633
rg,1625105452108694117,1,0.4194,-1.3538,0.9741,81,-154.6631,28.3203,19.7754,220,0.7043,0.2791,-9.5693,-58.8232,31,0.6173,10440,4.0194,24.4771
rg,1625105452108713024,1,0.2292,-1.6199,0.9626,82,-61.4014,76.355,4.2725,220,0.7174,0.2871,-7.7954,-60.8886,31,0.6233,7961,4.0194,21.8874
rg,1625105452108731580,1,0.0833,-1.4971,1.0225,83,-5.7983,82.2754,-6.5308,220,0.7294,0.3001,-6.1092,-60.4479,31,0.6283,8136,4.0194,18.8252
rg,1625105452108749672,1,-0.0032,-1.0715,0.7893,84,84.8389,22.0337,-13.7329,220,0.7464,0.3122,-5.874,-56.6684,31,0.6313,7903,4.0194,17.76
rg,1625105452108767765,1,0.0657,-0.7756,0.5029,85,92.8345,-35.6445,-17.4561,220,0.7664,0.3292,-7.1851,-53.0533,31,0.6323,8179,4.0194,18.5352
rg,1625105452108785561,1,0.1372,-0.6753,0.4482,86,80.9937,-49.7437,-10.3149,220,0.7784,0.3432,-8.938,-50.2097,31,0.6303,7911,4.0194,19.8759
rg,1625105452108802635,1,0.1509,-0.6006,0.3711,87,34.2407,-45.2881,-11.0474,220,0.7834,0.3592,-10.5625,-49.337,31,0.6323,8185,4.0194,21.0401
rg,1625105452108820523,1,0.157,-0.6753,0.594,88,-55.1758,-65.7349,-10.5591,220,0.7644,0.3702,-12.5173,-51.8605,31,0.6313,8029,4.0194,22.8374
rg,1625105452108839505,1,0.3003,-0.8823,0.5593,89,-96.1304,-92.8345,-4.3945,220,0.7174,0.3752,-15.3787,-57.9328,31,0.6253,8207,4.0194,26.932
rg,1625105452108860468,1,0.4509,-1.2041,0.5034,90,-120.9717,-136.3525,15.3809,220,0.6933,0.3172,-17.5799,-64.6199,31,0.6173,12809,4.0194,32.329
rg,1625105452108880430,1,0.6028,-1.1726,0.5447,91,-47.7295,-85.8154,61.3403,220,0.6833,0.2741,-16.9977,-67.818,31,0.6053,8769,4.0194,36.6598
rg,1625105452108899226,1,0.5713,-0.9397,0.4954,92,12.3291,-57.373,72.3267,220,0.6813,0.2611,-15.5351,-63.7839,31,0.6033,8383,4.0194,38.4553
rg,1625105452108918412,1,0.623,-0.8794,0.2578,93,147.3389,-51.6968,67.3218,220,0.6813,0.2511,-14.8902,-59.0623,31,0.6003,8491,4.0194,41.7168
rg,1625105452108952004,1,0.5071,-0.613,0.238,94,111.084,-25.3906,13.4277,220,0.6813,0.2441,-15.8682,-55.239,31,0.5983,8337,4.0194,42.9488
rg,1625105452108973689,1,0.2454,-0.2524,0.2449,95,121.2769,30.7007,-2.5024,220,0.6823,0.2431,-15.9441,-49.7686,31,0.5953,8400,4.0194,41.7421
rg,1625105452108991985,1,0.1138,0.0403,0.1475,96,119.6289,43.396,-1.0376,220,0.6853,0.2481,-15.9271,-44.0876,31,0.5973,8423,4.0194,40.1409
rg,1625105452464203694,1,0.7131,-1.0671,1.2529,97,-178.9551,-31.6772,15.564,220,0.7033,0.2751,-15.5296,-52.833,31,0.6133,24667,4.0194,40.6607
rg,1625105452464264286,1,0.5352,-1.7253,0.8118,98,-118.5913,85.9375,7.3853,220,0.7143,0.2871,-13.3463,-57.3327,31,0.6203,9174,4.0194,38.0448
rg,1625105452464325823,1,0.1897,-1.5317,1.0576,99,3.1738,129.3335,-7.019,220,0.7264,0.2941,-10.4672,-56.1683,31,0.6263,7578,4.0194,33.4439
rg,1625105452464348489,1,0.0664,-1.2319,0.9775,100,62.3169,105.896,-9.8267,220,0.7424,0.3031,-9.2326,-51.3957,31,0.6293,7612,4.0194,31.2744
rg,1625105452464368471,1,0.0693,-0.8149,0.5605,101,116.5161,18.4326,-14.0991,220,0.7604,0.3152,-8.9721,-46.7519,31,0.6293,7590,4.0194,30.37
rg,1625105452464388230,1,0.1296,-0.6699,0.4268,102,80.4443,-15.3809,-7.2021,220,0.7764,0.3302,-9.6236,-43.9933,31,0.6283,7573,4.0194,30.6745
rg,1625105452464407433,1,0.1641,-0.6509,0.396,103,63.2935,-24.231,-2.8076,220,0.7864,0.3472,-10.5292,-42.1547,31,0.6293,7893,4.0194,31.3614
rg,1625105452464428026,1,0.1729,-0.6482,0.4553,104,2.0142,-38.269,0.3052,220,0.7804,0.3592,-11.7212,-42.7683,31,0.6293,8042,4.0194,32.5168
rg,1625105452464447359,1,0.3347,-0.7966,0.6252,105,-93.4448,-92.1021,1.8921,220,0.7444,0.3642,-14.5089,-47.4584,31,0.6253,7902,4.0194,35.3356
rg,1625105452464465636,1,0.303,-0.9089,0.4888,106,-116.4551,-109.1919,-4.3945,220,0.7143,0.3612,-17.4662,-53.7769,31,0.6233,8182,4.0194,39.349
rg,1625105452464483266,1,0.3901,-1.1855,0.4233,107,-89.9658,-116.394,24.292,220,0.6933,0.3222,-19.1987,-59.4725,31,0.6153,7902,4.0194,44.2027
rg,1625105452464535654,1,0.6152,-1.1624,0.5791,108,-39.6729,-77.0874,71.7773,220,0.6843,0.2811,-18.4111,-62.5932,31,0.6123,7909,4.0194,48.5698
rg,1625105452464560450,1,0.7566,-1.0068,0.9709,109,18.1274,-55.1147,74.0356,220,0.6833,0.2661,-17.0724,-58.7826,31,0.6123,8181,4.0194,50.9643
rg,1625105452464578173,1,0.6052,-0.9365,0.2412,110,152.4658,-65.0024,72.5098,220,0.6823,0.2561,-16.6881,-54.406,31,0.6103,7973,4.0205,55.0353
rg,1625105452464596561,1,0.4668,-0.6035,0.22,111,127.6855,-32.4707,18.9209,157,0.6813,0.2551,-17.6471,-50.2684,31,0.6073,8028,4.0205,56.7096
rg,1625105452464614432,1,0.2561,-0.2231,0.2393,112,134.0332,17.7002,3.9062,157,0.6843,0.2481,-17.8426,-44.5296,31,0.6073,10799,4.0205,56.1527
rg,1625105452464631968,1,0.1204,0.0159,0.1804,113,86.1206,18.5547,1.77,157,0.6873,0.2511,-18.0437,-39.4201,31,0.6083,8113,4.0205,55.1755
rg,1625105452464650172,1,0.1125,0.0713,0.1917,114,40.7104,2.6855,7.2021,157,0.6913,0.2591,-18.4964,-36.0255,31,0.6103,7826,4.0205,54.7537
rg,1625105452464667598,1,0.3481,-0.158,0.4321,115,-80.3223,-29.9072,22.0947,157,0.6953,0.2621,-19.6463,-39.1954,31,0.6143,7987,4.0205,56.1173
rg,1625105452464685746,1,0.707,-0.9236,1.0793,116,-176.2695,21.9727,20.813,157,0.7023,0.2691,-18.7055,-46.271,31,0.6203,7796,4.0205,56.1608
rg,1625105452464703264,1,0.6306,-1.269,0.9221,117,-158.6914,77.0874,14.0381,157,0.7103,0.2811,-16.1874,-52.6054,31,0.6243,8942,4.0205,54.2831
rg,1625105452464719801,1,0.2954,-1.4915,0.8848,118,-77.8198,153.1372,2.1362,157,0.7194,0.2931,-12.2603,-54.7271,31,0.6293,8749,4.0205,49.3091
rg,1625105452464739486,1,-0.0227,-1.2222,1.019,119,9.2773,132.019,-2.9907,157,0.7334,0.3021,-8.7651,-53.354,31,0.6323,8184,4.0205,44.8513
rg,1625105452464757745,1,-0.0396,-0.9255,0.6006,120,76.1108,18.6157,-17.6392,157,0.7504,0.3082,-8.4353,-50.2987,31,0.6343,8118,4.0205,43.8522
rg,1625105452464775412,1,0.0459,-0.8232,0.5332,121,70.8008,-9.7656,-13.6108,157,0.7694,0.3222,-8.8741,-47.7234,31,0.6343,8317,4.0205,43.835
rg,1625105452464813134,1,0.24,-0.7424,0.4932,122,52.3682,-18.4937,4.6997,157,0.7844,0.3362,-9.4869,-46.0657,31,0.6323,7999,4.0205,44.5593
rg,1625105452464833745,1,0.2495,-0.7349,0.437,123,22.2778,-19.8364,-5.7373,157,0.7984,0.3502,-10.4758,-45.7436,31,0.6313,8652,4.0205,45.0583
rg,1625105452464851615,1,0.2148,-0.7532,0.5229,124,0.8545,-23.2544,-9.7046,157,0.7994,0.3602,-11.6344,-47.0987,31,0.6313,8272,4.0205,45.9618
rg,1625105452464869596,1,0.2625,-0.7842,0.626,125,-51.2695,-55.0537,2.9907,157,0.7764,0.3682,-13.1152,-49.6815,31,0.6303,8399,4.0205,47.7666
rg,1625105452464886966,1,0.3926,-0.9133,0.5684,126,-90.8813,-104.9194,3.3569,157,0.7364,0.3722,-15.8405,-54.4983,31,0.6253,8678,4.0205,51.3577
rg,1625105452464918133,1,0.4917,-1.1309,0.4336,127,-78.6743,-123.1689,18.1885,157,0.7073,0.3492,-18.144,-59.5667,31,0.6223,8933,4.0205,56.2553
rg,1625105452464941096,1,0.6365,-1.238,0.4897,128,-53.5278,-69.8853,52.4902,157,0.6893,0.3041,-17.9254,-63.154,31,0.6113,8510,4.0205,60.0003
rg,1625105452946384472,1,0.5432,-0.8542,0.3545,129,159.6069,-38.269,69.397,157,0.6823,0.2591,-16.7562,-57.7642,31,0.6073,24414,4.0205,62.8378
rg,1625105452946422286,1,0.2031,-0.4019,0.3303,130,136.5967,25.1465,11.9019,157,0.6833,0.2541,-15.9717,-51.8624,31,0.6053,15524,4.0205,62.1704
rg,1625105452946443860,1,0.0942,-0.0298,0.2056,131,135.0708,36.0107,16.9678,157,0.6863,0.2551,-14.9791,-44.8075,31,0.6043,7529,4.0205,61.0742
rg,1625105452946464119,1,0.0876,0.1006,0.2144,132,101.7456,17.7612,12.085,157,0.6903,0.2581,-14.6661,-38.5126,31,0.6063,7833,4.0205,60.3511
rg,1625105452946483767,1,0.1428,0.1267,0.2874,133,-21.9727,-31.3721,9.2773,157,0.6953,0.2591,-16.0805,-37.7784,31,0.6093,7618,4.0205,60.9676
rg,1625105452946502897,1,0.4878,-0.4714,0.981,134,-188.2935,-40.2222,15.8691,157,0.7013,0.2661,-17.1904,-45.2859,31,0.6143,10219,4.0205,62.469
rg,1625105452946522489,1,0.6323,-1.5234,1.1064,135,-189.5142,36.8652,14.1602,157,0.7103,0.2821,-15.859,-52.9483,31,0.6233,7870,4.0205,61.7922
rg,1625105452946541674,1,0.5076,-1.8013,0.885,136,-127.5635,73.4863,9.2773,157,0.7214,0.2921,-13.8359,-57.8651,31,0.6303,7783,4.0205,59.6161
rg,1625105452946559933,1,0.1794,-1.5874,1.0466,137,15.9302,105.2246,-4.2725,157,0.7364,0.3031,-11.3762,-56.3534,31,0.6363,7824,4.0205,55.8845
rg,1625105452946578007,1,0.1072,-0.9055,0.6592,138,125,20.5688,-18.1274,157,0.7544,0.3142,-11.2397,-51.0405,31,0.6393,7827,4.0205,54.7618
rg,1625105452946595822,1,0.0972,-0.666,0.4385,139,125,-10.437,-23.0713,157,0.7724,0.3272,-12.0366,-46.2075,31,0.6383,8205,4.0205,54.5111
rg,1625105452946664173,1,0.1567,-0.468,0.3757,140,59.9365,-28.9307,-4.7607,157,0.7864,0.3442,-13.0845,-44.1551,31,0.6383,7937,4.0205,55.2539
rg,1625105452946709025,1,0.2239,-0.6387,0.5105,141,20.0806,-29.7852,4.6997,157,0.7934,0.3542,-14.0727,-45.5295,31,0.6383,7801,4.0205,56.4657
rg,1625105452946728932,1,0.2539,-0.7979,0.5791,142,-57.373,-57.6172,3.1128,157,0.7794,0.3632,-15.5559,-48.6127,31,0.6383,7869,4.0205,58.3826
rg,1625105452946747987,1,0.3623,-1.0264,0.615,143,-108.5205,-104.0649,10.3149,157,0.7424,0.3682,-17.8553,-54.3974,31,0.6363,8125,4.0205,62.1656
rg,1625105452946767228,1,0.3823,-1.1309,0.5007,144,-113.7085,-122.1924,10.8032,157,0.7163,0.3512,-20.1464,-60.7287,31,0.6333,7858,4.0205,67.5154
rg,1625105452946785913,1,0.5247,-1.2871,0.4795,145,-73.7915,-115.5396,31.4331,157,0.6973,0.3162,-21.1135,-65.779,31,0.6263,7821,4.0205,72.6481
rg,1625105452946804505,1,0.6135,-1.0603,0.4871,146,23.0103,-52.7344,69.2139,157,0.6863,0.2761,-19.7031,-65.9685,31,0.6153,8563,4.0205,75.8924
rg,1625105452946822524,1,0.5337,-0.752,0.5078,147,65.2466,-35.3394,74.3408,157,0.6853,0.2661,-18.2441,-61.2918,31,0.6153,7875,4.0205,77.3129
rg,1625105452946839857,1,0.4602,-0.7188,0.1973,148,149.1699,-23.3154,52.3682,157,0.6823,0.2581,-17.4799,-56.3962,31,0.6103,9095,4.0205,79.4018
rg,1625105452946857949,1,0.3623,-0.4722,0.2429,149,100.8301,-0.9155,26.4282,157,0.6823,0.2571,-17.2988,-52.7735,31,0.6083,8272,4.0205,80.111
rg,1625105452946895894,1,0.1482,-0.1575,0.2229,150,115.1123,29.48,-4.4556,157,0.6853,0.2551,-17.1381,-47.2187,31,0.6073,8630,4.0205,78.8277
rg,1625105452946914949,1,0.0679,0.0894,0.2004,151,101.1963,27.3438,-4.8218,157,0.6903,0.2591,-17.0366,-42.1436,31,0.6083,8312,4.0205,77.3941
rg,1625105452946932523,1,0.0706,0.1047,0.2388,152,13.6719,8.3618,-1.5259,157,0.6953,0.2611,-17.1142,-39.4161,31,0.6123,8589,4.0205,76.4886
rg,1625105452946950967,1,0.2896,-0.2817,0.7429,153,-143.5547,-23.6816,15.625,157,0.7023,0.2771,-17.5479,-44.7606,31,0.6183,8352,4.0205,77.4318
rg,1625105452946969763,1,0.6069,-1.2866,1.2754,154,-188.6597,2.6245,19.104,157,0.7133,0.2891,-16.9429,-52.4214,31,0.6273,8302,4.0205,77.8808
rg,1625105452946987374,1,0.5164,-1.8323,1.0088,155,-138.6108,30.0293,12.5122,157,0.7264,0.2981,-15.2111,-55.2732,31,0.6383,8532,4.0205,76.2825
rg,1625105452947005337,1,0.3906,-1.6875,0.9819,156,-5.6152,73.1201,2.0752,157,0.7434,0.3112,-13.33,-55.0665,31,0.6433,8414,4.0205,73.8944
rg,1625105452947023281,1,0.2581,-1.0186,0.6958,157,109.0088,36.7432,-13.3057,157,0.7614,0.3202,-12.8069,-50.3821,31,0.6453,8327,4.0205,72.3678
rg,1625105452947041022,1,0.2068,-0.5295,0.4023,158,103.9429,11.3525,-17.7002,157,0.7754,0.3302,-13.2087,-46.1277,31,0.6453,8525,4.0205,71.5482
rg,1625105452947058577,1,0.1147,-0.4512,0.427,159,64.5142,11.0474,-15.0146,157,0.7794,0.3392,-13.0605,-45.8335,31,0.6463,8401,4.0205,71.0406
rg,1625105452947076170,1,0.1482,-0.5623,0.6123,160,-62.1338,-15.8081,4.3335,157,0.7594,0.3482,-13.2434,-48.3055,31,0.6433,8565,4.0205,71.6032
rg,1625105453159655845,1,0.5503,-1.2981,0.4775,161,-59.8755,-105.3467,44.6167,157,0.6973,0.3082,-14.8907,-52.584,31,0.6243,24089,4.0205,76.3188
rg,1625105453159702585,1,0.7241,-1.0503,0.6042,162,45.2881,-64.5752,70.4956,157,0.6893,0.2771,-14.8569,-52.0296,31,0.6203,11524,4.0205,80.2752
rg,1625105453159724752,1,0.6411,-0.8896,0.3347,163,138.3667,-28.3203,64.8193,157,0.6873,0.2701,-14.37,-47.7342,31,0.6193,7986,4.0205,83.0065
rg,1625105453159744585,1,0.6794,-0.8406,0.2837,164,133.606,-37.0483,62.0117,157,0.6863,0.2601,-14.5503,-43.8543,31,0.6173,7561,4.0205,86.0347
rg,1625105453159764307,1,0.3486,-0.7053,0.3005,165,122.0093,30.7007,19.043,157,0.6863,0.2571,-13.5683,-39.7463,31,0.6163,7736,4.0205,85.9647
rg,1625105453159783918,1,0.1099,-0.3145,0.2766,166,145.6299,91.6748,24.1089,157,0.6873,0.2521,-10.1276,-33.9788,31,0.6153,7522,4.0205,84.5773
rg,1625105453159802288,1,0.0259,-0.1189,0.1887,167,151.2451,92.7734,26.7944,157,0.6893,0.2531,-6.2723,-27.734,31,0.6143,8230,4.0205,83.5733
rg,1625105453159821232,1,0.0173,0.1807,0.2017,168,112.6099,38.9404,22.644,157,0.6953,0.2571,-4.5323,-21.1318,31,0.6153,7743,4.0205,83.5135
rg,1625105453159839843,1,0.1228,0.1641,0.2715,169,55.0537,6.7139,24.7803,157,0.6993,0.2641,-5.74,-21.3834,31,0.6183,7964,4.0205,84.8138
rg,1625105453159858047,1,0.2361,-0.0601,0.5112,170,-162.8418,-43.5181,32.959,157,0.7043,0.2731,-7.5113,-27.5674,31,0.6243,7730,4.0205,86.7322
rg,1625105453159876102,1,0.7041,-1.2078,1.5715,171,-266.2964,0.6714,31.189,157,0.7123,0.2821,-7.2798,-38.6707,31,0.6323,7981,4.0205,87.8587
rg,1625105453159893547,1,0.5415,-1.6396,0.8774,172,-200.4395,56.0913,25.0244,157,0.7224,0.2891,-4.0735,-44.864,31,0.6393,8024,4.0205,86.1247
rg,1625105453159911324,1,0.4229,-1.8625,1.1738,173,-75.9888,130.6152,15.3198,157,0.7324,0.2991,-0.3316,-48.2528,31,0.6463,7977,4.0205,82.787
rg,1625105453159957028,1,0.1184,-1.269,1.0312,174,55.1147,92.5903,-5.8594,157,0.7434,0.3071,1.8456,-46.1849,31,0.6493,8452,4.0205,79.9025
rg,1625105453159981990,1,0.1265,-0.8081,0.4829,175,92.1631,15.625,-6.0425,157,0.7534,0.3232,1.7461,-43.0219,31,0.6563,10948,4.0205,79.2635
rg,1625105453160001916,1,0.1362,-0.6167,0.3093,176,20.2637,-12.2681,12.085,157,0.7524,0.3342,1.2149,-42.9611,31,0.6583,7721,4.0205,79.927
rg,1625105453160020935,1,0.1414,-0.6406,0.3826,177,-32.0435,-26.001,12.4512,157,0.7384,0.3442,0.347,-44.8368,31,0.6553,7833,4.0205,81.0014
rg,1625105453160039138,1,0.0725,-0.8792,0.4792,178,-89.4165,-59.021,-0.9155,157,0.7224,0.3202,-1.4574,-49.0548,31,0.6473,7650,4.0205,82.7064
rg,1625105453160057360,1,0.0544,-0.9729,0.4746,179,-82.8857,-75.3784,12.085,157,0.7103,0.2871,-2.8787,-51.7687,31,0.6393,7705,4.0205,86.6719
rg,1625105453160075268,1,0.3181,-1.0312,0.6797,180,-3.7231,-114.3188,62.9883,157,0.7063,0.2731,-4.1383,-52.4081,31,0.6403,8855,4.0205,91.846
rg,1625105453160092860,1,0.5376,-1.0388,0.4233,181,99.8535,-143.4326,85.022,157,0.7013,0.2641,-5.9228,-49.5406,31,0.6383,9507,4.0205,98.4772
rg,1625105453160110156,1,0.7869,-0.8811,0.3372,182,121.3989,-135.376,66.5283,157,0.7003,0.2591,-8.8438,-46.0226,31,0.6363,8524,4.0205,104.3349
rg,1625105453160129193,1,0.5376,-0.4104,0.2292,183,140.8691,-38.6963,23.7427,157,0.7023,0.2541,-10.7688,-41.0746,31,0.6353,9064,4.0205,106.1055
rg,1625105453160183748,1,0.3284,0.0598,0.1541,184,144.5312,-7.6904,14.6484,157,0.7063,0.2531,-12.0065,-35.0647,31,0.6343,8063,4.0205,105.7611
rg,1625105453160205229,1,0.2874,0.1899,0.1785,185,89.1113,33.6304,6.2866,157,0.7113,0.2571,-12.3223,-29.8433,31,0.6373,8551,4.0205,104.8362
rg,1625105453160222803,1,0.3115,0.0977,0.2756,186,-53.4058,75.4395,18.7378,157,0.7163,0.2671,-10.749,-30.5906,31,0.6403,8475,4.0205,103.6892
rg,1625105453160241137,1,0.6113,-0.7227,1.1841,187,-215.21,138.0005,24.7803,157,0.7234,0.2771,-6.1928,-38.8466,31,0.6463,8389,4.0205,101.3736
rg,1625105453160258988,1,0.1731,-1.7678,1.1946,188,-228.5156,197.6318,21.0571,157,0.7344,0.2931,1.2967,-46.2363,31,0.6513,8530,4.0205,95.5198
rg,1625105453160276507,1,-0.1226,-2.0007,1.0896,189,-93.689,225.708,9.5215,157,0.7474,0.3031,7.5729,-51.0604,31,0.6543,8405,4.0205,88.9652
rg,1625105453160294229,1,-0.4204,-1.5808,0.8862,190,75.5005,114.0747,-18.1885,157,0.7644,0.3142,10.1453,-49.0211,31,0.6543,8498,4.0205,84.9059
rg,1625105453160312081,1,-0.2834,-0.8152,0.6011,191,142.0288,18.9819,-16.3574,157,0.7824,0.3272,10.41,-43.7031,31,0.6513,8402,4.0205,83.8709
rg,1625105453160387173,1,-0.1528,-0.4155,0.47,192,94.0552,-45.5322,-20.2026,157,0.7934,0.3462,8.6491,-39.7516,31,0.6503,9448,4.0205,84.5151
rg,1625105453968740245,1,0.1199,-0.7856,0.5881,193,-159.3018,-198.6084,-14.6484,157,0.7234,0.3472,1.8264,-46.609,31,0.6383,23572,4.0205,89.4307
rg,1625105453968819300,1,0.5491,-1.4485,0.4629,194,-111.5723,-238.4644,20.3857,157,0.7003,0.3021,-4.5471,-52.1611,31,0.6333,8504,4.0205,97.1942
rg,1625105453968841374,1,0.6909,-1.3857,0.4768,195,-43.7012,-200.6836,43.7622,157,0.6893,0.2731,-7.554,-52.1916,31,0.6263,7600,4.0205,103.8284
rg,1625105453968862911,1,0.8796,-0.8899,0.6755,196,97.4121,-118.3472,62.5,157,0.6873,0.2601,-9.7595,-49.1065,31,0.6273,7573,4.0205,109.0967
rg,1625105453968883152,1,0.7502,-0.7344,0.105,197,169.1284,-96.1304,62.3169,157,0.6853,0.2511,-11.9407,-44.0886,31,0.6253,7575,4.0205,113.7628
rg,1625105453968901485,1,0.7297,-0.6641,0.1096,198,125.7324,-72.8149,49.4995,157,0.6843,0.2421,-13.9426,-40.7721,31,0.6233,7554,4.0205,117.4307
rg,1625105453968920226,1,0.4121,-0.4961,0.2722,199,110.2905,17.8833,10.1318,157,0.6833,0.2401,-14.0183,-36.9863,31,0.6213,7971,4.0205,117.4179
rg,1625105453968939170,1,0.1921,-0.2534,0.3259,200,105.3467,57.4341,12.3901,157,0.6843,0.2351,-12.2869,-32.5943,31,0.6193,8267,4.0205,116.4738
rg,1625105453968956799,1,0.1157,-0.1577,0.2742,201,96.3745,53.772,13.6719,157,0.6873,0.2361,-11.5243,-28.9003,31,0.6203,8012,4.0205,116.3799
rg,1625105453969035577,1,0.1626,-0.0068,0.322,202,36.8042,-4.2114,15.9912,157,0.6913,0.2421,-12.0121,-26.5965,31,0.6213,8105,4.0205,116.8286
rg,1625105453969133094,1,0.3901,-0.2334,0.7212,203,-77.3315,-9.7046,12.9395,157,0.6983,0.2511,-12.7082,-29.5055,31,0.6263,10229,4.0205,117.4312
rg,1625105453969159816,1,0.5447,-0.8384,0.9187,204,-141.9678,63.1714,20.0806,157,0.7073,0.2601,-10.5917,-35.4916,31,0.6333,7936,4.0205,116.8587
rg,1625105453969188075,1,0.3867,-1.3311,1.0171,205,-140.625,109.314,16.6626,157,0.7163,0.2751,-5.8024,-40.6066,31,0.6433,8129,4.0205,113.5606
rg,1625105453969209983,1,0.1831,-1.426,1.1445,206,-93.1396,173.2178,1.2817,157,0.7324,0.2891,-0.4727,-44.4377,31,0.6523,9502,4.0205,108.9382
rg,1625105453969230649,1,-0.1382,-1.3403,1.0518,207,10.7422,107.8491,-21.6675,157,0.7484,0.3011,2.1884,-44.3432,31,0.6563,7901,4.0205,105.3
rg,1625105453969278315,1,-0.1921,-1.0386,0.647,208,70.4346,10.1318,-29.7241,157,0.7684,0.3152,1.9369,-42.0965,31,0.6573,7793,4.0205,104.1426
rg,1625105453969300056,1,-0.0947,-0.8794,0.5654,209,71.3501,-22.644,-14.4043,157,0.7874,0.3242,1.0102,-39.828,31,0.6533,8020,4.0205,104.2868
rg,1625105453969320019,1,0.1331,-0.6658,0.5259,210,53.0396,-67.3218,-6.958,157,0.8024,0.3342,-1.6362,-38.1716,31,0.6503,7839,4.0205,105.7548
rg,1625105453969338945,1,0.2036,-0.6021,0.4448,211,4.3335,-96.2524,-17.1509,157,0.8074,0.3472,-5.5955,-38.6881,31,0.6483,8110,4.0205,107.6379
rg,1625105453969356963,1,0.2849,-0.6243,0.5134,212,-40.0391,-105.7739,-8.4839,157,0.7864,0.3602,-9.616,-41.055,31,0.6463,8226,4.0205,110.1712
rg,1625105453969376333,1,0.3728,-0.8362,0.5684,213,-114.1968,-136.4746,-2.3804,157,0.7434,0.3632,-14.0034,-46.9375,31,0.6433,8422,4.0205,114.0904
rg,1625105453969394815,1,0.4509,-1.1062,0.4365,214,-115.8447,-163.4521,12.9395,157,0.7153,0.3572,-18.0252,-53.9059,31,0.6413,8348,4.0205,119.8868
rg,1625105453969414870,1,0.6565,-1.2646,0.3511,215,-42.7856,-138.1836,50.415,157,0.6943,0.3222,-19.7736,-58.3158,31,0.6353,8369,4.0205,126.1705
rg,1625105453969439055,1,0.7368,-1.1694,0.387,216,-8.5449,-106.5674,67.1997,157,0.6883,0.2821,-20.2912,-60.4099,31,0.6333,8460,4.0205,131.5111
rg,1625105453969458407,1,0.78,-0.8462,0.552,217,114.8682,-38.7573,63.4766,157,0.6863,0.2711,-19.6056,-56.649,31,0.6343,8493,4.0205,134.2507
rg,1625105453969478721,1,0.7671,-0.6848,0.2266,218,139.4043,-42.6636,58.2275,157,0.6863,0.2641,-19.7472,-52.4728,31,0.6333,8423,4.0205,137.2539
rg,1625105453969499258,1,0.4158,-0.4958,0.2991,219,104.3701,41.3208,2.8076,157,0.6853,0.2571,-19.2373,-48.083,31,0.6313,8559,4.0205,136.0219
rg,1625105453969522017,1,0.2939,-0.3831,0.4138,220,101.4404,76.0498,2.9907,157,0.6863,0.2571,-16.1566,-42.8681,31,0.6313,8405,4.0205,132.9301
rg,1625105453969542925,1,0.0671,-0.1567,0.3127,221,82.8857,117.1875,10.3149,157,0.6893,0.2601,-12.1554,-38.2213,31,0.6303,8816,4.0205,129.9304
rg,1625105453969562758,1,-0.0078,-0.0193,0.3066,222,25.1465,78.6743,10.0708,157,0.6943,0.2661,-8.9549,-35.6101,31,0.6323,8666,4.0205,128.0619
rg,1625105453969582609,1,0.0669,-0.2112,0.6868,223,-94.5435,20.9351,9.3384,157,0.7003,0.2761,-7.9412,-38.6151,31,0.6353,8888,4.0205,127.7321
rg,1625105453969603720,1,0.2629,-0.8733,1.0344,224,-179.3213,13.5498,15.3198,157,0.7073,0.2861,-7.2504,-45.8256,31,0.6403,8234,4.0205,127.8349
rg,1625105454211663337,1,0.5029,-0.9807,0.3799,225,72.5708,63.2935,65.2466,171,0.6853,0.2651,-19.1799,-65.5918,31,0.6273,20191,4.0227,169.22
rg,1625105454211705910,1,0.6318,-0.9209,0.4841,226,129.6387,-3.9062,74.1577,171,0.6863,0.2591,-17.0814,-60.7634,31,0.6273,8331,4.0227,170.6988
rg,1625105454211727373,1,0.2581,-0.7925,0.3813,227,128.0518,33.7524,8.728,171,0.6863,0.2571,-16.0501,-55.4947,31,0.6253,7574,4.0227,169.7314
rg,1625105454211747817,1,0.1641,-0.5789,0.4102,228,140.686,56.7017,9.8877,171,0.6873,0.2581,-13.3747,-48.4928,31,0.6243,7660,4.0227,167.4965
rg,1625105454211767262,1,0.011,-0.1267,0.2419,229,152.4658,74.4629,15.3198,171,0.6893,0.2591,-10.4352,-41.2355,31,0.6243,7464,4.0227,165.6232
rg,1625105454211786002,1,0.0137,0.1128,0.2764,230,75.3174,21.1182,9.2163,171,0.6933,0.2621,-9.4513,-36.127,31,0.6263,7705,4.0227,165.0053
rg,1625105454211804410,1,0.033,0.1089,0.3035,231,11.2305,-6.7139,10.6812,171,0.6973,0.2671,-9.4382,-33.8647,31,0.6283,7561,4.0227,165.2013
rg,1625105454211824113,1,0.2798,-0.2871,0.6914,232,-148.6816,-43.5791,16.9678,171,0.7033,0.2761,-10.8623,-39.6474,31,0.6343,7672,4.0227,166.7641
rg,1625105454211842650,1,0.4753,-0.7507,1.1655,233,-198.9746,-28.2593,16.8457,171,0.7103,0.2861,-10.3219,-47.6326,31,0.6433,7573,4.0227,166.8936
rg,1625105454211878594,1,0.4397,-1.6182,0.9812,234,-151.2451,52.6123,17.1509,171,0.7184,0.2951,-8.5811,-53.8838,31,0.6523,7787,4.0227,165.7603
rg,1625105454211903076,1,0.1848,-1.7371,1.1177,235,-39.4287,87.1582,4.3945,171,0.7314,0.3021,-6.2927,-55.2207,31,0.6603,7608,4.0227,163.011
rg,1625105454211922761,1,0.0703,-1.4739,0.9797,236,36.5601,59.082,-4.3335,171,0.7674,0.3112,-4.9078,-53.5967,31,0.6633,7892,4.0227,160.9821
rg,1625105454211951483,1,0.2471,-0.5684,0.396,237,103.3325,-45.5322,-13.855,171,0.8044,0.3272,-7.039,-49.6307,31,0.6553,17736,4.0227,162.057
rg,1625105454211970779,1,0.2537,-0.4817,0.3113,238,81.8481,-41.5039,-7.7515,171,0.8254,0.3352,-9.0259,-46.7705,31,0.6493,7599,4.0227,163.1152
rg,1625105454211988723,1,0.2102,-0.4729,0.3096,239,19.7144,-27.4048,-4.4556,171,0.8384,0.3472,-10.354,-46.4636,31,0.6443,7737,4.0227,163.8568
rg,1625105454212006834,1,0.1677,-0.53,0.3799,240,-21.4844,-34.8511,-2.7466,171,0.8304,0.3592,-11.422,-47.6308,31,0.6403,7652,4.0227,164.8457
rg,1625105454212024575,1,0.2827,-0.7358,0.604,241,-107.9712,-88.6841,20.6299,171,0.7654,0.3652,-13.4468,-52.9179,31,0.6383,10249,4.0227,168.2505
rg,1625105454212041797,1,0.4817,-0.9546,0.5105,242,-147.0337,-150.0244,19.5923,171,0.7254,0.3652,-16.4663,-60.5728,31,0.6363,7815,4.0227,-186.0127
rg,1625105454212059426,1,0.6709,-1.1545,0.4414,243,-90.5151,-149.6582,43.8843,171,0.7033,0.3622,-18.0147,-66.3951,31,0.6353,7950,4.0227,-179.4797
rg,1625105454212076778,1,0.8132,-1.1833,0.4062,244,-55.4199,-119.9951,72.5098,171,0.6853,0.3302,-17.6472,-70.5442,31,0.6243,7924,4.0227,-173.6113
rg,1625105454212094500,1,1.0291,-1.052,0.7429,245,-19.4092,-1.5259,84.8389,171,0.6853,0.3011,-15.301,-71.151,31,0.6273,8140,4.0227,-172.5568
rg,1625105454212111667,1,0.6721,-1.0596,0.4368,246,90.7593,82.8857,73.8525,171,0.6843,0.2851,-11.9667,-66.8862,31,0.6233,8567,4.0227,-174.7265
rg,1625105454212129704,1,0.4043,-0.9827,0.3635,247,92.8345,86.3647,22.9492,171,0.6843,0.2731,-10.0428,-62.7362,31,0.6223,9246,4.0227,-177.5137
rg,1625105454212147389,1,0.1726,-0.8623,0.3521,248,109.9243,105.4077,-9.6436,171,0.6853,0.2711,-8.3281,-57.9102,31,0.6203,7850,4.0227,-181.3874
rg,1625105454212165648,1,-0.0859,-0.3152,0.1506,249,164.4287,110.3516,-27.0386,171,0.6863,0.2691,-5.8149,-51.0795,31,0.6203,7955,4.0227,-185.5476
rg,1625105454212182814,1,-0.1504,0.104,0.2078,250,159.3628,44.1895,-34.668,171,0.6883,0.2711,-4.3495,-42.6711,31,0.6193,7984,4.0227,-187.8821
rg,1625105454212200129,1,-0.1753,0.2153,0.2085,251,114.9902,19.8975,-24.231,171,0.6913,0.2811,-3.2004,-36.0442,31,0.6213,8057,4.0227,170.7826
rg,1625105454212230499,1,-0.0332,0.0891,0.1677,252,-71.7773,-40.6494,24.8413,171,0.6963,0.2931,-3.4664,-36.9943,31,0.6243,8052,4.0227,-187.5633
rg,1625105454212248999,1,0.4446,-0.7327,1.4314,253,-284.9121,-85.7544,39.6729,171,0.7033,0.3021,-5.3689,-48.2286,31,0.6303,8371,4.0227,-184.055
rg,1625105454212266684,1,0.8083,-1.6082,2.2517,254,-297.0581,-44.5557,35.3394,171,0.7113,0.3092,-4.3997,-56.3746,31,0.6413,8439,4.0227,-183.8062
rg,1625105454212283721,1,0.4944,-2.2007,0.6677,255,-79.4678,21.9116,20.874,171,0.7264,0.3192,-3.5435,-60.1517,31,0.6533,8492,4.0227,-184.0582
rg,1625105454212312036,1,0.2852,-1.4136,0.8311,256,87.4023,67.688,-16.6626,171,0.7484,0.3262,-2.9482,-56.4748,31,0.6583,8669,4.0227,-186.7282
rg,1625105454592460378,1,0.0381,-0.3618,0.2705,257,108.8867,2.9907,-27.832,171,0.8164,0.3502,-3.8088,-53.91,31,0.6463,24005,4.0227,-186.9216
rg,1625105454592521044,1,-0.0071,-0.5488,0.4177,258,-12.207,-48.0347,-5.7983,171,0.8334,0.3702,-4.9382,-54.4466,31,0.6403,13829,4.0227,-185.4961
rg,1625105454592542396,1,0.0815,-0.6914,0.4822,259,-69.6411,-112.2437,12.0239,171,0.8064,0.3802,-7.0492,-57.6596,31,0.6393,7479,4.0227,-181.4767
rg,1625105454592562636,1,0.3137,-0.7683,0.6357,260,-105.4688,-164.1846,29.48,171,0.7564,0.3872,-10.0199,-62.5526,31,0.6413,7713,4.0227,-175.133
rg,1625105454592582007,1,0.6113,-0.9006,0.5278,261,-132.3242,-225.2808,27.4658,171,0.7214,0.3832,-13.4247,-69.5423,31,0.6413,7720,4.0227,-166.2604
rg,1625105454592600803,1,0.8206,-1.0784,0.3633,262,-93.5669,-200.7446,50.415,171,0.6993,0.3722,-14.7517,-75.4122,31,0.6393,7674,4.0227,-157.7016
rg,1625105454592619969,1,1.0642,-1.0964,0.3901,263,-60.8521,-67.0776,81.9092,171,0.6853,0.3112,-13.2168,-78.5161,31,0.6293,10845,4.0227,-154.2717
rg,1625105454592639229,1,1.1621,-0.9761,0.8855,264,-36.377,28.3813,78.7354,171,0.6843,0.2851,-10.3302,-75.9081,31,0.6293,8051,4.0227,-157.9553
rg,1625105454592658451,1,0.8823,-1.1494,0.5259,265,55.3589,90.1489,84.0454,171,0.6843,0.2751,-7.0954,-72.9403,31,0.6283,8266,4.0227,-160.6606
rg,1625105454592677154,1,0.4868,-1.1182,0.312,266,71.3501,117.5537,5.6152,171,0.6833,0.2671,-6.0054,-69.6236,31,0.6243,8287,4.0227,-165.0877
rg,1625105454592696210,1,0.228,-0.9482,0.3359,267,99.4873,122.4365,-28.0151,171,0.6853,0.2621,-5.2246,-63.4999,31,0.6233,7834,4.0227,-170.5619
rg,1625105454592943874,1,-0.095,-0.3201,0.2314,268,161.6821,140.3809,-36.1938,171,0.6873,0.2621,-2.958,-56.2856,31,0.6223,8945,4.0227,-176.135
rg,1625105454592991930,1,-0.144,0.0879,0.2607,269,134.9487,102.0508,-24.8413,171,0.6903,0.2681,-0.2057,-48.8568,31,0.6233,7754,4.0227,-180.0037
rg,1625105454593029355,1,-0.2363,0.1287,0.1528,270,89.7217,83.6792,-19.2871,171,0.6933,0.2761,2.7534,-46.7255,31,0.6253,7815,4.0227,-181.7306
rg,1625105454593053614,1,-0.1975,-0.0259,0.1396,271,-75.9277,9.5825,7.2021,171,0.6983,0.2841,5.0092,-48.9734,31,0.6293,7716,4.0227,-181.8155
rg,1625105454593073503,1,0.0459,-0.7266,1.1326,272,-251.4038,-77.8809,23.0713,171,0.7063,0.2951,3.6549,-58.1149,31,0.6343,7901,4.0227,-178.6834
rg,1625105454593110021,1,0.3547,-1.8792,1.0623,273,-270.0806,-84.5947,30.5786,171,0.7133,0.3061,3.3965,-65.0106,31,0.6433,8350,4.0227,-175.9454
rg,1625105454593130114,1,0.4521,-2.0793,0.5913,274,-64.5752,-63.5986,37.0483,171,0.7264,0.3132,3.1472,-67.7592,31,0.6523,8114,4.0227,-173.0264
rg,1625105454593149669,1,0.5383,-1.4543,0.7583,275,81.8481,-9.5825,-4.5776,171,0.7464,0.3202,2.001,-64.2665,31,0.6573,8696,4.0227,-172.7656
rg,1625105454593167984,1,0.3906,-0.7637,0.5508,276,165.5884,9.6436,-15.7471,171,0.7704,0.3332,0.7004,-57.3001,31,0.6583,8283,4.0227,-173.4546
rg,1625105454593186743,1,0.2815,-0.5286,0.3162,277,152.771,16.9067,-11.5967,171,0.7954,0.3412,-0.3899,-51.1368,31,0.6563,8205,4.0227,-174.3355
rg,1625105454593205410,1,0.1697,-0.3508,0.2437,278,82.0923,14.5874,-11.3525,171,0.8134,0.3502,-1.1826,-47.9902,31,0.6543,8509,4.0227,-175.098
rg,1625105454593224354,1,0.0327,-0.489,0.4097,279,-8.728,-5.6763,-5.0049,171,0.8194,0.3642,-1.5512,-48.4094,31,0.6553,8283,4.0227,-175.0598
rg,1625105454593242058,1,0.095,-0.7019,0.6106,280,-98.6328,-82.5806,13.4888,171,0.7874,0.3792,-3.3932,-52.4805,31,0.6563,8443,4.0227,-172.1591
rg,1625105454593259428,1,0.2983,-0.8237,0.7163,281,-143.9819,-138.4888,16.2964,171,0.7364,0.3812,-6.4351,-58.508,31,0.6503,8325,4.0227,-167.1953
rg,1625105454593276761,1,0.4714,-1.0933,0.5432,282,-154.6631,-202.6978,12.5122,171,0.7083,0.3642,-10.3035,-65.9591,31,0.6453,8227,4.0227,-159.6681
rg,1625105454593294594,1,0.8489,-1.3,0.4019,283,-77.9419,-171.2646,71.8994,171,0.6913,0.3152,-10.9733,-70.691,31,0.6313,8147,4.0227,-152.0503
rg,1625105454593313150,1,1.2002,-1.0305,0.7327,284,14.0991,-45.5933,99.9146,171,0.6883,0.2781,-9.0512,-70.1861,31,0.6333,10484,4.0227,-149.0581
rg,1625105454593331742,1,1.0015,-1.0391,0.3105,285,99.6704,36.0107,67.627,171,0.6863,0.2681,-7.2754,-66.2331,31,0.6323,8609,4.0227,-149.4395
rg,1625105454593350316,1,0.8735,-0.9893,0.3162,286,75.3174,50.5981,34.1797,171,0.6863,0.2591,-6.4165,-63.2444,31,0.6313,8395,4.0227,-150.7157
rg,1625105454593444797,1,0.3064,-0.7224,0.2705,287,92.6514,113.7695,-54.9927,171,0.6883,0.2571,-6.7657,-59.1761,31,0.6303,8190,4.0227,-155.7911
rg,1625105454593471223,1,-0.0859,-0.2493,0.1919,288,132.6294,162.1704,-55.542,171,0.6903,0.2591,-4.1668,-52.99,31,0.6283,8416,4.0227,-162.4157
rg,1625105454985286778,1,-0.2117,-0.239,0.3389,289,-103.6987,11.4746,16.2354,171,0.7063,0.2861,-2.206,-56.4912,31,0.6403,26592,4.0227,-162.4968
rg,1625105454985343500,1,-0.0425,-0.6792,1.1113,290,-188.8428,-47.8516,24.1089,171,0.7133,0.2941,-2.6545,-64.5748,31,0.6493,8620,4.0227,-159.1811
rg,1625105454985365426,1,0.3862,-1.8352,1.1724,291,-144.8975,-63.0493,51.0864,171,0.7264,0.3061,-2.1679,-70.7769,31,0.6583,9231,4.0227,-156.0404
rg,1625105454985385518,1,0.6296,-1.4268,0.6575,292,133.606,-0.6104,0.5493,171,0.7644,0.3202,-2.9199,-64.9876,31,0.6633,12810,4.0227,-156.0681
rg,1625105454985405129,1,0.2603,-0.5566,0.4578,293,198.6694,49.7437,-22.9492,171,0.7854,0.3272,-3.4125,-56.405,31,0.6613,7679,4.0227,-158.33
rg,1625105454985423555,1,0.05,-0.1692,0.3047,294,136.5356,63.7817,-9.4604,171,0.8024,0.3392,-2.3939,-49.7943,31,0.6593,7512,4.0227,-160.6744
rg,1625105454985442037,1,-0.053,-0.1802,0.3674,295,73.5474,55.542,-8.2397,171,0.8094,0.3512,-0.7786,-45.8936,31,0.6583,7683,4.0227,-162.5696
rg,1625105454985460073,1,-0.2388,-0.4441,0.4631,296,-61.0962,-20.3247,3.9062,171,0.7974,0.3662,-0.3946,-48.2504,31,0.6603,7647,4.0227,-161.8831
rg,1625105454985477962,1,0.0215,-0.8547,0.7876,297,-181.8237,-160.4004,20.0806,171,0.7444,0.3742,-3.7099,-55.6576,31,0.6583,7687,4.0227,-156.3395
rg,1625105454985495684,1,0.2026,-1.0557,0.7646,298,-209.1675,-223.3276,12.6953,171,0.7123,0.3672,-8.0686,-65.0424,31,0.6523,7845,4.0227,-148.2652
rg,1625105454985513203,1,0.6055,-1.3926,0.5503,299,-139.0381,-271.4844,38.7573,171,0.6923,0.3242,-11.0569,-72.5154,31,0.6393,8294,4.0227,-137.4197
rg,1625105454985530592,1,1.0586,-1.1748,0.6208,300,-31.0059,-182.7393,88.0737,171,0.6883,0.2841,-10.7534,-74.9488,31,0.6383,8088,4.0227,-129.33
rg,1625105454985547647,1,1.1558,-0.9973,0.3293,301,43.1519,-111.8774,88.3789,171,0.6853,0.2701,-9.7144,-71.4316,31,0.6373,8485,4.0227,-126.3647
rg,1625105454985565147,1,1.1917,-0.9114,0.2566,302,83.4961,-31.0669,69.8242,171,0.6833,0.2581,-9.0298,-68.5017,31,0.6353,8083,4.0227,-124.2538
rg,1625105454985582424,1,0.7207,-0.8179,0.2129,303,50.7202,81.0547,-22.583,171,0.6843,0.2551,-9.8104,-66.1154,31,0.6333,8338,4.0227,-127.6367
rg,1625105454985599684,1,0.1602,-0.4883,0.2214,304,68.6035,158.4473,-52.2461,171,0.6853,0.2531,-9.2218,-62.2306,31,0.6313,7950,4.0227,-134.3541
rg,1625105454985639702,1,-0.0374,-0.3076,0.147,305,85.5103,188.2935,-40.5273,171,0.6873,0.2571,-6.2933,-57.8987,31,0.6303,7901,4.0227,-141.7124
rg,1625105454985659850,1,-0.0981,-0.0647,0.1421,306,65.918,152.4048,-3.2349,171,0.6903,0.2651,-1.6292,-53.8447,31,0.6293,7847,4.0227,-146.9074
rg,1625105454985677942,1,-0.1365,-0.1304,0.252,307,22.522,124.6338,2.3804,171,0.6933,0.2691,1.554,-54.8694,31,0.6323,8040,4.0227,-149.5301
rg,1625105454985696109,1,-0.0996,-0.3582,0.5642,308,-126.5869,34.3628,11.2305,171,0.6983,0.2781,2.951,-59.0866,31,0.6363,7821,4.0227,-150.4268
rg,1625105454985713553,1,0.2517,-1.3936,1.4353,309,-181.1523,-10.5591,29.2358,171,0.7113,0.2961,3.3973,-65.6669,31,0.6473,8011,4.0227,-149.4606
rg,1625105454985730831,1,0.4551,-1.8748,0.7588,310,-27.832,-11.2915,36.8652,171,0.7274,0.3061,3.9341,-66.7896,31,0.6583,8474,4.0227,-148.4548
rg,1625105454985751516,1,0.4282,-1.2344,0.6377,311,113.2202,19.5312,5.9814,153,0.7454,0.3142,3.6667,-62.1425,31,0.6643,8598,4.0271,-149.0833
rg,1625105454985770405,1,0.1855,-0.5745,0.4302,312,156.4941,40.1611,-2.3193,153,0.7644,0.3252,3.7039,-55.6384,31,0.6663,8365,4.0271,-150.5289
rg,1625105454985787942,1,0.1008,-0.3696,0.3552,313,131.7749,39.7339,4.0894,153,0.7714,0.3392,4.1517,-51.8172,31,0.6683,9048,4.0271,-151.071
rg,1625105454985805127,1,-0.0352,-0.314,0.3469,314,2.6855,0,12.8174,153,0.7534,0.3512,4.5598,-51.2917,31,0.6673,8399,4.0271,-150.7235
rg,1625105454985822645,1,0.126,-0.6133,0.6006,315,-153.0762,-116.6382,12.8784,153,0.7264,0.3572,1.7601,-56.9377,31,0.6583,8472,4.0271,-146.5949
rg,1625105454985839719,1,0.3193,-1.0154,0.6528,316,-157.7759,-176.6357,11.4136,153,0.7093,0.3492,-1.9785,-63.2504,31,0.6483,8501,4.0271,-140.2195
rg,1625105454985856737,1,0.5176,-1.1694,0.5493,317,-121.0327,-180.6641,36.0718,153,0.6993,0.3192,-3.744,-66.758,31,0.6393,8295,4.0271,-133.3179
rg,1625105454985873774,1,0.9026,-1.125,0.6406,318,-22.9492,-130.4932,64.8804,153,0.6953,0.3041,-4.5196,-67.8723,31,0.6393,8123,4.0271,-127.4988
rg,1625105454985989144,1,1.0015,-0.9175,0.3625,319,43.396,-51.9409,66.9556,153,0.6923,0.2881,-4.3438,-66.3722,31,0.6373,8341,4.0271,-124.5646
rg,1625105454986014570,1,0.6841,-0.6194,0.1528,320,39.3677,-1.709,44.2505,153,0.6923,0.2831,-4.4376,-65.0244,31,0.6333,8175,4.0271,-126.1132
rg,1625105455268865049,1,-0.106,-0.4736,0.4143,321,-38.7573,175.4761,-16.3574,153,0.6983,0.2881,-1.252,-66.8978,31,0.6303,26147,4.0271,-132.53
rg,1625105455268904512,1,-0.1768,-0.7354,0.6519,322,-91.1255,134.5215,2.6245,153,0.7033,0.2991,1.2541,-69.8141,31,0.6343,8599,4.0271,-137.5192
rg,1625105455268924882,1,-0.1589,-1.3684,0.9692,323,-81.2378,7.8125,2.3193,153,0.7123,0.3082,1.6079,-72.4615,31,0.6413,7911,4.0271,-137.7755
rg,1625105455268944141,1,0.1599,-1.4856,0.8462,324,9.3384,-67.9932,21.3623,153,0.7254,0.3162,1.3152,-71.5248,31,0.6503,7930,4.0271,-134.9138
rg,1625105455268963104,1,0.3601,-1.3472,0.8237,325,58.4106,-82.0312,26.3672,153,0.7424,0.3202,0.6456,-68.621,31,0.6583,7852,4.0271,-131.4749
rg,1625105455268982400,1,0.5752,-1.0649,0.5393,326,129.6997,-78.9185,12.7563,153,0.7634,0.3302,-1.1686,-63.2492,31,0.6573,8358,4.0271,-128.4347
rg,1625105455269000511,1,0.4292,-0.7312,0.1724,327,135.9863,-22.9492,2.6245,153,0.7834,0.3382,-2.6063,-58.2976,31,0.6533,7829,4.0271,-127.623
rg,1625105455269018752,1,0.0862,-0.3916,0.4016,328,33.2031,57.8613,7.5073,153,0.7724,0.3632,-1.359,-56.3524,31,0.6523,16812,4.0271,-129.4443
rg,1625105455269036789,1,-0.1084,-0.6436,0.647,329,-42.2363,32.2876,8.606,153,0.7364,0.3682,-1.5597,-60.2549,31,0.6513,7638,4.0271,-128.0164
rg,1625105455269079399,1,-0.0652,-0.8223,0.519,330,-139.0991,-116.1499,7.9346,153,0.7103,0.3722,-3.1474,-65.8698,31,0.6503,7645,4.0271,-123.7419
rg,1625105455269102640,1,0.3818,-1.2236,0.5815,331,-97.6562,-199.2798,48.7671,153,0.6873,0.3322,-4.7798,-70.2778,31,0.6353,10173,4.0271,-115.6006
rg,1625105455269121325,1,0.9062,-1.3381,0.8887,332,-46.5698,-142.0288,102.2949,153,0.6863,0.2971,-3.6749,-72.1397,31,0.6353,8067,4.0271,-108.9289
rg,1625105455269139992,1,1.0605,-1.3352,0.9565,333,32.2876,-78.186,101.4404,153,0.6843,0.2851,-1.758,-67.7957,31,0.6343,7818,4.0271,-106.3312
rg,1625105455269159806,1,1.0437,-1.1467,0.3811,334,127.1362,-34.4238,89.2334,153,0.6843,0.2731,-0.5193,-62.8775,31,0.6323,7901,4.0271,-103.6642
rg,1625105455269178843,1,0.5691,-0.6567,0.1885,335,128.54,40.5273,-19.8364,153,0.6843,0.2621,-1.8518,-58.0353,31,0.6323,7747,4.0271,-105.5271
rg,1625105455269197787,1,0.29,-0.3899,0.1721,336,127.1973,61.8286,-55.603,153,0.6853,0.2551,-3.5084,-53.0586,31,0.6293,8002,4.0271,-108.8711
rg,1625105455269216158,1,-0.0349,0.0237,0.1592,337,125.8545,107.1167,-64.8804,153,0.6873,0.2601,-2.162,-45.8468,31,0.6303,8580,4.0271,-113.8938
rg,1625105455269234713,1,-0.123,0.0706,0.1101,338,57.4341,108.6426,-14.1602,153,0.6893,0.2651,2.124,-41.9291,31,0.6303,7901,4.0271,-117.3197
rg,1625105455269253657,1,-0.125,0.0476,0.0566,339,-15.0757,91.4917,11.2915,153,0.6913,0.2731,5.8292,-46.1602,31,0.6323,8335,4.0271,-118.3615
rg,1625105455269272268,1,-0.0942,-0.2979,0.2295,340,-188.2935,13.916,19.5312,153,0.6963,0.2851,7.1025,-53.8896,31,0.6363,8179,4.0271,-118.333
rg,1625105455269290250,1,0.3718,-1.533,1.9609,341,-273.5596,-35.5225,21.1182,153,0.7033,0.2951,6.5092,-63.9605,31,0.6423,8080,4.0271,-116.5457
rg,1625105455269307935,1,0.2397,-1.8899,0.9172,342,-179.9316,-21.4844,25.3296,153,0.7133,0.3041,6.1466,-67.1312,31,0.6513,7810,4.0271,-114.9391
rg,1625105455269325324,1,0.4224,-1.915,0.7925,343,3.7842,-20.4468,8.8501,153,0.7264,0.3051,5.465,-66.8911,31,0.6613,8002,4.0271,-114.0471
rg,1625105455269343472,1,0.3152,-1.0496,0.7749,344,125.9766,-6.4087,-11.8408,153,0.7414,0.3061,4.1928,-61.3397,31,0.6663,7879,4.0271,-114.0096
rg,1625105455269361712,1,0.2664,-0.5908,0.3564,345,154.1138,-12.6343,-8.9111,153,0.7644,0.3222,2.7897,-55.2587,31,0.6653,8435,4.0271,-113.6715
rg,1625105455269379416,1,0.2529,-0.5249,0.2458,346,127.3804,-18.3716,-6.1035,153,0.7844,0.3342,1.1516,-50.5007,31,0.6603,8024,4.0271,-113.2926
rg,1625105455269412175,1,0.1392,-0.5447,0.2644,347,51.2695,-13.7939,-17.4561,153,0.8014,0.3392,-0.2858,-48.9643,31,0.6563,8760,4.0271,-113.3398
rg,1625105455269431379,1,-0.0874,-0.6406,0.3809,348,1.4648,-22.4609,-18.1274,153,0.8064,0.3552,-1.1423,-49.3006,31,0.6543,8456,4.0271,-113.1301
rg,1625105455269449619,1,-0.1428,-0.6548,0.3867,349,-28.6255,-55.603,-8.3618,153,0.7714,0.3642,-3.5923,-52.4526,31,0.6553,8246,4.0271,-109.4758
rg,1625105455269467026,1,0.2058,-0.7297,0.6704,350,-119.4458,-185.6689,19.3481,153,0.7274,0.3642,-7.4997,-57.6524,31,0.6523,8828,4.0271,-102.9194
rg,1625105455269485656,1,0.6438,-0.9565,0.5312,351,-140.625,-278.0762,32.3486,153,0.7053,0.3582,-12.5151,-65.2264,31,0.6473,8636,4.0271,-92.3398
rg,1625105455269503545,1,1.1169,-1.251,0.2441,352,-39.4287,-230.3467,73.9746,153,0.6883,0.3212,-14.3915,-69.5186,31,0.6353,8588,4.0271,-82.3184
rg,1625105455654032526,1,0.8804,-0.9817,0.3552,353,45.8374,143.9209,69.5801,153,0.6863,0.2711,-11.2026,-66.9846,31,0.6333,24750,4.0271,-88.59
rg,1625105455654068452,1,0.2124,-0.9426,0.3743,354,35.4614,248.1079,-28.6865,153,0.6873,0.2651,-7.4221,-64.1804,31,0.6323,15009,4.0271,-98.1578
rg,1625105455654088952,1,-0.3689,-0.5811,0.2039,355,108.0933,259.0332,-43.1519,153,0.6883,0.2661,-2.6658,-59.2085,31,0.6323,7524,4.0271,-108.0148
rg,1625105455654111655,1,-0.4592,-0.1216,0.1392,356,157.7148,119.4458,-22.583,153,0.6913,0.2681,1.3771,-52.5932,31,0.6333,7646,4.0271,-112.3538
rg,1625105455654131396,1,-0.4209,0.0569,0.092,357,129.0283,42.3584,-13.7329,153,0.6943,0.2741,4.2343,-46.9531,31,0.6353,7548,4.0271,-113.8753
rg,1625105455654150859,1,-0.2559,-0.0034,0.0986,358,-49.4385,-95.9473,16.4795,153,0.6993,0.2851,4.215,-48.1021,31,0.6393,7661,4.0271,-110.5586
rg,1625105455654169711,1,0.1587,-0.666,0.9431,359,-241.5161,-196.3501,42.3584,153,0.7063,0.2961,0.3584,-56.9372,31,0.6443,7803,4.0271,-103.2448
rg,1625105455654188525,1,0.8257,-1.584,2.3098,360,-268.2495,-189.27,48.0957,153,0.7153,0.3021,-2.1253,-66.9021,31,0.6543,8286,4.0271,-95.6343
rg,1625105455654206377,1,0.6531,-2.1875,0.4026,361,-36.3159,-86.4868,40.1001,153,0.7284,0.3071,-2.4876,-68.953,31,0.6643,8030,4.0271,-91.799
rg,1625105455654246895,1,0.6726,-1.4658,0.6863,362,125.8545,7.5684,-13.916,153,0.7464,0.3142,-3.6537,-63.7384,31,0.6673,8379,4.0271,-92.3438
rg,1625105455654267210,1,0.5374,-1.0117,0.6338,363,178.1616,40.8325,-20.6909,153,0.7714,0.3252,-4.4481,-56.1561,31,0.6643,7881,4.0271,-94.2572
rg,1625105455654284821,1,0.2581,-0.447,0.2014,364,182.4951,72.998,-8.667,153,0.7944,0.3332,-3.8622,-49.0161,31,0.6603,8251,4.0271,-96.8262
rg,1625105455654302802,1,0.052,-0.2756,0.2122,365,89.7217,87.2803,-13.6108,153,0.8104,0.3382,-2.0881,-45.4042,31,0.6553,7938,4.0271,-99.7626
rg,1625105455654319950,1,-0.1975,-0.4468,0.4736,366,-19.6533,50.1709,-9.2773,153,0.8184,0.3552,-0.2237,-46.0651,31,0.6543,10033,4.0271,-101.4673
rg,1625105455654337265,1,-0.2847,-0.5884,0.4856,367,-64.8804,-8.1177,-1.2817,153,0.7844,0.3712,-0.042,-48.8178,31,0.6543,7745,4.0271,-101.271
rg,1625105455654354191,1,0.0908,-0.8442,0.6895,368,-168.9453,-170.8374,24.231,153,0.7354,0.3712,-3.6048,-55.8183,31,0.6503,7745,4.0271,-95.2665
rg,1625105455654371320,1,0.5107,-1.092,0.522,369,-171.7529,-259.2163,19.8364,153,0.7113,0.3642,-8.8117,-64.0098,31,0.6473,7988,4.0271,-85.8075
rg,1625105455654388487,1,0.6995,-1.1995,0.4753,370,-116.0278,-248.9014,31.25,153,0.6943,0.3452,-12.2221,-70.5847,31,0.6393,8007,4.0271,-75.9379
rg,1625105455654405709,1,1.1172,-1.2432,0.3223,371,-35.8887,-136.1694,81.9092,153,0.6873,0.3102,-11.861,-73.4691,31,0.6363,7847,4.0271,-69.5624
rg,1625105455654423301,1,1.0847,-1.1497,0.6086,372,24.7803,69.458,68.9087,153,0.6853,0.2841,-9.4882,-71.7672,31,0.6353,8098,4.0271,-71.5285
rg,1625105455654440727,1,0.9878,-1.1938,0.51,373,46.6309,99.9146,71.7773,153,0.6863,0.2761,-6.5311,-69.3354,31,0.6343,8010,4.0271,-74.4342
rg,1625105455654458023,1,0.5291,-1.2114,0.415,374,48.4009,158.5693,8.4229,153,0.6863,0.2691,-4.5039,-66.8937,31,0.6343,8136,4.0271,-80.2327
rg,1625105455654474949,1,-0.0864,-0.9172,0.2957,375,114.8071,182.5562,-40.3442,153,0.6883,0.2691,-2.4651,-62.0659,31,0.6323,9709,4.0271,-87.4877
rg,1625105455654492060,1,-0.2844,-0.3206,0.1492,376,187.5,125.9766,-31.4331,153,0.6903,0.2721,0.5808,-54.5935,31,0.6323,9923,4.0271,-92.3206
rg,1625105455654509412,1,-0.2427,0.0811,0.1482,377,166.0767,11.1694,-22.2168,153,0.6943,0.2811,2.0287,-46.7003,31,0.6343,7947,4.0271,-93.08
rg,1625105455654526486,1,-0.1489,0.1155,0.0598,378,32.7148,-69.2749,9.5215,153,0.7003,0.2941,2.0839,-43.9026,31,0.6383,12659,4.0271,-90.7412
rg,1625105455654618948,1,0.0354,-0.2241,0.1233,379,-158.5083,-119.6899,47.6074,153,0.7083,0.3031,-0.127,-50.8005,31,0.6443,8967,4.0271,-85.9386
rg,1625105455654661115,1,0.9458,-1.4514,2.1013,380,-257.9956,-111.3281,52.6733,153,0.7153,0.3071,-1.6583,-60.5584,31,0.6553,8289,4.0271,-81.0277
rg,1625105455654681429,1,0.6648,-1.7683,0.8955,381,-159.5459,-39.917,46.5088,153,0.7254,0.3142,-1.312,-67.6011,31,0.6653,8525,4.0271,-78.7293
rg,1625105455654763188,1,0.7385,-1.8442,0.6785,382,18.3105,3.9062,18.7988,153,0.7434,0.3232,-1.3106,-66.9395,31,0.6703,8753,4.0271,-78.5903
rg,1625105455654805058,1,0.468,-0.9976,0.6636,383,124.1455,67.5659,-2.7466,153,0.7624,0.3322,-1.0228,-61.5314,31,0.6713,8591,4.0271,-81.1212
rg,1625105455654824410,1,0.2458,-0.4702,0.3535,384,129.3335,82.8857,0.5493,153,0.7824,0.3382,-0.1367,-56.021,31,0.6683,8943,4.0271,-83.9949
rg,1625105456001862159,1,-0.0759,-0.718,0.4839,385,-22.8271,0.4883,-2.3804,153,0.8074,0.3612,-0.038,-57.0382,31,0.6623,25236,4.0271,-84.0643
rg,1625105456001914974,1,0.0496,-0.8511,0.5811,386,-59.5093,-81.2988,14.2212,153,0.7754,0.3712,-1.3619,-59.3845,31,0.6643,8464,4.0271,-80.9964
rg,1625105456001947640,1,0.376,-0.9294,0.6421,387,-107.666,-157.4707,23.5596,153,0.7324,0.3762,-4.1669,-63.8116,31,0.6603,8101,4.0271,-74.9854
rg,1625105456001997954,1,0.6594,-1.1677,0.4397,388,-72.5098,-158.5693,43.7012,153,0.6973,0.3652,-6.0783,-67.4756,31,0.6503,14302,4.0271,-68.4271
rg,1625105456002029084,1,0.7871,-1.2285,0.375,389,-40.6494,-115.7837,62.9883,153,0.6883,0.3252,-6.3763,-69.8474,31,0.6393,7664,4.0271,-63.1356
rg,1625105456002058102,1,0.8774,-1.052,0.8203,390,13.4277,20.752,63.5376,153,0.6883,0.3041,-4.752,-68.7265,31,0.6403,7794,4.0271,-63.1012
rg,1625105456002086954,1,0.6223,-1.0742,0.4929,391,77.6978,65.2466,54.2603,153,0.6873,0.2911,-2.8977,-65.112,31,0.6383,7618,4.0271,-63.8614
rg,1625105456002114139,1,0.5066,-0.9666,0.375,392,83.1299,48.0957,27.832,153,0.6863,0.2881,-1.9454,-61.8584,31,0.6363,8205,4.0271,-65.1143
rg,1625105456002140231,1,0.1277,-0.6157,0.186,393,128.9673,70.8008,-28.4424,153,0.6873,0.2851,-1.8632,-57.0353,31,0.6353,8647,4.0271,-68.1333
rg,1625105456002168379,1,-0.0251,-0.1331,0.1118,394,137.8784,66.2842,-43.6401,153,0.6903,0.2891,-1.3343,-51.1578,31,0.6363,8090,4.0271,-71.2891
rg,1625105456002197009,1,-0.0981,0.0117,0.1414,395,122.9858,66.4062,-49.0112,153,0.6923,0.2931,0.2943,-44.676,31,0.6373,8385,4.0271,-74.5271
rg,1625105456002225046,1,-0.2136,0.0337,0.0686,396,29.541,53.9551,-9.0332,153,0.6953,0.3001,3.7297,-42.8316,31,0.6383,8567,4.0271,-76.2402
rg,1625105456002252045,1,-0.1323,-0.2317,0.1282,397,-142.8833,-31.5552,32.5928,153,0.7003,0.3082,4.6735,-49.0246,31,0.6423,7997,4.0271,-74.5119
rg,1625105456002278508,1,0.5649,-1.2986,1.9888,398,-228.5156,-90.8203,36.0718,153,0.7063,0.3132,2.2878,-58.9424,31,0.6473,8510,4.0271,-69.5038
rg,1625105456002306360,1,0.6033,-1.8108,1.3574,399,-208.8013,-86.6699,33.5083,153,0.7163,0.3212,1.2471,-66.911,31,0.6593,8058,4.0271,-65.7603
rg,1625105456002333711,1,0.7236,-2.0413,0.7371,400,-13.2446,-43.1519,23.1934,153,0.7294,0.3262,0.6731,-67.5093,31,0.6703,10547,4.0271,-63.8108
rg,1625105456002362045,1,0.5742,-1.1885,0.749,401,117.9199,32.6538,-3.1738,153,0.7474,0.3312,0.2231,-62.4435,31,0.6743,8131,4.0271,-65.0857
rg,1625105456002520321,1,0.3872,-0.616,0.3865,402,157.5928,53.3447,2.3804,153,0.7704,0.3412,0.3152,-55.9951,31,0.6713,8188,4.0271,-66.9338
rg,1625105456002554210,1,0.2988,-0.4651,0.2434,403,134.0942,63.2324,1.4648,153,0.7924,0.3492,1.0041,-50.8153,31,0.6673,8271,4.0271,-68.9737
rg,1625105456002582895,1,0.125,-0.4502,0.325,404,53.2227,51.8188,-6.0425,153,0.8074,0.3572,1.6104,-48.85,31,0.6633,9078,4.0271,-70.7293
rg,1625105456002610358,1,-0.0369,-0.6309,0.4729,405,-4.3335,8.8501,-3.3569,153,0.8164,0.3632,1.7819,-49.1918,31,0.6603,8105,4.0271,-71.0896
rg,1625105456002638654,1,0.0076,-0.7549,0.5083,406,-48.584,-77.3926,12.0239,153,0.8054,0.3732,0.0963,-51.3462,31,0.6603,7974,4.0271,-68.4048
rg,1625105456002671246,1,0.2114,-0.7996,0.6321,407,-85.7544,-124.939,26.3672,153,0.7564,0.3802,-2.5038,-54.8666,31,0.6623,8142,4.0271,-63.7607
rg,1625105456002699468,1,0.5469,-0.9307,0.5261,408,-144.4702,-201.0498,26.001,153,0.7224,0.3812,-6.7682,-61.4321,31,0.6593,8001,4.0271,-56.3127
rg,1625105456002726968,1,0.6938,-1.1775,0.3713,409,-97.6562,-173.8281,39.6118,153,0.6983,0.3702,-9.2294,-66.6807,31,0.6523,8993,4.0271,-49.2265
rg,1625105456002754079,1,0.9976,-1.2251,0.3687,410,-40.0391,-65.979,85.144,153,0.6893,0.3332,-8.1542,-69.0445,31,0.6403,8880,4.0271,-45.4125
rg,1625105456002924189,1,1.082,-1.1157,0.8411,411,-23.9868,28.2593,78.8574,153,0.6883,0.3041,-5.6192,-69.7691,31,0.6403,8661,4.0271,-45.4033
rg,1625105456002961689,1,0.7031,-1.2373,0.5732,412,63.4766,103.1494,76.7212,153,0.6883,0.2881,-2.1056,-66.8726,31,0.6393,9056,4.0271,-48.1626
rg,1625105456003043225,1,0.2937,-1.2129,0.3721,413,90.4541,117.3706,13.6719,153,0.6893,0.2781,-0.0877,-63.4037,31,0.6373,8890,4.0271,-52.2029
rg,1625105456003181076,1,-0.1118,-0.8279,0.2998,414,156.5552,125.9155,-23.3765,153,0.6903,0.2701,1.8501,-57.4841,31,0.6363,8524,4.0271,-57.0243
rg,1625105456003215502,1,-0.2454,-0.2566,0.1243,415,207.7026,64.6362,-40.7715,153,0.6913,0.2681,3.4847,-49.5358,31,0.6353,8784,4.0271,-59.9711
rg,1625105456003256650,1,-0.2783,-0.0144,0.1519,416,212.4634,19.5923,-47.7295,153,0.6933,0.2661,3.75,-40.3549,31,0.6363,8705,4.0271,-60.2294
rg,1625105456345098683,1,0.0667,-0.0112,-0.1792,417,-125.2441,-156.9824,51.7578,153,0.7033,0.2861,-0.0409,-46.6403,31,0.6433,25439,4.0271,-54.4739
rg,1625105456345135109,1,0.7883,-0.5872,1.1746,418,-355.957,-197.6929,62.1338,153,0.7113,0.2971,-3.849,-60.4081,31,0.6503,8872,4.0271,-46.5621
rg,1625105456345156220,1,0.8628,-2.0625,0.7917,419,-222.29,48.645,45.8984,153,0.7224,0.3021,-1.8654,-70.1615,31,0.6673,12722,4.0271,-47.4604
rg,1625105456345176220,1,0.6497,-2.1162,0.5803,420,6.5918,99.3652,13.1226,153,0.7394,0.3112,-0.6075,-69.9675,31,0.6733,9286,4.0271,-51.0205
rg,1625105456345195497,1,0.2837,-1.0081,0.7937,421,142.0288,150.1465,-19.043,153,0.7644,0.3232,0.6495,-63.4017,31,0.6763,7888,4.0271,-56.8611
rg,1625105456345214405,1,0.053,-0.386,0.3103,422,160.7056,109.9854,-14.3433,153,0.7824,0.3312,2.0662,-56.5973,31,0.6753,7655,4.0271,-60.9655
rg,1625105456345232164,1,-0.1541,-0.3508,0.3318,423,42.5415,58.7158,-22.3999,153,0.7954,0.3402,3.2562,-54.6204,31,0.6743,7536,4.0271,-63.3867
rg,1625105456345251534,1,-0.2251,-0.4631,0.4326,424,-11.6577,16.4795,-13.2446,153,0.8004,0.3532,3.8395,-54.84,31,0.6733,7703,4.0216,-64.2146
rg,1625105456345268997,1,-0.0903,-0.7686,0.51,425,-86.6089,-95.8862,6.897,153,0.7804,0.3582,2.0385,-58.1748,31,0.6733,7528,4.0216,-60.8622
rg,1625105456345287275,1,0.0908,-0.8853,0.6575,426,-130.6152,-151.7334,15.8081,153,0.7344,0.3642,-0.6244,-63.1196,31,0.6673,7727,4.0216,-55.248
rg,1625105456345307256,1,0.5042,-1.0991,0.5176,427,-168.0298,-250.6104,20.6299,153,0.7093,0.3582,-4.6277,-70.3289,31,0.6593,8819,4.0216,-45.6873
rg,1625105456345325774,1,0.7708,-1.2622,0.2681,428,-69.1528,-218.4448,35.2783,153,0.6913,0.3262,-6.9152,-74.2217,31,0.6423,8177,4.0216,-36.8559
rg,1625105456345343645,1,1.165,-1.0491,0.6216,429,-27.3438,-156.189,59.082,153,0.6883,0.2981,-6.2314,-74.5511,31,0.6423,8117,4.0216,-33.203
rg,1625105456345361182,1,1.0933,-1.1094,0.625,430,36.5601,23.9868,72.0825,153,0.6873,0.2831,-4.4931,-72.6484,31,0.6403,8396,4.0216,-33.3924
rg,1625105456345381107,1,0.9067,-1.2378,0.46,431,51.8799,87.6465,64.5142,153,0.6883,0.2731,-2.0871,-70.3179,31,0.6383,8153,4.0216,-35.9471
rg,1625105456345398293,1,0.3606,-1.2227,0.3855,432,91.98,148.5596,-3.7842,153,0.6883,0.2701,-0.6048,-66.5821,31,0.6373,7947,4.0216,-41.5466
rg,1625105456345417941,1,0.0715,-1.0056,0.302,433,126.8311,169.3726,-21.9116,153,0.6893,0.2681,1.3955,-61.8191,31,0.6363,8241,4.0216,-48.0238
rg,1625105456345436348,1,-0.2207,-0.3638,0.0825,434,217.2852,157.8369,-24.5361,153,0.6903,0.2681,4.9925,-53.996,31,0.6363,7853,4.0216,-53.8204
rg,1625105456345454977,1,-0.2246,0.1091,0.1282,435,213.1958,53.1006,-21.3013,153,0.6923,0.2751,7.523,-44.3608,31,0.6373,8299,4.0216,-55.7131
rg,1625105456345474718,1,-0.2598,0.2224,0.0991,436,160.7056,17.7612,-15.2588,153,0.6943,0.2791,9.356,-36.6033,31,0.6393,7911,4.0216,-56.3321
rg,1625105456345492051,1,-0.1721,0.1365,0.0168,437,-39.2456,-52.3071,27.5879,153,0.6993,0.2881,10.204,-36.5485,31,0.6423,8003,4.0216,-53.9564
rg,1625105456345509977,1,-0.0042,-0.363,0.2888,438,-251.1597,-109.5581,55.8472,153,0.7043,0.2951,8.0493,-46.3989,31,0.6463,7925,4.0216,-49.4123
rg,1625105456345532773,1,0.6965,-1.1895,2.25,439,-340.5151,-141.2354,63.7207,153,0.7113,0.3001,5.7916,-58.5016,31,0.6543,8100,4.0216,-43.1867
rg,1625105456345554514,1,0.4683,-2.1987,0.4353,440,-130.249,-38.6353,47.8516,153,0.7184,0.3051,6.0525,-64.1986,31,0.6643,8000,4.0216,-40.9518
rg,1625105456345572903,1,0.6887,-1.7917,0.6665,441,71.7773,-13.6719,8.4229,153,0.7304,0.3132,5.1147,-61.4616,31,0.6723,8160,4.0216,-40.3557
rg,1625105456345591365,1,0.4778,-1.125,0.6826,442,135.0708,31.0669,-15.0146,153,0.7454,0.3172,4.2795,-56.0751,31,0.6753,8048,4.0216,-41.7713
rg,1625105456345609625,1,0.2842,-0.4336,0.4158,443,178.5278,50.7202,-2.1973,153,0.7654,0.3272,4.3211,-48.7276,31,0.6733,8228,4.0216,-43.4846
rg,1625105456345627254,1,0.1375,-0.2527,0.1875,444,81.8481,59.3872,4.7607,153,0.7844,0.3352,5.001,-45.755,31,0.6713,7993,4.0216,-45.1511
rg,1625105456345645069,1,0.1089,-0.3936,0.3438,445,16.3574,39.856,3.2959,153,0.7964,0.3422,5.5491,-45.3099,31,0.6693,8183,4.0216,-46.2177
rg,1625105456345661680,1,0.0049,-0.7952,0.501,446,-50.6592,-14.2212,0.8545,153,0.8024,0.3492,4.9567,-47.7729,31,0.6693,8196,4.0216,-45.8213
rg,1625105456345681569,1,0.1206,-0.9512,0.5491,447,-68.6035,-83.9233,17.5171,153,0.7864,0.3562,2.8721,-50.7725,31,0.6723,8249,4.0216,-42.8415
rg,1625105456345701198,1,0.2808,-0.9465,0.6987,448,-89.2944,-113.9526,22.2168,153,0.7424,0.3592,-0.0401,-54.3686,31,0.6743,8086,4.0216,-38.6622
rg,1625105456695622796,1,0.804,-1.0886,0.3484,449,-80.3223,-95.9473,60.3638,153,0.6903,0.3172,-1.4528,-58.1953,31,0.6493,23853,4.0216,-34.0935
rg,1625105456695666258,1,0.7144,-1.22,0.6531,450,-65.7959,-11.7188,64.9414,153,0.6893,0.2871,1.5744,-58.8842,31,0.6483,8503,4.0216,-35.7023
rg,1625105456695688221,1,0.5964,-1.301,0.5752,451,33.2031,95.7642,77.0264,153,0.6883,0.2721,5.2497,-57.9109,31,0.6453,13246,4.0216,-37.3833
rg,1625105456695708091,1,0.207,-1.2156,0.4304,452,95.2759,95.3979,2.3193,153,0.6903,0.2691,6.8627,-54.921,31,0.6443,7536,4.0216,-40.5928
rg,1625105456695727184,1,0.0334,-0.9751,0.3647,453,125.4883,88.8672,-28.2593,153,0.6903,0.2651,7.7554,-50.9312,31,0.6423,7713,4.0216,-44.2194
rg,1625105456695746073,1,-0.2559,-0.4431,0.082,454,181.4575,72.6929,-48.7671,153,0.6913,0.2641,9.1168,-45.1505,31,0.6413,7653,4.0216,-47.7998
rg,1625105456695765054,1,-0.1895,-0.0203,0.1121,455,180.0537,25.1465,-37.2925,153,0.6923,0.2631,9.4402,-38.005,31,0.6413,7711,4.0216,-47.8822
rg,1625105456695783943,1,-0.1702,0.054,0.103,456,126.2207,-54.6875,-22.7661,153,0.6953,0.2701,8.8797,-31.6945,31,0.6433,8852,4.0216,-47.0717
rg,1625105456695802424,1,-0.0178,0.0205,0.0605,457,-14.9536,-109.436,14.5264,153,0.6993,0.2761,5.8253,-30.2312,31,0.6463,8063,4.0216,-44.0229
rg,1625105456695820331,1,0.3062,-0.3855,0.5876,458,-186.7676,-148.1323,40.2832,153,0.7043,0.2881,0.7295,-37.5109,31,0.6513,8132,4.0216,-39.3266
rg,1625105456695839424,1,0.9004,-1.0891,1.8442,459,-236.3281,-137.3901,42.2363,153,0.7123,0.2991,-3.0482,-47.5164,31,0.6593,8112,4.0216,-34.3139
rg,1625105456695858887,1,0.6682,-1.8286,0.4561,460,-80.9326,-8.9111,27.6489,153,0.7204,0.3031,-3.0887,-51.7987,31,0.6673,7731,4.0216,-33.2496
rg,1625105456695877868,1,0.5679,-1.4634,0.7749,461,45.7153,60.6079,-6.8359,153,0.7324,0.3051,-2.4073,-50.2483,31,0.6753,7933,4.0216,-35.3015
rg,1625105456695895701,1,0.3936,-1.0159,0.7595,462,99.4873,81.604,-18.4326,153,0.7484,0.3112,-1.378,-46.2826,31,0.6793,8131,4.0216,-38.2489
rg,1625105456695914664,1,0.2112,-0.5154,0.4602,463,135.0708,69.8853,-5.6763,153,0.7674,0.3222,-0.1332,-40.9322,31,0.6773,8012,4.0216,-40.3718
rg,1625105456695938979,1,0.1011,-0.4231,0.363,464,60.791,43.9453,-9.4604,153,0.7844,0.3292,0.5664,-38.8308,31,0.6763,7703,4.0216,-41.7989
rg,1625105456695957794,1,0.0483,-0.5112,0.4541,465,13.7939,22.583,-13.4277,153,0.7974,0.3382,0.7493,-38.6583,31,0.6733,8012,4.0216,-42.7883
rg,1625105456695976256,1,-0.04,-0.7488,0.46,466,-29.2358,-33.9355,-8.3008,153,0.8054,0.3482,-0.4272,-40.5814,31,0.6743,8010,4.0216,-42.187
rg,1625105456695995386,1,0.1768,-0.8218,0.5471,467,-52.7954,-99.6704,16.7236,153,0.8004,0.3542,-3.3094,-43.3882,31,0.6743,7907,4.0216,-39.005
rg,1625105456696039034,1,0.3818,-0.8145,0.6199,468,-80.7495,-138.3057,25.5737,153,0.7444,0.3612,-7.1113,-47.3734,31,0.6753,8042,4.0216,-34.2876
rg,1625105456696072830,1,0.6672,-0.9082,0.3215,469,-143.3105,-187.6831,18.1885,153,0.7023,0.3462,-12.275,-54.9191,31,0.6583,15625,4.0216,-27.7455
rg,1625105456696093422,1,0.9277,-1.0945,0.3677,470,-88.3179,-86.3037,53.5889,153,0.6903,0.3092,-13.3351,-59.8734,31,0.6423,7925,4.0216,-23.4311
rg,1625105456696114422,1,1.0034,-1.2773,0.8611,471,-32.5317,84.9609,78.186,153,0.6893,0.2871,-9.7225,-60.7435,31,0.6443,8110,4.0216,-24.9055
rg,1625105456696139478,1,0.8594,-1.4214,0.4927,472,11.1694,115.7227,94.9097,153,0.6893,0.2761,-4.9497,-60.3558,31,0.6423,7964,4.0216,-27.0497
rg,1625105456696158033,1,0.6567,-1.4714,0.4419,473,60.9741,137.8784,54.0161,153,0.6883,0.2721,-1.0156,-58.1863,31,0.6393,8200,4.0216,-30.6773
rg,1625105456696179014,1,0.1318,-1.0115,0.3242,474,145.9351,150.0244,-26.6113,153,0.6903,0.2681,1.2339,-52.9126,31,0.6363,8616,4.0216,-36.2258
rg,1625105456696281125,1,-0.1052,-0.6558,0.1934,475,183.7769,157.7759,-51.7578,153,0.6903,0.2671,4.909,-46.6737,31,0.6343,8435,4.0216,-42.3249
rg,1625105456696312921,1,-0.2698,-0.1067,0.1428,476,210.4492,98.5107,-50.5371,153,0.6913,0.2681,8.1906,-38.5311,31,0.6333,8689,4.0216,-46.345
rg,1625105456696337439,1,-0.3323,0.1641,0.0735,477,163.8794,22.4609,-24.5361,153,0.6943,0.2771,10.3574,-31.134,31,0.6363,8770,4.0216,-47.3909
rg,1625105456696357939,1,-0.2439,0.136,-0.02,478,-7.9956,-46.3867,28.6255,153,0.6983,0.2821,11.4233,-30.201,31,0.6393,8263,4.0216,-45.2431
rg,1625105456696381161,1,-0.054,-0.2656,0.1733,479,-112.854,-76.5381,48.584,153,0.7043,0.2951,8.9064,-38.8657,31,0.6433,8893,4.0216,-40.8747
rg,1625105456696412087,1,0.4189,-0.8296,1.5762,480,-305.6641,-159.9731,63.7817,153,0.7123,0.3021,5.3148,-49.8053,31,0.6513,8559,4.0216,-34.4185
rg,1625105457046357476,1,0.5635,-1.4189,0.7678,481,107.4829,22.583,-21.8506,153,0.7514,0.3162,4.3277,-46.0341,31,0.6723,25089,4.0216,-35.7514
rg,1625105457046388198,1,0.3279,-0.699,0.5679,482,176.0864,47.6074,-23.9868,153,0.7894,0.3342,4.5603,-40.301,31,0.6633,10359,4.0216,-37.9746
rg,1625105457046408846,1,0.0916,-0.3525,0.2363,483,120.4834,61.9507,-18.3716,153,0.8054,0.3412,5.3909,-38.1643,31,0.6583,7826,4.0216,-39.7692
rg,1625105457046447661,1,-0.0886,-0.4089,0.3918,484,19.2871,21.8506,-16.8457,153,0.8154,0.3482,5.8014,-37.8062,31,0.6553,7478,4.0216,-40.8722
rg,1625105457046466309,1,-0.1904,-0.5815,0.385,485,-40.8936,-64.8193,-4.5776,153,0.8134,0.3522,4.0617,-40.0052,31,0.6543,7783,4.0216,-39.4543
rg,1625105457046484438,1,-0.0356,-0.6626,0.5261,486,-86.9141,-121.7041,11.1084,153,0.7744,0.3592,0.6924,-43.7667,31,0.6563,7544,4.0216,-35.8972
rg,1625105457046502697,1,0.4922,-0.8784,0.717,487,-169.6777,-245.0562,27.0996,153,0.7314,0.3602,-6.0055,-51.1623,31,0.6543,7651,4.0216,-27.9061
rg,1625105457046520512,1,0.8044,-1.1462,0.3962,488,-112.2437,-254.7607,34.0576,153,0.7113,0.3592,-11.8319,-57.7136,31,0.6533,8777,4.0216,-18.6146
rg,1625105457046588975,1,0.9883,-1.2327,0.2239,489,-57.5562,-214.9658,61.8286,153,0.6953,0.3382,-15.1558,-62.8638,31,0.6443,8319,4.0216,-9.4797
rg,1625105457046607419,1,1.2808,-1.1001,0.196,490,-28.1982,-50.293,79.7119,153,0.6903,0.3041,-14.4353,-65.2766,31,0.6413,7932,4.0216,-6.0322
rg,1625105457046625030,1,0.9109,-0.9807,0.5742,491,24.5972,157.1655,43.1519,153,0.6893,0.2811,-11.1031,-62.9849,31,0.6403,10221,4.0216,-11.1392
rg,1625105457046653307,1,0.5845,-1.2068,0.552,492,2.0752,191.1011,30.8228,153,0.6883,0.2771,-7.0114,-61.9875,31,0.6393,8003,4.0216,-17.4233
rg,1625105457046671918,1,0.2808,-1.3506,0.5864,493,18.5547,211.3037,-2.8076,153,0.6913,0.2731,-3.4541,-58.985,31,0.6383,8103,4.0216,-25.1334
rg,1625105457046689178,1,-0.3276,-1.4119,0.6174,494,114.502,177.5513,-25.1465,153,0.6903,0.2711,0.171,-54.503,31,0.6363,8197,4.0216,-31.5783
rg,1625105457046706641,1,-0.4753,-1.0149,0.4348,495,202.6367,78.7964,-10.6812,153,0.6923,0.2691,2.7071,-46.9259,31,0.6353,8401,4.0216,-34.2261
rg,1625105457046723752,1,-0.2415,-0.3767,0.1875,496,227.1118,-100.2808,-15.1978,153,0.6953,0.2701,0.4043,-38.3704,31,0.6373,8114,4.0216,-31.9004
rg,1625105457046741122,1,-0.1389,-0.1091,0.1687,497,237.6709,-162.5366,-32.2876,153,0.6983,0.2741,-4.4106,-28.8226,31,0.6383,8274,4.0216,-29.2677
rg,1625105457046757992,1,-0.0449,0.2004,0.1306,498,237.6709,-185.4248,-33.2642,153,0.7043,0.2801,-11.2434,-17.3839,31,0.6433,8291,4.0216,-27.6966
rg,1625105457046774585,1,0.0808,0.2949,-0.126,499,146.1792,-134.1553,26.7944,153,0.7103,0.2881,-16.9585,-10.412,31,0.6493,8006,4.0216,-25.6885
rg,1625105457046791399,1,0.125,0.3064,-0.241,500,47.8516,-101.7456,55.7251,153,0.7153,0.3001,-21.7234,-7.9855,31,0.6583,7891,4.0216,-23.1385
rg,1625105457046808529,1,0.2656,0.0811,-0.2385,501,-203.4302,-97.3511,85.2661,153,0.7224,0.3041,-26.8346,-17.7336,31,0.6683,8060,4.0216,-18.4748
rg,1625105457046825621,1,1.8982,-1.0535,2.6267,502,-477.2339,-137.8784,93.6279,153,0.7334,0.3082,-30.0797,-39.9802,31,0.6783,7949,4.0216,-11.6826
rg,1625105457046843214,1,1.978,-2.3047,3.0281,503,-411.8652,59.5093,66.1621,153,0.7484,0.3162,-26.3621,-58.1498,31,0.6843,8658,4.0216,-10.8281
rg,1625105457046860714,1,0.71,-2.5847,0.0063,504,-80.2002,163.3301,18.6157,153,0.7714,0.3222,-22.0816,-60.202,31,0.6853,8346,4.0216,-16.0111
rg,1625105457046892917,1,0.2598,-1.5767,1.0066,505,118.7744,207.2144,-26.001,153,0.7924,0.3302,-17.8439,-52.6327,31,0.6823,8689,4.0216,-23.969
rg,1625105457046911028,1,0.0193,-0.4661,0.5549,506,196.228,138.1226,-35.1562,153,0.8094,0.3392,-14.565,-42.8439,31,0.6773,8847,4.0216,-29.3056
rg,1625105457046928510,1,-0.1833,-0.1301,0.353,507,150.2075,108.3374,-37.0483,153,0.8224,0.3492,-11.7559,-38.3605,31,0.6733,8642,4.0216,-32.6137
rg,1625105457046945991,1,-0.2649,-0.2087,0.4031,508,3.3569,30.0293,-25.5127,153,0.8274,0.3592,-9.9265,-37.5453,31,0.6713,8762,4.0216,-34.2513
rg,1625105457046963454,1,-0.1169,-0.5981,0.4802,509,-103.9429,-109.1309,9.2773,153,0.8104,0.3682,-12.2843,-42.8236,31,0.6693,8545,4.0216,-31.0286
rg,1625105457046992972,1,0.3291,-0.9695,0.7019,510,-181.8848,-231.7505,27.0996,153,0.7534,0.3732,-17.7953,-52.5575,31,0.6683,8501,4.0216,-23.094
rg,1625105457047010565,1,0.6772,-1.1558,0.2905,511,-169.1284,-274.1089,24.4141,153,0.7174,0.3652,-23.1771,-63.8238,31,0.6623,8459,4.0216,-12.3348
rg,1625105457047027305,1,0.9648,-1.2305,0.3364,512,-115.9058,-247.6807,23.3154,153,0.7013,0.3422,-25.0838,-69.4926,31,0.6533,9068,4.0216,-3.9461
rg,1625105457394645349,1,0.8931,-1.1067,0.4399,513,53.4668,129.6387,75.9888,153,0.6893,0.2821,-20.6425,-65.9285,31,0.6423,25021,4.0216,-7.8762
rg,1625105457394689200,1,0.4172,-1.2839,0.3218,514,86.2427,153.5034,3.1128,153,0.6913,0.2811,-17.8266,-59.1694,31,0.6403,13298,4.0216,-14.4989
rg,1625105457394709756,1,-0.0107,-0.8955,0.3052,515,162.3535,175.6592,-28.9917,153,0.6913,0.2811,-14.1145,-51.3486,31,0.6393,7545,4.0216,-20.9839
rg,1625105457394729459,1,-0.1548,-0.2466,0.1489,516,228.6377,119.812,-43.1519,153,0.6933,0.2841,-10.5768,-41.5141,31,0.6383,7694,4.0216,-25.5419
rg,1625105457394748756,1,-0.1838,0.0022,0.1824,517,228.6377,89.3555,-50.5981,153,0.6963,0.2861,-7.0989,-30.7758,31,0.6393,7456,4.0216,-29.3404
rg,1625105457394767570,1,-0.3352,0.2197,0.1062,518,161.5601,74.4629,-30.0903,153,0.7003,0.2961,-3.1908,-22.7996,31,0.6423,7632,4.0216,-31.799
rg,1625105457394786589,1,-0.3384,0.1555,0.0232,519,-26.3062,16.3574,28.8086,153,0.7053,0.3051,-0.1032,-22.9433,31,0.6473,8597,4.0216,-31.045
rg,1625105457394806329,1,-0.28,-0.0393,0.0933,520,-122.6196,-28.1372,39.6729,153,0.7123,0.3132,1.6935,-27.8014,31,0.6563,7878,4.0216,-29.2184
rg,1625105457394824755,1,0.1873,-0.9131,1.9626,521,-305.481,-152.9541,57.0068,153,0.7224,0.3182,-2.3348,-39.8698,31,0.6683,8190,4.0216,-23.9167
rg,1625105457394856588,1,0.4514,-1.9631,0.6587,522,-289.3677,-158.0811,53.894,153,0.7334,0.3262,-5.7681,-47.1435,31,0.6793,7890,4.0216,-18.5425
rg,1625105457394875681,1,0.696,-2.1792,0.5083,523,-24.231,-155.2124,31.311,153,0.7494,0.3332,-9.3918,-49.9112,31,0.6843,8039,4.0216,-12.8931
rg,1625105457394894292,1,0.728,-1.2161,0.6475,524,109.5581,-25.5737,-4.1504,153,0.7674,0.3412,-10.9192,-46.0666,31,0.6863,8336,4.0216,-12.1906
rg,1625105457394912403,1,0.4036,-0.4421,0.5581,525,136.9019,45.6543,-16.3574,153,0.7824,0.3472,-10.7593,-39.9922,31,0.6853,7787,4.0216,-14.0405
rg,1625105457394956106,1,0.238,-0.2114,0.3962,526,99.8535,62.0728,-9.8267,153,0.7934,0.3572,-9.7144,-35.2462,31,0.6863,8119,4.0216,-16.0101
rg,1625105457394978125,1,0.0837,-0.332,0.4377,527,-28.3203,30.2124,-1.1597,153,0.7984,0.3652,-8.7223,-36.3228,31,0.6853,7939,4.0216,-16.7549
rg,1625105457395008625,1,0.1042,-0.8279,0.6047,528,-108.5205,-68.8477,-7.9956,153,0.7994,0.3712,-10.9447,-41.5864,31,0.6843,8532,4.0216,-15.1471
rg,1625105457395028532,1,0.2034,-1.0154,0.5979,529,-110.7178,-109.9854,-2.6855,153,0.7814,0.3772,-14.1024,-47.3633,31,0.6873,8008,4.0216,-11.9334
rg,1625105457395048958,1,0.5566,-1.0872,0.5627,530,-91.3696,-165.6494,22.8882,153,0.7424,0.3782,-18.016,-53.2097,31,0.6873,8147,4.0216,-5.864
rg,1625105457395068661,1,0.7656,-0.9851,0.3625,531,-106.4453,-162.9028,28.8696,153,0.7143,0.3652,-21.311,-60.193,31,0.6803,7849,4.0216,0.8036
rg,1625105457395087309,1,0.7493,-0.9531,0.3596,532,-100.0977,-118.7134,25.0244,153,0.6973,0.3422,-23.1124,-66.4159,31,0.6653,7924,4.0216,6.0152
rg,1625105457395105291,1,0.6829,-0.9573,0.3611,533,-53.5278,8.4839,56.0303,153,0.6903,0.3092,-21.3314,-68.8673,31,0.6433,9841,4.0216,6.6329
rg,1625105457395123291,1,0.6155,-1.0562,0.6895,534,-19.4092,84.4116,72.5098,153,0.6913,0.2931,-17.6215,-68.4352,31,0.6403,8701,4.0216,4.2318
rg,1625105457395141809,1,0.4368,-1.1729,0.3936,535,38.8794,56.6406,61.9507,153,0.6923,0.2851,-14.5525,-66.6529,31,0.6373,7951,4.0216,3.0572
rg,1625105457395159401,1,0.3267,-1.1138,0.3706,536,65.4907,57.8003,45.4102,153,0.6923,0.2801,-12.2424,-62.4136,31,0.6343,8240,4.0216,1.3383
rg,1625105457395177494,1,0.1384,-0.8147,0.3203,537,122.1313,57.312,25.5737,153,0.6933,0.2771,-10.0957,-57.48,31,0.6323,8033,4.0216,-0.1117
rg,1625105457395196142,1,-0.0146,-0.4604,0.2239,538,122.6807,48.5229,10.3149,153,0.6953,0.2721,-8.4124,-53.3323,31,0.6303,11819,4.0216,-0.844
rg,1625105457395215234,1,-0.0776,-0.3318,0.2607,539,70.9229,2.0752,16.6626,153,0.6963,0.2711,-7.1039,-50.481,31,0.6323,8189,4.0216,-0.4865
rg,1625105457395233290,1,0.0305,-0.5325,0.4092,540,2.4414,-65.1855,29.7852,153,0.6993,0.2701,-7.6468,-50.8098,31,0.6323,8562,4.0216,2.318
rg,1625105457395251308,1,0.2671,-0.8823,0.5933,541,-29.1138,-102.417,32.5928,159,0.7013,0.2711,-9.3945,-52.7692,31,0.6373,8419,4.0216,6.4199
rg,1625105457395304252,1,0.4624,-1.0361,0.5784,542,-22.8271,-99.1211,28.1372,159,0.7033,0.2711,-11.2143,-53.7782,31,0.6403,8452,4.0216,9.615
rg,1625105457395328882,1,0.4758,-0.9729,0.5305,543,14.4043,-56.5186,7.6294,159,0.7053,0.2711,-12.7661,-53.9005,31,0.6433,8427,4.0216,11.7203
rg,1625105457395349197,1,0.3335,-0.7661,0.5322,544,22.644,-1.0986,-8.606,159,0.7083,0.2721,-13.3383,-52.9943,31,0.6453,8942,4.0216,11.5524
rg,1625105457759159664,1,0.1643,-0.8523,0.5117,545,-7.9956,-6.6528,-12.085,159,0.7133,0.2751,-14.0974,-53.5776,31,0.6523,24287,4.0216,12.0926
rg,1625105457759247164,1,0.3179,-0.8345,0.5264,546,5.4932,-41.687,-7.6294,159,0.7163,0.2771,-15.7109,-53.6532,31,0.6553,11057,4.0216,13.4742
rg,1625105457759281256,1,0.4314,-0.792,0.4883,547,12.9395,-44.5557,-9.3384,159,0.7184,0.2811,-17.4193,-53.6617,31,0.6583,7475,4.0216,14.7888
rg,1625105457759311385,1,0.4492,-0.7627,0.4404,548,15.3809,-24.6582,-12.3291,159,0.7194,0.2821,-18.775,-53.4334,31,0.6613,7634,4.0216,15.3835
rg,1625105457759340070,1,0.4155,-0.728,0.4058,549,17.1509,-8.4839,-12.085,159,0.7214,0.2831,-19.6699,-53.0084,31,0.6643,7508,4.0216,15.451
rg,1625105457759368385,1,0.3179,-0.709,0.4348,550,12.085,12.4512,-9.3384,159,0.7224,0.2841,-19.7161,-52.5049,31,0.6663,7941,4.0216,14.8577
rg,1625105457759396533,1,0.2898,-0.7632,0.4651,551,8.606,1.8311,-3.54,159,0.7244,0.2871,-19.7142,-52.3425,31,0.6673,8877,4.0216,14.7838
rg,1625105457759425311,1,0.3162,-0.8015,0.4822,552,10.498,-7.2632,-0.6104,159,0.7264,0.2861,-19.8691,-52.2521,31,0.6693,8147,4.0216,15.0984
rg,1625105457759453125,1,0.3848,-0.8337,0.4976,553,19.4702,-15.8691,1.8921,159,0.7264,0.2891,-20.2667,-51.9335,31,0.6703,7784,4.0216,15.7705
rg,1625105457759481310,1,0.4094,-0.8096,0.4941,554,28.3813,-10.6201,0.4272,159,0.7274,0.2891,-20.6383,-51.1747,31,0.6713,8163,4.0216,16.2225
rg,1625105457759506514,1,0.384,-0.7942,0.4966,555,30.7617,-6.6528,0.4272,159,0.7274,0.2901,-20.8107,-50.2636,31,0.6723,8145,4.0216,16.5379
rg,1625105457759533847,1,0.3149,-0.7666,0.5103,556,32.8979,0.6714,-1.77,159,0.7284,0.2911,-20.7713,-49.1571,31,0.6723,7832,4.0216,16.5509
rg,1625105457759560495,1,0.2754,-0.7705,0.5076,557,32.6538,0.1221,-2.1973,159,0.7294,0.2921,-20.6723,-48.1214,31,0.6723,8068,4.0216,16.5907
rg,1625105457759622773,1,0.2637,-0.7676,0.5068,558,32.5928,-4.1504,-2.1362,159,0.7304,0.2911,-20.6762,-47.1697,31,0.6733,8084,4.0216,16.7779
rg,1625105457759658624,1,0.2842,-0.7551,0.5105,559,33.9355,-15.7471,-2.9907,159,0.7294,0.2911,-21.0639,-46.3019,31,0.6733,8239,4.0216,17.3057
rg,1625105457759688457,1,0.3413,-0.7439,0.4883,560,35.5225,-22.0337,-3.418,159,0.7304,0.2921,-21.7764,-45.4962,31,0.6733,9197,4.0216,18.0306
rg,1625105457759715865,1,0.3853,-0.7263,0.4836,561,36.0107,-18.7988,-5.0659,159,0.7304,0.2931,-22.5377,-44.6285,31,0.6733,9206,4.0216,18.6056
rg,1625105457759745087,1,0.3958,-0.7229,0.5039,562,34.729,-14.2822,-7.019,159,0.7314,0.2931,-23.1346,-43.6507,31,0.6733,7983,4.0216,18.7738
rg,1625105457759771438,1,0.3857,-0.7324,0.52,563,34.0576,-5.9814,-10.7422,159,0.7314,0.2931,-23.6162,-42.6485,31,0.6733,8017,4.0216,18.7785
rg,1625105457759798049,1,0.3638,-0.7456,0.5547,564,34.4238,-3.2959,-11.9629,159,0.7314,0.2941,-23.9556,-41.5759,31,0.6733,8045,4.0216,18.6579
rg,1625105457759826512,1,0.3503,-0.7549,0.5632,565,34.5459,-2.3193,-13.3057,159,0.7314,0.2951,-24.2528,-40.4331,31,0.6733,7919,4.0216,18.5092
rg,1625105457759854438,1,0.3337,-0.7446,0.5762,566,38.147,-5.9204,-14.0991,159,0.7314,0.2961,-24.6217,-39.2557,31,0.6743,9090,4.0216,18.399
rg,1625105457759883012,1,0.3491,-0.7275,0.5879,567,39.5508,-8.7891,-15.8691,159,0.7314,0.2951,-25.1407,-38.0198,31,0.6753,8457,4.0216,18.2951
rg,1625105457759909345,1,0.3323,-0.7224,0.5728,568,37.4146,-9.8877,-22.0947,159,0.7324,0.2951,-25.8003,-36.8534,31,0.6753,8353,4.0216,18.0218
rg,1625105457759935141,1,0.2937,-0.7209,0.5786,569,36.6821,-15.686,-26.3062,159,0.7324,0.2971,-26.6283,-35.7467,31,0.6753,8523,4.0216,17.7556
rg,1625105457759963030,1,0.2988,-0.7131,0.5862,570,38.4521,-21.4233,-27.0996,159,0.7334,0.2971,-27.7264,-34.6142,31,0.6753,8844,4.0216,17.5923
rg,1625105457759992067,1,0.3726,-0.698,0.5735,571,41.5039,-36.7432,-26.9775,159,0.7334,0.2981,-29.3633,-33.5701,31,0.6743,8203,4.0216,17.8235
rg,1625105457760033937,1,0.458,-0.6858,0.5474,572,46.3257,-39.1846,-26.123,159,0.7334,0.2991,-31.2095,-32.414,31,0.6763,8762,4.0216,18.1503
rg,1625105457760066918,1,0.5337,-0.6748,0.5469,573,50.5981,-31.7993,-24.353,159,0.7334,0.3001,-32.858,-31.0138,31,0.6753,8611,4.0216,18.3395
rg,1625105457760095603,1,0.561,-0.6702,0.5625,574,53.4668,-24.7192,-25.3906,159,0.7334,0.3021,-33.8513,-29.0941,31,0.6763,8611,4.0216,17.9768
rg,1625105457760132640,1,0.5422,-0.6531,0.5566,575,58.4106,0.5493,-24.5361,159,0.7334,0.3031,-34.2958,-26.9744,31,0.6763,8451,4.0216,17.3688
rg,1625105457760163343,1,0.4526,-0.6011,0.5571,576,62.561,20.5688,-21.3623,159,0.7344,0.3031,-33.7849,-24.5422,31,0.6773,8618,4.0216,16.4769
rg,1625105458101076274,1,0.365,-0.5742,0.6672,577,53.9551,-7.7515,-14.7095,159,0.7344,0.3041,-33.9027,-22.8144,31,0.6773,24634,4.0216,16.377
rg,1625105458101124088,1,0.4834,-0.5942,0.6528,578,56.0303,-36.3159,-17.9443,159,0.7354,0.3041,-35.3644,-21.301,31,0.6773,18632,4.0216,16.6878
rg,1625105458101179921,1,0.532,-0.5779,0.6565,579,57.0679,-34.1797,-18.2495,159,0.7354,0.3041,-36.7962,-19.6956,31,0.6763,7543,4.0216,16.9157
rg,1625105458101203218,1,0.5496,-0.5676,0.6487,580,58.5938,-31.9214,-16.9678,159,0.7354,0.3041,-37.9982,-17.9798,31,0.6773,7668,4.0216,17.0952
rg,1625105458101222662,1,0.5723,-0.5676,0.6465,581,60.3638,-24.1089,-15.8691,159,0.7354,0.3051,-38.7362,-16.1827,31,0.6763,7657,4.0216,17.1451
rg,1625105458101317735,1,0.585,-0.5718,0.6575,582,60.73,-8.1177,-14.1602,159,0.7354,0.3031,-39.1105,-14.4059,31,0.6773,7760,4.0216,17.1948
rg,1625105458101340587,1,0.5474,-0.5535,0.6555,583,63.5376,10.8032,-11.2305,159,0.7354,0.3041,-38.6558,-12.5081,31,0.6773,7575,4.0216,17.1842
rg,1625105458101381865,1,0.5222,-0.5405,0.6697,584,62.9883,17.395,-10.1318,159,0.7344,0.3031,-37.892,-10.6728,31,0.6783,7669,4.0216,17.1931
rg,1625105458101404142,1,0.469,-0.5339,0.688,585,61.2793,24.7192,-11.5356,159,0.7364,0.3041,-36.758,-8.9023,31,0.6783,7581,4.0216,17.1217
rg,1625105458101424920,1,0.4045,-0.5178,0.7073,586,59.5703,24.7192,-11.2915,159,0.7364,0.3051,-35.5329,-7.2667,31,0.6783,7749,4.0216,17.0021
rg,1625105458101444198,1,0.3804,-0.511,0.7217,587,55.7861,20.1416,-13.5498,159,0.7364,0.3031,-34.4578,-5.7996,31,0.6783,8175,4.0216,16.9376
rg,1625105458101463475,1,0.3752,-0.5005,0.7349,588,55.0537,1.1597,-14.1602,159,0.7364,0.3041,-34.1488,-4.4248,31,0.6773,7866,4.0216,16.9413
rg,1625105458101482438,1,0.4553,-0.5056,0.7449,589,54.5654,-18.2495,-15.2588,159,0.7354,0.3031,-34.7724,-3.0839,31,0.6773,7910,4.0216,16.9521
rg,1625105458101502660,1,0.4939,-0.511,0.7527,590,54.3213,-22.2168,-15.8691,159,0.7364,0.3021,-35.5961,-1.7598,31,0.6773,8179,4.0216,16.9484
rg,1625105458101521827,1,0.5447,-0.5103,0.7751,591,55.6641,-18.9209,-18.6157,159,0.7364,0.3041,-36.3247,-0.2801,31,0.6783,8000,4.0216,16.7901
rg,1625105458101539142,1,0.5645,-0.5042,0.791,592,57.373,-7.3853,-16.4795,159,0.7374,0.3051,-36.5805,1.2029,31,0.6783,7798,4.0216,16.7394
rg,1625105458101557642,1,0.5691,-0.4937,0.8054,593,58.96,-0.1221,-14.2212,159,0.7364,0.3041,-36.5309,2.6633,31,0.6783,7709,4.0216,16.8194
rg,1625105458101575919,1,0.5544,-0.4614,0.791,594,62.439,11.7188,-10.8643,159,0.7364,0.3041,-36.0133,4.1371,31,0.6783,7812,4.0216,17.104
rg,1625105458101593419,1,0.5374,-0.4038,0.7876,595,63.7207,16.1133,-7.5684,159,0.7364,0.3031,-35.1614,5.5613,31,0.6783,7836,4.0216,17.6693
rg,1625105458101612141,1,0.5271,-0.3667,0.7781,596,64.0869,23.1934,-2.6855,159,0.7364,0.3031,-34.2426,6.912,31,0.6773,8776,4.0216,18.3642
rg,1625105458101631419,1,0.5212,-0.3193,0.7896,597,57.8003,25.0854,-1.5259,159,0.7364,0.3021,-33.2676,8.0402,31,0.6773,8096,4.0216,19.09
rg,1625105458101649715,1,0.5168,-0.3352,0.833,598,48.7671,28.5645,-1.1597,159,0.7374,0.3031,-32.1432,8.7353,31,0.6763,8546,4.0216,19.8829
rg,1625105458101689215,1,0.4919,-0.3765,0.8838,599,42.4194,28.9307,-3.6621,159,0.7364,0.3021,-30.94,9.1509,31,0.6773,8343,4.0216,20.5986
rg,1625105458101715363,1,0.4836,-0.3953,0.9075,600,42.7856,25.7568,-2.7466,159,0.7374,0.3021,-29.8774,9.5408,31,0.6783,8138,4.0216,21.3328
rg,1625105458101735604,1,0.5012,-0.4016,0.9348,601,46.2036,18.4937,-2.0752,159,0.7374,0.3001,-29.1506,10.0868,31,0.6773,8374,4.0216,22.0233
rg,1625105458101754215,1,0.5239,-0.3733,0.9248,602,49.9878,13.1226,-1.8311,159,0.7384,0.3031,-28.7126,10.844,31,0.6773,8355,4.0216,22.6511
rg,1625105458101772807,1,0.5225,-0.3506,0.9119,603,52.6123,13.855,-0.8545,159,0.7384,0.3021,-28.2932,11.7288,31,0.6773,8019,4.0216,23.3044
rg,1625105458101791177,1,0.5422,-0.3064,0.907,604,53.833,17.1509,0.7935,159,0.7384,0.3021,-27.807,12.645,31,0.6773,8245,4.0216,24.0468
rg,1625105458101810677,1,0.5688,-0.2822,0.8975,605,53.3447,20.9961,5.249,159,0.7414,0.3021,-27.2915,13.4633,31,0.6783,8311,4.0216,25.0102
rg,1625105458101828862,1,0.592,-0.2642,0.8892,606,45.7764,30.3345,6.7139,159,0.7414,0.3041,-26.5023,13.9329,31,0.6783,9126,4.0216,26.1241
rg,1625105458101847529,1,0.5823,-0.272,0.9106,607,44.6777,37.4756,6.2866,159,0.7444,0.3061,-25.0473,14.0289,31,0.6783,8598,4.0216,27.3969
rg,1625105458101865918,1,0.5186,-0.3022,0.9578,608,36.3159,53.4668,6.8359,159,0.7454,0.3061,-23.2569,13.9653,31,0.6793,8368,4.0216,28.7532
rg,1625105458454274969,1,0.3501,-0.3237,1.0366,609,38.269,45.166,11.6577,159,0.7484,0.3092,-21.9465,14.0005,31,0.6803,24088,4.0216,30.0531
rg,1625105458454355413,1,0.4143,-0.2632,1.002,610,42.7856,-2.8687,13.7329,159,0.7484,0.3112,-22.2793,14.4043,31,0.6793,14800,4.0216,31.0112
rg,1625105458454376321,1,0.4634,-0.2427,0.9858,611,40.0391,-7.0801,14.4653,159,0.7514,0.3122,-22.876,14.7353,31,0.6803,7532,4.0216,31.9465
rg,1625105458454396320,1,0.5376,-0.2297,0.9641,612,35.4004,-5.8594,16.1133,159,0.7524,0.3122,-23.5744,14.8768,31,0.6803,7489,4.0216,32.9627
rg,1625105458454417431,1,0.5476,-0.2295,0.9375,613,32.959,1.77,16.4795,159,0.7534,0.3152,-24.0033,14.8635,31,0.6803,7677,4.0216,34.0987
rg,1625105458454492764,1,0.5466,-0.2422,0.9282,614,25.4517,21.3623,17.6392,159,0.7544,0.3152,-23.6794,14.4146,31,0.6803,7509,4.0216,35.5218
rg,1625105458454522931,1,0.4971,-0.2832,0.9497,615,20.0806,39.3677,17.5171,159,0.7564,0.3152,-22.5529,13.6204,31,0.6803,8214,4.0216,37.1422
rg,1625105458454544579,1,0.458,-0.2966,0.9587,616,18.9209,45.105,18.6768,159,0.7574,0.3172,-20.9546,12.7577,31,0.6803,7934,4.0216,38.9135
rg,1625105458454563227,1,0.3777,-0.3191,0.9878,617,21.4844,49.9878,20.6909,159,0.7574,0.3192,-19.2482,11.9996,31,0.6813,7923,4.0216,40.6526
rg,1625105458454581931,1,0.3242,-0.2847,0.9731,618,26.062,42.7856,22.0947,159,0.7584,0.3222,-17.7791,11.5477,31,0.6803,8254,4.0216,42.2957
rg,1625105458454600153,1,0.3105,-0.2451,0.9526,619,26.8555,36.377,23.0103,159,0.7614,0.3252,-16.8516,11.2599,31,0.6813,8251,4.0216,43.7822
rg,1625105458454619819,1,0.325,-0.2302,0.959,620,26.4282,24.7803,22.7051,159,0.7624,0.3272,-16.1662,11.0482,31,0.6803,7820,4.0216,45.1891
rg,1625105458454638560,1,0.333,-0.2358,0.9751,621,22.3999,18.1274,21.8506,159,0.7654,0.3272,-15.7589,10.7194,31,0.6813,8297,4.0216,46.4888
rg,1625105458454657356,1,0.3162,-0.2729,0.99,622,19.5312,16.9067,19.2871,159,0.7674,0.3332,-15.4646,10.2118,31,0.6813,7921,4.0216,47.5828
rg,1625105458454675226,1,0.311,-0.2759,0.9836,623,16.1133,9.4604,16.4185,159,0.7704,0.3402,-15.3179,9.6725,31,0.6813,8403,4.0216,48.5879
rg,1625105458454695245,1,0.3088,-0.2874,0.9695,624,16.3574,-0.1221,13.2446,159,0.7724,0.3442,-15.5296,9.1847,31,0.6823,7750,4.0216,49.3956
rg,1625105458454714596,1,0.3279,-0.2712,0.9392,625,18.2495,-3.9673,12.8784,159,0.7754,0.3482,-16.0466,8.8369,31,0.6783,7862,4.0216,50.1062
rg,1625105458454867207,1,0.3464,-0.2634,0.9214,626,19.9585,-7.9346,13.6108,159,0.7774,0.3532,-16.6033,8.5571,31,0.6813,7885,4.0216,50.8614
rg,1625105458454889058,1,0.3462,-0.261,0.9304,627,20.1416,-5.4321,13.0005,159,0.7784,0.3532,-17.0656,8.2963,31,0.6813,7978,4.0216,51.6309
rg,1625105458454909466,1,0.3506,-0.2717,0.9316,628,20.4468,-0.1831,14.5874,159,0.7814,0.3562,-17.318,8.0026,31,0.6813,7850,4.0216,52.5108
rg,1625105458454948836,1,0.3418,-0.2812,0.9561,629,23.8647,3.54,13.7939,159,0.7814,0.3562,-17.3706,7.8461,31,0.6813,12703,4.0216,53.3841
rg,1625105458454969428,1,0.3311,-0.28,0.9666,630,26.5503,6.2866,14.0381,159,0.7834,0.3572,-17.2834,7.7995,31,0.6813,7984,4.0216,54.2807
rg,1625105458454989299,1,0.3171,-0.2612,0.9395,631,26.6113,8.5449,13.1226,159,0.7844,0.3592,-17.0944,7.7886,31,0.6803,8076,4.0216,55.143
rg,1625105458455007280,1,0.314,-0.2483,0.947,632,26.5503,9.2773,13.2446,159,0.7854,0.3602,-16.8712,7.8058,31,0.6813,7960,4.0216,56.0017
rg,1625105458455024984,1,0.2988,-0.2432,0.9412,633,26.6113,11.3525,10.498,159,0.7864,0.3632,-16.5318,7.8628,31,0.6823,8095,4.0216,56.7532
rg,1625105458455042132,1,0.2871,-0.2295,0.9324,634,26.6724,10.0708,9.7656,159,0.7874,0.3642,-16.2325,7.9576,31,0.6813,8992,4.0216,57.4555
rg,1625105458455059224,1,0.2727,-0.2122,0.9309,635,27.5269,10.498,8.3618,159,0.7894,0.3652,-15.8895,8.1356,31,0.6813,8795,4.0216,58.0895
rg,1625105458455078057,1,0.2656,-0.1982,0.9292,636,26.4893,9.9487,7.5684,159,0.7894,0.3672,-15.607,8.3081,31,0.6813,8037,4.0216,58.6766
rg,1625105458455096909,1,0.2964,-0.2056,0.96,637,23.1323,5.6763,8.3008,159,0.7904,0.3672,-15.5112,8.342,31,0.6803,8164,4.0216,59.266
rg,1625105458455115724,1,0.3225,-0.2617,1.0308,638,20.2637,5.4932,9.3384,159,0.7914,0.3692,-15.4424,8.171,31,0.6813,8020,4.0216,59.917
rg,1625105458455134187,1,0.3303,-0.2798,1.0598,639,20.5688,7.6904,10.8032,159,0.7924,0.3722,-15.2674,8.0012,31,0.6813,8300,4.0216,60.6662
rg,1625105458455162705,1,0.3438,-0.2639,1.1023,640,20.9351,9.8877,12.3291,159,0.7934,0.3742,-15.0443,7.8639,31,0.6803,8131,4.0216,61.4486
rg,1625105458836540080,1,0.3252,-0.175,0.9436,641,2.8076,25.8179,12.3291,159,0.7954,0.3802,-14.1699,7.067,31,0.6803,27410,4.0216,62.2894
rg,1625105458836570191,1,0.2219,-0.2446,0.9573,642,-7.3242,20.6299,7.8735,159,0.7954,0.3832,-13.3603,5.8431,31,0.6803,8398,4.0216,62.9131
rg,1625105458836612376,1,0.189,-0.2788,0.9749,643,-6.1035,5.249,3.2959,159,0.7974,0.3862,-13.0849,4.7125,31,0.6803,7630,4.0216,63.2659
rg,1625105458836632709,1,0.1853,-0.2827,0.9897,644,-3.2349,-5.7983,2.1973,159,0.7984,0.3892,-13.2357,3.7573,31,0.6803,7574,4.0216,63.5228
rg,1625105458836651764,1,0.252,-0.2649,0.9692,645,2.1362,-27.0996,3.2959,159,0.7994,0.3922,-14.3782,3.0858,31,0.6803,7812,4.0216,63.763
rg,1625105458836669968,1,0.3374,-0.2346,0.9514,646,4.6997,-36.1938,4.5166,159,0.8014,0.3952,-16.0291,2.5951,31,0.6803,8906,4.0216,64.0389
rg,1625105458836687449,1,0.376,-0.2275,0.9512,647,4.3945,-34.5459,4.8218,159,0.8004,0.3972,-17.6281,2.1166,31,0.6803,7691,4.0216,64.3525
rg,1625105458836704319,1,0.4153,-0.2219,0.9463,648,4.6387,-23.9868,7.9956,159,0.8014,0.3972,-18.8286,1.6254,31,0.6803,8032,4.0216,64.8348
rg,1625105458836721023,1,0.3967,-0.2212,0.9524,649,4.1504,-5.127,10.6201,159,0.8014,0.3982,-19.1882,1.0811,31,0.6803,7876,4.0216,65.4639
rg,1625105458836737782,1,0.3591,-0.2126,0.9583,650,4.1504,3.6011,10.498,159,0.8034,0.3992,-19.1005,0.5695,31,0.6803,8014,4.0216,66.0871
rg,1625105458836755319,1,0.283,-0.2126,0.9688,651,4.0283,12.4512,9.7656,159,0.8024,0.4012,-18.4933,0.0798,31,0.6813,10282,4.0216,66.6731
rg,1625105458836772782,1,0.2314,-0.2117,0.981,652,3.479,8.728,10.8032,159,0.8034,0.4002,-17.9174,-0.4158,32,0.6803,10401,4.0216,67.2839
rg,1625105458836789578,1,0.2148,-0.2087,0.9895,653,4.2114,2.0142,10.9253,159,0.8034,0.4022,-17.6068,-0.8516,32,0.6803,7709,4.0216,67.8854
rg,1625105458836806523,1,0.2341,-0.2048,0.9951,654,5.188,-7.4463,13.0615,159,0.8044,0.4032,-17.7176,-1.2464,32,0.6813,7725,4.0216,68.5714
rg,1625105458836824226,1,0.2441,-0.2017,0.9939,655,3.9673,-9.9487,13.3667,153,0.8054,0.4042,-17.9404,-1.6742,32,0.6813,7717,4.0205,69.2694
rg,1625105458836841874,1,0.2656,-0.2095,0.9949,656,3.7842,-11.3525,13.2446,153,0.8044,0.4022,-18.2501,-2.1103,31,0.6813,7837,4.0205,69.9693
rg,1625105458836859837,1,0.2666,-0.2144,0.9846,657,2.3193,-10.9863,12.8784,153,0.8054,0.4042,-18.536,-2.6025,31,0.6803,8357,4.0205,70.6594
rg,1625105458836892115,1,0.2622,-0.2119,0.9827,658,2.8076,-10.5591,11.6577,153,0.8034,0.4032,-18.7827,-3.039,31,0.6813,8096,4.0205,71.2961
rg,1625105458836911318,1,0.2603,-0.2136,0.9861,659,5.249,-11.7798,9.5825,153,0.8054,0.4052,-19.0631,-3.3397,31,0.6803,8523,4.0205,71.8484
rg,1625105458836929152,1,0.2498,-0.2134,0.988,660,4.6997,-13.1836,11.4136,153,0.8064,0.4052,-19.3577,-3.68,31,0.6803,8379,4.0205,72.483
rg,1625105458836946781,1,0.2576,-0.207,0.9819,661,6.3477,-14.9536,11.4746,153,0.8064,0.4052,-19.7987,-3.9021,31,0.6803,8013,4.0205,73.0813
rg,1625105458836964559,1,0.2581,-0.1917,0.9768,662,7.9956,-16.6626,10.7422,153,0.8064,0.4062,-20.2237,-4.048,31,0.6803,8670,4.0205,73.6867
rg,1625105458836981874,1,0.2732,-0.1826,0.9661,663,7.1411,-17.0898,11.2305,153,0.8054,0.4072,-20.6845,-4.2179,31,0.6793,8264,4.0205,74.3116
rg,1625105458836999336,1,0.2871,-0.1843,0.9783,664,4.5166,-16.1133,12.085,153,0.8064,0.4062,-21.1053,-4.5016,31,0.6813,8234,4.0205,74.9731
rg,1625105458837016540,1,0.2971,-0.2041,0.9817,665,2.0142,-15.9912,12.3901,153,0.8074,0.4072,-21.4886,-5.005,31,0.6813,8868,4.0205,75.6927
rg,1625105458837033318,1,0.2949,-0.2188,0.9797,666,0.6104,-14.3433,12.9395,153,0.8074,0.4072,-21.8088,-5.5135,31,0.6803,8131,4.0205,76.4173
rg,1625105458837049966,1,0.2905,-0.2231,0.9719,667,0.7935,-13.3667,14.7095,153,0.8084,0.4092,-22.0599,-6.0405,31,0.6793,8162,4.0205,77.2191
rg,1625105458837066632,1,0.2866,-0.2227,0.97,668,2.0752,-13.0615,14.5874,153,0.8094,0.4092,-22.2764,-6.4977,31,0.6813,8036,4.0205,78.013
rg,1625105458837084132,1,0.2961,-0.2227,0.959,669,2.0752,-13.6108,14.7095,153,0.8094,0.4112,-22.5264,-6.949,31,0.6803,8055,4.0205,78.816
rg,1625105458837100299,1,0.313,-0.2195,0.9561,670,4.5166,-12.6953,14.9536,153,0.8094,0.4112,-22.7615,-7.2847,31,0.6803,8225,4.0205,79.621
rg,1625105458837117984,1,0.3191,-0.207,0.9641,671,4.8828,-8.4839,14.3433,153,0.8104,0.4112,-22.8284,-7.5427,31,0.6823,8121,4.0205,80.3621
rg,1625105458837136039,1,0.2937,-0.2043,0.9739,672,6.7139,-7.3853,14.7705,153,0.8094,0.4122,-22.7857,-7.713,31,0.6813,9542,4.0205,81.1087
rg,1625105459171640225,1,0.2893,-0.1707,0.9663,673,6.1035,-11.9019,16.4185,153,0.8094,0.4122,-22.91,-7.8636,31,0.6803,25083,4.0205,81.9214
rg,1625105459171705429,1,0.2983,-0.1799,0.9802,674,1.6479,-9.8877,16.5405,153,0.8114,0.4132,-22.9556,-8.2006,31,0.6813,8490,4.0205,82.7329
rg,1625105459171727799,1,0.2803,-0.1965,0.9893,675,-0.1831,-7.1411,17.1509,153,0.8104,0.4132,-22.8384,-8.6351,31,0.6813,8482,4.0205,83.5631
rg,1625105459171748373,1,0.2524,-0.2144,0.99,676,1.8311,-11.5967,15.5029,153,0.8114,0.4152,-22.8467,-8.9967,31,0.6813,15641,4.0205,84.3623
rg,1625105459171769965,1,0.2361,-0.21,0.978,677,1.3428,-11.0474,14.1602,153,0.8114,0.4152,-22.8093,-9.3356,31,0.6813,7545,4.0205,85.095
rg,1625105459171812725,1,0.2378,-0.2158,0.9834,678,2.6245,-13.1836,14.9536,153,0.8114,0.4162,-22.8488,-9.6401,31,0.6813,7659,4.0205,85.878
rg,1625105459171833076,1,0.2441,-0.2175,0.9807,679,3.1128,-16.3574,14.4043,153,0.8124,0.4162,-23.0259,-9.92,31,0.6813,7535,4.0205,86.6611
rg,1625105459171851447,1,0.2676,-0.22,0.9844,680,3.8452,-18.9209,15.3198,153,0.8124,0.4162,-23.3336,-10.1901,31,0.6823,7725,4.0205,87.5043
rg,1625105459171878002,1,0.2866,-0.2129,0.9756,681,5.5542,-19.3481,13.7939,153,0.8124,0.4162,-23.6992,-10.35,31,0.6813,8620,4.0205,88.2816
rg,1625105459171900057,1,0.2932,-0.2095,0.9783,682,5.7373,-18.4326,13.1836,153,0.8124,0.4152,-24.0446,-10.4761,31,0.6813,7962,4.0205,89.0221
rg,1625105459171918409,1,0.304,-0.2029,0.9812,683,5.0049,-16.6626,12.7563,153,0.8124,0.4152,-24.3146,-10.6037,31,0.6823,8052,4.0205,89.7257
rg,1625105459171936502,1,0.2964,-0.2036,0.9656,684,4.5166,-15.4419,13.3667,153,0.8124,0.4162,-24.514,-10.7653,31,0.6813,7995,4.0205,90.4503
rg,1625105459171955057,1,0.2908,-0.2068,0.9744,685,4.3335,-14.7705,13.855,153,0.8124,0.4172,-24.6206,-10.9565,31,0.6803,7959,4.0205,91.1462
rg,1625105459171973409,1,0.293,-0.207,0.9673,686,2.9297,-14.5264,13.9771,153,0.8124,0.4172,-24.7544,-11.1869,31,0.6813,8264,4.0205,91.8917
rg,1625105459171992464,1,0.3079,-0.2061,0.9666,687,2.5024,-14.0381,13.6719,153,0.8124,0.4182,-24.895,-11.4181,31,0.6813,7974,4.0205,92.6177
rg,1625105459172057668,1,0.2969,-0.2095,0.9741,688,2.5635,-13.3057,13.6719,153,0.8124,0.4182,-24.922,-11.665,31,0.6823,8226,4.0205,93.2796
rg,1625105459172081594,1,0.2908,-0.2087,0.9763,689,1.5869,-11.2915,11.7798,153,0.8134,0.4192,-24.9172,-11.8722,31,0.6823,7905,4.0205,93.8958
rg,1625105459172099723,1,0.2688,-0.2061,0.9849,690,1.709,-11.9629,11.5967,153,0.8124,0.4192,-24.8885,-12.0549,31,0.6823,9915,4.0205,94.5033
rg,1625105459172121278,1,0.269,-0.2031,0.978,691,2.0752,-14.0991,10.9863,153,0.8134,0.4192,-24.9522,-12.2096,31,0.6823,7872,4.0205,95.101
rg,1625105459172142334,1,0.27,-0.1987,0.979,692,2.7466,-15.686,11.9629,153,0.8134,0.4182,-25.133,-12.3209,31,0.6833,8081,4.0205,95.7642
rg,1625105459172162538,1,0.2915,-0.2019,0.9749,693,3.6621,-17.395,12.8174,153,0.8134,0.4192,-25.3458,-12.4517,31,0.6823,7874,4.0205,96.4708
rg,1625105459172183149,1,0.304,-0.1953,0.9636,694,4.1504,-14.8315,12.146,153,0.8144,0.4192,-25.4889,-12.5274,31,0.6833,8032,4.0205,97.1194
rg,1625105459172203667,1,0.3059,-0.1936,0.9595,695,4.3945,-13.6719,10.9863,153,0.8144,0.4192,-25.5715,-12.596,31,0.6813,7912,4.0205,97.7511
rg,1625105459172222093,1,0.3145,-0.1824,0.9697,696,3.7231,-12.5122,14.3433,153,0.8144,0.4192,-25.6146,-12.6832,31,0.6833,8080,4.0205,98.457
rg,1625105459172244445,1,0.3235,-0.1851,0.9724,697,3.1128,-9.2773,14.9536,153,0.8134,0.4202,-25.4459,-12.8395,31,0.6833,7996,4.0205,99.1068
rg,1625105459172265759,1,0.312,-0.1958,0.9778,698,1.5259,-5.0659,15.4419,153,0.8144,0.4192,-25.1796,-13.0176,31,0.6833,8519,4.0205,99.794
rg,1625105459172286537,1,0.2922,-0.2034,0.9724,699,0.9766,-4.4556,16.3574,153,0.8144,0.4202,-24.8511,-13.2404,31,0.6843,8450,4.0205,100.5185
rg,1625105459172380536,1,0.2856,-0.2051,0.9739,700,2.5024,-5.127,16.2964,153,0.8144,0.4202,-24.5452,-13.3937,31,0.6843,8772,4.0205,101.2433
rg,1625105459172411481,1,0.2966,-0.2068,0.9739,701,4.3335,-6.5918,17.4561,153,0.8144,0.4212,-24.3183,-13.4949,31,0.6843,9039,4.0205,102.0308
rg,1625105459172431425,1,0.3025,-0.2039,0.9707,702,4.8828,-5.6152,17.334,153,0.8144,0.4212,-24.0772,-13.5551,31,0.6843,8237,4.0205,102.7982
rg,1625105459172488647,1,0.2957,-0.198,0.9712,703,4.4556,-2.1973,15.8081,153,0.8144,0.4212,-23.7136,-13.5709,31,0.6843,8125,4.0205,103.4573
rg,1625105459172512462,1,0.2881,-0.2024,0.9761,704,4.4556,-2.3804,16.9678,153,0.8154,0.4222,-23.3409,-13.6094,31,0.6843,8275,4.0205,104.1688
rg,1625105459590936184,1,0.2817,-0.2056,0.9756,705,4.5166,0.3662,16.6016,153,0.8154,0.4232,-22.8663,-13.6285,31,0.6843,24218,4.0205,104.8372
rg,1625105459590971850,1,0.2654,-0.2041,0.9751,706,4.1504,-0.5493,16.1743,153,0.8144,0.4232,-22.4159,-13.6488,31,0.6843,13980,4.0205,105.4935
rg,1625105459590992239,1,0.2664,-0.1965,0.9851,707,4.3335,-1.709,16.1743,153,0.8144,0.4232,-22.0258,-13.6379,31,0.6853,7595,4.0205,106.1515
rg,1625105459591011424,1,0.2607,-0.196,0.9812,708,4.3945,-2.6245,15.4419,153,0.8154,0.4252,-21.6739,-13.6141,31,0.6843,7597,4.0205,106.7878
rg,1625105459591029257,1,0.26,-0.1887,0.9973,709,4.0894,-3.54,16.2964,153,0.8154,0.4242,-21.3646,-13.5908,31,0.6853,7437,4.0205,107.4593
rg,1625105459591046646,1,0.2627,-0.1877,0.9885,710,3.6011,-5.249,17.0288,153,0.8154,0.4242,-21.1373,-13.6035,31,0.6843,7638,4.0205,108.1788
rg,1625105459591063461,1,0.2556,-0.1819,0.9944,711,2.7466,-4.6387,15.4419,153,0.8154,0.4242,-20.8931,-13.6046,31,0.6843,7472,4.0205,108.8194
rg,1625105459591080165,1,0.2451,-0.1995,0.9919,712,1.6479,-6.5918,15.3809,153,0.8154,0.4232,-20.7111,-13.6938,31,0.6843,7928,4.0205,109.4913
rg,1625105459591096498,1,0.2517,-0.2043,0.9856,713,1.4038,-8.7891,15.3198,153,0.8154,0.4242,-20.6372,-13.8088,31,0.6843,8135,4.0205,110.1868
rg,1625105459591113201,1,0.2537,-0.2021,0.9922,714,2.3193,-9.6436,15.9302,153,0.8164,0.4242,-20.5934,-13.8858,31,0.6843,7855,4.0205,110.9122
rg,1625105459591129238,1,0.2581,-0.2053,0.9861,715,2.8076,-10.9253,15.9302,153,0.8154,0.4242,-20.6119,-13.955,31,0.6853,7991,4.0205,111.6536
rg,1625105459591146627,1,0.2627,-0.2026,0.9849,716,3.479,-11.4136,14.4043,153,0.8164,0.4242,-20.6735,-13.9693,31,0.6853,7999,4.0205,112.3342
rg,1625105459591163942,1,0.2629,-0.2051,0.9871,717,3.9673,-12.2681,14.4043,153,0.8164,0.4252,-20.7647,-13.9722,31,0.6853,7912,4.0205,113.0255
rg,1625105459591200016,1,0.2751,-0.189,0.9753,718,2.8076,-13.1226,14.3433,153,0.8164,0.4252,-20.9171,-14.0113,31,0.6853,11580,4.0205,113.7682
rg,1625105459591218275,1,0.2764,-0.1931,0.9854,719,1.2817,-13.3057,15.2588,153,0.8164,0.4262,-21.061,-14.1183,31,0.6853,7659,4.0205,114.4987
rg,1625105459591291164,1,0.2673,-0.2031,0.9839,720,1.0376,-11.5967,14.5874,153,0.8164,0.4262,-21.0767,-14.2354,31,0.6843,7794,4.0205,115.1726
rg,1625105459591311238,1,0.2664,-0.2056,0.9827,721,1.1597,-9.4604,13.916,153,0.8164,0.4262,-21.0542,-14.3296,31,0.6853,7698,4.0205,115.8137
rg,1625105459591329441,1,0.2615,-0.2102,0.9827,722,1.8311,-10.8032,14.7095,153,0.8164,0.4262,-21.0647,-14.4208,31,0.6853,7884,4.0205,116.505
rg,1625105459591347052,1,0.2651,-0.2039,0.9851,723,3.2349,-10.3149,14.5264,153,0.8154,0.4252,-21.0653,-14.4344,31,0.6843,7703,4.0205,117.1776
rg,1625105459591364737,1,0.2717,-0.1948,0.9797,724,3.9062,-10.9253,15.3809,153,0.8164,0.4262,-21.0983,-14.4159,31,0.6843,7924,4.0205,117.8848
rg,1625105459591382145,1,0.2744,-0.1855,0.9839,725,2.6245,-9.8877,15.5029,153,0.8154,0.4262,-21.0935,-14.4241,31,0.6833,8856,4.0205,118.5778
rg,1625105459591399348,1,0.2617,-0.198,0.9917,726,1.709,-8.3618,15.3809,153,0.8174,0.4262,-20.9982,-14.4846,31,0.6843,8555,4.0205,119.2579
rg,1625105459591416478,1,0.259,-0.2007,0.9922,727,1.2817,-7.9956,14.7705,153,0.8174,0.4262,-20.8917,-14.5538,31,0.6843,8075,4.0205,119.9099
rg,1625105459591433626,1,0.252,-0.2078,0.9832,728,1.77,-10.6812,15.3198,153,0.8164,0.4262,-20.8753,-14.6388,31,0.6843,8475,4.0205,120.6201
rg,1625105459591450737,1,0.2603,-0.199,0.9812,729,2.2583,-11.8408,15.0146,153,0.8174,0.4272,-20.9265,-14.6821,31,0.6853,8095,4.0205,121.3228
rg,1625105459591467329,1,0.262,-0.1973,0.9839,730,2.6245,-11.9019,14.4043,153,0.8174,0.4272,-21.0331,-14.7108,31,0.6853,8053,4.0205,122.0762
rg,1625105459591484163,1,0.2744,-0.2009,0.9846,731,2.7466,-11.9629,15.1367,153,0.8164,0.4272,-21.1083,-14.7397,31,0.6843,7950,4.0205,122.7862
rg,1625105459591501125,1,0.2756,-0.1987,0.9778,732,1.8921,-10.498,14.4043,153,0.8174,0.4272,-21.1378,-14.7838,31,0.6853,8129,4.0205,123.449
rg,1625105459591518107,1,0.2727,-0.1948,0.9814,733,2.0752,-9.8877,14.0991,153,0.8174,0.4272,-21.1467,-14.8277,31,0.6853,8010,4.0205,124.1412
rg,1625105459591549421,1,0.2678,-0.197,0.9863,734,1.4038,-10.376,14.7705,153,0.8174,0.4272,-21.1444,-14.8848,31,0.6853,8182,4.0205,124.8139
rg,1625105459591567162,1,0.27,-0.2039,0.9858,735,0.9155,-11.4746,15.3198,153,0.8174,0.4272,-21.1817,-14.9879,31,0.6853,8030,4.0205,125.5269
rg,1625105459591583532,1,0.2673,-0.2002,0.9812,736,1.6479,-10.7422,14.7705,153,0.8174,0.4282,-21.1847,-15.0385,31,0.6853,8181,4.0205,126.2742
rg,1625105459942657860,1,0.2661,-0.2039,0.9749,737,2.2583,-9.7046,15.625,153,0.8174,0.4272,-21.1455,-15.0847,31,0.6863,25938,4.0205,126.9804
rg,1625105459942696989,1,0.2634,-0.2034,0.9792,738,2.0752,-9.7046,15.9302,153,0.8174,0.4282,-21.0962,-15.137,31,0.6853,8569,4.0205,127.6973
rg,1625105459942717637,1,0.2546,-0.1914,0.9729,739,2.7466,-10.0708,15.7471,153,0.8184,0.4282,-21.0512,-15.1336,31,0.6853,8387,4.0205,128.4011
rg,1625105459942738433,1,0.252,-0.1882,0.9871,740,1.8921,-9.8877,15.8081,153,0.8174,0.4282,-20.9872,-15.1236,31,0.6853,8163,4.0205,129.0517
rg,1625105459942757415,1,0.2583,-0.1907,0.9998,741,0.9155,-10.2539,15.686,153,0.8184,0.4282,-20.9479,-15.1784,31,0.6843,7955,4.0205,129.7499
rg,1625105459942776081,1,0.2598,-0.207,0.9905,742,0,-12.146,14.5264,153,0.8174,0.4292,-20.9992,-15.2994,31,0.6843,8952,4.0205,130.4361
rg,1625105459942794470,1,0.2544,-0.2012,0.9829,743,0.9155,-12.8784,14.5264,153,0.8184,0.4282,-21.0692,-15.3731,31,0.6833,8716,4.0205,131.1261
rg,1625105459942812803,1,0.2605,-0.2109,0.9839,744,1.0376,-14.4043,15.4419,153,0.8174,0.4292,-21.195,-15.4824,31,0.6843,8940,4.0205,131.8791
rg,1625105459942830303,1,0.2756,-0.2087,0.9741,745,3.1738,-13.6108,14.7705,153,0.8184,0.4302,-21.3293,-15.491,31,0.6843,16420,4.0205,132.5947
rg,1625105459942850173,1,0.2822,-0.1956,0.9775,746,3.2349,-13.9771,15.3809,153,0.8184,0.4302,-21.48,-15.4779,31,0.6843,7703,4.0205,133.3285
rg,1625105459942867322,1,0.2793,-0.1975,0.9758,747,1.5259,-11.9629,15.0757,153,0.8194,0.4302,-21.5449,-15.5269,31,0.6853,7817,4.0205,134.0286
rg,1625105459942885025,1,0.2671,-0.2021,0.9817,748,2.0142,-11.4136,15.0146,153,0.8184,0.4312,-21.5568,-15.5592,31,0.6843,7758,4.0205,134.7221
rg,1625105459942904173,1,0.2668,-0.1958,0.9905,749,1.77,-11.0474,14.7705,153,0.8194,0.4302,-21.5523,-15.5759,31,0.6843,7857,4.0205,135.3939
rg,1625105459943227301,1,0.2605,-0.2056,0.9839,750,1.8311,-11.1694,14.5264,153,0.8184,0.4302,-21.5436,-15.6115,31,0.6843,9255,4.0205,136.0662
rg,1625105459943274745,1,0.2627,-0.2026,0.9744,751,1.77,-12.7563,14.5264,153,0.8184,0.4302,-21.6059,-15.6533,31,0.6843,8148,4.0205,136.756
rg,1625105459943297930,1,0.2649,-0.2012,0.9792,752,1.8921,-12.4512,15.0757,153,0.8184,0.4312,-21.6307,-15.7024,31,0.6843,8273,4.0205,137.4486
rg,1625105459943316486,1,0.2732,-0.2019,0.9819,753,1.709,-13.0005,15.9302,153,0.8184,0.4312,-21.7007,-15.7618,31,0.6833,8307,4.0205,138.197
rg,1625105459943333949,1,0.271,-0.2073,0.9775,754,2.3193,-12.3291,15.1367,153,0.8194,0.4312,-21.747,-15.7947,31,0.6833,8258,4.0205,138.9095
rg,1625105459943351838,1,0.2705,-0.2068,0.9773,755,1.9531,-11.7188,14.7095,153,0.8194,0.4312,-21.7717,-15.8312,31,0.6843,8210,4.0205,139.5965
rg,1625105459943369541,1,0.2666,-0.2107,0.9746,756,1.8921,-11.9629,15.1978,153,0.8184,0.4312,-21.7915,-15.8804,31,0.6833,8381,4.0205,140.3075
rg,1625105459943388356,1,0.2664,-0.2063,0.9871,757,2.9297,-12.5732,15.625,153,0.8184,0.4312,-21.8224,-15.8869,31,0.6833,8324,4.0205,141.0395
rg,1625105459943406022,1,0.2754,-0.1995,0.9763,758,3.0518,-12.146,15.2588,153,0.8194,0.4312,-21.8657,-15.8712,31,0.6833,8527,4.0205,141.7475
rg,1625105459943424467,1,0.2749,-0.1938,0.9758,759,2.0142,-11.4136,16.1133,153,0.8194,0.4312,-21.8702,-15.895,31,0.6843,8634,4.0205,142.4776
rg,1625105459943442485,1,0.2734,-0.1921,0.9846,760,1.709,-10.3149,16.1743,153,0.8194,0.4332,-21.7772,-15.9602,31,0.6843,8323,4.0205,143.1777
rg,1625105459943460356,1,0.2605,-0.1965,0.9875,761,0.7935,-8.9111,15.9302,153,0.8194,0.4332,-21.6531,-16.0132,31,0.6843,8242,4.0205,143.869
rg,1625105459943478430,1,0.2517,-0.2061,0.9851,762,1.1597,-8.9111,14.7705,153,0.8204,0.4322,-21.5274,-16.0528,31,0.6843,8111,4.0205,144.52
rg,1625105459943496707,1,0.2612,-0.1995,0.9915,763,0.9766,-11.1694,15.7471,153,0.8204,0.4332,-21.5124,-16.0791,31,0.6843,8071,4.0205,145.2025
rg,1625105459943514281,1,0.2578,-0.2,0.9924,764,1.8311,-12.3901,15.9302,153,0.8194,0.4332,-21.5442,-16.1058,31,0.6833,8237,4.0205,145.9366
rg,1625105459943547096,1,0.2649,-0.2068,0.9812,765,0.8545,-11.5356,15.5029,153,0.8194,0.4322,-21.5393,-16.1969,31,0.6833,8093,4.0205,146.656
rg,1625105459943566318,1,0.2656,-0.2124,0.9844,766,1.6479,-11.7798,15.3809,153,0.8194,0.4322,-21.6093,-16.3044,31,0.6833,8475,4.0205,147.416
rg,1625105459943584373,1,0.2705,-0.2156,0.9844,767,1.0986,-12.2681,14.5874,153,0.8204,0.4332,-21.6505,-16.3703,31,0.6823,8587,4.0205,148.1055
rg,1625105459943602373,1,0.2737,-0.2095,0.9731,768,2.1973,-11.8408,14.9536,153,0.8194,0.4332,-21.6831,-16.3859,31,0.6833,8746,4.0205,148.8012
rg,1625105460293662315,1,0.2771,-0.2056,0.9609,769,2.6855,-12.6953,15.8691,153,0.8204,0.4332,-21.7469,-16.3619,31,0.6833,24497,4.0271,149.5687
rg,1625105460293719296,1,0.2822,-0.196,0.9778,770,3.6621,-11.2305,15.9912,140,0.8204,0.4332,-21.7589,-16.3009,31,0.6833,8761,4.0271,150.2879
rg,1625105460293750370,1,0.2742,-0.2017,0.9746,771,2.6855,-9.5215,15.9302,140,0.8204,0.4332,-21.6902,-16.2863,31,0.6833,7770,4.0271,150.9895
rg,1625105460293780092,1,0.2649,-0.2131,0.9858,772,1.1597,-8.5449,14.8315,140,0.8204,0.4342,-21.5714,-16.3311,31,0.6843,8153,4.0271,151.6414
rg,1625105460293810759,1,0.2578,-0.2083,0.9814,773,2.6855,-9.6436,15.0146,140,0.8214,0.4342,-21.4854,-16.3105,31,0.6843,8058,4.0271,152.3102
rg,1625105460293839759,1,0.2642,-0.1943,0.9758,774,3.7231,-11.1084,15.564,140,0.8204,0.4342,-21.472,-16.2344,31,0.6833,7826,4.0271,153.0089
rg,1625105460293867240,1,0.2886,-0.1755,0.9817,775,3.0518,-10.9863,15.8691,140,0.8214,0.4342,-21.5034,-16.1478,31,0.6843,7975,4.0271,153.703
rg,1625105460293894166,1,0.2815,-0.1829,0.9802,776,0.4883,-9.4604,15.564,140,0.8214,0.4352,-21.4371,-16.1878,31,0.6833,14481,4.0271,154.3791
rg,1625105460293920758,1,0.25,-0.1953,0.9851,777,-2.0752,-6.8359,15.4419,140,0.8214,0.4342,-21.2289,-16.3224,31,0.6833,7560,4.0271,155.0208
rg,1625105460293946388,1,0.2397,-0.2083,0.9934,778,-2.4414,-7.6904,14.8926,140,0.8214,0.4342,-21.1332,-16.5088,31,0.6823,7522,4.0271,155.7371
rg,1625105460293972480,1,0.2434,-0.2236,0.9883,779,-2.6245,-11.7798,16.2964,140,0.8214,0.4342,-21.0917,-16.7468,31,0.6833,7728,4.0271,156.4933
rg,1625105460293999961,1,0.2546,-0.2363,0.981,780,0.8545,-13.1226,15.8081,140,0.8224,0.4352,-21.1315,-16.8686,31,0.6833,7571,4.0271,157.2559
rg,1625105460294026461,1,0.2725,-0.2273,0.9749,781,1.4648,-13.3057,15.0146,140,0.8214,0.4342,-21.2214,-16.8928,31,0.6833,8835,4.0271,157.9931
rg,1625105460294085350,1,0.2722,-0.2188,0.9819,782,3.1738,-13.5498,15.0146,140,0.8214,0.4342,-21.3201,-16.869,31,0.6833,7853,4.0271,158.7131
rg,1625105460294116128,1,0.2744,-0.2136,0.9729,783,3.418,-13.9771,15.3198,140,0.8214,0.4332,-21.4384,-16.8374,31,0.6833,8640,4.0271,159.4488
rg,1625105460294143498,1,0.2852,-0.2002,0.9714,784,3.1738,-12.085,15.1978,140,0.8214,0.4332,-21.5078,-16.7781,31,0.6833,7951,4.0271,160.1453
rg,1625105460294170201,1,0.2822,-0.1948,0.9758,785,2.5024,-11.4136,15.0146,140,0.8224,0.4342,-21.5309,-16.7567,31,0.6833,8677,4.0271,160.8317
rg,1625105460294196794,1,0.2686,-0.2114,0.9792,786,0.9766,-9.2773,15.3198,140,0.8224,0.4342,-21.4473,-16.7984,31,0.6823,8126,4.0271,161.5067
rg,1625105460294224386,1,0.2515,-0.2229,0.9797,787,2.1973,-9.3384,15.3198,140,0.8224,0.4332,-21.3307,-16.8141,31,0.6833,8153,4.0271,162.1911
rg,1625105460294250719,1,0.2498,-0.218,0.9807,788,3.418,-10.8032,14.4653,140,0.8224,0.4332,-21.2814,-16.7616,31,0.6843,10698,4.0271,162.8542
rg,1625105460294277497,1,0.2678,-0.2117,0.9695,789,4.0894,-12.6953,16.1133,140,0.8224,0.4342,-21.3331,-16.7095,32,0.6833,8393,4.0271,163.6062
rg,1625105460294303719,1,0.2698,-0.2063,0.9727,790,4.3945,-11.9019,14.6484,140,0.8234,0.4342,-21.3734,-16.6086,32,0.6823,8083,4.0271,164.2836
rg,1625105460294330997,1,0.2705,-0.1877,0.9761,791,5.0659,-10.7422,15.5029,140,0.8224,0.4352,-21.3628,-16.4483,32,0.6833,9004,4.0271,164.9664
rg,1625105460294356812,1,0.2781,-0.1897,0.9778,792,1.8311,-10.7422,15.564,140,0.8234,0.4362,-21.3674,-16.4283,31,0.6833,10067,4.0271,165.6551
rg,1625105460294383978,1,0.2639,-0.2048,0.9758,793,-0.3052,-10.1318,15.4419,140,0.8234,0.4362,-21.3181,-16.5244,31,0.6843,8155,4.0271,166.3442
rg,1625105460294411552,1,0.2532,-0.2134,0.9807,794,-0.8545,-9.8877,14.4653,140,0.8234,0.4362,-21.278,-16.6781,31,0.6843,8052,4.0271,167.0636
rg,1625105460294437848,1,0.2441,-0.218,0.9771,795,1.1597,-11.7798,14.5874,140,0.8234,0.4362,-21.2576,-16.7283,31,0.6843,8142,4.0271,167.7458
rg,1625105460294465144,1,0.2651,-0.2153,0.9758,796,0.7935,-13.7329,14.9536,140,0.8234,0.4362,-21.3529,-16.8013,31,0.6843,8120,4.0271,168.4653
rg,1625105460294493107,1,0.282,-0.2202,0.9658,797,3.2349,-12.8174,15.1367,140,0.8234,0.4352,-21.4472,-16.7912,31,0.6843,9330,4.0271,169.1867
rg,1625105460294520070,1,0.2798,-0.2217,0.9727,798,2.9907,-11.4746,14.6484,140,0.8234,0.4352,-21.4827,-16.7649,31,0.6843,8339,4.0271,169.8664
rg,1625105460294546588,1,0.2737,-0.2014,0.9746,799,3.8452,-9.2163,14.3433,140,0.8234,0.4362,-21.4257,-16.6562,31,0.6823,8947,4.0271,170.4929
rg,1625105460294613144,1,0.2808,-0.2031,0.968,800,3.2349,-11.1694,15.564,140,0.8234,0.4362,-21.4507,-16.6107,31,0.6833,8799,4.0271,171.1978
rg,1625105460646570339,1,0.2615,-0.21,0.9695,801,3.0518,-8.3618,15.0146,140,0.8234,0.4362,-21.3314,-16.567,31,0.6833,25516,4.0271,-188.1489
rg,1625105460646615042,1,0.2537,-0.209,0.9822,802,3.6621,-9.3994,15.4419,140,0.8244,0.4372,-21.2172,-16.4992,31,0.6833,8839,4.0271,-187.5077
rg,1625105460646636153,1,0.2542,-0.2092,0.9822,803,3.479,-9.4604,14.2822,140,0.8234,0.4372,-21.1367,-16.4258,31,0.6833,8214,4.0271,-186.8731
rg,1625105460646655449,1,0.2629,-0.1992,0.9792,804,3.2349,-11.0474,15.0146,140,0.8224,0.4372,-21.1343,-16.3613,31,0.6843,7991,4.0271,-186.1959
rg,1625105460646674079,1,0.2668,-0.2,0.9707,805,1.3428,-10.9863,14.6484,140,0.8244,0.4372,-21.1468,-16.3752,31,0.6833,8281,4.0271,-185.5316
rg,1625105460646692171,1,0.2576,-0.2048,0.9895,806,1.5869,-10.498,14.4043,140,0.8244,0.4372,-21.1124,-16.3744,31,0.6833,7998,4.0271,-184.883
rg,1625105460646709227,1,0.2427,-0.2214,0.9846,807,1.2207,-11.8408,14.4653,140,0.8244,0.4382,-21.0982,-16.4345,31,0.6843,8644,4.0271,-184.201
rg,1625105460646762152,1,0.2598,-0.2146,0.9666,808,2.7466,-14.2822,15.1978,140,0.8244,0.4372,-21.2156,-16.448,31,0.6843,14638,4.0271,-183.4616
rg,1625105460646782078,1,0.2754,-0.2087,0.9673,809,2.8076,-14.3433,15.7471,140,0.8244,0.4382,-21.3582,-16.4555,31,0.6843,9400,4.0271,-182.7034
rg,1625105460646799986,1,0.2812,-0.209,0.9795,810,4.2114,-11.4136,14.9536,140,0.8244,0.4382,-21.3979,-16.3778,31,0.6843,7760,4.0271,-182.0158
rg,1625105460646818356,1,0.2705,-0.2078,0.9768,811,3.1738,-11.9629,14.8315,140,0.8244,0.4382,-21.4349,-16.3423,31,0.6843,7839,4.0271,-181.3268
rg,1625105460646848300,1,0.271,-0.2026,0.9817,812,3.1128,-11.4746,15.5029,140,0.8244,0.4382,-21.4472,-16.3061,31,0.6843,7751,4.0271,-180.6204
rg,1625105460646865819,1,0.2668,-0.2065,0.9797,813,3.0518,-11.5356,14.8926,140,0.8234,0.4382,-21.4604,-16.2748,31,0.6843,7702,4.0271,-179.9345
rg,1625105460646882726,1,0.271,-0.2053,0.98,814,3.1128,-10.8032,14.8926,140,0.8234,0.4382,-21.4542,-16.2363,31,0.6833,7742,4.0271,-179.2582
rg,1625105460646900318,1,0.2664,-0.208,0.9739,815,2.8076,-9.4604,15.625,140,0.8234,0.4372,-21.382,-16.2252,31,0.6833,9059,4.0271,-178.5642
rg,1625105460646918133,1,0.259,-0.2102,0.9773,816,2.4414,-9.3384,13.9771,140,0.8244,0.4382,-21.309,-16.2059,31,0.6833,8549,4.0271,-177.9386
rg,1625105460646935429,1,0.2554,-0.2168,0.981,817,2.1973,-10.437,14.8315,140,0.8244,0.4382,-21.33,-16.1828,32,0.6843,8066,4.0271,-177.2458
rg,1625105460646952207,1,0.26,-0.21,0.9854,818,3.54,-13.1226,15.4419,140,0.8234,0.4382,-21.3858,-16.1555,32,0.6843,8300,4.0271,-176.5153
rg,1625105460646969022,1,0.2632,-0.2048,0.9736,819,3.9673,-12.6343,14.3433,140,0.8234,0.4382,-21.4473,-16.0886,32,0.6833,8537,4.0271,-175.8378
rg,1625105460646985503,1,0.2644,-0.2034,0.9673,820,4.2725,-14.4653,14.4653,140,0.8244,0.4382,-21.5821,-16.023,32,0.6843,8251,4.0271,-175.1325
rg,1625105460647002059,1,0.2859,-0.1809,0.9937,821,5.7373,-13.916,14.2822,140,0.8244,0.4392,-21.7133,-15.8836,31,0.6843,8478,4.0271,-174.4461
rg,1625105460647018466,1,0.2749,-0.198,0.9802,822,0.9155,-18.7378,13.1836,140,0.8244,0.4392,-22.0328,-15.9452,31,0.6843,8306,4.0271,-173.7473
rg,1625105460647035151,1,0.2842,-0.2039,0.9512,823,1.1597,-8.1787,18.8599,140,0.8244,0.4402,-21.9072,-16.0659,31,0.6833,8286,4.0271,-172.929
rg,1625105460647119262,1,0.2749,-0.2256,0.9805,824,2.3193,-8.4839,16.0522,140,0.8254,0.4402,-21.7878,-16.1261,31,0.6843,8567,4.0271,-172.2123
rg,1625105460647138169,1,0.2637,-0.2097,0.9863,825,3.418,-9.3994,16.3574,140,0.8244,0.4392,-21.6808,-16.1077,32,0.6833,8152,4.0271,-171.4878
rg,1625105460647155854,1,0.2463,-0.2,0.9773,826,2.4414,-15.564,11.2305,140,0.8254,0.4402,-21.8409,-16.0592,32,0.6843,8029,4.0271,-170.9079
rg,1625105460647173188,1,0.2678,-0.2053,0.9517,827,2.6855,-9.9487,17.5171,140,0.8244,0.4412,-21.769,-16.1016,32,0.6843,8249,4.0271,-170.1249
rg,1625105460647191224,1,0.2793,-0.2271,0.9917,828,1.9531,-9.5215,18.6157,140,0.8244,0.4412,-21.6663,-16.2078,31,0.6833,8137,4.0271,-169.3687
rg,1625105460647208817,1,0.2612,-0.2239,0.9854,829,3.0518,-8.4839,15.4419,140,0.8244,0.4412,-21.5311,-16.2136,31,0.6833,8260,4.0271,-168.6823
rg,1625105460647226169,1,0.252,-0.2046,0.978,830,3.3569,-9.8267,14.2822,140,0.8244,0.4412,-21.4534,-16.1532,31,0.6843,8103,4.0271,-168.0428
rg,1625105460647242872,1,0.2498,-0.2134,0.9802,831,1.709,-10.9863,13.1226,140,0.8244,0.4412,-21.4291,-16.1669,31,0.6843,8275,4.0271,-167.4296
rg,1625105460647288613,1,0.2515,-0.2136,0.9827,832,2.1362,-11.7798,14.0991,140,0.8244,0.4412,-21.4274,-16.1804,31,0.6843,8125,4.0271,-166.7669
rg,1625105460998208072,1,0.2688,-0.1992,0.9634,833,2.1362,-12.5732,13.4277,140,0.8244,0.4412,-21.5131,-16.1644,31,0.6843,25389,4.0271,-166.1308
rg,1625105460998243201,1,0.2729,-0.2085,0.9744,834,2.1362,-12.2681,15.2588,140,0.8234,0.4412,-21.5642,-16.1924,31,0.6843,8566,4.0271,-165.4165
rg,1625105460998263812,1,0.2734,-0.2019,0.9697,835,2.9907,-12.3901,15.5029,140,0.8244,0.4412,-21.6044,-16.1868,31,0.6843,8307,4.0271,-164.6922
rg,1625105460998283257,1,0.2673,-0.2017,0.9729,836,2.6855,-11.7798,15.7471,140,0.8254,0.4412,-21.618,-16.1831,31,0.6843,8201,4.0271,-163.9694
rg,1625105460998302146,1,0.2708,-0.2068,0.9771,837,2.7466,-11.8408,15.0146,140,0.8244,0.4402,-21.6455,-16.1763,31,0.6843,7776,4.0271,-163.2724
rg,1625105460998320423,1,0.2773,-0.2046,0.9758,838,2.8687,-12.5732,16.1133,140,0.8254,0.4402,-21.6945,-16.1922,31,0.6843,8133,4.0271,-162.5185
rg,1625105460998337608,1,0.2637,-0.2058,0.979,839,0.9766,-10.2539,14.4653,140,0.8254,0.4412,-21.6195,-16.1755,31,0.6843,8580,4.0271,-161.8602
rg,1625105460998355794,1,0.2566,-0.2109,0.9812,840,2.5024,-9.8877,15.3198,140,0.8254,0.4412,-21.5362,-16.1809,31,0.6843,10127,4.0271,-161.1718
rg,1625105460998373905,1,0.2588,-0.2068,0.9771,841,1.77,-11.6577,15.2588,140,0.8254,0.4412,-21.5224,-16.1502,31,0.6843,7557,4.0271,-160.5043
rg,1625105460998391201,1,0.2629,-0.2014,0.9883,842,2.1362,-11.2305,15.0757,140,0.8254,0.4412,-21.5086,-16.1476,31,0.6843,7729,4.0271,-159.8188
rg,1625105460998407830,1,0.2639,-0.207,0.9817,843,2.6855,-12.0239,15.3198,140,0.8254,0.4412,-21.5276,-16.1465,31,0.6843,7557,4.0271,-159.1076
rg,1625105460998425423,1,0.2695,-0.2061,0.9849,844,3.2349,-12.7563,16.0522,140,0.8254,0.4412,-21.576,-16.1348,31,0.6843,7786,4.0271,-158.3586
rg,1625105460998442923,1,0.2666,-0.2117,0.9768,845,2.8687,-11.9019,14.9536,140,0.8244,0.4412,-21.5993,-16.135,31,0.6843,8891,4.0271,-157.6588
rg,1625105460998459904,1,0.269,-0.2051,0.9763,846,2.9907,-11.5967,14.8315,140,0.8254,0.4402,-21.618,-16.1126,31,0.6843,8789,4.0271,-156.9733
rg,1625105460998496904,1,0.2715,-0.199,0.9673,847,3.54,-11.7798,14.9536,140,0.8254,0.4402,-21.6396,-16.0931,31,0.6843,7832,4.0271,-156.2141
rg,1625105460998515663,1,0.2727,-0.1953,0.9795,848,3.1128,-11.5967,15.564,140,0.8254,0.4402,-21.6568,-16.0553,31,0.6843,8508,4.0271,-155.5067
rg,1625105460998532830,1,0.2698,-0.207,0.9829,849,2.6855,-10.8032,14.8926,140,0.8254,0.4402,-21.6406,-16.0474,31,0.6843,8031,4.0271,-154.8268
