name,time,activity,ax,ay,az,batch_val,gx,gy,gz,ibat,index,middle,pitch,roll,temp,thumb,ts,vbat,yaw
rg,1625051492324610830,1,-0.1838,-0.0945,1.0593,1,-1.77,-40.5273,12.6953,101,1.1396,1.0535,-3.9854,-0.3202,32,0.7824,19693,4.0447,150.4155
rg,1625051492324649181,1,-0.1787,-0.0569,1.0432,2,-5.0659,-45.105,11.9629,101,1.1396,1.0545,-5.2414,-0.6714,32,0.7814,8686,4.0447,150.9173
rg,1625051492324670013,1,-0.1631,-0.0474,1.04,3,-9.5825,-48.9502,10.437,101,1.1396,1.0545,-6.6301,-1.1757,32,0.7824,7940,4.0447,151.3734
rg,1625051492324689143,1,-0.1487,-0.051,1.0583,4,-12.6343,-50.5371,11.5967,101,1.1396,1.0545,-8.0576,-1.8079,32,0.7814,7979,4.0447,151.8982
rg,1625051492324708050,1,-0.0872,-0.0425,1.0752,5,-16.2354,-53.0396,10.376,101,1.1396,1.0565,-9.654,-2.5494,32,0.7824,8048,4.0447,152.3991
rg,1625051492324726549,1,-0.009,-0.0737,1.083,6,-18.4326,-53.7109,10.5591,101,1.1396,1.0585,-11.2075,-3.4234,32,0.7834,8022,4.0447,152.855
rg,1625051492324744863,1,-0.0037,-0.105,1.0955,7,-18.4937,-41.687,7.4463,101,1.1396,1.0595,-12.394,-4.3275,32,0.7834,8006,4.0447,153.2867
rg,1625051492324782492,1,-0.0608,-0.0786,1.1074,8,-18.4326,-28.4424,4.5776,101,1.1396,1.0605,-12.8983,-5.1113,32,0.7834,8058,4.0447,153.5633
rg,1625051492324801158,1,-0.0942,-0.0903,1.0962,9,-18.5547,-24.9023,2.8076,101,1.1396,1.0615,-13.1743,-5.8915,32,0.7834,8068,4.0447,153.8176
rg,1625051492324818825,1,-0.1101,-0.0925,1.1067,10,-20.3247,-25.3906,5.4321,101,1.1396,1.0625,-13.4207,-6.7312,32,0.7834,8093,4.0447,154.1387
rg,1625051492324837065,1,-0.1316,-0.0984,1.0962,11,-20.2637,-27.9541,3.7231,101,1.1396,1.0635,-13.72,-7.5403,32,0.7844,8120,4.0447,154.413
rg,1625051492324854787,1,-0.1501,-0.0876,1.0837,12,-18.6157,-31.7993,3.54,101,1.1396,1.0655,-14.2829,-8.2411,32,0.7844,8131,4.0447,154.6901
rg,1625051492324871842,1,-0.1497,-0.0879,1.0806,13,-19.7754,-41.0156,2.8076,101,1.1396,1.0665,-15.0251,-8.9736,32,0.7844,8139,4.0447,155.0175
rg,1625051492324889119,1,-0.1584,-0.0884,1.0652,14,-18.5547,-51.1475,0.1831,101,1.1396,1.0685,-16.1305,-9.6318,32,0.7844,8139,4.0447,155.319
rg,1625051492324905730,1,-0.1799,-0.0879,1.0559,15,-18.4326,-61.5234,-1.77,101,1.1396,1.0695,-17.5699,-10.2715,32,0.7844,8129,4.0447,155.6304
rg,1625051492324924081,1,-0.187,-0.085,1.0581,16,-18.3716,-67.9321,-2.1973,101,1.1396,1.0705,-19.1967,-10.9035,32,0.7844,8254,4.0447,155.99
rg,1625051492324957173,1,-0.1858,-0.0935,1.0364,17,-17.8223,-80.0781,-2.0752,101,1.1396,1.0715,-21.231,-11.5703,32,0.7844,8239,4.0447,156.4845
rg,1625051492324976988,1,-0.1389,-0.1453,1.0405,18,-15.0757,-90.0269,-2.3193,101,1.1396,1.0725,-23.6644,-12.2816,32,0.7854,8301,4.0447,157.1305
rg,1625051492324994394,1,-0.104,-0.1777,1.0579,19,-13.6108,-92.2241,-2.0142,101,1.1396,1.0735,-26.217,-13.0894,32,0.7854,8304,4.0447,157.9042
rg,1625051492325011431,1,-0.042,-0.217,1.0693,20,-8.1787,-92.4683,-5.7983,101,1.1396,1.0745,-28.7675,-13.665,32,0.7854,8901,4.0447,158.5794
rg,1625051492325042653,1,0.0034,-0.2427,1.0859,21,-1.9531,-86.5479,-8.1177,101,1.1396,1.0745,-31.099,-13.9836,32,0.7854,8323,4.0447,159.1459
rg,1625051492325061319,1,0.0391,-0.2322,1.0889,22,6.4697,-75.8667,-9.2773,101,1.1396,1.0755,-33.0102,-13.8636,32,0.7854,8372,4.0447,159.5389
rg,1625051492325079170,1,-0.2036,-0.3069,0.1155,23,102.9663,26.4282,-2.6245,185,0.7174,0.3522,-30.4302,-11.4419,32,0.7063,13477,4.0051,160.2123
rg,1625051492325096892,1,-0.1248,-0.1711,0.0808,24,53.772,-39.6729,14.5874,185,0.7204,0.3602,-30.2098,-11.5785,32,0.7073,8286,4.0051,162.1429
rg,1625051492325114003,1,0.1619,-0.3984,0.4385,25,-63.3545,-93.75,28.6255,185,0.7224,0.3652,-33.0865,-16.6461,32,0.7093,8184,4.0051,165.1674
rg,1625051492325239537,1,0.4558,-0.8323,0.895,26,-107.5439,-81.1768,32.7759,185,0.7274,0.3712,-35.3215,-23.9274,32,0.7143,8081,4.0051,168.7739
rg,1625051492325265388,1,0.6677,-1.6121,0.9961,27,-46.6919,31.5552,33.02,185,0.7404,0.3802,-33.1819,-27.6696,32,0.7214,8169,4.0051,170.3777
rg,1625051492325284795,1,0.552,-1.5515,0.8008,28,63.5986,91.6138,4.8828,185,0.7644,0.3932,-29.4461,-25.6917,32,0.7274,8137,4.0051,169.4567
rg,1625051492325302980,1,0.4531,-1.2917,0.792,29,106.9946,115.4175,-5.3711,185,0.7954,0.4062,-24.236,-20.3701,32,0.7314,8179,4.0051,167.5089
rg,1625051492325324164,1,0.1497,-0.7065,0.4614,30,135.9863,141.2964,-1.4038,185,0.8314,0.4172,-18.5516,-15.6713,32,0.7334,8156,4.0051,166.1749
rg,1625051492325342460,1,-0.0718,-0.478,0.2751,31,98.5107,150.0244,9.7046,185,0.8724,0.4272,-11.8926,-13.0728,32,0.7354,8184,4.0051,165.5593
rg,1625051492325361756,1,-0.3389,-0.5703,0.4863,32,20.4468,145.0806,10.6201,185,0.9134,0.4352,-4.9171,-13.358,32,0.7364,8699,4.0051,164.8884
rg,1625051492702074487,1,-0.0566,-0.6812,0.6677,33,-27.5269,-100.8911,17.7612,185,0.9094,0.4612,-9.8925,-16.7213,32,0.7394,24464,4.0051,167.6001
rg,1625051492702133690,1,0.6914,-1.1179,0.6997,34,-112.915,-219.8486,30.2734,185,0.8234,0.4632,-18.4343,-23.6459,32,0.7414,8732,4.0051,-187.8255
rg,1625051492702159652,1,0.7539,-1.1814,0.5537,35,-111.8774,-199.7681,14.7705,185,0.7544,0.4482,-25.7806,-31.2156,32,0.7394,7678,4.0051,-182.805
rg,1625051492702179170,1,0.7642,-1.009,0.4832,36,-107.9712,-124.4507,10.376,185,0.7163,0.4152,-30.0335,-38.3655,32,0.7314,9370,4.0051,-178.663
rg,1625051492702198355,1,0.5996,-0.9038,0.4048,37,-117.7368,-22.583,20.1416,185,0.6953,0.3672,-30.2911,-44.7867,32,0.7163,7622,4.0051,-176.7448
rg,1625051492702216151,1,0.478,-0.9832,0.6492,38,-127.6855,26.9165,23.8647,185,0.7013,0.3402,-27.4716,-49.1195,32,0.7093,8874,4.0051,-177.7374
rg,1625051492702233669,1,0.3345,-1.1709,0.6565,39,-36.6821,117.981,26.7944,185,0.7023,0.3342,-23.098,-49.6944,32,0.7053,7733,4.0051,-180.7204
rg,1625051492702254002,1,0.2092,-1.1748,0.4033,40,37.1094,109.375,52.7344,185,0.7043,0.3302,-18.1898,-48.3507,32,0.7003,8524,4.0051,-182.4371
rg,1625051492702299371,1,-0.1348,-0.9656,0.3757,41,77.7588,93.6279,-11.8408,185,0.7033,0.3322,-15.0524,-45.153,32,0.6953,7990,4.0051,-185.3429
rg,1625051492703342605,1,-0.2598,-0.7576,0.3503,42,103.2104,66.4673,-19.5312,185,0.7053,0.3332,-12.4851,-41.2159,32,0.6913,8161,4.0051,-187.5623
rg,1625051492703411196,1,-0.3728,-0.386,0.2073,43,120.2393,11.7798,-2.4414,185,0.7073,0.3332,-10.4031,-36.9725,32,0.6903,8494,4.0051,-187.7378
rg,1625051492703441158,1,-0.2378,-0.1992,0.1313,44,72.0215,-83.9233,21.7285,185,0.7103,0.3372,-10.7449,-35.1503,32,0.6903,8151,4.0051,-184.8763
rg,1625051492703471583,1,-0.1086,-0.2261,0.1299,45,29.3579,-125.4883,25.5737,185,0.7123,0.3432,-14.5743,-37.9426,32,0.6903,7912,4.0051,-179.8769
rg,1625051492703495250,1,0.322,-0.6025,0.5967,46,-72.937,-151.8555,39.7339,185,0.7123,0.3502,-18.3959,-42.6506,32,0.6933,7921,4.0051,-174.435
rg,1625051492703516953,1,0.605,-1.2695,0.8765,47,-69.7021,-39.917,38.8794,185,0.7194,0.3572,-18.5586,-46.6571,32,0.7003,7797,4.0051,-171.9284
rg,1625051492703564840,1,0.5657,-1.4175,0.7056,48,-36.1938,10.1318,31.3721,185,0.7324,0.3622,-17.3697,-48.8657,32,0.7093,8057,4.0051,-171.1715
rg,1625051492703585766,1,0.5425,-1.4556,0.9231,49,32.2876,75.8667,3.8452,185,0.7514,0.3712,-15.25,-47.2777,32,0.7163,7924,4.0051,-173.3229
rg,1625051492703616487,1,0.3369,-1.1475,0.6904,50,107.2998,122.2534,11.2305,185,0.7854,0.3832,-11.4666,-42.699,32,0.7234,8049,4.0051,-176.4355
rg,1625051492703647801,1,0.1892,-0.9172,0.4849,51,123.4741,125.4883,10.2539,185,0.8184,0.3952,-7.1606,-38.1338,32,0.7274,8186,3.9886,-179.2428
rg,1625051492703667375,1,-0.0566,-0.5098,0.2876,52,101.8066,140.2588,18.2495,202,0.8484,0.4052,-1.7661,-34.7158,32,0.7304,8038,3.9886,-181.8776
rg,1625051492703685912,1,-0.2864,-0.4314,0.3574,53,26.6113,139.7705,28.9307,202,0.8694,0.4132,4.5604,-34.2442,32,0.7334,7925,3.9886,-184.0726
rg,1625051492703717966,1,-0.4565,-0.6848,0.5256,54,-54.1992,24.292,21.4844,202,0.8634,0.4232,6.748,-37.0178,32,0.7374,11672,3.9886,-184.0125
rg,1625051492703737966,1,-0.0637,-1.0081,0.7285,55,-109.436,-116.4551,35.7666,202,0.8184,0.4292,3.9297,-41.662,32,0.7404,8233,3.9886,-180.0089
rg,1625051492703757595,1,0.4438,-1.2671,0.8301,56,-104.7363,-175.415,32.8979,202,0.7604,0.4232,-0.9554,-46.2491,32,0.7414,9754,3.9886,-174.2041
rg,1625051492703776298,1,0.5012,-1.2891,0.7075,57,-91.6138,-167.5415,23.0713,202,0.7234,0.4072,-5.4278,-50.8123,32,0.7384,8132,3.9886,-168.5276
rg,1625051492703807983,1,0.52,-1.156,0.5342,58,-78.6743,-149.1699,22.7661,202,0.6943,0.3862,-8.925,-55.1374,32,0.7264,8241,3.9886,-163.1021
rg,1625051492703827316,1,0.4333,-1.0906,0.3889,59,-55.7251,-92.7734,14.2822,202,0.6943,0.3572,-10.9239,-58.517,32,0.7123,8840,3.9886,-159.5298
rg,1625051492703846334,1,0.283,-1.0352,0.502,60,21.3623,24.7192,2.3193,202,0.7013,0.3512,-10.4419,-57.7213,32,0.7123,8478,3.9886,-160.2979
rg,1625051492703864500,1,0.2192,-0.9275,0.3699,61,60.4858,52.7954,19.9585,202,0.7013,0.3442,-8.5568,-55.7787,32,0.7063,9104,3.9886,-160.7744
rg,1625051492703882185,1,0.0693,-0.8325,0.3279,62,56.1523,50.293,6.7749,202,0.7023,0.3382,-7.0291,-53.8253,32,0.7023,8460,3.9886,-162.2027
rg,1625051492703899314,1,-0.2896,-0.5371,0.1829,63,105.1636,40.4663,-31.311,202,0.7043,0.3382,-5.7652,-50.0017,32,0.7003,8637,3.9886,-164.1413
rg,1625051492703916647,1,-0.4004,-0.22,0.0923,64,114.2578,17.4561,-4.5776,202,0.7053,0.3432,-3.3868,-45.7394,32,0.6993,8535,3.9886,-164.6676
rg,1625051493079598334,1,0.8535,-1.5513,1.7434,65,-114.0747,-134.6436,35.7056,202,0.7244,0.3632,-5.235,-52.5347,32,0.7103,25936,3.9886,-160.9773
rg,1625051493079671536,1,0.6799,-1.876,1.1719,66,-79.834,6.8359,39.6729,202,0.7404,0.3702,-4.2559,-55.9746,32,0.7204,8405,3.9886,-160.2432
rg,1625051493079693573,1,0.6672,-1.7415,0.6504,67,75.8667,39.6729,23.1323,202,0.7714,0.3822,-3.2013,-53.3857,32,0.7294,8591,3.9886,-160.9881
rg,1625051493079713535,1,0.3894,-0.9836,0.4758,68,155.6396,143.0664,-0.4272,202,0.7974,0.3922,-0.2389,-47.4368,32,0.7334,7727,3.9886,-165.4244
rg,1625051493079731905,1,0.0007,-0.1899,0.3621,69,134.0942,207.8247,16.2354,202,0.8194,0.3972,6.1009,-41.5946,32,0.7364,7597,3.9886,-170.7944
rg,1625051493079749997,1,-0.1938,-0.1597,0.2961,70,74.0967,219.9097,15.9912,202,0.8364,0.4062,14.0888,-39.0963,32,0.7394,7547,3.9886,-176.0081
rg,1625051493079767516,1,-0.6377,-0.6702,0.4741,71,-50.5981,113.7085,-5.249,202,0.8484,0.4132,18.2927,-42.5189,32,0.7424,7787,3.9886,-179.4222
rg,1625051493079786460,1,-0.6838,-0.9407,0.7942,72,-86.9141,7.3242,-7.9346,202,0.8464,0.4222,15.813,-45.8354,32,0.7434,7966,3.9886,-176.871
rg,1625051493079803941,1,-0.1526,-1.1235,0.7043,73,-87.4023,-159.9121,17.0288,202,0.8104,0.4292,11.6393,-48.5364,32,0.7444,8241,3.9886,-171.6855
rg,1625051493079822218,1,0.4868,-1.1682,0.8533,74,-88.1348,-229.5532,17.9443,202,0.7664,0.4302,5.1707,-51.1424,32,0.7454,7890,3.9886,-164.1519
rg,1625051493079839958,1,0.5815,-1.1597,0.5596,75,-86.6699,-201.7822,-3.1128,202,0.7274,0.4182,-0.8625,-54.8172,32,0.7374,8241,3.9886,-157.7931
rg,1625051493079857588,1,0.5615,-1.0918,0.3809,76,-87.4023,-159.0576,-6.0425,202,0.6953,0.3802,-5.4609,-59.142,32,0.7234,10640,3.9886,-152.541
rg,1625051493079874698,1,0.5178,-1.0005,0.5127,77,-69.8242,-57.6172,0.1221,202,0.7013,0.3512,-7.321,-62.2766,32,0.7184,8830,3.9886,-150.4834
rg,1625051493079893068,1,0.4514,-1.0457,0.5432,78,-5.127,18.9209,3.1738,202,0.7033,0.3372,-7.3944,-62.3993,32,0.7174,7929,3.9886,-151.1027
rg,1625051493079910920,1,0.3577,-0.9155,0.2646,79,50.2319,42.4805,40.1001,202,0.7043,0.3252,-5.707,-60.7219,32,0.7143,7786,3.9886,-151.8001
rg,1625051493079929123,1,0.0205,-0.667,0.1606,80,49.5605,56.8848,12.3291,202,0.7043,0.3162,-4.6657,-58.4007,32,0.7133,7967,3.9886,-154.7329
rg,1625051493079945882,1,-0.1433,-0.5259,0.1194,81,81.2988,79.4067,-23.3765,202,0.7053,0.3152,-2.9839,-55.6426,32,0.7113,7864,3.9886,-157.8367
rg,1625051493079963252,1,-0.2786,-0.3069,0.0808,82,74.585,70.4346,9.2773,202,0.7073,0.3182,0.5211,-53.1855,32,0.7083,8153,3.9886,-159.8481
rg,1625051493079980418,1,-0.2048,-0.2307,0.126,83,53.4058,42.3584,25.6958,202,0.7093,0.3242,2.92,-52.8263,32,0.7083,8035,3.9886,-158.9495
rg,1625051493079998084,1,-0.1228,-0.3264,0.2163,84,-38.0859,-46.5698,34.668,202,0.7113,0.3322,3.5033,-54.3425,32,0.7103,8210,3.9886,-156.6367
rg,1625051493080015362,1,0.384,-1.0068,1.0369,85,-127.3804,-79.4678,42.3584,202,0.7133,0.3402,2.4667,-58.836,32,0.7133,8235,3.9886,-152.998
rg,1625051493080032880,1,0.458,-1.6201,0.8181,86,-51.6968,10.6201,45.4712,202,0.7184,0.3472,3.5984,-61.0267,32,0.7194,8194,3.9886,-152.4551
rg,1625051493080049824,1,0.4114,-1.6223,0.6516,87,-1.8311,28.3203,32.4097,202,0.7324,0.3562,4.6135,-61.2034,32,0.7274,8512,3.9886,-152.8325
rg,1625051493080089101,1,0.3188,-1.2544,0.7571,88,82.7026,77.0264,11.4746,202,0.7544,0.3662,5.8933,-58.0237,32,0.7334,8348,3.9886,-155.2847
rg,1625051493080107786,1,0.1663,-0.709,0.4971,89,121.521,99.4873,23.5596,202,0.7784,0.3782,8.2377,-53.3877,32,0.7394,8809,3.9886,-158.0825
rg,1625051493080127248,1,-0.0198,-0.5325,0.2798,90,68.6646,87.8906,18.8599,202,0.8004,0.3882,10.7162,-51.3801,32,0.7444,8303,3.9886,-160.5
rg,1625051493080144859,1,-0.0596,-0.5898,0.3552,91,31.1279,83.8013,20.6299,202,0.8174,0.3952,13.2276,-50.7024,32,0.7474,8313,3.9886,-162.6658
rg,1625051493080162062,1,-0.1274,-0.9119,0.6257,92,-21.1792,48.8892,20.813,202,0.8254,0.4042,14.8249,-51.9833,32,0.7494,8147,3.9886,-163.7491
rg,1625051493080178988,1,-0.0825,-1.0232,0.562,93,-35.3394,-38.6353,9.7656,202,0.8134,0.4122,13.7836,-53.3816,32,0.7514,8330,3.9886,-162.324
rg,1625051493080195987,1,0.1926,-1.0095,0.6677,94,-66.5894,-95.7031,10.1929,202,0.7734,0.4182,11.0215,-55.4119,32,0.7504,8254,3.9886,-158.9045
rg,1625051493080212968,1,0.3115,-1.1431,0.6433,95,-95.3369,-115.8447,-1.0986,202,0.7354,0.4152,7.5521,-58.771,32,0.7514,8382,3.9886,-154.9962
rg,1625051493080229653,1,0.3123,-1.1843,0.6299,96,-97.7783,-119.3848,-3.0518,202,0.7033,0.3962,4.3201,-62.3572,32,0.7384,8251,3.9886,-150.8655
rg,1625051493492781458,1,0.0969,-1.1729,0.2729,97,80.8105,-23.2544,-6.2866,202,0.7003,0.3382,3.3075,-59.6426,32,0.7244,26877,3.9886,-150.2221
rg,1625051493492945510,1,0.2068,-0.7231,0.1533,98,104.7363,-35.0342,24.353,202,0.7013,0.3312,2.6624,-56.0533,32,0.7224,8799,3.9886,-148.5807
rg,1625051493492968324,1,-0.0981,-0.4365,0.0664,99,118.9575,5.4321,-24.4141,202,0.7033,0.3272,2.3981,-52.2768,32,0.7194,8415,3.9886,-149.3566
rg,1625051493492990305,1,-0.1643,-0.3374,0.0581,100,103.4546,7.6294,-17.9443,202,0.7063,0.3272,3.6999,-49.6236,32,0.7184,8659,3.9886,-149.8894
rg,1625051493493009175,1,-0.1055,-0.2734,0.1345,101,-7.3242,-69.397,25.2686,202,0.7093,0.3382,3.3028,-50.2618,32,0.7184,16825,3.9886,-147.1424
rg,1625051493493027138,1,0.0542,-0.4041,0.3645,102,-58.6548,-98.8159,29.0527,202,0.7113,0.3442,1.399,-52.3424,32,0.7204,7676,3.9886,-143.3148
rg,1625051493493044619,1,0.6484,-1.1824,1.1914,103,-103.5767,-63.4155,40.4053,202,0.7143,0.3492,0.3684,-56.1386,32,0.7244,7803,3.9886,-140.2798
rg,1625051493493065674,1,0.6521,-1.5674,0.6965,104,-63.5376,-6.958,44.3726,202,0.7224,0.3562,1.4605,-57.0038,32,0.7304,7726,3.9886,-140.3913
rg,1625051493493084414,1,0.6301,-1.48,0.6575,105,24.7803,58.7158,17.5171,202,0.7374,0.3642,2.4483,-56.39,32,0.7374,7749,3.9886,-141.991
rg,1625051493493102340,1,0.4409,-1.0381,0.6458,106,93.0786,154.6631,7.0801,202,0.7624,0.3752,5.3635,-53.0637,32,0.7424,8479,3.9886,-146.9229
rg,1625051493493119969,1,0.1223,-0.603,0.4443,107,110.1685,182.0679,11.3525,202,0.7884,0.3862,9.7863,-50.0689,32,0.7474,7951,3.9886,-152.9757
rg,1625051493493148079,1,-0.0789,-0.5557,0.3586,108,65.1245,193.8477,-1.8311,202,0.8114,0.3932,14.6079,-49.0297,33,0.7514,8314,3.9886,-159.111
rg,1625051493493165449,1,-0.4277,-0.7581,0.5957,109,4.5776,152.4048,-0.6104,202,0.8314,0.4032,18.8683,-50.3441,33,0.7544,8071,3.9886,-164.0157
rg,1625051493493185153,1,-0.5796,-1.0002,0.6433,110,-18.4326,7.8125,-2.8687,202,0.8494,0.4112,19.2558,-51.4375,33,0.7554,7910,3.9886,-164.4321
rg,1625051493493202911,1,-0.387,-0.9773,0.5591,111,-18.7378,-82.7026,-4.9438,202,0.8554,0.4182,17.0524,-51.7076,33,0.7574,7919,3.9886,-161.9383
rg,1625051493493321872,1,0.1438,-0.8032,0.6584,112,-39.7949,-183.0444,16.2354,202,0.8444,0.4242,12.0961,-51.6445,32,0.7584,7992,3.9886,-155.5738
rg,1625051493493345723,1,0.6482,-1.075,0.6323,113,-79.4678,-210.144,26.4282,202,0.8034,0.4322,6.4476,-53.8892,32,0.7584,7884,3.9886,-148.1871
rg,1625051493493364093,1,0.7693,-1.1726,0.6074,114,-88.562,-193.6035,12.0239,202,0.7554,0.4282,1.1493,-57.2658,32,0.7564,8118,3.9886,-141.5162
rg,1625051493493382926,1,0.6997,-1.1255,0.4229,115,-95.8252,-126.0986,2.6855,202,0.7224,0.4132,-2.482,-61.5387,32,0.7504,7975,3.9886,-137.0871
rg,1625051493493403370,1,0.5532,-1.0474,0.2825,116,-80.6885,-42.6025,8.5449,202,0.6973,0.3772,-3.8747,-65.3109,32,0.7354,8141,3.9886,-135.3589
rg,1625051493493421555,1,0.4126,-1.02,0.2847,117,-82.8857,5.0049,10.376,202,0.7013,0.3472,-4.096,-68.9437,32,0.7324,7975,3.9886,-135.3419
rg,1625051493493438906,1,0.248,-1.0027,0.48,118,4.3945,93.0176,19.2871,202,0.7033,0.3372,-2.3762,-68.3978,32,0.7304,8172,3.9886,-138.5539
rg,1625051493493461035,1,0.1855,-0.9214,0.2554,119,63.8428,80.5664,60.6689,202,0.7043,0.3262,0.7497,-66.0422,32,0.7274,8059,3.9886,-140.594
rg,1625051493493479553,1,0.0723,-0.8367,0.2258,120,56.7627,86.3647,36.9263,202,0.7043,0.3182,3.8396,-64.1971,32,0.7244,8186,3.9886,-143.1136
rg,1625051493493499164,1,-0.2688,-0.7256,0.2849,121,80.2612,80.7495,3.1738,202,0.7053,0.3142,6.0086,-61.3846,32,0.7214,8097,3.9886,-145.935
rg,1625051493493545145,1,-0.3823,-0.5293,0.2537,122,84.2896,24.9023,23.3154,202,0.7083,0.3122,8.3417,-58.154,32,0.7194,9499,3.9886,-146.3096
rg,1625051493493573107,1,-0.2712,-0.3384,0.1516,123,66.04,-76.9653,26.4893,202,0.7113,0.3142,8.6123,-55.2803,32,0.7184,8427,3.9886,-143.1232
rg,1625051493493590773,1,-0.0337,-0.3262,0.2722,124,3.7842,-136.0474,33.2642,202,0.7143,0.3192,6.4181,-54.2237,32,0.7174,9119,3.9886,-137.8338
rg,1625051493493609013,1,0.1616,-0.4805,0.4617,125,-35.5225,-141.1133,42.9688,202,0.7153,0.3282,3.5293,-54.7959,32,0.7184,8523,3.9886,-132.1776
rg,1625051493493628457,1,0.5757,-1.0645,0.9292,126,-78.186,-71.8994,50.6592,202,0.7204,0.3392,2.6368,-57.4976,32,0.7244,9011,3.9886,-128.623
rg,1625051493493645864,1,0.615,-1.4705,0.8518,127,-29.7241,26.9165,32.8979,202,0.7304,0.3482,3.4453,-58.7743,32,0.7324,8275,3.9886,-128.8443
rg,1625051493493683086,1,0.4441,-1.3831,0.8101,128,39.2456,98.999,12.5732,202,0.7504,0.3582,5.2094,-57.4634,32,0.7414,8421,3.9886,-131.9679
rg,1625051493762801972,1,-0.0007,-0.6843,0.3997,129,89.3555,139.3433,16.3574,202,0.8224,0.3872,8.6386,-54.4913,32,0.7544,24094,3.9886,-136.2704
rg,1625051493762928709,1,-0.2068,-0.6357,0.4021,130,39.4897,117.4927,17.8833,202,0.8424,0.3972,12.2177,-53.6502,32,0.7564,8380,3.9886,-139.7341
rg,1625051493762951950,1,-0.314,-0.7058,0.5046,131,10.6812,97.9004,14.4653,202,0.8554,0.4062,14.2357,-54.5919,32,0.7574,7814,3.9886,-141.3671
rg,1625051493762972968,1,-0.4346,-0.9392,0.592,132,-26.123,-8.2397,8.3618,202,0.8574,0.4162,14.6021,-55.625,32,0.7584,7722,3.9886,-140.9193
rg,1625051493762992060,1,-0.0588,-0.9272,0.6208,133,-60.9741,-117.0044,21.8506,202,0.8314,0.4242,12.295,-57.0189,32,0.7594,7777,3.9886,-136.4122
rg,1625051493763010356,1,0.1721,-1.0046,0.6909,134,-81.4209,-149.9023,24.231,202,0.7824,0.4292,8.9397,-59.2241,32,0.7574,8069,3.9886,-130.6972
rg,1625051493763028503,1,0.3916,-1.1819,0.6531,135,-96.0083,-163.8794,2.1362,202,0.7364,0.4252,4.8844,-62.4147,32,0.7514,8975,3.9886,-124.8773
rg,1625051493763140297,1,0.4304,-1.2185,0.4695,136,-82.6416,-143.2495,13.9771,202,0.7083,0.3972,2.0091,-65.618,32,0.7414,8092,3.9886,-119.4715
rg,1625051493763170778,1,0.3591,-1.1631,0.3296,137,-67.5659,-100.647,10.1929,202,0.6903,0.3562,0.1121,-68.5547,32,0.7254,8054,3.9886,-115.5981
rg,1625051493763195796,1,0.1753,-0.9219,0.3044,138,83.9844,26.6724,9.0332,202,0.6983,0.3302,0.4498,-65.3147,32,0.7224,16115,3.9886,-116.4532
rg,1625051493763215222,1,0.2075,-0.8245,0.2083,139,93.1396,20.752,33.1421,202,0.7003,0.3242,1.4447,-61.9884,32,0.7194,7691,3.9886,-116.6344
rg,1625051493763234721,1,-0.0022,-0.6562,0.1672,140,73.4253,45.166,-10.9253,202,0.7013,0.3222,1.8889,-59.6351,32,0.7174,7706,3.9886,-118.4409
rg,1625051493763259535,1,-0.261,-0.4861,0.2068,141,76.9653,57.251,-16.8457,202,0.7023,0.3222,3.4487,-56.9168,32,0.7143,8330,3.9886,-120.7293
rg,1625051493763278424,1,-0.3103,-0.3855,0.2627,142,69.7632,53.1616,-4.3945,202,0.7053,0.3232,5.6373,-54.2267,32,0.7123,7755,3.9886,-122.5571
rg,1625051493763301590,1,-0.3301,-0.2766,0.29,143,34.5459,-6.5918,9.9487,202,0.7073,0.3252,7.0654,-52.4609,32,0.7123,8856,3.9886,-122.0494
rg,1625051493763323256,1,-0.1147,-0.4768,0.4976,144,-43.5181,-93.1396,22.0947,202,0.7113,0.3332,5.6382,-53.4544,32,0.7153,9918,3.9886,-118.4759
rg,1625051493763341885,1,0.3574,-1.0967,1.0273,145,-86.9141,-90.0879,40.3442,202,0.7163,0.3422,4.1617,-56.3229,32,0.7194,8601,3.9886,-114.5439
rg,1625051493763360237,1,0.5557,-1.4482,0.8311,146,-59.4482,-56.1523,44.8608,202,0.7264,0.3522,4.0324,-57.0551,32,0.7274,8668,3.9886,-112.7179
rg,1625051493763386477,1,0.5881,-1.3992,0.6936,147,18.1274,-6.4087,23.8037,202,0.7454,0.3642,3.7417,-56.514,32,0.7374,8658,3.9886,-112.0057
rg,1625051493763409532,1,0.5029,-1.0242,0.5291,148,74.9512,53.6499,-2.8076,202,0.7684,0.3782,3.8256,-53.8575,32,0.7434,8594,3.9886,-113.8793
rg,1625051493763430309,1,0.28,-0.6343,0.3579,149,82.7026,115.4175,1.8921,202,0.7984,0.3892,5.7246,-51.0983,32,0.7494,8279,3.9886,-117.5539
rg,1625051493763465475,1,0.0391,-0.5791,0.3394,150,25.1465,143.4326,8.7891,202,0.8234,0.3982,9.224,-50.979,32,0.7534,8438,3.9886,-121.8711
rg,1625051493763498919,1,-0.0806,-0.7136,0.478,151,-5.4321,135.6812,8.728,202,0.8454,0.4092,12.6917,-52.1747,32,0.7554,8214,3.9886,-126.0185
rg,1625051493763529511,1,-0.3521,-1.0955,0.689,152,-33.2031,67.1997,1.709,202,0.8594,0.4182,14.4433,-54.2208,32,0.7564,8056,3.9886,-128.243
rg,1625051493763551455,1,-0.1555,-0.9883,0.592,153,-23.4375,-72.6929,7.9956,202,0.8574,0.4262,12.758,-54.7211,32,0.7584,8276,3.9886,-125.6589
rg,1625051493763571251,1,0.0896,-0.8884,0.668,154,-41.9922,-113.8916,19.7144,202,0.8174,0.4332,10.1369,-55.4678,32,0.7594,8065,3.9886,-121.3633
rg,1625051493763588602,1,0.4353,-1.1104,0.6299,155,-90.8813,-153.0762,15.0757,202,0.7614,0.4302,6.2346,-58.4832,32,0.7564,8632,3.9886,-115.8515
rg,1625051493763606972,1,0.4326,-1.2644,0.5317,156,-93.0786,-138.0005,-8.9722,202,0.7234,0.4222,2.3038,-62.1674,32,0.7514,8344,3.9886,-111.2271
rg,1625051493763629157,1,0.3323,-1.2354,0.3267,157,-44.7998,-99.1211,0.6104,202,0.6983,0.3852,-0.098,-64.3693,32,0.7364,8836,3.9886,-107.6805
rg,1625051493763648767,1,0.2637,-1.1909,0.3289,158,-41.8701,-73.3643,4.9438,202,0.6943,0.3472,-1.2431,-65.6631,32,0.7254,8582,3.9886,-105.374
rg,1625051493763720340,1,0.2634,-0.9937,0.5532,159,27.0996,-33.1421,7.3853,202,0.6993,0.3342,-1.9939,-64.42,32,0.7244,8539,3.9886,-104.057
rg,1625051493763751895,1,0.0796,-0.8135,0.2039,160,121.2769,1.2207,37.4146,202,0.7003,0.3222,-0.7879,-60.0326,32,0.7214,9004,3.9886,-103.3976
rg,1625051494188229620,1,-0.2656,-0.2429,0.1606,161,91.0645,-47.2412,-10.6812,202,0.7043,0.3102,-0.5882,-56.3026,32,0.7153,25261,3.9886,-101.9605
rg,1625051494188267175,1,-0.1016,-0.1624,0.1985,162,-6.5308,-105.835,39.1235,202,0.7103,0.3192,-0.7738,-55.9849,32,0.7174,14703,3.9886,-97.5737
rg,1625051494188287396,1,0.0803,-0.3311,0.3713,163,-62.0117,-127.6855,51.2085,202,0.7143,0.3282,-2.1499,-58.0332,32,0.7204,7513,3.9886,-92.1775
rg,1625051494188306674,1,0.8423,-1.186,1.3574,164,-131.6528,-88.3179,61.0352,202,0.7214,0.3392,-2.6428,-62.8585,32,0.7284,7585,3.9886,-87.8913
rg,1625051494188325396,1,0.855,-1.6311,0.709,165,-33.3252,24.6582,49.6216,150,0.7334,0.3512,-1.3214,-64.3081,32,0.7394,9512,4.0073,-87.8842
rg,1625051494188344247,1,0.8257,-1.4175,0.6567,166,41.1987,114.9902,12.5122,150,0.7614,0.3642,0.1455,-62.6393,32,0.7454,10631,4.0073,-91.7992
rg,1625051494188386061,1,0.6624,-1.1453,0.5205,167,74.7681,180.481,13.5498,150,0.7874,0.3762,3.0192,-60.0004,32,0.7514,7729,4.0073,-97.9046
rg,1625051494188405542,1,0.3037,-0.6851,0.2991,168,86.5479,270.3247,15.9912,150,0.8124,0.3872,8.1512,-57.6558,32,0.7554,7647,4.0073,-106.8892
rg,1625051494188423116,1,-0.1799,-0.5601,0.4661,169,18.9819,306.8237,10.0708,150,0.8364,0.3962,15.1365,-58.7104,32,0.7594,7750,4.0073,-117.2519
rg,1625051494188441708,1,-0.5061,-0.7451,0.6033,170,-9.3994,276.7334,5.7373,150,0.8534,0.4062,21.2705,-61.9211,32,0.7604,7550,4.0073,-127.176
rg,1625051494188459893,1,-0.9534,-1.0718,0.5725,171,-25.6348,89.4165,-6.2866,150,0.8614,0.4142,23.2959,-64.2768,32,0.7624,7667,4.0073,-130.7591
rg,1625051494188478448,1,-0.4861,-0.813,0.5466,172,-30.2734,-31.5552,1.6479,150,0.8504,0.4222,22.0651,-64.076,32,0.7654,7650,4.0073,-125.4404
rg,1625051494188495818,1,-0.1531,-0.8552,0.6453,173,-88.9282,-190.1245,32.4097,150,0.8044,0.4262,19.4236,-64.3403,32,0.7634,7731,4.0073,-117.3392
rg,1625051494188513355,1,0.3655,-1.2153,0.6736,174,-141.7236,-266.7236,9.5215,150,0.7564,0.4252,14.1446,-66.8772,32,0.7594,7619,4.0073,-106.9833
rg,1625051494188550206,1,0.4058,-1.3528,0.4609,175,-133.7891,-252.5024,-6.2256,150,0.7204,0.4112,9.3578,-69.4528,32,0.7524,8847,4.0073,-98.166
rg,1625051494188572872,1,0.4102,-1.3254,0.2434,176,-71.4111,-213.501,3.7231,150,0.7003,0.3632,5.6821,-71.601,32,0.7384,8301,4.0073,-90.0516
rg,1625051494188592909,1,0.4429,-1.1169,0.3462,177,-33.2642,-140.7471,13.1836,150,0.7053,0.3342,3.4588,-72.5096,32,0.7384,8257,4.0073,-84.5153
rg,1625051494188612871,1,0.3223,-1.0195,0.2734,178,81.0547,-33.9355,20.874,150,0.7063,0.3252,3.0134,-69.2658,32,0.7364,8464,4.0073,-82.9887
rg,1625051494188631797,1,0.3677,-0.8696,0.1587,179,88.501,-40.8325,37.1094,150,0.7073,0.3202,2.0142,-66.336,32,0.7324,8544,4.0073,-81.3372
rg,1625051494188651555,1,0.1973,-0.7686,0.1147,180,89.5386,-19.4702,-21.4844,150,0.7073,0.3202,0.2784,-63.3175,32,0.7304,7949,4.0073,-81.0332
rg,1625051494188670685,1,0.0193,-0.4675,0.166,181,99.3652,20.6909,-27.9541,150,0.7103,0.3222,-0.409,-59.6175,32,0.7274,8504,4.0073,-82.2968
rg,1625051494188688055,1,-0.0925,-0.2537,0.1538,182,80.6885,63.8428,-6.0425,150,0.7123,0.3282,1.419,-56.3718,32,0.7264,8500,4.0073,-84.5709
rg,1625051494188707851,1,-0.1091,-0.2207,0.168,183,52.9175,61.3403,2.2583,150,0.7143,0.3352,3.5378,-54.1482,32,0.7264,8179,4.0073,-86.5211
rg,1625051494188727406,1,-0.0459,-0.4185,0.3943,184,-27.4048,26.7944,10.2539,150,0.7163,0.3412,4.5297,-54.9804,32,0.7274,8637,4.0073,-87.1419
rg,1625051494188744924,1,0.2258,-1.0283,0.978,185,-79.5288,41.0156,30.7007,150,0.7224,0.3502,5.9202,-57.8694,32,0.7324,8241,4.0073,-87.7981
rg,1625051494188762405,1,0.3174,-1.4492,0.9114,186,-15.8691,70.1904,39.2456,150,0.7334,0.3592,8.0743,-58.6807,32,0.7424,8428,4.0073,-89.3761
rg,1625051494188779219,1,0.3474,-1.427,0.7983,187,32.8369,66.5283,28.5034,150,0.7564,0.3702,9.6528,-57.6998,32,0.7514,8119,4.0073,-91.0823
rg,1625051494188797941,1,0.3706,-1.0967,0.6323,188,102.356,68.0542,15.625,150,0.7864,0.3832,10.6902,-54.0408,32,0.7574,8226,4.0073,-93.0684
rg,1625051494188816422,1,0.2056,-0.6753,0.3645,189,109.0088,86.1206,9.5215,150,0.8154,0.3932,12.1041,-50.4847,32,0.7604,8090,4.0073,-95.7014
rg,1625051494188934716,1,0.0774,-0.5542,0.2988,190,86.6089,104.5532,9.7656,150,0.8434,0.4012,14.8213,-48.0407,32,0.7624,8313,4.0073,-98.7768
rg,1625051494188972456,1,-0.1853,-0.5786,0.4304,191,15.9302,129.3945,17.7612,150,0.8664,0.4092,18.7501,-48.631,32,0.7624,8166,4.0073,-102.3828
rg,1625051494188991252,1,-0.4934,-0.9121,0.6611,192,-31.6162,56.6406,13.4277,150,0.8784,0.4192,20.8075,-50.5872,32,0.7644,8300,4.0073,-103.9193
rg,1625051494531397951,1,0.1941,-0.998,0.749,193,-100.0977,-207.7637,41.748,150,0.7764,0.4332,15.8432,-52.1786,32,0.7664,24045,4.0073,-96.0099
rg,1625051494531457376,1,0.5125,-1.2192,0.637,194,-110.2905,-233.0322,22.4609,150,0.7314,0.4222,9.7512,-55.1264,32,0.7624,8543,4.0073,-87.8541
rg,1625051494531479097,1,0.6211,-1.1846,0.4338,195,-80.8105,-190.7349,36.7432,150,0.7013,0.3942,5.4724,-57.8965,32,0.7484,8368,4.0073,-80.6847
rg,1625051494531499986,1,0.6804,-1.2002,0.3171,196,-63.6597,-145.2026,46.0205,150,0.6913,0.3522,2.8354,-60.5835,32,0.7344,7844,4.0073,-74.7711
rg,1625051494531519060,1,0.7627,-1.1174,0.5613,197,-32.4707,-18.9819,54.3213,150,0.6993,0.3352,3.097,-61.8716,32,0.7374,7976,4.0073,-73.0556
rg,1625051494531537578,1,0.5095,-1.1648,0.2244,198,85.7544,87.7686,52.7954,150,0.6983,0.3302,5.6417,-59.2124,33,0.7334,8275,4.0073,-75.1485
rg,1625051494531556022,1,0.488,-1.0486,0.2769,199,83.5571,85.2051,30.8838,150,0.7003,0.3242,7.7781,-56.8905,33,0.7314,7979,4.0073,-77.4998
rg,1625051494531573632,1,-0.0959,-0.772,0.1377,200,114.8071,144.9585,-66.4673,150,0.7013,0.3222,8.8433,-54.1071,33,0.7304,8194,4.0073,-83.964
rg,1625051494531590891,1,-0.5139,-0.426,0.1697,201,135.9863,185.1807,-46.7529,150,0.7033,0.3222,13.3121,-50.4185,33,0.7294,8435,4.0073,-91.0927
rg,1625051494531608650,1,-0.7249,0.032,0.2053,202,122.3755,95.0317,-5.0049,150,0.7083,0.3312,16.273,-46.8529,32,0.7294,11815,4.0073,-92.1334
rg,1625051494531628835,1,-0.7256,0.0693,0.2444,203,18.5547,-35.4614,13.2446,150,0.7113,0.3392,16.0649,-47.585,32,0.7324,7833,4.0073,-87.6107
rg,1625051494531646909,1,-0.3999,-0.4219,0.269,204,-125.3662,-166.1377,59.5703,150,0.7143,0.3442,14.4433,-51.1024,32,0.7354,7887,4.0073,-80.8931
rg,1625051494531664501,1,0.7114,-1.4651,1.7827,205,-206.9702,-214.0503,79.4678,150,0.7214,0.3522,10.8553,-56.9201,32,0.7414,7747,4.0073,-71.7404
rg,1625051494531682019,1,0.9016,-1.9426,1.7805,206,-131.897,-121.2158,70.8618,150,0.7344,0.3592,9.7714,-61.6047,32,0.7504,8012,4.0073,-66.0899
rg,1625051494531699278,1,0.7744,-1.7109,0.4644,207,56.7627,-82.2754,36.6821,150,0.7584,0.3682,8.1958,-59.2411,32,0.7574,8573,4.0073,-62.5694
rg,1625051494531716296,1,0.7356,-1.0359,0.4521,208,118.2251,23.0713,-16.0522,150,0.7854,0.3792,6.6632,-54.9072,32,0.7634,8100,4.0073,-63.7961
rg,1625051494531733388,1,0.4226,-0.4668,0.2532,209,114.9292,156.7993,0.7324,150,0.8154,0.3892,8.8202,-51.207,32,0.7674,8575,4.0073,-68.9202
rg,1625051494531750481,1,0.2292,-0.3149,0.2139,210,71.2891,201.8433,2.9907,150,0.8414,0.3952,12.5621,-49.6797,32,0.7694,8436,4.0073,-75.2278
rg,1625051494531767036,1,-0.2036,-0.5527,0.3408,211,-39.0625,230.6519,-4.7607,150,0.8574,0.4042,18.2879,-53.6038,32,0.7714,8030,4.0073,-82.9297
rg,1625051494531784572,1,-0.7058,-1.1567,0.8235,212,-89.9658,115.6616,-1.9531,150,0.8544,0.4122,21.0943,-58.6059,32,0.7724,8552,4.0073,-87.0809
rg,1625051494531801405,1,-0.4541,-1.1655,0.5715,213,-77.6978,-97.6562,12.9395,150,0.8104,0.4212,19.5064,-60.558,32,0.7744,10686,4.0073,-83.276
rg,1625051494531818053,1,0.1416,-1.0969,0.7432,214,-96.9238,-215.9424,12.5732,150,0.7584,0.4252,14.8469,-61.8098,32,0.7714,8554,4.0073,-75.0323
rg,1625051494531834942,1,0.2747,-1.1597,0.6448,215,-89.6606,-228.1494,5.7373,150,0.7174,0.4152,9.8947,-63.3198,32,0.7634,8658,4.0073,-66.8063
rg,1625051494531852367,1,0.374,-1.2644,0.3523,216,-69.3359,-219.2383,17.1509,150,0.6903,0.3802,5.7687,-65.3689,32,0.7434,8816,4.0073,-58.5959
rg,1625051494531869348,1,0.4556,-1.2495,0.3455,217,-60.791,-165.2222,15.1978,150,0.6953,0.3472,2.7549,-67.6493,32,0.7414,8396,4.0073,-52.2959
rg,1625051494531899348,1,0.2515,-1.239,0.3552,218,84.5337,-29.6631,-0.6104,150,0.6953,0.3372,1.7158,-64.4633,32,0.7374,8275,4.0073,-51.2476
rg,1625051494531918514,1,0.2432,-0.8638,0.1919,219,105.7129,-27.2827,28.4424,150,0.6973,0.3262,0.9277,-60.4478,32,0.7344,8164,4.0073,-50.2633
rg,1625051494531935384,1,0.0166,-0.6777,0.0996,220,131.958,-3.9062,-39.2456,150,0.6983,0.3202,-0.574,-55.9926,32,0.7314,8093,4.0073,-50.9695
rg,1625051494531952032,1,-0.3032,-0.3103,0.0857,221,150.3296,12.2681,-56.8848,150,0.6993,0.3212,-0.5324,-50.4979,32,0.7294,8269,4.0073,-52.6326
rg,1625051494531970087,1,-0.3208,-0.033,0.1033,222,130.9204,-27.5879,-10.498,150,0.7013,0.3262,0.5704,-44.8802,32,0.7284,8243,4.0073,-51.9893
rg,1625051494531987809,1,-0.2817,0.0193,0.0847,223,86.853,-41.9312,15.1978,150,0.7043,0.3312,1.8018,-40.8122,32,0.7284,8538,4.0073,-50.3184
rg,1625051494532005846,1,-0.0269,-0.1389,0.1182,224,-61.2793,-120.0562,56.7017,150,0.7073,0.3402,0.043,-43.5115,32,0.7314,8569,4.0073,-45.4297
rg,1625051494874389082,1,0.7417,-1.6511,0.3418,225,7.0801,70.6787,47.5464,150,0.7304,0.3612,2.4694,-44.4214,32,0.7474,25831,4.0073,-46.0271
rg,1625051494874424563,1,0.5381,-1.0872,0.5823,226,61.8286,161.1938,-16.4185,150,0.7514,0.3732,5.6608,-42.9203,32,0.7554,8513,4.0073,-51.0133
rg,1625051494874467266,1,0.386,-0.8313,0.5842,227,80.2612,217.1631,-3.1738,150,0.7744,0.3852,10.9868,-41.025,32,0.7624,8181,4.0073,-57.0438
rg,1625051494874487969,1,0.0342,-0.5349,0.3247,228,61.3403,260.2539,14.6484,150,0.8004,0.3932,18.6406,-40.9757,32,0.7674,7926,4.0073,-63.7849
rg,1625051494874506932,1,-0.4058,-0.7729,0.4937,229,-10.9253,225.4639,0.3662,150,0.8234,0.4002,25.45,-44.5136,32,0.7704,7895,4.0073,-70.5876
rg,1625051494874525913,1,-0.6467,-1.0071,0.7542,230,-31.4941,165.8936,-1.5869,150,0.8434,0.4092,27.7453,-47.2011,33,0.7714,8762,4.0073,-73.4064
rg,1625051494874544357,1,-0.7231,-1.167,0.5112,231,-5.6763,-22.7051,2.7466,150,0.8544,0.4182,27.3318,-47.7587,33,0.7734,8245,4.0073,-72.9032
rg,1625051494874572523,1,-0.177,-0.8301,0.5691,232,-7.5684,-161.8042,25.1465,150,0.8484,0.4272,22.9946,-45.8455,33,0.7764,9101,4.0073,-67.0856
rg,1625051494875284711,1,0.5632,-1.1663,0.6387,233,-94.7876,-249.4507,28.6255,150,0.7704,0.4362,15.4282,-47.4096,33,0.7734,14598,4.0073,-58.7986
rg,1625051494875308285,1,0.5723,-1.2908,0.439,234,-74.0967,-206.543,-1.0986,150,0.7254,0.4272,8.6157,-49.8944,33,0.7674,9640,4.0073,-52.6945
rg,1625051494875332544,1,0.6094,-1.2756,0.2065,235,-44.3726,-169.3115,14.1602,150,0.6973,0.3922,5.4699,-51.7284,33,0.7514,7870,4.0073,-48.4482
rg,1625051494875352969,1,0.5471,-1.1685,0.2202,236,-36.8652,-53.7109,40.3442,150,0.6943,0.3512,4.3444,-53.9171,33,0.7404,7827,4.0073,-45.825
rg,1625051494875373302,1,0.4417,-0.8813,0.4551,237,59.8145,47.4243,24.5361,150,0.6983,0.3382,5.1849,-51.9154,32,0.7404,7924,4.0073,-46.8002
rg,1625051494875392765,1,0.2949,-0.6919,0.1877,238,117.7368,83.252,28.9307,150,0.6983,0.3272,7.2266,-48.3585,32,0.7364,7786,4.0073,-47.6285
rg,1625051494875413042,1,0.1863,-0.6116,0.1304,239,91.6138,72.6318,20.9961,150,0.6993,0.3192,8.9253,-46.0036,32,0.7324,7837,4.0073,-49.3674
rg,1625051494875431949,1,-0.2385,-0.511,0.1204,240,83.7402,112.4268,-32.4707,150,0.6993,0.3172,11.8025,-44.4777,32,0.7294,9048,4.0073,-53.7013
rg,1625051494875450430,1,-0.3689,-0.2769,0.2556,241,74.0356,85.083,6.5918,150,0.7033,0.3202,15.6638,-42.1144,32,0.7274,8280,4.0073,-55.8972
rg,1625051494875469041,1,-0.343,-0.2024,0.3245,242,50.354,54.1382,24.9634,150,0.7053,0.3242,18.664,-39.7323,32,0.7264,8223,4.0073,-56.4239
rg,1625051494875487281,1,-0.2217,-0.2747,0.4519,243,-31.6162,-37.0483,26.5503,150,0.7083,0.3292,18.3789,-40.067,32,0.7274,8545,4.0073,-54.4527
rg,1625051494875505522,1,0.0728,-0.7893,0.824,244,-111.084,-76.1108,32.6538,150,0.7103,0.3392,16.1436,-43.6971,32,0.7294,8469,4.0073,-51.3242
rg,1625051494875523725,1,0.3135,-1.4424,1.1033,245,-93.8721,-19.165,42.9077,150,0.7143,0.3462,15.8406,-47.2808,32,0.7354,8337,4.0073,-49.5743
rg,1625051494875542058,1,0.2861,-1.5413,0.9307,246,-50.7202,-5.7373,36.1938,150,0.7264,0.3582,15.1314,-48.1383,32,0.7444,8648,4.0073,-49.0142
rg,1625051494875560391,1,0.2422,-1.3376,0.7791,247,18.0054,-9.2773,-2.1362,150,0.7484,0.3712,13.9072,-47.8209,32,0.7534,9037,4.0073,-48.9127
rg,1625051494875579094,1,0.2239,-0.9526,0.5684,248,78.9795,6.958,5.5542,150,0.7764,0.3832,13.2981,-45.1281,32,0.7604,8395,4.0073,-49.0963
rg,1625051494875596631,1,0.1865,-0.7024,0.3196,249,67.2607,15.0757,9.4604,150,0.8054,0.3912,12.9983,-43.2638,32,0.7654,9846,4.0073,-49.4512
rg,1625051494875613927,1,0.1897,-0.7207,0.313,250,19.8975,31.6772,12.085,150,0.8324,0.4022,13.2687,-43.4764,32,0.7684,8080,4.0073,-50.1881
rg,1625051494875632204,1,0.1519,-0.7905,0.3774,251,-0.6104,46.5088,12.085,150,0.8514,0.4112,14.4567,-45.2564,32,0.7704,8243,4.0073,-51.7437
rg,1625051494875674185,1,-0.0481,-0.9995,0.5808,252,-29.3579,52.4902,5.127,150,0.8574,0.4202,15.5832,-47.3764,33,0.7734,8163,4.0073,-53.3118
rg,1625051494875693462,1,-0.146,-1.0396,0.5554,253,-42.2363,-11.7798,10.9253,150,0.8434,0.4272,15.2757,-49.4572,33,0.7724,8210,4.0073,-52.7955
rg,1625051494875723461,1,0.168,-1.1255,0.6301,254,-76.5991,-90.21,12.3291,150,0.7914,0.4362,12.5259,-52.1814,33,0.7734,8371,4.0073,-49.6886
rg,1625051494875741517,1,0.2271,-1.1997,0.574,255,-86.0596,-109.314,4.8828,150,0.7404,0.4322,9.269,-55.381,33,0.7674,8258,4.0073,-46.0573
rg,1625051494875759220,1,0.2336,-1.269,0.4683,256,-70.0073,-130.188,1.3428,150,0.7043,0.4132,5.75,-58.1426,32,0.7564,8395,4.0073,-41.7051
rg,1625051495222770208,1,0.0894,-0.8853,0.2,257,140.1978,-28.6865,17.0898,150,0.6943,0.3412,5.2382,-53.1555,32,0.7404,27006,4.0073,-40.4611
rg,1625051495222805707,1,0.2136,-0.5178,0.136,258,142.0898,-37.4146,37.9639,150,0.6963,0.3312,4.4551,-48.0991,32,0.7374,8661,4.0073,-38.4564
rg,1625051495222826114,1,0.0488,-0.4104,0.0825,259,135.9863,-5.6763,6.4087,150,0.6963,0.3322,5.0216,-44.0383,32,0.7344,8519,4.0073,-38.9878
rg,1625051495222845558,1,-0.1113,-0.2122,0.1487,260,96.4966,24.8413,8.4839,150,0.6983,0.3332,6.6927,-40.618,32,0.7334,8232,4.0073,-39.4212
rg,1625051495222864224,1,-0.1179,-0.1787,0.2632,261,22.9492,30.5176,36.499,150,0.7013,0.3362,9.095,-39.4047,32,0.7344,8149,4.0073,-39.0525
rg,1625051495222882854,1,0.0535,-0.457,0.5876,262,-66.8335,-4.7607,34.729,150,0.7033,0.3412,9.3349,-41.8066,32,0.7344,8333,4.0073,-37.8392
rg,1625051495222900631,1,0.2554,-1.2737,0.9802,263,-82.1533,51.7578,35.0342,150,0.7083,0.3532,11.0774,-45.5636,32,0.7394,15795,4.0073,-38.3128
rg,1625051495222918668,1,0.1943,-1.3682,0.9116,264,-49.1943,60.3027,27.9541,150,0.7143,0.3572,12.8406,-48.154,32,0.7434,7908,4.0073,-39.4034
rg,1625051495222936205,1,0.1062,-1.2729,0.8955,265,-6.5308,48.3398,3.6621,150,0.7264,0.3652,13.5683,-48.9924,32,0.7514,7799,4.0073,-40.852
rg,1625051495222953926,1,0.1086,-1.042,0.782,266,16.2354,44.7998,5.0659,150,0.7504,0.3752,14.3257,-47.628,32,0.7594,8114,4.0073,-41.7792
rg,1625051495222971704,1,0.1382,-0.9282,0.616,267,62.0728,33.2031,18.8599,150,0.7774,0.3892,14.8775,-45.8056,32,0.7654,7842,4.0073,-42.3978
rg,1625051495222990481,1,0.1848,-0.8135,0.3733,268,51.8188,21.9727,9.7656,150,0.8064,0.3952,14.7868,-44.5942,32,0.7694,8182,4.0073,-42.9706
rg,1625051495223008629,1,0.1011,-0.7788,0.3367,269,18.2495,47.1802,1.8921,150,0.8304,0.4012,15.3737,-45.076,33,0.7724,7997,4.0073,-44.5181
rg,1625051495223026592,1,-0.0864,-0.8411,0.5195,270,-0.7324,57.1899,3.54,150,0.8464,0.4112,16.5487,-46.7275,33,0.7734,8615,4.0073,-46.1745
rg,1625051495223080831,1,-0.1826,-0.9263,0.5742,271,-30.6396,29.1138,3.7231,150,0.8494,0.4172,17.1661,-48.6344,33,0.7754,8494,4.0073,-47.0985
rg,1625051495223102609,1,-0.0559,-1.0269,0.563,272,-62.1338,-71.7773,8.2397,150,0.8194,0.4262,15.0207,-50.9206,33,0.7764,8144,4.0073,-44.7317
rg,1625051495223120645,1,0.2432,-1.1719,0.6436,273,-91.7969,-131.7139,-1.5869,150,0.7684,0.4312,10.8216,-54.0262,32,0.7734,8620,4.0073,-40.5614
rg,1625051495223138867,1,0.2246,-1.1855,0.4722,274,-89.0503,-141.1133,-10.9863,150,0.7284,0.4282,6.3414,-56.8458,32,0.7664,8404,4.0073,-35.9422
rg,1625051495223157033,1,0.2485,-1.1775,0.373,275,-50.293,-148.9868,0.3662,150,0.7003,0.4002,2.5344,-59.0458,32,0.7524,8406,4.0073,-30.9205
rg,1625051495223174866,1,0.3491,-1.1748,0.2661,276,-46.0205,-115.2954,19.2261,150,0.6953,0.3582,0.209,-61.4469,32,0.7444,8662,4.0073,-26.5498
rg,1625051495223192792,1,0.3943,-1.1304,0.4976,277,49.2554,-39.7339,13.3057,150,0.6973,0.3412,-0.8007,-59.6569,32,0.7434,8304,4.0073,-24.9172
rg,1625051495223209940,1,0.3931,-0.9885,0.2104,278,101.3184,-9.8877,30.8838,150,0.6993,0.3242,-0.5388,-55.7482,32,0.7434,8206,4.0073,-23.3179
rg,1625051495223227643,1,0.2422,-0.8125,0.1216,279,128.7231,-4.2114,6.958,150,0.7003,0.3182,-1.0368,-51.5511,32,0.7414,8263,4.0073,-23.0336
rg,1625051495223245995,1,-0.0803,-0.3845,0.1536,280,152.4048,32.6538,-31.5552,169,0.7023,0.3172,-0.6616,-46.0745,32,0.7394,9339,4.0007,-24.8103
rg,1625051495223263902,1,-0.1702,-0.0491,0.2324,281,133.3618,68.0542,3.6011,169,0.7043,0.3212,2.7505,-39.7477,33,0.7384,8223,4.0007,-26.4943
rg,1625051495223281216,1,-0.1917,-0.0146,0.22,282,96.8018,69.6411,21.7896,169,0.7063,0.3262,6.5719,-37.1845,33,0.7394,8113,4.0007,-26.8504
rg,1625051495223298864,1,-0.2031,-0.116,0.2444,283,-30.0903,27.5269,26.001,169,0.7103,0.3342,9.2221,-37.9823,33,0.7404,8393,4.0007,-26.6611
rg,1625051495223316771,1,-0.0239,-0.6362,0.7834,284,-171.0205,-25.0244,22.9492,169,0.7123,0.3442,8.7682,-44.6157,32,0.7424,8193,4.0007,-25.2839
rg,1625051495223334234,1,0.3198,-1.5647,1.436,285,-147.2168,30.2734,41.3208,169,0.7174,0.3562,10.1186,-50.5446,32,0.7464,8788,4.0007,-25.047
rg,1625051495223352104,1,0.1951,-1.6211,0.8162,286,-70.5566,45.2271,46.3867,169,0.7314,0.3662,10.6972,-51.3667,32,0.7554,8461,4.0007,-24.7216
rg,1625051495223370196,1,0.231,-1.439,0.8328,287,24.1089,-7.6904,2.2583,169,0.7564,0.3782,9.8542,-50.6809,32,0.7634,8847,4.0007,-24.4883
rg,1625051495223387103,1,0.2246,-0.9712,0.7073,288,84.8389,7.5684,7.2021,169,0.7854,0.3882,9.476,-47.4237,33,0.7704,8650,4.0007,-24.5751
rg,1625051495567065025,1,0.0513,-0.6506,0.2771,289,-2.6855,39.3677,6.2866,169,0.8484,0.4122,10.194,-48.4617,33,0.7774,25569,4.0007,-25.7162
rg,1625051495567114931,1,-0.0547,-0.9099,0.5393,290,-54.0161,18.3105,14.4043,169,0.8504,0.4222,10.8202,-51.0752,33,0.7804,8883,4.0007,-25.9787
rg,1625051495567135709,1,-0.0828,-1.0229,0.5327,291,-73.6084,-23.6206,17.7002,169,0.8174,0.4302,10.5515,-54.2329,33,0.7804,7918,4.0007,-24.855
rg,1625051495567155079,1,0.2173,-1.2241,0.6697,292,-105.896,-113.8306,19.5312,169,0.7644,0.4342,7.929,-58.0363,33,0.7764,7941,4.0007,-20.6101
rg,1625051495567173949,1,0.3093,-1.1965,0.5378,293,-86.1816,-154.7852,8.9722,169,0.7214,0.4272,4.3145,-61.1712,32,0.7664,8160,4.0007,-15.0776
rg,1625051495567192615,1,0.4807,-1.0837,0.2842,294,-46.6309,-112.3047,42.7246,169,0.6953,0.3622,2.7019,-63.2366,32,0.7454,16632,4.0007,-10.3222
rg,1625051495567211226,1,0.6711,-1.0134,0.6182,295,-23.8037,-68.4204,51.2085,169,0.6983,0.3502,2.1156,-63.8742,32,0.7464,7655,4.0007,-6.9483
rg,1625051495567230188,1,0.6033,-1.2234,0.2981,296,84.4727,33.2031,75.9888,169,0.6973,0.3442,4.3587,-60.9203,32,0.7444,7729,4.0007,-6.7732
rg,1625051495567266836,1,0.3684,-0.99,0.1833,297,118.8965,78.186,6.958,169,0.6973,0.3382,5.2631,-57.063,32,0.7414,7679,4.0007,-9.4084
rg,1625051495567286687,1,0.1184,-0.8022,0.176,298,139.4043,103.9429,-34.729,169,0.6983,0.3382,5.9889,-52.698,32,0.7384,7751,4.0007,-13.72
rg,1625051495567322779,1,-0.2671,-0.4124,0.2305,299,135.9863,181.0913,-33.9355,169,0.6993,0.3392,10.412,-48.4766,32,0.7344,8747,4.0007,-20.2283
rg,1625051495567344353,1,-0.4731,-0.2356,0.269,300,126.1597,149.7192,2.1973,169,0.7033,0.3412,16.1042,-44.2513,32,0.7364,7972,4.0007,-24.5226
rg,1625051495567364000,1,-0.5415,-0.157,0.2368,301,103.2104,91.2476,4.9438,169,0.7063,0.3472,20.544,-40.6675,33,0.7374,8382,4.0007,-26.8511
rg,1625051495567382815,1,-0.5522,-0.1255,0.3289,302,5.7373,-15.9912,16.9678,169,0.7083,0.3552,21.8776,-39.6209,33,0.7384,9358,4.0007,-25.6757
rg,1625051495567401314,1,-0.3599,-0.5222,0.5349,303,-110.4736,-96.4355,42.0532,169,0.7123,0.3622,20.2455,-42.7292,33,0.7414,8052,4.0007,-21.6633
rg,1625051495567420092,1,0.2373,-1.3323,1.3496,304,-145.3247,-107.2388,49.3774,169,0.7194,0.3692,17.576,-47.0639,33,0.7474,8609,4.0007,-16.9715
rg,1625051495567437684,1,0.3486,-1.6526,1.3882,305,-92.4072,-66.7725,48.1567,169,0.7344,0.3762,16.3585,-47.1228,32,0.7574,8316,4.0007,-14.2739
rg,1625051495567456017,1,0.3369,-1.5098,0.8193,306,52.9785,-78.7354,21.3013,169,0.7604,0.3902,13.7686,-44.8085,32,0.7654,8519,4.0007,-11.4965
rg,1625051495567476387,1,0.4851,-1.0544,0.6433,307,107.0557,-77.0264,-5.9204,169,0.7944,0.3992,10.0705,-40.6496,32,0.7704,8400,4.0007,-9.7064
rg,1625051495567495072,1,0.4426,-0.6995,0.3147,308,105.0415,-9.8877,-4.8828,169,0.8274,0.4072,8.2178,-37.2903,32,0.7734,8340,4.0007,-9.801
rg,1625051495567513016,1,0.3545,-0.5698,0.1809,309,79.2236,31.25,-5.4321,169,0.8574,0.4132,7.8998,-35.497,32,0.7744,8301,4.0007,-10.9277
rg,1625051495567531571,1,0.1318,-0.4976,0.2263,310,1.77,108.0933,-5.0659,169,0.8804,0.4252,10.4564,-36.9766,32,0.7744,9242,4.0007,-13.8333
rg,1625051495567561885,1,-0.1147,-0.7136,0.4905,311,-65.6738,119.6289,3.54,169,0.8834,0.4312,14.1425,-40.9495,32,0.7754,8113,4.0007,-16.9347
rg,1625051495567585755,1,-0.2451,-1.0178,0.6345,312,-108.1543,24.231,21.2402,169,0.8484,0.4382,15.3356,-45.9403,32,0.7754,8191,4.0007,-17.1496
rg,1625051495567605107,1,0.0496,-1.2573,0.7449,313,-124.2065,-93.9941,7.6904,169,0.7804,0.4412,12.4181,-50.674,32,0.7734,10202,4.0007,-14.1602
rg,1625051495567622421,1,0.1316,-1.1704,0.5686,314,-108.1543,-127.0752,-0.5493,169,0.7344,0.4352,8.3325,-53.4137,32,0.7664,8360,4.0007,-9.5808
rg,1625051495567641273,1,0.2063,-1.0657,0.4871,315,-54.3823,-149.4751,23.8037,169,0.7013,0.4192,4.9441,-55.4089,32,0.7534,8637,4.0007,-4.1841
rg,1625051495567659235,1,0.4082,-1.0581,0.3779,316,-60.73,-131.5918,44.7388,169,0.6933,0.3772,2.6205,-58.0152,33,0.7434,8682,4.0007,1.1793
rg,1625051495567676902,1,0.5239,-1.2073,0.7644,317,-10.7422,-42.7856,29.0527,169,0.6973,0.3552,1.8329,-58.3386,33,0.7454,8655,4.0007,3.2484
rg,1625051495567695938,1,0.5034,-1.4578,0.4768,318,63.2324,10.8032,63.0493,169,0.6983,0.3442,3.4091,-56.2632,33,0.7444,8599,4.0007,4.209
rg,1625051495567714679,1,0.1101,-1.1282,0.2676,319,86.1816,27.5879,25.3296,169,0.6993,0.3342,3.084,-51.9251,33,0.7404,9189,4.0007,2.1263
rg,1625051495567732993,1,-0.1016,-0.8159,0.2588,320,166.0156,40.2222,-56.9458,169,0.7013,0.3302,3.3218,-45.7968,33,0.7424,9019,4.0007,-0.5496
rg,1625051495910933165,1,-0.4602,0.1394,0.0559,321,103.5767,-7.1411,11.0474,169,0.7073,0.3372,5.5808,-40.9744,33,0.7404,25714,4.0007,0.1033
rg,1625051495910993775,1,-0.3247,-0.0168,0.0405,322,-62.5,-99.9146,37.8418,169,0.7113,0.3482,5.8455,-42.9927,33,0.7424,8919,4.0007,3.8985
rg,1625051495911015071,1,0.0046,-0.5278,0.4839,323,-153.4424,-138.3057,54.1382,169,0.7163,0.3582,2.9428,-52.0009,33,0.7454,7867,4.0007,10.7407
rg,1625051495911034922,1,0.8062,-1.3027,1.7344,324,-274.9023,-172.3633,70.0073,169,0.7374,0.3672,0.6879,-62.1559,33,0.7604,8853,4.0007,18.1216
rg,1625051495911053866,1,0.5005,-1.948,0.3994,325,46.4478,-10.0098,42.2974,169,0.7644,0.3892,1.4024,-60.8653,33,0.7684,14487,4.0007,19.2617
rg,1625051495911072311,1,0.5132,-1.1438,0.5068,326,133.1787,11.7188,-22.0947,169,0.7924,0.3962,-0.0141,-55.7414,33,0.7734,7646,4.0007,18.3527
rg,1625051495911090014,1,0.4241,-0.7395,0.4792,327,143.3105,67.9321,-9.6436,169,0.8194,0.4032,0.324,-50.0673,33,0.7774,7866,4.0007,15.9008
rg,1625051495911107180,1,0.1707,-0.2158,0.2192,328,106.2622,137.8784,21.9116,169,0.8454,0.4142,3.5328,-45.7468,33,0.7784,7502,4.0007,12.3441
rg,1625051495911124495,1,-0.1111,-0.4004,0.134,329,42.9077,152.3438,18.0664,169,0.8674,0.4222,8.2127,-47.7655,32,0.7794,7540,4.0007,8.2301
rg,1625051495911141902,1,-0.2087,-0.6123,0.4282,330,-72.0825,119.0796,5.6152,169,0.8734,0.4282,11.7363,-51.526,32,0.7804,9203,4.0007,4.6395
rg,1625051495911159624,1,-0.3611,-1.1655,0.8,331,-111.6333,13.7329,20.6909,169,0.8404,0.4372,12.8242,-56.1161,32,0.7824,7757,4.0007,4.6492
rg,1625051495911177401,1,0.0215,-1.2971,0.7722,332,-108.0322,-123.1689,21.5454,169,0.7824,0.4422,10.4169,-59.5844,32,0.7784,8322,4.0007,9.3651
rg,1625051495911194290,1,0.1909,-1.1794,0.6565,333,-100.5249,-164.3066,8.1177,169,0.7394,0.4372,6.1716,-61.5388,32,0.7724,8330,4.0007,15.8243
rg,1625051495911211030,1,0.2097,-1.0525,0.4763,334,-35.2173,-190.0635,15.4419,169,0.7083,0.4262,2.5415,-62.5579,32,0.7624,8117,4.0007,22.8337
rg,1625051495911227530,1,0.4497,-1.0188,0.2542,335,-33.02,-165.9546,55.2979,169,0.6873,0.3822,0.5818,-64.1597,32,0.7454,8417,4.0007,29.744
rg,1625051495911244622,1,0.7039,-1.0117,0.6929,336,-27.9541,-75.8057,48.1567,169,0.6953,0.3522,-0.1232,-64.9543,32,0.7474,8401,4.0007,33.3148
rg,1625051495911260659,1,0.5315,-1.2544,0.5728,337,37.7197,10.6812,37.1094,169,0.6943,0.3432,0.5827,-63.4526,32,0.7434,8086,4.0007,33.5582
rg,1625051495911277306,1,0.5254,-1.2468,0.3591,338,67.8101,51.4526,38.5132,169,0.6953,0.3342,2.0183,-61.1416,32,0.7414,8373,4.0007,32.4211
rg,1625051495911293825,1,-0.0037,-0.9192,0.2249,339,133.3618,84.1675,-67.5659,169,0.6953,0.3322,1.3702,-56.526,32,0.7404,8397,4.0007,28.1237
rg,1625051495911323231,1,-0.3594,-0.4329,0.3721,340,145.5688,127.3804,-62.0728,169,0.6973,0.3342,3.5334,-50.7084,32,0.7384,8628,4.0007,22.6227
rg,1625051495911341231,1,-0.4832,-0.283,0.3743,341,145.6299,130.7373,-38.0249,169,0.7003,0.3362,7.4152,-44.982,32,0.7384,8117,4.0007,17.8142
rg,1625051495911367860,1,-0.4927,-0.0669,0.1968,342,107.1167,55.8472,2.9907,169,0.7033,0.3402,11.0907,-40.5258,32,0.7394,8212,4.0007,16.4991
rg,1625051495911385064,1,-0.4705,-0.051,0.1567,343,-1.5869,-31.7993,7.4463,169,0.7063,0.3442,12.2828,-40.0724,32,0.7414,7971,4.0007,17.643
rg,1625051495911401971,1,-0.4114,-0.1353,0.2415,344,-77.8809,-67.8711,18.0054,169,0.7093,0.3522,11.5013,-42.6269,32,0.7444,8166,4.0007,20.0288
rg,1625051495911418396,1,-0.0559,-0.6184,0.7739,345,-194.0918,-129.0283,55.4199,169,0.7143,0.3572,9.2055,-49.2351,32,0.7494,8043,4.0007,25.4076
rg,1625051495911435303,1,0.6936,-1.7529,1.6221,346,-164.7949,-68.1152,71.6553,169,0.7254,0.3642,8.8328,-55.0854,32,0.7574,8290,4.0007,29.4197
rg,1625051495911452896,1,0.5557,-1.8379,1.0449,347,-70.4346,-25.6958,67.3828,169,0.7434,0.3752,7.9631,-54.8521,32,0.7654,8092,4.0007,31.9511
rg,1625051495911469469,1,0.5928,-1.4519,0.5925,348,52.002,-60.4248,-0.7935,169,0.7734,0.3892,5.2948,-52.7911,32,0.7724,9597,4.0007,33.8407
rg,1625051495911486136,1,0.5181,-0.8469,0.5088,349,89.6606,31.25,-8.7891,169,0.8034,0.3972,4.5657,-49.5279,32,0.7774,8443,4.0007,32.5832
rg,1625051495911502635,1,0.2781,-0.4878,0.2092,350,64.5752,110.0464,7.6904,169,0.8284,0.4022,6.4813,-47.8431,32,0.7804,8387,4.0007,29.3909
rg,1625051495911520265,1,0.0105,-0.4888,0.251,351,-18.9819,145.9351,5.6763,169,0.8474,0.4132,10.1758,-49.8042,32,0.7834,8681,4.0007,25.0333
rg,1625051495911537635,1,-0.2168,-0.9043,0.6919,352,-58.8989,141.3574,9.7046,169,0.8504,0.4182,13.4623,-54.0488,32,0.7864,8442,4.0007,21.785
rg,1625051496256655939,1,0.1116,-1.2808,0.7109,353,-102.8442,-122.8638,10.9863,169,0.7384,0.4292,10.3901,-57.5038,32,0.7804,24864,4.0007,26.1489
rg,1625051496256695623,1,0.1555,-1.0896,0.4761,354,-54.6265,-158.3252,12.9395,169,0.7073,0.4182,6.8409,-59.1644,32,0.7664,8888,4.0007,31.8222
rg,1625051496256716160,1,0.3284,-1.0393,0.2629,355,-23.6816,-156.8604,30.0293,169,0.6953,0.3792,4.6677,-60.0614,32,0.7554,7883,4.0007,37.2448
rg,1625051496256737585,1,0.5059,-1.1387,0.5957,356,19.8364,-44.4336,41.3818,169,0.6983,0.3522,4.2602,-59.5282,32,0.7544,14298,4.0007,39.5753
rg,1625051496256756418,1,0.53,-1.2952,0.345,357,68.4814,4.7607,51.0864,169,0.6993,0.3452,5.1128,-57.2788,32,0.7524,8002,4.0007,40.4172
rg,1625051496256774659,1,0.136,-1.0269,0.1895,358,126.6479,39.978,-39.7949,169,0.7003,0.3392,4.2353,-53.2535,32,0.7504,9433,4.0007,38.0975
rg,1625051496256792807,1,-0.2454,-0.4646,0.218,359,161.499,85.144,-64.5752,169,0.7013,0.3382,5.2304,-47.5675,32,0.7494,7816,4.0007,33.8335
rg,1625051496256838343,1,-0.4019,-0.2407,0.2246,360,173.0347,116.9434,-50.9033,169,0.7033,0.3382,8.7383,-41.2194,32,0.7464,7733,4.0007,29.1761
rg,1625051496256859176,1,-0.5142,0.0669,0.1287,361,143.4937,101.8066,12.0239,169,0.7073,0.3422,14.3223,-35.3264,32,0.7484,9304,4.0007,27.1919
rg,1625051496256876787,1,-0.5591,0.1279,0.0591,362,12.3901,-4.2114,25.5127,169,0.7113,0.3502,16.9168,-33.9914,32,0.7494,8384,4.0007,28.3338
rg,1625051496256894971,1,-0.3713,-0.3381,0.2314,363,-87.1582,-74.9512,27.8931,169,0.7153,0.3592,14.7678,-40.4912,32,0.7534,7939,4.0007,32.6989
rg,1625051496256912971,1,-0.0796,-0.7183,0.7336,364,-250.9766,-174.0112,56.8237,169,0.7214,0.3692,11.066,-49.1425,32,0.7574,8461,4.0007,39.3517
rg,1625051496256930582,1,0.8779,-2.2009,1.991,365,-177.7954,-58.5327,67.8711,169,0.7334,0.3792,10.7371,-55.4709,33,0.7674,8211,4.0007,42.9879
rg,1625051496256947859,1,0.4751,-1.8826,0.3401,366,74.0356,-67.1387,34.79,169,0.7584,0.3892,9.3939,-52.8945,33,0.7754,8240,4.0007,45.8328
rg,1625051496256965266,1,0.5049,-1.4485,0.3755,367,118.5913,-73.7305,-9.7656,169,0.7864,0.3982,5.9773,-48.3003,33,0.7804,8421,4.0007,47.7644
rg,1625051496256982748,1,0.4119,-0.5791,0.4163,368,140.686,35.2783,-8.0566,169,0.8124,0.4032,5.3984,-43.0162,33,0.7844,8566,4.0007,46.4374
rg,1625051496257000599,1,0.1401,-0.1841,0.146,369,73.8525,125.1221,19.6533,169,0.8334,0.4122,8.2891,-40.6885,32,0.7864,8105,4.0007,43.5986
rg,1625051496257018358,1,-0.1062,-0.4985,0.238,370,-56.5796,124.2065,10.0708,169,0.8454,0.4242,12.3213,-44.4079,32,0.7884,10480,4.0007,40.3444
rg,1625051496257035543,1,-0.2454,-1.1196,0.8425,371,-134.1553,33.5083,11.7798,169,0.8354,0.4302,13.4729,-50.2419,32,0.7914,8384,4.0007,39.5917
rg,1625051496257052876,1,-0.2136,-1.3245,0.7107,372,-125.1831,-26.8555,17.0288,169,0.7894,0.4332,12.9016,-55.4457,32,0.7914,8045,4.0007,40.793
rg,1625051496257070301,1,0.0947,-1.2942,0.7085,373,-100.5249,-128.1738,2.2583,169,0.7414,0.4352,9.5713,-58.8113,32,0.7824,7952,4.0007,45.2023
rg,1625051496257088153,1,0.1479,-1.0474,0.4873,374,-63.1714,-170.8984,8.1177,169,0.7113,0.4212,5.7831,-60.7487,32,0.7694,8079,4.0007,51.2967
rg,1625051496257105801,1,0.2388,-0.9954,0.2703,375,-44.5557,-172.1191,21.6675,169,0.6943,0.3802,2.4337,-62.6498,32,0.7544,7969,4.0007,57.7351
rg,1625051496257123134,1,0.4517,-0.9165,0.4412,376,-40.7104,-134.5215,37.8418,169,0.7003,0.3482,0.3898,-64.1848,32,0.7564,8813,4.0007,63.2322
rg,1625051496257140041,1,0.5227,-1.2292,0.4102,377,38.147,-21.7285,49.0112,169,0.7003,0.3412,0.894,-62.9011,32,0.7544,8227,4.0007,64.8653
rg,1625051496257157855,1,0.4731,-1.2695,0.2458,378,54.7485,23.3154,14.7705,169,0.7013,0.3322,1.0354,-61.3059,32,0.7534,8720,4.0007,64.2916
rg,1625051496257175374,1,0.2229,-1.1377,0.2202,379,85.3271,46.1426,-37.1704,169,0.7023,0.3322,-0.1038,-57.4508,32,0.7514,8322,4.0007,60.93
rg,1625051496257192484,1,-0.1313,-0.6372,0.3176,380,124.8779,81.665,-68.1763,169,0.7043,0.3322,-0.064,-52.6849,32,0.7494,8480,4.0007,56.716
rg,1625051496257209317,1,-0.4346,-0.2673,0.2771,381,137.207,111.8774,-41.5649,169,0.7073,0.3362,3.2241,-47.1011,32,0.7504,8338,4.0007,52.3135
rg,1625051496257226558,1,-0.4951,-0.0918,0.1428,382,104.0039,46.875,-2.6855,169,0.7113,0.3402,6.5653,-42.8758,32,0.7514,8398,4.0007,50.9995
rg,1625051496257243465,1,-0.4426,-0.1572,0.1626,383,57.1899,-0.7935,5.3711,169,0.7153,0.3492,7.2332,-43.0025,32,0.7534,8608,4.0007,53.1175
rg,1625051496257279705,1,-0.3347,-0.3215,0.2761,384,-81.7261,-110.2295,36.377,169,0.7214,0.3582,6.2953,-45.9655,32,0.7584,8611,4.0007,57.2237
rg,1625051497828992975,1,0.5571,-1.676,0.4836,385,67.9321,-36.5601,46.4478,169,0.7724,0.3902,5.6838,-44.0213,32,0.7794,25118,4.0007,59.4539
rg,1625051497829034845,1,0.5823,-1.0769,0.4697,386,130.4321,-7.1411,-13.7329,169,0.8194,0.4022,3.9223,-39.6111,32,0.7854,9282,4.0007,59.11
rg,1625051497829055696,1,0.3672,-0.4644,0.3599,387,130.0049,101.2573,3.2349,169,0.8414,0.4102,7.5272,-36.5868,32,0.7874,9510,4.0007,55.7571
rg,1625051497829075529,1,0.01,-0.2551,0.2139,388,33.2642,167.9077,12.5122,169,0.8564,0.4202,12.8341,-36.4319,32,0.7884,7541,4.0007,52.0283
rg,1625051497829094547,1,-0.2844,-0.5876,0.4644,389,-75.3784,132.6294,11.4746,169,0.8604,0.4252,17.5602,-40.8119,32,0.7894,7711,4.0007,48.8229
rg,1625051497829113066,1,-0.3669,-0.8921,0.7817,390,-116.0889,67.8711,16.6016,169,0.8364,0.4332,19.9543,-46.2182,32,0.7914,7538,4.0007,47.2597
rg,1625051497829130713,1,-0.0645,-1.3892,0.8586,391,-142.8833,-93.2617,24.353,169,0.7754,0.4382,17.5623,-51.2247,32,0.7864,7725,4.0007,50.7604
rg,1625051497829173102,1,0.1963,-1.3762,0.7788,392,-105.0415,-175.5371,-2.8687,169,0.7244,0.4312,12.3185,-54.3023,32,0.7774,11391,4.0007,56.3866
rg,1625051497829193731,1,0.3154,-1.1416,0.3721,393,-24.5972,-189.8193,27.4658,179,0.6973,0.4062,7.8261,-54.7344,32,0.7614,8073,3.9974,63.1689
rg,1625051497829212582,1,0.4702,-1.0964,0.293,394,-22.8882,-175.9644,47.7905,179,0.6923,0.3682,4.0963,-55.4519,32,0.7514,7736,3.9974,70.0001
rg,1625051497829230934,1,0.7856,-1.01,0.6602,395,3.6621,-93.811,50.6592,179,0.6953,0.3532,2.265,-55.103,32,0.7514,8316,3.9974,74.2334
rg,1625051497829248563,1,0.6958,-1.2249,0.3188,396,75.4395,19.9585,63.2324,179,0.6943,0.3442,3.6063,-52.7321,32,0.7504,7874,3.9974,75.0171
rg,1625051497829265989,1,0.3027,-1.0325,0.1621,397,78.7964,50.1709,32.3486,179,0.6953,0.3362,4.1326,-49.8571,33,0.7474,7937,3.9974,71.5197
rg,1625051497829283229,1,0.0342,-0.8389,0.1887,398,125.9766,112.4268,-67.5049,179,0.6963,0.3362,4.8788,-46.2771,33,0.7474,8000,3.9974,66.2746
rg,1625051497829300451,1,-0.3801,-0.3398,0.2056,399,155.7007,171.3257,-56.2744,179,0.6983,0.3382,9.6657,-41.2311,33,0.7454,8036,3.9974,59.9072
rg,1625051497829318673,1,-0.5293,-0.0405,0.1958,400,160.8276,181.4575,-25.0854,179,0.7013,0.3422,16.7099,-36.1571,33,0.7444,7929,3.9974,56.4479
rg,1625051497829336265,1,-0.5586,0.0657,0.1729,401,87.3413,103.5156,24.9023,179,0.7033,0.3472,22.6037,-32.5502,33,0.7444,8164,3.9974,55.0879
rg,1625051497829354117,1,-0.5481,-0.1296,0.228,402,-75.6836,-33.2031,18.5547,179,0.7063,0.3552,23.4237,-34.943,33,0.7474,8088,3.9974,56.5533
rg,1625051497829371561,1,-0.2615,-0.6799,0.6587,403,-214.1724,-121.8872,38.208,179,0.7103,0.3602,20.2856,-42.2117,33,0.7504,8096,3.9974,60.9534
rg,1625051497829388839,1,0.2356,-1.2627,1.5327,404,-238.4033,-129.3335,45.7153,179,0.7184,0.3692,16.8647,-50.1057,33,0.7564,7950,3.9974,66.2585
rg,1625051497829406412,1,0.2698,-1.8347,1.0767,405,-68.1763,-13.1836,43.2129,179,0.7334,0.3802,16.9579,-52.7313,33,0.7654,8916,3.9974,67.7227
rg,1625051497829424523,1,0.3801,-1.4429,0.6667,406,60.6689,-78.4912,0.3662,179,0.7574,0.3912,13.8942,-50.1201,33,0.7734,8016,3.9974,70.1111
rg,1625051497829446634,1,0.417,-0.8428,0.5969,407,103.8818,-41.1987,-15.3809,179,0.7884,0.3972,11.0152,-45.9688,33,0.7794,9158,3.9974,70.8563
rg,1625051497829466726,1,0.2981,-0.4851,0.1602,408,110.5957,-18.6157,-2.5635,179,0.8134,0.4042,9.7889,-43.1609,33,0.7844,8257,3.9974,70.6871
rg,1625051497829485318,1,0.2539,-0.4421,0.0754,409,52.9785,27.2827,5.5542,179,0.8294,0.4132,9.3668,-42.3509,32,0.7874,8917,3.9974,69.8795
rg,1625051497829524614,1,0.2178,-0.6187,0.3774,410,-39.6118,55.9082,3.8452,179,0.8324,0.4232,10.0964,-44.7816,32,0.7894,8473,3.9974,68.3441
rg,1625051497829547595,1,0.0852,-1.0386,0.6533,411,-116.5771,43.335,12.8174,179,0.7894,0.4292,11.0906,-50.1091,32,0.7894,8877,3.9974,67.3295
rg,1625051497829565521,1,0.0879,-1.3442,0.6917,412,-132.6294,-28.8086,-1.3428,179,0.7364,0.4322,9.7988,-55.7238,32,0.7794,8812,3.9974,68.1631
rg,1625051497829583020,1,0.104,-1.2842,0.564,413,-75.9277,-86.9751,-5.3711,179,0.7083,0.4122,7.2037,-58.74,32,0.7624,8872,3.9974,70.9503
rg,1625051497829601705,1,0.1118,-1.1782,0.4351,414,-36.0107,-83.313,13.4277,179,0.6993,0.3682,5.3351,-60.2336,32,0.7534,8757,3.9974,74.071
rg,1625051497829619446,1,0.3584,-0.989,0.5867,415,17.5781,-62.8052,48.4619,179,0.6993,0.3502,4.8753,-59.2039,32,0.7544,8662,3.9974,77.2223
rg,1625051497829637705,1,0.3743,-1.1321,0.3342,416,76.2939,-28.9307,51.3306,179,0.7003,0.3382,5.139,-56.505,33,0.7524,9130,3.9974,79.2306
rg,1625051497963331917,1,0.0264,-1.1672,0.708,417,-182.7393,67.0776,18.3716,179,0.7524,0.4432,0.7521,-52.0667,32,0.7784,21948,3.9974,160.8458
rg,1625051497963368379,1,-0.0679,-1.2805,0.6062,418,-154.7241,-35.9497,-4.8218,91,0.7184,0.4392,-0.1368,-58.7123,32,0.7684,8218,4.0337,161.9098
rg,1625051497963388545,1,0.0459,-1.0342,0.3481,419,-64.1479,-106.9946,16.2354,91,0.6973,0.4132,-1.7676,-61.8266,32,0.7524,7492,4.0337,165.9533
rg,1625051497963407656,1,0.1672,-0.9456,0.3313,420,-52.9175,-100.5859,39.3677,91,0.6903,0.3822,-2.4716,-64.432,32,0.7414,7602,4.0337,170.2715
rg,1625051497963426100,1,0.5479,-1.0842,0.7898,421,-31.311,-69.519,59.6924,91,0.6923,0.3672,-2.2482,-65.4315,32,0.7414,7687,4.0337,-186.2121
rg,1625051497963443563,1,0.6851,-1.6528,0.5679,422,7.6904,-20.3857,65.7959,91,0.6933,0.3582,-0.0991,-64.7267,32,0.7404,7618,4.0337,-184.9961
rg,1625051497963463396,1,0.5608,-1.7549,0.394,423,52.4902,38.6963,42.9077,91,0.6913,0.3552,1.4408,-63.0997,32,0.7364,7712,4.0337,-185.6491
rg,1625051497963482155,1,0.0576,-1.3613,0.3899,424,157.6538,81.2378,-50.6592,91,0.6933,0.3542,1.1386,-57.3134,32,0.7364,7590,4.0337,170.5115
rg,1625051497963500636,1,-0.1941,-0.9214,0.4548,425,206.1768,99.7314,-65.4297,91,0.6943,0.3532,1.7788,-49.4592,32,0.7344,7827,4.0337,165.7828
rg,1625051497963517599,1,-0.5583,-0.2478,0.3286,426,265.3809,126.4038,-52.3682,91,0.6953,0.3502,5.6852,-38.928,32,0.7334,7598,4.0337,160.9475
rg,1625051497963535006,1,-0.6807,0.1404,0.0554,427,226.5625,65.0024,-7.9956,91,0.6993,0.3502,9.8367,-29.6421,32,0.7344,7800,4.0337,159.4391
rg,1625051497963553616,1,-0.7346,0.2795,0.0056,428,171.6919,8.3618,1.709,91,0.7013,0.3522,12.2992,-22.0676,32,0.7354,7704,4.0337,159.6255
rg,1625051497963572264,1,-0.5742,0.2554,0.0981,429,-35.8887,-130.9814,24.8413,91,0.7053,0.3602,9.8345,-21.9383,32,0.7394,7842,4.0337,162.7876
rg,1625051497963589894,1,-0.3875,-0.0015,0.1589,430,-145.5078,-182.6172,47.2412,91,0.7093,0.3692,4.6156,-27.8211,32,0.7434,7723,4.0337,167.4593
rg,1625051497963608004,1,0.3623,-0.8132,1.2314,431,-318.4204,-267.0898,87.2803,91,0.7143,0.3752,-2.8802,-40.5685,32,0.7494,7948,4.0337,-183.6686
rg,1625051497963691151,1,0.927,-2.2314,1.762,432,-166.8701,-55.481,67.4438,91,0.7244,0.3862,-3.1767,-47.7876,32,0.7574,7776,4.0337,-180.1331
rg,1625051497963715299,1,0.5437,-2.0708,0.5188,433,-14.5874,-43.7012,55.0537,91,0.7434,0.3942,-3.1225,-49.55,32,0.7664,7910,4.0337,-177.3006
rg,1625051497963731947,1,0.6768,-1.3264,0.5928,434,80.9326,-80.0171,-42.5415,91,0.7664,0.4012,-7.3531,-47.0052,32,0.7704,8001,4.0337,-176.0213
rg,1625051497963748891,1,0.5027,-0.6121,0.5974,435,91.3086,76.5991,-7.5073,91,0.7944,0.4102,-6.2993,-43.0188,32,0.7774,7885,4.0337,-178.4613
rg,1625051497963785261,1,0.2249,-0.408,0.1235,436,83.8623,105.1636,8.4229,91,0.8204,0.4152,-3.3319,-42.0983,32,0.7804,7994,4.0337,-181.3908
rg,1625051497963806075,1,0.0923,-0.4709,0.1101,437,-10.3149,130.0659,-0.1221,91,0.8364,0.4232,0.4135,-45.0787,32,0.7824,7914,4.0337,-184.9166
rg,1625051497963822871,1,-0.0286,-0.8176,0.4976,438,-81.2988,118.6523,5.5542,91,0.8434,0.4292,3.8403,-48.9684,32,0.7824,7992,4.0337,-188.2495
rg,1625051497963841982,1,-0.1692,-1.1604,0.54,439,-89.5996,-17.1509,23.8647,91,0.8064,0.4392,4.3019,-53.0764,32,0.7854,13454,4.0337,-187.1609
rg,1625051497963862444,1,0.1079,-1.1638,0.6335,440,-106.2012,-114.624,9.9487,91,0.7414,0.4372,1.6836,-57.4214,32,0.7774,11819,4.0337,-183.1723
rg,1625051497963879555,1,0.1182,-1.0239,0.3557,441,-53.6499,-152.4048,16.3574,91,0.7073,0.4252,-1.2059,-60.0526,32,0.7624,10811,4.0337,-177.6307
rg,1625051497963897925,1,0.4321,-1.0554,0.186,442,-16.7236,-138.3057,63.2324,91,0.6923,0.3962,-2.4802,-61.6244,32,0.7494,8153,4.0337,-171.5454
rg,1625051497963916258,1,0.6907,-1.1282,0.624,443,-29.6021,-101.4404,66.5283,91,0.6963,0.3772,-2.1898,-61.5104,32,0.7494,8167,4.0337,-168.9682
rg,1625051497963933017,1,0.551,-1.3042,0.4827,444,62.561,29.7852,54.2603,91,0.6953,0.3672,-0.4783,-59.3012,32,0.7474,8105,4.0337,-168.9455
rg,1625051497963949924,1,0.4746,-1.3003,0.3643,445,90.332,77.1484,33.2642,91,0.6953,0.3602,1.5414,-56.2581,32,0.7444,8945,4.0337,-170.8708
rg,1625051497963966998,1,-0.0291,-0.998,0.3213,446,141.3574,122.2534,-50.1709,91,0.6973,0.3582,2.7915,-51.4246,32,0.7414,9267,4.0337,-176.0179
rg,1625051497963983646,1,-0.4053,-0.4321,0.4326,447,178.2227,154.48,-55.9082,91,0.6983,0.3542,6.3906,-44.5875,32,0.7404,8158,4.0337,-182.0276
rg,1625051497964000275,1,-0.5498,-0.2136,0.3855,448,196.228,156.5552,-42.7856,91,0.7013,0.3542,11.5659,-37.2145,32,0.7394,8031,4.0337,-187.3206
rg,1625051498317996875,1,-0.6006,-0.2134,0.2329,449,-114.8071,-120.8496,11.7188,91,0.7093,0.3762,9.8884,-41.2397,33,0.7454,27005,4.0337,-183.915
rg,1625051498318033004,1,-0.0388,-0.8667,1.1392,450,-260.9863,-230.4077,40.1001,91,0.7204,0.3862,3.7548,-50.5801,32,0.7554,8515,4.0337,-176.0674
rg,1625051498318053615,1,0.6455,-1.968,1.6892,451,-135.0098,-150.7568,39.5508,91,0.7344,0.3952,0.8794,-56.3475,32,0.7644,7693,4.0337,-170.2983
rg,1625051498318073392,1,0.521,-1.5466,0.3008,452,79.2236,-197.8149,24.0479,91,0.7624,0.4062,-3.548,-54.1669,32,0.7714,7893,4.0337,-163.2807
rg,1625051498318138965,1,0.728,-0.8672,0.4656,453,90.5151,-145.3247,-29.541,91,0.7944,0.4122,-7.2661,-50.8218,32,0.7784,10672,4.0337,-161.4082
rg,1625051498318160132,1,0.6245,-0.5056,0.1775,454,80.2002,-7.5684,4.7607,91,0.8144,0.4172,-8.8475,-48.1648,32,0.7814,7602,4.0337,-161.0274
rg,1625051498318179687,1,0.4158,-0.4851,0.0408,455,-3.2349,88.1958,7.5684,91,0.8274,0.4212,-7.5419,-48.985,32,0.7834,7661,4.0337,-163.3362
rg,1625051498318197186,1,0.3359,-0.6018,0.2427,456,-54.3823,122.3145,2.5635,91,0.8314,0.4282,-5.1332,-51.3985,32,0.7844,7633,4.0337,-166.9563
rg,1625051498318214853,1,0.084,-0.9116,0.4236,457,-120.4834,144.6533,15.3198,91,0.8104,0.4362,-1.2513,-56.4904,32,0.7854,7738,4.0337,-171.2348
rg,1625051498318232093,1,-0.0974,-1.2898,0.7539,458,-143.0054,83.0078,12.2681,91,0.7594,0.4432,1.0408,-62.3025,32,0.7794,9172,4.0337,-173.8515
rg,1625051498318249630,1,-0.1111,-1.385,0.7893,459,-133.9722,19.8364,17.0288,91,0.7244,0.4392,2.0529,-67.7491,32,0.7674,7838,4.0337,-174.2903
rg,1625051498318266908,1,0.0974,-1.1943,0.3584,460,-62.3169,-93.6279,30.8228,91,0.6963,0.4022,1.5675,-68.636,32,0.7464,7784,4.0337,-169.9514
rg,1625051498318285092,1,0.2009,-1.0859,0.3689,461,12.146,-102.5391,45.7764,91,0.6963,0.3792,1.5282,-66.9896,32,0.7444,7756,4.0337,-165.8427
rg,1625051498318302722,1,0.4617,-1.0476,0.6499,462,57.5562,-39.7339,52.2461,91,0.6953,0.3692,1.9271,-64.2828,32,0.7424,9386,4.0337,-163.5503
rg,1625051498318320721,1,0.428,-1.2939,0.4795,463,66.7114,30.6396,44.8608,91,0.6963,0.3682,3.3283,-61.8236,32,0.7414,7711,4.0337,-163.8612
rg,1625051498318340925,1,0.0354,-1.1584,0.3889,464,109.1919,68.9697,-29.7852,91,0.6963,0.3652,3.4749,-58.0097,32,0.7404,7678,4.0337,-166.8779
rg,1625051498318359313,1,-0.1604,-0.8494,0.3906,465,147.7051,75.7446,-48.7061,91,0.6983,0.3622,3.8346,-52.6187,32,0.7384,7811,4.0337,-170.4843
rg,1625051498318376887,1,-0.4062,-0.1892,0.3389,466,197.2656,96.5576,-43.5181,91,0.7013,0.3612,6.5995,-44.4916,32,0.7374,7827,4.0337,-174.3809
rg,1625051498318395387,1,-0.5173,0.2036,0.3115,467,141.7847,58.4717,-1.2207,91,0.7043,0.3632,10.0961,-37.7433,32,0.7384,7993,4.0337,-175.7103
rg,1625051498318413924,1,-0.5557,0.2595,0.2424,468,61.8896,4.5166,13.4277,91,0.7063,0.3682,12.4066,-33.9534,32,0.7404,7803,4.0337,-175.0893
rg,1625051498318446479,1,-0.3792,-0.2148,0.1748,469,-127.8687,-137.085,27.5879,91,0.7103,0.3742,10.1721,-38.6288,32,0.7434,7812,4.0337,-171.0166
rg,1625051498318465904,1,-0.1997,-0.4609,0.4124,470,-215.6982,-195.4956,41.5039,91,0.7153,0.3822,3.8345,-48.6891,32,0.7484,7788,4.0337,-162.7885
rg,1625051498318484626,1,1.032,-1.7903,2.1692,471,-247.8027,-180.9692,46.5698,91,0.7214,0.3882,0.1253,-57.9624,32,0.7554,7929,4.0337,-155.7997
rg,1625051498318502941,1,0.4961,-1.7451,0.3931,472,-7.2632,-102.2949,38.6353,91,0.7364,0.3972,-1.2943,-58.9933,32,0.7644,9592,4.0337,-151.5013
rg,1625051498318520589,1,0.6272,-1.106,0.4683,473,60.4858,-114.9902,-38.208,91,0.7554,0.4052,-6.0069,-57.0457,32,0.7694,7874,4.0337,-148.41
rg,1625051498318540310,1,0.5703,-0.6021,0.4397,474,68.4814,5.0049,0.7935,91,0.7784,0.4102,-7.0505,-54.18,32,0.7764,8034,4.0337,-148.6037
rg,1625051498318558606,1,0.4524,-0.5249,0.1511,475,58.7769,36.8652,13.7939,91,0.7974,0.4162,-6.9681,-52.3132,32,0.7794,7858,4.0337,-149.4162
rg,1625051498318576514,1,0.2812,-0.5942,0.085,476,-13.6719,78.7354,8.4229,91,0.8104,0.4232,-5.5517,-53.6162,32,0.7834,7912,4.0337,-151.6166
rg,1625051498318597384,1,0.1541,-0.8159,0.3767,477,-47.1191,95.459,10.9253,91,0.8124,0.4272,-2.5906,-56.6349,33,0.7854,8209,4.0337,-154.6377
rg,1625051498318614476,1,0.0273,-0.9263,0.4678,478,-92.2241,109.314,29.9683,91,0.7834,0.4312,0.7322,-60.5126,33,0.7854,8009,4.0337,-157.74
rg,1625051498318632679,1,-0.0737,-1.2346,0.6768,479,-131.6528,20.6909,28.1372,91,0.7444,0.4352,2.1927,-65.7896,33,0.7794,8062,4.0337,-157.9782
rg,1625051498318649661,1,-0.0249,-1.2358,0.5815,480,-90.21,-75.5615,24.9634,91,0.7153,0.4332,1.924,-69.2245,33,0.7724,8031,4.0337,-154.7999
rg,1625051498658100645,1,0.491,-1.0979,0.626,481,28.2593,-59.8755,74.0967,91,0.6983,0.3822,2.8987,-67.8826,32,0.7544,26850,4.0337,-151.5024
rg,1625051498658141977,1,0.5667,-1.3223,0.4263,482,63.2935,1.709,78.125,91,0.6983,0.3762,4.8254,-65.4202,32,0.7504,8389,4.0337,-150.3646
rg,1625051498658161662,1,0.0142,-1.0168,0.3413,483,126.2207,84.7778,-26.4893,91,0.7003,0.3702,5.1776,-60.9154,33,0.7484,13401,4.0337,-153.9084
rg,1625051498658181051,1,-0.1919,-0.7034,0.3796,484,152.4048,105.835,-36.5601,91,0.7013,0.3712,6.4822,-55.297,33,0.7464,7633,4.0337,-158.2767
rg,1625051498658200347,1,-0.4531,-0.2554,0.2937,485,182.1899,111.0229,-22.7661,91,0.7043,0.3712,10.0321,-48.2355,33,0.7464,9698,4.0337,-162.2203
rg,1625051498658277105,1,-0.5427,0.0022,0.2288,486,121.0327,37.5977,6.0425,91,0.7063,0.3732,13.1949,-42.8883,33,0.7474,7616,4.0337,-162.9279
rg,1625051498658298364,1,-0.5259,-0.0051,0.218,487,52.7954,-20.752,13.7939,91,0.7093,0.3792,12.9205,-43.3485,33,0.7494,7686,4.0337,-160.0506
rg,1625051498658320030,1,-0.333,-0.3848,0.3489,488,-108.5205,-130.4932,26.9775,91,0.7123,0.3862,10.7877,-46.8861,33,0.7514,7615,4.0337,-155.5463
rg,1625051498658339048,1,0.4109,-1.1963,1.4976,489,-189.1479,-171.5698,36.8042,91,0.7153,0.3922,6.6693,-53.1438,33,0.7544,8207,4.0337,-149.1741
rg,1625051498658358603,1,0.3691,-1.6648,0.9583,490,-41.0767,-52.6733,47.0581,91,0.7224,0.3992,6.2715,-54.713,32,0.7614,8953,4.0337,-146.369
rg,1625051498658377344,1,0.3699,-1.4792,0.5876,491,23.9868,-82.0923,32.3486,91,0.7364,0.4042,4.6743,-53.9393,32,0.7684,8472,4.0337,-142.9935
rg,1625051498658395751,1,0.4656,-0.9531,0.6702,492,58.96,-69.2749,-21.4844,91,0.7554,0.4092,1.3156,-51.5225,32,0.7744,7723,4.0337,-141.3274
rg,1625051498658413103,1,0.4404,-0.6531,0.4822,493,60.5469,12.085,11.8408,91,0.7784,0.4142,0.8577,-49.1687,32,0.7804,7829,4.0337,-141.4268
rg,1625051498658432936,1,0.3582,-0.6116,0.2788,494,41.5649,39.7949,15.9302,91,0.7974,0.4202,1.2855,-48.0782,32,0.7824,7686,4.0337,-142.2257
rg,1625051498658451232,1,0.2598,-0.717,0.3359,495,-19.3481,82.7637,3.6011,91,0.8164,0.4252,2.8064,-49.5498,32,0.7854,7715,4.0337,-144.635
rg,1625051498658470213,1,0.1765,-0.8098,0.417,496,-39.4287,101.5625,3.1738,91,0.8294,0.4282,5.5212,-52.186,32,0.7864,7878,4.0337,-147.8677
rg,1625051498658509582,1,-0.0713,-0.9358,0.4719,497,-47.7905,99.7314,10.7422,91,0.8314,0.4322,8.1567,-54.8738,32,0.7874,7785,4.0337,-150.887
rg,1625051498658527656,1,-0.1978,-0.8845,0.4404,498,-66.6504,23.2544,20.9351,91,0.8104,0.4392,9.489,-57.9098,33,0.7904,7937,4.0337,-151.2551
rg,1625051498658546952,1,-0.0769,-0.9106,0.4897,499,-98.8159,-33.9355,19.3481,91,0.7634,0.4422,9.2714,-61.7342,33,0.7864,7814,4.0337,-149.689
rg,1625051498658565507,1,0.1492,-1.0503,0.5117,500,-134.6436,-112.7319,8.9111,91,0.7274,0.4372,6.9999,-66.5801,33,0.7744,7953,4.0337,-145.4214
rg,1625051498658585229,1,0.2271,-0.9998,0.3577,501,-81.7871,-110.9619,30.1514,91,0.7043,0.4212,5.7302,-69.4651,33,0.7584,7916,4.0337,-140.8282
rg,1625051498658602636,1,0.3909,-1.0437,0.3101,502,-52.063,-90.5151,53.6499,91,0.6983,0.3952,5.3763,-71.0142,33,0.7514,8340,4.0337,-136.6558
rg,1625051498658621673,1,0.6765,-1.2515,0.769,503,-29.6021,-6.2866,71.5332,91,0.6963,0.3832,6.8664,-71.6073,33,0.7484,7916,4.0337,-135.4567
rg,1625051498658639895,1,0.5637,-1.5454,0.3943,504,46.875,63.0493,76.9653,91,0.6973,0.3762,9.5766,-70.0762,33,0.7464,8119,4.0337,-136.8884
rg,1625051498658658932,1,0.418,-1.5242,0.3164,505,77.3926,87.6465,45.3491,91,0.6963,0.3712,11.8313,-67.7638,33,0.7424,8051,4.0337,-139.6247
rg,1625051498658676043,1,-0.0393,-1.114,0.3928,506,145.5078,120.6665,-13.3057,91,0.6953,0.3672,12.9423,-63.0753,32,0.7394,8126,4.0337,-144.3805
rg,1625051498658694876,1,-0.3694,-0.4912,0.2959,507,210.3882,103.0884,-24.353,91,0.7013,0.3632,14.9554,-55.5319,32,0.7374,8045,4.0337,-148.4478
rg,1625051498658711135,1,-0.4963,-0.0894,0.1663,508,218.8721,49.1943,-8.0566,91,0.7033,0.3642,17.7719,-46.889,32,0.7384,12845,4.0337,-150.0006
rg,1625051498658728227,1,-0.4783,0.1399,0.1685,509,122.1313,-37.8418,27.0996,91,0.7063,0.3702,19.353,-40.3619,32,0.7394,8120,4.0337,-147.6441
rg,1625051498658745060,1,-0.2695,-0.2097,0.271,510,-68.0542,-130.4932,49.2554,91,0.7083,0.3782,17.4446,-41.3495,33,0.7434,8806,4.0337,-142.4449
rg,1625051498658762041,1,-0.1006,-0.4854,0.5969,511,-148.8037,-167.1143,52.6123,91,0.7103,0.3872,12.8888,-45.3744,33,0.7474,8119,4.0337,-135.9992
rg,1625051498658779411,1,0.7021,-1.7234,1.8655,512,-153.3813,-89.2334,40.6494,91,0.7174,0.3912,10.646,-50.5834,33,0.7554,8231,4.0337,-132.1095
rg,1625051499028744487,1,0.3127,-0.606,0.7927,513,93.2617,-18.2495,-12.8174,91,0.7914,0.4082,8.7211,-46.3205,32,0.7764,26593,4.0337,-131.8457
rg,1625051499028787505,1,0.158,-0.6426,0.1956,514,22.0337,40.3442,9.8877,91,0.8214,0.4172,9.2976,-46.5823,32,0.7774,12406,4.0337,-132.9103
rg,1625051499028817912,1,0.1272,-0.7437,0.4404,515,-12.8174,53.5889,7.6294,91,0.8404,0.4192,10.8306,-48.8563,33,0.7784,9919,4.0337,-134.8731
rg,1625051499028847152,1,0.0356,-0.7922,0.438,516,-47.9126,77.2705,12.6953,91,0.8504,0.4222,12.6734,-51.6725,33,0.7804,7736,4.0337,-137.0543
rg,1625051499028874911,1,-0.1006,-0.7781,0.4246,517,-72.4487,42.9688,17.395,91,0.8404,0.4262,14.0041,-55.1705,33,0.7824,7665,4.0337,-138.1277
rg,1625051499028901966,1,-0.0037,-0.8813,0.5752,518,-131.958,-25.8179,20.813,91,0.7954,0.4322,13.6141,-60.1618,33,0.7844,9503,4.0337,-136.763
rg,1625051499028928225,1,0.1074,-1.033,0.5674,519,-158.7524,-66.8335,11.9629,91,0.7474,0.4292,11.1607,-65.9692,32,0.7794,7654,4.0337,-133.0945
rg,1625051499028954521,1,0.1687,-1.0083,0.4333,520,-138.3057,-102.6001,5.3101,91,0.7184,0.4172,9.0903,-70.8036,32,0.7704,7854,4.0337,-129.1138
rg,1625051499028980594,1,0.3372,-0.8477,0.2312,521,-86.1206,-92.5293,53.3447,91,0.6973,0.4022,8.8648,-73.7123,32,0.7574,7773,4.0337,-124.8888
rg,1625051499029006446,1,0.5012,-0.8809,0.2368,522,-90.1489,-74.0356,63.7817,91,0.6953,0.3802,9.1937,-76.7804,32,0.7504,7670,4.0337,-121.3111
rg,1625051499029031686,1,0.6521,-1.2283,0.7864,523,-76.5381,26.6113,41.626,91,0.6973,0.3712,9.8093,-79.2397,33,0.7504,7817,4.0337,-121.8851
rg,1625051499029058149,1,0.5435,-1.8103,0.6143,524,-17.2119,93.0176,50.7812,91,0.6983,0.3662,11.4695,-80.2244,33,0.7494,7752,4.0337,-125.1894
rg,1625051499029083407,1,0.3027,-1.9336,0.5005,525,25.6348,124.3896,17.1509,91,0.6973,0.3632,12.1976,-80.0005,33,0.7454,8005,4.0337,-130.0433
rg,1625051499029108537,1,-0.1399,-1.6594,0.5645,526,145.9351,122.8638,-31.1279,91,0.6983,0.3612,11.7346,-74.8852,33,0.7424,7768,4.0337,-135.1493
rg,1625051499029134110,1,-0.4912,-0.8467,0.4529,527,244.0796,89.3555,-43.5791,91,0.7013,0.3622,11.8979,-65.5042,32,0.7444,8592,4.0337,-139.0194
rg,1625051499029161851,1,-0.5898,-0.5107,0.2861,528,281.0669,50.8423,-46.936,91,0.7043,0.3622,12.5139,-54.7292,32,0.7454,7789,4.0337,-141.6117
rg,1625051499029187850,1,-0.7053,-0.02,-0.0027,529,302.1851,-26.9165,-18.9209,91,0.7093,0.3622,13.43,-42.6304,32,0.7494,9666,4.0337,-141.0587
rg,1625051499029213813,1,-0.5854,0.4741,-0.1318,530,121.46,-163.4521,52.7344,91,0.7123,0.3742,11.6795,-35.6835,32,0.7524,13063,4.0337,-134.8475
rg,1625051499029239312,1,-0.3652,0.3489,-0.1243,531,-7.9956,-213.1348,69.7632,91,0.7143,0.3772,8.4004,-34.2181,32,0.7574,7898,4.0337,-127.4317
rg,1625051499029265127,1,0.0527,-0.1897,0.0413,532,-257.9346,-272.8882,95.5811,91,0.7194,0.3802,1.6832,-45.1233,32,0.7624,7799,4.0337,-117.7065
rg,1625051499029290404,1,2.0132,-2.0664,3.2419,533,-383.667,-245.2393,70.0684,91,0.7294,0.3822,-3.0828,-60.0416,32,0.7694,7959,4.0337,-108.1594
rg,1625051499029315404,1,1.252,-2.5283,2.0391,534,-194.458,-18.3105,41.687,90,0.7474,0.3902,-2.6129,-67.4867,33,0.7774,7910,4.037,-106.7432
rg,1625051499029340200,1,0.7,-1.8711,-0.0581,535,89.4165,-72.876,-7.6294,90,0.7724,0.3972,-4.76,-64.9401,33,0.7824,9670,4.037,-104.1689
rg,1625051499029365551,1,0.5278,-0.7517,0.5054,536,119.873,88.4399,-47.8516,90,0.7924,0.4042,-5.7901,-59.4632,33,0.7864,7885,4.037,-108.2785
rg,1625051499029390625,1,0.2451,-0.0374,0.4001,537,76.8433,199.4019,14.4653,90,0.8054,0.4082,-2.0446,-54.3798,33,0.7904,8045,4.037,-114.8699
rg,1625051499029416606,1,0.0486,-0.1077,0.1252,538,5.127,226.6235,16.2964,90,0.8064,0.4112,3.1992,-53.718,32,0.7924,7944,4.037,-121.8489
rg,1625051499029441865,1,-0.3884,-0.6345,0.0981,539,-151.001,165.3442,-4.2725,90,0.7854,0.4182,7.6483,-61.1792,32,0.7924,8100,4.037,-127.6486
rg,1625051499029466383,1,-0.4351,-1.3369,1.0635,540,-214.9048,84.7778,-6.1035,90,0.7494,0.4182,7.6262,-70.3546,32,0.7924,7925,4.037,-127.0874
rg,1625051499029490883,1,-0.2646,-1.48,0.8669,541,-204.4678,-103.5156,2.0752,90,0.7184,0.4112,6.6334,-77.5764,32,0.7804,8230,4.037,-123.0063
rg,1625051499029515123,1,0.0415,-1.2539,0.4456,542,-92.9565,-180.603,21.8506,90,0.7003,0.3992,5.7933,-80.1971,32,0.7654,8061,4.037,-115.6763
rg,1625051499029539882,1,0.4148,-1.0156,0.4475,543,-37.9639,-184.082,41.3208,90,0.7013,0.3792,5.2077,-80.4542,32,0.7614,8233,4.037,-108.0648
rg,1625051499029564196,1,0.5815,-1.0911,0.6311,544,-24.7803,-142.334,41.2598,90,0.7003,0.3632,4.7695,-80.1864,32,0.7574,8140,4.037,-102.099
rg,1625051499383453120,1,0.3369,-1.3406,0.2986,545,112.5488,78.9185,-10.376,90,0.7033,0.3552,4.2847,-75.8233,33,0.7504,25413,4.037,-105.3005
rg,1625051499383491675,1,-0.1191,-0.7014,0.2124,546,182.1899,119.9951,-47.4243,90,0.7043,0.3592,4.1153,-68.8176,33,0.7474,9181,4.037,-110.4267
rg,1625051499383512008,1,-0.3999,-0.2468,0.1555,547,186.6455,124.6948,-38.147,90,0.7083,0.3662,7.3422,-61.9381,33,0.7484,11200,4.037,-114.7336
rg,1625051499383531767,1,-0.5505,-0.0039,0.113,548,139.4043,74.4019,2.4414,90,0.7123,0.3752,10.6105,-58.4638,33,0.7504,10072,4.037,-114.9975
rg,1625051499383550952,1,-0.5166,-0.1157,0.1006,549,-7.5684,-37.4756,26.7944,90,0.7153,0.3782,12.7641,-58.2696,33,0.7544,7561,4.037,-113.0903
rg,1625051499383569563,1,-0.2256,-0.531,0.4849,550,-155.6396,-143.4326,38.269,90,0.7204,0.3812,11.4944,-62.8253,33,0.7594,7622,4.037,-107.1312
rg,1625051499383588452,1,0.3254,-1.0154,1.3716,551,-196.167,-177.4292,41.0767,90,0.7294,0.3842,9.281,-68.3248,32,0.7664,7541,4.037,-99.6489
rg,1625051499383606859,1,0.5613,-1.8674,1.1936,552,-33.3252,-43.6401,38.147,90,0.7484,0.3932,9.1658,-68.8532,32,0.7744,9167,4.037,-97.3684
rg,1625051499383625729,1,0.5186,-1.3906,0.4255,553,99.8535,-52.9175,1.8311,90,0.7704,0.3992,7.3167,-64.7283,32,0.7814,7676,4.037,-95.4388
rg,1625051499383643729,1,0.5083,-1.0518,0.5188,554,113.1592,-22.644,-27.0386,90,0.7924,0.4002,4.7861,-60.136,32,0.7844,7761,4.037,-95.1752
rg,1625051499383662432,1,0.3259,-0.4241,0.509,555,108.2764,61.8286,-10.8643,90,0.8144,0.4052,4.5701,-55.2879,32,0.7874,8245,4.037,-97.4983
rg,1625051499383680228,1,0.0261,-0.3923,0.1052,556,32.1655,105.1636,4.5166,90,0.8304,0.4092,6.7855,-55.0935,32,0.7884,7733,4.037,-100.9331
rg,1625051499383698172,1,-0.063,-0.4871,0.1931,557,-18.9209,100.1587,3.6621,90,0.8414,0.4122,8.6795,-57.8175,32,0.7904,8867,4.037,-103.4087
rg,1625051499383716191,1,-0.2188,-0.8398,0.6448,558,-80.9937,42.7246,13.3667,90,0.8324,0.4172,10.1198,-61.0272,32,0.7914,8308,4.037,-104.5971
rg,1625051499383734820,1,-0.1255,-0.9524,0.532,559,-96.9849,-58.7769,29.9683,90,0.7924,0.4262,9.9728,-64.4077,33,0.7934,8013,4.037,-101.9109
rg,1625051499383780097,1,0.0625,-0.9958,0.6797,560,-119.1406,-109.2529,25.3296,90,0.7504,0.4282,7.6968,-68.2713,33,0.7884,7845,4.037,-96.1396
rg,1625051499383800060,1,0.2856,-1.0369,0.6042,561,-116.6382,-162.5977,20.5078,90,0.7234,0.4192,5.4636,-71.8463,33,0.7794,7828,4.037,-89.6421
rg,1625051499383817745,1,0.4421,-0.9265,0.2842,562,-59.2041,-162.6587,39.917,90,0.7053,0.4082,3.9463,-73.6837,33,0.7684,7962,4.037,-82.9282
rg,1625051499383835966,1,0.5837,-0.9395,0.2183,563,-53.1616,-136.4746,48.9502,90,0.6953,0.3862,2.9748,-75.3505,33,0.7584,7876,4.037,-77.1181
rg,1625051499383853337,1,0.78,-1.054,0.6091,564,-55.9082,-20.2637,46.9971,90,0.6953,0.3722,3.2846,-76.9953,33,0.7554,7955,4.037,-75.8436
rg,1625051499383872577,1,0.6064,-1.3352,0.3584,565,4.2725,82.8247,45.3491,90,0.6933,0.3632,4.7504,-76.9359,33,0.7504,11022,4.037,-78.6756
rg,1625051499383890114,1,0.1731,-1.335,0.3674,566,43.8843,150.0244,-15.4419,90,0.6943,0.3602,5.0843,-75.5908,33,0.7444,8047,4.037,-84.6685
rg,1625051499383910799,1,-0.3979,-0.9399,0.4878,567,79.7729,173.3398,-24.9023,90,0.6943,0.3572,7.033,-71.2325,32,0.7434,8012,4.037,-91.5836
rg,1625051499383929095,1,-0.6367,-0.7415,0.4739,568,142.5171,156.9214,-7.2021,90,0.6943,0.3522,10.124,-65.9779,32,0.7394,8048,4.037,-97.4802
rg,1625051499383946761,1,-0.7705,-0.4487,0.1516,569,149.0479,29.1748,17.395,90,0.6953,0.3512,12.9557,-60.2584,32,0.7374,8022,4.037,-98.1508
rg,1625051499383966020,1,-0.4565,-0.2732,0.0374,570,124.3286,-58.96,29.9072,90,0.6973,0.3522,12.8646,-56.4451,32,0.7374,8091,4.037,-92.5873
rg,1625051499383984168,1,-0.2781,-0.2788,0.1182,571,19.4092,-193.4204,36.6211,90,0.6983,0.3492,10.8439,-54.4566,33,0.7364,8064,4.037,-85.2722
rg,1625051499384002501,1,0.1426,-0.634,0.6648,572,-85.144,-254.4556,42.2363,90,0.7023,0.3512,5.721,-56.0681,33,0.7364,8151,4.037,-75.7766
rg,1625051499384039241,1,0.5645,-1.3501,0.812,573,-52.124,-184.6924,32.2266,90,0.7043,0.3522,1.8233,-57.7822,33,0.7404,8083,4.037,-68.8708
rg,1625051499384060204,1,0.5562,-1.3694,0.469,574,4.2725,-132.5684,26.6724,90,0.7053,0.3522,-0.9478,-58.0452,33,0.7414,8213,4.037,-63.8262
rg,1625051499384078444,1,0.4775,-0.8821,0.4299,575,52.4292,-57.8613,-14.0991,90,0.7083,0.3532,-3.6265,-56.2182,32,0.7414,8154,4.037,-62.1977
rg,1625051499384095907,1,0.3022,-0.5688,0.5549,576,28.6865,11.3525,-21.0571,90,0.7113,0.3532,-4.735,-54.6095,32,0.7424,8145,4.037,-63.0875
rg,1625051499728635474,1,0.1333,-0.999,0.4714,577,-10.8643,28.9917,-16.7236,90,0.7184,0.3582,-4.7078,-55.3191,33,0.7464,28061,4.037,-64.3935
rg,1625051499728679899,1,0.084,-0.9297,0.4365,578,6.7139,21.3013,-20.2637,90,0.7204,0.3572,-5.0833,-54.8302,33,0.7474,8265,4.037,-65.2709
rg,1625051499728701251,1,-0.0125,-0.7373,0.3777,579,23.8037,2.6245,-21.6675,90,0.7224,0.3572,-5.4932,-54.1323,33,0.7474,7486,4.037,-65.8312
rg,1625051499728721528,1,-0.0081,-0.6836,0.3862,580,12.8174,-19.8975,-8.9111,90,0.7234,0.3592,-6.0054,-53.9066,32,0.7484,12095,4.037,-65.3677
rg,1625051499728740750,1,0.0933,-0.8083,0.4487,581,2.2583,-52.4902,-2.5024,90,0.7274,0.3592,-7.2995,-54.2757,32,0.7474,9955,4.037,-63.683
rg,1625051499728759342,1,0.2031,-0.9182,0.4595,582,12.8784,-64.6362,3.479,90,0.7284,0.3602,-8.8385,-54.4169,32,0.7484,7789,4.037,-61.4317
rg,1625051499728777472,1,0.2666,-0.915,0.4575,583,28.3203,-62.0117,0.2441,90,0.7294,0.3602,-10.5016,-53.968,32,0.7474,9327,4.037,-59.3308
rg,1625051499728795620,1,0.2756,-0.8945,0.4487,584,35.0952,-58.5327,-1.2207,90,0.7314,0.3602,-12.0531,-53.0757,32,0.7474,7541,4.037,-57.6188
rg,1625051499728813990,1,0.2478,-0.8435,0.4377,585,40.2222,-46.9971,-5.6152,90,0.7324,0.3612,-13.4701,-52.1372,32,0.7484,7597,4.037,-56.1492
rg,1625051499728832156,1,0.2146,-0.8342,0.4402,586,40.9546,-40.5884,-10.0708,90,0.7334,0.3622,-14.7655,-51.1462,32,0.7474,9302,4.037,-54.9997
rg,1625051499728850341,1,0.1936,-0.8386,0.4197,587,40.8936,-41.3208,-10.0098,90,0.7354,0.3622,-16.101,-50.1362,32,0.7484,7765,4.037,-53.7845
rg,1625051499728868452,1,0.2014,-0.8289,0.4153,588,46.3257,-47.5464,-12.9395,90,0.7374,0.3632,-17.5795,-49.1455,32,0.7474,7861,4.037,-52.4689
rg,1625051499728885878,1,0.2107,-0.7734,0.3562,589,52.8564,-56.8237,-15.3809,90,0.7404,0.3642,-19.4102,-48.1062,32,0.7504,7671,4.037,-50.8989
rg,1625051499728902859,1,0.2295,-0.7458,0.3542,590,54.5654,-59.6924,-16.9678,90,0.7424,0.3642,-21.4217,-47.0437,32,0.7514,7724,4.037,-49.2892
rg,1625051499728920118,1,0.2634,-0.7261,0.3799,591,54.2603,-59.3262,-17.7612,90,0.7444,0.3642,-23.4402,-45.9962,32,0.7504,7591,4.037,-47.7237
rg,1625051499728938117,1,0.2839,-0.7673,0.4436,592,52.1851,-46.6919,-17.0288,90,0.7454,0.3652,-25.0235,-44.8611,33,0.7524,8007,4.037,-46.5553
rg,1625051499728956321,1,0.2759,-0.7979,0.479,593,52.8564,-38.0859,-13.855,90,0.7474,0.3662,-26.1821,-43.6529,33,0.7524,7675,4.037,-45.5606
rg,1625051499728973635,1,0.252,-0.8408,0.5413,594,57.6172,-28.5034,-9.5825,90,0.7494,0.3672,-26.8225,-42.172,33,0.7514,7821,4.037,-44.7438
rg,1625051499728992413,1,0.231,-0.8442,0.5444,595,62.1338,-29.6021,-9.3994,90,0.7504,0.3702,-27.6329,-40.5244,33,0.7554,7709,4.037,-43.7579
rg,1625051499729009857,1,0.1973,-0.8005,0.5247,596,67.0776,-43.335,-14.1602,90,0.7504,0.3712,-28.7332,-38.9092,33,0.7544,7857,4.037,-42.6549
rg,1625051499729059579,1,0.1802,-0.7471,0.5015,597,69.2139,-64.8193,-18.8599,90,0.7514,0.3702,-30.5891,-37.4794,33,0.7554,7700,4.037,-41.1109
rg,1625051499729078708,1,0.1848,-0.7244,0.4846,598,67.8101,-77.4536,-24.231,90,0.7514,0.3712,-33.0205,-36.2679,33,0.7554,7924,4.037,-39.3991
rg,1625051499729096726,1,0.2388,-0.7146,0.4966,599,65.6128,-105.2856,-32.5928,90,0.7524,0.3722,-36.5411,-35.4938,33,0.7554,7769,4.037,-37.1894
rg,1625051499729118744,1,0.3323,-0.689,0.439,600,71.9604,-131.3477,-33.4473,90,0.7544,0.3732,-41.5242,-35.3039,32,0.7564,12514,4.037,-33.7222
rg,1625051499729136763,1,0.4548,-0.686,0.4626,601,75.6226,-143.7988,-33.5693,90,0.7554,0.3732,-46.5211,-35.4238,32,0.7564,7857,4.037,-29.9413
rg,1625051499729154077,1,0.5881,-0.7375,0.5273,602,75.4395,-121.3989,-27.0996,90,0.7564,0.3732,-50.593,-35.5475,32,0.7574,8047,4.037,-26.3063
rg,1625051499729171669,1,0.6511,-0.822,0.594,603,75.9277,-97.1069,-23.6816,90,0.7584,0.3742,-52.7279,-34.5791,32,0.7584,7918,4.037,-24.1166
rg,1625051499729188114,1,0.6309,-0.8225,0.6086,604,80.9326,-44.4946,-20.9351,90,0.7594,0.3732,-53.1576,-31.9092,32,0.7584,8080,4.037,-23.5601
rg,1625051499729204132,1,0.4937,-0.7439,0.5867,605,91.2476,-11.7798,-21.1182,90,0.7594,0.3732,-53.1025,-28.7858,32,0.7574,8069,4.037,-23.4238
rg,1625051499729220558,1,0.3638,-0.6409,0.5747,606,91.0645,-6.4697,-20.6909,90,0.7604,0.3752,-52.6661,-25.5243,32,0.7584,8211,4.037,-23.4797
rg,1625051499729251946,1,0.2664,-0.5811,0.5459,607,87.2803,-23.9868,-23.0713,90,0.7604,0.3742,-52.7582,-22.7806,32,0.7584,7996,4.037,-23.1436
rg,1625051499729270464,1,0.2227,-0.5627,0.542,608,79.7729,-40.3442,-24.5972,90,0.7614,0.3762,-53.3928,-20.6482,32,0.7594,8204,4.037,-22.4768
rg,1625051500079093938,1,0.2751,-0.5947,0.6128,609,76.7822,-167.1143,-38.8794,90,0.7614,0.3742,-58.9355,-20.482,32,0.7584,25627,4.037,-19.5814
rg,1625051500079133253,1,0.5007,-0.6357,0.6758,610,91.2476,-200.1343,-29.6021,90,0.7634,0.3732,-65.6642,-21.9494,32,0.7594,8844,4.037,-14.2244
rg,1625051500079153623,1,0.8325,-0.6848,0.6777,611,107.3608,-180.1758,-14.9536,90,0.7644,0.3732,-71.4717,-25.6185,32,0.7604,15236,4.037,-5.9046
rg,1625051500079173289,1,0.9336,-0.6431,0.614,612,117.0044,-121.9482,-10.9863,90,0.7654,0.3702,-74.9243,-29.1852,32,0.7604,7793,4.037,2.6202
rg,1625051500079203307,1,0.9641,-0.542,0.5391,613,117.6758,-88.1958,-7.6904,90,0.7664,0.3672,-75.9873,-29.0361,32,0.7604,7473,4.037,7.1541
rg,1625051500079222474,1,0.9177,-0.4712,0.53,614,108.1543,-15.625,-11.5356,90,0.7664,0.3662,-75.8523,-25.6449,32,0.7604,7670,4.037,7.9967
rg,1625051500079239788,1,0.7388,-0.4055,0.5242,615,89.4775,37.7808,-20.9961,90,0.7664,0.3662,-73.8391,-18.4368,32,0.7614,7542,4.037,4.0409
rg,1625051500079257380,1,0.6411,-0.405,0.5432,616,78.4912,50.415,-25.7568,90,0.7674,0.3652,-71.0559,-12.48,32,0.7604,7674,4.037,0.8427
rg,1625051500079274602,1,0.4683,-0.415,0.5813,617,66.8335,51.0254,-33.3862,90,0.7664,0.3672,-68.1215,-7.5712,32,0.7604,7789,4.037,-1.8457
rg,1625051500079291380,1,0.3684,-0.4585,0.7361,618,62.6831,26.6113,-37.3535,90,0.7674,0.3682,-65.8301,-3.6401,32,0.7614,7765,4.037,-3.7673
rg,1625051500079308028,1,0.3391,-0.4988,0.842,619,63.1714,10.6201,-37.2925,90,0.7684,0.3682,-64.0573,-0.2947,32,0.7604,7577,4.037,-5.1281
rg,1625051500079324120,1,0.3,-0.5771,0.9973,620,76.7822,-31.7993,-31.7993,90,0.7674,0.3672,-63.8485,2.8464,32,0.7594,8158,4.037,-5.7533
rg,1625051500079340694,1,0.5435,-0.4729,0.9001,621,112.793,-128.2959,-4.6997,90,0.7684,0.3632,-67.7921,6.0532,32,0.7614,14412,4.037,-4.8492
rg,1625051500079358101,1,0.7935,-0.3711,0.7554,622,121.0327,-157.1655,10.498,90,0.7684,0.3622,-73.193,9.3104,32,0.7614,9007,4.037,-3.583
rg,1625051500079375564,1,0.9189,-0.3364,0.7,623,119.9951,-151.3672,11.8408,90,0.7694,0.3642,-78.2467,13.3537,32,0.7614,7678,4.037,-3.178
rg,1625051500079392712,1,1.0876,-0.2891,0.5886,624,105.7739,-94.9097,9.2163,90,0.7694,0.3632,-81.1194,16.5735,32,0.7624,7769,4.037,-2.483
rg,1625051500079409582,1,1.0852,-0.2192,0.5645,625,87.1582,-5.0659,-2.1362,90,0.7704,0.3632,-80.7412,16.0407,32,0.7624,8041,4.037,1.5193
rg,1625051500079426637,1,0.9863,-0.1956,0.594,626,72.0215,35.1562,-12.0239,90,0.7714,0.3622,-78.7706,15.1351,32,0.7614,8225,4.037,5.3576
rg,1625051500079443952,1,0.7571,-0.2451,0.6772,627,47.8516,85.3271,-22.3999,90,0.7714,0.3632,-74.554,13.1246,32,0.7614,8716,4.037,9.3256
rg,1625051500079474081,1,0.5786,-0.3193,0.7957,628,44.3115,104.6143,-20.752,90,0.7714,0.3642,-69.2951,11.1481,32,0.7604,8705,4.037,13.0309
rg,1625051500079493044,1,0.4341,-0.3372,0.9045,629,46.7529,104.3091,-15.8081,90,0.7724,0.3642,-64.1782,10.0195,32,0.7624,8126,4.037,16.2766
rg,1625051500079510080,1,0.3777,-0.3293,0.9407,630,63.7207,80.3833,-5.5542,90,0.7734,0.3632,-59.7064,9.6967,32,0.7614,8276,4.037,19.0266
rg,1625051500079527321,1,0.3616,-0.2734,0.99,631,77.6978,28.9307,6.3477,90,0.7754,0.3672,-57.3335,10.2757,32,0.7634,7797,4.037,21.4486
rg,1625051500079544302,1,0.4802,-0.2131,0.9744,632,80.4443,-33.5693,13.1836,90,0.7774,0.3692,-57.6789,11.5606,32,0.7634,7970,4.037,23.2215
rg,1625051500079561376,1,0.5581,-0.2007,0.9463,633,79.7729,-54.9316,15.3198,90,0.7784,0.3712,-59.0122,12.986,32,0.7634,8343,4.037,24.7836
rg,1625051500079578339,1,0.7229,-0.1943,0.8748,634,75.0122,-74.1577,15.2588,90,0.7814,0.3752,-61.3621,14.6031,32,0.7634,8029,4.037,25.9032
rg,1625051500079594913,1,0.8096,-0.1736,0.8384,635,65.5518,-54.8096,8.606,90,0.7814,0.3772,-62.9794,16.0794,32,0.7644,8304,4.037,26.7828
rg,1625051500079612598,1,0.8115,-0.1487,0.8071,636,62.6831,-35.8887,3.2959,90,0.7834,0.3752,-63.7866,17.5895,32,0.7644,8098,4.037,27.5346
rg,1625051500079629820,1,0.7527,-0.1084,0.8242,637,49.6216,1.3428,0.2441,90,0.7834,0.3752,-63.037,17.8837,32,0.7644,8352,4.037,29.0711
rg,1625051500079646986,1,0.7188,-0.1594,0.958,638,39.5508,23.1323,0.061,90,0.7844,0.3762,-61.3255,17.1097,32,0.7644,8843,4.037,31.3147
rg,1625051500079664338,1,0.6914,-0.2532,1.0728,639,38.6353,33.8135,4.6387,90,0.7854,0.3762,-59.2059,15.6947,32,0.7654,9319,4.037,34.1989
rg,1625051500079680856,1,0.782,-0.3057,1.2334,640,44.9219,31.6162,12.207,90,0.7874,0.3772,-57.2743,14.3646,32,0.7654,9136,4.037,37.3088
rg,1625051500465104944,1,0.9954,-0.2854,1.1443,641,71.0449,-4.6997,52.063,90,0.7914,0.3712,-57.9496,15.4276,32,0.7674,25984,4.037,39.977
rg,1625051500465143999,1,0.491,0.2896,0.4539,642,41.5649,33.0811,15.4419,90,0.7934,0.3752,-55.8942,14.2541,32,0.7694,14580,4.037,41.6176
rg,1625051500465187535,1,0.5059,0.1794,0.729,643,-41.0767,38.147,24.4751,90,0.7954,0.3842,-54.3412,8.7693,32,0.7694,10097,4.037,44.4188
rg,1625051500465208628,1,0.5925,-0.3369,0.8384,644,-81.7261,8.7891,19.3481,90,0.7984,0.3922,-53.421,2.8051,32,0.7694,7678,4.037,47.0947
rg,1625051500465227387,1,0.5605,-0.5801,0.7578,645,-49.3774,17.334,8.606,90,0.8014,0.3962,-52.1731,-1.6946,32,0.7704,7573,4.037,49.3479
rg,1625051500465245479,1,0.5085,-0.5669,0.7632,646,-22.8882,26.123,4.3335,90,0.8024,0.3982,-50.4569,-4.5685,32,0.7704,7728,4.037,50.9754
rg,1625051500465262886,1,0.4094,-0.3645,0.8638,647,16.3574,41.3818,2.5635,90,0.8044,0.4032,-47.8575,-4.8751,32,0.7704,7600,4.037,51.6974
rg,1625051500465280404,1,0.386,-0.2407,0.9719,648,27.4658,28.5034,12.6953,93,0.8044,0.4032,-45.6755,-4.7067,32,0.7694,9086,4.0381,52.6644
rg,1625051500465297311,1,0.4307,-0.2563,1.0029,649,26.6724,-10.0708,19.2261,93,0.8064,0.4052,-45.1306,-4.9551,32,0.7704,7767,4.0381,54.1662
rg,1625051500465315033,1,0.4526,-0.2681,0.9568,650,28.3813,-31.0669,22.8271,93,0.8064,0.4052,-46.3276,-5.2574,32,0.7704,7856,4.0381,56.1823
rg,1625051500465332644,1,0.5408,-0.1638,0.8428,651,36.1328,-63.1104,26.1841,93,0.8054,0.4042,-48.1666,-5.4865,32,0.7694,7656,4.0381,58.2795
rg,1625051500465350459,1,0.6375,-0.0715,0.7671,652,27.4658,-79.4678,28.2593,93,0.8074,0.4022,-50.8396,-6.0785,32,0.7704,7841,4.0381,60.5064
rg,1625051500465367144,1,0.7053,-0.0696,0.7573,653,17.5781,-79.9561,29.3579,93,0.8064,0.4002,-53.5216,-7.3229,32,0.7704,7663,4.0381,62.9948
rg,1625051500465384218,1,0.8145,-0.1606,0.74,654,-3.8452,-57.1289,25.8179,93,0.8084,0.4012,-55.341,-9.6012,32,0.7704,7754,4.0381,65.5217
rg,1625051500465401421,1,0.8071,-0.2644,0.7256,655,-10.7422,-35.7666,23.5596,93,0.8084,0.4012,-55.1897,-11.9537,32,0.7704,7592,4.0381,67.4942
rg,1625051500465418643,1,0.7581,-0.2778,0.7502,656,-14.1602,13.3667,18.8599,93,0.8084,0.4012,-54.042,-13.7888,32,0.7704,7763,4.0381,68.8918
rg,1625051500465436365,1,0.6162,-0.2708,0.7988,657,-9.3994,43.2129,8.1787,93,0.8084,0.4032,-51.5978,-14.2801,32,0.7704,8927,4.0381,68.9225
rg,1625051500465464568,1,0.5005,-0.2825,0.8406,658,-8.7891,52.6733,10.6201,93,0.8084,0.4032,-48.6077,-14.7124,32,0.7694,9574,4.0381,68.9095
rg,1625051500465482420,1,0.4426,-0.3123,0.8938,659,0.4883,36.2549,15.9302,93,0.8094,0.4042,-46.1413,-15.1879,32,0.7704,7763,4.0381,69.4375
rg,1625051500465499920,1,0.4355,-0.2991,0.8899,660,6.2256,21.7285,18.0054,93,0.8074,0.4032,-44.2886,-15.5733,32,0.7694,7839,4.0381,70.2145
rg,1625051500465516401,1,0.4839,-0.2539,0.8745,661,17.4561,-5.4932,23.3154,93,0.8094,0.4022,-43.5996,-15.8259,32,0.7674,7746,4.0381,71.5634
rg,1625051500465533567,1,0.5601,-0.208,0.8384,662,20.3857,-12.6953,25.0244,93,0.8094,0.4012,-43.509,-16.0101,32,0.7704,7959,4.0381,73.127
rg,1625051500465551641,1,0.5901,-0.1924,0.8279,663,18.9819,-15.4419,26.123,93,0.8084,0.3992,-43.4547,-16.2331,32,0.7694,7796,4.0381,74.6559
rg,1625051500465568659,1,0.6331,-0.1841,0.8147,664,15.3809,-7.3242,26.7944,93,0.8094,0.3992,-43.1745,-16.5114,33,0.7694,7995,4.0381,76.0765
rg,1625051500465585826,1,0.6221,-0.1892,0.8198,665,13.3057,0.3052,25.3906,93,0.8094,0.3982,-42.303,-16.7136,33,0.7704,7888,4.0381,77.1399
rg,1625051500465602715,1,0.6106,-0.1826,0.8374,666,8.8501,16.4795,23.6816,93,0.8074,0.3972,-41.1257,-16.8044,33,0.7694,7972,4.0381,77.9672
rg,1625051500465619270,1,0.5642,-0.1968,0.8572,667,7.3853,25.2686,22.583,93,0.8084,0.3992,-39.5624,-16.8216,33,0.7704,7879,4.0381,78.6013
rg,1625051500465635733,1,0.5249,-0.218,0.8582,668,6.4697,26.3062,21.8506,93,0.8094,0.3992,-37.9486,-16.8732,32,0.7704,8623,4.0381,79.2064
rg,1625051500465652066,1,0.5078,-0.2241,0.8645,669,6.0425,25.6348,21.6675,93,0.8084,0.3992,-36.3843,-16.9288,32,0.7694,7889,4.0381,79.8059
rg,1625051500465668121,1,0.4739,-0.2419,0.8669,670,5.6763,20.5688,21.1792,93,0.8094,0.3992,-35.0058,-17.0491,32,0.7694,8101,4.0381,80.469
rg,1625051500465684158,1,0.4517,-0.2502,0.8701,671,6.1035,11.9629,20.3247,93,0.8094,0.3992,-33.9682,-17.1945,32,0.7704,7998,4.0381,81.2124
rg,1625051500465700158,1,0.4583,-0.2517,0.8762,672,6.5308,5.4321,19.7754,93,0.8104,0.4002,-33.2313,-17.3384,32,0.7704,8195,4.0381,82.011
rg,1625051500804131438,1,0.5576,-0.2341,0.8428,673,6.2256,-9.7656,21.4233,93,0.8124,0.4022,-33.3081,-17.6262,32,0.7704,26796,4.0381,83.0875
rg,1625051500804169048,1,0.5891,-0.238,0.8608,674,0.5493,0,20.813,93,0.8134,0.4032,-33.0493,-18.0317,32,0.7714,8211,4.0381,83.9847
rg,1625051500804189752,1,0.5408,-0.2688,0.8542,675,-3.1128,10.6812,17.8223,93,0.8134,0.4052,-32.3376,-18.476,32,0.7714,7657,4.0381,84.6141
rg,1625051500804209029,1,0.5039,-0.2747,0.863,676,-3.6011,13.855,15.7471,93,0.8144,0.4072,-31.4106,-18.8419,32,0.7704,7671,4.0381,85.0863
rg,1625051500804227566,1,0.4521,-0.2805,0.8887,677,-2.4414,14.0381,16.9678,93,0.8154,0.4082,-30.4352,-19.1533,32,0.7714,7744,4.0381,85.5883
rg,1625051500804245084,1,0.4326,-0.2954,0.8987,678,0.4883,5.4321,17.395,93,0.8164,0.4092,-29.7918,-19.4342,33,0.7714,12274,4.0381,86.2442
rg,1625051500804262769,1,0.4619,-0.2905,0.8923,679,4.8828,-5.0659,18.1885,93,0.8164,0.4092,-29.6349,-19.6025,33,0.7714,9943,4.0381,87.0787
rg,1625051500804280195,1,0.4968,-0.2612,0.8774,680,8.606,-10.1929,17.5781,93,0.8164,0.4082,-29.7296,-19.5883,33,0.7714,7554,4.0381,87.9363
rg,1625051500804300046,1,0.5039,-0.2485,0.8738,681,8.7891,-8.8501,15.8691,93,0.8164,0.4102,-29.8153,-19.4943,33,0.7714,7717,4.0381,88.6859
rg,1625051500804361453,1,0.5095,-0.2344,0.8757,682,7.6904,-7.6904,15.564,93,0.8164,0.4092,-29.8731,-19.3983,32,0.7724,7642,4.0381,89.3887
rg,1625051500804381434,1,0.5022,-0.2334,0.8809,683,5.8594,-6.7139,14.7095,93,0.8174,0.4092,-29.8852,-19.347,32,0.7724,7724,4.0381,90.0379
rg,1625051500804398934,1,0.4958,-0.2366,0.8792,684,6.3477,-7.019,13.9771,93,0.8174,0.4092,-29.9071,-19.2733,32,0.7724,9177,4.0381,90.6652
rg,1625051500804416248,1,0.4946,-0.2202,0.8796,685,5.5542,-7.7515,15.1978,93,0.8154,0.4092,-29.9431,-19.2264,32,0.7714,7845,4.0381,91.3381
rg,1625051500804432637,1,0.4849,-0.2166,0.8823,686,5.0659,-6.5918,14.7705,93,0.8174,0.4092,-29.9199,-19.1712,32,0.7714,7951,4.0381,91.9697
rg,1625051500804468303,1,0.4897,-0.2188,0.8799,687,4.1504,-7.3853,14.2822,93,0.8174,0.4102,-29.9453,-19.1575,32,0.7724,8196,4.0381,92.5969
rg,1625051500804486581,1,0.481,-0.2197,0.8826,688,4.0894,-8.5449,16.1743,93,0.8164,0.4092,-29.9684,-19.1969,32,0.7714,8189,4.0381,93.3246
rg,1625051500804504284,1,0.4854,-0.2388,0.8811,689,1.9531,-7.6904,15.9912,93,0.8164,0.4102,-29.963,-19.3573,32,0.7714,8164,4.0381,94.0547
rg,1625051500804522376,1,0.4827,-0.2493,0.8816,690,2.3193,-9.2163,14.1602,93,0.8164,0.4102,-30.0285,-19.4939,32,0.7724,11681,4.0381,94.7383
rg,1625051500804539802,1,0.4792,-0.2417,0.8767,691,2.6245,-10.3149,13.4888,93,0.8174,0.4102,-30.1412,-19.593,32,0.7714,7923,4.0381,95.4001
rg,1625051500804557709,1,0.4878,-0.2368,0.8816,692,3.3569,-13.4888,13.7329,93,0.8164,0.4112,-30.3777,-19.6769,32,0.7724,8123,4.0381,96.1139
rg,1625051500804575764,1,0.489,-0.2349,0.884,693,2.4414,-14.3433,13.6719,93,0.8174,0.4112,-30.6287,-19.7919,33,0.7724,8309,4.0381,96.8327
rg,1625051500804592357,1,0.4827,-0.2302,0.887,694,2.7466,-14.2212,12.146,93,0.8174,0.4112,-30.88,-19.8499,33,0.7724,8168,4.0381,97.4775
rg,1625051500804609264,1,0.4849,-0.2297,0.8867,695,2.0142,-14.5264,11.6577,93,0.8174,0.4122,-31.1434,-19.9289,33,0.7714,10033,4.0381,98.1055
rg,1625051500804627245,1,0.4854,-0.2292,0.8845,696,2.0752,-17.5171,12.6343,93,0.8174,0.4132,-31.4972,-20.0542,33,0.7714,8881,4.0381,98.825
rg,1625051500804643615,1,0.4927,-0.2358,0.8799,697,3.6011,-18.1274,12.8174,93,0.8174,0.4122,-31.8721,-20.1493,32,0.7724,8743,4.0381,99.5733
rg,1625051500804660115,1,0.502,-0.2295,0.8711,698,4.4556,-18.1274,12.9395,93,0.8174,0.4132,-32.2557,-20.192,32,0.7724,7889,4.0381,100.315
rg,1625051500804677133,1,0.5071,-0.2302,0.884,699,5.0049,-17.334,12.5732,93,0.8174,0.4132,-32.5987,-20.2093,32,0.7714,8453,4.0381,101.0328
rg,1625051500804693837,1,0.5066,-0.2349,0.8777,700,4.2725,-15.8691,12.6953,93,0.8184,0.4132,-32.8749,-20.2657,33,0.7724,7944,4.0381,101.7418
rg,1625051500804710392,1,0.5007,-0.2273,0.8684,701,4.0894,-16.4185,14.1602,93,0.8194,0.4142,-33.1773,-20.3512,33,0.7734,8163,4.0381,102.5262
rg,1625051500804738984,1,0.5029,-0.2197,0.8716,702,4.5776,-16.7847,13.1226,93,0.8184,0.4142,-33.4624,-20.3837,33,0.7724,7993,4.0381,103.2517
rg,1625051500804756466,1,0.522,-0.2251,0.8718,703,3.8452,-19.104,13.9771,93,0.8194,0.4152,-33.8436,-20.508,33,0.7724,8170,4.0381,104.065
rg,1625051500804773336,1,0.5278,-0.2368,0.8618,704,1.8311,-19.2261,13.2446,93,0.8194,0.4162,-34.2391,-20.7352,33,0.7734,8820,4.0381,104.8697
rg,1625051501149192540,1,0.5332,-0.2405,0.8691,705,3.6011,-11.5356,15.7471,93,0.8204,0.4172,-34.2962,-20.8811,33,0.7724,27158,4.0381,105.655
rg,1625051501149229521,1,0.5305,-0.2346,0.8682,706,4.6997,-10.3149,14.5874,93,0.8204,0.4172,-34.269,-20.9083,32,0.7734,8749,4.0381,106.3733
rg,1625051501149249798,1,0.532,-0.2324,0.8645,707,4.8218,-7.2632,15.3198,93,0.8204,0.4192,-34.1768,-20.9287,32,0.7744,7545,4.0381,107.0515
rg,1625051501149268761,1,0.5156,-0.2283,0.8831,708,4.5776,-3.0518,14.5264,93,0.8204,0.4202,-33.8938,-20.8714,32,0.7734,11806,4.0381,107.6063
rg,1625051501149286761,1,0.5002,-0.2222,0.8811,709,4.8828,-1.8311,15.4419,93,0.8204,0.4202,-33.5347,-20.7771,32,0.7744,9831,4.0381,108.1622
rg,1625051501149304020,1,0.4888,-0.2166,0.8872,710,4.8218,-3.8452,17.395,93,0.8204,0.4212,-33.2184,-20.7487,33,0.7744,7651,4.0381,108.8398
rg,1625051501149320742,1,0.4939,-0.2256,0.886,711,3.6621,-5.9814,17.334,93,0.8204,0.4212,-33.0023,-20.8062,33,0.7744,7756,4.0381,109.5641
rg,1625051501149338112,1,0.4937,-0.2332,0.8799,712,4.4556,-7.6904,16.8457,93,0.8204,0.4212,-32.8672,-20.8542,33,0.7744,9885,4.0381,110.3066
rg,1625051501149354908,1,0.491,-0.2283,0.874,713,5.4321,-7.5073,16.2964,93,0.8204,0.4222,-32.7583,-20.8616,33,0.7744,9057,4.0381,111.0174
rg,1625051501149371259,1,0.4888,-0.229,0.8865,714,5.0049,-9.1553,15.686,93,0.8204,0.4212,-32.6893,-20.8522,33,0.7744,7682,4.0381,111.7227
rg,1625051501149388370,1,0.4915,-0.2234,0.8777,715,5.4321,-9.7046,16.7847,93,0.8204,0.4222,-32.6439,-20.8492,33,0.7744,7885,4.0381,112.4822
rg,1625051501149405166,1,0.4912,-0.2205,0.8865,716,3.8452,-10.0708,15.9302,93,0.8204,0.4212,-32.6218,-20.885,33,0.7754,7695,4.0381,113.2062
rg,1625051501149459777,1,0.4958,-0.2214,0.8813,717,3.6011,-11.6577,15.1978,93,0.8194,0.4232,-32.6792,-20.9263,32,0.7744,9097,4.0381,113.9241
rg,1625051501149480313,1,0.4949,-0.2346,0.8789,718,2.2583,-11.4136,14.4653,93,0.8194,0.4232,-32.7303,-21.035,32,0.7734,8368,4.0381,114.6236
rg,1625051501149498554,1,0.4988,-0.2346,0.8772,719,3.7231,-12.085,14.5264,93,0.8194,0.4242,-32.8117,-21.0914,32,0.7744,7984,4.0381,115.3367
rg,1625051501149515683,1,0.5017,-0.2327,0.876,720,3.9062,-12.3291,14.6484,93,0.8194,0.4242,-32.9042,-21.1412,32,0.7744,7869,4.0381,116.0567
rg,1625051501149532572,1,0.5054,-0.2295,0.8723,721,5.6152,-13.4888,15.8691,93,0.8174,0.4232,-33.03,-21.1583,32,0.7744,8159,4.0381,116.8482
rg,1625051501149549294,1,0.5063,-0.2202,0.8708,722,5.3101,-11.7798,15.3198,93,0.8204,0.4252,-33.1025,-21.137,32,0.7754,7888,4.0381,117.5735
rg,1625051501149565775,1,0.5061,-0.2231,0.8782,723,5.7373,-11.5967,15.9302,93,0.8194,0.4252,-33.1528,-21.099,32,0.7754,8185,4.0381,118.3155
rg,1625051501149581849,1,0.5068,-0.2134,0.8828,724,5.3101,-8.7891,15.686,93,0.8184,0.4262,-33.0967,-21.0362,32,0.7744,7855,4.0381,118.9924
rg,1625051501149598793,1,0.5073,-0.208,0.8735,725,4.5166,-9.0942,15.3198,93,0.8214,0.4252,-33.0722,-20.994,32,0.7754,8060,4.0381,119.6558
rg,1625051501149615515,1,0.5071,-0.2068,0.8784,726,4.2114,-9.0942,16.2964,93,0.8214,0.4252,-33.0255,-20.9855,32,0.7754,7923,4.0381,120.3615
rg,1625051501149632348,1,0.5049,-0.2124,0.8816,727,2.2583,-6.7749,16.1133,93,0.8204,0.4262,-32.8919,-21.0363,32,0.7744,8111,4.0381,121.0235
rg,1625051501149649163,1,0.4949,-0.2048,0.8792,728,1.0986,-6.2866,14.7095,93,0.8224,0.4262,-32.7516,-21.0722,32,0.7754,7933,4.0381,121.6028
rg,1625051501149665811,1,0.5005,-0.1946,0.8811,729,0.9155,-6.1646,16.4795,93,0.8234,0.4272,-32.5252,-21.1059,32,0.7744,8157,4.0381,122.1577
rg,1625051501149682366,1,0.491,-0.2039,0.8926,730,-1.2817,-4.6387,14.8926,93,0.8244,0.4282,-32.3145,-21.2062,32,0.7744,8002,4.0381,122.708
rg,1625051501149699329,1,0.4822,-0.2314,0.8923,731,-2.8076,-5.188,14.9536,93,0.8264,0.4312,-32.1028,-21.4341,32,0.7744,8062,4.0381,123.3038
rg,1625051501149727977,1,0.4663,-0.252,0.8884,732,-1.0986,-6.5308,13.6108,93,0.8274,0.4362,-31.9321,-21.6147,32,0.7744,11413,4.0381,123.8861
rg,1625051501149746125,1,0.4619,-0.2539,0.8806,733,1.1597,-8.5449,13.855,93,0.8304,0.4362,-31.8356,-21.7308,33,0.7764,8077,4.0381,124.5159
rg,1625051501149762106,1,0.4714,-0.2529,0.8838,734,1.5869,-13.0615,14.6484,93,0.8314,0.4382,-31.9887,-21.7838,33,0.7764,8304,4.0381,125.2731
rg,1625051501149781032,1,0.4802,-0.2478,0.8865,735,5.4321,-16.9678,14.6484,93,0.8324,0.4382,-32.2207,-21.8052,33,0.7754,8139,4.0381,126.0748
rg,1625051501149796994,1,0.5117,-0.2454,0.8796,736,6.7139,-17.7002,14.9536,93,0.8344,0.4412,-32.5335,-21.796,33,0.7764,8350,4.0381,126.9053
rg,1625051501504075939,1,0.5283,-0.2156,0.8584,737,5.6763,-11.2915,14.0991,93,0.8354,0.4432,-32.6757,-21.6955,32,0.7794,26093,4.0381,127.5553
rg,1625051501504122605,1,0.5229,-0.22,0.8728,738,3.7842,-6.2256,13.916,93,0.8364,0.4432,-32.6016,-21.6221,32,0.7794,8946,4.0381,128.1093
rg,1625051501504152364,1,0.5059,-0.21,0.8743,739,4.4556,-4.8218,15.8691,93,0.8374,0.4442,-32.4209,-21.5283,32,0.7804,13503,4.0381,128.7106
rg,1625051501504180215,1,0.5,-0.2085,0.8738,740,3.479,-4.8828,16.6626,93,0.8364,0.4452,-32.2284,-21.49,32,0.7804,9224,4.0381,129.3474
rg,1625051501504208048,1,0.498,-0.2224,0.8794,741,1.4038,-4.6997,16.1743,93,0.8374,0.4452,-32.0288,-21.5505,32,0.7804,7633,4.0381,129.9761
rg,1625051501504234844,1,0.4937,-0.2261,0.887,742,0.8545,-5.127,16.1133,93,0.8374,0.4462,-31.775,-21.5824,32,0.7804,7637,4.0381,130.5163
rg,1625051501504260473,1,0.4731,-0.2283,0.8896,743,1.0986,-4.5166,15.1367,93,0.8374,0.4462,-31.564,-21.6266,32,0.7804,7648,4.0381,131.0934
rg,1625051501504285362,1,0.4675,-0.2263,0.9004,744,2.0752,-6.897,14.7705,93,0.8374,0.4462,-31.4115,-21.6251,32,0.7804,7570,4.0381,131.6899
rg,1625051501504309861,1,0.4722,-0.2285,0.8953,745,2.5024,-9.3994,14.0381,93,0.8374,0.4462,-31.3812,-21.621,32,0.7804,7762,4.0381,132.303
rg,1625051501504445915,1,0.4727,-0.2307,0.8931,746,2.8687,-10.498,14.0991,93,0.8384,0.4472,-31.394,-21.6206,33,0.7804,7642,4.0381,132.9417
rg,1625051501504504174,1,0.4766,-0.2295,0.8914,747,2.9907,-12.5122,13.9771,93,0.8384,0.4472,-31.4922,-21.6301,33,0.7804,7795,4.0381,133.6097
rg,1625051501504532784,1,0.4836,-0.2288,0.8816,748,3.9062,-13.4888,13.6719,93,0.8384,0.4472,-31.6504,-21.6125,33,0.7814,7825,4.0381,134.2849
rg,1625051501504559691,1,0.4895,-0.2285,0.8884,749,4.0283,-13.6719,13.7939,93,0.8384,0.4472,-31.7987,-21.5705,33,0.7814,8584,4.0381,134.8829
rg,1625051501504603320,1,0.4888,-0.2241,0.8811,750,3.9673,-13.0615,12.5122,93,0.8384,0.4482,-31.9803,-21.5433,32,0.7814,9534,4.0381,135.5559
rg,1625051501504629802,1,0.4919,-0.2139,0.8813,751,4.0283,-13.916,13.7939,93,0.8374,0.4472,-32.1564,-21.5022,32,0.7804,8169,4.0381,136.2276
rg,1625051501504654986,1,0.5107,-0.2188,0.8755,752,3.7231,-13.6108,14.4653,93,0.8394,0.4472,-32.3442,-21.5092,32,0.7814,8068,4.0381,136.9349
rg,1625051501504679893,1,0.5166,-0.2263,0.8762,753,2.1973,-10.8643,13.6108,93,0.8394,0.4482,-32.4424,-21.5521,33,0.7814,8748,4.0381,137.567
rg,1625051501504704875,1,0.5095,-0.2278,0.8794,754,1.5869,-9.3994,13.9771,93,0.8394,0.4482,-32.4596,-21.6137,33,0.7824,8076,4.0381,138.189
rg,1625051501504731152,1,0.4941,-0.2253,0.8889,755,3.1128,-7.2021,13.7329,93,0.8374,0.4472,-32.3608,-21.5703,33,0.7814,8240,4.0381,138.7522
rg,1625051501504758263,1,0.4834,-0.2239,0.8867,756,4.5776,-6.897,13.6719,93,0.8394,0.4472,-32.2383,-21.4613,33,0.7814,8069,4.0381,139.3062
rg,1625051501504784892,1,0.4871,-0.2183,0.8904,757,4.6997,-7.1411,14.4653,93,0.8394,0.4492,-32.19,-21.4165,33,0.7814,8258,4.0381,139.9818
rg,1625051501504812466,1,0.5024,-0.2214,0.8894,758,4.6997,-7.4463,14.4043,93,0.8404,0.4482,-32.1198,-21.324,33,0.7824,12791,4.0381,140.5777
rg,1625051501504841836,1,0.4976,-0.2266,0.8855,759,5.5542,-5.4932,15.9912,93,0.8404,0.4482,-31.9503,-21.2338,33,0.7824,9571,4.0381,141.2192
rg,1625051501504868891,1,0.5042,-0.2217,0.8809,760,5.4321,-4.6387,16.3574,93,0.8404,0.4492,-31.7704,-21.1427,33,0.7824,8197,4.0381,141.8595
rg,1625051501504896131,1,0.4939,-0.2158,0.885,761,5.7983,-4.3945,16.2964,93,0.8404,0.4482,-31.569,-21.0161,32,0.7824,8036,4.0381,142.4846
rg,1625051501504958630,1,0.4856,-0.2224,0.8904,762,5.0659,-2.5024,15.9302,93,0.8404,0.4482,-31.2881,-20.9074,32,0.7824,7871,4.0381,143.0701
rg,1625051501504987797,1,0.4819,-0.2234,0.8811,763,6.4697,-2.8687,16.6016,93,0.8394,0.4492,-31.0248,-20.7708,32,0.7814,9147,4.0381,143.6977
rg,1625051501505015222,1,0.4839,-0.2185,0.8823,764,7.019,-3.3569,15.8691,91,0.8404,0.4502,-30.8169,-20.6221,33,0.7824,8331,4.0392,144.3694
rg,1625051501505043333,1,0.4824,-0.2183,0.8882,765,7.2021,-5.4321,17.7612,91,0.8394,0.4492,-30.6503,-20.4928,33,0.7824,8085,4.0392,145.0865
rg,1625051501505072851,1,0.48,-0.2163,0.8867,766,6.1035,-3.418,17.2119,91,0.8404,0.4502,-30.4215,-20.3769,33,0.7804,7957,4.0392,145.7468
rg,1625051501505100129,1,0.4858,-0.2153,0.8933,767,5.188,-2.9907,17.334,91,0.8414,0.4512,-30.1905,-20.2923,33,0.7834,8163,4.0392,146.4045
rg,1625051501505128999,1,0.479,-0.2156,0.8921,768,5.5542,-2.8076,16.9678,91,0.8434,0.4512,-29.902,-20.1549,32,0.7804,9580,4.0392,146.9616
rg,1625051501855448422,1,0.4468,-0.2192,0.8911,769,2.5024,-0.6104,16.5405,91,0.8404,0.4532,-29.5853,-20.1159,32,0.7834,28042,4.0392,147.5492
rg,1625051501855484588,1,0.4473,-0.2246,0.9097,770,2.8076,-3.6621,14.5264,91,0.8404,0.4532,-29.3601,-20.079,33,0.7834,13156,4.0392,148.1039
rg,1625051501856204560,1,0.4438,-0.217,0.905,771,3.2959,-8.728,16.1743,91,0.8414,0.4532,-29.3138,-20.0779,33,0.7844,10241,4.0392,148.8015
rg,1625051501856236634,1,0.4502,-0.2087,0.9126,772,3.9062,-10.0708,14.7095,91,0.8414,0.4542,-29.3455,-20.0107,33,0.7844,7472,4.0392,149.4469
rg,1625051501856277744,1,0.4602,-0.2141,0.905,773,3.479,-13.1226,15.9912,91,0.8414,0.4542,-29.4973,-20.034,33,0.7834,7822,4.0392,150.2067
rg,1625051501856299818,1,0.4595,-0.218,0.9045,774,2.9907,-12.6343,15.0146,91,0.8414,0.4552,-29.6355,-20.0632,33,0.7834,7592,4.0392,150.9215
rg,1625051501856320632,1,0.4636,-0.2195,0.8989,775,3.1738,-13.2446,14.6484,91,0.8414,0.4562,-29.8085,-20.0907,33,0.7844,7690,4.0392,151.6341
rg,1625051501856340003,1,0.4709,-0.2188,0.9021,776,3.479,-13.6108,13.9771,91,0.8404,0.4552,-30.009,-20.0931,33,0.7834,11334,4.0392,152.3221
rg,1625051501856381187,1,0.481,-0.2178,0.8938,777,3.6621,-14.0991,15.1978,91,0.8414,0.4552,-30.2303,-20.1257,33,0.7844,7941,4.0392,153.0737
rg,1625051501856400909,1,0.4807,-0.2195,0.8975,778,3.2349,-14.0381,15.0757,91,0.8404,0.4552,-30.4372,-20.1759,33,0.7834,7846,4.0392,153.8202
rg,1625051501856419205,1,0.4871,-0.2092,0.8838,779,3.7842,-11.9019,14.2212,91,0.8424,0.4562,-30.5969,-20.1535,33,0.7844,7807,4.0392,154.4869
rg,1625051501856437853,1,0.4873,-0.2134,0.8936,780,3.54,-11.2305,14.3433,91,0.8414,0.4562,-30.7167,-20.1509,33,0.7854,12494,4.0392,155.1541
rg,1625051501856456501,1,0.4863,-0.2175,0.897,781,2.3804,-8.9722,16.2964,91,0.8424,0.4562,-30.7098,-20.2219,33,0.7854,7836,4.0392,155.8709
rg,1625051501856478760,1,0.4756,-0.22,0.8958,782,2.9907,-7.6904,16.2964,91,0.8424,0.4562,-30.6344,-20.2601,33,0.7854,7579,4.0392,156.5682
rg,1625051501856501223,1,0.469,-0.2156,0.9048,783,2.5024,-5.7983,15.5029,91,0.8424,0.4572,-30.4825,-20.2642,33,0.7854,7728,4.0392,157.1902
rg,1625051501856520852,1,0.4617,-0.2175,0.8936,784,2.9297,-5.5542,13.9771,91,0.8424,0.4572,-30.3442,-20.225,33,0.7854,7654,4.0392,157.7473
rg,1625051501856539833,1,0.4617,-0.2144,0.8938,785,3.7842,-8.9111,16.5405,91,0.8424,0.4582,-30.3023,-20.2278,32,0.7854,8926,4.0392,158.4667
rg,1625051501856561481,1,0.4746,-0.2075,0.8962,786,4.0894,-9.1553,14.7095,91,0.8424,0.4582,-30.3223,-20.1632,32,0.7854,9593,4.0392,159.1019
rg,1625051501856579833,1,0.4785,-0.2085,0.9001,787,4.3335,-9.3994,14.5874,91,0.8414,0.4582,-30.3563,-20.0914,32,0.7844,7850,4.0392,159.737
rg,1625051501856596684,1,0.4773,-0.1978,0.9038,788,4.6997,-9.0332,12.146,91,0.8424,0.4592,-30.408,-19.923,32,0.7824,7751,4.0392,160.2468
rg,1625051501856615591,1,0.4539,-0.2061,0.9009,789,4.6387,-10.0708,12.3901,91,0.8434,0.4592,-30.4531,-19.8595,32,0.7864,7892,4.0392,160.7804
rg,1625051501856634517,1,0.4695,-0.2051,0.9204,790,3.1738,-9.4604,14.0991,91,0.8424,0.4592,-30.4588,-19.8151,32,0.7844,7767,4.0392,161.3897
rg,1625051501856653721,1,0.4712,-0.2175,0.9006,791,5.0659,-10.9253,14.4043,91,0.8434,0.4602,-30.5326,-19.7588,32,0.7854,7904,4.0392,162.0583
rg,1625051501856692683,1,0.4739,-0.2173,0.9009,792,4.9438,-12.085,14.5264,91,0.8434,0.4612,-30.6086,-19.717,32,0.7864,7815,4.0392,162.759
rg,1625051501856710905,1,0.4739,-0.2102,0.8945,793,5.127,-9.7656,13.6108,91,0.8424,0.4612,-30.6584,-19.6233,32,0.7854,8006,4.0392,163.3696
rg,1625051501856736979,1,0.4651,-0.2144,0.8872,794,4.3945,-8.3618,14.3433,91,0.8434,0.4612,-30.6327,-19.5818,32,0.7864,7851,4.0392,163.999
rg,1625051501856756090,1,0.4651,-0.2175,0.8967,795,3.2349,-8.2397,15.9912,91,0.8434,0.4612,-30.5221,-19.6541,32,0.7864,8040,4.0392,164.6742
rg,1625051501856773978,1,0.4634,-0.2236,0.9009,796,2.7466,-6.958,16.5405,91,0.8424,0.4632,-30.3994,-19.7258,32,0.7854,7919,4.0392,165.3832
rg,1625051501856791404,1,0.4597,-0.2192,0.8953,797,1.5259,-6.958,17.0288,91,0.8434,0.4642,-30.2736,-19.8448,32,0.7864,8086,4.0392,166.1079
rg,1625051501856810330,1,0.45,-0.2266,0.8987,798,2.0142,-6.0425,16.0522,91,0.8434,0.4632,-30.1487,-19.9239,32,0.7864,7964,4.0392,166.8144
rg,1625051501856837440,1,0.4519,-0.2271,0.9106,799,0.8545,-7.4463,14.7705,91,0.8434,0.4642,-30.0479,-20.0208,32,0.7854,8102,4.0392,167.4479
rg,1625051501856857403,1,0.4431,-0.2263,0.9116,800,2.1362,-9.9487,15.564,91,0.8434,0.4642,-30.0151,-20.0956,32,0.7864,8000,4.0392,168.1521
rg,1625051502201452209,1,0.448,-0.2136,0.8999,801,2.3804,-12.0239,13.916,91,0.8444,0.4652,-30.182,-20.1186,32,0.7864,25814,4.0392,168.8241
rg,1625051502201485690,1,0.4729,-0.2092,0.8945,802,2.9297,-14.0991,13.3057,91,0.8434,0.4652,-30.4216,-20.1515,33,0.7864,14661,4.0392,169.4998
rg,1625051502201505541,1,0.4727,-0.2092,0.9014,803,2.6245,-14.1602,13.3057,91,0.8434,0.4652,-30.6342,-20.1613,33,0.7864,7625,4.0392,170.1569
rg,1625051502201524171,1,0.4761,-0.2119,0.9053,804,2.4414,-12.5122,13.7329,91,0.8444,0.4652,-30.7729,-20.1809,33,0.7864,7707,4.0392,170.8084
rg,1625051502201541744,1,0.4756,-0.217,0.8979,805,1.77,-10.498,13.0005,91,0.8444,0.4662,-30.8448,-20.2121,33,0.7864,7708,4.0392,171.4041
rg,1625051502201559448,1,0.4775,-0.2148,0.8975,806,1.9531,-10.9253,14.2822,91,0.8434,0.4662,-30.9167,-20.2632,32,0.7864,7751,4.0392,-187.9401
rg,1625051502201597151,1,0.4727,-0.2185,0.8948,807,1.6479,-9.7656,14.6484,91,0.8424,0.4662,-30.9285,-20.3337,32,0.7844,8046,4.0392,-187.2827
rg,1625051502201615984,1,0.4724,-0.2192,0.8994,808,3.0518,-8.9722,15.3198,91,0.8434,0.4672,-30.8955,-20.3526,32,0.7864,8271,4.0392,-186.6109
rg,1625051502201634077,1,0.4734,-0.2119,0.9016,809,3.3569,-7.6294,15.0757,91,0.8424,0.4662,-30.8196,-20.3219,32,0.7854,7656,4.0392,-185.9822
rg,1625051502201652076,1,0.4668,-0.2153,0.8982,810,2.1973,-7.3242,15.686,91,0.8434,0.4672,-30.7159,-20.3584,33,0.7854,7795,4.0392,-185.3265
rg,1625051502201669095,1,0.4609,-0.2122,0.9036,811,2.7466,-7.1411,15.625,91,0.8434,0.4672,-30.595,-20.3553,33,0.7864,7629,4.0392,-184.6835
rg,1625051502201685965,1,0.4663,-0.208,0.9067,812,1.9531,-7.5073,15.564,91,0.8434,0.4662,-30.5024,-20.3727,33,0.7854,7884,4.0392,-184.0433
rg,1625051502201702557,1,0.4583,-0.2114,0.9094,813,2.7466,-6.897,14.5874,91,0.8434,0.4672,-30.385,-20.3354,33,0.7874,7713,4.0392,-183.4532
rg,1625051502201719261,1,0.4624,-0.2104,0.9067,814,2.3804,-7.8125,15.4419,91,0.8444,0.4672,-30.3099,-20.3287,33,0.7864,7770,4.0392,-182.7912
rg,1625051502201735798,1,0.4595,-0.2146,0.9072,815,2.0142,-7.9956,15.625,91,0.8444,0.4672,-30.2299,-20.3613,33,0.7864,7706,4.0392,-182.1328
rg,1625051502201752094,1,0.4639,-0.2041,0.9109,816,3.8452,-8.2397,15.3809,91,0.8444,0.4682,-30.1748,-20.2881,33,0.7874,7793,4.0392,-181.4957
rg,1625051502201768612,1,0.4602,-0.2034,0.8982,817,4.2725,-8.728,14.5264,91,0.8454,0.4682,-30.1576,-20.1913,33,0.7874,7684,4.0392,-180.8834
rg,1625051502201785075,1,0.449,-0.2112,0.9148,818,2.5024,-8.2397,15.2588,91,0.8444,0.4682,-30.0733,-20.1875,32,0.7864,7859,4.0392,-180.242
rg,1625051502201802019,1,0.4565,-0.2173,0.9177,819,3.1738,-6.958,15.8691,91,0.8444,0.4682,-29.9463,-20.1725,32,0.7874,7728,4.0392,-179.5879
rg,1625051502201818574,1,0.4573,-0.2275,0.9014,820,4.0283,-8.9722,15.0757,91,0.8434,0.4672,-29.9231,-20.1575,32,0.7864,7821,4.0392,-178.9178
rg,1625051502201835222,1,0.4568,-0.2185,0.8994,821,4.2725,-7.9346,16.6016,91,0.8454,0.4682,-29.8452,-20.1366,32,0.7874,7742,4.0392,-178.2085
rg,1625051502201862463,1,0.458,-0.2227,0.907,822,3.1738,-7.6904,16.7847,91,0.8444,0.4692,-29.8186,-20.149,32,0.7874,7904,4.0392,-177.4792
rg,1625051502201880092,1,0.4568,-0.2207,0.9031,823,3.2349,-8.4839,15.2588,91,0.8444,0.4692,-29.7798,-20.1469,32,0.7864,7755,4.0392,-176.8179
rg,1625051502201897203,1,0.4492,-0.2251,0.9092,824,4.2114,-7.2632,15.2588,91,0.8434,0.4682,-29.6753,-20.1014,32,0.7864,11102,4.0392,-176.1733
rg,1625051502201913888,1,0.4482,-0.2122,0.9106,825,5.188,-7.8125,14.7705,91,0.8454,0.4692,-29.6042,-19.9791,32,0.7874,7972,4.0392,-175.5565
rg,1625051502201930258,1,0.4475,-0.2083,0.9116,826,4.3335,-9.4604,15.1978,91,0.8444,0.4692,-29.5917,-19.9071,33,0.7874,8004,4.0392,-174.898
rg,1625051502201946628,1,0.4482,-0.2029,0.9126,827,4.3945,-10.6812,15.564,91,0.8454,0.4702,-29.6235,-19.8393,33,0.7874,10999,4.0392,-174.2098
rg,1625051502201964517,1,0.4495,-0.2036,0.9082,828,3.3569,-10.8032,15.1978,91,0.8444,0.4702,-29.6721,-19.8252,33,0.7874,8076,4.0392,-173.5263
rg,1625051502201981406,1,0.4587,-0.2061,0.9104,829,2.6245,-11.4746,16.0522,91,0.8454,0.4712,-29.7455,-19.8596,33,0.7874,7952,4.0392,-172.7977
rg,1625051502201998905,1,0.4509,-0.2153,0.9131,830,1.8311,-10.437,13.4888,91,0.8454,0.4702,-29.7909,-19.8817,32,0.7874,8116,4.0392,-172.187
rg,1625051502202015961,1,0.4426,-0.2122,0.9131,831,2.0142,-10.1318,14.4043,91,0.8454,0.4712,-29.7995,-19.9134,32,0.7874,7975,4.0392,-171.5417
rg,1625051502202032849,1,0.4514,-0.2124,0.9133,832,2.5024,-12.3901,15.2588,91,0.8454,0.4722,-29.8928,-19.9539,32,0.7874,8806,4.0392,-170.8276
rg,1625051502567766076,1,0.4724,-0.2095,0.8904,833,2.8687,-11.5356,13.855,91,0.8454,0.4722,-30.0326,-19.9527,33,0.7874,27205,4.0392,-170.1833
rg,1625051502567803206,1,0.4619,-0.2158,0.9009,834,3.0518,-8.7891,15.1978,91,0.8454,0.4722,-30.0131,-19.96,33,0.7884,14908,4.0392,-169.5206
rg,1625051502567823687,1,0.4526,-0.2153,0.9111,835,2.2583,-8.1787,14.9536,91,0.8444,0.4722,-29.9609,-19.9716,33,0.7884,7499,4.0392,-168.8591
rg,1625051502567842742,1,0.4534,-0.2097,0.9128,836,3.3569,-8.606,15.8691,91,0.8454,0.4722,-29.9029,-19.9545,33,0.7884,7641,4.0392,-168.1825
rg,1625051502567861223,1,0.4507,-0.2134,0.9102,837,3.3569,-10.437,16.9678,91,0.8454,0.4732,-29.8964,-19.9861,33,0.7884,7463,4.0392,-167.4238
rg,1625051502567879056,1,0.4536,-0.2158,0.9133,838,3.8452,-9.4604,16.0522,91,0.8444,0.4732,-29.8681,-19.9734,33,0.7874,7676,4.0392,-166.7187
rg,1625051502567896427,1,0.4519,-0.2131,0.9058,839,3.3569,-9.5825,15.8691,91,0.8444,0.4732,-29.8524,-19.9755,32,0.7884,8528,4.0392,-166.0204
rg,1625051502567934889,1,0.4482,-0.2092,0.9124,840,2.9297,-9.8267,15.9302,91,0.8444,0.4742,-29.8339,-19.9835,32,0.7874,8259,4.0392,-165.3228
rg,1625051502567953759,1,0.4485,-0.2107,0.9011,841,4.2114,-9.1553,14.3433,91,0.8454,0.4742,-29.8629,-19.9686,32,0.7874,8817,4.0392,-164.6133
rg,1625051502567971389,1,0.4561,-0.2114,0.9146,842,3.418,-10.6812,15.9912,91,0.8444,0.4732,-29.8714,-20.0009,32,0.7874,10026,4.0392,-163.8946
rg,1625051502567989777,1,0.4536,-0.2117,0.9185,843,2.7466,-11.2305,16.6016,91,0.8434,0.4732,-29.8991,-20.0441,32,0.7874,7614,4.0392,-163.1445
rg,1625051502568006925,1,0.4536,-0.2144,0.9067,844,3.1128,-9.7656,15.0146,91,0.8454,0.4742,-29.9021,-20.0392,32,0.7884,7769,4.0392,-162.4802
rg,1625051502568024240,1,0.45,-0.2085,0.9062,845,3.54,-10.1318,15.564,91,0.8454,0.4732,-29.9066,-20.0179,32,0.7884,7606,4.0392,-161.7934
rg,1625051502568040869,1,0.4436,-0.2009,0.9131,846,2.6245,-9.8267,15.2588,91,0.8454,0.4742,-29.8879,-20.0014,32,0.7874,7932,4.0392,-161.1362
rg,1625051502568057739,1,0.459,-0.2075,0.905,847,2.1362,-11.9629,16.1743,91,0.8454,0.4732,-29.9721,-20.0651,33,0.7884,7524,4.0392,-160.3932
rg,1625051502568074461,1,0.4636,-0.2163,0.9138,848,1.4648,-9.3994,13.6719,91,0.8454,0.4742,-29.989,-20.0954,33,0.7874,7754,4.0392,-159.7924
rg,1625051502568090887,1,0.4553,-0.2173,0.9116,849,1.2207,-7.6904,13.4888,91,0.8464,0.4742,-29.9291,-20.1193,33,0.7884,7593,4.0392,-159.2262
rg,1625051502568106942,1,0.4321,-0.2131,0.9177,850,1.0376,-7.8125,14.5874,91,0.8464,0.4752,-29.8113,-20.1567,33,0.7884,7878,4.0392,-158.6195
rg,1625051502568123572,1,0.4336,-0.2085,0.9111,851,2.3193,-11.1084,15.9912,91,0.8464,0.4762,-29.8119,-20.19,33,0.7884,7623,4.0392,-157.9033
