name,time,activity,ax,ay,az,batch_val,gx,gy,gz,ibat,index,middle,pitch,roll,temp,thumb,ts,vbat,yaw
lg,1625315757388382328,0,0.6907,-0.1128,0.7561,1,-2.1973,25.6348,-10.7422,63,1.0085,0.8094,-43.2876,-5.3009,23,0.026,19975,4.0183,81.9825
lg,1625315757388485462,0,0.7002,-0.0466,0.7085,2,-5.188,40.4053,-14.8315,63,1.0055,0.7744,-41.7793,-4.7732,23,0.025,8887,4.0183,80.942
lg,1625315757388539058,0,0.7256,-0.062,0.7341,3,-5.249,47.4243,-18.4937,63,0.9925,0.7364,-39.4606,-4.1745,23,0.027,7797,4.0183,79.7592
lg,1625315757388590764,0,0.5359,-0.1914,0.8689,4,11.4746,80.3223,-20.2637,63,0.9675,0.6803,-35.9978,-3.2826,23,0.026,10716,4.0183,78.6982
lg,1625315757388640358,0,0.4519,-0.4385,0.8538,5,25.9399,-53.3447,1.709,142,1.1045,0.5983,-37.7819,-3.4347,24,0.012,11499,3.9336,79.5582
lg,1625315757388690601,0,0.55,-0.4084,0.8149,6,23.3154,-56.7627,3.7231,142,1.1055,0.5643,-39.676,-4.0205,24,0.007,8084,3.9336,80.6696
lg,1625315757388736823,0,0.5796,-0.4109,0.8145,7,12.5732,-43.9453,8.728,142,1.1005,0.5353,-41.1859,-4.9057,24,0.011,7888,3.9336,81.9348
lg,1625315757388782934,0,0.5696,-0.437,0.7793,8,2.0142,-17.7002,11.5356,142,1.0955,0.5102,-41.5942,-6.3425,24,0.009,7893,3.9336,83.3383
lg,1625315757388827693,0,0.4321,-0.3916,0.7773,9,-4.6997,3.2959,10.5591,142,1.0765,0.4832,-40.8868,-7.8178,23,0.01,8268,3.9336,84.497
lg,1625315757388878621,0,0.364,-0.4036,0.8076,10,-9.3994,0.1221,10.0098,142,1.0535,0.4662,-40.381,-9.6313,23,0.01,7855,3.9336,85.674
lg,1625315757388930420,0,0.3647,-0.4307,0.8584,11,-19.3481,-15.686,11.9629,142,1.0295,0.4562,-40.1889,-11.7002,23,0.013,7962,3.9336,86.9593
lg,1625315757388976569,0,0.4927,-0.4946,0.8513,12,-26.6724,-23.1934,14.8926,142,1.0165,0.4512,-40.468,-14.2645,24,0.013,7889,3.9336,88.5313
lg,1625315757389022772,0,0.5007,-0.5017,0.8425,13,-27.71,-18.0054,13.2446,142,1.0085,0.4482,-40.2734,-16.5472,24,0.012,7986,3.9336,89.7306
lg,1625315757389067476,0,0.4067,-0.5088,0.8455,14,-26.9165,-8.4839,8.9111,142,1.0065,0.4492,-39.8181,-18.6632,24,0.014,8460,3.9336,90.7393
lg,1625315757389112383,0,0.4307,-0.5593,0.8552,15,-24.7192,-18.7988,4.2114,142,1.0175,0.4592,-39.8304,-20.6606,24,0.015,8052,3.9336,91.7021
lg,1625315757389159958,0,0.4485,-0.5735,0.8447,16,-15.0757,-21.3013,-2.3804,142,1.0355,0.4782,-40.0468,-22.0687,24,0.016,7973,3.9336,92.3903
lg,1625315757389205736,0,0.4573,-0.5698,0.8098,17,-9.5825,-20.4468,-6.1646,142,1.0555,0.5032,-40.3159,-23.1229,24,0.019,8092,3.9336,92.8914
lg,1625315757389251958,0,0.4565,-0.533,0.7561,18,-4.2114,-19.4092,-13.4888,142,1.0745,0.5363,-40.7046,-23.6811,24,0.02,8020,3.9336,93.005
lg,1625315757389296050,0,0.458,-0.4932,0.6396,19,-1.1597,-16.7236,-18.3716,142,1.0885,0.5723,-41.1966,-24.0009,24,0.023,8156,3.9336,92.8833
lg,1625315757389339660,0,0.4741,-0.4885,0.5879,20,-0.4883,-9.2773,-17.0898,142,1.0965,0.5983,-41.4777,-24.2934,23,0.017,8140,3.9336,92.7124
lg,1625315757389384678,0,0.2795,-0.4041,0.5798,21,-1.77,19.4702,-9.3994,142,1.1015,0.6073,-40.1697,-24.2947,23,0.016,8147,3.9336,92.1704
lg,1625315757389430753,0,0.1462,-0.3691,0.5474,22,-14.4043,17.5171,6.1646,142,1.1075,0.6083,-38.3915,-25.2796,23,0.015,8070,3.9336,92.3767
lg,1625315757389475734,0,0.197,-0.4114,0.6516,23,-23.8037,0.3052,10.6201,142,1.1065,0.6033,-37.7381,-27.4702,23,0.016,8270,3.9336,93.6709
lg,1625315757389519455,0,0.3926,-0.5061,0.7712,24,-33.6914,-20.3857,25.2075,142,1.1075,0.6023,-37.3842,-30.0436,23,0.017,8138,3.9336,95.4277
lg,1625315757389564307,0,0.5601,-0.5745,0.8142,25,-29.9683,-26.5503,26.062,142,1.1105,0.6023,-37.4205,-32.5522,23,0.016,8320,3.9336,97.3708
lg,1625315757389608251,0,0.502,-0.4734,0.7771,26,-27.0996,-16.6626,22.2168,142,1.1125,0.6093,-37.138,-34.4107,23,0.016,8210,3.9336,98.7219
lg,1625315757389654417,0,0.4907,-0.4646,0.7981,27,-29.9072,-14.5874,21.6064,142,1.1135,0.6183,-36.7474,-36.1889,23,0.015,8374,3.9336,99.9029
lg,1625315757389699491,0,0.5242,-0.5317,0.8489,28,-34.9121,-11.7798,23.8647,142,1.1145,0.6393,-36.1807,-38.1584,24,0.014,8242,3.9336,101.0813
lg,1625315757389954947,0,0.5178,-0.6375,0.8823,29,-29.48,0.2441,23.3154,142,1.1155,0.6813,-35.1589,-39.7332,24,0.022,8758,3.9336,101.8916
lg,1625315757390022196,0,0.4832,-0.6584,0.8447,30,-14.9536,5.4321,19.7754,142,1.1165,0.7474,-34.0498,-40.5577,24,0.021,8372,3.9336,102.3987
lg,1625315757390075496,0,0.47,-0.6953,0.8176,31,-4.5776,3.2349,15.564,142,1.1175,0.8324,-33.1292,-40.977,24,0.021,8488,3.9336,102.8499
lg,1625315757390128480,0,0.4832,-0.7002,0.79,32,0.8545,2.3804,13.916,142,1.1145,0.9024,-32.3482,-41.1851,24,0.021,8351,3.9336,103.2802
lg,1625315757746910251,0,0.1279,-0.4004,0.5361,33,46.7529,13.855,-2.6245,142,1.1155,0.9805,-31.1573,-38.8468,23,0.018,25102,3.9336,102.6709
lg,1625315757747012607,0,-0.0283,-0.3079,0.5388,34,41.626,-3.1738,4.7607,142,1.1165,0.9835,-29.8871,-36.9084,23,0.019,8892,3.9336,102.7403
lg,1625315757747065351,0,0.3977,-0.2705,0.6296,35,15.1978,-55.2368,21.5454,142,1.1175,0.9815,-31.1556,-36.9441,23,0.019,12580,3.9336,104.8109
lg,1625315757747115557,0,0.7549,-0.4199,0.8562,36,1.0376,-52.7344,25.5127,142,1.1185,0.9715,-31.8195,-37.5797,23,0.017,10938,3.9336,106.5173
lg,1625315757747167300,0,0.8572,-0.5696,0.968,37,8.1177,-32.4097,2.8076,142,1.1185,0.9455,-32.7917,-37.5946,23,0.017,9513,3.9336,107.446
lg,1625315757747214393,0,0.584,-0.6482,0.9497,38,38.0859,20.4468,-11.2305,142,1.1195,0.9044,-32.1663,-35.3904,23,0.014,7857,3.9336,106.3637
lg,1625315757747260245,0,0.2407,-0.6636,0.9604,39,61.9507,16.6626,-21.5454,142,1.1215,0.8394,-31.2931,-32.2178,23,0.015,7845,3.9336,105.0879
lg,1625315757747308227,0,0.2495,-0.55,0.8943,40,71.2891,2.8076,-22.7051,142,1.1235,0.7704,-31.1764,-28.7736,24,0.016,8023,3.9336,104.3918
lg,1625315757747354042,0,0.2952,-0.46,0.8416,41,75.0732,-14.2212,-15.9302,142,1.1235,0.7194,-31.4121,-25.5912,24,0.018,8692,3.9336,104.0458
lg,1625315757747398634,0,0.4995,-0.415,0.8298,42,63.8428,-32.8369,-8.3618,142,1.1276,0.6913,-32.6083,-23.2305,24,0.02,7971,3.9336,104.3501
lg,1625315757747444727,0,0.6582,-0.4365,0.8628,43,54.8706,-32.2876,-5.6152,142,1.1306,0.6733,-33.4782,-21.501,24,0.017,7879,3.9336,104.6158
lg,1625315757747488152,0,0.679,-0.448,0.8557,44,44.9829,-0.8545,-3.479,142,1.1316,0.6603,-33.6216,-19.861,24,0.018,8027,3.9336,104.6018
lg,1625315757747652830,0,0.5188,-0.4185,0.8049,45,35.6445,37.8418,-3.1738,142,1.1346,0.6463,-32.0902,-18.3488,24,0.013,7956,3.9336,104.0389
lg,1625315757747707741,0,0.292,-0.4285,0.8145,46,20.9961,43.9453,-3.2349,142,1.1356,0.6333,-29.9082,-17.5213,24,0.018,9299,3.9336,103.4839
lg,1625315757747760559,0,0.218,-0.448,0.8457,47,6.1035,20.5688,2.1973,142,1.1396,0.6303,-28.4465,-17.6374,24,0.019,9895,3.9336,103.5211
lg,1625315757747813099,0,0.2966,-0.4846,0.8716,48,-1.3428,2.3193,3.9673,142,1.1406,0.6363,-28.6291,-18.5305,24,0.021,8079,3.9336,104.0249
lg,1625315757747864119,0,0.4731,-0.4617,0.9058,49,-11.3525,-12.0239,1.77,142,1.1406,0.6453,-28.9153,-19.4459,24,0.021,8016,3.9336,104.4444
lg,1625315757747910638,0,0.4409,-0.4148,0.864,50,-23.1323,0.8545,2.3804,142,1.1416,0.6643,-28.6811,-20.658,24,0.021,8124,3.9336,104.6525
lg,1625315757747958065,0,0.4587,-0.4001,0.8635,51,-32.5928,0.1221,-1.77,142,1.1456,0.6913,-28.9295,-22.4538,24,0.023,8070,3.9391,104.597
lg,1625315757748002991,0,0.541,-0.3828,0.8352,52,-54.0161,-5.7373,-8.7891,103,1.1446,0.7264,-29.333,-24.5564,24,0.022,8146,3.9391,104.3724
lg,1625315757748049880,0,0.4932,-0.5005,0.8452,53,-73.3032,8.9111,-13.3667,103,1.1446,0.7864,-29.1375,-27.3585,24,0.022,8097,3.9391,103.7572
lg,1625315757748094454,0,0.3652,-0.5393,0.8489,54,-78.6133,20.0195,-14.6484,103,1.1456,0.8604,-28.0519,-30.4522,24,0.023,8175,3.9391,102.9328
lg,1625315757748140954,0,0.1194,-0.6516,0.7756,55,-78.0029,8.8501,-12.6953,103,1.1406,0.9204,-27.2019,-33.6409,24,0.022,8164,3.9391,102.4068
lg,1625315757748185231,0,0.1296,-0.5813,0.7488,56,-69.1528,-26.2451,-8.3008,103,1.1376,0.9615,-27.4871,-36.7355,24,0.021,8252,3.9391,102.8441
lg,1625315757748230527,0,0.1406,-0.8596,0.801,57,-44.0063,-47.3022,-11.5356,103,1.1386,0.9825,-28.458,-39.3538,24,0.02,8249,3.9391,103.9466
lg,1625315757748275064,0,0.1511,-0.5381,0.7268,58,3.6621,-66.04,-29.2358,103,1.1366,0.9925,-30.484,-39.5074,24,0.02,8331,3.9391,104.7785
lg,1625315757748318378,0,0.3999,-0.5935,0.6924,59,17.2119,-79.7119,-19.104,103,1.1366,0.9965,-33.1334,-39.7538,24,0.019,8331,3.9391,106.5074
lg,1625315757748363952,0,0.7295,-0.4485,0.627,60,18.4326,-63.5376,-1.5869,103,1.1386,0.9995,-34.6652,-39.7899,24,0.019,12419,3.9391,107.7904
lg,1625315757748409748,0,0.6768,-0.4226,0.6875,61,12.2681,-15.5029,6.1646,103,1.1386,1.0005,-35.1943,-39.3941,24,0.019,8321,3.9391,108.3242
lg,1625315757748455915,0,0.6697,-0.437,0.708,62,4.9438,7.5684,15.564,103,1.1396,1.0025,-34.7126,-39.0983,24,0.02,8517,3.9391,108.5011
lg,1625315757748500841,0,0.7625,-0.5007,0.8127,63,-0.2441,22.7051,14.2212,103,1.1396,1.0005,-33.8082,-38.7298,24,0.02,8516,3.9391,108.1751
lg,1625315757748545303,0,0.5962,-0.5686,0.8643,64,2.5635,38.5132,11.7188,103,1.1406,0.9935,-31.8309,-37.544,24,0.019,8513,3.9391,106.8276
lg,1625315758098092651,0,0.2781,-0.6082,0.8481,65,47.1802,43.457,-9.5215,103,1.1426,0.9114,-29.9935,-34.7778,24,0.02,25267,3.9391,105.2381
lg,1625315758098186814,0,0.0225,-0.5408,0.8523,66,64.6973,20.4468,-20.5078,103,1.1456,0.8444,-28.6654,-31.4619,24,0.02,8664,3.9391,103.9149
lg,1625315758098241259,0,0.2566,-0.4629,0.8147,67,58.8379,-24.353,-4.9438,103,1.1486,0.7864,-29.0711,-29.2097,24,0.023,11386,3.9391,104.2534
lg,1625315758098296853,0,0.4497,-0.4775,0.8069,68,50.7202,-42.8467,1.2207,103,1.1506,0.7584,-30.4027,-27.7302,24,0.022,10295,3.9391,105.2743
lg,1625315758098347056,0,0.6328,-0.4771,0.8396,69,40.2832,-42.8467,1.6479,103,1.1526,0.7444,-31.9929,-26.6989,24,0.022,7811,3.9391,106.2949
lg,1625315758098397833,0,0.6265,-0.4353,0.7852,70,23.8647,-0.3052,3.0518,103,1.1536,0.7374,-32.0576,-25.8995,24,0.021,7972,3.9391,106.4724
lg,1625315758098445184,0,0.5483,-0.5027,0.791,71,15.625,17.0288,3.418,103,1.1546,0.7364,-31.3181,-25.4254,24,0.021,7843,3.9391,106.4058
lg,1625315758098495776,0,0.3975,-0.4832,0.8467,72,10.437,24.292,0.3052,103,1.1556,0.7424,-30.0734,-24.9464,24,0.02,8000,3.9391,106.0296
lg,1625315758098542570,0,0.313,-0.551,0.8853,73,10.9863,15.3198,-2.5635,103,1.1556,0.7594,-29.0392,-24.6064,24,0.02,8234,3.9391,105.7778
lg,1625315758098598775,0,0.5015,-0.4854,0.8406,74,8.3008,3.0518,-4.8828,103,1.1566,0.7844,-29.2399,-24.5488,24,0.02,7895,3.9391,105.6614
lg,1625315758098647811,0,0.5376,-0.4595,0.822,75,-0.5493,1.8921,-9.7046,103,1.1566,0.8174,-29.3469,-24.5311,24,0.022,8031,3.9391,105.3071
lg,1625315758098693475,0,0.4932,-0.4016,0.8203,76,-14.2822,21.5454,-14.8315,103,1.1576,0.8604,-28.7678,-24.6556,24,0.02,7916,3.9391,104.3047
lg,1625315758098743326,0,0.4509,-0.4111,0.8237,77,-26.1841,22.8271,-16.2964,103,1.1576,0.9144,-28.0817,-25.8362,24,0.023,7933,3.9391,103.2636
lg,1625315758098788991,0,0.3438,-0.5249,0.822,78,-44.3115,18.4326,-20.9961,103,1.1556,0.9685,-27.4576,-27.3065,24,0.022,8084,3.9391,102.1669
lg,1625315758098833951,0,0.2148,-0.5793,0.7407,79,-53.9551,5.127,-14.5264,103,1.1546,1.0005,-26.9915,-29.5931,24,0.021,8194,3.9391,101.6821
lg,1625315758098879504,0,0.2822,-0.6863,0.7578,80,-56.3965,-4.5166,-10.1318,103,1.1486,1.0135,-27.2232,-32.074,23,0.019,8221,3.9391,101.8289
lg,1625315758098923705,0,0.0002,-0.3542,0.6677,81,9.9487,-22.3389,-44.5557,103,1.1466,1.0185,-27.8715,-30.9407,23,0.019,8231,3.9391,100.5688
lg,1625315758098969073,0,-0.2534,-0.4194,0.6067,82,23.1934,-57.251,-43.9453,103,1.1486,1.0225,-29.0706,-29.9836,23,0.019,9403,3.9391,100.2616
lg,1625315758099014052,0,0.5898,-0.2605,0.636,83,3.6621,-122.6807,-12.3291,103,1.1486,1.0235,-33.9806,-30.8234,24,0.02,8418,3.9391,102.5535
lg,1625315758099057438,0,1.0696,-0.4553,0.823,84,-15.0757,-79.0405,6.1646,103,1.1496,1.0255,-37.0884,-32.7019,24,0.018,10129,3.9391,104.8379
lg,1625315758099102417,0,1.0186,-0.49,0.8704,85,-6.8359,7.9346,5.9814,103,1.1506,1.0265,-37.0202,-32.871,24,0.021,8408,3.9391,104.7972
lg,1625315758099147729,0,0.8423,-0.4727,0.8923,86,-3.2349,41.687,3.7231,103,1.1516,1.0285,-34.9696,-31.8958,24,0.02,8434,3.9391,103.1987
lg,1625315758099190930,0,0.6755,-0.5405,0.927,87,-0.8545,68.9087,0,103,1.1526,1.0295,-32.513,-30.8938,24,0.02,9116,3.9391,101.4211
lg,1625315758099236131,0,0.5371,-0.5652,0.8953,88,12.9395,92.8345,1.77,103,1.1526,1.0265,-29.0554,-29.3519,24,0.02,8839,3.9391,99.3437
lg,1625315758099280498,0,0.2107,-0.5828,0.8765,89,30.5786,104.8584,-1.4648,103,1.1556,1.0125,-24.7182,-27.281,24,0.02,8460,3.9391,97.1499
lg,1625315758099328071,0,-0.0034,-0.6716,0.8601,90,54.6875,64.209,-14.0381,103,1.1576,0.9885,-21.7292,-24.8604,24,0.022,8461,3.9391,95.5827
lg,1625315758099373254,0,0.0225,-0.6013,0.8784,91,65.3687,32.5928,-14.0991,103,1.1606,0.9475,-20.2828,-22.1971,23,0.018,8334,3.9391,94.6081
lg,1625315758099417177,0,0.2402,-0.5212,0.8159,92,70.1904,-11.2915,-2.8687,103,1.1616,0.9084,-20.5032,-19.8382,23,0.022,8478,3.9391,94.8188
lg,1625315758099460692,0,0.4221,-0.4814,0.7605,93,64.6973,-30.6396,6.958,103,1.1636,0.8734,-21.7638,-17.9842,23,0.021,8316,3.9391,95.6913
lg,1625315758100518419,0,0.5422,-0.4597,0.7927,94,53.0396,-28.9917,12.4512,103,1.1646,0.8474,-23.0788,-16.6461,24,0.023,8562,3.9391,96.7399
lg,1625315758100576792,0,0.6052,-0.3765,0.8079,95,43.8232,-20.0195,13.6719,103,1.1646,0.8284,-24.1328,-15.5169,24,0.021,8400,3.9391,97.6673
lg,1625315758100629570,0,0.7205,-0.4265,0.803,96,10.437,7.8735,12.3901,103,1.1666,0.8284,-24.2664,-15.6943,24,0.023,8597,3.9391,98.27
lg,1625315758454878125,0,0.2957,-0.3948,0.8091,97,-13.7939,65.918,-0.3052,103,1.1686,0.8604,-21.8312,-16.5914,24,0.022,24504,3.9391,97.4658
lg,1625315758454966416,0,0.2429,-0.3711,0.8127,98,-31.189,47.6074,-9.5825,103,1.1686,0.8954,-19.8322,-17.8834,24,0.021,9124,3.9391,96.6166
lg,1625315758455018508,0,0.1338,-0.5107,0.8577,99,-54.8706,21.7285,-1.6479,103,1.1676,0.9605,-18.5684,-20.4715,24,0.02,13246,3.9391,96.4166
lg,1625315758455068915,0,0.0103,-0.5603,0.8279,100,-57.1899,-5.0049,6.897,103,1.1666,0.9975,-17.9627,-23.4111,24,0.02,7800,3.9391,96.9261
lg,1625315758455118155,0,0.2219,-0.6743,0.8474,101,-54.4434,-29.2969,9.3384,103,1.1646,1.0225,-19.3092,-26.2021,24,0.02,9628,3.9391,98.254
lg,1625315758455167728,0,0.0818,-0.4541,0.7795,102,1.3428,-58.6548,-17.2729,103,1.1646,1.0305,-21.1514,-26.4655,24,0.022,7910,3.9391,98.7609
lg,1625315758455214226,0,0.0366,-0.4355,0.688,103,19.4092,-85.2051,-20.5688,103,1.1646,1.0325,-23.8328,-26.2576,24,0.021,7935,3.9391,99.6984
lg,1625315758455261761,0,0.7515,-0.2898,0.7095,104,4.8828,-108.3984,8.0566,103,1.1646,1.0345,-28.3367,-27.0249,24,0.021,11261,3.9391,102.1409
lg,1625315758455307111,0,1.0142,-0.5195,0.8848,105,-6.4697,-48.584,10.8643,103,1.1656,1.0355,-30.4802,-28.1133,24,0.022,8191,3.9391,103.6752
lg,1625315758455353072,0,0.8767,-0.5176,0.8589,106,-2.3193,3.9062,12.9395,103,1.1656,1.0365,-30.1927,-28.477,24,0.02,8085,3.9391,104.1417
lg,1625315758455398940,0,0.5068,-0.4351,0.821,107,5.188,53.2837,16.0522,103,1.1666,1.0335,-27.9514,-27.9933,23,0.02,8243,3.9391,103.6151
lg,1625315758455445901,0,0.4768,-0.5642,0.9233,108,10.498,45.5933,11.3525,103,1.1666,1.0255,-25.9645,-27.4792,23,0.02,8062,3.9391,103.1731
lg,1625315758455490861,0,0.4053,-0.6074,0.9375,109,21.4233,50.354,7.6904,103,1.1666,1.0065,-23.4469,-25.9035,23,0.021,8049,3.9391,102.4244
lg,1625315758455534340,0,0.061,-0.6553,0.8557,110,52.7344,46.5698,-2.6245,103,1.1696,0.9565,-21.0421,-23.9299,23,0.021,9405,3.9391,101.6802
lg,1625315758455576669,0,0.0322,-0.4919,0.8223,111,68.9697,-7.2632,-4.7607,103,1.1716,0.9024,-20.6435,-21.4503,24,0.021,7953,3.9391,101.735
lg,1625315758455619777,0,0.2747,-0.4678,0.8054,112,62.561,-48.1567,8.3008,103,1.1726,0.8504,-22.1607,-19.6919,24,0.024,8093,3.9391,102.9249
lg,1625315758455663756,0,0.3813,-0.4358,0.8057,113,57.1289,-56.5796,13.1226,103,1.1716,0.8064,-24.1423,-18.2814,24,0.019,7968,3.9391,104.3974
lg,1625315758455707808,0,0.5688,-0.4263,0.8254,114,42.9077,-59.5703,17.8223,103,1.1736,0.7794,-26.4733,-17.5693,24,0.022,8193,3.9391,106.0966
lg,1625315758455752806,0,0.6636,-0.4062,0.8494,115,25.0854,-32.2266,17.334,103,1.1746,0.7634,-27.833,-17.3922,23,0.02,8029,3.9391,107.4046
lg,1625315758455797099,0,0.6184,-0.47,0.833,116,16.6016,-13.6719,16.5405,103,1.1776,0.7554,-28.2175,-17.5786,23,0.021,8349,3.9391,108.507
lg,1625315758455842449,0,0.4653,-0.4226,0.8755,117,11.5356,10.5591,12.3291,103,1.1726,0.7514,-27.5654,-17.6251,23,0.021,8074,3.9391,109.0492
lg,1625315758455888447,0,0.3835,-0.3926,0.8921,118,0,10.8643,4.0283,103,1.1756,0.7624,-26.862,-17.884,23,0.021,8253,3.9391,109.1878
lg,1625315758455933500,0,0.4229,-0.3972,0.864,119,-8.1787,5.127,-0.1221,103,1.1776,0.7834,-26.8932,-18.6387,23,0.022,8164,3.9391,109.1254
lg,1625315758456201484,0,0.489,-0.3711,0.8525,120,-21.3623,1.5869,-9.1553,103,1.1766,0.8114,-26.982,-19.4901,23,0.023,8163,3.9391,108.799
lg,1625315758456272324,0,0.3472,-0.4028,0.8062,121,-35.4614,18.9819,-14.6484,103,1.1756,0.8564,-26.2396,-20.7805,23,0.023,9505,3.9391,108.0178
lg,1625315758456323156,0,0.106,-0.4573,0.8462,122,-49.2554,9.4604,-15.3198,103,1.1756,0.9174,-25.3441,-22.7199,24,0.022,8947,3.9391,107.3608
lg,1625315758456374730,0,0.0505,-0.5383,0.8342,123,-51.5747,-32.1655,-12.0239,103,1.1756,0.9755,-25.8504,-25.2414,24,0.022,8574,3.9391,107.6235
lg,1625315758456427286,0,0.168,-0.5264,0.751,124,-50.1709,-50.5371,-8.2397,103,1.1706,1.0125,-27.519,-27.9409,24,0.022,8374,3.9391,108.8675
lg,1625315758456475099,0,0.2341,-0.4861,0.7395,125,-38.9404,-66.5283,-2.4414,103,1.1676,1.0235,-29.3744,-30.3703,24,0.023,8551,3.9391,110.3448
lg,1625315758456520504,0,0.0796,-0.3542,0.6516,126,12.8174,-72.937,-25.0244,103,1.1666,1.0285,-31.4831,-30.1239,24,0.022,8465,3.9391,111.0116
lg,1625315758456564853,0,0.3245,-0.4688,0.759,127,-0.6714,-99.6094,-8.9111,103,1.1686,1.0325,-34.609,-31.3352,24,0.022,8554,3.9391,113.1127
lg,1625315758456632877,0,0.7256,-0.4302,0.7866,128,-10.0098,-90.0269,12.7563,103,1.1646,1.0325,-37.5245,-33.3447,24,0.023,8710,3.9391,115.9805
lg,1625315758811966311,0,0.7524,-0.4651,0.8047,129,-11.7798,-27.2217,21.2402,103,1.1686,1.0305,-37.9973,-34.694,23,0.023,25447,3.9391,117.561
lg,1625315758812050780,0,0.8328,-0.5969,0.8909,130,-3.6621,3.2349,14.2822,103,1.1696,1.0245,-37.5495,-35.1006,23,0.023,9079,3.9391,118.0315
lg,1625315758812102994,0,0.3965,-0.6738,0.8481,131,41.5039,45.5322,-1.5259,103,1.1726,0.9865,-35.3985,-32.811,24,0.022,14280,3.9391,116.8042
lg,1625315758812153432,0,0.2007,-0.6511,0.8303,132,55.2979,41.0767,-7.9346,103,1.1746,0.9345,-33.5853,-29.7075,24,0.023,7805,3.9391,115.8288
lg,1625315758812201443,0,0.1636,-0.4915,0.7993,133,65.979,5.6152,-4.8828,103,1.1766,0.8764,-32.5648,-26.9899,24,0.023,7940,3.9391,115.5671
lg,1625315758812248492,0,0.3398,-0.4519,0.7803,134,54.1992,-29.2358,6.5308,103,1.1776,0.8274,-33.0193,-25.4465,24,0.026,7785,3.9391,116.5411
lg,1625315758812293726,0,0.4558,-0.4395,0.7874,135,46.6919,-38.4521,11.9019,103,1.1786,0.7874,-34.3194,-24.9238,24,0.021,7957,3.9391,118.1522
lg,1625315758812342386,0,0.6528,-0.4131,0.78,136,29.1138,-40.4663,15.625,103,1.1786,0.7544,-35.5956,-24.7445,24,0.023,8265,3.9391,119.7399
lg,1625315758812389786,0,0.6548,-0.439,0.8218,137,12.146,-11.9019,12.9395,103,1.1776,0.7254,-35.7809,-24.8685,24,0.021,8206,3.9391,120.6405
lg,1625315758812439149,0,0.4746,-0.478,0.8369,138,-2.6245,10.1929,8.3008,103,1.1766,0.7043,-34.8909,-25.2673,24,0.021,10922,3.9391,120.9157
lg,1625315758812488105,0,0.3557,-0.4902,0.8262,139,-7.1411,9.7046,5.5542,103,1.1786,0.6993,-33.8728,-25.8086,24,0.021,8059,3.9391,121.0884
lg,1625315758812535358,0,0.3499,-0.4866,0.8381,140,-9.3994,1.5869,3.418,103,1.1806,0.7043,-33.2497,-26.5174,24,0.023,7924,3.9391,121.3524
lg,1625315758812581684,0,0.4526,-0.5386,0.8667,141,-12.207,-15.9302,-0.9766,103,1.1776,0.7184,-33.4599,-27.3929,24,0.021,8046,3.9391,121.7788
lg,1625315758812626881,0,0.5217,-0.4436,0.8413,142,-17.5781,-9.3994,-6.958,103,1.1806,0.7454,-33.7249,-28.0538,24,0.021,7898,3.9391,121.6975
lg,1625315758812672171,0,0.4851,-0.4456,0.7915,143,-23.1934,-3.0518,-10.7422,103,1.1846,0.7834,-33.7046,-28.7535,23,0.023,7948,3.9391,121.3056
lg,1625315758812716128,0,0.4062,-0.4207,0.824,144,-39.856,-0.8545,-15.3809,103,1.1796,0.8404,-33.6343,-29.9095,23,0.023,8121,3.9391,120.63
lg,1625315758812761566,0,0.3879,-0.5161,0.8289,145,-61.7065,-14.4043,-14.5874,103,1.1806,0.9184,-33.9469,-32.3064,23,0.023,8185,3.9391,120.4216
lg,1625315758812805948,0,0.3782,-0.5864,0.8032,146,-65.7959,-17.7002,-11.9629,103,1.1796,0.9915,-34.2445,-35.2474,23,0.023,8371,3.9391,120.7651
lg,1625315758812851071,0,0.3926,-0.6387,0.769,147,-63.2935,-22.0337,-3.418,103,1.1686,1.0175,-34.5177,-38.2365,24,0.021,8037,3.9391,121.3658
lg,1625315758812894806,0,0.0247,-0.4011,0.6433,148,24.5361,-17.395,-47.9736,103,1.1696,1.0275,-35.003,-36.1911,24,0.021,8229,3.9391,119.8704
lg,1625315758812940077,0,-0.0105,-0.3604,0.5654,149,26.6724,-54.0161,-41.626,103,1.1696,1.0285,-36.382,-34.8789,24,0.024,8246,3.9391,119.6674
lg,1625315758812990014,0,0.762,-0.2891,0.6477,150,2.6855,-74.646,-12.4512,103,1.1706,1.0305,-39.5191,-35.4183,24,0.023,12525,3.9391,121.1169
lg,1625315758813038896,0,0.6829,-0.3916,0.7629,151,-14.2822,-3.2349,11.1694,103,1.1706,1.0315,-39.3268,-36.0064,24,0.023,8319,3.9391,121.4651
lg,1625315758813086574,0,0.6306,-0.4763,0.801,152,-15.7471,7.5073,13.7939,103,1.1716,1.0335,-38.6555,-36.6591,24,0.021,8334,3.9391,121.7184
lg,1625315758813254531,0,0.719,-0.5276,0.8596,153,-14.8926,5.0049,11.7188,103,1.1716,1.0315,-38.0857,-37.2316,24,0.022,8370,3.9391,121.9011
lg,1625315758813400751,0,0.801,-0.5632,0.9067,154,-7.5684,28.8696,9.3384,103,1.1716,1.0235,-36.8945,-37,24,0.024,8536,3.9391,121.2526
lg,1625315758813456909,0,0.571,-0.6299,0.9363,155,5.7983,68.2373,7.3853,103,1.1706,1.0045,-34.1328,-35.642,24,0.024,8611,3.9391,119.4681
lg,1625315758813507568,0,0.2017,-0.7129,0.8811,156,31.5552,71.3501,3.3569,103,1.1716,0.9735,-30.7953,-33.5767,24,0.024,8626,3.9391,117.7725
lg,1625315758813559672,0,0.1108,-0.7327,0.8347,157,48.7671,53.6499,-1.3428,103,1.1756,0.9144,-27.9532,-31.1966,24,0.025,8520,3.9391,116.5395
lg,1625315758813607609,0,0.1609,-0.5576,0.7952,158,69.8242,5.0659,-5.127,103,1.1776,0.8654,-27.9698,-28.7294,24,0.025,8399,3.9391,117.0032
lg,1625315758813815598,0,0.3953,-0.5149,0.7517,159,66.6504,-24.9023,8.0566,103,1.1776,0.8294,-28.5179,-26.7025,24,0.025,8271,3.9391,117.9656
lg,1625315758813864443,0,0.5664,-0.5298,0.7449,160,58.0444,-31.3721,13.4888,103,1.1806,0.7994,-29.5374,-25.2899,24,0.024,8423,3.9391,119.3075
lg,1625315759162868074,0,0.5195,-0.3623,0.7168,161,36.8652,6.7749,11.4136,103,1.1826,0.7494,-29.1677,-24.1435,24,0.025,24441,3.9391,119.7285
lg,1625315759162977949,0,0.5293,-0.3723,0.8132,162,-0.1221,4.8218,5.188,103,1.1826,0.7524,-28.9574,-24.2203,24,0.026,11472,3.9765,119.8595
lg,1625315759163030444,0,0.5469,-0.4771,0.8479,163,-14.2212,10.6201,-0.4272,89,1.1836,0.7784,-28.5908,-24.877,24,0.027,9973,3.9765,119.7351
lg,1625315759163079426,0,0.5303,-0.4084,0.8254,164,-18.4937,13.2446,-7.3242,89,1.1846,0.8084,-28.2838,-25.3978,24,0.026,7708,3.9765,119.2003
lg,1625315759163126761,0,0.4377,-0.4192,0.7671,165,-34.6069,23.6816,-10.0098,89,1.1846,0.8584,-27.5384,-26.4893,24,0.027,9205,3.9765,118.38
lg,1625315759163171870,0,0.2214,-0.4895,0.8367,166,-46.2036,16.9678,-11.2305,89,1.1846,0.9144,-26.5653,-28.1225,24,0.025,7913,3.9765,117.6463
lg,1625315759163217069,0,0.1301,-0.5413,0.8477,167,-50.9644,6.4697,-8.2397,89,1.1826,0.9695,-25.6929,-30.2291,23,0.029,7801,3.9765,117.2981
lg,1625315759163260675,0,0.134,-0.5579,0.7876,168,-49.1333,-27.8931,0.3052,89,1.1796,1.0105,-25.9371,-32.6805,23,0.026,9110,3.9765,118.0363
lg,1625315759163308409,0,-0.0176,-0.4939,0.6812,169,20.5078,-54.0771,-32.8979,89,1.1806,1.0205,-27.4205,-32.0254,23,0.026,7960,3.9765,118.1618
lg,1625315759163354875,0,0.073,-0.3855,0.6558,170,29.8462,-91.6748,-27.5879,89,1.1816,1.0275,-30.2493,-31.3022,23,0.025,8042,3.9765,119.2666
lg,1625315759163397432,0,0.4985,-0.2429,0.6128,171,20.3247,-112.3657,-11.9019,89,1.1816,1.0275,-34.5864,-31.3496,24,0.024,8074,3.9765,121.3763
lg,1625315759163444188,0,0.9182,-0.489,0.8491,172,-3.2349,-44.1284,7.1411,89,1.1816,1.0295,-36.255,-32.2563,24,0.023,11579,3.9765,122.7902
lg,1625315759163495722,0,0.8286,-0.5117,0.832,173,1.5259,-8.9722,10.0098,89,1.1826,1.0295,-36.4925,-32.552,24,0.025,8144,3.9765,123.4298
lg,1625315759163543401,0,0.7283,-0.4971,0.8054,174,7.5073,22.8882,10.0708,89,1.1826,1.0255,-35.5424,-32.0999,24,0.024,8189,3.9765,123.2157
lg,1625315759163593090,0,0.6318,-0.5774,0.8779,175,12.3901,50.4761,12.3291,89,1.1836,1.0155,-33.3888,-31.2081,24,0.024,9779,3.9765,122.4593
lg,1625315759163638886,0,0.4688,-0.5825,0.8752,176,26.7944,63.5376,11.6577,89,1.1826,0.9985,-30.5997,-29.6838,24,0.025,8209,3.9765,121.467
lg,1625315759163681298,0,0.2666,-0.6377,0.8303,177,53.4668,55.603,1.2207,89,1.1826,0.9635,-28.002,-27.3239,24,0.023,9597,3.9765,120.4826
lg,1625315759163724868,0,0.0747,-0.624,0.7681,178,66.8335,41.8701,-10.2539,89,1.1856,0.9144,-25.755,-24.3826,23,0.027,8147,3.9765,119.402
lg,1625315759163766863,0,0.1956,-0.4319,0.7537,179,76.0498,-2.3193,-1.5869,89,1.1846,0.8704,-25.3522,-21.5727,23,0.026,8013,3.9765,119.4912
lg,1625315759163808931,0,0.3962,-0.4746,0.748,180,65.8569,-34.4238,7.6294,89,1.1866,0.8474,-26.4886,-19.7492,23,0.028,8180,3.9765,120.5359
lg,1625315759163850763,0,0.5046,-0.4607,0.7583,181,60.0586,-42.6025,9.3384,89,1.1876,0.8354,-28.3346,-18.1003,23,0.027,8188,3.9765,121.6777
lg,1625315759163891817,0,0.7607,-0.3777,0.7849,182,38.147,-31.7993,13.2446,89,1.1866,0.8354,-29.8815,-17.3284,23,0.028,8337,3.9765,122.8178
lg,1625315759163935351,0,0.7808,-0.3928,0.8516,183,21.0571,14.3433,7.2632,89,1.1886,0.8414,-29.6395,-16.8055,23,0.027,8115,3.9765,123.0689
lg,1625315759163978016,0,0.5271,-0.4673,0.885,184,15.9302,36.499,2.9297,89,1.1876,0.8544,-27.647,-16.2786,23,0.028,8268,3.9765,122.4171
lg,1625315759164018871,0,0.3943,-0.4568,0.8108,185,13.6719,58.1665,-10.1318,89,1.1876,0.8634,-25.3665,-15.7443,23,0.028,8141,3.9765,121.5084
lg,1625315759164060577,0,0.0847,-0.4031,0.7668,186,13.4277,49.4995,-17.7002,89,1.1896,0.8794,-22.904,-15.1777,23,0.029,8365,3.9765,120.4048
lg,1625315759164101993,0,0.0039,-0.3586,0.7954,187,2.6245,5.7983,-14.2212,89,1.1896,0.8964,-21.9627,-15.2051,23,0.03,8223,3.9765,119.8961
lg,1625315759164143988,0,0.1028,-0.4021,0.8318,188,-4.2114,-22.7051,-11.1084,89,1.1876,0.9134,-22.3502,-15.7399,23,0.03,8412,3.9765,119.8613
lg,1625315759164187884,0,0.3442,-0.4688,0.8621,189,-11.7798,-52.2461,-6.4087,89,1.1846,0.9395,-24.3121,-16.868,24,0.03,8270,3.9765,120.4303
lg,1625315759164229916,0,0.5332,-0.4768,0.9219,190,-15.686,-57.6782,-6.7139,89,1.1936,0.9715,-26.7024,-18.1043,24,0.031,8597,3.9765,121.0862
lg,1625315759164272816,0,0.541,-0.5371,0.8989,191,-16.9678,-51.2695,-7.9346,89,1.1896,1.0075,-28.3889,-19.4562,24,0.032,8306,3.9765,121.601
lg,1625315759164314775,0,0.4983,-0.5374,0.8884,192,-19.165,-33.0811,-6.0425,89,1.1836,1.0285,-29.6095,-20.8154,24,0.031,8558,3.9765,122.0887
lg,1625315759512377363,0,0.1433,-0.3506,0.6768,193,34.0576,30.7007,-29.3579,89,1.1766,1.0445,-28.1251,-18.9107,24,0.028,26570,3.9765,120.5055
lg,1625315759512474550,0,0.1997,-0.2922,0.7097,194,16.5405,-38.147,-2.3804,89,1.1786,1.0455,-29.0582,-18.6165,24,0.028,13632,3.9765,121.0357
lg,1625315759512526103,0,0.5139,-0.3967,0.8489,195,-0.1221,-52.3071,11.7188,89,1.1786,1.0465,-30.8576,-19.5231,24,0.025,8108,3.9765,122.4634
lg,1625315759512575918,0,0.5625,-0.4004,0.8423,196,-1.2207,-48.0347,16.9067,89,1.1796,1.0465,-32.599,-20.5047,24,0.026,8112,3.9765,124.0578
lg,1625315759512622348,0,0.7434,-0.3704,0.853,197,-6.4697,-39.856,20.3857,89,1.1806,1.0475,-34.0147,-21.7457,24,0.028,7945,3.9765,125.7188
lg,1625315759512666533,0,0.9397,-0.427,0.8972,198,-11.2915,-10.9253,21.2402,89,1.1806,1.0485,-34.4554,-22.969,24,0.027,7997,3.9765,126.9456
lg,1625315759512711895,0,0.9312,-0.4932,0.9263,199,-6.958,54.2603,19.9585,89,1.1816,1.0495,-32.4329,-23.3405,24,0.026,8971,3.9765,126.8974
lg,1625315759512966094,0,0.7446,-0.499,0.9417,200,-0.1221,85.022,16.4185,89,1.1806,1.0475,-29.1596,-23.0716,24,0.026,8221,3.9765,126.1227
lg,1625315759513014714,0,0.3167,-0.552,0.8975,201,14.7705,106.0791,6.897,89,1.1826,1.0435,-24.6746,-22.1402,24,0.025,7935,3.9765,124.7518
lg,1625315759513063552,0,0.176,-0.5552,0.8618,202,32.4707,83.8623,-1.0376,89,1.1846,1.0295,-21.0106,-20.7579,23,0.028,8004,3.9765,123.5689
lg,1625315759513125567,0,0.0078,-0.6101,0.8171,203,44.9829,73.6694,-9.3384,89,1.1836,0.9995,-17.614,-19.1494,23,0.029,8040,3.9765,122.378
lg,1625315759513346042,0,0.0364,-0.4583,0.791,204,56.3354,26.062,-2.7466,89,1.1886,0.9605,-16.0723,-17.2211,23,0.03,7878,3.9765,122.0748
lg,1625315759513420131,0,0.1987,-0.4487,0.78,205,50.9033,-19.7144,3.8452,89,1.1896,0.9225,-16.6508,-15.8044,23,0.03,8056,3.9765,122.6053
lg,1625315759513462706,0,0.3076,-0.47,0.8115,206,46.0815,-36.9263,7.5073,89,1.1886,0.8884,-18.0666,-14.7313,24,0.028,7934,3.9765,123.4766
lg,1625315759513504955,0,0.6069,-0.3926,0.8098,207,33.9966,-59.6924,6.5918,89,1.1936,0.8654,-20.9332,-14.0569,24,0.027,8101,3.9765,124.4944
lg,1625315759513546787,0,0.8,-0.332,0.8352,208,24.353,-53.6499,4.0894,89,1.1916,0.8554,-22.93,-14.0322,24,0.027,7967,3.9765,124.9642
lg,1625315759513590158,0,0.7632,-0.4255,0.8411,209,-3.6621,0.3052,0.9155,89,1.1906,0.8404,-23.5464,-14.6147,24,0.028,8206,3.9765,125.1684
lg,1625315759513634108,0,0.4194,-0.4001,0.8218,210,-5.3101,51.5137,1.2817,89,1.1926,0.8364,-21.6027,-15.0625,23,0.026,8016,3.9765,124.824
lg,1625315759513678674,0,-0.0027,-0.4331,0.7893,211,-8.0566,50.2319,0.5493,89,1.1936,0.8274,-18.8442,-15.7613,23,0.028,8082,3.9765,124.4821
lg,1625315759513722190,0,0.0076,-0.387,0.8076,212,-10.1929,22.1558,1.8311,89,1.1936,0.8144,-18.7774,-16.8467,23,0.029,8787,3.9765,124.9505
lg,1625315759514553479,0,0.2085,-0.3972,0.8574,213,-18.6768,-52.8564,5.0659,89,1.1926,0.8114,-20.4749,-18.2089,23,0.028,8108,3.9765,125.9361
lg,1625315759514606335,0,0.5437,-0.4619,0.9165,214,-23.4375,-67.2607,12.085,89,1.1946,0.8204,-23.1415,-19.9957,23,0.03,8375,3.9765,127.4959
lg,1625315759514654051,0,0.5857,-0.48,0.9626,215,-28.6255,-38.8794,11.6577,89,1.1946,0.8364,-24.6329,-21.8183,23,0.03,8111,3.9765,128.6809
lg,1625315759514698906,0,0.5293,-0.4651,0.9451,216,-33.1421,-23.6816,13.7939,89,1.1946,0.8644,-25.3645,-23.7346,23,0.032,8307,3.9765,129.7281
lg,1625315759514741806,0,0.4487,-0.4265,0.8611,217,-46.3257,-12.7563,17.1509,89,1.1936,0.8984,-25.5166,-26.0765,24,0.033,8221,3.9765,130.6976
lg,1625315759514785232,0,0.4402,-0.4829,0.8899,218,-61.7065,-15.686,19.165,89,1.1936,0.9605,-25.6285,-29.0892,24,0.032,9739,3.9765,131.8104
lg,1625315759514827191,0,0.4841,-0.5781,0.8738,219,-65.6128,-20.9351,18.3105,89,1.1896,1.0075,-25.9316,-32.3826,24,0.03,8266,3.9765,133.058
lg,1625315759514868860,0,0.2859,-0.6096,0.8423,220,-55.4199,-20.0195,12.5122,89,1.1896,1.0295,-26.8203,-31.7763,24,0.03,8438,3.9765,132.5265
lg,1625315759514911254,0,0.1272,-0.7,0.6184,221,42.3584,-21.6064,-48.4009,89,1.1896,1.0345,-27.8524,-30.1865,24,0.03,8516,3.9765,131.5026
lg,1625315759514953448,0,0.2073,-0.386,0.606,222,46.0815,-52.002,-43.6401,89,1.1896,1.0385,-30.041,-28.1636,24,0.029,9165,3.9765,130.9783
lg,1625315759514994647,0,0.5938,-0.2129,0.5764,223,27.832,-42.7856,-21.6064,89,1.1906,1.0405,-32.4947,-26.7937,24,0.028,9476,3.9765,130.8643
lg,1625315759515036407,0,0.4336,-0.3459,0.7087,224,12.4512,2.2583,-7.6904,89,1.1906,1.0415,-32.3964,-26.057,24,0.028,9046,3.9765,130.4694
lg,1625315759871133272,0,0.78,-0.4514,0.887,225,-11.2305,-14.0991,12.3291,89,1.1916,1.0425,-32.3437,-26.7188,23,0.027,25130,3.9765,130.9189
lg,1625315759871215905,0,0.6531,-0.6135,0.988,226,9.0332,64.3311,2.3804,89,1.1916,1.0305,-29.8845,-25.9196,23,0.028,12782,3.9765,129.7881
lg,1625315759871267566,0,0.2246,-0.5833,0.9478,227,29.2358,75.3174,-2.4414,89,1.1926,1.0075,-26.4935,-24.27,23,0.028,10135,3.9765,128.3672
lg,1625315759871317544,0,0.092,-0.6057,0.8474,228,49.8657,41.0156,-11.2305,89,1.1936,0.9765,-24.3587,-22.2682,23,0.03,7879,3.9765,127.4245
lg,1625315759871365024,0,0.0156,-0.5234,0.8513,229,61.1572,25.2075,-12.3901,89,1.1946,0.9325,-22.9513,-19.8213,23,0.033,7821,3.9765,126.6828
lg,1625315759871409572,0,0.2944,-0.4041,0.7993,230,60.9741,-12.8784,5.9814,89,1.1966,0.8964,-23.1735,-17.8396,24,0.031,7887,3.9765,127.2242
lg,1625315759871452780,0,0.4832,-0.439,0.7998,231,53.0396,-30.5176,12.6953,89,1.1966,0.8664,-24.3814,-16.5074,24,0.031,7739,3.9765,128.3102
lg,1625315759871496929,0,0.6008,-0.457,0.7957,232,46.875,-25.2075,14.3433,89,1.1966,0.8414,-25.5527,-15.5038,24,0.03,8020,3.9765,129.4228
lg,1625315759871538870,0,0.5874,-0.4585,0.7957,233,45.105,-13.4888,11.3525,89,1.1976,0.8164,-26.0734,-14.4286,24,0.029,8360,3.9765,130.2576
lg,1625315759871582965,0,0.4031,-0.3979,0.7668,234,27.9541,9.3994,11.4136,89,1.1976,0.8044,-25.5733,-13.9938,24,0.027,7945,3.9765,130.8728
lg,1625315759871632654,0,0.4023,-0.3708,0.7974,235,6.6528,-1.1597,10.9863,89,1.1976,0.8014,-25.4802,-14.3674,24,0.027,7852,3.9765,131.5452
lg,1625315759871676821,0,0.4636,-0.376,0.866,236,-1.1597,-8.2397,8.9111,89,1.1956,0.8104,-25.7375,-14.9724,24,0.027,7969,3.9765,132.1744
lg,1625315759871935110,0,0.5142,-0.4585,0.8845,237,-10.3149,1.8921,6.0425,89,1.1986,0.8304,-25.674,-15.9638,24,0.028,7858,3.9765,132.6207
lg,1625315759871992347,0,0.4353,-0.3752,0.8218,238,-17.8223,16.5405,-2.9297,89,1.1986,0.8574,-25.0793,-16.8647,24,0.031,8036,3.9765,132.434
lg,1625315759872037655,0,0.3762,-0.3347,0.7942,239,-23.7427,20.2637,-5.249,89,1.1966,0.8884,-24.3097,-17.8413,24,0.032,7913,3.9765,132.0458
lg,1625315759872568569,0,0.2424,-0.4077,0.812,240,-44.2505,11.2915,-9.5215,89,1.1986,0.9505,-23.4869,-19.8099,24,0.031,11194,3.9765,131.6622
lg,1625315759872624285,0,0.1448,-0.4849,0.8728,241,-55.603,-12.2681,-5.4932,89,1.1966,0.9975,-23.4288,-22.3954,24,0.032,8584,3.9765,131.7739
lg,1625315759872673286,0,0.2498,-0.5693,0.855,242,-52.063,-44.1895,-1.2207,89,1.1946,1.0275,-24.6796,-25.2309,24,0.031,8155,3.9765,132.6866
lg,1625315759873017176,0,0.1021,-0.4709,0.7166,243,-26.4893,-50.293,-12.6343,89,1.1946,1.0395,-26.5711,-24.392,24,0.03,8193,3.9765,132.2722
lg,1625315759873084315,0,0.0002,-0.4983,0.6357,244,30.2734,-55.9692,-38.8794,89,1.1936,1.0425,-28.2497,-23.5221,24,0.03,8228,3.9765,131.9795
lg,1625315759873138746,0,0.46,-0.217,0.6638,245,20.4468,-81.7871,-12.7563,89,1.1946,1.0445,-31.6385,-22.9673,24,0.03,8265,3.9765,132.8315
lg,1625315759873183311,0,0.8105,-0.3513,0.821,246,-2.0752,-49.3774,9.3994,89,1.1926,1.0455,-33.7003,-23.7763,24,0.027,8833,3.9765,134.1801
lg,1625315759873227497,0,0.7356,-0.4165,0.8843,247,-2.6245,9.8267,15.7471,89,1.1936,1.0455,-33.2075,-24.2035,24,0.027,8761,3.9765,134.7048
lg,1625315759873274398,0,0.6514,-0.425,0.8845,248,-1.3428,28.9307,16.0522,89,1.1936,1.0425,-31.9006,-24.3767,24,0.029,8335,3.9765,134.8595
lg,1625315759873317895,0,0.6584,-0.4353,0.9014,249,1.2817,43.2129,12.9395,89,1.1946,1.0265,-29.7038,-24.0466,24,0.028,10947,3.9765,134.32
lg,1625315759873359891,0,0.4065,-0.553,0.9741,250,10.376,66.2231,6.4087,89,1.1946,1.0105,-26.8021,-23.4136,24,0.027,8356,3.9765,133.4873
lg,1625315759873400239,0,0.062,-0.6162,0.8501,251,36.9263,54.5654,-4.2114,89,1.1966,0.9765,-23.9829,-22.0106,24,0.028,8420,3.9765,132.6368
lg,1625315759873443248,0,-0.001,-0.5317,0.8567,252,54.6875,-4.6387,-9.7656,89,1.1996,0.9305,-23.3832,-20.1233,24,0.031,8199,3.9765,132.5003
lg,1625315759873486112,0,0.127,-0.4626,0.8359,253,56.2134,-32.0435,-2.9907,89,1.1986,0.8894,-24.0167,-18.3946,24,0.031,8425,3.9765,133.0002
lg,1625315759873528469,0,0.4268,-0.4795,0.8433,254,47.9126,-62.1338,11.4746,89,1.1976,0.8664,-26.229,-17.4907,24,0.03,8329,3.9765,134.5131
lg,1625315759873569107,0,0.7317,-0.4556,0.8738,255,35.8276,-60.3638,18.0664,89,1.2026,0.8534,-28.7211,-17.148,24,0.029,8477,3.9765,136.2602
lg,1625315759873610070,0,0.9131,-0.3965,0.856,256,26.7944,-38.3301,17.4561,89,1.2026,0.8504,-29.399,-17.1434,24,0.031,8383,3.9765,137.162
lg,1625315760221509323,0,0.3206,-0.429,0.7957,257,4.0894,73.1201,-9.9487,89,1.2016,0.8944,-26.3555,-16.7918,24,0.03,24731,3.9765,135.9933
lg,1625315760221593605,0,0.0669,-0.2825,0.7283,258,-7.9346,51.7578,-22.0947,89,1.2026,0.9215,-23.8037,-16.6206,23,0.03,8902,3.9765,134.4847
lg,1625315760221644740,0,0.0552,-0.363,0.8032,259,-35.5835,3.3569,-16.1133,89,1.2016,0.9745,-23.0853,-18.0767,23,0.032,11694,3.9765,133.8929
lg,1625315760221694913,0,0.2227,-0.5305,0.9277,260,-47.4243,-36.1938,-9.6436,89,1.2006,1.0195,-24.1361,-20.499,23,0.031,10380,3.9765,134.2023
lg,1625315760221741837,0,0.4158,-0.6255,0.8772,261,-39.5508,-42.2974,-4.1504,89,1.1996,1.0385,-25.6601,-22.8913,23,0.028,7945,3.9765,134.9693
lg,1625315760221787817,0,0,-0.4219,0.6443,262,30.3955,-44.7998,-42.4805,89,1.1986,1.0445,-26.9851,-21.6906,24,0.028,8692,3.9765,134.1846
lg,1625315760221832708,0,-0.0708,-0.387,0.6931,263,24.8413,-56.2134,-37.4756,89,1.1986,1.0455,-28.4142,-20.7259,24,0.029,7968,3.9765,133.6909
lg,1625315760221877617,0,0.5681,-0.2588,0.72,264,7.1411,-97.5342,-12.085,89,1.1986,1.0475,-32.5269,-20.9513,24,0.029,8009,3.9765,134.7642
lg,1625315760221921183,0,0.7812,-0.4927,0.894,265,-5.3101,-52.9175,4.3945,89,1.1986,1.0485,-34.6132,-22.0795,23,0.029,8054,3.9765,136.0572
lg,1625315760221965257,0,0.7295,-0.4534,0.894,266,-1.709,-20.9351,8.8501,89,1.1996,1.0485,-35.2241,-22.7885,23,0.03,8609,3.9765,136.9567
lg,1625315760222093758,0,0.7346,-0.4675,0.8975,267,0.2441,9.5215,13.0615,89,1.2006,1.0485,-34.4126,-23.1316,23,0.029,10205,3.9765,137.4044
lg,1625315760222166331,0,0.78,-0.4998,0.9373,268,2.8076,30.8838,14.8926,89,1.1986,1.0475,-33.1178,-23.2428,23,0.03,8291,3.9765,137.5794
lg,1625315760222209987,0,0.5469,-0.5393,0.9304,269,13.9771,71.167,10.0708,89,1.2006,1.0415,-30.1097,-22.5099,23,0.03,8132,3.9765,136.8644
lg,1625315760222253590,0,0.22,-0.5588,0.8545,270,35.7666,74.0356,1.9531,89,1.2026,1.0305,-26.6603,-20.996,23,0.031,8177,3.9765,135.9388
lg,1625315760222311750,0,0.0361,-0.5645,0.8169,271,48.3398,57.4341,-7.6904,89,1.2006,1.0025,-23.7032,-19.1544,23,0.03,8245,3.9765,135.0273
lg,1625315760222356532,0,-0.0168,-0.4678,0.8032,272,62.439,4.4556,-6.5918,89,1.2036,0.9685,-22.6818,-17.0112,23,0.031,8155,3.9765,134.9046
lg,1625315760222400098,0,0.2556,-0.4336,0.7996,273,57.251,-47.2412,5.0049,89,1.2076,0.9435,-24.1689,-15.5118,24,0.029,8037,3.9765,135.8793
lg,1625315760222443427,0,0.4041,-0.4451,0.804,274,52.4902,-64.0259,10.0098,89,1.2046,0.9305,-26.5295,-14.4468,24,0.03,8174,3.9765,137.2619
lg,1625315760222491622,0,0.7014,-0.376,0.8164,275,41.626,-63.3545,10.8032,89,1.2036,0.9164,-29.3269,-13.6927,24,0.028,8077,3.9765,138.5942
lg,1625315760222537493,0,0.8469,-0.3164,0.8279,276,16.6626,-17.2119,6.897,89,1.2066,0.9154,-30.4888,-13.5096,24,0.029,8231,3.9787,139.2058
lg,1625315760222581131,0,0.7856,-0.3137,0.8723,277,4.8218,10.498,2.5024,85,1.2076,0.9184,-30.2516,-13.6229,23,0.03,8169,3.9787,139.3609
lg,1625315760222624116,0,0.5195,-0.3621,0.8347,278,-6.5308,55.2368,-2.8076,85,1.2046,0.9235,-28.1275,-13.9095,23,0.029,8313,3.9787,138.8248
lg,1625315760222763781,0,0.1138,-0.4307,0.822,279,-6.5918,62.9883,-9.7046,85,1.2066,0.9295,-24.9946,-14.2703,23,0.03,8122,3.9787,137.9959
lg,1625315760222808726,0,-0.1445,-0.3796,0.8416,280,-5.6152,44.8608,-11.0474,85,1.2076,0.9395,-23.3287,-14.8023,23,0.031,8363,3.9787,137.5974
lg,1625315760223186514,0,-0.0496,-0.365,0.8838,281,-15.1978,-24.4751,-8.1787,85,1.2056,0.9465,-23.3529,-15.7036,24,0.032,8203,3.9787,137.6568
lg,1625315760223239355,0,0.3833,-0.4067,0.9373,282,-30.7007,-71.7163,-1.0376,85,1.2066,0.9735,-25.9895,-17.5968,24,0.033,8355,3.9787,138.6438
lg,1625315760223287314,0,0.6353,-0.3918,0.9326,283,-47.3633,-54.8096,10.8643,85,1.2056,1.0025,-28.1492,-20.251,24,0.032,8251,3.9787,139.9974
lg,1625315760223422713,0,0.6838,-0.3855,0.9143,284,-57.5562,-41.9312,12.207,85,1.2036,1.0335,-29.764,-23.2345,24,0.032,8492,3.9787,141.2796
lg,1625315760223467894,0,0.6208,-0.6467,1.0037,285,-61.7676,-11.5356,12.6343,85,1.1996,1.0505,-29.8791,-26.4475,24,0.031,8483,3.9787,142.2196
lg,1625315760223510153,0,0.0474,-0.5212,0.7102,286,36.0718,-14.7705,-42.9077,85,1.2006,1.0485,-29.8304,-24.8594,24,0.03,10210,3.9787,141.0464
lg,1625315760223554227,0,0.1123,-0.3757,0.6716,287,33.6304,-54.0771,-36.1938,85,1.1986,1.0525,-31.5514,-23.458,24,0.029,8566,3.9787,140.6531
lg,1625315760223597611,0,0.6687,-0.1145,0.6472,288,13.4888,-55.4199,-6.7139,85,1.2016,1.0525,-34.2433,-22.8761,23,0.029,8570,3.9787,141.1624
lg,1625315760572906954,0,0.4199,-0.3447,0.8511,289,-10.498,47.3022,19.7754,85,1.2016,1.0555,-32.2689,-23.4969,23,0.028,24922,3.9787,141.3077
lg,1625315760573010368,0,0.5491,-0.4731,0.9587,290,-15.1978,18.9209,13.916,85,1.2016,1.0495,-31.1469,-24.3341,24,0.028,9393,3.9787,141.6001
lg,1625315760573062683,0,0.6572,-0.543,1.0012,291,-6.2256,33.9966,8.4839,85,1.2026,1.0385,-29.4839,-24.6902,24,0.028,10113,3.9787,141.4352
lg,1625315760573112984,0,0.3162,-0.5649,0.9578,292,13.4888,55.0537,0.4272,85,1.2026,1.0175,-26.6494,-24.0115,24,0.028,10034,3.9787,140.5913
lg,1625315760573162395,0,0.0947,-0.585,0.9043,293,37.4756,33.5693,-7.9346,85,1.2036,0.9875,-24.719,-22.5088,24,0.029,7892,3.9787,139.8628
lg,1625315760573212277,0,0.0759,-0.5474,0.8601,294,54.9316,-9.6436,-10.3149,85,1.2056,0.9405,-24.4462,-20.6391,24,0.031,9209,3.9787,139.7917
lg,1625315760573259292,0,0.3691,-0.4412,0.8225,295,56.3965,-32.5317,-2.6855,85,1.2066,0.9044,-25.95,-19.2368,24,0.031,7868,3.9787,140.7703
lg,1625315760573304383,0,0.4561,-0.4736,0.8071,296,48.9502,-47.9736,7.9956,85,1.2066,0.8774,-27.6689,-18.1876,24,0.03,7736,3.9787,141.9956
lg,1625315760573510213,0,0.5591,-0.4543,0.8127,297,45.7153,-42.2974,11.6577,85,1.2056,0.8524,-29.2719,-17.304,24,0.029,8477,3.9787,143.2849
lg,1625315760573588903,0,0.7607,-0.2532,0.7803,298,10.5591,-26.6113,8.7891,85,1.2076,0.8384,-30.7031,-17.2771,24,0.03,8448,3.9787,144.0478
lg,1625315760573639222,0,0.7947,-0.3794,0.8315,299,-10.437,-11.7798,4.0894,85,1.2056,0.8374,-31.5029,-18.1225,24,0.03,8052,3.9787,144.5287
lg,1625315760573688124,0,0.6506,-0.3906,0.8418,300,-18.0664,36.1328,0.5493,85,1.2086,0.8474,-30.2692,-18.8311,24,0.03,7955,3.9787,144.1495
lg,1625315760573741819,0,0.2107,-0.4255,0.8267,301,-23.3765,53.7109,-14.4653,85,1.2086,0.8624,-27.761,-19.4311,23,0.032,8057,3.9787,142.8975
lg,1625315760573793880,0,0.0159,-0.3887,0.8162,302,-26.3062,41.2598,-16.3574,85,1.2066,0.8814,-25.4147,-20.1498,23,0.03,8245,3.9787,141.6983
lg,1625315760573839225,0,0.0408,-0.373,0.8313,303,-42.7856,-24.4751,-13.1836,85,1.2116,0.9134,-25.6278,-21.9522,23,0.032,8143,3.9787,141.6034
lg,1625315760573884315,0,0.29,-0.4692,0.9312,304,-57.9224,-63.3545,-4.8218,85,1.2046,0.9685,-27.6155,-24.8699,23,0.03,10986,3.9787,142.6116
lg,1625315760573932583,0,0.5684,-0.7522,1.0168,305,-57.4341,-63.5376,4.3945,85,1.2086,1.0085,-29.6679,-28.3328,23,0.028,8186,3.9787,144.3073
lg,1625315760573977310,0,0.1968,-0.6677,0.7231,306,-4.6997,-64.0869,-26.1841,85,1.2076,1.0265,-32.1547,-27.4198,23,0.028,8193,3.9787,144.2593
lg,1625315760574027175,0,0.1311,-0.5776,0.7773,307,39.1846,-76.7212,-47.0581,85,1.2036,1.0345,-34.7979,-26.0904,23,0.028,8250,3.9787,144.1492
lg,1625315760574077729,0,0.853,-0.3357,0.686,308,36.3159,-98.0835,-34.668,85,1.2056,1.0415,-38.2881,-25.1433,24,0.029,11606,3.9787,144.4864
lg,1625315760574125833,0,0.7019,-0.4163,0.762,309,25.4517,-24.7803,-21.1182,85,1.2056,1.0435,-39.5529,-23.9715,24,0.03,8478,3.9787,144.1117
lg,1625315760574173229,0,0.3176,-0.2673,0.6946,310,22.2778,20.5078,-4.5776,85,1.2056,1.0445,-38.2267,-22.5485,24,0.032,8364,3.9787,143.3945
lg,1625315760574277496,0,0.5239,-0.3613,0.7693,311,6.3477,-10.6201,1.709,85,1.2066,1.0445,-38.3221,-22.5789,24,0.031,8400,3.9787,143.7493
lg,1625315760574350305,0,0.5667,-0.4368,0.8538,312,3.9673,5.3101,7.8125,85,1.2066,1.0425,-37.6948,-22.7702,23,0.032,8391,3.9787,144.1286
lg,1625315760574400079,0,0.5574,-0.4329,0.8789,313,4.5776,6.8359,6.4697,85,1.2066,1.0395,-37.034,-22.9134,23,0.031,8421,3.9787,144.4331
lg,1625315760574448564,0,0.5999,-0.4775,0.9062,314,8.9722,5.188,2.0142,85,1.2056,1.0375,-36.3057,-22.4479,23,0.031,8615,3.9787,144.3545
lg,1625315760574505508,0,0.4919,-0.4827,0.8916,315,19.043,17.2119,-2.1973,85,1.2046,1.0345,-35.292,-21.701,23,0.031,8660,3.9787,144.0896
lg,1625315760574555664,0,0.324,-0.5186,0.8647,316,34.3018,11.1694,-11.1084,85,1.2056,1.0315,-34.3651,-20.3563,24,0.033,8474,3.9787,143.641
lg,1625315760574604149,0,0.2263,-0.5107,0.8181,317,55.4199,-11.1084,-22.2168,85,1.2076,1.0235,-34.28,-18.2183,24,0.033,8720,3.9787,143.1254
lg,1625315760574649784,0,0.3564,-0.415,0.7671,318,63.3545,-38.7573,-21.7285,85,1.2086,1.0145,-35.549,-15.8864,24,0.031,8516,3.9787,142.9353
lg,1625315760574699358,0,0.4216,-0.3821,0.7722,319,63.3545,-48.7061,-22.7051,85,1.2086,1.0125,-37.2947,-13.5389,23,0.03,8523,3.9787,142.7366
lg,1625315760574751237,0,0.5107,-0.4333,0.7761,320,64.7583,-59.3262,-27.4658,85,1.2086,1.0105,-39.5818,-11.1882,23,0.03,8549,3.9787,142.4359
lg,1625315760933138430,0,0.4387,-0.3567,0.7168,321,59.6924,-24.7192,-42.7246,85,1.2106,1.0175,-40.4541,-8.2254,24,0.03,24986,3.9787,140.9032
lg,1625315760933274446,0,0.4211,-0.3281,0.7932,322,59.2041,-28.8086,-50.354,85,1.2096,1.0225,-41.3016,-4.9223,24,0.027,8817,3.9787,138.8801
lg,1625315760933327269,0,0.4482,-0.363,0.7976,323,67.1387,-33.6914,-62.1948,85,1.2116,1.0285,-42.3703,-0.5204,24,0.027,12178,3.9787,135.8406
lg,1625315760933376154,0,0.468,-0.3472,0.7786,324,77.0874,-36.7432,-79.5288,85,1.2116,1.0325,-43.2641,4.4465,24,0.029,8148,3.9787,132.1896
lg,1625315760933423731,0,0.4539,-0.3386,0.7395,325,88.8062,-36.9873,-97.7173,85,1.2116,1.0355,-43.8575,10.5053,24,0.031,7954,3.9787,127.5105
lg,1625315760933470002,0,0.4795,-0.365,0.7971,326,106.3232,-35.8887,-120.4834,85,1.2116,1.0385,-43.7579,17.9537,24,0.031,7993,3.9787,121.6741
lg,1625315760933516871,0,0.459,-0.3662,0.7644,327,116.4551,-25.8179,-127.1362,85,1.2116,1.0405,-42.5921,25.4087,24,0.031,8017,3.9787,116.0545
lg,1625315760933563904,0,0.4189,-0.3416,0.7341,328,135.7422,-32.5928,-149.0479,85,1.2116,1.0425,-40.7428,33.9141,24,0.031,9048,3.9787,109.6827
lg,1625315760933607797,0,0.4294,-0.3315,0.7542,329,155.3955,-55.481,-177.4292,85,1.2106,1.0445,-38.2034,44.7212,24,0.031,8368,3.9787,101.309
lg,1625315760933652016,0,0.4375,-0.2568,0.7146,330,180.3589,-69.8242,-203.2471,85,1.2086,1.0455,-34.0059,55.7864,24,0.031,9566,3.9787,93.183
lg,1625315760933696961,0,0.4109,-0.23,0.6638,331,203.0029,-69.0918,-220.2759,85,1.2066,1.0455,-28.4368,65.7766,24,0.031,8139,3.9787,86.5513
lg,1625315760933740727,0,0.3652,-0.0295,0.5986,332,221.8628,-37.3535,-218.811,85,1.2046,1.0465,-21.5113,74.6916,24,0.032,8096,3.9787,82.6748
lg,1625315760933783367,0,0.2253,-0.0742,0.6909,333,246.9482,-24.231,-208.0688,85,1.2036,1.0475,-14.1617,83.1388,24,0.032,8242,3.9787,80.8175
lg,1625315760933825044,0,0.2285,-0.0642,0.6501,334,265.686,-31.4941,-197.3267,85,1.2016,1.0485,-7.1365,91.8734,24,0.031,8158,3.9787,79.7008
lg,1625315760933868538,0,0.4414,0.1099,0.5061,335,292.3584,-46.5088,-181.7627,85,1.1996,1.0475,-1.1836,101.9149,24,0.03,8519,3.9787,78.8433
lg,1625315760934184934,0,0.616,0.2959,0.4136,336,287.5366,-20.2637,-165.4663,85,1.2006,1.0485,3.5993,112.0854,24,0.031,8234,3.9787,79.8957
lg,1625315760934251154,0,0.6287,0.3813,0.4419,337,265.9302,19.6533,-156.25,85,1.1996,1.0495,7.0996,121.5493,24,0.031,8272,3.9787,83.2051
lg,1625315760934306646,0,0.5696,0.3787,0.4746,338,259.2773,36.6821,-151.8555,85,1.1966,1.0485,9.5492,130.9294,24,0.032,8264,3.9787,87.6927
lg,1625315760934361684,0,0.4336,0.4368,0.4961,339,258.3008,53.6499,-143.8599,85,1.1966,1.0485,10.8114,140.318,24,0.032,8294,3.9787,92.9634
lg,1625315760934413672,0,0.313,0.6055,0.4084,340,255.9204,53.4668,-135.2539,85,1.1936,1.0495,11.2685,149.5245,24,0.031,10085,3.9787,98.2407
lg,1625315760934465570,0,0.2446,0.7229,0.3181,341,233.5205,42.0532,-128.9673,85,1.1936,1.0465,11.363,157.7313,24,0.032,8346,3.9787,103.2228
lg,1625315760934512276,0,0.2649,0.8347,0.4172,342,205.6885,27.2827,-121.3989,85,1.1916,1.0475,11.3343,164.7252,24,0.032,8359,3.9787,107.7876
lg,1625315760934559527,0,0.1851,0.9397,0.3706,343,193.7256,18.7378,-119.3237,85,1.1906,1.0485,11.2637,171.1706,23,0.032,8441,3.9787,112.2326
lg,1625315760934616598,0,0.1843,1.064,0.3909,344,156.7383,-14.8926,-110.9619,85,1.1876,1.0465,12.0881,176.0902,23,0.032,8367,3.9787,116.2128
lg,1625315760934671491,0,0.4375,0.9644,0.5195,345,118.5913,-44.0063,-98.999,85,1.1876,1.0475,13.3528,179.7383,23,0.032,8492,3.9787,119.7662
lg,1625315760934714639,0,0.5483,0.9341,0.562,346,106.9336,-41.5649,-92.9565,85,1.1816,1.0495,13.7208,-177.2574,24,0.033,8456,3.9787,122.9821
lg,1625315760934759965,0,0.5012,0.9502,0.5498,347,91.5527,-17.2729,-84.0454,85,1.1786,1.0455,13.5257,-174.564,24,0.032,8500,3.9787,126.0395
lg,1625315760934803549,0,0.3757,0.9841,0.5122,348,71.167,-10.6812,-71.8994,85,1.1756,1.0495,13.2062,-172.8925,24,0.031,8525,3.9787,128.5813
lg,1625315760934847732,0,0.407,0.9392,0.5559,349,48.5229,-20.5078,-57.4341,85,1.1766,1.0465,13.2446,-172.1321,24,0.031,8527,3.9787,130.6288
lg,1625315760934889428,0,0.45,0.905,0.6042,350,35.5835,-27.4658,-44.4946,85,1.1756,1.0495,13.5557,-171.8786,23,0.031,8549,3.9787,132.223
lg,1625315760934931215,0,0.4858,0.9194,0.6086,351,31.4331,-29.6631,-39.1846,85,1.1726,1.0465,13.9364,-171.8126,23,0.032,8606,3.9787,133.6145
lg,1625315760934972385,0,0.5139,0.8916,0.6357,352,25.6348,-36.3159,-29.541,85,1.1726,1.0465,14.6065,-171.9847,23,0.031,8648,3.9787,134.6602
lg,1625315761278204587,0,0.6355,0.7981,0.697,353,26.5503,-44.9219,-12.3901,85,1.1726,1.0475,15.5493,-172.0539,24,0.03,25022,3.9787,135.0905
lg,1625315761278311276,0,0.6897,0.7808,0.7178,354,28.8086,-44.3115,-10.2539,85,1.1716,1.0475,16.2777,-171.9383,24,0.03,8718,3.9787,135.3009
lg,1625315761278363738,0,0.6643,0.7246,0.7498,355,36.6211,-27.2217,-5.4321,85,1.1716,1.0455,16.5818,-171.5465,24,0.031,10638,3.9787,135.353
lg,1625315761278423988,0,0.5535,0.6902,0.7693,356,45.166,-15.564,-0.9766,85,1.1716,1.0485,16.6374,-170.8616,24,0.03,10426,3.9787,135.1566
lg,1625315761278471391,0,0.4072,0.6665,0.843,357,54.3213,-15.8081,3.54,85,1.1716,1.0485,17.0435,-169.7898,24,0.031,9712,3.9787,134.8056
lg,1625315761278723401,0,0.353,0.6777,0.8774,358,61.1572,-21.2402,5.9814,85,1.1706,1.0485,17.8266,-168.4205,24,0.03,7963,3.9787,134.4157
lg,1625315761278772661,0,0.2903,0.6846,0.9548,359,77.8198,-44.6777,10.0708,85,1.1706,1.0485,19.7543,-166.2602,24,0.03,7947,3.9787,134.1209
lg,1625315761278817935,0,0.3784,0.7324,0.9443,360,101.6846,-75.4395,13.5498,85,1.1706,1.0485,22.8255,-163.0318,24,0.031,7983,3.9787,134.0914
lg,1625315761278868068,0,0.542,0.8652,0.8418,361,112.7319,-84.7778,15.3809,85,1.1706,1.0475,26.2695,-159.0808,24,0.031,9680,3.9787,134.2767
lg,1625315761278914743,0,0.6143,0.9189,0.7971,362,122.2534,-89.1724,16.1743,85,1.1696,1.0485,29.6765,-154.8501,24,0.03,8019,3.9787,134.686
lg,1625315761278959307,0,0.7122,0.9849,0.6755,363,115.4785,-74.0967,16.3574,85,1.1716,1.0485,32.4375,-150.9266,24,0.03,8012,3.9787,134.991
lg,1625315761279001961,0,0.718,1.053,0.592,364,108.8257,-63.8428,15.8691,85,1.1716,1.0475,34.5215,-147.8346,24,0.032,8119,3.9787,134.989
lg,1625315761279043705,0,0.7222,1.0825,0.5588,365,87.7686,-41.5649,15.3198,85,1.1706,1.0475,36.2505,-145.2639,24,0.032,8115,3.9787,134.7799
lg,1625315761279087796,0,0.6814,1.0901,0.5076,366,63.1104,-23.0713,14.9536,85,1.1746,1.0475,37.4565,-143.966,24,0.031,8177,3.9787,134.0867
lg,1625315761279133107,0,0.6423,1.084,0.4902,367,35.7666,-5.0659,12.0239,85,1.1716,1.0485,38.1003,-144.0174,24,0.031,8226,3.9787,132.9689
lg,1625315761279178800,0,0.6143,1.0771,0.4709,368,22.0947,2.0752,11.0474,85,1.1756,1.0495,38.528,-144.7812,24,0.031,8220,3.9787,131.6305
lg,1625315761279226239,0,0.5225,1.0454,0.457,369,-3.2349,11.5356,8.4839,85,1.1716,1.0495,38.687,-146.7454,24,0.031,8238,3.9787,130.0646
lg,1625315761279272314,0,0.4624,0.9834,0.4683,370,-26.123,14.7705,6.7749,85,1.1716,1.0475,38.7357,-149.6591,24,0.031,8252,3.9787,128.4725
lg,1625315761279320154,0,0.4292,0.9512,0.4758,371,-36.5601,15.1978,5.5542,85,1.1726,1.0495,38.7549,-153.2504,24,0.032,8299,3.9787,126.9708
lg,1625315761279363608,0,0.4116,0.9324,0.5049,372,-49.8047,12.085,3.6621,85,1.1706,1.0465,38.8014,-157.1134,24,0.031,8240,3.9787,125.5359
lg,1625315761279408664,0,0.4072,0.8818,0.4951,373,-60.1196,8.4839,1.5869,85,1.1726,1.0525,38.8604,-161.3717,24,0.031,8313,3.9787,124.2342
lg,1625315761279452573,0,0.4297,0.8433,0.5186,374,-66.8945,6.0425,-0.1831,85,1.1726,1.0495,38.8959,-165.8587,24,0.031,8312,3.9787,123.0524
lg,1625315761279495154,0,0.425,0.8372,0.55,375,-69.7021,4.3945,-2.3193,85,1.1726,1.0495,38.9475,-170.4688,24,0.031,12245,3.9787,121.954
lg,1625315761279537408,0,0.4409,0.8066,0.5339,376,-70.4346,1.709,-3.418,85,1.1726,1.0505,38.9788,-175.1712,24,0.031,9006,3.9787,120.8749
lg,1625315761279578879,0,0.4653,0.7827,0.542,377,-68.4204,-0.1221,-3.7231,85,1.1726,1.0505,38.9791,-179.8529,24,0.032,10063,3.9787,119.778
lg,1625315761279743980,0,0.4619,0.7754,0.5435,378,-66.4673,0.6714,-4.5776,85,1.1716,1.0505,38.883,175.4541,24,0.031,8494,3.9787,118.6543
lg,1625315761279797061,0,0.4363,0.7527,0.5388,379,-65.918,0.6104,-4.6387,85,1.1716,1.0505,38.7329,170.7012,24,0.032,8418,3.9787,117.4869
lg,1625315761280153558,0,0.4419,0.7239,0.5237,380,-63.1714,0.1221,-5.249,85,1.1716,1.0505,38.5097,165.9813,24,0.031,8423,3.9787,116.2945
lg,1625315761280240413,0,0.4246,0.7117,0.498,381,-61.4624,0.061,-5.127,85,1.1726,1.0505,38.192,161.2257,24,0.031,8730,3.9787,115.0407
lg,1625315761280287452,0,0.4197,0.6729,0.5007,382,-58.3496,-1.8311,-5.3711,85,1.1716,1.0505,37.8768,156.55,24,0.032,8614,3.9787,113.7539
lg,1625315761280333345,0,0.4243,0.6572,0.4832,383,-56.8237,-2.5635,-5.188,85,1.1716,1.0475,37.5022,151.9358,24,0.032,8496,3.9787,112.4242
lg,1625315761280380038,0,0.4109,0.6516,0.4827,384,-54.0771,-4.4556,-5.4932,85,1.1696,1.0495,37.0856,147.3134,24,0.032,8575,3.9787,111.0365
lg,1625315761630107612,0,0.4299,0.5994,0.5151,385,-40.9546,-13.4888,-6.2866,85,1.1716,1.0505,36.9295,143.111,24,0.031,25197,3.9787,109.4398
lg,1625315761630202673,0,0.4644,0.5916,0.5286,386,-33.02,-16.5405,-6.5918,85,1.1716,1.0505,36.7755,139.1912,24,0.031,9519,3.9787,107.7418
lg,1625315761630255390,0,0.4941,0.5718,0.5513,387,-25.0854,-18.7988,-7.2021,85,1.1716,1.0515,36.5261,135.7796,24,0.031,10401,3.9787,106.0194
lg,1625315761630532712,0,0.5042,0.575,0.5493,388,-16.3574,-16.4185,-7.019,85,1.1716,1.0515,36.1649,132.5346,24,0.031,7941,3.9787,104.2861
lg,1625315761630599240,0,0.5173,0.5869,0.5466,389,-10.1929,-13.7939,-7.0801,85,1.1716,1.0515,35.6309,129.6076,24,0.032,8013,3.9787,102.6426
lg,1625315761630652339,0,0.5383,0.5945,0.54,390,-6.6528,-12.5732,-6.958,85,1.1716,1.0515,34.8888,127.0606,24,0.032,8078,3.9787,101.1674
lg,1625315761630702800,0,0.5308,0.6047,0.5427,391,-2.0752,-6.6528,-6.5308,85,1.1716,1.0515,34.0092,124.6698,24,0.032,8066,3.9787,99.8215
lg,1625315761630972734,0,0.5061,0.6013,0.5601,392,0.6714,-4.7607,-6.4697,85,1.1706,1.0505,33.0924,122.417,24,0.032,9617,3.9787,98.5573
lg,1625315761631030200,0,0.5435,0.5986,0.5437,393,4.2114,-5.8594,-6.5308,85,1.1716,1.0515,32.088,120.385,24,0.032,8021,3.9787,97.326
lg,1625315761631078713,0,0.561,0.6111,0.5405,394,6.1646,-0.3662,-7.3853,85,1.1706,1.0515,30.9392,118.6243,24,0.031,9992,3.9787,96.3938
lg,1625315761631125825,0,0.5635,0.6355,0.5474,395,7.2632,3.6621,-7.2021,85,1.1716,1.0515,29.685,117.0215,24,0.031,8117,3.9787,95.667
lg,1625315761631183510,0,0.5476,0.6284,0.5457,396,6.897,6.7749,-6.7749,85,1.1706,1.0515,28.319,115.5602,24,0.031,8140,3.9787,95.1601
lg,1625315761631231113,0,0.5071,0.6416,0.5427,397,8.0566,12.085,-4.8828,85,1.1716,1.0515,26.8714,114.1483,24,0.03,8597,3.9787,94.8133
lg,1625315761631277606,0,0.4917,0.6489,0.5352,398,8.9722,13.9771,-4.4556,85,1.1716,1.0515,25.3868,112.8301,24,0.031,8001,3.9787,94.5927
lg,1625315761631321607,0,0.4861,0.6428,0.5476,399,8.1787,14.5874,-1.77,85,1.1716,1.0515,23.8198,111.4771,24,0.03,8028,3.9787,94.4016
lg,1625315761631559241,0,0.439,0.644,0.5471,400,8.728,14.2822,-0.4883,85,1.1716,1.0515,22.2831,110.1158,24,0.031,8050,3.9787,94.2221
lg,1625315761631617617,0,0.4487,0.6489,0.5681,401,9.7656,14.6484,0.061,85,1.1716,1.0515,20.7407,108.8154,24,0.031,8058,3.9787,94.1072
lg,1625315761631661745,0,0.4221,0.6594,0.5671,402,10.498,13.4888,2.0752,85,1.1706,1.0505,19.1918,107.5291,24,0.031,8654,3.9787,93.9735
lg,1625315761632165911,0,0.4124,0.6589,0.5847,403,11.2305,10.1929,4.0283,85,1.1716,1.0515,17.6562,106.2215,24,0.031,8130,3.9787,93.7354
lg,1625315761632236880,0,0.4231,0.6738,0.6091,404,13.0615,8.3008,5.188,85,1.1716,1.0515,16.106,105.0109,24,0.031,8124,3.9787,93.4037
lg,1625315761632290943,0,0.415,0.6809,0.6245,405,16.1133,6.4087,6.2256,85,1.1696,1.0525,14.5931,103.8807,24,0.03,8173,3.9787,93.1032
lg,1625315761632346571,0,0.4287,0.6855,0.6191,406,18.3716,4.7607,7.9346,85,1.1726,1.0545,13.0204,102.8711,24,0.03,8177,3.9787,92.7839
lg,1625315761632407750,0,0.4312,0.6929,0.6125,407,19.9585,4.4556,8.9722,85,1.1716,1.0495,11.4156,102.0275,24,0.03,8211,3.9787,92.5152
lg,1625315761632458483,0,0.4202,0.7131,0.6199,408,21.7896,5.0049,10.6201,85,1.1706,1.0475,9.8045,101.2171,24,0.031,8240,3.9787,92.3
lg,1625315761632502046,0,0.4111,0.7031,0.6084,409,23.2544,4.8218,11.7188,85,1.1726,1.0545,8.1835,100.4885,24,0.03,8284,3.9787,92.1256
lg,1625315761632544682,0,0.3816,0.7158,0.6011,410,23.3154,6.1646,12.207,85,1.1726,1.0515,6.6181,99.7893,24,0.031,8490,3.9787,92.0558
lg,1625315761632591921,0,0.387,0.7307,0.6001,411,22.4609,5.3101,12.5122,85,1.1756,1.0495,5.0517,99.0667,24,0.031,8312,3.9787,92.0034
lg,1625315761632639306,0,0.3994,0.7222,0.6025,412,22.9492,2.9297,11.4746,85,1.1726,1.0555,3.5739,98.3912,24,0.031,8314,3.9787,91.9164
lg,1625315761632682961,0,0.3896,0.7146,0.6116,413,20.9961,2.9907,11.1084,85,1.1706,1.0525,2.163,97.6325,24,0.031,8605,3.9787,91.8809
lg,1625315761632726452,0,0.4004,0.7087,0.6003,414,20.9351,0.6104,10.1929,85,1.1726,1.0515,0.8041,96.9042,24,0.03,8471,3.9787,91.8022
lg,1625315761632770343,0,0.4045,0.7312,0.5996,415,19.165,3.6011,8.9111,85,1.1736,1.0525,-0.4809,96.1445,24,0.031,8351,3.9787,91.8913
lg,1625315761632813179,0,0.3743,0.7285,0.6128,416,17.9443,4.3335,8.667,85,1.1716,1.0515,-1.6624,95.3152,24,0.031,8367,3.9787,92.0496
lg,1625315761974245703,0,0.3823,0.7402,0.625,417,14.9536,5.188,3.7231,85,1.1726,1.0525,-2.6201,94.3793,24,0.031,24372,3.9787,92.297
lg,1625315761974284626,0,0.3708,0.7307,0.6426,418,13.6719,5.249,1.9531,85,1.1736,1.0525,-3.4538,93.3747,24,0.032,8737,3.9787,92.5808
lg,1625315761974304880,0,0.3877,0.7283,0.6208,419,12.4512,3.9062,-0.1221,85,1.1736,1.0525,-4.2176,92.3824,24,0.032,10596,3.9787,92.836
lg,1625315761974324114,0,0.3833,0.7476,0.6121,420,11.5967,5.188,-1.3428,85,1.1736,1.0525,-4.8914,91.4016,24,0.032,7996,3.9787,93.1599
lg,1625315761974342929,0,0.3777,0.7324,0.6262,421,8.9722,5.0659,-2.7466,85,1.1736,1.0535,-5.4773,90.3037,24,0.032,8723,3.9787,93.4974
lg,1625315761974360781,0,0.3545,0.7222,0.6143,422,8.667,5.4932,-2.8687,85,1.1736,1.0525,-5.9792,89.2085,24,0.032,7958,3.9787,93.862
lg,1625315761974377941,0,0.3447,0.7244,0.6169,423,6.1035,5.3101,-3.8452,85,1.1736,1.0525,-6.4187,88.0415,24,0.032,7903,3.9787,94.2256
lg,1625315761974394627,0,0.335,0.7183,0.6243,424,5.0049,3.1128,-3.9062,85,1.1746,1.0525,-6.8199,86.8515,24,0.032,9258,3.9787,94.5066
lg,1625315761974410732,0,0.3306,0.7078,0.6084,425,4.6387,-1.0376,-4.0283,85,1.1746,1.0495,-7.2119,85.7117,24,0.033,8663,3.9787,94.6209
lg,1625315761974427673,0,0.323,0.7109,0.6157,426,3.7231,-1.5259,-4.4556,85,1.1746,1.0535,-7.5534,84.5614,24,0.032,8001,3.9787,94.7168
lg,1625315761974444269,0,0.3428,0.7012,0.6311,427,4.0894,-6.8359,-4.3945,85,1.1746,1.0535,-7.9483,83.464,24,0.032,7986,3.9787,94.6029
lg,1625315761974460992,0,0.373,0.7175,0.6106,428,5.7373,-8.7891,-4.5166,85,1.1746,1.0535,-8.3953,82.5404,24,0.032,8068,3.9787,94.4028
lg,1625315761974477587,0,0.3623,0.731,0.6165,429,4.8828,-9.0942,-4.0894,85,1.1746,1.0555,-8.8162,81.6156,24,0.032,8075,3.9787,94.1947
lg,1625315761974493801,0,0.3691,0.7051,0.6243,430,4.2725,-10.9863,-4.8218,85,1.1746,1.0525,-9.2381,80.6724,24,0.032,8101,3.9787,93.9145
lg,1625315761974511124,0,0.4058,0.7129,0.6072,431,4.5166,-12.8174,-4.9438,85,1.1746,1.0515,-9.7318,79.8343,24,0.032,10144,3.9787,93.5538
lg,1625315761974528794,0,0.4092,0.7192,0.5933,432,4.1504,-12.6343,-5.0659,85,1.1776,1.0515,-10.2154,79.0417,24,0.031,8112,3.9787,93.1967
lg,1625315761974545862,0,0.4016,0.7151,0.6028,433,4.5776,-11.9629,-4.9438,85,1.1746,1.0525,-10.6805,78.2833,23,0.031,8131,3.9787,92.8704
lg,1625315761974563514,0,0.3999,0.7136,0.6045,434,4.5166,-11.5967,-5.3101,85,1.1736,1.0555,-11.1044,77.5261,23,0.031,8206,3.9787,92.5613
lg,1625315761974611117,0,0.4128,0.7148,0.5984,435,4.0283,-10.376,-5.3711,85,1.1746,1.0555,-11.5316,76.7839,23,0.032,8206,3.9787,92.2978
lg,1625315761974630824,0,0.4084,0.699,0.595,436,4.6997,-11.7798,-5.3101,85,1.1746,1.0525,-11.9363,76.0545,23,0.032,8235,3.9787,91.9641
lg,1625315761974647766,0,0.4104,0.7026,0.5955,437,4.2114,-11.9019,-5.9204,85,1.1736,1.0545,-12.3405,75.3766,23,0.031,8376,3.9787,91.6366
lg,1625315761974664161,0,0.4165,0.7004,0.5916,438,5.4321,-12.3291,-6.1035,85,1.1786,1.0525,-12.7468,74.7834,23,0.032,8273,3.9787,91.2885
lg,1625315761974680429,0,0.4341,0.7153,0.6104,439,6.2256,-13.4277,-5.7983,85,1.1786,1.0565,-13.1802,74.2457,23,0.031,8277,3.9787,90.9021
lg,1625315761974696807,0,0.4492,0.708,0.6025,440,6.7749,-13.1836,-6.0425,85,1.1736,1.0525,-13.628,73.7596,23,0.032,8301,3.9787,90.5214
lg,1625315761974713129,0,0.4543,0.7144,0.5994,441,6.5308,-11.9629,-6.1035,85,1.1726,1.0545,-14.0527,73.2866,24,0.031,8393,3.9787,90.1862
lg,1625315761974729561,0,0.449,0.73,0.5933,442,6.4087,-10.5591,-5.7373,85,1.1736,1.0525,-14.4419,72.8398,24,0.032,8345,3.9787,89.9048
lg,1625315761974745884,0,0.4458,0.7324,0.5886,443,5.9814,-8.1177,-5.249,85,1.1746,1.0535,-14.8026,72.3774,24,0.032,12263,3.9787,89.7235
lg,1625315761974763863,0,0.4233,0.7178,0.5945,444,4.7607,-7.0801,-3.8452,85,1.1746,1.0535,-15.1581,71.8334,24,0.031,8525,3.9787,89.6094
lg,1625315761974794070,0,0.4209,0.7146,0.6001,445,4.6997,-6.5918,-2.9907,85,1.1746,1.0535,-15.5233,71.2842,24,0.031,8443,3.9787,89.5284
lg,1625315761974811593,0,0.4214,0.7048,0.5945,446,4.5166,-7.3242,-2.3193,85,1.1756,1.0545,-15.9055,70.7605,24,0.031,8491,3.9787,89.4248
lg,1625315761974828298,0,0.4104,0.7092,0.5854,447,4.3335,-8.4229,-1.0986,85,1.1746,1.0545,-16.329,70.2646,24,0.031,8500,3.9787,89.292
lg,1625315761974845203,0,0.4351,0.7117,0.5837,448,4.1504,-9.7656,-0.1831,85,1.1746,1.0545,-16.8385,69.8046,24,0.032,8508,3.9787,89.1165
lg,1625315762341330766,0,0.4336,0.7158,0.592,449,6.5918,-10.0098,1.8921,85,1.1746,1.0545,-17.4012,69.4438,24,0.031,26101,3.9787,88.9659
lg,1625315762341465476,0,0.4204,0.71,0.6016,450,7.1411,-8.5449,1.9531,85,1.1756,1.0545,-17.9002,69.0727,24,0.031,8972,3.9787,88.8859
lg,1625315762341521151,0,0.4209,0.7122,0.5876,451,7.9346,-8.4839,1.4038,85,1.1756,1.0545,-18.3643,68.777,24,0.031,10344,3.9787,88.7943
lg,1625315762341571099,0,0.4119,0.7102,0.5801,452,7.3242,-8.9111,1.2817,85,1.1756,1.0545,-18.7993,68.483,24,0.032,7853,3.9787,88.6838
lg,1625315762341617692,0,0.4036,0.7043,0.6018,453,8.3008,-9.2163,1.5869,85,1.1756,1.0545,-19.1842,68.194,24,0.032,7896,3.9787,88.5452
lg,1625315762341661714,0,0.4104,0.7202,0.614,454,7.9956,-10.6812,0.5493,85,1.1756,1.0545,-19.5636,67.9274,24,0.032,7914,3.9787,88.3729
lg,1625315762341707158,0,0.4121,0.7314,0.5962,455,8.9722,-12.3291,0.1221,85,1.1756,1.0545,-19.9391,67.7823,24,0.032,7894,3.9787,88.1141
lg,1625315762341755593,0,0.4175,0.7227,0.6069,456,8.9111,-10.9863,-1.0986,85,1.1746,1.0535,-20.2495,67.6004,24,0.032,9698,3.9787,87.9013
lg,1625315762341800910,0,0.4331,0.7366,0.606,457,9.4604,-10.9863,-1.4648,85,1.1756,1.0545,-20.555,67.4746,24,0.032,7980,3.9787,87.6753
lg,1625315762341846481,0,0.427,0.7388,0.6033,458,9.3384,-9.6436,-1.709,85,1.1746,1.0555,-20.807,67.3384,24,0.032,8001,3.9787,87.4977
lg,1625315762341890959,0,0.4165,0.7356,0.5959,459,7.6904,-7.5684,-2.0752,85,1.1766,1.0515,-20.9893,67.1216,24,0.031,7979,3.9787,87.3946
lg,1625315762341933467,0,0.4111,0.7175,0.5928,460,7.6294,-6.7139,-2.1362,85,1.1736,1.0535,-21.1549,66.8792,24,0.031,7973,3.9787,87.3306
lg,1625315762341977781,0,0.4021,0.7244,0.5913,461,6.8359,-6.8359,-1.9531,85,1.1756,1.0545,-21.2995,66.6248,24,0.031,8011,3.9787,87.2596
lg,1625315762342023189,0,0.3884,0.7222,0.6045,462,5.3101,-8.7891,-2.0142,85,1.1756,1.0545,-21.4365,66.3171,24,0.031,7985,3.9787,87.1196
lg,1625315762342068596,0,0.4048,0.7358,0.6106,463,4.3335,-9.4604,-1.8921,85,1.1736,1.0535,-21.6041,66.0027,24,0.031,8044,3.9787,86.9486
lg,1625315762342116393,0,0.4148,0.7393,0.6086,464,6.0425,-11.4746,-2.4414,85,1.1756,1.0575,-21.7965,65.8122,24,0.032,8040,3.9787,86.6823
lg,1625315762342194899,0,0.4436,0.7439,0.5913,465,4.2725,-11.0474,-2.0142,85,1.1756,1.0545,-22.0507,65.5944,24,0.031,11413,3.9787,86.4233
lg,1625315762342244957,0,0.4326,0.7412,0.595,466,3.9673,-9.9487,-2.0752,85,1.1756,1.0545,-22.255,65.345,24,0.031,8192,3.9787,86.2104
lg,1625315762342288632,0,0.4253,0.7332,0.582,467,2.3804,-6.7749,-1.8311,85,1.1756,1.0545,-22.4059,65.0048,24,0.031,8137,3.9787,86.1208
lg,1625315762342332326,0,0.4312,0.74,0.584,468,1.2817,-5.5542,-1.6479,85,1.1756,1.0545,-22.529,64.5941,24,0.031,9007,3.9787,86.0867
lg,1625315762342374506,0,0.4058,0.7063,0.5791,469,0.7935,-5.0659,-1.1597,85,1.1756,1.0545,-22.6493,64.1529,23,0.031,8148,3.9787,86.0822
lg,1625315762342415482,0,0.3955,0.7217,0.5801,470,0.8545,-6.2256,-0.3052,85,1.1756,1.0545,-22.7815,63.7602,23,0.031,8172,3.9787,86.0362
lg,1625315762342689935,0,0.3918,0.7043,0.5837,471,0.6714,-6.6528,-0.5493,85,1.1756,1.0545,-22.9169,63.3736,23,0.031,8529,3.9787,85.9502
lg,1625315762342744716,0,0.3918,0.7119,0.6011,472,1.8311,-9.2163,-0.1221,85,1.1736,1.0535,-23.091,63.0392,24,0.031,8655,3.9787,85.8045
lg,1625315762342792986,0,0.4058,0.72,0.5994,473,3.8452,-10.7422,-0.6714,85,1.1756,1.0545,-23.2897,62.8436,24,0.031,8250,3.9787,85.579
lg,1625315762342975730,0,0.4246,0.7234,0.5862,474,5.0659,-11.3525,-0.2441,85,1.1756,1.0545,-23.5482,62.7444,24,0.031,8300,3.9787,85.3237
lg,1625315762343034286,0,0.4246,0.7197,0.5942,475,5.6152,-10.437,-0.4883,85,1.1756,1.0555,-23.771,62.6571,24,0.032,8355,3.9787,85.1005
lg,1625315762343080240,0,0.4211,0.7168,0.5894,476,5.8594,-9.5825,-0.5493,85,1.1736,1.0555,-23.9655,62.5572,23,0.031,8311,3.9787,84.9152
lg,1625315762343126159,0,0.4253,0.7217,0.5872,477,6.4087,-8.606,-1.1597,85,1.1756,1.0545,-24.1185,62.4852,23,0.032,8353,3.9787,84.7506
lg,1625315762343170728,0,0.4216,0.7122,0.5735,478,5.8594,-8.3618,-1.5259,85,1.1766,1.0525,-24.2549,62.4056,23,0.032,8417,3.9787,84.5831
lg,1625315762343214531,0,0.4211,0.7209,0.5874,479,5.5542,-7.9956,-1.709,85,1.1746,1.0545,-24.3585,62.2986,23,0.032,8432,3.9787,84.4319
lg,1625315762343293584,0,0.4148,0.7063,0.5825,480,4.7607,-8.1787,-1.8921,85,1.1746,1.0545,-24.4567,62.1558,24,0.032,8434,3.9787,84.2743
lg,1625315762697995707,0,0.4373,0.7222,0.5806,481,7.2021,-8.9111,-2.5024,85,1.1756,1.0555,-24.5963,62.1574,24,0.031,24925,3.9787,84.0306
lg,1625315762698126624,0,0.4517,0.7104,0.5881,482,7.5073,-9.3384,-2.3804,85,1.1756,1.0555,-24.7267,62.1453,24,0.032,9890,3.9787,83.853
lg,1625315762698178013,0,0.4692,0.7156,0.5889,483,8.1177,-8.4839,-2.5635,85,1.1766,1.0525,-24.8904,62.1659,24,0.032,7871,3.9787,83.665
lg,1625315762698228818,0,0.4602,0.719,0.5796,484,7.019,-3.418,-2.6245,85,1.1756,1.0555,-24.9356,62.0802,24,0.032,12366,3.9787,83.6664
lg,1625315762698277965,0,0.4529,0.7078,0.5823,485,5.3711,-2.1362,-1.5259,85,1.1756,1.0555,-24.988,61.8786,24,0.031,8252,3.9787,83.749
lg,1625315762698323026,0,0.4431,0.7061,0.5862,486,4.1504,-0.4272,-1.4648,85,1.1766,1.0555,-25.0074,61.6342,24,0.032,7884,3.9787,83.879
lg,1625315762698367686,0,0.439,0.7249,0.5808,487,4.3945,-1.0986,-1.0376,85,1.1756,1.0555,-25.032,61.4269,24,0.032,10096,3.9787,83.9939
lg,1625315762698412018,0,0.4419,0.7278,0.574,488,4.7607,-1.4038,0.061,85,1.1766,1.0555,-25.0865,61.243,24,0.032,7955,3.9787,84.1097
lg,1625315762698456368,0,0.4453,0.7219,0.6079,489,5.249,-1.6479,0.1831,85,1.1766,1.0555,-25.1434,61.0159,24,0.032,7921,3.9787,84.247
lg,1625315762698499988,0,0.4729,0.7275,0.6023,490,5.7983,-1.5869,-0.061,85,1.1756,1.0555,-25.2718,60.8583,24,0.031,7936,3.9787,84.3843
lg,1625315762698542588,0,0.4871,0.7339,0.5938,491,7.5073,0.7324,-1.2207,85,1.1756,1.0555,-25.303,60.7601,24,0.032,7953,3.9787,84.5574
lg,1625315762698586227,0,0.4417,0.7305,0.5889,492,6.8359,7.6904,-1.9531,85,1.1756,1.0555,-25.0893,60.5289,24,0.032,8280,3.9787,84.9826
lg,1625315762698630066,0,0.4512,0.7188,0.6147,493,6.897,6.1646,-2.8076,85,1.1756,1.0555,-24.8989,60.2799,24,0.032,8786,3.9787,85.3512
lg,1625315762698672775,0,0.4702,0.7158,0.5959,494,8.2397,6.2866,-3.2349,85,1.1766,1.0555,-24.7462,60.1317,24,0.032,8221,3.9787,85.6941
lg,1625315762698782665,0,0.4294,0.7588,0.6021,495,6.5308,12.085,-5.4321,85,1.1756,1.0555,-24.2908,59.8954,24,0.033,8113,3.9787,86.1862
lg,1625315762698839361,0,0.4067,0.7266,0.6165,496,4.3945,10.1318,-6.897,85,1.1776,1.0555,-23.8127,59.5558,24,0.033,8137,3.9787,86.593
lg,1625315762698885462,0,0.4089,0.7119,0.6208,497,5.5542,9.2773,-7.2632,85,1.1776,1.0555,-23.3427,59.3297,24,0.033,8156,3.9787,86.9335
lg,1625315762698928426,0,0.4084,0.7429,0.5847,498,7.3853,9.8267,-6.5918,85,1.1756,1.0535,-22.921,59.2253,24,0.032,8185,3.9787,87.2806
lg,1625315762698971773,0,0.3877,0.7178,0.5757,499,5.188,11.9629,-6.2866,85,1.1776,1.0545,-22.4626,58.9859,24,0.032,8155,3.9787,87.7164
lg,1625315762699012986,0,0.3726,0.7351,0.5786,500,4.3335,13.0615,-5.0049,94,1.1766,1.0565,-21.9382,58.5988,24,0.031,8221,3.9743,88.2466
lg,1625315762699055677,0,0.3682,0.7292,0.5957,501,3.3569,14.1602,-4.3945,94,1.1756,1.0545,-21.4746,58.2519,24,0.031,8260,3.9743,88.7909
lg,1625315762699095978,0,0.3489,0.7231,0.6079,502,4.5166,11.1694,-3.479,94,1.1776,1.0525,-21.0788,57.9684,24,0.031,8285,3.9743,89.2472
lg,1625315762699138195,0,0.3499,0.7217,0.6077,503,5.0049,10.0098,-2.5635,94,1.1786,1.0575,-20.7552,57.7252,24,0.031,8293,3.9743,89.6737
lg,1625315762699183511,0,0.3535,0.7148,0.6021,504,5.4321,8.728,-2.0752,94,1.1766,1.0535,-20.5013,57.5243,24,0.032,8298,3.9743,90.0576
lg,1625315762699226548,0,0.3523,0.7332,0.6028,505,6.4697,6.4697,-1.2817,94,1.1776,1.0525,-20.3288,57.3763,24,0.032,8835,3.9743,90.3799
lg,1625315762699272996,0,0.3645,0.7214,0.6074,506,6.2256,5.0659,-0.8545,94,1.1766,1.0545,-20.2255,57.2607,24,0.031,8409,3.9743,90.6504
lg,1625315762699315668,0,0.3503,0.7244,0.6089,507,5.7983,5.8594,0.3662,94,1.1786,1.0535,-20.1174,57.114,24,0.031,8349,3.9743,90.9746
lg,1625315762699357392,0,0.3401,0.7014,0.6101,508,5.188,5.6152,0.8545,94,1.1776,1.0545,-20.0761,56.9687,24,0.032,8374,3.9743,91.24
lg,1625315762699398824,0,0.3564,0.729,0.5972,509,6.4697,2.3804,1.2817,94,1.1766,1.0545,-20.0934,56.9257,24,0.031,8399,3.9743,91.4454
lg,1625315762699492959,0,0.3447,0.7307,0.6145,510,7.4463,2.2583,1.1597,94,1.1786,1.0545,-20.0752,56.8952,24,0.032,8422,3.9743,91.6536
lg,1625315762699550931,0,0.3477,0.7378,0.6162,511,7.6294,-0.4883,1.8311,94,1.1806,1.0565,-20.1406,56.9091,24,0.031,9167,3.9743,91.7761
lg,1625315762699598290,0,0.3733,0.7407,0.6274,512,9.3994,-2.1362,1.709,94,1.1776,1.0535,-20.2812,57.0006,24,0.032,8478,3.9743,91.8419
lg,1625315763044652153,0,0.3799,0.7441,0.5996,513,7.5073,0.3662,2.5635,94,1.1776,1.0545,-20.3892,57.0198,24,0.03,24606,3.9743,92.0035
lg,1625315763044737731,0,0.3513,0.7319,0.6143,514,6.7749,-0.6104,3.418,94,1.1776,1.0555,-20.5103,56.9778,24,0.031,8784,3.9743,92.1633
lg,1625315763044791317,0,0.3562,0.7236,0.6121,515,6.1035,-0.7324,3.6621,94,1.1776,1.0545,-20.654,56.9018,24,0.031,7840,3.9743,92.3275
lg,1625315763044841012,0,0.3586,0.7068,0.6138,516,5.9204,-1.3428,4.0283,94,1.1776,1.0555,-20.8329,56.7972,24,0.031,11958,3.9743,92.4884
lg,1625315763044886980,0,0.3604,0.7168,0.6257,517,6.1646,-2.3804,3.3569,94,1.1776,1.0555,-21.0261,56.7537,24,0.031,10886,3.9743,92.5861
lg,1625315763044956425,0,0.3789,0.7297,0.6272,518,7.5684,-4.1504,3.1128,94,1.1776,1.0555,-21.241,56.7758,24,0.031,7938,3.9743,92.6208
lg,1625315763045003233,0,0.4131,0.7405,0.6331,519,7.019,-2.7466,1.9531,94,1.1776,1.0555,-21.4367,56.7754,24,0.031,7976,3.9743,92.6772
lg,1625315763045046040,0,0.4094,0.7393,0.6331,520,7.2632,-2.0752,0.9766,94,1.1766,1.0555,-21.5711,56.782,24,0.031,8026,3.9743,92.7367
lg,1625315763045090784,0,0.4033,0.7285,0.6184,521,6.2866,2.0142,0,94,1.1766,1.0555,-21.5809,56.7134,24,0.031,8063,3.9743,92.9179
lg,1625315763045136569,0,0.4043,0.7383,0.606,522,5.7373,5.0049,-0.061,94,1.1766,1.0555,-21.5237,56.6239,24,0.031,9240,3.9743,93.1906
lg,1625315763045180984,0,0.3701,0.7349,0.5989,523,4.8828,7.4463,-0.4272,94,1.1776,1.0555,-21.3384,56.4809,24,0.031,10097,3.9743,93.5383
lg,1625315763045223974,0,0.3433,0.7322,0.6187,524,4.9438,7.0801,-0.1221,94,1.1776,1.0565,-21.1319,56.2651,24,0.031,8069,3.9743,93.9257
lg,1625315763045301019,0,0.3323,0.7256,0.6104,525,3.6011,6.1035,0.9766,94,1.1756,1.0555,-20.9578,56.0551,23,0.031,8063,3.9743,94.2635
lg,1625315763045347645,0,0.332,0.7031,0.6199,526,4.3335,3.479,1.8921,94,1.1776,1.0565,-20.8878,55.8566,23,0.031,8111,3.9743,94.5443
lg,1625315763045390653,0,0.3433,0.728,0.6331,527,5.3711,2.6245,2.2583,94,1.1776,1.0565,-20.8866,55.7085,23,0.031,8126,3.9743,94.7747
lg,1625315763045456115,0,0.3638,0.6958,0.6262,528,5.3711,1.4648,2.2583,94,1.1756,1.0545,-20.9446,55.5676,24,0.031,8154,3.9743,94.9949
lg,1625315763045498684,0,0.385,0.7366,0.6145,529,6.2256,3.2959,2.1362,94,1.1766,1.0595,-20.9767,55.5293,24,0.031,8194,3.9743,95.2449
lg,1625315763045539884,0,0.3384,0.7322,0.6272,530,5.4321,5.127,2.0752,94,1.1766,1.0555,-20.8648,55.4052,24,0.031,8164,3.9743,95.5693
lg,1625315763045586619,0,0.3523,0.7136,0.6423,531,6.1035,3.2349,2.2583,94,1.1756,1.0555,-20.8397,55.281,24,0.031,8241,3.9743,95.8485
lg,1625315763045627288,0,0.3398,0.7354,0.614,532,7.8125,2.0752,2.0142,94,1.1776,1.0575,-20.8061,55.3304,24,0.03,8235,3.9743,96.049
lg,1625315763045667903,0,0.3428,0.7334,0.6252,533,9.0332,1.0986,1.6479,94,1.1776,1.0565,-20.7865,55.4186,24,0.031,11655,3.9743,96.215
lg,1625315763045709285,0,0.3433,0.7283,0.6282,534,9.0942,0.6714,1.6479,94,1.1776,1.0575,-20.7806,55.4981,24,0.031,8427,3.9743,96.3717
lg,1625315763045752037,0,0.3386,0.7231,0.6316,535,9.3994,-0.7935,1.5869,94,1.1776,1.0575,-20.7981,55.5911,24,0.03,8248,3.9743,96.4813
lg,1625315763045796726,0,0.3621,0.731,0.635,536,8.728,-1.2207,1.3428,94,1.1776,1.0575,-20.9196,55.7005,24,0.031,8320,3.9743,96.5574
lg,1625315763045839241,0,0.3777,0.7532,0.6204,537,8.1177,1.6479,0.3052,94,1.1766,1.0575,-20.9013,55.7824,24,0.03,8345,3.9743,96.7018
lg,1625315763045883491,0,0.3215,0.7393,0.636,538,7.0801,4.3945,-0.4883,94,1.1766,1.0575,-20.6827,55.7393,24,0.031,8298,3.9743,96.9443
lg,1625315763045925184,0,0.3398,0.7366,0.6472,539,7.0801,2.3193,-1.0986,94,1.1776,1.0575,-20.5342,55.7071,23,0.031,9058,3.9743,97.1049
lg,1625315763046014507,0,0.376,0.7476,0.6279,540,8.3008,1.2817,-1.1597,94,1.1776,1.0565,-20.4188,55.8246,23,0.03,8935,3.9743,97.2284
lg,1625315763046066595,0,0.3655,0.75,0.6282,541,7.9956,6.1646,-2.3193,94,1.1766,1.0565,-20.2071,55.8452,23,0.031,8403,3.9743,97.4763
lg,1625315763046262506,0,0.3191,0.7278,0.6384,542,5.9814,6.2866,-2.8076,94,1.1756,1.0565,-19.898,55.7332,23,0.031,10563,3.9743,97.7346
lg,1625315763046334564,0,0.3313,0.7378,0.6204,543,6.7749,5.6763,-2.6855,94,1.1766,1.0575,-19.6454,55.7138,24,0.03,8469,3.9743,97.954
lg,1625315763046376549,0,0.3037,0.7278,0.6252,544,6.7749,3.8452,-2.5635,94,1.1776,1.0555,-19.3931,55.6907,24,0.031,8527,3.9743,98.1189
lg,1625315763394815753,0,0.2871,0.7419,0.6067,545,7.3242,0.9155,-0.3052,94,1.1776,1.0575,-19.2539,55.7618,24,0.031,24664,3.9743,98.2149
lg,1625315763394929376,0,0.3105,0.7329,0.626,546,7.6294,-4.5776,0.7324,94,1.1776,1.0575,-19.3254,55.8502,24,0.03,9178,3.9743,98.1588
lg,1625315763394980349,0,0.3245,0.7417,0.6182,547,7.6294,-4.7607,1.3428,94,1.1786,1.0575,-19.4456,55.9609,24,0.032,10012,3.9743,98.1026
lg,1625315763395029113,0,0.3096,0.7244,0.6216,548,6.4087,-6.1646,1.8921,94,1.1776,1.0575,-19.5875,55.9974,24,0.032,10445,3.9743,98.0227
lg,1625315763395074167,0,0.325,0.7129,0.6172,549,6.2866,-7.9346,2.9907,94,1.1786,1.0575,-19.8411,56.0318,24,0.031,7852,3.9743,97.9101
lg,1625315763395122711,0,0.3337,0.7285,0.6255,550,7.1411,-8.5449,3.1738,94,1.1776,1.0575,-20.1098,56.1149,24,0.031,9517,3.9743,97.7781
lg,1625315763395167601,0,0.3508,0.7383,0.6282,551,6.8359,-8.8501,2.5635,94,1.1776,1.0575,-20.3648,56.1666,24,0.03,7882,3.9743,97.6451
lg,1625315763395217186,0,0.3501,0.7493,0.6218,552,7.2632,-7.6294,1.9531,94,1.1776,1.0575,-20.5744,56.2883,24,0.031,7892,3.9743,97.5063
lg,1625315763395258897,0,0.3696,0.7344,0.6292,553,7.9346,-7.9346,0.7324,94,1.1766,1.0575,-20.7881,56.4133,24,0.031,9842,3.9743,97.3416
lg,1625315763395298799,0,0.3735,0.738,0.6277,554,8.1177,-6.2256,0.1831,94,1.1776,1.0585,-20.9436,56.5326,24,0.032,7972,3.9743,97.2242
lg,1625315763395409516,0,0.3557,0.7449,0.6274,555,7.3242,-3.8452,-0.8545,94,1.1776,1.0575,-20.9653,56.603,24,0.031,12284,3.9743,97.1665
lg,1625315763395530538,0,0.3591,0.7488,0.6172,556,6.8359,-1.709,-1.0986,94,1.1786,1.0585,-20.9401,56.6505,24,0.031,7988,3.9743,97.1718
lg,1625315763395576085,0,0.3425,0.7417,0.6187,557,6.2866,-1.77,-0.9766,94,1.1776,1.0575,-20.8932,56.6397,24,0.031,8096,3.9743,97.1907
lg,1625315763395623003,0,0.3235,0.7383,0.6243,558,5.188,-1.8921,-0.4883,94,1.1786,1.0575,-20.8248,56.5857,24,0.031,8064,3.9743,97.2151
lg,1625315763395664312,0,0.3198,0.7446,0.6255,559,4.6387,-4.6997,0.3052,94,1.1786,1.0575,-20.8349,56.5481,24,0.031,8149,3.9743,97.1539
lg,1625315763395709330,0,0.3369,0.7322,0.6453,560,5.188,-6.5308,1.0376,94,1.1766,1.0565,-20.9446,56.4982,24,0.03,9320,3.9743,97.0631
lg,1625315763395751114,0,0.3335,0.7417,0.6382,561,5.3711,-6.7139,1.2817,94,1.1786,1.0575,-21.0679,56.5214,24,0.031,8172,3.9743,96.9072
lg,1625315763395792660,0,0.3374,0.7439,0.6318,562,6.4087,-8.4229,1.2207,94,1.1766,1.0555,-21.215,56.5864,24,0.031,8160,3.9743,96.7384
lg,1625315763395836527,0,0.3621,0.7366,0.6321,563,5.3711,-6.958,1.1597,94,1.1786,1.0585,-21.3775,56.5802,24,0.03,8227,3.9743,96.6255
lg,1625315763395876630,0,0.3572,0.7437,0.6223,564,4.6387,-5.188,0.8545,94,1.1816,1.0565,-21.4742,56.5525,24,0.031,8221,3.9743,96.5594
lg,1625315763395916313,0,0.3557,0.7336,0.6245,565,4.3945,-3.8452,0.5493,94,1.1766,1.0565,-21.5302,56.4821,24,0.031,8182,3.9743,96.5416
lg,1625315763395964327,0,0.3584,0.738,0.6223,566,3.8452,-2.1973,0.4883,94,1.1786,1.0585,-21.5494,56.3822,24,0.031,8276,3.9743,96.5768
lg,1625315763396004229,0,0.3438,0.7231,0.6372,567,3.2349,-2.0142,-0.3662,94,1.1796,1.0585,-21.5083,56.2161,24,0.031,8257,3.9743,96.6158
lg,1625315763396046525,0,0.3394,0.7324,0.6233,568,3.7231,-2.9907,-0.4883,94,1.1786,1.0585,-21.4424,56.0739,24,0.031,8446,3.9743,96.6209
lg,1625315763396086664,0,0.314,0.728,0.6409,569,3.6011,-2.9297,-0.7935,94,1.1776,1.0565,-21.3447,55.9486,24,0.031,8271,3.9743,96.6125
lg,1625315763396191919,0,0.3079,0.7063,0.6304,570,4.1504,-2.0752,-0.9155,94,1.1786,1.0575,-21.2316,55.8249,24,0.031,8623,3.9743,96.635
lg,1625315763396236754,0,0.3198,0.7061,0.6326,571,4.6387,-2.6245,-1.0986,94,1.1796,1.0585,-21.1542,55.7311,23,0.03,8358,3.9743,96.6325
lg,1625315763396276966,0,0.3127,0.7319,0.6387,572,5.3711,-4.0283,-0.9766,94,1.1796,1.0575,-21.0823,55.7157,23,0.031,8388,3.9743,96.571
lg,1625315763396320632,0,0.3337,0.7415,0.6426,573,6.4087,-5.188,-1.4648,94,1.1776,1.0615,-21.0599,55.7703,23,0.03,8396,3.9743,96.4528
lg,1625315763396361009,0,0.3411,0.7351,0.6284,574,7.3853,-5.6152,-2.4414,94,1.1796,1.0605,-21.0401,55.8922,23,0.031,8470,3.9743,96.2907
lg,1625315763398391649,0,0.3223,0.7327,0.6377,575,7.019,-5.7983,-2.7466,94,1.1786,1.0615,-20.9571,55.9651,24,0.031,8473,3.9743,96.1315
lg,1625315763398544242,0,0.3291,0.7441,0.6167,576,7.6904,-5.6763,-3.3569,94,1.1786,1.0585,-20.8861,56.1338,24,0.031,8529,3.9743,95.9355
lg,1625315763735300118,0,0.3228,0.7339,0.6348,577,5.8594,-3.1128,-4.4556,94,1.1786,1.0585,-20.7102,56.1502,24,0.031,24950,3.9743,95.8244
lg,1625315763735434221,0,0.321,0.7363,0.6394,578,5.9814,-3.3569,-4.6997,94,1.1786,1.0585,-20.5318,56.1707,24,0.031,9352,3.9743,95.7001
lg,1625315763735486200,0,0.3479,0.7483,0.6519,579,4.6387,-2.5024,-5.188,94,1.1796,1.0585,-20.3689,56.128,24,0.032,10228,3.9743,95.5949
lg,1625315763735534250,0,0.3977,0.7625,0.6387,580,5.8594,-2.0142,-7.2632,94,1.1796,1.0585,-20.2291,56.1944,24,0.032,10661,3.9743,95.4401
lg,1625315763735581844,0,0.3567,0.7524,0.6318,581,4.3335,5.7983,-9.4604,94,1.1786,1.0585,-19.7765,56.1139,24,0.032,8023,3.9743,95.5127
lg,1625315763735626241,0,0.3394,0.7622,0.6406,582,3.9062,7.3242,-9.4604,94,1.1796,1.0575,-19.2896,55.9666,24,0.032,7973,3.9743,95.5939
lg,1625315763735827122,0,0.356,0.7434,0.6536,583,4.0283,5.7983,-9.6436,94,1.1786,1.0585,-18.863,55.8349,24,0.031,8265,3.9743,95.6698
lg,1625315763738872725,0,0.3262,0.7661,0.6243,584,3.7842,8.9722,-10.0098,94,1.1786,1.0585,-18.3074,55.7493,24,0.031,8063,3.9743,95.8163
lg,1625315763738997237,0,0.2915,0.7273,0.6345,585,2.0752,9.4604,-9.2773,94,1.1786,1.0585,-17.7313,55.5124,24,0.032,8568,3.9743,96.0164
lg,1625315763739052815,0,0.2864,0.7266,0.644,586,1.3428,9.3994,-8.9722,94,1.1786,1.0575,-17.1745,55.2384,24,0.031,8313,3.9743,96.2186
lg,1625315763739103679,0,0.2744,0.7156,0.636,587,2.0752,6.4087,-7.2021,94,1.1786,1.0585,-16.7475,55.0211,24,0.032,8149,3.9743,96.3524
lg,1625315763739150103,0,0.2676,0.7209,0.6541,588,3.1128,2.0142,-5.7983,94,1.1796,1.0545,-16.4591,54.8643,24,0.032,8129,3.9743,96.3701
lg,1625315763739195669,0,0.2771,0.7246,0.6489,589,2.3193,1.2817,-5.0049,94,1.1806,1.0575,-16.2452,54.6993,24,0.032,8127,3.9743,96.3736
lg,1625315763739239006,0,0.2581,0.7175,0.6394,590,3.6621,-0.4883,-2.0142,94,1.1786,1.0585,-16.1432,54.5958,24,0.032,8155,3.9743,96.384
lg,1625315763739284682,0,0.2534,0.7144,0.6316,591,4.6997,-4.8828,0.3662,94,1.1796,1.0595,-16.2177,54.5721,24,0.032,8164,3.9743,96.2979
lg,1625315763739350308,0,0.2754,0.7183,0.644,592,5.4932,-7.3242,1.5259,94,1.1796,1.0625,-16.4156,54.6006,24,0.032,8162,3.9743,96.1557
lg,1625315763739398779,0,0.2864,0.7097,0.6453,593,6.8359,-9.5215,3.54,94,1.1776,1.0585,-16.759,54.6567,24,0.032,8281,3.9743,95.9972
lg,1625315763739441495,0,0.2859,0.7183,0.6401,594,8.1177,-11.0474,4.3945,94,1.1796,1.0595,-17.1478,54.7944,24,0.033,8269,3.9743,95.802
lg,1625315763739491317,0,0.3091,0.7468,0.6311,595,7.1411,-11.6577,3.7842,94,1.1826,1.0605,-17.589,54.989,24,0.032,8317,3.9743,95.5664
lg,1625315763739540793,0,0.3118,0.7515,0.6423,596,8.0566,-11.3525,4.3335,94,1.1796,1.0585,-17.985,55.1662,24,0.032,8312,3.9743,95.3489
lg,1625315763739584203,0,0.3188,0.7476,0.6443,597,9.5215,-10.8643,3.9673,94,1.1786,1.0585,-18.3577,55.3857,24,0.032,9214,3.9743,95.1441
lg,1625315763739625896,0,0.3142,0.748,0.6318,598,8.9722,-7.7515,3.54,94,1.1806,1.0595,-18.6256,55.5674,24,0.032,8324,3.9743,95.033
lg,1625315763739669470,0,0.302,0.7383,0.6414,599,8.5449,-6.2256,2.9297,94,1.1836,1.0555,-18.8045,55.6808,24,0.033,8412,3.9743,94.9734
lg,1625315763739819012,0,0.3049,0.7507,0.6418,600,8.667,-6.3477,2.1362,94,1.1806,1.0615,-18.9613,55.8569,24,0.033,8389,3.9743,94.8634
lg,1625315763739880472,0,0.2913,0.759,0.6475,601,8.667,-6.5308,1.2817,94,1.1806,1.0585,-19.0431,55.9998,24,0.033,10597,3.9743,94.7518
lg,1625315763739923919,0,0.2961,0.7581,0.6455,602,8.4229,-6.8359,0.9766,94,1.1796,1.0595,-19.137,56.1361,24,0.033,8457,3.9743,94.5763
lg,1625315763739965228,0,0.2913,0.751,0.6506,603,7.9956,-7.7515,0.3052,94,1.1796,1.0585,-19.209,56.2458,24,0.032,8477,3.9743,94.4079
lg,1625315763740006299,0,0.2976,0.7471,0.6472,604,6.6528,-6.5918,0.1221,94,1.1796,1.0595,-19.263,56.2864,24,0.033,8486,3.9743,94.2774
lg,1625315763740048558,0,0.3201,0.7478,0.6394,605,7.2632,-7.019,-0.4272,94,1.1796,1.0595,-19.3552,56.376,24,0.033,8511,3.9743,94.1141
lg,1625315763740117857,0,0.3069,0.7546,0.6323,606,7.4463,-7.6294,-0.4883,94,1.1806,1.0595,-19.4167,56.461,24,0.033,8478,3.9743,93.9555
lg,1625315763740173727,0,0.3215,0.7546,0.6401,607,6.897,-6.5918,-0.3662,94,1.1806,1.0595,-19.4598,56.5156,24,0.033,8977,3.9743,93.8157
lg,1625315763740219531,0,0.3005,0.7498,0.6489,608,5.9204,-6.3477,-0.1831,94,1.1796,1.0585,-19.4919,56.5177,24,0.033,9069,3.9743,93.6902
lg,1625315764099893707,0,0.2803,0.7568,0.6338,609,5.3101,-8.5449,1.2207,94,1.1806,1.0595,-19.5761,56.5466,24,0.032,24721,3.9743,93.5075
lg,1625315764100058023,0,0.3179,0.7639,0.6443,610,5.3101,-10.5591,2.1973,94,1.1806,1.0595,-19.8046,56.5856,24,0.033,10833,3.9743,93.2784
lg,1625315764100114662,0,0.3162,0.7537,0.6401,611,5.6763,-11.5967,2.2583,91,1.1806,1.0595,-20.0524,56.6431,24,0.033,10734,3.9743,93.0175
lg,1625315764100169068,0,0.3303,0.772,0.6506,612,5.249,-11.4136,2.6855,91,1.1806,1.0595,-20.3153,56.6861,24,0.033,7835,3.9743,92.7711
lg,1625315764100215294,0,0.3291,0.7688,0.6433,613,5.188,-10.6812,2.4414,91,1.1806,1.0595,-20.5504,56.7282,24,0.033,7877,3.9743,92.5431
lg,1625315764100313218,0,0.3311,0.7566,0.6284,614,3.479,-8.9722,2.9907,91,1.1816,1.0595,-20.7691,56.6834,24,0.033,8887,3.9743,92.3877
lg,1625315764100369710,0,0.3296,0.7532,0.6243,615,4.0894,-8.3618,2.8687,91,1.1806,1.0595,-20.9624,56.6609,24,0.032,7986,3.9743,92.2507
lg,1625315764100416302,0,0.311,0.7366,0.6226,616,3.1738,-8.4229,3.1738,91,1.1796,1.0585,-21.1311,56.5782,24,0.032,8351,3.9743,92.1275
lg,1625315764100463242,0,0.3171,0.7437,0.6355,617,2.7466,-8.1177,2.8076,91,1.1806,1.0595,-21.2607,56.4498,24,0.033,8004,3.9743,92.0179
lg,1625315764100507985,0,0.3179,0.7192,0.6423,618,2.8076,-9.1553,2.7466,91,1.1786,1.0595,-21.4374,56.3125,24,0.032,7997,3.9743,91.8803
lg,1625315764100554449,0,0.3257,0.7241,0.6372,619,2.6855,-8.4229,2.0752,91,1.1826,1.0595,-21.5845,56.1897,24,0.033,8053,3.9743,91.746
lg,1625315764100597857,0,0.3315,0.7512,0.6353,620,3.7231,-7.4463,2.0752,91,1.1846,1.0595,-21.7321,56.1234,24,0.033,8092,3.9743,91.6378
lg,1625315764100641740,0,0.3264,0.7324,0.6445,621,3.6621,-6.6528,2.1973,91,1.1796,1.0615,-21.8265,56.0226,24,0.033,8116,3.9743,91.5694
lg,1625315764100685423,0,0.3215,0.7307,0.6326,622,4.2725,-6.7749,2.0752,91,1.1816,1.0625,-21.9114,55.9716,24,0.032,8123,3.9743,91.4859
lg,1625315764100728593,0,0.3115,0.7268,0.6277,623,4.5776,-6.2866,3.2349,91,1.1816,1.0595,-22.0034,55.92,24,0.033,10867,3.9743,91.4468
lg,1625315764100771396,0,0.302,0.7188,0.6372,624,5.4321,-6.958,3.3569,91,1.1806,1.0595,-22.0917,55.8817,24,0.032,10360,3.9743,91.3979
lg,1625315764100813907,0,0.3003,0.7336,0.6445,625,5.3711,-7.8125,4.2114,91,1.1816,1.0595,-22.2091,55.8559,24,0.034,8358,3.9743,91.3354
lg,1625315764100856089,0,0.3025,0.7354,0.6423,626,5.4321,-8.8501,3.9673,91,1.1806,1.0595,-22.3574,55.8613,24,0.032,8241,3.9743,91.2258
lg,1625315764100898436,0,0.3057,0.7327,0.6333,627,6.0425,-10.437,4.5776,91,1.1816,1.0595,-22.5507,55.9156,24,0.032,8282,3.9743,91.0713
lg,1625315764100941679,0,0.3147,0.7319,0.6406,628,5.0659,-10.8032,4.2114,91,1.1806,1.0595,-22.7491,55.924,24,0.032,8305,3.9743,90.9013
lg,1625315764101015098,0,0.3171,0.7463,0.6414,629,5.9814,-11.2305,4.4556,91,1.1816,1.0595,-22.9535,55.994,24,0.033,9440,3.9743,90.7143
lg,1625315764101061837,0,0.3384,0.759,0.6509,630,5.6763,-11.1084,4.0894,91,1.1806,1.0595,-23.1462,56.0304,24,0.032,8818,3.9743,90.5278
lg,1625315764101237206,0,0.3389,0.7595,0.6394,631,5.9204,-10.6201,3.418,91,1.1796,1.0595,-23.3245,56.1216,24,0.032,8311,3.9743,90.3301
lg,1625315764101284750,0,0.3308,0.7517,0.6409,632,4.3335,-9.2773,2.8076,91,1.1806,1.0565,-23.4332,56.1181,24,0.032,8411,3.9743,90.1739
lg,1625315764101328176,0,0.3342,0.7456,0.6404,633,3.6621,-7.3853,2.6245,91,1.1816,1.0595,-23.5007,56.0544,24,0.033,8764,3.9743,90.0855
lg,1625315764101372883,0,0.3218,0.7422,0.6462,634,2.2583,-7.9346,2.0142,91,1.1816,1.0595,-23.5318,55.9343,24,0.033,8386,3.9743,89.9687
lg,1625315764101419109,0,0.3005,0.73,0.6506,635,1.2207,-7.019,2.0752,91,1.1816,1.0585,-23.5213,55.6992,24,0.033,8482,3.9743,89.9051
lg,1625315764101466580,0,0.3086,0.73,0.6555,636,2.1973,-8.728,1.9531,91,1.1796,1.0555,-23.5443,55.5658,24,0.033,8441,3.9743,89.7687
lg,1625315764101508926,0,0.3105,0.72,0.6445,637,3.0518,-10.8032,1.77,91,1.1836,1.0565,-23.6211,55.5079,24,0.033,8543,3.9743,89.5498
lg,1625315764101555225,0,0.3162,0.7214,0.6367,638,1.8921,-10.9863,1.5259,91,1.1836,1.0605,-23.7051,55.4286,24,0.032,8503,3.9743,89.311
lg,1625315764101600591,0,0.3096,0.719,0.6555,639,2.3193,-10.5591,1.4038,91,1.1816,1.0625,-23.8073,55.3853,24,0.032,8525,3.9743,89.0618
lg,1625315764101648263,0,0.3147,0.7209,0.6426,640,2.1973,-12.085,1.3428,91,1.1796,1.0555,-23.8981,55.3299,24,0.033,8615,3.9743,88.7827
lg,1625315764445800026,0,0.3262,0.7207,0.6338,641,3.1128,-10.437,0.1221,91,1.1816,1.0595,-23.936,55.3187,24,0.033,24943,3.9743,88.5257
lg,1625315764445945622,0,0.321,0.7151,0.6299,642,3.8452,-10.7422,0.4883,91,1.1816,1.0605,-23.9854,55.336,24,0.033,9704,3.9743,88.2675
lg,1625315764446001217,0,0.3315,0.7114,0.6472,643,4.0894,-10.9863,0.3052,91,1.1816,1.0595,-24.0498,55.3312,24,0.033,10712,3.9743,88.0115
lg,1625315764446103460,0,0.3354,0.7341,0.6545,644,5.188,-12.085,0.3662,91,1.1816,1.0605,-24.1403,55.438,24,0.033,8072,3.9743,87.6961
lg,1625315764446156054,0,0.3413,0.7314,0.6418,645,5.0049,-11.5356,0,91,1.1826,1.0595,-24.2103,55.5201,24,0.033,8198,3.9743,87.3968
lg,1625315764446204257,0,0.3369,0.7332,0.6262,646,4.8218,-10.9863,0.4883,91,1.1826,1.0605,-24.277,55.6102,24,0.033,7949,3.9743,87.1178
lg,1625315764446251928,0,0.3403,0.7227,0.6213,647,4.1504,-10.5591,0.061,91,1.1826,1.0595,-24.3231,55.6508,24,0.033,7934,3.9743,86.8522
lg,1625315764446297825,0,0.3379,0.7371,0.6357,648,4.3945,-9.7046,1.0986,91,1.1826,1.0595,-24.3722,55.6822,24,0.032,7930,3.9743,86.6414
lg,1625315764446345789,0,0.3245,0.7271,0.6316,649,3.9062,-9.1553,0.9155,91,1.1816,1.0595,-24.3808,55.6777,24,0.033,8041,3.9743,86.4504
lg,1625315764446392400,0,0.3252,0.7268,0.637,650,3.9673,-9.3384,1.77,91,1.1816,1.0605,-24.3993,55.6373,24,0.033,9155,3.9743,86.2845
lg,1625315764446438827,0,0.312,0.7219,0.6394,651,3.7842,-9.7046,2.5024,91,1.1826,1.0605,-24.4455,55.5981,24,0.033,10094,3.9743,86.122
lg,1625315764446482344,0,0.3059,0.7227,0.6406,652,5.3101,-10.6812,2.1973,91,1.1816,1.0595,-24.488,55.6377,24,0.034,8075,3.9743,85.9168
lg,1625315764446526850,0,0.2993,0.7261,0.6416,653,5.188,-12.3291,2.6245,91,1.1826,1.0605,-24.5633,55.6946,24,0.033,8090,3.9743,85.6613
lg,1625315764446571484,0,0.3279,0.7412,0.6245,654,5.127,-12.3291,3.1738,91,1.1846,1.0605,-24.7107,55.7998,24,0.034,8103,3.9743,85.396
lg,1625315764446614343,0,0.3252,0.7256,0.6294,655,6.4087,-12.6953,3.0518,91,1.1806,1.0585,-24.8581,55.9259,24,0.034,8167,3.9743,85.1297
lg,1625315764446658739,0,0.3147,0.7285,0.6213,656,6.1646,-11.8408,3.2959,91,1.1856,1.0585,-24.9674,56.0414,24,0.034,8222,3.9743,84.8944
lg,1625315764446700426,0,0.3069,0.7346,0.6204,657,6.1035,-10.9863,3.1738,91,1.1826,1.0595,-25.0292,56.1492,24,0.034,8212,3.9743,84.6844
lg,1625315764446746177,0,0.323,0.7319,0.6152,658,5.127,-10.376,3.2349,91,1.1806,1.0595,-25.0633,56.1768,24,0.033,8221,3.9743,84.5113
lg,1625315764446864560,0,0.3157,0.7205,0.6299,659,5.6152,-10.0708,3.2959,91,1.1806,1.0635,-25.1286,56.205,24,0.033,8486,3.9743,84.3568
lg,1625315764446930257,0,0.303,0.7026,0.6257,660,5.8594,-10.1318,3.418,91,1.1826,1.0585,-25.1819,56.2194,24,0.034,8246,3.9743,84.213
lg,1625315764446972347,0,0.2883,0.719,0.6208,661,6.6528,-10.376,3.6621,91,1.1866,1.0625,-25.2181,56.3408,24,0.034,8284,3.9743,83.9984
lg,1625315764447014748,0,0.2925,0.729,0.6299,662,7.6904,-12.0239,3.418,91,1.1806,1.0595,-25.2694,56.487,24,0.034,8342,3.9743,83.7721
lg,1625315764447055759,0,0.3108,0.7305,0.6448,663,8.9722,-13.5498,3.2959,91,1.1846,1.0625,-25.3799,56.6805,24,0.034,8328,3.9743,83.4982
lg,1625315764447098654,0,0.3254,0.7288,0.6355,664,11.1084,-15.3198,2.3804,91,1.1826,1.0595,-25.5277,57.0065,24,0.034,8339,3.9743,83.1316
lg,1625315764447144624,0,0.323,0.7354,0.6328,665,10.8032,-15.2588,2.0752,91,1.1806,1.0595,-25.6587,57.341,24,0.034,8397,3.9743,82.7505
lg,1625315764447545542,0,0.3364,0.7241,0.6382,666,10.437,-15.5029,1.77,91,1.1816,1.0635,-25.8002,57.6152,24,0.034,8483,3.9743,82.3748
lg,1625315764447611843,0,0.3369,0.7244,0.6326,667,10.498,-14.9536,0.7324,91,1.1826,1.0605,-25.8908,57.895,24,0.033,8439,3.9743,81.9937
lg,1625315764447660613,0,0.3257,0.7278,0.6362,668,9.2163,-13.6108,0,91,1.1826,1.0595,-25.8965,58.0957,24,0.034,8418,3.9743,81.6512
lg,1625315764447707937,0,0.3284,0.7241,0.6338,669,8.3618,-13.1836,-0.6104,91,1.1806,1.0625,-25.8786,58.2712,24,0.034,8520,3.9743,81.3055
lg,1625315764447754236,0,0.3225,0.7424,0.6492,670,7.9956,-14.0381,-1.4038,91,1.1826,1.0605,-25.899,58.5034,24,0.034,8939,3.9743,80.8509
lg,1625315764447800371,0,0.3511,0.7646,0.6501,671,8.3618,-15.2588,-2.0142,91,1.1816,1.0565,-25.8901,58.7277,24,0.034,8561,3.9743,80.3922
lg,1625315764447845755,0,0.3716,0.7654,0.6333,672,8.0566,-14.0991,-3.2959,91,1.1826,1.0625,-25.8587,58.9588,24,0.033,8502,3.9743,79.9363
lg,1625315764798379431,0,0.3828,0.752,0.6235,673,6.5918,-9.8877,-4.1504,91,1.1816,1.0605,-25.7254,59.0115,24,0.033,24988,3.9743,79.6852
lg,1625315764798581354,0,0.3889,0.7537,0.6274,674,3.6011,-5.6763,-4.5776,91,1.1826,1.0605,-25.5285,58.9209,24,0.032,10815,3.9743,79.5272
lg,1625315764798699572,0,0.3779,0.7456,0.6252,675,2.3193,-6.1646,-4.2725,91,1.1826,1.0605,-25.3445,58.7781,24,0.033,9830,3.9743,79.359
lg,1625315764798754930,0,0.373,0.7676,0.6104,676,2.5024,-5.4932,-3.9062,91,1.1826,1.0605,-25.1412,58.6349,24,0.033,7867,3.9743,79.2205
lg,1625315764798830015,0,0.3679,0.7312,0.6245,677,1.709,-5.188,-2.9907,91,1.1826,1.0605,-24.9868,58.4285,24,0.033,7993,3.9743,79.1208
lg,1625315764798877522,0,0.3645,0.7246,0.6287,678,2.3804,-5.127,-1.9531,91,1.1826,1.0605,-24.8686,58.2277,24,0.033,9330,3.9743,79.0507
lg,1625315764798923236,0,0.3733,0.7275,0.6108,679,3.54,-6.7749,0.1221,91,1.1826,1.0605,-24.8833,58.1258,24,0.033,7867,3.9743,78.9464
lg,1625315764798970486,0,0.3628,0.7214,0.6208,680,3.9062,-5.4932,0.2441,91,1.1826,1.0605,-24.8535,57.9917,24,0.033,8615,3.9743,78.9041
lg,1625315764799022276,0,0.3552,0.7021,0.6204,681,3.9673,-6.1035,1.8921,91,1.1806,1.0585,-24.8914,57.8285,24,0.033,8515,3.9743,78.888
lg,1625315764799067806,0,0.3433,0.7129,0.623,682,6.3477,-8.1177,3.0518,91,1.1836,1.0605,-24.9759,57.7973,24,0.032,8091,3.9743,78.817
lg,1625315764799404765,0,0.3572,0.7175,0.6133,683,5.9204,-8.3008,3.479,91,1.1826,1.0605,-25.107,57.7773,24,0.033,7963,3.9743,78.7374
lg,1625315764799486676,0,0.3584,0.7327,0.6182,684,8.1177,-8.606,3.418,91,1.1836,1.0575,-25.2257,57.865,24,0.033,7999,3.9743,78.6394
lg,1625315764799532921,0,0.3477,0.7329,0.6211,685,8.3008,-7.6904,3.54,91,1.1826,1.0605,-25.3009,57.9345,24,0.033,8008,3.9743,78.583
lg,1625315764799576932,0,0.3542,0.7483,0.623,686,9.0942,-7.3242,4.0283,91,1.1826,1.0595,-25.3766,57.9952,24,0.033,8073,3.9743,78.5646
lg,1625315764799619206,0,0.3589,0.7332,0.6421,687,8.4229,-6.7749,4.0283,91,1.1806,1.0625,-25.458,58.0075,24,0.033,8092,3.9743,78.5727
lg,1625315764799660875,0,0.334,0.7358,0.6313,688,7.3242,-5.3711,4.3335,91,1.1816,1.0585,-25.4681,57.9708,24,0.033,10537,3.9743,78.6321
lg,1625315764799702983,0,0.3281,0.7312,0.6379,689,7.019,-6.1035,4.5776,91,1.1856,1.0585,-25.4899,57.9126,24,0.033,8114,3.9743,78.678
lg,1625315764799782040,0,0.3262,0.7424,0.6406,690,6.3477,-6.4087,4.2725,91,1.1826,1.0595,-25.4877,57.8937,24,0.033,8093,3.9743,78.6613
lg,1625315764799826820,0,0.3254,0.7349,0.6355,691,7.3853,-7.8125,3.0518,91,1.1826,1.0605,-25.486,57.9062,24,0.033,12077,3.9743,78.6019
lg,1625315764799869002,0,0.3362,0.7419,0.6331,692,6.897,-8.5449,2.9297,91,1.1826,1.0605,-25.5001,57.9445,24,0.033,8237,3.9743,78.4792
lg,1625315764799911604,0,0.3484,0.7578,0.6257,693,6.3477,-8.1787,1.5869,91,1.1826,1.0605,-25.4921,57.9901,24,0.033,8248,3.9743,78.3484
lg,1625315764799952871,0,0.3494,0.7542,0.6304,694,5.4932,-6.897,0.7935,91,1.1826,1.0605,-25.4333,57.9728,24,0.033,8227,3.9743,78.254
lg,1625315764799993735,0,0.3665,0.7468,0.6199,695,4.1504,-5.3711,-0.1221,91,1.1826,1.0605,-25.3574,57.8976,24,0.033,8241,3.9743,78.1907
lg,1625315764800037600,0,0.3464,0.7502,0.6323,696,3.6621,-4.2725,-0.3052,91,1.1836,1.0605,-25.2127,57.7909,24,0.033,8534,3.9743,78.1624
lg,1625315764800079818,0,0.3145,0.7412,0.6235,697,2.3193,-2.6855,-0.3662,91,1.1806,1.0605,-24.9754,57.5889,24,0.034,8696,3.9743,78.1984
lg,1625315764800120939,0,0.3005,0.7378,0.6316,698,2.6245,-4.2114,0,91,1.1836,1.0605,-24.7622,57.406,24,0.034,8299,3.9743,78.1906
lg,1625315764800282656,0,0.3013,0.7583,0.6462,699,1.0376,-8.7891,0.5493,91,1.1836,1.0605,-24.6588,57.2372,24,0.033,8369,3.9743,78.0198
lg,1625315764800335159,0,0.3176,0.749,0.6338,700,1.5869,-11.3525,1.2207,91,1.1816,1.0595,-24.6807,57.1401,24,0.033,8357,3.9743,77.7629
lg,1625315764800379171,0,0.3542,0.7571,0.6338,701,1.0376,-12.8784,1.9531,91,1.1806,1.0595,-24.8297,57.0571,24,0.034,8477,3.9743,77.4595
lg,1625315764800422560,0,0.3608,0.7502,0.6279,702,0.1221,-14.5874,2.9297,91,1.1826,1.0605,-25.0628,56.9598,24,0.033,8486,3.9743,77.1149
lg,1625315764800466353,0,0.373,0.7688,0.6343,703,-1.4038,-13.916,3.2349,91,1.1836,1.0635,-25.3068,56.7828,24,0.033,8470,3.9743,76.8016
lg,1625315764800517300,0,0.3728,0.7676,0.6384,704,-2.1973,-14.5874,4.6997,91,1.1816,1.0595,-25.5906,56.5955,24,0.033,8505,3.9743,76.4949
lg,1625315765158053397,0,0.3645,0.7571,0.6184,705,-9.8267,-14.8926,10.1318,91,1.1826,1.0605,-26.0502,56.0799,24,0.033,24347,3.9743,76.3007
lg,1625315765158139347,0,0.3333,0.7681,0.6174,706,-16.1743,-20.4468,15.9302,91,1.1836,1.0605,-26.7388,55.3742,24,0.034,14034,3.9743,76.0372
lg,1625315765158395896,0,0.3008,0.782,0.6323,707,-22.3389,-29.48,20.1416,91,1.1836,1.0605,-27.6673,54.5438,24,0.034,10360,3.9743,75.5528
lg,1625315765158465719,0,0.3208,0.7866,0.6355,708,-26.4282,-34.668,22.8882,91,1.1836,1.0615,-28.8122,53.6429,24,0.033,7894,3.9743,74.9533
lg,1625315765158514613,0,0.3867,0.7668,0.6599,709,-33.8135,-43.2129,28.7476,91,1.1836,1.0615,-30.4431,52.489,24,0.034,7911,3.9743,74.2438
lg,1625315765158564424,0,0.4307,0.7463,0.6692,710,-38.0249,-44.5557,33.2642,91,1.1836,1.0615,-32.29,51.1262,24,0.034,7990,3.9743,73.6563
lg,1625315765158612915,0,0.4368,0.7429,0.6824,711,-39.5508,-43.335,35.2783,91,1.1836,1.0615,-34.114,49.6622,24,0.034,7980,3.9743,73.2147
lg,1625315765158663239,0,0.4812,0.7236,0.6541,712,-42.9077,-43.457,39.6729,91,1.1846,1.0615,-36.1588,47.9375,24,0.034,9971,3.9743,73.0324
lg,1625315765158706947,0,0.4824,0.7117,0.6619,713,-46.5698,-40.0391,44.4336,91,1.1836,1.0615,-38.1214,45.7306,24,0.033,8607,3.9743,73.3202
lg,1625315765158751553,0,0.4563,0.7053,0.6521,714,-51.3306,-33.7524,49.0112,91,1.1836,1.0615,-39.9398,43.3832,24,0.033,8025,3.9743,73.8421
lg,1625315765158796324,0,0.4346,0.6785,0.6497,715,-57.0679,-34.8511,53.1006,91,1.1846,1.0615,-41.7871,40.6848,24,0.033,9687,3.9743,74.5873
lg,1625315765158841095,0,0.4451,0.6519,0.6475,716,-60.8521,-40.2222,56.2134,91,1.1846,1.0615,-43.815,37.8092,24,0.032,8108,3.9743,75.4045
lg,1625315765158886250,0,0.5173,0.6213,0.6472,717,-63.1714,-43.0298,57.6782,91,1.1846,1.0615,-46.1147,34.7582,24,0.033,8105,3.9743,76.3356
lg,1625315765158930288,0,0.5291,0.6147,0.6499,718,-64.7583,-46.2036,58.8379,91,1.1846,1.0615,-48.4112,31.5244,24,0.033,9309,3.9743,77.452
lg,1625315765158972732,0,0.5693,0.6018,0.6458,719,-65.1855,-45.2271,57.373,91,1.1836,1.0625,-50.5189,28.2456,24,0.033,8178,3.9743,78.6637
lg,1625315765159014534,0,0.5898,0.5999,0.6243,720,-67.8711,-42.7856,53.833,91,1.1856,1.0605,-52.4111,24.907,24,0.032,8198,3.9743,79.8721
lg,1625315765159093245,0,0.6128,0.5669,0.6489,721,-69.6411,-42.2974,53.1616,91,1.1856,1.0625,-54.1704,21.3183,24,0.034,8215,3.9743,81.1742
lg,1625315765159138602,0,0.6394,0.5742,0.6584,722,-72.998,-40.7715,50.4761,91,1.1836,1.0605,-55.7513,17.5709,24,0.033,8255,3.9743,82.6356
lg,1625315765159179763,0,0.6765,0.5388,0.6555,723,-74.8291,-31.1279,47.3633,91,1.1856,1.0625,-56.8834,13.5686,24,0.033,8280,3.9743,84.3077
lg,1625315765159222940,0,0.625,0.5007,0.6719,724,-74.0356,-17.5781,46.3257,88,1.1856,1.0615,-57.281,9.3781,24,0.033,8686,3.9776,86.2537
lg,1625315765159269250,0,0.5835,0.4785,0.6685,725,-76.1719,-13.7329,46.2646,88,1.1856,1.0625,-57.3801,5.1403,24,0.034,8283,3.9776,88.2116
lg,1625315765159313618,0,0.5999,0.4626,0.6687,726,-75.3174,-10.7422,47.8516,88,1.1876,1.0625,-57.2468,1.0216,24,0.033,8351,3.9776,90.2221
lg,1625315765159514070,0,0.5586,0.4595,0.6755,727,-71.9604,-8.7891,47.5464,88,1.1836,1.0575,-56.9579,-2.8718,24,0.033,8471,3.9776,92.1083
lg,1625315765159610997,0,0.5288,0.437,0.6882,728,-69.8242,-12.5732,49.7437,88,1.1886,1.0615,-56.6806,-6.7068,24,0.033,8386,3.9776,94.0854
lg,1625315765159660881,0,0.5107,0.4058,0.6814,729,-67.1387,-16.4795,52.3682,88,1.1856,1.0645,-56.4455,-10.5264,24,0.033,8437,3.9776,96.2244
lg,1625315765159708420,0,0.4973,0.4365,0.6704,730,-65.979,-18.6157,54.0771,88,1.1856,1.0625,-56.2914,-14.0256,24,0.033,8426,3.9776,98.1962
lg,1625315765159753044,0,0.4973,0.4822,0.6277,731,-69.7632,-28.0151,56.8848,88,1.1846,1.0625,-56.4447,-17.815,24,0.033,8466,3.9776,100.4141
lg,1625315765159799428,0,0.5688,0.4839,0.6255,732,-80.3833,-40.5884,60.5469,88,1.1856,1.0615,-57.0261,-22.5562,24,0.034,8428,3.9776,103.2628
lg,1625315765159846526,0,0.6685,0.3787,0.6064,733,-89.9048,-48.7061,62.439,88,1.1856,1.0625,-57.7758,-28.4718,24,0.034,8510,3.9776,106.9152
lg,1625315765159890307,0,0.7227,0.3059,0.708,734,-99.2432,-50.4761,62.1338,88,1.1856,1.0645,-58.0945,-34.8751,24,0.035,8491,3.9776,110.685
lg,1625315765159935023,0,0.7546,0.3311,0.7292,735,-86.6089,-34.9731,63.9648,88,1.1836,1.0615,-57.7912,-40.2513,24,0.035,8584,3.9776,113.843
lg,1625315765160059788,0,0.647,0.2021,0.7732,736,-76.6602,-20.5688,65.3076,88,1.1836,1.0615,-56.5828,-44.4796,24,0.034,9197,3.9776,116.145
lg,1625315765508148390,0,0.6821,0.2148,0.7825,737,-54.8096,-15.8081,72.3877,88,1.1856,1.0625,-54.8397,-47.2118,24,0.036,24672,3.9776,117.9373
lg,1625315765508184713,0,0.6523,0.2334,0.8113,738,-48.0347,-2.6855,73.1812,88,1.1856,1.0625,-52.862,-48.9719,24,0.036,8660,3.9776,119.0538
lg,1625315765508205586,0,0.582,0.2278,0.7595,739,-41.8701,-11.3525,74.7681,88,1.1856,1.0625,-51.1015,-50.8356,24,0.036,14575,3.9776,120.5605
lg,1625315765508224902,0,0.6433,0.2114,0.7202,740,-39.5508,-15.3809,77.7588,88,1.1866,1.0625,-49.4667,-52.8208,24,0.037,7918,3.9776,122.3721
lg,1625315765508243741,0,0.6177,0.21,0.687,741,-37.1704,-11.4136,77.8198,88,1.1866,1.0625,-47.7627,-54.367,24,0.036,8114,3.9776,123.8421
lg,1625315765508261426,0,0.5752,0.189,0.7122,742,-36.8042,-10.1929,77.7588,88,1.1856,1.0625,-46.0069,-55.6831,24,0.037,9634,3.9776,125.202
lg,1625315765508278415,0,0.5781,0.2068,0.7153,743,-35.0342,-18.2495,76.2939,88,1.1856,1.0625,-44.4522,-56.9727,24,0.036,8065,3.9776,126.7051
lg,1625315765508294945,0,0.6384,0.1528,0.7205,744,-31.4331,-30.8228,75.7446,88,1.1836,1.0625,-43.1898,-58.5587,24,0.037,8335,3.9776,128.8241
lg,1625315765508310944,0,0.6848,0.1465,0.7217,745,-27.6489,-29.541,75.2563,88,1.1846,1.0605,-41.9572,-59.8856,24,0.036,8035,3.9776,130.8289
lg,1625315765508327052,0,0.6611,0.1221,0.7429,746,-25.6958,-25.5737,75.6226,88,1.1866,1.0625,-40.5057,-60.8754,24,0.035,8077,3.9776,132.5639
lg,1625315765508342996,0,0.6482,0.0754,0.7908,747,-22.0947,-20.3247,75.9277,88,1.1836,1.0595,-38.877,-61.4597,24,0.035,8320,3.9776,134.0093
lg,1625315765508359032,0,0.6509,0.0579,0.8418,748,-15.1978,-23.4375,73.0591,88,1.1856,1.0615,-37.3661,-61.7134,24,0.035,8076,3.9776,135.4955
lg,1625315765508374902,0,0.6384,0.054,0.8662,749,-11.2305,-21.7285,71.9604,88,1.1856,1.0615,-35.8522,-61.4683,24,0.035,8011,3.9776,136.7662
lg,1625315765508391268,0,0.6499,0.0647,0.8462,750,-4.3335,-21.6675,69.8242,88,1.1836,1.0595,-34.5041,-61.095,24,0.035,8026,3.9776,138.1317
lg,1625315765508408329,0,0.6885,0.106,0.79,751,2.5024,-20.1416,67.3218,88,1.1846,1.0605,-33.4137,-60.4072,24,0.035,8060,3.9776,139.442
lg,1625315765508426637,0,0.667,0.1304,0.7307,752,2.9907,-17.1509,64.6362,88,1.1866,1.0595,-32.4379,-59.4815,24,0.035,8065,3.9776,140.3832
lg,1625315765508443626,0,0.6624,0.1204,0.738,753,1.8921,-9.0942,60.8521,88,1.1826,1.0585,-31.4725,-58.5005,24,0.035,8124,3.9776,141.1967
lg,1625315765508462117,0,0.655,0.1155,0.7874,754,-1.2207,-4.3945,56.2134,88,1.1836,1.0585,-30.5244,-57.4575,24,0.035,8113,3.9776,141.7491
lg,1625315765508479655,0,0.7632,0.0789,0.8899,755,-4.5776,1.4038,52.3682,88,1.1836,1.0585,-29.5988,-56.4875,24,0.035,8159,3.9776,142.086
lg,1625315765508496625,0,0.8071,0.0608,0.9553,756,-3.9062,8.5449,51.0254,88,1.1816,1.0575,-28.5573,-55.3837,24,0.035,8101,3.9776,142.1903
lg,1625315765508527798,0,0.8083,0.0618,0.9993,757,-4.5166,39.978,49.0723,88,1.1796,1.0575,-26.8457,-53.7508,24,0.035,8305,3.9776,141.1518
lg,1625315765508545043,0,0.6707,0.0608,0.9504,758,-6.8359,74.0356,47.9736,88,1.1826,1.0585,-24.2427,-51.7002,24,0.035,11035,3.9776,139.007
lg,1625315765508561940,0,0.5403,0.1013,0.8518,759,-11.7798,85.3882,42.9077,88,1.1816,1.0585,-21.4473,-49.7216,24,0.035,8502,3.9776,136.5532
lg,1625315765508579826,0,0.425,0.071,0.8135,760,-17.8833,81.4819,35.5225,88,1.1816,1.0585,-18.7917,-48.1119,24,0.035,8299,3.9776,134.2633
lg,1625315765508596924,0,0.2742,0.0437,0.801,761,-19.5923,77.0874,31.25,88,1.1806,1.0585,-16.4642,-46.791,24,0.036,8364,3.9776,132.3876
lg,1625315765508613748,0,0.2317,0.0308,0.8254,762,-22.3999,50.2319,22.0947,88,1.1796,1.0585,-14.6213,-45.7312,24,0.036,8309,3.9776,131.0163
lg,1625315765508630186,0,0.2451,-0.0303,0.8555,763,-20.3247,9.7656,14.4043,88,1.1786,1.0585,-14.1414,-45.0073,24,0.034,8473,3.9776,130.7448
lg,1625315765508646918,0,0.3943,-0.0522,0.853,764,-15.3809,-20.2637,8.7891,88,1.1776,1.0585,-15.0084,-44.4121,24,0.034,8330,3.9776,131.2389
lg,1625315765508664090,0,0.5371,-0.0588,0.8545,765,-10.376,-28.2593,2.9907,88,1.1746,1.0585,-16.5137,-43.7653,24,0.034,9869,3.9776,131.8
lg,1625315765508681317,0,0.5837,-0.0452,0.8557,766,-8.4839,-25.5737,0,88,1.1746,1.0595,-18.0083,-42.9097,24,0.035,8369,3.9776,131.923
lg,1625315765508698818,0,0.6255,-0.031,0.8389,767,-6.5308,-10.7422,-3.2349,88,1.1716,1.0565,-19.2689,-41.9684,24,0.034,8371,3.9776,131.7256
lg,1625315765508716118,0,0.5947,-0.0471,0.8318,768,-4.0894,10.8643,-4.6387,88,1.1726,1.0585,-19.8289,-40.741,24,0.033,8411,3.9776,130.8508
lg,1625315765860247942,0,0.387,-0.0752,0.8508,769,3.418,17.5781,-11.2305,88,1.1676,1.0625,-19.8823,-39.0224,24,0.034,24321,3.9776,129.5562
lg,1625315765860287710,0,0.5366,-0.0405,0.8735,770,10.498,-14.6484,-16.9067,88,1.1666,1.0625,-21.3347,-37.3017,24,0.034,9082,3.9776,128.9429
lg,1625315765860308638,0,0.571,-0.0095,0.8484,771,12.3901,-12.6953,-15.4419,88,1.1666,1.0635,-22.7275,-35.5026,24,0.035,14075,3.9776,128.2734
lg,1625315765860328247,0,0.4475,0.0112,0.8352,772,14.6484,-9.0942,-10.6812,88,1.1666,1.0635,-23.6209,-33.5568,24,0.034,7943,3.9776,127.6033
lg,1625315765860349249,0,0.5466,0.0103,0.8535,773,13.4888,-34.3018,-6.1035,88,1.1666,1.0645,-25.3775,-32.0716,24,0.033,7940,3.9776,127.7093
lg,1625315765860367411,0,0.6243,-0.0054,0.8572,774,14.4653,-39.7339,-4.4556,88,1.1666,1.0655,-27.3474,-30.7417,24,0.034,7992,3.9776,127.9903
lg,1625315765860385132,0,0.7275,-0.0063,0.8389,775,15.8691,-37.2925,0.061,88,1.1666,1.0655,-29.2596,-29.5183,24,0.034,7980,3.9776,128.3783
lg,1625315765860402249,0,0.7461,0.0076,0.8013,776,17.8833,-25.4517,3.7231,88,1.1676,1.0655,-30.7097,-28.1906,24,0.034,9040,3.9776,128.6108
lg,1625315765860419329,0,0.7419,0.0112,0.7952,777,17.2119,-18.6157,4.8218,88,1.1686,1.0655,-31.6838,-26.8471,24,0.034,8356,3.9776,128.6338
lg,1625315765860436555,0,0.7625,0.022,0.7822,778,16.4185,-9.3994,5.6152,88,1.1696,1.0665,-32.5052,-25.496,24,0.034,9020,3.9776,128.5703
lg,1625315765860453489,0,0.7585,0.03,0.8074,779,16.4185,2.0142,4.7607,88,1.1696,1.0665,-32.8619,-24.0067,24,0.035,9711,3.9776,128.228
lg,1625315765860470569,0,0.6965,0.0022,0.8369,780,16.4795,14.8926,4.6387,88,1.1706,1.0665,-32.5869,-22.4487,24,0.035,12459,3.9776,127.6748
lg,1625315765860494375,0,0.7056,0.0244,0.8604,781,16.9678,15.8081,4.1504,88,1.1716,1.0665,-32.3477,-20.9598,24,0.035,8203,3.9776,127.1432
lg,1625315765860513709,0,0.75,0.0117,0.8381,782,16.6016,24.4141,6.1646,88,1.1706,1.0665,-31.7763,-19.4815,24,0.034,8186,3.9776,126.6058
lg,1625315765860530019,0,0.676,0.0076,0.8442,783,16.9678,38.4521,8.1787,88,1.1726,1.0665,-30.539,-17.9771,24,0.036,8187,3.9776,126.003
lg,1625315765860546806,0,0.6848,0.0071,0.8052,784,17.7612,43.1519,10.0708,88,1.1726,1.0675,-29.2011,-16.5552,24,0.035,8232,3.9776,125.5197
lg,1625315765860564711,0,0.6753,-0.0042,0.8147,785,18.8599,46.0205,11.0474,88,1.1726,1.0665,-27.541,-15.1668,24,0.035,9217,3.9776,125.075
lg,1625315765860596342,0,0.6362,-0.0098,0.8296,786,20.2637,52.8564,10.8032,88,1.1726,1.0665,-25.8037,-13.7925,24,0.036,8254,3.9776,124.7058
lg,1625315765860615218,0,0.6448,0.022,0.8381,787,21.1182,58.2275,10.8032,88,1.1736,1.0675,-23.928,-12.3718,24,0.035,8270,3.9776,124.3478
lg,1625315765860632353,0,0.6213,0.0107,0.8525,788,21.9727,67.0166,9.1553,88,1.1746,1.0685,-21.7285,-10.9621,24,0.035,8285,3.9776,123.9535
lg,1625315765860648663,0,0.6011,0.0283,0.8621,789,21.9727,70.8618,8.9111,88,1.1766,1.0675,-19.413,-9.5809,24,0.036,8440,3.9776,123.6128
lg,1625315765860665505,0,0.5679,0.0208,0.8965,790,22.1558,70.9229,6.897,88,1.1726,1.0665,-17.0915,-8.2562,24,0.036,8322,3.9776,123.2994
lg,1625315765860682896,0,0.5415,0.0239,0.8896,791,21.9727,72.6929,5.9814,88,1.1756,1.0685,-14.749,-6.9912,24,0.036,8362,3.9776,123.0342
lg,1625315765860700196,0,0.4927,0.0474,0.9036,792,21.7896,72.876,5.4932,88,1.1746,1.0685,-12.3959,-5.7784,24,0.035,8356,3.9776,122.8201
lg,1625315765860716800,0,0.4675,0.0659,0.9009,793,20.5078,70.3125,5.3101,88,1.1736,1.0645,-10.174,-4.5946,24,0.036,8411,3.9776,122.6919
lg,1625315765860733678,0,0.4238,0.0632,0.9065,794,17.5781,65.6738,3.9673,88,1.1756,1.0685,-8.1326,-3.5768,24,0.036,8463,3.9776,122.601
lg,1625315765860750795,0,0.3933,0.074,0.9219,795,14.9536,59.6313,3.2959,88,1.1756,1.0715,-6.3353,-2.681,24,0.036,8475,3.9776,122.5545
lg,1625315765860768535,0,0.3865,0.0723,0.9285,796,13.5498,55.7861,3.9062,88,1.1746,1.0715,-4.8783,-1.9509,24,0.036,8469,3.9776,122.5992
lg,1625315765860784790,0,0.3574,0.0781,0.9592,797,10.0098,47.5464,4.6387,88,1.1756,1.0685,-3.5853,-1.3527,24,0.036,9599,3.9776,122.7088
lg,1625315765860801559,0,0.3291,0.0637,0.9482,798,8.2397,39.5508,3.54,88,1.1756,1.0695,-2.8288,-0.8546,24,0.036,10541,3.9776,122.7797
lg,1625315765860819225,0,0.3037,0.0339,0.9512,799,7.5684,27.4048,2.5024,88,1.1726,1.0675,-2.3159,-0.4473,24,0.036,8496,3.9776,122.8598
lg,1625315765860837332,0,0.3079,0.0435,0.9285,800,6.6528,16.1743,2.7466,88,1.1736,1.0695,-2.2948,-0.0688,24,0.036,8528,3.9776,122.96
lg,1625315766224166831,0,0.3633,0.0352,0.927,801,6.2256,-7.019,0.3052,88,1.1736,1.0685,-3.5083,0.2195,24,0.036,24711,3.9776,122.9327
lg,1625315766224269879,0,0.3911,0.0476,0.959,802,6.7139,-15.3809,-1.709,88,1.1746,1.0695,-4.8455,0.5889,24,0.037,13286,3.9776,122.8515
lg,1625315766224321477,0,0.4644,0.0481,0.9346,803,5.9814,-19.2261,-2.0752,88,1.1736,1.0695,-6.4424,0.9206,24,0.036,7818,3.9776,122.7483
lg,1625315766224370377,0,0.4683,0.054,0.9409,804,5.6152,-18.5547,-2.0752,88,1.1746,1.0695,-7.9322,1.1683,24,0.036,7848,3.9776,122.6641
lg,1625315766224415516,0,0.4878,0.0491,0.9292,805,3.7231,-14.2212,-1.3428,88,1.1746,1.0695,-9.2615,1.3925,24,0.036,8042,3.9776,122.5863
lg,1625315766224458435,0,0.4868,0.0276,0.9419,806,3.2349,-10.9863,-1.3428,88,1.1736,1.0695,-10.3988,1.5427,24,0.037,8001,3.9776,122.5179
lg,1625315766224502949,0,0.4783,0.0225,0.9329,807,4.3945,-6.6528,-0.7324,88,1.1746,1.0695,-11.3135,1.7188,24,0.037,8445,3.9776,122.4805
lg,1625315766224545666,0,0.4763,0.0251,0.925,808,4.2725,-5.8594,-0.1831,88,1.1726,1.0685,-12.1658,1.8861,24,0.037,8250,3.9776,122.4659
lg,1625315766224587961,0,0.4768,0.0476,0.9409,809,4.8828,-4.0894,1.0986,88,1.1746,1.0675,-12.9019,2.1086,24,0.037,7954,3.9776,122.4962
lg,1625315766224632953,0,0.4746,0.0503,0.9451,810,3.2349,-2.1362,2.0142,88,1.1736,1.0695,-13.5251,2.2531,24,0.037,7999,3.9776,122.5674
lg,1625315766224675743,0,0.4673,0.0417,0.9546,811,2.1362,-1.4648,2.0752,88,1.1726,1.0685,-14.0755,2.3271,24,0.037,8031,3.9776,122.6481
lg,1625315766224721377,0,0.491,0.0547,0.9524,812,0.9155,-0.5493,2.9297,88,1.1736,1.0705,-14.6149,2.3681,24,0.036,8058,3.9776,122.7595
lg,1625315766224763268,0,0.4456,0.0325,0.9514,813,-0.6714,2.6245,2.3193,88,1.1726,1.0695,-14.9222,2.2998,24,0.037,7982,3.9776,122.8642
lg,1625315766224897162,0,0.4243,0.0342,0.9324,814,-0.3052,1.3428,2.8076,88,1.1716,1.0685,-15.2447,2.2486,24,0.036,8078,3.9776,122.985
lg,1625315766224952246,0,0.4001,0.012,0.9346,815,-1.2817,-1.4038,3.3569,88,1.1716,1.0685,-15.6145,2.1032,24,0.035,8540,3.9776,123.1378
lg,1625315766225000192,0,0.4072,0.0034,0.9292,816,0.3052,-4.2725,2.5024,88,1.1736,1.0725,-16.1017,2.0168,24,0.037,8277,3.9776,123.2552
lg,1625315766225045642,0,0.4153,-0.0022,0.9419,817,2.1973,-6.4697,1.8921,88,1.1716,1.0715,-16.6615,2.003,24,0.037,8148,3.9776,123.3476
lg,1625315766225093460,0,0.4346,0.0042,0.9651,818,3.1128,-7.9346,0.6714,88,1.1716,1.0685,-17.3149,2.0496,24,0.037,8184,3.9776,123.3848
lg,1625315766225139902,0,0.4609,0.0251,0.9497,819,4.0283,-7.3853,-0.4272,88,1.1686,1.0695,-17.9416,2.1987,24,0.037,8126,3.9776,123.3611
lg,1625315766225182875,0,0.4434,0.022,0.9473,820,4.2114,-6.2256,-1.2817,88,1.1736,1.0735,-18.4643,2.3534,24,0.038,8199,3.9776,123.3068
lg,1625315766225229280,0,0.4377,0.0276,0.9329,821,4.3945,-5.3711,-0.5493,88,1.1696,1.0725,-18.9227,2.5075,24,0.037,8222,3.9776,123.2912
lg,1625315766225274456,0,0.425,0.0479,0.9441,822,3.2349,-6.7139,0.8545,88,1.1686,1.0735,-19.3953,2.6432,24,0.038,8216,3.9776,123.3096
lg,1625315766225319925,0,0.4353,0.0496,0.9417,823,1.4648,-7.3853,2.1973,88,1.1696,1.0685,-19.9009,2.6885,24,0.038,8296,3.9776,123.3837
lg,1625315766225364697,0,0.4253,0.0325,0.9363,824,0.4883,-7.3853,2.8687,88,1.1696,1.0695,-20.4129,2.6181,24,0.037,8337,3.9776,123.5172
lg,1625315766225405652,0,0.4224,0.0337,0.9412,825,-1.2207,-8.728,4.0283,88,1.1686,1.0695,-20.91,2.4918,24,0.037,8285,3.9776,123.6808
lg,1625315766225450809,0,0.4314,0.0254,0.9326,826,-2.6855,-8.1177,5.7983,88,1.1686,1.0695,-21.3915,2.2636,24,0.037,12798,3.9776,123.9284
lg,1625315766225497489,0,0.4116,0.0234,0.9446,827,-1.8921,-7.9956,5.4321,88,1.1676,1.0695,-21.9053,2.073,24,0.036,8362,3.9776,124.1814
lg,1625315766225542353,0,0.4092,0.0132,0.9419,828,-2.3193,-12.0239,6.8359,88,1.1676,1.0685,-22.4498,1.8253,24,0.037,8438,3.9776,124.4781
lg,1625315766225631254,0,0.4365,0.0078,0.928,829,-2.4414,-17.2119,8.3618,88,1.1676,1.0685,-23.2475,1.5428,24,0.036,8418,3.9776,124.8397
lg,1625315766225682173,0,0.4407,0.0039,0.9434,830,-2.0142,-16.2964,10.437,88,1.1676,1.0675,-23.9714,1.2353,24,0.036,8416,3.9776,125.2989
lg,1625315766225726688,0,0.4348,0.0125,0.9377,831,-1.9531,-15.2588,11.2305,88,1.1676,1.0675,-24.6861,0.9473,24,0.036,8599,3.9776,125.7944
lg,1625315766225769918,0,0.4526,0.0085,0.9431,832,-1.5869,-18.2495,11.5967,88,1.1666,1.0635,-25.4504,0.6546,24,0.037,8473,3.9776,126.3029
lg,1625315766579217264,0,0.4412,0,0.926,833,-5.3711,-13.916,13.3057,88,1.1666,1.0645,-26.0024,0.1598,24,0.036,25990,3.9776,126.901
lg,1625315766579299120,0,0.3955,-0.0042,0.9209,834,-6.6528,-15.0757,14.5264,88,1.1666,1.0635,-26.4693,-0.4017,24,0.036,12756,3.9776,127.5543
lg,1625315766579349965,0,0.3555,0.0122,0.9412,835,-6.7749,-19.5312,16.2354,91,1.1666,1.0625,-26.9812,-0.9719,24,0.037,9806,3.9743,128.2771
lg,1625315766579398352,0,0.3501,-0.0032,0.9478,836,-8.606,-32.1655,19.5312,91,1.1656,1.0615,-27.9721,-1.7029,24,0.036,8517,3.9743,129.1751
lg,1625315766579444335,0,0.4265,-0.0098,0.9321,837,-9.5215,-46.3257,22.7661,91,1.1656,1.0605,-29.6404,-2.5746,24,0.036,8133,3.9743,130.2709
lg,1625315766579489785,0,0.4553,-0.0383,0.9424,838,-9.8267,-48.4009,23.4375,91,1.1656,1.0595,-31.4422,-3.5523,24,0.036,7983,3.9743,131.4666
lg,1625315766579534135,0,0.5088,-0.0081,0.9109,839,-9.5825,-47.1802,23.4375,91,1.1646,1.0595,-33.1541,-4.4831,24,0.036,8005,3.9743,132.6644
lg,1625315766579578081,0,0.5059,-0.032,0.9075,840,-10.0098,-45.4102,19.5923,91,1.1626,1.0575,-34.7201,-5.408,24,0.036,9138,3.9743,133.7374
lg,1625315766579621715,0,0.5208,-0.0398,0.8992,841,-9.0942,-42.6636,17.5781,91,1.1626,1.0575,-36.1455,-6.2683,24,0.036,8061,3.9743,134.7391
lg,1625315766579855648,0,0.5281,-0.0471,0.9158,842,-8.4839,-42.4194,17.334,91,1.1626,1.0575,-37.317,-7.1048,24,0.037,8112,3.9743,135.7016
lg,1625315766579910347,0,0.4941,-0.0681,0.9175,843,-8.728,-37.3535,16.6016,91,1.1606,1.0565,-38.3374,-7.9857,24,0.038,8150,3.9743,136.7041
lg,1625315766579959614,0,0.5188,-0.0547,0.9011,844,-7.0801,-42.5415,17.334,91,1.1616,1.0545,-39.571,-8.8202,24,0.038,8121,3.9743,137.78
lg,1625315766580004936,0,0.5776,-0.0774,0.9114,845,-7.1411,-43.7012,17.7002,91,1.1616,1.0555,-40.8322,-9.7274,24,0.037,8116,3.9743,138.9155
lg,1625315766580113288,0,0.5928,-0.075,0.8943,846,-6.7139,-40.2222,16.7236,91,1.1586,1.0535,-41.9911,-10.604,24,0.038,8153,3.9743,140.0278
lg,1625315766580168427,0,0.5918,-0.0786,0.8804,847,-5.4321,-33.6304,15.4419,91,1.1596,1.0535,-42.8583,-11.3588,24,0.037,8221,3.9743,141.0297
lg,1625315766580215969,0,0.5908,-0.063,0.8765,848,-3.6621,-27.3438,15.564,91,1.1586,1.0535,-43.4442,-11.9525,24,0.038,8735,3.9743,141.9432
lg,1625315766580259181,0,0.5715,-0.0847,0.8906,849,-1.9531,-20.3857,15.5029,91,1.1576,1.0535,-43.6752,-12.4655,24,0.037,8473,3.9743,142.8074
lg,1625315766580306137,0,0.5254,-0.0769,0.8811,850,-0.3052,-18.6768,15.9912,91,1.1576,1.0535,-43.7517,-12.8743,24,0.037,8281,3.9743,143.6505
lg,1625315766580352743,0,0.5254,-0.0706,0.9082,851,0.8545,-19.5923,16.6016,91,1.1576,1.0525,-43.9444,-13.2725,24,0.037,8283,3.9743,144.5874
lg,1625315766580399093,0,0.5737,-0.0798,0.897,852,1.8311,-21.1182,16.8457,91,1.1566,1.0535,-44.1569,-13.639,24,0.037,9210,3.9743,145.5055
lg,1625315766580444012,0,0.6218,-0.0718,0.8826,853,3.7231,-19.7144,15.0757,91,1.1566,1.0535,-44.4215,-13.8343,24,0.037,9427,3.9743,146.2994
lg,1625315766580708496,0,0.6223,-0.0723,0.8655,854,4.6387,-12.8784,10.437,91,1.1556,1.0505,-44.4765,-13.7559,24,0.036,8896,3.9743,146.7507
lg,1625315766580795709,0,0.5964,-0.0679,0.8706,855,5.4321,-4.6997,6.2866,91,1.1576,1.0545,-44.2047,-13.394,24,0.036,8387,3.9743,146.8534
lg,1625315766580843674,0,0.5715,-0.0776,0.8879,856,7.0801,1.6479,4.6997,91,1.1576,1.0535,-43.6469,-12.8831,24,0.037,8433,3.9743,146.8132
lg,1625315766580889069,0,0.5557,-0.0718,0.8767,857,8.606,5.3711,3.6011,91,1.1556,1.0545,-42.9617,-12.2498,24,0.037,8481,3.9743,146.6796
lg,1625315766580933089,0,0.4705,-0.073,0.9026,858,10.6201,8.667,3.2349,91,1.1556,1.0535,-41.9925,-11.514,24,0.037,8479,3.9743,146.5069
lg,1625315766580979494,0,0.4644,-0.0813,0.8909,859,9.3384,1.5869,4.5166,91,1.1566,1.0555,-41.323,-10.9913,24,0.037,8516,3.9743,146.5287
lg,1625315766581148159,0,0.4619,-0.0708,0.908,860,8.5449,-4.5166,7.5684,91,1.1566,1.0565,-40.8758,-10.6323,24,0.037,8495,3.9743,146.7654
lg,1625315766581253134,0,0.4426,-0.0798,0.9048,861,7.1411,-7.9956,8.606,91,1.1566,1.0595,-40.6069,-10.401,24,0.037,8570,3.9743,147.1004
lg,1625315766581302530,0,0.4734,-0.0537,0.8887,862,6.1646,-16.4795,10.9253,91,1.1556,1.0565,-40.6777,-10.3043,24,0.037,8560,3.9743,147.6138
lg,1625315766581350072,0,0.5498,-0.062,0.8953,863,4.7607,-20.6909,13.6108,91,1.1566,1.0565,-41.0243,-10.4204,24,0.036,8587,3.9743,148.3324
lg,1625315766581399064,0,0.5706,-0.0774,0.8982,864,3.418,-17.4561,14.1602,91,1.1606,1.0575,-41.2556,-10.6346,24,0.037,8675,3.9743,149.0789
lg,1625315766936765047,0,0.5635,-0.1116,0.8674,865,6.2866,-11.7798,14.1602,91,1.1566,1.0575,-41.2681,-10.7995,24,0.038,25372,3.9743,149.8377
lg,1625315766936883656,0,0.5391,-0.1272,0.8743,866,12.085,-7.3853,15.4419,91,1.1566,1.0585,-41.0424,-10.7807,24,0.038,11098,3.9743,150.6416
lg,1625315766936938538,0,0.5107,-0.134,0.8721,867,16.4795,-5.0659,17.8223,91,1.1576,1.0585,-40.6663,-10.6677,24,0.036,9974,3.9743,151.5567
lg,1625315766936989989,0,0.4907,-0.1443,0.8958,868,20.3857,-6.4697,18.9209,91,1.1586,1.0585,-40.2892,-10.4598,24,0.038,7974,3.9743,152.5529
lg,1625315766937037385,0,0.5066,-0.1089,0.8772,869,25.3906,-9.9487,21.4233,91,1.1606,1.0595,-40.0604,-10.102,24,0.036,11342,3.9743,153.7375
lg,1625315766937082450,0,0.5225,-0.1052,0.8777,870,28.8086,-10.1929,24.4141,91,1.1616,1.0605,-39.9103,-9.6738,24,0.035,7948,3.9743,154.993
lg,1625315766937130341,0,0.5469,-0.0935,0.8716,871,31.3721,-11.9629,26.7334,91,1.1636,1.0615,-39.8821,-9.2153,24,0.033,7982,3.9743,156.3726
lg,1625315766937176269,0,0.5642,-0.0896,0.8962,872,32.2266,-10.9863,27.8931,91,1.1646,1.0625,-39.8234,-8.7082,24,0.033,7981,3.9743,157.7951
