name,time,activity,ax,ay,az,batch_val,gx,gy,gz,ibat,index,middle,pitch,roll,temp,thumb,ts,vbat,yaw
rg,1625315776037350516,1,0.2395,0.6255,0.7883,1,2.0752,11.2305,-14.4653,60,1.1235,0,5.327,40.3625,23,0.8014,19200,4.0524,78.9261
rg,1625315776037484421,1,0.2375,0.6252,0.7991,2,1.9531,11.2305,-14.6484,60,1.1205,0,5.3252,40.3264,23,0.7994,8461,4.0524,78.7637
rg,1625315776037707670,1,0.2344,0.6216,0.7966,3,1.0376,11.1694,-15.625,60,1.1225,0,5.3513,40.2492,23,0.8004,7840,4.0524,78.5693
rg,1625315776037760837,1,0.24,0.6206,0.7966,4,1.709,9.7656,-13.4277,60,1.1225,0,5.3058,40.1762,23,0.8014,7808,4.0524,78.4314
rg,1625315776037811326,1,0.2393,0.6292,0.8003,5,1.0376,11.2915,-14.1602,60,1.1215,0,5.2917,40.1174,23,0.8004,7848,4.0524,78.2844
rg,1625315776037865933,1,0.2417,0.6311,0.7925,6,0.7935,10.3149,-13.2446,60,1.1225,0,5.2174,40.0654,23,0.8014,7858,4.0524,78.1411
rg,1625315776037910291,1,0.2368,0.6338,0.8062,7,0,9.6436,-12.0239,60,1.1225,0,5.1094,39.9718,23,0.8014,10428,4.0524,78.0161
rg,1625315776037956810,1,0.2341,0.6331,0.8074,8,0.061,9.3994,-13.0615,60,1.1225,0,5.0349,39.8564,23,0.7994,7774,4.0524,77.8503
rg,1625315776037999469,1,0.2236,0.6191,0.8232,9,-0.5493,7.8735,-10.9253,60,1.1185,0,4.8798,39.7003,23,0.7994,7886,4.0524,77.7081
rg,1625315776038045711,1,0.2178,0.6223,0.8198,10,0.6104,6.6528,-11.4746,60,1.1225,0,4.7182,39.6026,23,0.8014,7873,4.0524,77.5178
rg,1625315776038092654,1,0.2192,0.6306,0.8142,11,-0.3052,5.6763,-11.7188,60,1.1215,0,4.536,39.4917,23,0.8004,7866,4.0524,77.2966
rg,1625315776038140576,1,0.219,0.6326,0.8008,12,-0.6104,3.7231,-9.9487,60,1.1225,0,4.2518,39.3955,23,0.7994,8125,4.0524,77.0815
rg,1625315776038203235,1,0.2209,0.6265,0.8066,13,-3.1128,2.3804,-10.2539,60,1.1225,0,3.9407,39.1829,23,0.8014,7921,4.0524,76.8218
rg,1625315776038251564,1,0.2131,0.6272,0.812,14,-2.8687,2.5635,-9.8877,60,1.1205,0,3.6549,38.9847,23,0.7994,7987,4.0524,76.5773
rg,1625315776038296180,1,0.2092,0.6221,0.812,15,-2.8687,-0.5493,-8.0566,60,1.1225,0,3.2436,38.7855,23,0.8004,7999,4.0524,76.3105
rg,1625315776038342662,1,0.2244,0.6279,0.8157,16,-1.8921,-3.2959,-8.0566,60,1.1235,0,2.7338,38.6369,23,0.8014,8022,4.0524,75.9752
rg,1625315776038388516,1,0.2393,0.6353,0.8225,17,-2.5635,-4.0283,-7.2021,60,1.1215,0,2.1729,38.4744,23,0.7994,8114,4.0524,75.6493
rg,1625315776038434776,1,0.2317,0.6387,0.8333,18,-2.9907,-5.7373,-6.4697,60,1.1235,0,1.5811,38.2956,23,0.7994,8072,4.0524,75.304
rg,1625315776038480021,1,0.2209,0.6348,0.8425,19,-3.7842,-8.667,-5.7373,60,1.1225,0,0.9248,38.0762,23,0.8014,8093,4.0524,74.9094
rg,1625315776038523381,1,0.2112,0.6421,0.8489,20,-4.7607,-11.6577,-3.479,60,1.1215,0,0.1666,37.8354,23,0.7994,8069,4.0524,74.5135
rg,1625315776038569438,1,0.1609,0.6201,0.8577,21,-4.7607,-33.1421,-1.6479,60,1.1225,0,-1.1845,37.5666,23,0.7994,33384,4.0524,73.6499
rg,1625315776038613741,1,0.1472,0.6299,0.8535,22,-4.2725,-41.5649,2.0142,60,1.1255,0,-2.8116,37.3751,23,0.8014,8274,4.0524,72.7013
rg,1625315776038658191,1,0.1777,0.6233,0.8547,23,-4.2114,-55.4199,3.1738,60,1.1245,0,-4.9081,37.2317,23,0.8014,8211,4.0524,71.4562
rg,1625315776038705393,1,0.1978,0.6257,0.8555,24,-5.0049,-61.6455,2.6855,60,1.1235,0,-7.1503,37.13,23,0.8004,8254,4.0524,70.0449
rg,1625315776038748957,1,-0.0776,-0.4092,0.8206,25,-29.7852,37.2925,1.3428,189,1.0825,0,-5.6504,33.797,23,0.7163,14067,3.9479,71.2084
rg,1625315776038794386,1,-0.3057,-0.4851,0.8665,26,-34.8511,58.4717,-4.3945,189,1.0845,0,-2.8197,30.3863,23,0.7174,8325,3.9479,72.4765
rg,1625315776038845097,1,-0.3516,-0.5247,0.9006,27,-33.5083,55.9692,-4.0894,189,1.0855,0,-0.1517,27.2723,23,0.7204,8144,3.9479,73.5163
rg,1625315776038890656,1,-0.3589,-0.5835,0.9314,28,-23.2544,51.4526,-2.7466,189,1.0845,0,2.4459,24.5025,23,0.7194,8107,3.9479,74.3052
rg,1625315776039062732,1,-0.4209,-0.5974,0.9346,29,-2.8687,49.8047,-0.3662,189,1.0875,0,5.0224,22.6519,23,0.7224,8143,3.9479,75.0021
rg,1625315776039127663,1,-0.1831,-0.7407,0.9939,30,25.1465,42.9077,7.019,189,1.0875,0,6.7266,21.8062,23,0.7224,10426,3.9479,75.7443
rg,1625315776039170026,1,0.0645,-0.6104,0.887,31,49.7437,56.0303,-7.9956,189,1.0895,0,8.6351,21.9564,23,0.7254,8263,3.9479,76.065
rg,1625315776039216268,1,-0.0496,-0.5256,0.8394,32,54.2603,79.834,-17.395,189,1.0875,0,11.7546,22.357,23,0.7254,8252,3.9479,76.3553
rg,1625315776382632668,1,-0.697,-0.4783,0.7871,33,42.1753,81.665,-40.7104,189,1.0915,0,15.776,22.3629,23,0.7244,25537,3.9479,75.5378
rg,1625315776382730673,1,-0.6118,-0.4155,0.7881,34,34.2407,23.1934,-34.1797,189,1.0925,0,18.0532,21.9422,23,0.7244,8558,3.9479,74.1637
rg,1625315776382781180,1,-0.5408,-0.394,0.7834,35,30.5786,10.8643,-32.2266,189,1.0935,0,19.1014,21.0232,23,0.7244,7551,3.9479,72.5626
rg,1625315776382828678,1,-0.4785,-0.2849,0.7478,36,15.9912,-5.6152,-25.3296,189,1.0935,0,19.8641,19.9105,23,0.7264,7620,3.9479,71.0077
rg,1625315776382875344,1,-0.5713,-0.2693,0.7749,37,-13.4277,-16.5405,-12.5122,189,1.0945,0,20.1187,17.8683,23,0.7304,7574,3.9479,69.831
rg,1625315776382921512,1,-0.7002,-0.458,0.8672,38,-38.8184,-37.1704,-3.1738,189,1.0955,0,19.5101,14.7117,23,0.7364,10517,3.9479,68.7439
rg,1625315776382967255,1,-0.5967,-0.4995,0.8665,39,-42.0532,-61.2183,4.3335,189,1.0945,0,16.3312,11.1315,23,0.7384,8231,3.9479,67.7654
rg,1625315776383010320,1,-0.0828,-0.4438,0.7891,40,-54.9316,-95.3979,11.2305,189,1.0915,0,12.209,7.3867,23,0.7374,7623,3.9479,67.1672
rg,1625315776383052074,1,0.1875,-0.3682,0.7622,41,-79.3457,-61.8286,6.7139,189,1.0865,0,8.8513,3.0075,24,0.7324,7698,3.9479,66.9821
rg,1625315776383094604,1,0.1741,-0.3882,0.8086,42,-88.9282,-35.6445,-1.4038,189,1.0815,-0.001,6.6975,-1.6193,24,0.7224,7680,3.9479,66.7707
rg,1625315776383136248,1,0.209,-0.8318,1.1067,43,-41.0156,15.564,-6.7139,189,1.0845,0,6.7477,-4.5923,24,0.7294,7566,3.9479,66.3275
rg,1625315776383184281,1,0.3186,-0.0386,0.373,44,12.5732,21.6064,-2.6245,189,1.0845,0,7.6844,-4.3301,24,0.7304,7744,3.9479,66.1285
rg,1625315776383226201,1,-0.51,-0.8013,1.0474,45,-26.3672,75.2563,-24.9023,189,1.0855,0,11.1406,-6.7647,23,0.7294,7717,3.9479,64.6582
rg,1625315776383270984,1,-0.4358,-0.2788,0.667,46,15.5029,2.1973,-16.5405,189,1.0835,0,11.9336,-6.8247,23,0.7334,7805,3.9479,63.8712
rg,1625315776383313532,1,-0.1511,-0.4309,0.8081,47,2.9907,0.1831,-9.5215,189,1.0835,0,11.8188,-7.6121,23,0.7354,8234,3.9479,63.3118
rg,1625315776383358222,1,-0.1477,-0.3818,0.8083,48,-6.4697,23.1323,-5.3101,189,1.0835,0,12.6223,-8.6371,23,0.7364,9585,3.9479,62.8197
rg,1625315776383403042,1,-0.2803,-0.3948,0.824,49,-11.6577,35.5835,-6.1646,189,1.0835,0,14.1731,-9.8624,23,0.7374,7996,3.9479,62.1885
rg,1625315776383444796,1,-0.283,-0.3943,0.8074,50,-12.3901,31.9214,-6.5918,189,1.0835,0,15.5222,-11.1077,23,0.7384,7873,3.9479,61.524
rg,1625315776383487160,1,-0.3411,-0.4307,0.8254,51,-18.3716,28.3203,-11.1694,189,1.0835,0,16.7329,-12.6586,23,0.7394,8895,3.9479,60.6538
rg,1625315776383530373,1,-0.4084,-0.5383,0.8691,52,-20.874,17.7612,-18.3716,189,1.0855,-0.001,17.4737,-14.4817,23,0.7414,8390,3.9479,59.5187
rg,1625315776383573808,1,-0.4309,-0.5762,0.9067,53,-17.9443,13.4888,-20.752,189,1.0855,0,17.9611,-16.2472,23,0.7414,7845,3.9479,58.2981
rg,1625315776383617833,1,-0.4722,-0.7517,1.0286,54,-4.5166,7.2021,-18.8599,189,1.0835,0,18.1431,-17.4478,23,0.7414,8002,3.9479,57.2134
rg,1625315776383659366,1,-0.375,-0.762,1.0142,55,27.6489,-7.3853,-12.085,189,1.0875,0,17.6865,-17.2234,23,0.7444,8035,3.9479,56.5832
rg,1625315776383702210,1,-0.25,-0.7583,0.9951,56,46.7529,-12.9395,-11.3525,189,1.0865,0,16.4119,-16.2813,23,0.7464,8097,3.9479,56.0234
rg,1625315776383743280,1,0.0967,-0.656,0.9055,57,75.6836,0.1221,-15.9302,189,1.0855,0,15.4604,-14.2308,23,0.7454,8079,3.9479,55.143
rg,1625315776383787934,1,-0.1492,-0.5151,0.8364,58,84.0454,44.9829,-32.5317,189,1.0895,0,16.6671,-12.0582,23,0.7474,8063,3.9479,53.2059
rg,1625315776383831867,1,-0.2732,-0.4929,0.8235,59,85.144,56.0913,-34.4849,189,1.0895,0,18.8074,-9.9383,23,0.7464,8155,3.9479,51.134
rg,1625315776384405179,1,-0.4502,-0.4824,0.8157,60,79.6509,52.4902,-34.1797,189,1.0875,0,20.9594,-8.1363,23,0.7434,8103,3.9479,49.1022
rg,1625315776384462557,1,-0.5657,-0.3379,0.7617,61,69.458,30.8228,-34.3018,189,1.0885,0,22.542,-6.518,23,0.7434,8101,3.9479,47.2778
rg,1625315776384509241,1,-0.6587,-0.2122,0.6904,62,57.312,17.0288,-28.6255,189,1.0885,0,23.2758,-5.4686,23,0.7444,8172,3.9479,46.4119
rg,1625315776384556093,1,-0.7329,-0.1909,0.7268,63,19.7754,-27.0996,-11.5967,189,1.0895,0,22.9736,-5.1165,23,0.7464,8189,3.9479,45.9088
rg,1625315776384606083,1,-0.7786,-0.2529,0.8032,64,-11.0474,-69.8242,4.2114,189,1.0915,0,20.9961,-5.7671,23,0.7504,8230,3.9479,46.2208
rg,1625315776730118557,1,0.2283,-0.5015,0.9531,65,-55.4199,-121.7041,32.5928,189,1.0905,0,14.906,-8.2411,23,0.7454,25189,3.9479,47.9156
rg,1625315776730241068,1,0.5149,-0.47,1.3159,66,-72.937,-26.123,14.8926,189,1.0905,0,14.3469,-9.9949,23,0.7454,12253,3.9479,48.4097
rg,1625315776730292554,1,0.7183,0.0103,0.6013,67,23.0713,51.6357,18.4326,189,1.0895,0,14.456,-8.6931,23,0.7444,7751,3.9479,48.8601
rg,1625315776730343136,1,-0.3584,-0.6079,1.0391,68,-3.6621,135.6812,-12.5732,189,1.0885,0,19.8196,-10.1006,23,0.7444,7657,3.9479,47.1997
rg,1625315776730391058,1,-0.7688,-0.2715,0.8152,69,7.3242,76.5991,-13.6719,189,1.0885,0,23.573,-10.5026,23,0.7444,9786,3.9479,45.9369
rg,1625315776730437392,1,-0.771,-0.4658,0.9207,70,-2.3193,57.251,-5.6152,189,1.0875,0,26.3065,-11.4629,23,0.7444,7646,3.9479,44.9795
rg,1625315776730482673,1,-0.3799,-0.4653,0.9272,71,-3.479,6.3477,3.6011,189,1.0875,0,26.3631,-12.1767,23,0.7454,7649,3.9479,44.8026
rg,1625315776730528361,1,-0.1929,-0.387,0.8984,72,-4.7607,0.6714,1.0376,189,1.0875,0,25.8711,-13.0132,23,0.7464,7703,3.9479,44.4539
rg,1625315776730573679,1,-0.1323,-0.3943,0.8767,73,-11.7188,17.9443,-4.2114,189,1.0875,0,25.8356,-14.1192,23,0.7484,7663,3.9479,43.8788
rg,1625315776730621601,1,-0.3413,-0.5249,0.9294,74,-20.3857,35.2783,-12.5122,189,1.0875,0,26.7652,-15.9834,23,0.7474,8848,3.9479,42.6551
rg,1625315776730709542,1,-0.4729,-0.6223,0.9734,75,-21.9116,33.9355,-14.3433,189,1.0885,0,27.5963,-17.8703,23,0.7514,7750,3.9479,41.2821
rg,1625315776730759625,1,-0.5034,-0.6338,0.968,76,-16.2964,25.6348,-13.9771,189,1.0865,0,28.2451,-19.5916,23,0.7514,7785,3.9479,40.0216
rg,1625315776731001101,1,-0.4797,-0.6704,0.9607,77,-3.7231,13.0615,-10.6812,189,1.0885,0,28.3757,-20.6762,23,0.7534,7781,3.9479,39.0644
rg,1625315776731061858,1,-0.4619,-0.6775,0.9753,78,4.5166,9.3384,-11.6577,189,1.0905,0,28.2355,-21.419,23,0.7554,7814,3.9479,38.1228
rg,1625315776731112661,1,-0.4041,-0.74,1.0317,79,32.8369,3.9673,-7.2632,189,1.0895,0,27.8871,-20.8824,23,0.7554,7838,3.9479,37.4632
rg,1625315776731161949,1,-0.0859,-0.7744,1.0088,80,65.1245,2.5024,-2.9907,189,1.0905,0,27.0603,-19.0949,23,0.7584,7908,3.9479,36.9392
rg,1625315776731204922,1,0.0459,-0.7285,0.9878,81,77.8198,13.0615,-8.728,189,1.0885,0,26.388,-17.0027,23,0.7574,7935,3.9479,36.018
rg,1625315776731249687,1,-0.1208,-0.5337,0.8521,82,89.1724,57.312,-27.9541,189,1.0915,0,27.5484,-14.9764,23,0.7574,7884,3.9479,33.7928
rg,1625315776731296242,1,-0.3777,-0.4604,0.7905,83,84.4727,85.022,-32.4097,189,1.0905,0,30.3397,-13.3936,23,0.7554,7931,3.9479,31.1055
rg,1625315776731341967,1,-0.4968,-0.4526,0.7817,84,75.8057,84.2285,-34.5459,189,1.0895,0,33.2757,-12.3429,23,0.7514,7958,3.9479,28.292
rg,1625315776731384164,1,-0.6987,-0.3181,0.7234,85,63.2324,63.8428,-32.2266,189,1.0905,-0.001,35.8294,-11.4587,23,0.7514,8000,3.9479,25.8956
rg,1625315776731430240,1,-0.8704,-0.1104,0.6243,86,31.0059,20.6909,-17.0898,189,1.0915,0,37.2001,-10.7909,23,0.7514,8579,3.9479,24.892
rg,1625315776731659288,1,-0.8293,-0.3457,0.8728,87,-7.9346,-36.1328,-7.019,189,1.0935,0,35.9102,-11.4986,23,0.7554,8031,3.9479,24.6566
rg,1625315776731711882,1,-0.7837,-0.3608,0.8857,88,-13.855,-57.4951,-0.5493,189,1.0925,0,33.8083,-12.13,23,0.7584,8060,3.9479,24.974
rg,1625315776731759435,1,-0.3013,-0.4128,0.948,89,-27.771,-101.3184,19.2261,189,1.0945,0,29.3671,-12.7373,23,0.7624,8060,3.9479,26.6063
rg,1625315776731851253,1,0.2847,-0.4465,0.8862,90,-44.9219,-85.2661,18.6157,189,1.0935,0,24.6532,-14.3291,23,0.7644,8196,3.9479,28.0497
rg,1625315776731935260,1,0.3674,-0.3782,0.8779,91,-59.082,-47.7905,12.3291,189,1.0915,0,21.3342,-16.6075,23,0.7604,8127,3.9479,29.0058
rg,1625315776731984401,1,0.1401,-0.3618,0.875,92,-78.8574,21.9727,-5.3711,189,1.0845,0,20.9699,-20.1641,23,0.7514,8189,3.9479,28.4371
rg,1625315776732683031,1,0.3735,-0.6443,0.6821,93,-3.1128,62.0728,2.3804,189,1.0885,0,21.8321,-21.4805,23,0.7564,8161,3.9479,27.2772
rg,1625315776732743733,1,-0.4563,-0.5818,1.0449,94,2.2583,77.8198,-11.9629,189,1.0895,0,25.6023,-24.7609,23,0.7564,8799,3.9479,23.7933
rg,1625315776732795164,1,-0.8232,-0.8218,1.0752,95,-15.3198,116.6992,-27.8931,189,1.0875,0,29.5154,-27.441,23,0.7574,8324,3.9479,20.1281
rg,1625315776732889383,1,-0.5571,-0.3462,0.835,96,7.9346,25.3296,-20.4468,189,1.0905,0,30.1121,-27.6102,23,0.7594,8305,3.9479,18.849
rg,1625315777073054201,1,-0.2222,-0.4709,0.8904,97,-7.5073,29.8462,-27.4048,189,1.0905,0,29.9454,-28.7947,23,0.7664,25352,3.9479,17.0841
rg,1625315777074061260,1,-0.2402,-0.4988,0.8958,98,-9.2163,41.5649,-37.1704,189,1.0905,0,29.9885,-30.3828,23,0.7684,14276,3.9479,14.6469
rg,1625315777074141911,1,-0.5178,-0.5286,0.8635,99,-10.1318,49.5605,-46.6919,189,1.0915,0,30.5777,-32.3567,23,0.7694,7536,3.9479,11.585
rg,1625315777074207469,1,-0.6135,-0.4919,0.844,100,-8.728,43.0908,-49.1333,189,1.0915,0,30.8736,-34.031,23,0.7704,7648,3.9479,8.8672
rg,1625315777074259709,1,-0.752,-0.5244,0.8896,101,-9.3994,18.9819,-46.875,189,1.0925,0,30.6264,-35.4421,23,0.7714,7630,3.9479,6.6397
rg,1625315777074317897,1,-0.6111,-0.6663,0.9885,102,5.8594,-18.1885,-38.0249,189,1.0925,0,29.0103,-35.6065,23,0.7714,7636,3.9479,5.739
rg,1625315777074368826,1,-0.0718,-0.7476,1.0332,103,21.3013,-31.0669,-30.8838,189,1.0935,0,26.5395,-34.0536,23,0.7724,9037,3.9479,5.7263
rg,1625315777074417390,1,0.1062,-0.6917,0.9963,104,51.6357,-15.0757,-23.4375,189,1.0935,0,25.0571,-32.3369,23,0.7734,9650,3.9479,4.1802
rg,1625315777074467265,1,-0.05,-0.5747,0.9219,105,63.3545,37.7197,-39.3677,189,1.0915,0,24.6415,-30.7787,23,0.7704,7672,3.9479,1.826
rg,1625315777074514517,1,-0.2771,-0.5083,0.8643,106,65.1245,63.8428,-42.7856,189,1.0945,0,25.6121,-29.4587,23,0.7694,7668,3.9479,-1.2241
rg,1625315777074655536,1,-0.3931,-0.4932,0.8408,107,62.8052,63.9038,-44.0063,189,1.0905,0,26.837,-28.3544,23,0.7654,7645,3.9479,-4.338
rg,1625315777074726396,1,-0.6885,-0.2771,0.7219,108,51.4526,47.7905,-40.5273,189,1.0925,0,28.3427,-27.2639,23,0.7654,7745,3.9479,-6.8431
rg,1625315777074773722,1,-0.7944,-0.2085,0.6951,109,37.9639,25.5737,-36.2549,189,1.0935,0,28.2348,-26.7512,23,0.7654,7716,3.9479,-7.9366
rg,1625315777074822914,1,-0.7363,-0.3538,0.8433,110,12.6953,-31.7383,-26.8555,189,1.0895,0,27.0373,-26.3042,23,0.7654,7732,3.9479,-8.3064
rg,1625315777074876262,1,-0.5461,-0.3447,0.9092,111,2.6855,-74.4629,-9.7656,189,1.0955,0,24.2885,-25.5203,23,0.7694,7777,3.9479,-7.145
rg,1625315777074920485,1,-0.4277,-0.3584,0.9041,112,-4.6387,-89.8438,-2.9297,189,1.0935,0,20.9777,-24.9501,23,0.7724,7752,3.9479,-5.5277
rg,1625315777074966611,1,-0.1411,-0.3752,0.9058,113,-26.9165,-100.5859,9.4604,189,1.0975,0,17.0061,-25.2095,23,0.7744,8042,3.9479,-3.3172
rg,1625315777075011960,1,0.0979,-0.4392,0.8701,114,-51.8188,-81.7261,7.3853,189,1.0965,0,13.3335,-26.8687,23,0.7764,7817,3.9479,-1.5567
rg,1625315777075060358,1,0.1257,-0.4121,0.866,115,-64.6362,-65.2466,2.6855,189,1.0895,0,10.2837,-29.1031,23,0.7664,8216,3.9479,-0.1758
rg,1625315777075106853,1,0.1252,-0.5728,1.5005,116,-68.7866,-29.9072,-4.8218,189,1.0915,0,7.5174,-32.1917,23,0.7684,7810,3.9479,0.2416
rg,1625315777075153256,1,0.481,0.4768,0.4568,117,19.4702,20.752,-4.7607,189,1.0915,0,6.7533,-29.6834,23,0.7674,7901,3.9479,-0.1481
rg,1625315777075198513,1,-0.5166,-0.8325,1.1345,118,-14.1602,92.2241,-16.7236,189,1.0915,0,10.1124,-30.8497,23,0.7684,7901,3.9479,-2.6484
rg,1625315777075247262,1,-0.2495,-0.2661,0.8323,119,11.8408,46.6919,-11.7798,189,1.0915,0,10.7902,-30.159,23,0.7694,7970,3.9479,-3.3957
rg,1625315777075295992,1,-0.2473,-0.4343,0.9001,120,0.1221,31.9824,-9.0942,189,1.0915,0,11.8301,-30.1654,23,0.7714,7930,3.9479,-4.3394
rg,1625315777075343337,1,-0.3481,-0.3562,0.8745,121,-5.6152,33.8745,-3.6011,189,1.0915,0,13.2561,-30.2576,23,0.7724,7916,3.9479,-5.1027
rg,1625315777075389000,1,-0.1958,-0.4268,0.8997,122,-10.7422,19.104,-3.2959,189,1.0915,0,13.7597,-30.6036,23,0.7734,8868,3.9479,-5.5718
rg,1625315777075431893,1,-0.2,-0.4109,0.8884,123,-13.4277,21.1792,-7.9346,189,1.0915,0,14.2331,-31.0765,23,0.7744,8112,3.9479,-6.2439
rg,1625315777075478333,1,-0.3674,-0.5195,0.9272,124,-17.9443,21.4844,-15.564,189,1.0895,0,14.8251,-31.9683,23,0.7744,9816,3.9479,-7.239
rg,1625315777075524034,1,-0.46,-0.5745,0.9497,125,-16.9067,6.5918,-19.8975,189,1.0915,0,14.9201,-32.8206,23,0.7754,8123,3.9479,-8.0721
rg,1625315777075588835,1,-0.4177,-0.6318,0.9609,126,-8.1177,-13.5498,-20.0806,189,1.0935,0,14.2259,-33.2537,23,0.7784,8120,3.9479,-8.4641
rg,1625315777075823120,1,-0.3682,-0.6377,0.9597,127,-0.6104,-20.3247,-20.6909,189,1.0915,0,13.2302,-33.343,23,0.7784,8145,3.9479,-8.7156
rg,1625315777075886203,1,-0.2666,-0.7356,1.0288,128,24.9023,-17.8833,-17.7612,189,1.0945,0,12.1916,-32.4763,23,0.7794,8110,3.9479,-8.9456
rg,1625315777430468093,1,0.2131,-0.6699,0.9026,129,77.2705,17.8223,-23.5596,189,1.0945,0,12.5244,-29.7648,23,0.7804,25035,3.9479,-11.0874
rg,1625315777430586242,1,-0.2737,-0.4707,0.7883,130,71.7773,94.4214,-35.4614,189,1.0945,0,15.2966,-27.6943,23,0.7774,10671,3.9479,-14.246
rg,1625315777430640348,1,-0.5847,-0.4419,0.7722,131,60.3638,89.2334,-37.4756,189,1.0945,0,18.481,-26.2474,23,0.7744,7633,3.9479,-17.3436
rg,1625315777430690556,1,-0.8794,-0.1384,0.645,132,41.4429,48.4619,-26.4282,189,1.0945,0,21.0628,-24.8739,23,0.7734,9277,3.9479,-19.1145
rg,1625315777430737439,1,-0.9856,-0.0581,0.6431,133,17.395,14.7095,-18.4326,189,1.0945,0,22.6343,-24.0864,23,0.7754,7641,3.9479,-19.9233
rg,1625315777430781384,1,-0.907,-0.3174,0.8608,134,-24.5361,-64.209,0.6714,189,1.0965,0,21.1613,-24.5081,23,0.7804,7639,3.9479,-18.7083
rg,1625315777430823686,1,-0.4431,-0.5845,1.0417,135,-41.9312,-126.6479,18.4937,189,1.0985,0,16.8676,-25.3923,23,0.7834,7905,3.9479,-15.7992
rg,1625315777430869110,1,-0.061,-0.5776,0.988,136,-41.1987,-138.4888,26.7944,189,1.0945,0,11.8325,-26.3619,23,0.7824,7767,3.9479,-12.3579
rg,1625315777430970653,1,0.4895,-0.446,0.9143,137,-57.6782,-97.3511,24.9023,189,1.0935,0,7.4613,-28.1855,23,0.7764,7705,3.9479,-9.6235
rg,1625315777431023521,1,0.4951,-0.5176,1.4414,138,-67.688,-57.312,15.8081,84,1.0915,0,6.0443,-30.6087,23,0.7724,7731,4.0216,-9.0256
rg,1625315777431069923,1,0.5312,0.4451,0.3848,139,25.5127,59.2651,5.6152,84,1.0915,0,6.6672,-28.0367,23,0.7724,10468,4.0216,-9.8608
rg,1625315777431114700,1,-0.1619,-0.3926,0.9927,140,-30.5786,114.4409,-23.2544,84,1.0915,0,10.2928,-29.4437,23,0.7724,8018,4.0216,-12.8847
rg,1625315777431157519,1,-0.7063,-0.3926,0.741,141,17.6392,74.4019,-13.0005,84,1.0915,0,13.7483,-29.092,23,0.7734,7899,4.0216,-14.8243
rg,1625315777431204458,1,-0.3555,-0.4312,0.8845,142,15.1367,23.6206,-5.0659,84,1.0915,0,14.7137,-28.5217,23,0.7744,8509,4.0216,-15.4464
rg,1625315777431249604,1,-0.2263,-0.3743,0.8596,143,14.0991,17.8833,-2.9907,84,1.0915,0,15.2378,-27.8721,23,0.7754,7898,4.0216,-15.854
rg,1625315777431294030,1,-0.1895,-0.4453,0.9189,144,0,27.0386,-4.8828,84,1.0915,0,15.9073,-27.9723,23,0.7754,8780,4.0216,-16.537
rg,1625315777431337644,1,-0.0928,-0.4556,0.9109,145,0.3052,30.8838,-11.2305,84,1.0925,0,16.3563,-28.178,23,0.7774,8472,4.0216,-17.5385
rg,1625315777431380149,1,-0.0547,-0.4497,0.8904,146,0.6104,36.8652,-14.5264,84,1.0915,0,16.9983,-28.4462,23,0.7794,7965,4.0216,-18.7844
rg,1625315777431422395,1,-0.2646,-0.4309,0.8584,147,-6.5918,58.8379,-26.001,84,1.0895,0,18.4811,-29.2847,23,0.7804,7968,4.0216,-20.9129
rg,1625315777431468077,1,-0.5796,-0.468,0.8506,148,-12.5122,60.4248,-31.4331,84,1.0925,0,20.4196,-30.5722,23,0.7824,7986,4.0216,-23.3477
rg,1625315777431515828,1,-0.657,-0.4751,0.8618,149,-13.1836,48.5229,-29.48,84,1.0915,0,22.0281,-31.8316,23,0.7834,8066,4.0216,-25.4989
rg,1625315777431578727,1,-0.6946,-0.5327,0.915,150,-10.437,16.2354,-24.1089,84,1.0905,0,22.497,-32.6586,23,0.7844,8101,4.0216,-26.7329
rg,1625315777431624631,1,-0.4731,-0.6917,1.0344,151,2.5635,-15.8081,-13.5498,84,1.0925,0,21.6033,-32.6384,23,0.7884,8115,4.0216,-26.8693
rg,1625315777431677037,1,-0.2817,-0.7593,1.0942,152,15.1978,-22.4609,-11.2915,84,1.0935,0,19.9115,-32.1066,23,0.7894,8169,4.0216,-26.8064
rg,1625315777431970951,1,0.0801,-0.7456,1.0332,153,52.1851,-8.667,-12.8784,84,1.0925,0,18.4442,-30.2688,23,0.7884,8167,4.0216,-27.1494
rg,1625315777432046688,1,0.0635,-0.6079,0.9189,154,70.3735,37.9028,-25.2075,84,1.0955,0,18.4269,-28.135,23,0.7894,8218,4.0216,-28.9168
rg,1625315777432096656,1,-0.061,-0.5291,0.873,155,72.5098,61.7676,-31.5552,84,1.0955,0,20.1889,-26.2924,23,0.7874,8197,4.0216,-31.7051
rg,1625315777432148766,1,-0.3394,-0.4441,0.8018,156,68.6646,83.0078,-36.0718,84,1.0925,0,22.5508,-24.7245,23,0.7824,8209,4.0216,-34.6772
rg,1625315777432377898,1,-0.6909,-0.2761,0.7166,157,54.0161,76.8433,-35.6445,84,1.0935,0,25.5075,-23.5852,23,0.7794,8184,4.0216,-37.4252
rg,1625315777432435051,1,-1.0242,-0.1135,0.6936,158,19.7144,24.7192,-24.4751,84,1.0955,0,27.1679,-23.0769,23,0.7814,8254,4.0216,-38.7039
rg,1625315777432491669,1,-1.0942,-0.1746,0.7747,159,-1.8311,-18.4326,-16.4185,84,1.0945,0,27.2634,-23.0361,23,0.7844,8307,4.0216,-38.9288
rg,1625315777432552647,1,-0.8716,-0.3762,0.8584,160,-25.1465,-105.2856,6.2256,84,1.0965,0,24.1106,-23.1473,23,0.7874,8360,4.0216,-36.8414
rg,1625315777768079174,1,0.5488,-0.3416,0.9844,161,-61.5234,-78.3081,17.6392,84,1.0905,0,19.7643,-24.6632,23,0.7824,25846,4.0216,-34.6867
rg,1625315777768173217,1,0.9858,-0.2502,0.5686,162,21.9727,5.3101,21.8506,84,1.0915,0,18.4949,-22.3967,23,0.7804,14370,4.0216,-33.5753
rg,1625315777768226029,1,-0.1423,-0.6365,1.1782,163,-24.9634,121.3989,-20.3247,84,1.0925,0,22.1124,-24.6257,23,0.7804,7601,4.0216,-36.5098
rg,1625315777768277087,1,-0.6694,-0.1807,0.738,164,13.2446,75.8057,-17.0288,84,1.0915,-0.001,25.3262,-24.5677,23,0.7804,7633,4.0216,-38.4324
rg,1625315777768325706,1,-0.6165,-0.2583,0.8091,165,5.4321,47.7295,-14.3433,84,1.0915,0,27.2318,-24.7509,23,0.7804,7464,4.0216,-39.7973
rg,1625315777768374270,1,-0.3708,-0.3489,0.866,166,-1.4648,16.1133,-4.8828,84,1.0925,0,27.5064,-24.9177,23,0.7814,7587,4.0216,-40.2459
rg,1625315777768419287,1,-0.1729,-0.386,0.9119,167,-8.1787,11.4136,-3.2349,84,1.0915,0,27.0513,-25.5472,23,0.7824,8778,4.0216,-40.6504
rg,1625315777768465025,1,-0.1409,-0.3716,0.884,168,-13.9771,13.4277,-11.4136,84,1.0905,0,26.6017,-26.3009,23,0.7824,8241,4.0216,-41.3116
rg,1625315777768509654,1,-0.2095,-0.4575,0.9219,169,-18.1274,26.4893,-18.6157,84,1.0915,0,26.607,-27.5903,23,0.7864,7634,4.0216,-42.5847
rg,1625315777768552917,1,-0.272,-0.5327,0.9329,170,-18.0054,30.3345,-19.4092,84,1.0935,0,26.9098,-29.078,23,0.7884,7647,4.0216,-44.0542
rg,1625315777768595292,1,-0.3604,-0.6289,0.9924,171,-15.5029,30.7617,-21.6675,84,1.0935,0,27.1478,-30.5211,23,0.7894,7710,4.0216,-45.6424
rg,1625315777768638001,1,-0.3484,-0.6096,0.9368,172,-0.9155,24.6582,-23.6816,84,1.0935,0,27.1095,-31.332,23,0.7924,7749,4.0216,-47.17
rg,1625315777768680579,1,-0.3828,-0.6006,0.9475,173,5.0049,27.2217,-25.2075,84,1.0925,0,27.171,-31.8999,23,0.7924,7722,4.0216,-48.7932
rg,1625315777768724082,1,-0.365,-0.7092,1.0264,174,25.9399,23.8647,-23.7427,84,1.0935,0,27.0459,-31.6457,23,0.7944,7758,4.0216,-50.3183
rg,1625315777768779499,1,-0.2595,-0.7253,1.0012,175,44.1284,20.6909,-19.2261,84,1.0935,0,26.6849,-29.981,23,0.7954,7806,4.0216,-51.5345
rg,1625315777768828377,1,0.0215,-0.6775,0.9539,176,69.1528,33.8745,-17.7002,84,1.0945,0,26.465,-28.1036,23,0.7934,7879,4.0216,-53.0904
rg,1625315777768875278,1,-0.1416,-0.5032,0.8137,177,78.064,69.8242,-34.4849,84,1.0955,0,27.5979,-26.4283,24,0.7944,7876,4.0216,-55.9886
rg,1625315777768918190,1,-0.3801,-0.2983,0.6902,178,76.4771,90.6372,-33.0811,84,1.0955,0,30.2405,-24.7757,24,0.7914,7905,4.0216,-59.0871
rg,1625315777768964094,1,-0.9373,-0.126,0.655,179,47.6685,91.4307,-27.832,84,1.0905,0,34.0352,-24.0808,24,0.7894,7927,4.0216,-61.8765
rg,1625315777769008594,1,-1.2458,-0.2659,0.7854,180,9.4604,10.437,-15.8691,84,1.0945,0,35.0104,-24.0701,24,0.7904,9050,4.0216,-62.7026
rg,1625315777769098222,1,-0.7935,-0.3071,0.8643,181,-15.2588,-100.647,4.5776,84,1.0965,0,31.643,-23.3326,23,0.7934,9763,4.0216,-60.4564
rg,1625315777769173922,1,-0.0718,-0.385,0.9312,182,-24.8413,-130.3711,11.6577,84,1.0985,0,25.8656,-23.2114,23,0.7954,7954,4.0216,-57.2481
rg,1625315777769220250,1,0.219,-0.4661,1.0076,183,-49.3164,-120.4224,19.2261,84,1.0955,0,20.4164,-24.1075,23,0.7964,7978,4.0216,-54.393
rg,1625315777769264067,1,0.3967,-0.4495,0.939,184,-70.2515,-43.8232,12.9395,84,1.0935,0,17.5613,-26.5305,23,0.7934,8030,4.0216,-53.0901
rg,1625315777769307773,1,0.2747,-0.8823,1.449,185,-76.9653,-7.5684,5.0659,84,1.0945,0,17.6219,-28.6839,23,0.7954,8016,4.0216,-53.5346
rg,1625315777769350462,1,0.5002,0.0327,0.4358,186,16.7236,43.2739,15.625,84,1.0925,0,17.4276,-27.2531,23,0.7934,8077,4.0216,-53.5787
rg,1625315777769394112,1,-0.637,-0.4478,0.7434,187,6.7139,94.0552,-5.0049,84,1.0945,0,21.3844,-27.7835,23,0.7934,12554,4.0216,-55.6545
rg,1625315777769441550,1,-0.5974,-0.2559,0.8337,188,9.2163,50.1709,-9.4604,84,1.0945,0,23.4952,-27.5546,23,0.7944,8113,4.0216,-56.8854
rg,1625315777769486160,1,-0.3413,-0.4016,0.8711,189,7.5684,17.2119,-8.4229,84,1.0945,0,23.7882,-27.4012,23,0.7944,8075,4.0216,-57.5111
rg,1625315777769528019,1,-0.2913,-0.4133,0.9001,190,0.4272,14.8926,-12.8784,84,1.0945,0,23.7794,-27.5854,23,0.7964,9396,4.0216,-58.2625
rg,1625315777769570505,1,-0.2576,-0.4153,0.8928,191,-5.3101,12.4512,-20.5688,84,1.0945,0,23.4695,-28.0986,23,0.7974,8835,4.0216,-59.2618
rg,1625315777769612715,1,-0.3328,-0.4631,0.8875,192,-7.3242,15.2588,-25.1465,84,1.0955,0,23.3106,-28.9683,23,0.7994,8417,4.0216,-60.5353
rg,1625315778121570729,1,-0.4023,-0.6091,0.9814,193,0,15.1978,-29.3579,84,1.0965,0,23.0601,-29.682,23,0.8044,25366,4.0216,-62.0316
rg,1625315778121654245,1,-0.3193,-0.6697,1.0273,194,27.4048,9.6436,-26.9165,84,1.0965,0,22.528,-29.1977,23,0.8054,10434,4.0216,-63.3095
rg,1625315778121705907,1,-0.2278,-0.6445,1.0117,195,40.6494,11.3525,-23.5596,84,1.0965,0,21.709,-28.1975,23,0.8064,7623,4.0216,-64.5205
rg,1625315778121756349,1,0.0518,-0.645,0.9617,196,61.4014,26.4282,-28.7476,84,1.0965,0,21.1828,-26.5801,23,0.8054,7689,4.0216,-66.2435
rg,1625315778121805202,1,-0.1372,-0.5007,0.8557,197,68.4814,70.9229,-43.2129,84,1.0965,0,22.4461,-25.1223,23,0.8024,7721,4.0216,-69.3177
rg,1625315778121853704,1,-0.5378,-0.3623,0.7546,198,65.3687,87.0361,-43.457,84,1.0965,0,25.5045,-24.1369,23,0.7994,9245,4.0216,-72.7729
rg,1625315778121968188,1,-0.7427,-0.2561,0.689,199,52.2461,85.6934,-37.4146,84,1.0935,0,28.7861,-23.3386,23,0.7964,7955,4.0216,-75.8072
rg,1625315778122021494,1,-0.9312,-0.249,0.7932,200,19.6533,28.8086,-30.8228,84,1.0955,0,30.1027,-23.2672,23,0.7974,7689,4.0216,-77.5424
rg,1625315778122066153,1,-0.9521,-0.301,0.8682,201,8.1177,-6.5308,-23.8647,84,1.0965,0,28.9462,-23.1069,23,0.7994,7752,4.0216,-77.2844
rg,1625315778122951441,1,-0.7942,-0.2969,0.8442,202,-12.4512,-78.3691,-2.0752,84,1.0965,0,26.5325,-22.867,23,0.8014,7701,4.0216,-75.9159
rg,1625315778123105115,1,-0.2473,-0.4629,0.925,203,-36.7432,-117.1875,13.7939,84,1.0995,0,21.9431,-23.4223,23,0.8064,7741,4.0216,-73.3988
rg,1625315778123355977,1,-0.0437,-0.4253,0.8867,204,-45.6543,-112.0605,18.1885,84,1.0975,0,17.1601,-24.4067,23,0.8044,7755,4.0216,-70.7715
rg,1625315778123409468,1,0.1543,-0.3403,0.877,205,-70.8618,-75.7446,11.1084,84,1.0945,0,13.6184,-26.6213,23,0.7954,7848,4.0216,-68.9396
rg,1625315778123460594,1,0.8777,-0.6699,0.8247,206,2.2583,-27.5269,24.353,84,1.0965,0,11.2672,-26.6127,23,0.7974,7875,4.0216,-67.6355
rg,1625315778123510389,1,0.7644,0.3691,0.4915,207,10.7422,12.6953,8.4229,84,1.0935,0,10.0104,-24.8797,23,0.7934,7833,4.0216,-67.3283
rg,1625315778123560074,1,-0.2778,-0.8369,1.0566,208,-5.6763,126.8921,-12.6343,84,1.0955,0,14.4223,-26.2028,23,0.7944,7826,4.0216,-70.1312
rg,1625315778123607560,1,-0.4946,-0.2576,0.812,209,15.4419,77.6978,-15.7471,84,1.0945,0,17.5416,-25.8276,23,0.7964,11826,4.0216,-72.0603
rg,1625315778123655618,1,-0.5022,-0.3655,0.8538,210,7.019,55.603,-9.8877,84,1.0945,0,19.785,-25.8914,23,0.7974,7909,4.0216,-73.431
rg,1625315778123706171,1,-0.3887,-0.4487,0.9272,211,1.5869,43.2739,-8.1787,84,1.0945,0,20.718,-26.1624,23,0.7984,7892,4.0216,-74.3597
rg,1625315778123754175,1,-0.2585,-0.4546,0.9314,212,1.0376,17.334,-10.437,84,1.0945,0,20.8819,-26.3666,23,0.7994,7909,4.0216,-75.0846
rg,1625315778123799369,1,-0.0959,-0.4272,0.9011,213,2.8687,17.5781,-20.0195,84,1.0935,0,20.5455,-26.5924,23,0.8014,7953,4.0216,-76.1688
rg,1625315778123845322,1,-0.2129,-0.429,0.8521,214,1.1597,25.5127,-24.9634,84,1.0935,0,20.9257,-27.2452,23,0.8024,8521,4.0216,-78.1148
rg,1625315778123890017,1,-0.3198,-0.4126,0.8325,215,0.3662,39.856,-35.5225,84,1.0925,0,21.5922,-27.9653,23,0.8034,8430,4.0216,-80.2448
rg,1625315778123936432,1,-0.4651,-0.3933,0.8035,216,-7.5684,38.8794,-42.8467,84,1.0935,0,22.3611,-29.0969,23,0.8054,7991,4.0216,-82.6444
rg,1625315778123982014,1,-0.6294,-0.4346,0.8325,217,-13.855,27.0386,-40.8325,84,1.0945,0,22.9315,-30.405,23,0.8074,8051,4.0216,-84.7445
rg,1625315778124027690,1,-0.6479,-0.5825,0.9446,218,-14.5264,17.334,-36.438,84,1.0955,0,22.7337,-31.2718,23,0.8094,8762,4.0216,-85.9208
rg,1625315778124072367,1,-0.5259,-0.6572,1.0078,219,-1.1597,-11.8408,-21.8506,84,1.0925,0,21.9054,-31.5864,23,0.8094,8176,4.0216,-86.4833
rg,1625315778124115880,1,-0.1594,-0.679,0.9968,220,29.7241,-20.0806,-8.0566,84,1.0955,0,20.4879,-30.454,23,0.8114,8155,4.0216,-86.3799
rg,1625315778124159948,1,0.113,-0.6172,0.9385,221,49.7437,8.667,-12.085,84,1.0965,0,19.5433,-28.8048,23,0.8114,8164,4.0216,-87.0668
rg,1625315778124248915,1,0.0339,-0.5522,0.8823,222,55.0537,33.9966,-21.6675,84,1.0945,0,19.5003,-27.2405,23,0.8074,8184,4.0216,-88.6149
rg,1625315778124299505,1,-0.2417,-0.4238,0.7998,223,56.3354,73.4863,-27.71,84,1.0975,0,21.4367,-25.8767,23,0.8044,8233,4.0216,-91.0891
rg,1625315778124346714,1,-0.4453,-0.4485,0.821,224,49.0112,77.8198,-31.8604,84,1.0965,0,23.8399,-25.0611,23,0.8024,8248,4.0216,-93.8257
rg,1625315778478175120,1,-0.6821,-0.2192,0.7261,225,35.4614,30.3345,-26.9775,84,1.0935,0,25.1955,-24.0496,23,0.7944,25283,4.0216,-95.3414
rg,1625315778478265455,1,-0.9341,-0.2568,0.8555,226,-22.1558,-37.8418,-0.7935,84,1.0955,0,24.6235,-24.4315,23,0.7984,14234,4.0216,-94.5898
rg,1625315778478319186,1,-0.8135,-0.3188,0.8054,227,-44.0063,-111.2061,16.0522,84,1.0975,0,21.5889,-25.0483,23,0.8014,7620,4.0216,-91.8887
rg,1625315778478370921,1,-0.5598,-0.3438,0.8616,228,-58.0444,-146.1182,23.4375,84,1.0975,0,17.1181,-26.0551,23,0.8034,7875,4.0216,-88.2717
rg,1625315778478417650,1,0.1345,-0.4978,0.9573,229,-92.8955,-164.1846,27.2217,84,1.0965,0,10.8915,-28.8102,23,0.8014,7876,4.0216,-84.1509
rg,1625315778478514543,1,0.5837,-0.8752,1.8137,230,-103.8208,-143.8599,20.6299,84,1.0945,0,6.4689,-31.9777,23,0.7974,7682,4.0216,-81.5077
rg,1625315778478565355,1,1.228,-1.04,1.0679,231,3.0518,-59.9365,28.5645,84,1.0955,0,3.4258,-32.0294,23,0.7954,8516,4.0216,-79.3022
rg,1625315778478614467,1,0.5354,-0.7339,1.3311,232,-5.9814,92.6514,-10.1318,84,1.0955,0,5.4528,-32.3221,23,0.7954,10749,4.0216,-81.6221
rg,1625315778478661250,1,-0.3999,-0.0447,0.5815,233,52.3071,119.5679,-14.7705,84,1.0955,0,10.3403,-29.7539,23,0.7954,7722,4.0216,-84.5125
rg,1625315778478709069,1,-0.7444,-0.3257,0.8154,234,24.292,83.9844,-13.1226,84,1.0955,0,14.1288,-28.9876,23,0.7964,7767,4.0216,-86.6145
rg,1625315778478763391,1,-0.7456,-0.3105,0.833,235,18.7378,49.5605,-11.0474,84,1.0955,0,16.6384,-28.3326,23,0.7974,7993,4.0216,-87.9303
rg,1625315778478811561,1,-0.4092,-0.3547,0.876,236,8.3618,-6.4087,-8.728,84,1.0945,0,16.5157,-27.8092,23,0.7984,9246,4.0216,-88.0526
rg,1625315778478858437,1,-0.0808,-0.321,0.874,237,2.9297,-17.8833,-12.7563,84,1.0965,0,15.1953,-27.4072,23,0.7994,7952,4.0216,-88.0871
rg,1625315778478902227,1,-0.1016,-0.3777,0.8914,238,-1.2817,-8.9111,-14.8926,84,1.0955,0,14.5865,-27.6196,23,0.8024,7799,4.0216,-88.8282
rg,1625315778478944725,1,-0.1946,-0.396,0.9058,239,-9.2163,14.0381,-23.7427,84,1.0935,0,14.4986,-28.1051,23,0.8024,7783,4.0216,-89.924
rg,1625315778478987499,1,-0.3821,-0.4365,0.8831,240,-13.7329,25.3906,-23.9258,84,1.0965,0,15.1919,-28.9286,23,0.8054,7867,4.0216,-91.2788
rg,1625315778479031714,1,-0.4656,-0.4421,0.897,241,-16.6016,26.8555,-22.1558,84,1.0955,0,16.0471,-29.9272,23,0.8064,7899,4.0216,-92.6248
rg,1625315778479074415,1,-0.4573,-0.5881,0.9988,242,-13.5498,14.5874,-13.1836,84,1.0935,0,16.4949,-30.7007,23,0.8064,7928,4.0216,-93.4115
rg,1625315778479119572,1,-0.2778,-0.6748,1.0498,243,0.6714,7.3242,-7.2021,84,1.0965,0,16.4384,-30.865,23,0.8094,7940,4.0216,-93.8474
rg,1625315778479163307,1,-0.168,-0.6875,1.0681,244,12.146,10.6812,-4.6387,84,1.0975,0,16.3548,-30.5618,23,0.8114,7896,4.0216,-94.2632
rg,1625315778481488065,1,0.0413,-0.6807,1.0071,245,37.4146,32.1045,-7.4463,84,1.0975,0,16.5986,-29.4746,23,0.8094,7971,4.0216,-95.251
rg,1625315778481612489,1,-0.1284,-0.5422,0.8862,246,45.0439,71.8994,-20.752,84,1.0975,0,18.3216,-28.4203,23,0.8104,8024,4.0216,-97.5011
rg,1625315778481731629,1,-0.3264,-0.4509,0.8071,247,44.7998,85.5103,-22.3999,84,1.0965,0,20.9476,-27.5118,23,0.8074,8013,4.0216,-100.0556
rg,1625315778481790996,1,-0.8906,-0.1628,0.6965,248,23.9258,82.3975,-23.0713,84,1.0995,0,24.5913,-27.1475,23,0.8084,8029,4.0216,-102.4444
rg,1625315778481845392,1,-1.2837,-0.3687,0.8235,249,-14.9536,4.5776,-10.9863,84,1.0995,0,25.6884,-27.8871,23,0.8114,8065,4.0216,-102.9406
rg,1625315778481894337,1,-1.2043,-0.4023,0.8491,250,-20.0195,-54.6265,-2.0752,84,1.1005,0,24.7306,-28.1619,23,0.8144,8134,4.0216,-101.8508
rg,1625315778481943634,1,-0.5381,-0.387,0.8687,251,-39.4897,-146.4844,16.2354,84,1.0985,0,20.0845,-28.1958,23,0.8134,8124,4.0216,-98.163
rg,1625315778481990658,1,0.2095,-0.6892,1.2212,252,-58.4106,-142.5171,21.9116,84,1.0975,0,14.4522,-29.4717,23,0.8124,8123,4.0216,-94.481
rg,1625315778482037700,1,0.5684,-1.1882,1.5981,253,-26.2451,-106.2012,27.3438,84,1.1005,0,9.2828,-29.8538,23,0.8134,8207,4.0216,-91.3507
rg,1625315778482085020,1,0.9001,-0.491,1.0354,254,22.3999,-0.5493,17.2729,84,1.0965,0,7.9305,-28.7239,23,0.8104,8431,4.0216,-90.7267
rg,1625315778482131989,1,-0.1116,-0.0615,0.5542,255,47.3022,104.0039,1.3428,84,1.0975,0,11.7795,-26.296,23,0.8104,8271,4.0216,-92.5088
rg,1625315778482178569,1,-0.7173,-0.0847,0.6675,256,19.2261,79.834,-10.437,84,1.0975,-0.001,15.772,-25.4341,23,0.8104,10475,4.0216,-94.2125
rg,1625315778817028380,1,-0.104,-0.3047,0.8264,257,-1.5259,-9.1553,-0.5493,84,1.0975,0,15.1932,-25.3764,23,0.8114,25060,4.0216,-94.3279
rg,1625315778817161489,1,-0.1187,-0.3384,0.8521,258,-18.9819,27.5879,-12.0239,85,1.0975,0,15.6622,-26.2266,23,0.8134,14613,4.0216,-95.233
rg,1625315778817219266,1,-0.1802,-0.4668,0.8877,259,-22.0947,39.1846,-16.7236,85,1.0975,0,16.5312,-27.538,23,0.8154,7693,4.0216,-96.6061
rg,1625315778817269690,1,-0.209,-0.4514,0.8518,260,-22.522,45.2881,-19.3481,85,1.0985,0,17.9604,-28.9704,23,0.8154,7645,4.0216,-98.4361
rg,1625315778817372478,1,-0.3481,-0.4241,0.8054,261,-22.522,58.3496,-24.1089,85,1.0985,0,19.6126,-30.4932,23,0.8164,7700,4.0216,-100.5309
rg,1625315778817423197,1,-0.5049,-0.4165,0.7822,262,-24.1089,56.3965,-26.6724,85,1.0985,0,21.368,-32.1374,23,0.8174,7691,4.0216,-102.7309
rg,1625315778817470849,1,-0.5664,-0.5122,0.8398,263,-23.6816,49.8047,-24.5361,85,1.0985,0,22.4441,-33.588,23,0.8184,8928,4.0216,-104.4799
rg,1625315778817781060,1,-0.4712,-0.5818,0.8945,264,-15.8081,24.0479,-23.3154,85,1.0995,0,22.453,-34.2476,23,0.8194,10136,4.0216,-105.638
rg,1625315778817847817,1,-0.4451,-0.5493,0.8911,265,5.8594,5.4321,-22.7661,85,1.0965,0,22.1378,-34.2614,23,0.8194,7686,4.0216,-106.5404
rg,1625315778817898703,1,-0.3276,-0.5994,0.9119,266,35.0952,-1.0376,-19.8975,85,1.1005,0,21.4427,-33.0707,23,0.8214,7706,4.0216,-107.2128
rg,1625315778817948406,1,-0.2234,-0.6133,0.8606,267,51.6968,-3.3569,-20.0195,85,1.1005,-0.001,20.5245,-31.3351,23,0.8204,7731,4.0216,-107.9013
rg,1625315778817999273,1,-0.1567,-0.4614,0.7471,268,72.0825,0.9766,-30.3955,85,1.1005,0,19.5345,-28.8622,23,0.8174,7653,4.0216,-109.0534
rg,1625315778818048071,1,-0.2483,-0.3555,0.6494,269,76.1108,7.5073,-35.2783,85,1.0995,0,19.227,-26.3605,23,0.8154,7798,4.0216,-110.7909
rg,1625315778818095741,1,-0.3171,-0.3457,0.6472,270,75.8667,15.3198,-41.8701,85,1.0975,-0.001,19.2262,-24.0148,23,0.8104,7819,4.0216,-112.6882
rg,1625315778818158157,1,-0.4709,-0.345,0.6277,271,74.0967,2.3804,-45.4712,85,1.0995,0,19.1559,-21.8144,23,0.8074,7720,4.0216,-114.542
rg,1625315778818209356,1,-0.5032,-0.3311,0.6196,272,74.3408,-13.3057,-45.6543,85,1.0985,0,18.6764,-19.5658,23,0.8034,7897,4.0216,-116.1986
rg,1625315778818256528,1,-0.4568,-0.2969,0.5957,273,79.7119,-53.4668,-41.8701,85,1.0945,0,16.7475,-16.9097,23,0.7984,7922,4.0216,-117.2217
rg,1625315778818301760,1,-0.3054,-0.2722,0.5872,274,82.0923,-83.0688,-33.8745,85,1.0935,0,13.5371,-14.0388,23,0.7944,9948,4.0216,-117.7277
rg,1625315778818349578,1,-0.1514,-0.2451,0.5957,275,84.7778,-98.0835,-28.2593,85,1.0955,0,9.4707,-11.0332,23,0.7914,7919,4.0216,-118.0577
rg,1625315778818396528,1,-0.092,-0.2522,0.6023,276,87.0972,-101.1353,-27.0996,85,1.0965,0,5.2688,-8.0684,23,0.7904,7924,4.0216,-118.533
rg,1625315778818442998,1,-0.0374,-0.2449,0.6055,277,92.041,-97.5952,-25.0854,85,1.0975,0,1.2201,-4.9751,23,0.7874,7967,4.0216,-119.1377
rg,1625315778818489911,1,-0.02,-0.2444,0.6145,278,102.417,-93.0176,-20.1416,85,1.0965,0,-2.5023,-1.5363,23,0.7884,7997,4.0216,-119.7428
rg,1625315778818700457,1,0.0176,-0.2068,0.6091,279,113.7695,-90.9424,-13.9771,85,1.0965,0,-6.088,2.3702,23,0.7884,10876,4.0216,-120.2988
rg,1625315778818753763,1,0.041,-0.1558,0.5908,280,119.9951,-88.562,-10.9863,85,1.0965,0,-9.4788,7.0153,23,0.7894,8137,4.0216,-120.9357
rg,1625315778818801951,1,0.0549,-0.0452,0.5403,281,130.8594,-83.9233,-9.6436,85,1.0975,0,-12.5737,11.9378,23,0.7904,8131,4.0216,-121.8028
rg,1625315778818924971,1,0.0344,0.0649,0.4968,282,133.1177,-81.8481,-8.4839,85,1.0985,0,-15.3003,17.3382,23,0.7924,8135,4.0216,-122.9378
rg,1625315778818985354,1,0.053,0.1235,0.4707,283,133.7891,-82.7026,-6.958,85,1.0995,0,-18.0092,22.9437,23,0.7934,8193,4.0216,-124.3415
rg,1625315778819033911,1,0.0815,0.1433,0.4751,284,132.9956,-85.022,-5.127,85,1.0995,0,-20.7598,28.5477,23,0.7954,9385,4.0216,-126.0099
rg,1625315778819077905,1,0.1431,0.1577,0.5144,285,129.4556,-81.9702,-1.2207,85,1.0985,0,-23.3076,33.9281,23,0.7954,8747,4.0216,-127.7115
rg,1625315778819129437,1,0.198,0.146,0.5796,286,123.5962,-73.1812,0.3052,85,1.1015,0,-25.5178,38.8266,23,0.7944,8225,4.0216,-129.283
rg,1625315778819230248,1,0.2178,0.125,0.6343,287,121.9482,-59.9365,4.0894,85,1.1005,0.001,-27.2664,43.2808,23,0.7994,8244,4.0216,-130.4128
rg,1625315778819284995,1,0.2183,0.124,0.6616,288,123.0469,-52.4292,4.9438,85,1.0995,0,-28.6736,47.5721,23,0.7984,8163,4.0216,-131.3291
rg,1625315779168429544,1,0.1172,0.1055,0.7812,289,143.6157,-20.9961,21.5454,85,1.1015,0,-29.3577,51.6776,23,0.8014,25535,4.0216,-130.6048
rg,1625315779168512450,1,0.0378,0.1311,0.7896,290,165.8936,-32.959,28.9307,85,1.1025,0,-30.3611,56.7324,23,0.8014,14386,4.0216,-130.1552
rg,1625315779168563975,1,0.063,0.1628,0.7996,291,175.6592,-41.9312,29.8462,85,1.1025,0,-31.6128,62.3398,23,0.8024,7792,4.0216,-130.1481
rg,1625315779168612026,1,0.1584,0.2378,0.8044,292,177.1851,-57.1289,31.1279,85,1.1025,0,-33.268,68.4752,23,0.8034,9188,4.0216,-130.9697
rg,1625315779168658986,1,0.2388,0.3403,0.8223,293,182.4341,-65.1245,27.6489,85,1.1025,0,-34.8173,75.2636,23,0.8034,7637,4.0216,-132.4679
rg,1625315779168705059,1,0.269,0.3828,0.821,294,187.0117,-66.6504,26.001,85,1.1025,0,-36.0826,82.4598,23,0.8044,7654,4.0216,-134.2823
rg,1625315779168748619,1,0.2522,0.4819,0.7998,295,183.4717,-62.2559,22.522,85,1.1015,0,-36.8766,89.4208,23,0.8034,9435,4.0216,-136.0053
rg,1625315779168793953,1,0.2107,0.5591,0.7905,296,177.063,-61.7676,24.7803,85,1.1025,0,-37.4037,96.117,23,0.8034,7753,4.0216,-137.7701
rg,1625315779168836090,1,0.2542,0.5784,0.8669,297,173.0347,-67.5049,30.0903,85,1.1035,0,-38.0102,102.753,23,0.8044,7938,4.0216,-139.8599
rg,1625315779168881720,1,0.2893,0.5676,0.9241,298,167.1143,-67.3218,31.5552,85,1.1015,0,-38.57,109.0979,23,0.8034,7727,4.0216,-141.9606
rg,1625315779168928089,1,0.365,0.5562,1.0068,299,162.5977,-64.5752,35.5835,85,1.1035,0,-39.2812,115.2332,23,0.8024,7741,4.0216,-144.0271
rg,1625315779168972868,1,0.4124,0.5674,1.0374,300,163.0249,-62.6221,37.8418,85,1.1035,0,-40.091,121.4708,23,0.8034,7781,4.0216,-145.9224
rg,1625315779169021787,1,0.4299,0.6201,1.0251,301,168.2129,-54.0771,37.7197,85,1.1035,0,-40.8548,127.6319,23,0.8044,7850,4.0216,-147.4559
rg,1625315779169065717,1,0.4307,0.6536,1.032,302,169.6777,-45.8374,38.0859,85,1.1035,0,-41.5529,133.6981,23,0.8034,8005,4.0216,-148.8015
rg,1625315779169108463,1,0.4465,0.7168,1.0464,303,163.4521,-41.4429,35.4614,85,1.1035,0,-42.1861,139.3789,23,0.8034,7832,4.0216,-149.8722
rg,1625315779169150360,1,0.4336,0.7881,1.0283,304,155.8838,-33.8745,32.959,85,1.1035,0,-42.8271,144.5067,23,0.8034,7908,4.0216,-150.5302
rg,1625315779169193328,1,0.4099,0.8416,1.0012,305,148.3154,-30.2124,33.3252,85,1.1035,0,-43.4686,149.2616,23,0.8024,7883,4.0216,-151.045
rg,1625315779169235058,1,0.3735,0.8901,0.9895,306,128.418,-24.9023,31.0059,85,1.1035,0,-44.1358,153.0321,23,0.8034,7956,4.0216,-151.2508
rg,1625315779169395123,1,0.3594,0.8013,1.1091,307,104.4312,-21.6675,29.6021,85,1.1035,0,-45.0137,155.9082,23,0.8024,9001,4.0216,-151.3887
rg,1625315779169449586,1,0.3521,0.7129,1.1924,308,99.3042,-19.7754,28.7476,85,1.1035,0,-46.0838,158.6039,23,0.8034,7977,4.0216,-151.4673
rg,1625315779169500557,1,0.334,0.7224,1.1724,309,97.9004,-16.6016,25.8179,85,1.1015,0,-47.1738,161.2467,23,0.8014,7994,4.0216,-151.3913
rg,1625315779169547684,1,0.3152,0.7261,1.134,310,95.6421,-16.6626,23.6206,85,1.1045,0,-48.2166,163.7426,23,0.8004,8004,4.0216,-151.174
rg,1625315779169626524,1,0.2964,0.7136,1.104,311,94.4214,-18.9819,19.2261,85,1.1075,0,-49.1262,166.0779,23,0.8004,8343,4.0216,-150.7337
rg,1625315779169675498,1,0.2754,0.7302,1.0598,312,94.5435,-21.6675,14.8315,85,1.1035,0,-49.865,168.2248,23,0.8014,9594,4.0216,-150.0087
rg,1625315779169782615,1,0.2661,0.7412,1.0466,313,94.6655,-25.1465,12.085,85,1.1025,0,-50.4501,170.2853,23,0.8014,8080,4.0216,-149.1218
rg,1625315779169832162,1,0.3618,0.875,1.2385,314,95.7642,-36.6821,11.0474,85,1.1045,0,-50.6388,172.4857,23,0.8004,8148,4.0216,-148.2897
rg,1625315779169877422,1,2.5652,0.8259,2.771,315,70.1904,-68.4204,70.6177,85,1.1045,0,-50.3367,178.0669,24,0.8034,8199,4.0216,-152.403
rg,1625315779169922257,1,4.032,0.6035,3.2266,316,70.5566,75.6226,111.5112,85,1.1045,0,-55.3926,-172.9331,24,0.8044,8406,4.0216,-160.1598
rg,1625315779169970807,1,1.7405,0.3691,3.0562,317,62.6831,663.208,32.5317,85,1.1005,0,-81.3965,-134.6616,24,0.7964,8216,4.0216,162.9219
rg,1625315779170015032,1,-2.5188,1.1968,1.8538,318,72.0825,753.54,-120.7886,85,1.1005,0,-65.0655,-0.1288,24,0.7754,8251,4.0216,29.6336
rg,1625315779170061272,1,-4.4871,1.3628,1.0027,319,43.8843,636.7798,-103.2715,85,1.0995,0,-45.8653,2.7043,23,0.7724,8279,4.0216,25.4748
rg,1625315779170107160,1,-4.3843,0.8135,1.2002,320,-72.2046,212.5854,-36.499,85,1.0985,0,-35.414,1.3303,23,0.7774,8342,4.0216,23.567
rg,1625315779512719451,1,-0.7544,0.6775,0.1836,321,26.123,-288.0859,-0.7935,85,1.1015,0,-45.1982,4.8206,23,0.7944,25285,4.0216,21.6427
rg,1625315779512824516,1,-0.1357,0.7595,0.0198,322,-35.4614,-279.9072,-11.8408,85,1.1025,0,-55.2085,7.8563,23,0.7974,13641,4.0216,16.206
rg,1625315779512877168,1,0.2952,0.469,0.3455,323,-80.4443,-248.1079,-29.1138,85,1.1035,0,-64.011,12.4668,23,0.7984,7927,4.0216,8.0818
rg,1625315779512926808,1,0.4324,0.3406,0.5186,324,-72.8149,-197.1436,-46.3257,85,1.1035,0,-69.8428,20.6987,23,0.8004,9708,4.0216,-3.7799
rg,1625315779512973066,1,0.2688,0.3689,0.5879,325,-56.3354,-158.0811,-68.4204,85,1.1045,0,-72.3188,35.2635,23,0.8014,7663,4.0216,-21.5301
rg,1625315779513018917,1,0.228,0.3503,0.6531,326,-49.6826,-154.0527,-73.6694,85,1.1045,0,-72.9199,51.8833,23,0.8024,7760,4.0216,-41.2629
rg,1625315779513065157,1,0.2979,0.2771,0.7847,327,-27.6489,-156.7993,-78.7354,85,1.1045,0,-71.8988,69.0611,23,0.8024,7696,4.0216,-60.7764
rg,1625315779513108255,1,0.5303,0.343,0.813,328,3.7842,-157.4707,-78.2471,85,1.1055,0,-69.5345,84.6637,23,0.8034,7767,4.0216,-77.4916
rg,1625315779513153478,1,0.7551,0.4678,0.792,329,28.8696,-136.2305,-76.5991,85,1.1055,0,-66.1469,95.5345,23,0.8034,11062,4.0216,-88.3817
rg,1625315779513196853,1,0.8577,0.5305,0.7842,330,37.0483,-122.6196,-72.937,85,1.1055,0,-62.7979,101.9195,23,0.8024,7804,4.0216,-94.0624
rg,1625315779513260150,1,1.0259,0.6614,0.7634,331,45.2271,-85.8765,-61.0962,85,1.1035,0,-59.7228,105.8535,23,0.8014,7813,4.0216,-97.1485
rg,1625315779513307259,1,1.061,0.7749,0.6851,332,46.4478,-41.9312,-46.2036,85,1.1055,0,-57.5877,106.8982,23,0.8034,7893,4.0216,-96.9597
rg,1625315779513351872,1,1.012,0.8254,0.6487,333,44.4336,-20.1416,-36.6211,85,1.1045,0,-56.5044,105.6514,23,0.8034,7954,4.0216,-94.3993
rg,1625315779513394286,1,0.8403,0.8591,0.5603,334,34.668,13.0005,-14.6484,85,1.1025,0,-55.8861,103.6304,23,0.8034,7909,4.0216,-91.1913
rg,1625315779513438529,1,0.7703,0.77,0.5369,335,21.3013,33.1421,1.77,85,1.1055,0,-56.044,100.1648,23,0.8054,7920,4.0216,-86.9012
rg,1625315779513518829,1,0.7515,0.7224,0.5388,336,16.7847,45.5933,3.7231,85,1.1045,0,-56.2415,95.7551,23,0.8064,7916,4.0216,-81.6946
rg,1625315779513566455,1,0.647,0.6628,0.5283,337,11.7798,72.5098,3.0518,85,1.1035,0,-56.1467,89.5636,23,0.8064,7897,4.0216,-74.5571
rg,1625315779513609054,1,0.5229,0.6182,0.5107,338,5.9204,96.4966,-1.77,85,1.1055,0,-55.2167,81.9862,23,0.8084,7930,4.0216,-65.9359
rg,1625315779513651597,1,0.4739,0.6057,0.5315,339,4.2114,106.8726,-5.188,85,1.1055,0,-53.2126,73.78,23,0.8074,7978,4.0216,-56.5491
rg,1625315779513694362,1,0.4119,0.5525,0.5859,340,3.479,127.8076,-9.3994,85,1.1045,0,-50.3207,66.3138,23,0.8074,7988,4.0216,-47.6587
rg,1625315779513738329,1,0.3857,0.5339,0.6453,341,8.4839,148.6206,-8.9111,85,1.1075,0,-46.4798,59.4749,23,0.8094,8029,4.0216,-38.8583
rg,1625315779513781260,1,0.3628,0.5293,0.6851,342,12.0239,162.7197,-12.085,85,1.1055,0,-41.3936,53.5444,23,0.8104,8027,4.0216,-30.2664
rg,1625315779513825670,1,0.3,0.5164,0.7605,343,20.6299,185.8521,-12.5732,85,1.1045,0,-35.5604,49.0896,23,0.8084,8089,4.0216,-22.6563
rg,1625315779513869489,1,0.2092,0.5237,0.8403,344,31.0059,197.6929,-12.2681,85,1.1075,0,-29.0433,46.0662,23,0.8094,8089,4.0216,-15.6962
rg,1625315779513912919,1,0.0979,0.5398,0.9116,345,38.9404,200.2563,-11.1694,85,1.1075,0,-22.2337,44.5914,23,0.8104,8089,4.0216,-9.4135
rg,1625315779513956368,1,0.0308,0.5669,0.9504,346,49.8657,197.0215,-10.9253,85,1.1045,0,-15.5583,44.2171,23,0.8094,8147,4.0216,-3.6941
rg,1625315779514000002,1,-0.1589,0.613,0.978,347,59.9365,184.3872,-9.2773,85,1.1055,0,-9.1961,45.0327,23,0.8094,8168,4.0216,1.4801
rg,1625315779514042878,1,-0.3687,0.6904,0.9773,348,60.4858,150.6958,-6.958,85,1.1075,0,-3.8228,46.5898,23,0.8124,8131,4.0216,5.7116
rg,1625315779514087029,1,-0.5173,0.7246,0.9832,349,56.5796,126.1597,-5.4932,85,1.1065,0,-0.0684,48.1506,23,0.8124,8597,4.0216,8.5139
rg,1625315779514129147,1,-0.5195,0.7356,0.9729,350,45.0439,67.1387,-1.77,85,1.1045,0,2.631,49.5818,23,0.8124,8105,4.0216,10.5037
rg,1625315779514218799,1,-0.3718,0.7507,0.8906,351,31.7993,17.5171,1.9531,85,1.1065,0,3.6089,50.5163,23,0.8134,8163,4.0216,11.0792
rg,1625315779514272153,1,-0.1992,0.7659,0.8093,352,16.6016,-6.0425,3.9062,85,1.1065,0,3.5947,50.8846,23,0.8144,8212,4.0216,10.9721
rg,1625315779856553800,1,0.0063,0.6658,0.7922,353,-7.1411,-13.7329,-7.6904,85,1.1065,0.001,3.3301,50.122,23,0.8174,25576,4.0216,10.3247
rg,1625315779856600132,1,0.0688,0.6042,0.804,354,-12.146,-13.855,-19.2261,85,1.1065,0,3.2744,49.0548,23,0.8184,10540,4.0216,9.3757
rg,1625315779856622697,1,0.0945,0.5867,0.8259,355,-12.085,-12.4512,-24.231,85,1.1065,0,3.3351,47.9675,23,0.8184,7608,4.0216,8.3325
rg,1625315779856646020,1,0.1084,0.5901,0.8303,356,-10.9253,-11.9019,-25.7568,85,1.1065,0,3.4048,46.9665,23,0.8184,7571,4.0216,7.2592
rg,1625315779856665370,1,0.125,0.5876,0.8445,357,-5.4321,-10.437,-26.3672,85,1.1065,0,3.4799,46.2021,23,0.8194,8996,4.0216,6.2051
rg,1625315779856684572,1,0.1497,0.5928,0.8396,358,1.6479,-9.0332,-23.6206,85,1.1065,0,3.448,45.7726,23,0.8194,7627,4.0216,5.2641
rg,1625315779856704069,1,0.157,0.6021,0.8367,359,4.2725,-8.728,-21.9116,85,1.1065,0,3.3349,45.5288,23,0.8204,7812,4.0216,4.3815
rg,1625315779856722938,1,0.1829,0.6338,0.8167,360,9.0332,-5.188,-18.3716,85,1.1065,0,3.1899,45.5399,23,0.8184,7746,4.0216,3.7014
rg,1625315779856740403,1,0.1902,0.6465,0.792,361,10.6812,0.1831,-16.3574,85,1.1075,0,3.1234,45.6843,23,0.8204,7702,4.0216,3.2356
rg,1625315779856758015,1,0.1865,0.645,0.7908,362,9.9487,3.7842,-15.9302,85,1.1055,0,3.1553,45.7995,23,0.8194,7656,4.0216,2.8865
rg,1625315779856805124,1,0.1487,0.6494,0.7891,363,8.9111,11.3525,-17.5171,85,1.1075,0,3.5221,45.8859,23,0.8214,7729,4.0216,2.7122
rg,1625315779856835765,1,0.1179,0.6453,0.7922,364,8.0566,13.1836,-16.4185,85,1.1075,0,4.1154,45.8403,23,0.8204,7751,4.0216,2.6429
rg,1625315779856853488,1,0.0688,0.6267,0.8137,365,6.2866,15.8691,-17.8833,85,1.1045,-0.001,4.7545,45.7512,23,0.8204,7762,4.0216,2.578
rg,1625315779856871618,1,0.0376,0.6226,0.8298,366,6.4697,14.8315,-17.7002,85,1.1085,0,5.4038,45.6407,23,0.8214,7668,4.0216,2.4807
rg,1625315779856888307,1,0.0312,0.6257,0.832,367,6.958,13.7939,-18.3105,85,1.1085,0,6.0281,45.5412,23,0.8224,8325,4.0216,2.3302
rg,1625315779856905993,1,0.0293,0.6343,0.8352,368,7.1411,10.0098,-16.8457,85,1.1055,0,6.487,45.4639,23,0.8204,8019,4.0216,2.109
rg,1625315779856922792,1,0.0537,0.6362,0.8293,369,7.6904,7.019,-17.4561,85,1.1085,0,6.809,45.4093,23,0.8204,7840,4.0216,1.7825
rg,1625315779856940183,1,0.0857,0.6536,0.8137,370,6.958,4.4556,-16.2354,85,1.1075,0,6.9429,45.3727,23,0.8214,7954,4.0216,1.4208
rg,1625315779856958165,1,0.1128,0.6555,0.8032,371,6.8359,4.2114,-15.0757,85,1.1075,0,6.9728,45.3537,23,0.8214,12279,4.0216,1.0863
rg,1625315779856976110,1,0.1348,0.6648,0.7986,372,5.0659,6.3477,-14.8926,85,1.1075,0,7.0101,45.2953,23,0.8224,7853,4.0216,0.821
rg,1625315779856992872,1,0.144,0.6567,0.7947,373,4.2725,7.6294,-15.1367,85,1.1075,0,7.0669,45.2031,23,0.8214,7834,4.0216,0.5842
rg,1625315779857009487,1,0.1443,0.6565,0.7888,374,3.2959,9.6436,-12.5122,85,1.1075,0,7.1014,45.0995,23,0.8214,7883,4.0216,0.4796
rg,1625315779857026563,1,0.1409,0.6455,0.7898,375,2.9907,11.6577,-12.9395,85,1.1075,0,7.2259,44.9967,23,0.8224,7911,4.0216,0.4312
rg,1625315779857043215,1,0.134,0.6448,0.7954,376,3.6621,12.9395,-12.2681,85,1.1055,0,7.3611,44.8985,23,0.8204,8229,4.0216,0.422
rg,1625315779857060143,1,0.1172,0.6362,0.7983,377,4.3335,15.8691,-13.0615,85,1.1075,0,7.6313,44.8195,23,0.8204,7950,4.0216,0.4699
rg,1625315779857078329,1,0.0994,0.6372,0.8103,378,5.0659,17.4561,-13.855,85,1.1085,0,7.9985,44.7608,23,0.8224,7987,4.0183,0.5363
rg,1625315779857098399,1,0.0901,0.6416,0.8086,379,5.6763,17.0288,-13.855,90,1.1055,0,8.3593,44.7369,23,0.8214,8031,4.0183,0.5897
rg,1625315779857180159,1,0.0679,0.6379,0.8115,380,6.2866,17.9443,-13.4888,90,1.1075,0,8.7694,44.7333,23,0.8214,8070,4.0183,0.6763
rg,1625315779857200488,1,0.0559,0.6426,0.8188,381,5.7983,16.8457,-13.7329,90,1.1085,0,9.166,44.7028,23,0.8234,8086,4.0183,0.7222
rg,1625315779857217694,1,0.054,0.644,0.8225,382,5.7983,14.9536,-13.7329,90,1.1055,0,9.4984,44.6625,23,0.8214,8093,4.0183,0.7114
rg,1625315779857235491,1,0.0549,0.6467,0.8164,383,5.9204,13.916,-13.7939,90,1.1085,0,9.7877,44.6361,23,0.8224,8112,4.0183,0.6696
rg,1625315779857278534,1,0.0525,0.6536,0.8198,384,4.5776,12.6343,-14.2822,90,1.1085,0,10.0488,44.5552,23,0.8234,8164,4.0183,0.5766
rg,1625315780206683422,1,0.0576,0.6509,0.8069,385,3.2349,10.0098,-14.4653,90,1.1075,0,10.1995,44.4256,23,0.8234,25368,4.0183,0.4045
rg,1625315780206731612,1,0.0688,0.6541,0.8101,386,1.8311,8.4229,-13.916,90,1.1075,0,10.2788,44.2377,23,0.8234,8475,4.0183,0.2015
rg,1625315780206752924,1,0.0823,0.6477,0.8071,387,2.1973,8.0566,-14.9536,90,1.1075,0,10.3437,44.0574,23,0.8234,7523,4.0183,-0.0443
rg,1625315780206772462,1,0.0889,0.6477,0.8025,388,1.709,8.4839,-14.6484,90,1.1075,0,10.3946,43.8746,23,0.8234,7560,4.0183,-0.269
rg,1625315780206790781,1,0.0974,0.6506,0.812,389,1.5869,8.9722,-14.4043,90,1.1075,0,10.4339,43.6896,23,0.8234,7639,4.0183,-0.475
rg,1625315780206808692,1,0.1038,0.6462,0.8145,390,1.8921,9.3384,-14.4653,90,1.1075,0,10.4702,43.5143,23,0.8234,7603,4.0183,-0.6755
rg,1625315780206826271,1,0.1042,0.6428,0.8135,391,2.6855,9.6436,-13.1226,90,1.1075,0,10.475,43.3816,23,0.8234,7817,4.0183,-0.8296
rg,1625315780206845255,1,0.0925,0.645,0.8157,392,2.5635,10.8643,-13.6719,90,1.1075,0,10.5545,43.2527,23,0.8234,7675,4.0183,-0.9664
rg,1625315780206863388,1,0.0967,0.6418,0.8152,393,1.2207,11.5356,-13.1226,90,1.1075,0,10.6208,43.1042,23,0.8244,7662,4.0183,-1.0785
rg,1625315780206881133,1,0.0918,0.6299,0.8142,394,3.2959,11.2305,-13.7329,90,1.1075,0,10.7066,42.9919,23,0.8244,11086,4.0183,-1.2133
rg,1625315780206898583,1,0.0828,0.6333,0.8118,395,3.0518,11.0474,-13.3667,90,1.1075,0,10.7925,42.8841,23,0.8234,9092,4.0183,-1.3416
rg,1625315780206916143,1,0.0872,0.6335,0.8174,396,2.7466,11.1084,-13.9771,90,1.1075,0,10.8848,42.7578,24,0.8244,7743,4.0183,-1.4885
rg,1625315780206933130,1,0.0862,0.6362,0.813,397,2.3193,11.1084,-13.9771,90,1.1075,0,10.9748,42.6296,24,0.8244,7859,4.0183,-1.6345
rg,1625315780206950783,1,0.0854,0.6333,0.8123,398,3.0518,11.4136,-14.2212,90,1.1075,0,11.0334,42.518,24,0.8244,7822,4.0183,-1.8009
rg,1625315780206968547,1,0.0898,0.6411,0.8145,399,2.6245,10.5591,-13.6108,90,1.1055,0,11.0841,42.4166,24,0.8234,9208,4.0183,-1.9514
rg,1625315780207021856,1,0.0957,0.6401,0.8066,400,2.8687,10.3149,-13.9771,90,1.1095,0,11.1218,42.3344,24,0.8244,7851,4.0183,-2.1184
rg,1625315780207043465,1,0.0945,0.644,0.8064,401,3.7231,10.2539,-14.0991,90,1.1075,0,11.1622,42.2954,23,0.8254,7882,4.0183,-2.2898
rg,1625315780207061006,1,0.0977,0.6458,0.8086,402,3.418,11.1694,-15.0146,90,1.1065,0,11.2463,42.245,23,0.8234,7966,4.0183,-2.464
rg,1625315780207077883,1,0.0947,0.6431,0.8035,403,3.0518,9.8877,-14.0381,90,1.1085,0,11.2682,42.1831,23,0.8254,7944,4.0183,-2.644
rg,1625315780207096626,1,0.0933,0.6433,0.7998,404,3.2349,10.7422,-14.0991,90,1.1075,0,11.29,42.1342,23,0.8244,7920,4.0183,-2.7844
rg,1625315780207115388,1,0.0986,0.6443,0.8079,405,2.5024,11.2915,-14.2212,90,1.1085,0,11.3488,42.0569,23,0.8254,10533,4.0183,-2.9328
rg,1625315780207133374,1,0.0898,0.6472,0.8108,406,3.1128,10.6812,-12.2681,90,1.1065,0,11.354,42.016,23,0.8234,7965,4.0183,-3.0392
rg,1625315780207154446,1,0.0854,0.6479,0.8088,407,3.3569,11.4136,-12.8174,90,1.1085,0,11.4042,41.991,23,0.8234,8085,4.0183,-3.1416
rg,1625315780207172043,1,0.0857,0.644,0.8081,408,2.9297,11.2915,-14.8315,90,1.1085,0,11.489,41.9453,23,0.8254,8034,4.0183,-3.288
rg,1625315780207189031,1,0.0786,0.647,0.8091,409,3.7231,11.2305,-14.4653,90,1.1065,0,11.5868,41.9241,23,0.8244,8064,4.0183,-3.4465
rg,1625315780207205778,1,0.082,0.6416,0.8088,410,2.6245,10.7422,-13.9771,90,1.1085,0,11.6456,41.851,23,0.8224,8089,4.0183,-3.6057
rg,1625315780207222987,1,0.0835,0.645,0.8074,411,2.8687,11.2915,-13.855,90,1.1095,0,11.7121,41.8021,23,0.8254,8124,4.0183,-3.7451
rg,1625315780207239493,1,0.0784,0.6467,0.8108,412,3.6621,10.3149,-13.2446,90,1.1065,0,11.742,41.7831,23,0.8244,8134,4.0183,-3.8934
rg,1625315780207256684,1,0.0791,0.6462,0.8083,413,2.6855,10.498,-13.4888,90,1.1095,0,11.7808,41.7278,24,0.8244,8137,4.0183,-4.0437
rg,1625315780207272987,1,0.0815,0.6455,0.8052,414,1.8311,11.1694,-14.7095,90,1.1095,0,11.8646,41.6396,24,0.8264,8172,4.0183,-4.2126
rg,1625315780207309753,1,0.0823,0.6487,0.8123,415,2.0142,10.1318,-12.8784,90,1.1065,0,11.8653,41.5634,24,0.8244,8182,4.0183,-4.3554
rg,1625315780207329754,1,0.0833,0.6506,0.8049,416,3.1738,11.2305,-14.2212,90,1.1085,0,11.9312,41.5475,24,0.8244,8172,4.0183,-4.5067
rg,1625315780551218433,1,0.0852,0.6482,0.8015,417,2.0752,10.6812,-14.0991,90,1.1085,0,11.9626,41.4753,23,0.8254,27197,4.0183,-4.6716
rg,1625315780551296105,1,0.0845,0.6445,0.8159,418,2.3193,10.9253,-14.4653,90,1.1075,0,11.9557,41.3975,23,0.8254,10125,4.0183,-4.8302
rg,1625315780551318915,1,0.0869,0.6438,0.8149,419,2.5024,10.7422,-13.3057,90,1.1075,0,11.9722,41.3383,23,0.8264,7640,4.0183,-4.973
rg,1625315780551338952,1,0.0876,0.6399,0.8088,420,2.1973,10.437,-13.4888,90,1.1085,0,11.9808,41.2678,23,0.8254,7575,4.0183,-5.1296
rg,1625315780551357714,1,0.0876,0.6396,0.8125,421,2.5635,10.9253,-14.3433,90,1.1085,0,12.0266,41.2064,23,0.8264,7621,4.0183,-5.3007
rg,1625315780551375681,1,0.0894,0.6433,0.811,422,2.9297,10.7422,-14.4653,90,1.1085,0,12.0647,41.1684,23,0.8264,7604,4.0183,-5.479
rg,1625315780551393482,1,0.0933,0.6423,0.8088,423,3.2349,11.0474,-13.1836,90,1.1085,0,12.0682,41.1553,23,0.8254,10792,4.0183,-5.6097
rg,1625315780551412096,1,0.0928,0.6399,0.8071,424,2.9907,10.9253,-13.7939,90,1.1085,0,12.0844,41.1264,23,0.8264,7643,4.0183,-5.7628
rg,1625315780551428787,1,0.0974,0.6414,0.8125,425,2.5024,10.9253,-14.9536,90,1.1065,0,12.1217,41.0667,23,0.8254,7698,4.0183,-5.9529
rg,1625315780551445405,1,0.0933,0.6448,0.8062,426,2.5024,10.376,-13.855,90,1.1085,0,12.1201,41.028,23,0.8264,7712,4.0183,-6.1211
rg,1625315780551461450,1,0.0913,0.6406,0.8069,427,2.5024,11.4746,-14.1602,90,1.1075,0,12.1624,40.9772,23,0.8264,7708,4.0183,-6.2731
rg,1625315780551479675,1,0.0928,0.6426,0.8081,428,2.8076,11.2915,-13.916,90,1.1065,0,12.1892,40.9521,23,0.8254,7728,4.0183,-6.4204
rg,1625315780551496330,1,0.0898,0.6428,0.8074,429,2.7466,11.4136,-13.6719,90,1.1085,0,12.2182,40.9292,23,0.8274,7772,4.0183,-6.5567
rg,1625315780551557902,1,0.0942,0.6489,0.8054,430,2.7466,11.4136,-14.5874,90,1.1065,0,12.2612,40.9145,23,0.8254,7754,4.0183,-6.7186
rg,1625315780551577403,1,0.0903,0.6477,0.8101,431,2.8687,11.4746,-13.7329,90,1.1085,0,12.2906,40.9024,23,0.8244,7804,4.0183,-6.8545
rg,1625315780551593965,1,0.0964,0.6494,0.8032,432,3.6621,11.1694,-13.5498,90,1.1085,0,12.3062,40.93,23,0.8284,7807,4.0183,-6.9772
rg,1625315780551611119,1,0.0938,0.6433,0.8059,433,3.2349,11.2305,-14.4043,90,1.1065,0,12.3361,40.9242,23,0.8254,7856,4.0183,-7.1408
rg,1625315780551627959,1,0.0916,0.6475,0.8076,434,2.7466,11.5356,-13.7329,90,1.1095,0,12.3616,40.91,23,0.8274,8086,4.0183,-7.2745
rg,1625315780551644706,1,0.0854,0.6431,0.8088,435,3.2959,10.2539,-13.0005,90,1.1095,0,12.3831,40.9004,23,0.8274,7909,4.0183,-7.4246
rg,1625315780551661600,1,0.0901,0.6479,0.814,436,2.0142,11.4136,-13.4888,90,1.1075,0,12.4006,40.8507,23,0.8254,7898,4.0183,-7.556
rg,1625315780551678994,1,0.0862,0.6479,0.813,437,2.8687,11.4746,-14.2822,90,1.1095,0,12.448,40.8333,23,0.8284,7942,4.0183,-7.7102
rg,1625315780551696370,1,0.0901,0.646,0.813,438,2.8076,10.9863,-13.4888,90,1.1095,0,12.4663,40.809,23,0.8274,7954,4.0183,-7.8549
rg,1625315780551715594,1,0.0869,0.6465,0.8135,439,3.1128,10.9253,-13.1226,90,1.1045,0,12.4626,40.8042,23,0.8264,7959,4.0183,-7.989
rg,1625315780551732932,1,0.0874,0.6458,0.811,440,3.2959,10.9253,-14.3433,90,1.1075,0,12.4896,40.8008,23,0.8274,8002,4.0183,-8.1604
rg,1625315780551749273,1,0.0847,0.6433,0.8125,441,2.6855,11.4746,-14.8926,90,1.1085,0,12.552,40.7661,23,0.8274,12178,4.0183,-8.3357
rg,1625315780551768256,1,0.0938,0.6462,0.8062,442,2.9297,10.8032,-13.3057,90,1.1085,0,12.5308,40.7634,23,0.8274,8073,4.0183,-8.4768
rg,1625315780551784911,1,0.085,0.6443,0.8103,443,3.8452,11.7188,-14.1602,90,1.1085,0,12.5692,40.7482,24,0.8274,8307,4.0183,-8.642
rg,1625315780551804689,1,0.0872,0.6489,0.8135,444,2.9907,11.2915,-13.3057,90,1.1075,0,12.5635,40.737,24,0.8274,8380,4.0183,-8.7733
rg,1625315780551845023,1,0.0859,0.6428,0.8142,445,2.4414,11.4136,-13.4888,90,1.1085,0,12.5821,40.7008,24,0.8274,8120,4.0183,-8.9078
rg,1625315780551863822,1,0.085,0.6462,0.8123,446,3.1738,11.1694,-14.6484,90,1.1085,0,12.6248,40.6946,23,0.8274,8449,4.0183,-9.083
rg,1625315780551880606,1,0.0894,0.6482,0.8091,447,3.418,10.8643,-13.6719,90,1.1075,0,12.6219,40.7109,23,0.8274,8659,4.0183,-9.2345
rg,1625315780551898554,1,0.0825,0.6467,0.8137,448,3.418,10.9863,-15.3809,90,1.1065,0,12.682,40.7066,23,0.8264,8546,4.0183,-9.4377
rg,1625315780909740674,1,0.0916,0.6448,0.8003,449,2.6245,10.6812,-13.855,90,1.1085,0,12.6623,40.7076,23,0.8274,25053,4.0183,-9.6101
rg,1625315780909865778,1,0.0923,0.6472,0.811,450,2.9297,10.9863,-14.8315,90,1.1085,0,12.686,40.6922,23,0.8274,8538,4.0183,-9.7953
rg,1625315780909926685,1,0.0903,0.6418,0.8127,451,3.2349,11.3525,-13.9771,90,1.1085,0,12.7061,40.6948,23,0.8274,8432,4.0183,-9.9449
rg,1625315780909981417,1,0.0933,0.6487,0.8083,452,3.418,10.9253,-14.5874,90,1.1085,0,12.7177,40.707,23,0.8274,7763,4.0183,-10.1228
rg,1625315780910032176,1,0.0901,0.6431,0.8071,453,3.1128,11.4136,-15.5029,90,1.1085,0,12.7732,40.6948,23,0.8284,7613,4.0183,-10.318
rg,1625315780910078757,1,0.092,0.6511,0.8125,454,2.8076,11.2305,-13.4277,90,1.1085,0,12.7645,40.6906,23,0.8284,7769,4.0183,-10.4523
rg,1625315780910128813,1,0.0942,0.6465,0.8037,455,3.418,11.2915,-14.4043,90,1.1085,0,12.7772,40.7089,23,0.8274,7866,4.0183,-10.6143
rg,1625315780910176282,1,0.0933,0.6458,0.8062,456,2.9297,11.0474,-13.1836,90,1.1095,0,12.7806,40.6929,24,0.8284,7698,4.0183,-10.764
rg,1625315780910224859,1,0.0864,0.6455,0.8093,457,2.6855,11.3525,-14.0381,90,1.1065,0,12.8019,40.675,24,0.8274,7701,4.0183,-10.9153
rg,1625315780910273011,1,0.0901,0.6436,0.8076,458,2.9297,11.4136,-14.6484,90,1.1085,0,12.832,40.6626,24,0.8284,7674,4.0183,-11.0842
rg,1625315780910319297,1,0.0886,0.647,0.8047,459,3.1738,11.2915,-13.6108,90,1.1075,0,12.8363,40.6788,24,0.8294,7687,4.0183,-11.2215
rg,1625315780910419890,1,0.0864,0.6489,0.8081,460,2.5635,11.2915,-13.4888,90,1.1095,-0.001,12.8394,40.6675,24,0.8274,7753,4.0183,-11.3557
rg,1625315780910484327,1,0.0862,0.6472,0.8032,461,3.1738,11.4136,-14.5874,90,1.1085,0,12.8743,40.678,23,0.8274,8088,4.0183,-11.52
rg,1625315780910531536,1,0.0886,0.6426,0.8076,462,3.1738,11.4136,-13.855,90,1.1085,0,12.8841,40.6788,23,0.8294,7972,4.0183,-11.6648
rg,1625315780910577526,1,0.0813,0.647,0.8127,463,2.4414,11.2915,-14.4043,90,1.1085,0,12.9003,40.6518,23,0.8284,7858,4.0183,-11.8286
rg,1625315780910639597,1,0.0886,0.6455,0.8037,464,2.6855,10.9863,-14.2822,90,1.1085,0,12.9068,40.6391,23,0.8284,7952,4.0183,-11.9958
rg,1625315780910685642,1,0.0879,0.6509,0.8103,465,2.5024,11.3525,-14.4043,90,1.1085,0,12.9303,40.6211,23,0.8284,7873,4.0183,-12.1571
rg,1625315780910728231,1,0.0859,0.6504,0.8047,466,2.5635,11.3525,-14.6484,90,1.1085,0,12.9624,40.6113,23,0.8284,7902,4.0183,-12.3245
rg,1625315780910771059,1,0.0847,0.6497,0.8101,467,3.6011,11.1084,-14.0381,90,1.1085,0,12.9932,40.6035,23,0.8284,7900,4.0183,-12.4753
rg,1625315780910818029,1,0.083,0.6501,0.8066,468,3.2959,10.9863,-14.4653,90,1.1085,0,13.0134,40.6194,23,0.8284,7888,4.0183,-12.6477
rg,1625315780910861652,1,0.0884,0.6428,0.8037,469,3.1128,11.4136,-14.9536,90,1.1095,0,13.0462,40.6177,23,0.8284,8107,4.0183,-12.8258
rg,1625315780910904037,1,0.0894,0.646,0.8037,470,2.4414,11.4136,-13.7329,90,1.1095,0,13.0443,40.6035,23,0.8294,7989,4.0183,-12.9648
rg,1625315780910950156,1,0.0876,0.647,0.8079,471,3.0518,10.8032,-12.7563,90,1.1065,0,13.0028,40.6133,23,0.8274,7982,4.0183,-13.0906
rg,1625315780910992116,1,0.084,0.6414,0.8074,472,2.0752,11.3525,-14.9536,90,1.1075,0,13.0437,40.5624,23,0.8264,8021,4.0183,-13.2722
rg,1625315780911082894,1,0.0869,0.6453,0.8032,473,1.6479,11.2915,-14.4653,90,1.1095,0,13.062,40.5121,23,0.8294,8049,4.0183,-13.4375
rg,1625315780911134965,1,0.0894,0.647,0.8088,474,2.2583,10.6812,-13.6108,90,1.1075,0,13.0347,40.4855,23,0.8274,8048,4.0183,-13.5939
rg,1625315780911220900,1,0.0879,0.6484,0.8062,475,2.6245,11.0474,-14.5874,90,1.1085,0,13.0476,40.4762,23,0.8274,8082,4.0183,-13.7695
rg,1625315780911287185,1,0.0981,0.6487,0.8047,476,1.0986,11.2915,-14.4653,90,1.1085,0,13.0427,40.4113,23,0.8284,8086,4.0183,-13.9342
rg,1625315780911332010,1,0.0913,0.6509,0.8091,477,2.5635,10.498,-13.1836,90,1.1075,0,12.9957,40.4092,23,0.8274,8154,4.0183,-14.0808
rg,1625315780911406891,1,0.0942,0.6472,0.8062,478,2.8076,10.6812,-13.7939,90,1.1095,0,12.9649,40.4116,23,0.8284,8146,4.0183,-14.2421
rg,1625315780911464692,1,0.0925,0.6433,0.8037,479,2.5024,11.0474,-14.4043,90,1.1095,0,12.9651,40.3962,23,0.8294,8160,4.0183,-14.4133
rg,1625315780911517558,1,0.0947,0.6472,0.8054,480,2.8687,11.7188,-14.4653,90,1.1065,0,12.9832,40.4041,23,0.8274,8204,4.0183,-14.5676
rg,1625315781253059476,1,0.0864,0.6404,0.7964,481,2.4414,11.2915,-13.855,90,1.1085,0,12.9872,40.397,23,0.8294,26017,4.0183,-14.7141
rg,1625315781253157295,1,0.0891,0.6448,0.8047,482,2.5635,11.1694,-13.4888,90,1.1085,0,12.9739,40.3929,23,0.8294,10845,4.0183,-14.8534
rg,1625315781253211815,1,0.0872,0.6455,0.8059,483,2.0142,11.1694,-14.4653,90,1.1085,0,12.9964,40.3468,23,0.8294,7556,4.0183,-15.0262
rg,1625315781253265706,1,0.0901,0.6497,0.8123,484,3.1128,10.437,-12.8174,90,1.1085,0,12.9425,40.3648,23,0.8294,7660,4.0183,-15.1647
rg,1625315781253318821,1,0.0938,0.6492,0.8093,485,3.2349,11.0474,-14.1602,90,1.1085,0,12.9359,40.3846,23,0.8294,7578,4.0183,-15.3279
rg,1625315781253366242,1,0.0891,0.6477,0.8091,486,1.9531,11.5356,-14.5874,90,1.1085,0,12.9303,40.3649,23,0.8294,9456,4.0183,-15.461
rg,1625315781253415955,1,0.0916,0.6521,0.8096,487,1.2817,11.2915,-13.4888,90,1.1085,0,12.919,40.3177,23,0.8284,7640,4.0183,-15.5956
rg,1625315781253462211,1,0.0898,0.6414,0.8071,488,2.5024,10.8032,-13.916,90,1.1085,0,12.9064,40.2998,23,0.8294,7685,4.0183,-15.7602
rg,1625315781253507617,1,0.0879,0.6448,0.8049,489,3.0518,10.8032,-14.1602,90,1.1085,0,12.915,40.3262,23,0.8294,9368,4.0183,-15.9313
rg,1625315781253628804,1,0.093,0.6487,0.8091,490,1.8921,11.4746,-15.1367,90,1.1085,0,12.9489,40.2891,23,0.8294,7685,4.0183,-16.1139
rg,1625315781253689147,1,0.0957,0.6511,0.8037,491,2.9297,11.3525,-14.6484,90,1.1085,0,12.9591,40.3093,23,0.8294,8756,4.0183,-16.2819
rg,1625315781253731872,1,0.0901,0.6479,0.8064,492,2.8687,10.6812,-13.9771,90,1.1085,0,12.9429,40.3176,23,0.8294,8303,4.0183,-16.449
rg,1625315781253775207,1,0.0928,0.6562,0.8047,493,2.6245,11.3525,-14.4653,90,1.1065,0,12.9554,40.3333,23,0.8284,7724,4.0183,-16.6095
rg,1625315781253815973,1,0.0947,0.6487,0.7996,494,3.1128,11.3525,-14.4043,90,1.1095,0,12.9604,40.3624,23,0.8274,7939,4.0183,-16.7694
rg,1625315781253857126,1,0.0889,0.6494,0.8044,495,2.6245,11.2915,-15.0757,90,1.1085,0,12.957,40.3595,23,0.8294,7812,4.0183,-16.9128
rg,1625315781253899925,1,0.0872,0.6443,0.8105,496,2.5024,11.4136,-13.2446,90,1.1075,0,12.9506,40.3485,23,0.8284,7816,4.0183,-17.0401
rg,1625315781254870915,1,0.0852,0.6431,0.8062,497,2.9907,11.5967,-14.4043,90,1.1095,0,12.9833,40.3544,23,0.8294,7854,4.0183,-17.1978
rg,1625315781254920388,1,0.0903,0.6472,0.8071,498,2.2583,11.5967,-14.7705,90,1.1095,0,13.0139,40.3239,23,0.8304,7839,4.0194,-17.368
rg,1625315781254972042,1,0.0906,0.6492,0.8083,499,2.4414,11.8408,-14.0991,90,1.1095,0,13.0367,40.3042,23,0.8304,8371,4.0194,-17.5117
rg,1625315781255016616,1,0.0881,0.6443,0.8147,500,2.3804,11.4746,-14.8926,90,1.1045,0,13.0701,40.2732,23,0.8284,7883,4.0194,-17.6905
rg,1625315781255061541,1,0.0859,0.6431,0.8049,501,2.9907,10.9253,-13.0005,90,1.1095,0,13.0397,40.2893,23,0.8304,7905,4.0194,-17.8223
rg,1625315781255104007,1,0.0918,0.6497,0.8044,502,2.6855,11.7798,-14.7705,90,1.1065,0,13.0706,40.2975,24,0.8284,7918,4.0194,-17.9838
rg,1625315781255305116,1,0.0881,0.6458,0.8042,503,2.9907,12.0239,-14.1602,90,1.1085,0,13.0992,40.3167,24,0.8284,7945,4.0194,-18.1212
rg,1625315781255356733,1,0.0884,0.646,0.8083,504,3.0518,11.5967,-14.7705,90,1.1085,0,13.1297,40.3253,24,0.8294,8005,4.0194,-18.2903
rg,1625315781255458304,1,0.0898,0.6479,0.8071,505,2.1362,11.8408,-14.0991,90,1.1075,0,13.146,40.3083,24,0.8294,8027,4.0194,-18.4308
rg,1625315781255505170,1,0.0894,0.6418,0.8066,506,2.6245,11.4746,-13.3667,90,1.1095,0,13.132,40.3045,24,0.8294,8049,4.0194,-18.5605
rg,1625315781255547433,1,0.0894,0.647,0.8071,507,2.8687,11.3525,-13.7939,90,1.1095,0,13.1264,40.315,24,0.8304,8090,4.0194,-18.7049
rg,1625315781255588809,1,0.0916,0.6418,0.8137,508,3.1738,12.146,-14.5264,90,1.1075,0,13.16,40.3187,24,0.8294,8097,4.0194,-18.8551
rg,1625315781255631219,1,0.0886,0.646,0.8101,509,3.2349,11.9629,-13.1836,90,1.1085,0,13.1579,40.3455,24,0.8294,8116,4.0194,-18.9655
rg,1625315781255673112,1,0.0923,0.6443,0.8059,510,3.7231,12.8784,-14.9536,90,1.1095,0,13.2213,40.3865,23,0.8304,8103,4.0194,-19.106
rg,1625315781255715782,1,0.0872,0.6448,0.8044,511,3.418,11.9019,-14.8926,90,1.1085,0,13.2616,40.411,23,0.8304,9490,4.0194,-19.27
rg,1625315781255758488,1,0.0847,0.6482,0.8064,512,3.2959,12.7563,-14.8315,90,1.1075,0,13.3304,40.4384,23,0.8294,8213,4.0194,-19.4084
rg,1625315781595525249,1,0.0884,0.6465,0.7949,513,3.1738,12.207,-13.4277,90,1.1085,0,13.3467,40.4724,23,0.8304,25479,4.0194,-19.5164
rg,1625315781595656160,1,0.0903,0.6455,0.8081,514,3.7842,12.9395,-15.0757,90,1.1085,0,13.4127,40.5091,23,0.8304,10620,4.0194,-19.6591
rg,1625315781595710181,1,0.0898,0.6484,0.8083,515,3.6621,11.1694,-13.6719,90,1.1085,0,13.3876,40.5435,23,0.8304,7577,4.0194,-19.8042
rg,1625315781595763592,1,0.0825,0.6489,0.8079,516,3.7842,11.7798,-12.8784,90,1.1085,0,13.3765,40.5925,23,0.8304,7614,4.0194,-19.9078
rg,1625315781595813323,1,0.0898,0.6494,0.8066,517,2.8076,12.4512,-15.0757,90,1.1085,0,13.3765,40.6397,23,0.8304,7869,4.0194,-20.0312
rg,1625315781595858211,1,0.0852,0.6511,0.8113,518,3.3569,12.2681,-14.9536,90,1.1085,0,13.4246,40.6512,23,0.8304,7611,4.0194,-20.1871
rg,1625315781595899439,1,0.0872,0.6477,0.8135,519,2.9907,12.5122,-14.8926,90,1.1055,0,13.4779,40.6443,23,0.8294,7844,4.0194,-20.3358
rg,1625315781596031219,1,0.0874,0.6477,0.8145,520,3.0518,12.0239,-13.855,90,1.1095,0,13.487,40.6431,23,0.8304,7700,4.0194,-20.4657
rg,1625315781596086386,1,0.0881,0.6482,0.8059,521,3.2349,12.146,-13.9771,90,1.1075,0,13.5,40.662,23,0.8294,7767,4.0194,-20.5932
rg,1625315781596131903,1,0.0872,0.6477,0.8032,522,3.479,12.207,-13.855,90,1.1095,0,13.5128,40.6942,23,0.8294,7700,4.0194,-20.7145
rg,1625315781596178454,1,0.085,0.6467,0.804,523,2.9297,13.0005,-15.0146,90,1.1095,0,13.5735,40.7068,23,0.8314,7691,4.0194,-20.8596
rg,1625315781596218998,1,0.0889,0.6482,0.8086,524,4.0894,13.0615,-15.1367,90,1.1065,0,13.6401,40.7506,23,0.8294,7712,4.0194,-20.9994
rg,1625315781596263128,1,0.0889,0.6528,0.8035,525,2.6245,12.5122,-14.7705,90,1.1095,0,13.6778,40.7488,23,0.8314,7757,4.0194,-21.1388
rg,1625315781596308053,1,0.0891,0.6526,0.8027,526,3.3569,11.5967,-13.1836,90,1.1075,0,13.6446,40.7827,23,0.8294,7756,4.0194,-21.2535
rg,1625315781596353939,1,0.0869,0.6467,0.8062,527,2.9907,11.5967,-13.7329,90,1.1095,0,13.6314,40.7817,23,0.8304,7864,4.0194,-21.3887
rg,1625315781596422861,1,0.0847,0.6487,0.8066,528,3.1128,12.085,-14.5264,90,1.1105,0,13.659,40.7855,23,0.8314,7857,4.0194,-21.5347
rg,1625315781596472334,1,0.0886,0.6519,0.804,529,3.6011,12.2681,-15.0757,90,1.1075,0,13.6972,40.8151,23,0.8294,7854,4.0194,-21.6907
rg,1625315781596517962,1,0.0852,0.6482,0.8054,530,3.479,11.4136,-13.3057,90,1.1095,0,13.669,40.8377,23,0.8314,7847,4.0194,-21.8167
rg,1625315781596562535,1,0.0857,0.6477,0.8059,531,2.3193,12.8784,-14.8926,90,1.1095,0,13.6967,40.8235,23,0.8314,7881,4.0194,-21.9491
rg,1625315781596605427,1,0.0867,0.6528,0.8074,532,3.6621,11.9019,-14.0381,90,1.1075,0,13.7001,40.8562,23,0.8294,7899,4.0194,-22.0834
rg,1625315781596655121,1,0.0828,0.6516,0.8079,533,2.5635,11.2305,-14.7095,90,1.1105,0,13.7087,40.8317,23,0.8314,7932,4.0194,-22.2573
rg,1625315781596697051,1,0.0811,0.6426,0.8101,534,2.5024,12.2681,-14.4653,90,1.1085,0,13.7448,40.7951,23,0.8314,10003,4.0194,-22.4002
rg,1625315781596839887,1,0.0813,0.6521,0.8079,535,3.2959,12.146,-14.4043,90,1.1085,0,13.7635,40.8107,23,0.8314,8042,4.0194,-22.5401
rg,1625315781596904982,1,0.0845,0.6492,0.8096,536,3.6011,11.4136,-14.0991,90,1.1095,0,13.7557,40.8282,23,0.8314,8080,4.0194,-22.6919
rg,1625315781596948428,1,0.0806,0.6497,0.8108,537,3.2959,11.4136,-14.5264,90,1.1095,0,13.7676,40.8288,23,0.8314,8147,4.0194,-22.8572
rg,1625315781596990561,1,0.084,0.6484,0.8062,538,3.1738,12.9395,-14.9536,90,1.1085,0,13.8285,40.8354,23,0.8314,8772,4.0194,-22.9935
rg,1625315781597038352,1,0.0808,0.6482,0.8047,539,2.6855,11.8408,-15.0757,90,1.1095,0,13.8635,40.8158,23,0.8314,8561,4.0194,-23.163
rg,1625315781597086974,1,0.0837,0.6509,0.8113,540,2.9907,12.085,-13.7329,90,1.1075,0,13.8644,40.8162,23,0.8304,8696,4.0194,-23.2854
rg,1625315781597136041,1,0.0837,0.647,0.8054,541,3.0518,11.1084,-13.4888,90,1.1105,0,13.8284,40.8159,24,0.8314,8235,4.0194,-23.4262
rg,1625315781597178544,1,0.0808,0.6487,0.8079,542,2.7466,11.3525,-13.7939,90,1.1085,0,13.8671,40.8281,24,0.8314,8218,4.0194,-23.5737
rg,1625315781597222544,1,0.0869,0.6565,0.8069,543,3.2349,11.2305,-13.5498,90,1.1075,0,13.8308,40.8496,24,0.8304,8207,4.0194,-23.7096
rg,1625315781597273940,1,0.084,0.6462,0.8071,544,2.9907,11.4746,-14.5874,90,1.1095,0,13.8356,40.8361,24,0.8294,8252,4.0194,-23.8754
rg,1625315781957434888,1,0.0842,0.6453,0.7998,545,3.6011,11.6577,-13.6719,90,1.1095,-0.001,13.8373,40.8477,23,0.8314,25449,4.0194,-24.0337
rg,1625315781957665188,1,0.0872,0.6521,0.8052,546,2.5024,11.2915,-13.7329,90,1.1085,0,13.8045,40.8362,23,0.8314,11985,4.0194,-24.1731
rg,1625315781957721077,1,0.0835,0.6492,0.8025,547,3.0518,11.4136,-15.3198,90,1.1085,0,13.8282,40.8316,23,0.8314,7593,4.0194,-24.3605
rg,1625315781957772731,1,0.0852,0.6506,0.8049,548,3.8452,11.7798,-14.2822,90,1.1085,0,13.8318,40.868,23,0.8314,7599,4.0194,-24.506
rg,1625315781957818895,1,0.083,0.6528,0.8096,549,3.2349,12.3901,-15.1978,90,1.1085,0,13.883,40.8729,23,0.8314,7599,4.0194,-24.6641
rg,1625315781957910686,1,0.0801,0.6511,0.8059,550,2.0142,11.4746,-14.0381,90,1.1095,0,13.8797,40.8338,23,0.8324,7661,4.0194,-24.8104
rg,1625315781957959105,1,0.085,0.6492,0.8035,551,3.1128,11.4746,-13.9771,90,1.1095,0,13.8644,40.8406,23,0.8324,7808,4.0194,-24.9549
rg,1625315781958002625,1,0.0798,0.6472,0.8091,552,2.8076,11.9629,-14.3433,90,1.1075,0,13.8851,40.8239,23,0.8304,7669,4.0194,-25.1003
rg,1625315781958140728,1,0.0845,0.6531,0.8042,553,2.3193,11.5356,-14.4653,90,1.1105,0,13.8855,40.8019,23,0.8314,7710,4.0194,-25.2569
rg,1625315781958197984,1,0.0847,0.6477,0.8032,554,2.3804,12.085,-14.3433,90,1.1085,0,13.8759,40.7785,23,0.8324,7742,4.0194,-25.3851
rg,1625315781958241763,1,0.0806,0.6567,0.8093,555,2.1362,12.8174,-14.6484,90,1.1085,0,13.929,40.7569,23,0.8314,7728,4.0194,-25.5133
rg,1625315781958286873,1,0.0847,0.6521,0.803,556,3.1128,11.2305,-12.5122,90,1.1085,0,13.8668,40.7817,23,0.8324,13946,4.0194,-25.6176
rg,1625315781958331835,1,0.0845,0.6516,0.8018,557,3.1128,11.4746,-14.6484,90,1.1095,0,13.8502,40.7942,23,0.8324,7814,4.0194,-25.7729
rg,1625315781958377333,1,0.0847,0.6487,0.8103,558,3.1128,11.9629,-14.2822,90,1.1085,0,13.86,40.7929,23,0.8324,7789,4.0194,-25.9163
rg,1625315781958421389,1,0.0852,0.6499,0.8025,559,3.1738,11.5967,-14.8315,90,1.1095,0,13.8707,40.8008,23,0.8324,7781,4.0194,-26.0835
rg,1625315781958466258,1,0.0879,0.6514,0.8069,560,3.0518,11.7798,-14.5874,90,1.1085,0,13.8831,40.8029,23,0.8324,7831,4.0194,-26.2391
rg,1625315781958508466,1,0.0837,0.6514,0.8049,561,2.6245,11.5356,-14.0381,90,1.1095,0,13.8738,40.7931,23,0.8324,7869,4.0194,-26.3835
rg,1625315781958552041,1,0.0859,0.6467,0.8044,562,2.5635,11.4746,-14.0991,90,1.1095,0,13.8597,40.7729,23,0.8324,7992,4.0194,-26.5332
rg,1625315781958594063,1,0.0872,0.6514,0.8071,563,3.418,11.7188,-14.8926,90,1.1095,0,13.8376,40.7642,23,0.8324,7917,4.0194,-26.6789
rg,1625315781958637491,1,0.0825,0.6565,0.8047,564,3.418,11.9019,-14.7095,90,1.1075,0,13.8616,40.7942,23,0.8314,8128,4.0194,-26.8322
rg,1625315781958754647,1,0.082,0.6521,0.8015,565,2.0142,11.8408,-15.5029,90,1.1085,0,13.9037,40.7574,23,0.8334,7931,4.0194,-27.0125
rg,1625315781958941058,1,0.0803,0.6504,0.8047,566,2.8076,10.9253,-13.7329,90,1.1095,0,13.866,40.7478,23,0.8334,7985,4.0194,-27.1657
rg,1625315781958994617,1,0.0818,0.6519,0.8042,567,3.3569,11.9629,-14.7095,90,1.1065,0,13.8918,40.7689,23,0.8314,7973,4.0194,-27.3192
rg,1625315781959038174,1,0.0864,0.6472,0.8037,568,2.7466,11.2915,-14.4653,90,1.1105,0,13.8799,40.7549,23,0.8324,8003,4.0194,-27.485
rg,1625315781959085428,1,0.0859,0.6504,0.8098,569,2.5024,11.1694,-13.7329,90,1.1085,0,13.8592,40.7469,23,0.8334,8039,4.0194,-27.6287
rg,1625315781959128948,1,0.0859,0.6509,0.8125,570,3.0518,11.3525,-14.0381,90,1.1065,0,13.8417,40.7436,23,0.8314,8074,4.0194,-27.7809
rg,1625315781959174816,1,0.0847,0.6426,0.8042,571,1.8311,11.5967,-13.2446,90,1.1085,0,13.8122,40.6964,23,0.8334,8115,4.0194,-27.9025
rg,1625315781959220480,1,0.0818,0.6484,0.8057,572,3.1738,11.4746,-13.4888,90,1.1085,0,13.7943,40.7094,23,0.8334,8104,4.0194,-28.0333
rg,1625315781959260728,1,0.0828,0.6504,0.8054,573,2.5024,11.7798,-13.855,90,1.1095,0,13.7929,40.6989,23,0.8314,8139,4.0194,-28.1661
rg,1625315781959303083,1,0.0847,0.6516,0.803,574,2.9907,12.207,-14.1602,90,1.1085,0,13.808,40.7144,23,0.8324,8132,4.0194,-28.2956
rg,1625315781959344237,1,0.0828,0.6479,0.804,575,2.9297,11.9019,-14.6484,90,1.1075,0,13.83,40.7134,23,0.8314,9512,4.0194,-28.4504
rg,1625315781959388810,1,0.0872,0.6545,0.8079,576,3.1128,12.3291,-15.9912,90,1.1085,0,13.891,40.7184,23,0.8314,11106,4.0194,-28.6342
rg,1625315782314431258,1,0.0803,0.6553,0.792,577,2.9907,11.7798,-13.6108,90,1.1095,0,13.9063,40.7315,23,0.8324,25727,4.0194,-28.7956
rg,1625315782314522249,1,0.083,0.6516,0.8037,578,2.5635,11.3525,-14.8315,90,1.1085,0,13.9125,40.7169,23,0.8324,12390,4.0194,-28.9694
rg,1625315782314574244,1,0.083,0.6523,0.7957,579,2.8687,11.4746,-13.2446,90,1.1095,0,13.8799,40.7405,23,0.8324,9867,4.0194,-29.0874
rg,1625315782314680101,1,0.0793,0.6453,0.8015,580,2.5024,11.9019,-14.9536,90,1.1095,0,13.9138,40.7176,24,0.8324,8271,4.0194,-29.2521
rg,1625315782314729267,1,0.0793,0.6514,0.8044,581,2.8076,11.9019,-13.9771,90,1.1085,0,13.9217,40.7217,24,0.8324,8262,4.0194,-29.3849
rg,1625315782314772756,1,0.0815,0.6479,0.8074,582,2.9297,11.7798,-14.1602,90,1.1095,0,13.926,40.7182,24,0.8324,8301,4.0194,-29.5292
rg,1625315782314814895,1,0.0823,0.6482,0.8076,583,2.4414,11.1694,-13.855,90,1.1095,0,13.9022,40.6937,23,0.8324,9051,4.0194,-29.6804
rg,1625315782314856795,1,0.0793,0.6509,0.7988,584,2.4414,11.1084,-14.1602,90,1.1065,0,13.8906,40.6848,23,0.8314,8623,4.0194,-29.8386
rg,1625315782314899766,1,0.0837,0.6541,0.8005,585,3.1128,11.5967,-13.6108,90,1.1085,0,13.8712,40.7134,23,0.8304,8494,4.0194,-29.9658
rg,1625315782314942830,1,0.0796,0.6497,0.8022,586,2.9297,11.4746,-14.8315,90,1.1095,0,13.8379,40.7283,23,0.8324,8372,4.0194,-30.106
rg,1625315782314985210,1,0.0793,0.6528,0.8047,587,3.479,11.3525,-13.3057,90,1.1065,0,13.8149,40.7626,23,0.8314,8408,4.0194,-30.232
rg,1625315782315028699,1,0.0874,0.6543,0.8025,588,2.9907,11.9629,-15.625,90,1.1045,0,13.8548,40.7685,23,0.8314,8415,4.0194,-30.4122
rg,1625315782315072762,1,0.0852,0.6523,0.8066,589,2.0142,11.5967,-14.0991,90,1.1085,0,13.8473,40.7349,23,0.8324,8475,4.0194,-30.5571
rg,1625315782315116085,1,0.083,0.6545,0.8027,590,2.8687,12.9395,-15.1367,90,1.1085,0,13.8504,40.7448,23,0.8324,8466,4.0194,-30.7075
rg,1625315782315158428,1,0.082,0.6492,0.8064,591,3.6011,11.9019,-13.855,90,1.1065,0,13.8521,40.774,23,0.8314,8477,4.0194,-30.8378
rg,1625315782315200364,1,0.0845,0.6558,0.8027,592,3.2349,11.9019,-13.7329,90,1.1075,0,13.8457,40.8051,23,0.8314,9637,4.0194,-30.9603
rg,1625315782315241856,1,0.0813,0.6526,0.8015,593,3.1128,11.4746,-13.4277,90,1.1065,0,13.8249,40.8259,23,0.8314,9826,4.0194,-31.0856
rg,1625315782315284310,1,0.0815,0.6506,0.7983,594,2.8687,11.5356,-13.916,90,1.1095,0,13.8184,40.834,23,0.8314,8644,4.0194,-31.2241
rg,1625315782315361507,1,0.0776,0.6455,0.7974,595,3.1738,11.4746,-14.4043,90,1.1095,0,13.8308,40.8424,23,0.8334,8577,4.0194,-31.3812
rg,1625315782315409286,1,0.0837,0.6487,0.8037,596,2.1362,11.1084,-13.5498,90,1.1085,0,13.8269,40.7979,23,0.8324,8611,4.0194,-31.532
rg,1625315782315452295,1,0.0825,0.6511,0.8052,597,2.1973,11.2305,-14.3433,90,1.1065,0,13.8211,40.7663,23,0.8314,8614,4.0194,-31.6942
rg,1625315782315494305,1,0.084,0.6531,0.7988,598,2.8687,10.9863,-14.9536,90,1.1075,0,13.8203,40.769,23,0.8314,8656,4.0194,-31.8791
rg,1625315782315537794,1,0.0842,0.6523,0.8042,599,3.3569,11.4746,-13.4277,90,1.1095,0,13.7947,40.7967,23,0.8324,8694,4.0194,-32.0055
rg,1625315782315582948,1,0.0828,0.6521,0.8042,600,3.7231,11.1084,-13.0615,90,1.1095,0,13.7646,40.8236,23,0.8334,8694,4.0194,-32.1295
rg,1625315782315626788,1,0.0801,0.6589,0.8027,601,2.9297,11.7188,-14.7705,90,1.1065,0,13.7925,40.8374,23,0.8314,8729,4.0194,-32.2875
rg,1625315782315707462,1,0.0874,0.6602,0.8003,602,2.3804,11.2305,-14.4043,90,1.1075,0,13.7798,40.834,23,0.8324,9478,4.0194,-32.446
rg,1625315782315778834,1,0.0837,0.6509,0.8015,603,3.1738,11.4746,-14.6484,90,1.1075,0,13.7882,40.8442,23,0.8314,8779,4.0194,-32.6098
rg,1625315782315823729,1,0.0754,0.655,0.8015,604,2.4414,11.7798,-14.4043,90,1.1085,0,13.8166,40.8357,23,0.8314,8801,4.0194,-32.756
rg,1625315782315868734,1,0.0786,0.6548,0.8081,605,3.0518,11.0474,-13.916,90,1.1085,0,13.8034,40.841,23,0.8334,8814,4.0194,-32.9092
rg,1625315782315910079,1,0.0823,0.6553,0.8022,606,2.9907,10.8032,-13.6719,90,1.1085,0,13.8311,40.844,23,0.8334,8848,4.0194,-33.0695
rg,1625315782315957396,1,0.084,0.657,0.8079,607,2.9297,11.1694,-14.2822,90,1.1065,0,13.8197,40.8464,23,0.8314,8859,4.0194,-33.2298
rg,1625315782315998481,1,0.0779,0.6489,0.7993,608,2.1362,11.8408,-14.2822,90,1.1065,0,13.8398,40.8193,23,0.8324,8883,4.0194,-33.3724
rg,1625315782680302675,1,0.0754,0.657,0.7993,609,2.8687,11.0474,-13.4277,90,1.1095,0,13.8185,40.8379,23,0.8334,25734,4.0194,-33.5067
rg,1625315782680508417,1,0.0818,0.6482,0.802,610,2.5635,11.2305,-13.5498,90,1.1095,0,13.7933,40.8247,23,0.8334,15996,4.0194,-33.6442
rg,1625315782680565829,1,0.0811,0.6509,0.8049,611,2.3804,11.2915,-15.0757,90,1.1085,0,13.8053,40.8129,23,0.8334,8248,4.0194,-33.8109
rg,1625315782680614607,1,0.0803,0.6514,0.8079,612,2.6855,11.0474,-14.0991,90,1.1095,0,13.7934,40.7975,23,0.8334,8270,4.0194,-33.9712
rg,1625315782680660870,1,0.0823,0.6477,0.8022,613,1.8311,10.437,-13.0005,90,1.1095,0,13.7298,40.7546,23,0.8334,8265,4.0194,-34.1134
rg,1625315782680704303,1,0.0806,0.6582,0.8013,614,1.9531,11.0474,-14.2212,90,1.1095,0,13.7229,40.7327,23,0.8334,9457,4.0194,-34.2724
rg,1625315782680745537,1,0.0859,0.6509,0.8064,615,2.4414,10.5591,-14.9536,80,1.1095,0,13.7096,40.7027,23,0.8334,8601,4.0271,-34.4723
rg,1625315782680788730,1,0.0879,0.6604,0.8098,616,1.8921,10.9253,-14.2212,80,1.1085,0,13.6859,40.6715,23,0.8344,8400,4.0271,-34.6366
rg,1625315782680830075,1,0.0896,0.6558,0.8132,617,2.3193,11.2915,-15.2588,80,1.1075,0,13.6977,40.6404,23,0.8324,8376,4.0271,-34.8266
rg,1625315782680871660,1,0.0852,0.6504,0.8049,618,2.0142,11.2915,-14.1602,80,1.1095,0,13.6878,40.6086,23,0.8304,8380,4.0271,-34.9819
rg,1625315782680912006,1,0.0884,0.6541,0.8003,619,2.5635,11.1694,-14.3433,80,1.1095,0,13.6979,40.5759,23,0.8344,8386,4.0271,-35.147
rg,1625315782680952296,1,0.0801,0.6514,0.804,620,2.4414,11.1694,-14.2212,80,1.1065,0,13.6963,40.5655,23,0.8324,8425,4.0271,-35.307
rg,1625315782680993215,1,0.0774,0.6514,0.8042,621,2.3193,11.5967,-14.7705,80,1.1045,0,13.7275,40.5488,23,0.8324,8420,4.0271,-35.4728
rg,1625315782681033931,1,0.073,0.6504,0.8003,622,2.3193,11.2915,-14.3433,80,1.1095,0,13.7458,40.5377,23,0.8344,8444,4.0271,-35.6327
rg,1625315782682432578,1,0.0718,0.6489,0.8013,623,3.1128,11.0474,-14.9536,80,1.1095,0,13.7744,40.5486,23,0.8344,12324,4.0271,-35.8192
rg,1625315782682493874,1,0.0808,0.6509,0.804,624,1.8311,9.6436,-13.9771,80,1.1085,0,13.7157,40.5059,23,0.8344,8484,4.0271,-36.013
rg,1625315782682603817,1,0.0815,0.6497,0.8057,625,1.8921,9.8267,-13.5498,80,1.1095,0,13.6522,40.4673,23,0.8344,8634,4.0271,-36.1895
rg,1625315782682661230,1,0.0842,0.6523,0.8066,626,2.7466,9.8877,-14.3433,80,1.1095,0,13.6133,40.4664,23,0.8344,8536,4.0271,-36.3874
rg,1625315782682711154,1,0.0818,0.6528,0.8091,627,1.4648,10.3149,-14.8926,80,1.1095,0,13.6033,40.4064,23,0.8344,8581,4.0271,-36.5926
rg,1625315782682762205,1,0.0835,0.6501,0.8079,628,2.1362,10.498,-14.0381,80,1.1065,0,13.573,40.38,23,0.8324,8811,4.0271,-36.7669
rg,1625315782682813794,1,0.0845,0.658,0.8062,629,2.1362,10.6812,-14.3433,80,1.1065,0,13.5557,40.3696,23,0.8324,8676,4.0271,-36.9422
rg,1625315782682860981,1,0.0859,0.6519,0.7998,630,2.9907,10.0098,-13.7329,80,1.1085,0,13.4985,40.3926,23,0.8334,8645,4.0271,-37.1166
rg,1625315782682908039,1,0.0811,0.6536,0.802,631,2.0752,10.7422,-13.7329,80,1.1085,0,13.4763,40.3826,23,0.8344,8651,4.0271,-37.2714
rg,1625315782682959479,1,0.0818,0.6489,0.8047,632,2.4414,10.6812,-14.4653,80,1.1085,0,13.4662,40.3738,23,0.8344,8683,4.0271,-37.4527
rg,1625315782683009292,1,0.0815,0.655,0.8083,633,2.8076,10.3149,-14.0991,80,1.1065,0,13.4416,40.3821,23,0.8334,8736,4.0271,-37.6319
rg,1625315782683058513,1,0.0811,0.6528,0.8069,634,2.8076,10.5591,-14.2212,80,1.1085,0,13.4292,40.389,23,0.8324,8751,4.0271,-37.8087
rg,1625315782683113448,1,0.0798,0.6516,0.8015,635,2.7466,10.7422,-15.1978,80,1.1095,0,13.4498,40.3927,23,0.8344,8749,4.0271,-38.0099
rg,1625315782683159323,1,0.0811,0.6545,0.8081,636,2.0752,10.6201,-14.7095,80,1.1105,0,13.4518,40.368,23,0.8344,8791,4.0271,-38.2
rg,1625315782683208322,1,0.0852,0.6541,0.8062,637,2.0142,9.7046,-13.2446,80,1.1085,0,13.3824,40.3428,23,0.8344,8825,4.0271,-38.3698
rg,1625315782683294580,1,0.0837,0.6545,0.811,638,1.3428,10.6812,-14.4653,80,1.1065,0,13.3771,40.2891,24,0.8324,8899,4.0271,-38.5517
rg,1625315782683343117,1,0.0869,0.6531,0.8013,639,1.9531,11.1694,-13.855,80,1.1065,0,13.363,40.2805,24,0.8324,8872,4.0271,-38.6989
rg,1625315782683420295,1,0.0862,0.6567,0.8054,640,1.5259,10.9863,-15.7471,80,1.1095,0,13.3951,40.2407,24,0.8334,8869,4.0271,-38.9102
rg,1625315783047447969,1,0.0837,0.6487,0.8003,641,1.6479,10.8643,-13.7329,80,1.1085,0,13.4198,40.2171,23,0.8344,26005,4.0271,-39.0726
rg,1625315783049911679,1,0.0884,0.6516,0.8064,642,1.77,10.6201,-13.7329,80,1.1095,0,13.3938,40.1879,23,0.8344,11178,4.0271,-39.2341
rg,1625315783049985724,1,0.0801,0.6497,0.8054,643,1.5869,11.1694,-14.5874,80,1.1095,0,13.412,40.1512,23,0.8344,8233,4.0271,-39.4075
rg,1625315783050043735,1,0.0801,0.6497,0.8086,644,1.709,11.1084,-14.4043,80,1.1095,0,13.4233,40.1172,23,0.8344,10408,4.0271,-39.5779
rg,1625315783050095293,1,0.084,0.6467,0.8005,645,1.5869,10.6812,-14.3433,80,1.1085,0,13.4102,40.0837,23,0.8344,9201,4.0271,-39.7565
rg,1625315783050142893,1,0.0815,0.6526,0.8057,646,1.5259,10.9253,-13.6108,80,1.1095,0,13.3923,40.0589,23,0.8344,8278,4.0271,-39.9049
rg,1625315783050189125,1,0.0845,0.6501,0.8064,647,2.4414,10.3149,-14.1602,80,1.1095,0,13.3662,40.0663,23,0.8344,8292,4.0271,-40.0864
rg,1625315783050237521,1,0.0859,0.6499,0.8081,648,2.1973,10.8643,-15.4419,80,1.1095,0,13.3861,40.0472,23,0.8344,8354,4.0271,-40.2959
rg,1625315783050282051,1,0.0796,0.6487,0.8059,649,2.6245,10.7422,-14.0381,80,1.1075,0,13.3782,40.0563,23,0.8334,8817,4.0271,-40.4643
rg,1625315783050325361,1,0.0867,0.6489,0.801,650,2.4414,11.4746,-15.686,80,1.1085,0,13.42,40.0575,23,0.8334,8525,4.0271,-40.6634
rg,1625315783050437427,1,0.0803,0.6465,0.8042,651,1.8921,11.1084,-14.5874,80,1.1095,0,13.441,40.0724,23,0.8354,8396,4.0271,-40.8403
rg,1625315783050500173,1,0.082,0.6528,0.8059,652,2.9297,10.498,-13.5498,80,1.1075,0,13.4064,40.1019,23,0.8334,8434,4.0271,-40.9982
rg,1625315783050542854,1,0.085,0.6455,0.8022,653,1.8311,10.9863,-14.4043,80,1.1065,0,13.4028,40.0756,23,0.8334,8443,4.0271,-41.1717
rg,1625315783050584148,1,0.083,0.6455,0.8064,654,2.1362,11.1694,-13.916,80,1.1095,0,13.3969,40.0613,23,0.8364,8490,4.0271,-41.3264
rg,1625315783050685340,1,0.0854,0.6477,0.8037,655,2.2583,11.4136,-13.916,80,1.1095,0,13.373,40.0699,24,0.8354,8501,4.0271,-41.4479
rg,1625315783050731387,1,0.084,0.6484,0.8047,656,2.3804,11.3525,-14.9536,80,1.1075,0,13.3985,40.0667,24,0.8334,8512,4.0271,-41.6285
rg,1625315783050774660,1,0.0828,0.6467,0.8059,657,2.5635,11.4136,-14.5264,80,1.1075,0,13.4164,40.0697,24,0.8334,8547,4.0271,-41.7952
rg,1625315783050817212,1,0.0862,0.6482,0.8054,658,2.7466,11.0474,-14.4653,80,1.1095,0,13.4139,40.0813,24,0.8314,8587,4.0271,-41.969
rg,1625315783050859708,1,0.083,0.6448,0.8057,659,3.0518,11.0474,-14.5874,80,1.1095,0,13.3696,40.0889,23,0.8344,8575,4.0271,-42.1009
rg,1625315783050901538,1,0.0837,0.6531,0.8047,660,2.2583,11.1084,-15.0757,80,1.1065,0,13.3919,40.0859,23,0.8334,8622,4.0271,-42.2899
rg,1625315783050943424,1,0.0862,0.6472,0.803,661,2.1362,10.437,-14.0381,80,1.1075,0,13.3603,40.0738,23,0.8344,8980,4.0271,-42.4659
rg,1625315783050984737,1,0.0818,0.6475,0.7998,662,2.9907,11.4746,-14.8315,80,1.1085,0,13.3908,40.1017,23,0.8364,8044,4.0271,-42.6382
rg,1625315783051026050,1,0.0874,0.6516,0.8076,663,2.4414,11.2305,-14.9536,80,1.1105,0,13.388,40.0996,23,0.8364,8063,4.0271,-42.8041
rg,1625315783051068472,1,0.0854,0.6528,0.8064,664,2.6245,10.8032,-13.1836,80,1.1075,-0.001,13.3483,40.1199,23,0.8344,8567,4.0271,-42.9424
rg,1625315783051116054,1,0.0859,0.6489,0.8081,665,2.3193,11.2915,-14.8315,80,1.1075,0,13.3663,40.1091,23,0.8344,7987,4.0271,-43.1215
rg,1625315783051161139,1,0.0828,0.6545,0.8044,666,2.3193,11.7188,-15.564,80,1.1105,0,13.4221,40.1108,24,0.8324,8162,4.0271,-43.3088
rg,1625315783051363338,1,0.0862,0.6499,0.8032,667,2.9297,11.4746,-15.5029,80,1.1095,0,13.4591,40.1292,24,0.8354,8371,4.0271,-43.5023
rg,1625315783051410143,1,0.0889,0.6533,0.8069,668,2.2583,11.2305,-15.2588,80,1.1075,0,13.4762,40.1211,24,0.8344,8286,4.0271,-43.6944
rg,1625315783051454637,1,0.0854,0.6536,0.8052,669,2.5635,11.2915,-14.2822,80,1.1105,0,13.4763,40.1359,24,0.8344,8185,4.0271,-43.8536
rg,1625315783051534581,1,0.0837,0.6501,0.8008,670,2.5635,10.5591,-13.7939,80,1.1095,0,13.4443,40.1494,23,0.8364,8204,4.0271,-44.0168
rg,1625315783051581090,1,0.082,0.6489,0.8091,671,2.1973,11.4136,-15.4419,80,1.1105,0,13.4767,40.133,23,0.8354,8230,4.0271,-44.2108
rg,1625315783051622403,1,0.0806,0.6562,0.8064,672,2.6855,11.2915,-14.8926,80,1.1085,0,13.503,40.1505,23,0.8344,8251,4.0271,-44.3885
rg,1625315783395762350,1,0.0786,0.6492,0.8025,673,2.6855,10.8032,-13.4277,80,1.1095,0,13.4787,40.1683,24,0.8354,25161,4.0271,-44.5347
rg,1625315783395899437,1,0.0837,0.6482,0.8098,674,2.6245,11.1694,-15.0146,80,1.1095,0,13.4976,40.1616,24,0.8354,10491,4.0271,-44.7238
rg,1625315783395957375,1,0.0818,0.6504,0.8042,675,2.7466,11.2915,-13.9771,80,1.1095,0,13.4963,40.1801,24,0.8364,7755,4.0271,-44.8743
rg,1625315783396011336,1,0.0828,0.6531,0.8074,676,2.8076,11.5967,-14.0991,80,1.1095,0,13.5062,40.2015,24,0.8354,7591,4.0271,-45.0204
rg,1625315783396060213,1,0.0833,0.6492,0.8005,677,2.5024,11.4136,-14.0991,80,1.1095,0,13.5079,40.2117,23,0.8354,7642,4.0271,-45.1707
rg,1625315783396105409,1,0.0862,0.6555,0.8052,678,2.7466,11.0474,-14.9536,80,1.1095,0,13.4962,40.2144,23,0.8354,7676,4.0271,-45.3173
rg,1625315783396155043,1,0.0837,0.6587,0.8098,679,2.6245,11.5967,-15.0146,80,1.1095,0,13.5285,40.2268,23,0.8364,7702,4.0271,-45.4905
rg,1625315783396201146,1,0.0845,0.6497,0.8042,680,2.5024,10.8643,-14.7705,80,1.1095,0,13.5281,40.2233,23,0.8344,7903,4.0271,-45.6774
rg,1625315783396266221,1,0.0825,0.6519,0.8052,681,2.7466,11.3525,-15.0146,80,1.1095,0,13.5531,40.2332,24,0.8364,7740,4.0271,-45.8585
rg,1625315783396316337,1,0.083,0.6565,0.8088,682,2.1973,11.4746,-15.0757,80,1.1115,0,13.5824,40.2241,24,0.8354,8892,4.0271,-46.0374
rg,1625315783396358796,1,0.0828,0.6519,0.814,683,2.6245,11.5356,-14.5874,80,1.1085,0,13.6005,40.2209,24,0.8354,9684,4.0271,-46.2032
rg,1625315783396402365,1,0.0869,0.6523,0.8044,684,2.0752,10.6812,-14.5264,80,1.1105,0,13.5806,40.2054,24,0.8364,7777,4.0271,-46.3864
rg,1625315783396525397,1,0.0852,0.655,0.8037,685,3.1738,11.2305,-15.0146,80,1.1095,0,13.561,40.2309,23,0.8364,7780,4.0271,-46.5555
rg,1625315783396581744,1,0.0847,0.6487,0.8071,686,2.2583,11.5356,-14.1602,80,1.1075,0,13.5638,40.2201,23,0.8344,7858,4.0271,-46.7068
rg,1625315783396630158,1,0.0894,0.6536,0.8035,687,2.6245,10.9863,-14.0991,80,1.1105,0,13.5385,40.2352,23,0.8354,7846,4.0271,-46.8676
rg,1625315783396672599,1,0.0859,0.6475,0.8064,688,2.3193,11.5356,-14.2822,80,1.1095,0,13.5385,40.2392,23,0.8364,7821,4.0271,-47.0373
rg,1625315783396717647,1,0.0835,0.6506,0.8093,689,2.2583,11.6577,-14.8315,80,1.1075,0,13.5661,40.2243,24,0.8344,7866,4.0271,-47.2063
rg,1625315783396762362,1,0.084,0.6494,0.8064,690,2.5635,10.7422,-13.3667,80,1.1105,0,13.5256,40.2293,24,0.8374,7905,4.0271,-47.3534
rg,1625315783396803823,1,0.0862,0.6523,0.8091,691,1.77,11.5356,-14.6484,80,1.1095,0,13.5398,40.1993,24,0.8364,10532,4.0271,-47.5191
rg,1625315783397049406,1,0.0818,0.655,0.8101,692,3.0518,10.9863,-13.4888,80,1.1095,0,13.5331,40.1973,23,0.8364,8033,4.0271,-47.6662
rg,1625315783397102610,1,0.0857,0.6523,0.8115,693,2.8076,11.3525,-13.5498,80,1.1095,0,13.5144,40.2134,23,0.8364,9371,4.0271,-47.8032
rg,1625315783397146992,1,0.0818,0.6543,0.8105,694,2.5635,10.9863,-12.6343,80,1.1095,0,13.4698,40.2285,23,0.8364,8066,4.0271,-47.9201
rg,1625315783397191097,1,0.0857,0.6592,0.8044,695,2.5635,10.1929,-12.4512,80,1.1095,0,13.3897,40.2567,23,0.8364,8090,4.0271,-48.0483
rg,1625315783397235369,1,0.0803,0.6575,0.8074,696,2.9297,11.5967,-14.7705,80,1.1095,0,13.4251,40.2521,23,0.8364,8531,4.0271,-48.2246
rg,1625315783397282304,1,0.0771,0.6567,0.8035,697,2.6855,10.6812,-13.4277,80,1.1075,0,13.4041,40.2773,23,0.8354,8704,4.0271,-48.371
rg,1625315783397329386,1,0.0872,0.6545,0.8049,698,1.6479,10.8032,-14.2822,80,1.1095,0,13.389,40.2489,23,0.8364,8162,4.0271,-48.5421
rg,1625315783397371956,1,0.085,0.6514,0.8037,699,3.0518,11.1694,-14.8315,80,1.1095,0,13.4039,40.272,23,0.8374,8205,4.0271,-48.7216
rg,1625315783397467342,1,0.0876,0.6533,0.8062,700,2.8076,10.1318,-13.4888,80,1.1085,0,13.347,40.2879,24,0.8354,8217,4.0271,-48.8866
rg,1625315783397722837,1,0.0876,0.6526,0.8008,701,1.77,10.5591,-14.0991,80,1.1105,0,13.3202,40.2664,24,0.8354,8208,4.0271,-49.0578
rg,1625315783397777538,1,0.0891,0.655,0.8027,702,2.8076,11.3525,-13.4888,80,1.1075,0,13.3002,40.298,24,0.8354,8618,4.0271,-49.1884
rg,1625315783397823530,1,0.0811,0.6509,0.8071,703,2.4414,11.5356,-14.9536,80,1.1095,0,13.3412,40.2908,24,0.8374,8281,4.0271,-49.363
rg,1625315783397869503,1,0.084,0.6523,0.7974,704,2.4414,11.2305,-13.3057,80,1.1105,0,13.3502,40.2645,23,0.8374,8327,4.0271,-49.5039
rg,1625315783735147710,1,0.0767,0.6511,0.7974,705,2.4414,11.0474,-14.3433,80,1.1095,0,13.3667,40.2742,23,0.8364,25115,4.0271,-49.6693
rg,1625315783735218944,1,0.0813,0.6528,0.8013,706,2.2583,10.8643,-13.4277,80,1.1095,0,13.3444,40.2791,23,0.8364,13883,4.0271,-49.8115
rg,1625315783735239841,1,0.0791,0.6484,0.8069,707,2.6245,11.4746,-14.7705,80,1.1095,0,13.3809,40.2768,23,0.8374,7650,4.0271,-49.9831
rg,1625315783735258556,1,0.085,0.6499,0.8118,708,2.3804,11.1084,-14.7705,80,1.1095,0,13.3936,40.2582,23,0.8364,7696,4.0271,-50.1654
rg,1625315783735276327,1,0.0886,0.6555,0.8049,709,2.4414,10.6201,-14.5264,80,1.1095,0,13.3767,40.261,23,0.8364,7643,4.0271,-50.3487
rg,1625315783735293433,1,0.0889,0.6523,0.8101,710,1.6479,11.2915,-14.4653,80,1.1095,0,13.328,40.1972,23,0.8374,9295,4.0271,-50.5077
rg,1625315783735310298,1,0.084,0.6521,0.8076,711,1.77,11.2305,-13.855,80,1.1105,0,13.3242,40.1745,23,0.8374,9459,4.0271,-50.656
rg,1625315783735326942,1,0.0876,0.6467,0.8091,712,3.1128,11.4136,-14.4043,80,1.1105,-0.001,13.3324,40.192,23,0.8364,7708,4.0271,-50.8194
rg,1625315783735346803,1,0.0874,0.6499,0.8081,713,2.1362,11.5356,-14.7705,80,1.1095,0,13.3541,40.1748,23,0.8364,11001,4.0271,-50.9894
rg,1625315783735366720,1,0.0876,0.6489,0.801,714,2.6245,11.3525,-13.1836,80,1.1095,0,13.327,40.1965,23,0.8374,7749,4.0271,-51.1127
rg,1625315783735426507,1,0.0852,0.6509,0.8003,715,1.6479,11.3525,-13.0615,80,1.1095,0,13.3029,40.1838,23,0.8364,7744,4.0271,-51.231
rg,1625315783735445813,1,0.0896,0.6497,0.803,716,2.8076,11.2915,-14.2212,80,1.1095,0,13.2989,40.2032,23,0.8364,7733,4.0271,-51.3886
rg,1625315783735463030,1,0.0862,0.6506,0.8015,717,2.3193,11.6577,-14.2822,80,1.1095,0,13.3147,40.2079,23,0.8374,7786,4.0271,-51.5375
rg,1625315783735482059,1,0.0847,0.6553,0.8088,718,3.479,11.1084,-14.3433,80,1.1095,0,13.3194,40.2525,23,0.8364,7842,4.0271,-51.7035
rg,1625315783735499146,1,0.0862,0.6482,0.8037,719,1.6479,11.2915,-13.7939,80,1.1095,0,13.3109,40.2225,23,0.8364,7932,4.0271,-51.8484
rg,1625315783735515623,1,0.0864,0.6499,0.8047,720,2.1973,10.8643,-14.2822,80,1.1095,0,13.3021,40.2109,23,0.8364,10116,4.0271,-52.0197
rg,1625315783735532581,1,0.0813,0.6475,0.8032,721,3.0518,11.2915,-14.4653,80,1.1095,0,13.3216,40.233,23,0.8374,8212,4.0271,-52.1859
rg,1625315783735549761,1,0.0881,0.6489,0.8074,722,2.3193,10.8643,-13.5498,80,1.1075,0,13.2902,40.2257,23,0.8354,8226,4.0271,-52.3355
rg,1625315783735566441,1,0.0874,0.6509,0.8057,723,2.4414,11.6577,-14.8315,80,1.1105,0,13.3187,40.225,23,0.8364,7903,4.0271,-52.5028
rg,1625315783735643851,1,0.0852,0.6458,0.8015,724,2.7466,11.0474,-13.6108,80,1.1105,0,13.2996,40.2385,23,0.8374,8361,4.0271,-52.6488
rg,1625315783735667337,1,0.0869,0.6511,0.8044,725,2.3804,11.4746,-14.7095,80,1.1075,0,13.3199,40.2368,23,0.8364,8319,4.0271,-52.8166
rg,1625315783735687550,1,0.0854,0.6553,0.8008,726,2.6245,11.5967,-15.5029,80,1.1075,0,13.3666,40.2522,23,0.8354,8329,4.0271,-53.0031
rg,1625315783735706764,1,0.0903,0.6528,0.803,727,2.8687,11.0474,-14.4653,80,1.1095,0,13.3581,40.2735,23,0.8374,7989,4.0271,-53.1735
rg,1625315783735725071,1,0.0918,0.6553,0.8049,728,2.6245,11.5356,-15.3809,80,1.1105,0,13.3858,40.2821,23,0.8374,8022,4.0271,-53.3591
rg,1625315783735744544,1,0.0874,0.6499,0.8096,729,2.1973,10.8643,-14.4653,80,1.1105,0,13.3777,40.2599,23,0.8364,8040,4.0271,-53.5377
rg,1625315783735793513,1,0.0884,0.6499,0.8037,730,2.4414,11.1084,-13.9771,80,1.1095,0,13.3619,40.2616,23,0.8384,8804,4.0271,-53.6926
rg,1625315783735815686,1,0.0852,0.6555,0.7998,731,2.1362,11.2915,-14.2212,80,1.1095,0,13.3676,40.2566,23,0.8374,8086,4.0271,-53.8482
rg,1625315783735834974,1,0.0864,0.6494,0.8057,732,2.4414,11.2915,-14.5264,80,1.1075,0,13.3762,40.2519,23,0.8364,8091,4.0271,-54.0163
rg,1625315783735852616,1,0.0835,0.6489,0.8035,733,2.3804,10.7422,-12.5122,80,1.1105,0,13.3214,40.2585,23,0.8354,8517,4.0271,-54.1354
rg,1625315783735871423,1,0.0813,0.6484,0.7998,734,2.6245,11.1084,-14.0381,84,1.1095,0,13.3233,40.2702,24,0.8384,8187,4.0227,-54.2915
rg,1625315783735889287,1,0.082,0.647,0.8091,735,1.709,11.2915,-12.5122,84,1.1095,0,13.2856,40.2525,24,0.8374,8925,4.0227,-54.3959
rg,1625315783735907317,1,0.0811,0.6516,0.8081,736,2.6855,11.3525,-13.2446,84,1.1075,0,13.2776,40.268,24,0.8364,8939,4.0227,-54.522
rg,1625315784083576804,1,0.085,0.6506,0.7988,737,2.6855,11.0474,-14.2212,84,1.1095,0,13.2759,40.2773,23,0.8374,25707,4.0227,-54.686
rg,1625315784083611944,1,0.0872,0.6528,0.8076,738,3.0518,11.2305,-14.2212,84,1.1095,0,13.2773,40.3016,23,0.8374,10052,4.0227,-54.8451
rg,1625315784083631659,1,0.0854,0.6536,0.8079,739,2.5635,11.3525,-13.6719,84,1.1095,0,13.3144,40.2852,23,0.8374,7606,4.0227,-55.028
rg,1625315784083650025,1,0.0857,0.6536,0.8086,740,1.77,12.207,-14.8315,84,1.1095,0,13.3629,40.2593,23,0.8374,7596,4.0227,-55.1803
rg,1625315784083667521,1,0.0852,0.6533,0.8047,741,2.8687,11.2915,-12.9395,84,1.1095,0,13.3334,40.2913,23,0.8374,7629,4.0227,-55.2968
rg,1625315784083684813,1,0.0869,0.6509,0.8127,742,2.6855,11.2915,-14.3433,84,1.1095,0,13.3274,40.3196,23,0.8374,8827,4.0227,-55.4395
rg,1625315784083701681,1,0.0869,0.6572,0.8142,743,2.5635,11.5356,-15.4419,84,1.1075,0,13.3695,40.3139,23,0.8364,7893,4.0227,-55.629
rg,1625315784083720712,1,0.0881,0.6484,0.8015,744,3.9062,10.9253,-14.3433,84,1.1095,0,13.3582,40.3688,23,0.8374,7703,4.0227,-55.8
rg,1625315784083816718,1,0.0859,0.6531,0.8027,745,2.8076,11.2305,-14.7095,84,1.1095,0,13.3712,40.3834,23,0.8384,7873,4.0227,-55.9725
rg,1625315784083837932,1,0.0876,0.6526,0.8066,746,2.8687,10.7422,-13.6719,84,1.1105,0,13.3391,40.398,23,0.8364,7738,4.0227,-56.1271
rg,1625315784083854448,1,0.0862,0.6519,0.8113,747,2.7466,11.5356,-14.9536,84,1.1095,0,13.369,40.395,23,0.8384,7745,4.0227,-56.3023
rg,1625315784083871222,1,0.0874,0.6509,0.8098,748,1.709,11.5356,-14.4653,84,1.1085,0,13.3823,40.3546,23,0.8364,7751,4.0227,-56.4623
rg,1625315784083890697,1,0.0857,0.6506,0.8054,749,2.5635,11.7798,-15.0146,84,1.1105,0,13.4196,40.3529,23,0.8374,7726,4.0227,-56.6317
rg,1625315784083907398,1,0.0859,0.6514,0.8081,750,2.3193,10.9253,-13.7329,84,1.1105,0,13.3909,40.3528,23,0.8374,7732,4.0227,-56.7822
rg,1625315784083924635,1,0.083,0.6533,0.8101,751,2.2583,11.8408,-14.6484,84,1.1095,0,13.4265,40.3402,23,0.8364,7789,4.0227,-56.939
rg,1625315784083944406,1,0.0823,0.6526,0.8022,752,1.8311,11.7798,-15.0757,84,1.1095,0,13.4705,40.3172,24,0.8374,11139,4.0227,-57.1087
rg,1625315784083962531,1,0.084,0.6494,0.8022,753,2.3804,11.2305,-13.1836,84,1.1095,0,13.4433,40.3218,24,0.8374,7861,4.0227,-57.2352
rg,1625315784083979731,1,0.085,0.6538,0.802,754,1.8311,11.4746,-14.6484,84,1.1095,0,13.4233,40.3241,24,0.8374,7886,4.0227,-57.3832
rg,1625315784083999891,1,0.0859,0.6489,0.8057,755,2.1973,10.9253,-13.9771,84,1.1095,0,13.4055,40.3079,24,0.8374,7899,4.0227,-57.5439
rg,1625315784084017202,1,0.0823,0.6521,0.8035,756,2.3804,10.498,-14.2822,84,1.1095,0,13.3909,40.3034,23,0.8384,7906,4.0227,-57.7236
rg,1625315784084035308,1,0.0847,0.6501,0.8032,757,3.0518,12.0239,-14.8926,84,1.1095,0,13.417,40.2976,23,0.8384,8533,4.0227,-57.8971
rg,1625315784084054839,1,0.0872,0.6555,0.8081,758,2.4414,11.4136,-14.2212,84,1.1095,0,13.4189,40.3015,23,0.8374,9027,4.0227,-58.0506
rg,1625315784084071484,1,0.0896,0.6477,0.7971,759,2.5024,11.3525,-15.7471,84,1.1095,0,13.4512,40.298,23,0.8384,7971,4.0227,-58.253
rg,1625315784084109509,1,0.0867,0.6504,0.8044,760,2.6855,11.4136,-14.0991,84,1.1095,0,13.4487,40.3086,23,0.8374,10581,4.0227,-58.4036
rg,1625315784084131296,1,0.0874,0.6519,0.7988,761,2.8076,11.9019,-15.2588,84,1.1095,0,13.4891,40.3287,23,0.8374,8110,4.0227,-58.575
rg,1625315784084147923,1,0.0881,0.655,0.804,762,2.3804,11.5967,-13.5498,84,1.1095,0,13.4734,40.3378,23,0.8374,8106,4.0227,-58.7019
rg,1625315784084164235,1,0.084,0.6499,0.8071,763,2.8687,10.9863,-14.4043,84,1.1095,0,13.471,40.3446,23,0.8374,8145,4.0227,-58.8745
rg,1625315784084181176,1,0.0801,0.6462,0.8018,764,2.4414,11.0474,-14.2822,84,1.1095,0,13.4746,40.3365,23,0.8374,8176,4.0227,-59.0414
rg,1625315784084197563,1,0.084,0.6521,0.8054,765,2.5635,11.4136,-13.6108,84,1.1095,0,13.4646,40.3459,23,0.8374,8751,4.0227,-59.1763
rg,1625315784084213986,1,0.0842,0.6506,0.8003,766,1.9531,11.2305,-14.8315,84,1.1095,0,13.4797,40.3252,23,0.8384,8678,4.0227,-59.3532
rg,1625315784084229892,1,0.0796,0.6526,0.8125,767,2.8076,11.1084,-13.6108,84,1.1075,0,13.4702,40.3336,24,0.8364,8232,4.0227,-59.4984
rg,1625315784084246075,1,0.0869,0.6482,0.7996,768,2.3193,10.6201,-13.916,84,1.1105,0,13.4369,40.3278,24,0.8384,8248,4.0227,-59.6637
rg,1625315784437281921,1,0.0837,0.6472,0.7996,769,2.6245,11.1084,-13.7329,84,1.1095,0,13.4116,40.3508,23,0.8384,25187,4.0227,-59.8073
rg,1625315784437339587,1,0.0859,0.6494,0.7986,770,2.8076,11.1694,-15.0757,84,1.1095,0,13.4293,40.3623,23,0.8384,10630,4.0227,-59.9932
rg,1625315784437370455,1,0.0874,0.6506,0.7991,771,2.3804,11.8408,-14.5264,84,1.1095,0,13.4497,40.3659,23,0.8384,7629,4.0227,-60.1437
rg,1625315784437399289,1,0.0813,0.6509,0.804,772,2.3193,11.7798,-14.2822,84,1.1095,0,13.4744,40.3618,23,0.8384,7676,4.0227,-60.2897
rg,1625315784437431211,1,0.085,0.6504,0.7976,773,2.8687,11.7798,-14.4043,84,1.1095,0,13.4929,40.3869,23,0.8384,7737,4.0227,-60.4376
rg,1625315784437458342,1,0.0859,0.6479,0.801,774,2.6245,11.9629,-14.4653,84,1.1095,0,13.4802,40.3819,23,0.8384,7767,4.0227,-60.58
rg,1625315784437577393,1,0.0811,0.6497,0.8057,775,1.8921,12.207,-14.8926,84,1.1095,0,13.4794,40.3872,23,0.8384,9141,4.0227,-60.7161
rg,1625315784437613551,1,0.0864,0.6519,0.8081,776,2.5024,11.5967,-14.7705,84,1.1095,0,13.4455,40.3668,23,0.8384,9603,4.0227,-60.8493
rg,1625315784437641459,1,0.0833,0.6506,0.8027,777,2.5024,11.5356,-13.6719,84,1.1065,0,13.4429,40.3742,23,0.8374,7704,4.0227,-60.9824
rg,1625315784437667685,1,0.0881,0.6475,0.8,778,2.9297,11.5356,-14.4043,84,1.1095,0,13.4487,40.3913,23,0.8394,7762,4.0227,-61.1388
rg,1625315784437693559,1,0.0869,0.6504,0.803,779,2.1973,11.5356,-14.2212,84,1.1085,0,13.4528,40.3809,23,0.8364,7955,4.0227,-61.2892
rg,1625315784437720820,1,0.0862,0.6489,0.803,780,2.7466,12.3901,-15.686,84,1.1095,0,13.5219,40.3846,23,0.8374,7742,4.0227,-61.4632
rg,1625315784437747101,1,0.0845,0.6477,0.8013,781,2.7466,11.1694,-13.916,84,1.1105,0,13.5087,40.3938,23,0.8394,7814,4.0227,-61.6145
rg,1625315784437772421,1,0.0818,0.6472,0.8022,782,2.3804,12.0239,-15.1367,84,1.1095,0,13.5498,40.391,23,0.8384,7814,4.0227,-61.7795
rg,1625315784437796908,1,0.0852,0.6506,0.8101,783,3.418,11.7188,-13.916,84,1.1095,0,13.5522,40.4228,23,0.8384,7924,4.0227,-61.9179
rg,1625315784437823171,1,0.0835,0.6482,0.8042,784,2.8687,12.3291,-15.5029,84,1.1095,0,13.6167,40.4275,23,0.8384,8106,4.0227,-62.0886
rg,1625315784437848897,1,0.0881,0.6521,0.8018,785,3.1128,11.7798,-14.4043,84,1.1095,0,13.6241,40.4566,23,0.8384,7962,4.0227,-62.2372
rg,1625315784437874087,1,0.0881,0.6538,0.7981,786,3.1738,11.6577,-13.916,84,1.1095,0,13.6147,40.4982,23,0.8384,7913,4.0227,-62.3718
rg,1625315784437899332,1,0.0857,0.6548,0.8,787,2.9297,11.8408,-13.7329,84,1.1095,0,13.6449,40.5298,23,0.8384,8025,4.0227,-62.5163
rg,1625315784437924577,1,0.0886,0.6575,0.803,788,2.1973,12.6953,-15.564,84,1.1075,0,13.7089,40.5232,23,0.8374,8178,4.0227,-62.6744
rg,1625315784437949379,1,0.085,0.6514,0.7971,789,3.1128,11.5356,-13.2446,84,1.1105,0,13.6815,40.5609,23,0.8374,8000,4.0227,-62.7919
rg,1625315784437999907,1,0.0806,0.6509,0.7996,790,2.4414,12.2681,-14.9536,84,1.1085,0,13.7116,40.5635,23,0.8384,8037,4.0227,-62.9514
rg,1625315784438030552,1,0.0835,0.6533,0.8042,791,3.0518,11.4746,-13.7939,84,1.1075,0,13.7007,40.5861,23,0.8374,8066,4.0227,-63.0892
rg,1625315784438056723,1,0.0845,0.6497,0.8025,792,3.1128,11.6577,-13.7939,84,1.1085,0,13.6933,40.6075,23,0.8354,8132,4.0227,-63.2229
rg,1625315784438082412,1,0.0845,0.6506,0.8042,793,2.5024,12.146,-13.916,84,1.1085,0,13.7044,40.6051,24,0.8384,8140,4.0227,-63.3474
rg,1625315784438107158,1,0.0801,0.6484,0.8064,794,2.5024,12.0239,-13.855,84,1.1085,0,13.7189,40.5955,24,0.8374,8125,4.0227,-63.475
rg,1625315784438132773,1,0.0842,0.6489,0.8027,795,3.1128,12.2681,-14.0991,84,1.1085,0,13.7377,40.6164,24,0.8374,8552,4.0227,-63.6023
rg,1625315784438157871,1,0.0813,0.6526,0.793,796,3.1738,11.9019,-13.6719,84,1.1095,0,13.7387,40.6602,24,0.8374,8156,4.0227,-63.7211
rg,1625315784438183060,1,0.0845,0.6548,0.7971,797,2.6855,11.7798,-13.7939,84,1.1095,0,13.7335,40.679,23,0.8384,8214,4.0227,-63.8474
rg,1625315784438353046,1,0.0793,0.647,0.8022,798,2.3804,12.3291,-14.4043,84,1.1105,0,13.7715,40.6629,23,0.8394,8290,4.0227,-63.9829
rg,1625315784438390794,1,0.0784,0.6521,0.8096,799,2.9297,11.8408,-14.2822,84,1.1065,0,13.7935,40.6655,23,0.8384,8229,4.0227,-64.1283
rg,1625315784438420441,1,0.0842,0.6523,0.803,800,3.3569,11.5967,-14.0991,84,1.1095,0,13.7896,40.6947,23,0.8384,8338,4.0227,-64.2721
rg,1625315784782265916,1,0.0813,0.6528,0.8005,801,3.0518,12.085,-14.4043,84,1.1095,0,13.7942,40.7087,23,0.8384,25401,4.0227,-64.3949
rg,1625315784782301851,1,0.0859,0.6536,0.8057,802,3.3569,12.2681,-14.3433,84,1.1095,0,13.814,40.7371,23,0.8384,9944,4.0227,-64.5285
rg,1625315784782322806,1,0.0801,0.6555,0.8003,803,2.9297,11.9629,-14.2212,84,1.1095,0,13.8322,40.7572,23,0.8384,8850,4.0227,-64.6639
rg,1625315784782341578,1,0.0786,0.6494,0.8035,804,2.4414,12.3901,-14.5874,84,1.1095,0,13.88,40.7733,23,0.8384,7604,4.0227,-64.8246
rg,1625315784782383358,1,0.0815,0.6545,0.803,805,2.8687,12.4512,-14.9536,84,1.1095,0,13.929,40.7712,23,0.8384,9615,4.0227,-64.9735
rg,1625315784782402000,1,0.0852,0.6562,0.8074,806,3.1738,12.4512,-15.1978,84,1.1095,0,13.9736,40.7866,24,0.8384,7983,4.0227,-65.1283
rg,1625315784782418590,1,0.0845,0.6523,0.8022,807,2.6855,11.7188,-14.8926,84,1.1095,0,13.987,40.7798,24,0.8384,7839,4.0227,-65.2932
rg,1625315784782435198,1,0.0857,0.6526,0.804,808,2.3193,11.9019,-14.9536,84,1.1095,0,14.0047,40.7573,24,0.8384,7770,4.0227,-65.4557
rg,1625315784782451270,1,0.0803,0.6504,0.803,809,2.5635,12.2681,-14.7705,84,1.1095,0,14.0387,40.7466,24,0.8384,7657,4.0227,-65.6033
rg,1625315784782467102,1,0.084,0.6533,0.8013,810,3.2349,12.146,-14.5874,84,1.1095,0,14.0596,40.7616,24,0.8384,7679,4.0227,-65.7363
rg,1625315784782482989,1,0.0791,0.6479,0.8059,811,2.9907,12.3291,-14.5264,84,1.1085,0,14.0897,40.7615,24,0.8374,8566,4.0227,-65.8769
rg,1625315784782498987,1,0.0781,0.6497,0.7988,812,2.9907,12.085,-15.3198,84,1.1105,0,14.1333,40.7667,24,0.8384,7686,4.0227,-66.0456
rg,1625315784782515244,1,0.0808,0.6516,0.8003,813,2.9297,11.4746,-13.9771,84,1.1085,0,14.1167,40.7768,24,0.8374,10606,4.0227,-66.1886
rg,1625315784782531501,1,0.0847,0.6541,0.8005,814,3.1128,11.9019,-14.9536,84,1.1095,0,14.1312,40.7932,24,0.8394,7741,4.0227,-66.3495
rg,1625315784782547388,1,0.0835,0.6572,0.8105,815,3.2349,11.6577,-14.5874,84,1.1075,0,14.1324,40.8062,24,0.8374,7821,4.0227,-66.5077
rg,1625315784782563386,1,0.0798,0.6575,0.803,816,2.8687,11.8408,-14.2822,84,1.1095,0,14.1376,40.8189,24,0.8364,7805,4.0227,-66.6487
rg,1625315784782579661,1,0.0818,0.6548,0.7993,817,2.7466,12.085,-15.0146,84,1.1095,0,14.1816,40.8329,24,0.8394,7790,4.0227,-66.7838
rg,1625315784782596732,1,0.0818,0.6548,0.8074,818,2.9297,12.3291,-15.2588,84,1.1075,0,14.2216,40.8317,24,0.8374,7813,4.0227,-66.9447
rg,1625315784782613710,1,0.0815,0.6606,0.8032,819,3.418,12.3901,-14.5874,84,1.1105,0,14.2448,40.8715,23,0.8394,7881,4.0227,-67.0791
rg,1625315784782661963,1,0.0801,0.6555,0.7979,820,3.3569,12.3291,-15.0146,84,1.1105,0,14.2832,40.906,23,0.8404,7896,4.0227,-67.2278
rg,1625315784782681863,1,0.0781,0.6519,0.8008,821,2.7466,12.3901,-15.1367,84,1.1055,0,14.3247,40.8999,23,0.8374,7918,4.0227,-67.3821
rg,1625315784782698860,1,0.0784,0.6501,0.7959,822,2.6245,12.4512,-15.8081,84,1.1095,0,14.3828,40.8883,23,0.8394,7938,4.0227,-67.5548
rg,1625315784782715487,1,0.0715,0.6499,0.8008,823,2.8687,11.8408,-13.6108,84,1.1095,0,14.3777,40.8923,23,0.8384,7921,4.0227,-67.6776
rg,1625315784782731873,1,0.0767,0.6528,0.801,824,3.2349,11.8408,-14.8926,84,1.1105,0,14.3958,40.9056,23,0.8374,7953,4.0227,-67.8392
rg,1625315784782747834,1,0.0854,0.6509,0.8013,825,2.2583,10.9253,-14.2212,84,1.1105,0,14.3499,40.8748,23,0.8394,8026,4.0227,-68.0054
rg,1625315784782763869,1,0.0872,0.6519,0.8064,826,3.0518,11.1694,-14.0991,84,1.1075,0,14.3071,40.874,23,0.8374,8024,4.0227,-68.1627
rg,1625315784782780237,1,0.085,0.6565,0.7986,827,2.9907,11.8408,-15.2588,84,1.1105,0,14.3203,40.8856,23,0.8374,8040,4.0227,-68.333
rg,1625315784782796512,1,0.0876,0.6545,0.8008,828,2.5635,12.085,-14.9536,84,1.1095,0,14.3269,40.8771,23,0.8384,8060,4.0227,-68.4888
rg,1625315784782812621,1,0.0828,0.6523,0.8049,829,2.9297,11.5967,-13.855,84,1.1105,0,14.3003,40.879,23,0.8394,8083,4.0227,-68.6261
rg,1625315784782911790,1,0.0837,0.6553,0.8091,830,2.7466,12.085,-14.9536,84,1.1085,0,14.3169,40.8675,23,0.8384,8682,4.0227,-68.7845
rg,1625315784782932985,1,0.0769,0.6487,0.8015,831,2.4414,11.5356,-14.4043,84,1.1095,0,14.3145,40.8441,23,0.8394,8491,4.0227,-68.941
rg,1625315784782951517,1,0.085,0.6555,0.7981,832,3.3569,12.085,-13.916,84,1.1105,0,14.2995,40.8824,23,0.8404,8546,4.0227,-69.0633
rg,1625315785128393009,1,0.0774,0.6533,0.7949,833,3.0518,12.2681,-14.7095,84,1.1095,0,14.321,40.9078,23,0.8394,25567,4.0227,-69.2037
rg,1625315785128474283,1,0.0784,0.6504,0.7964,834,2.6855,12.085,-14.8926,84,1.1095,0,14.3444,40.9028,23,0.8394,10451,4.0227,-69.3579
rg,1625315785128573037,1,0.0808,0.6558,0.8025,835,2.0752,12.085,-14.9536,84,1.1095,0,14.3645,40.8737,23,0.8394,7606,4.0227,-69.5138
rg,1625315785128622367,1,0.0752,0.6514,0.8101,836,2.5635,12.0239,-14.6484,84,1.1095,0,14.3862,40.8487,23,0.8384,7675,4.0227,-69.6666
rg,1625315785128667369,1,0.0764,0.6523,0.8035,837,2.9907,12.146,-14.0991,84,1.1095,0,14.3931,40.8577,24,0.8394,7661,4.0227,-69.7964
rg,1625315785128710670,1,0.0779,0.6499,0.8081,838,2.3193,11.4136,-14.5264,84,1.1095,0,14.3844,40.8268,24,0.8394,7684,4.0227,-69.9604
rg,1625315785128752528,1,0.0779,0.6558,0.8115,839,2.4414,11.0474,-13.9771,84,1.1085,0,14.3533,40.8029,24,0.8384,8658,4.0227,-70.1176
rg,1625315785128795310,1,0.0793,0.6465,0.802,840,2.3804,11.7798,-14.6484,84,1.1105,0,14.3579,40.7745,24,0.8404,7724,4.0227,-70.2765
rg,1625315785128835152,1,0.0784,0.6514,0.8064,841,2.8076,11.8408,-15.1978,84,1.1095,0,14.3783,40.7696,24,0.8404,7728,4.0227,-70.4487
rg,1625315785128874957,1,0.0781,0.6489,0.8066,842,2.6855,11.2305,-15.0146,84,1.1095,0,14.3782,40.7457,24,0.8384,7702,4.0227,-70.6346
rg,1625315785128914928,1,0.0811,0.6504,0.8035,843,3.1128,11.6577,-14.6484,84,1.1105,0,14.3751,40.7526,24,0.8404,7711,4.0227,-70.7959
rg,1625315785128954732,1,0.0825,0.6528,0.8042,844,3.1738,11.6577,-15.2588,84,1.1075,0,14.3853,40.7602,24,0.8384,7946,4.0227,-70.9753
rg,1625315785128994223,1,0.0842,0.6538,0.7976,845,3.2349,11.1694,-14.2212,84,1.1105,0,14.3491,40.7859,23,0.8384,7800,4.0227,-71.1328
rg,1625315785129033842,1,0.0852,0.6548,0.8042,846,3.1128,11.9019,-15.2588,84,1.1105,0,14.3714,40.8162,23,0.8394,7853,4.0227,-71.2879
rg,1625315785129074701,1,0.082,0.6567,0.8062,847,2.9297,12.2681,-14.5264,84,1.1085,0,14.3827,40.8254,23,0.8384,7850,4.0227,-71.4268
rg,1625315785129116411,1,0.0818,0.6584,0.8013,848,3.2349,11.9019,-14.0381,84,1.1105,0,14.3699,40.8578,23,0.8394,7862,4.0227,-71.5578
rg,1625315785129159120,1,0.075,0.6548,0.7996,849,2.0752,12.3901,-14.4653,84,1.1105,0,14.3842,40.8319,24,0.8394,7867,4.0227,-71.6915
rg,1625315785129236861,1,0.0811,0.6545,0.8057,850,3.6621,12.2681,-13.9771,84,1.1095,0,14.3825,40.8709,24,0.8384,7876,4.0227,-71.814
rg,1625315785129283509,1,0.0745,0.6482,0.8035,851,3.1738,12.6343,-15.0146,84,1.1095,0,14.432,40.8752,24,0.8394,7901,4.0227,-71.9608
rg,1625315785129325256,1,0.0735,0.6541,0.8015,852,3.1128,12.0239,-14.3433,84,1.1095,0,14.4459,40.8911,24,0.8394,10032,4.0172,-72.1001
rg,1625315785129366540,1,0.0776,0.657,0.8005,853,2.9297,11.2305,-13.1836,91,1.1095,0,14.3967,40.9093,23,0.8394,8023,4.0172,-72.223
rg,1625315785129406900,1,0.0767,0.6545,0.8027,854,2.8076,11.9629,-15.564,91,1.1095,0,14.4357,40.9009,23,0.8394,8012,4.0172,-72.402
rg,1625315785129449017,1,0.0813,0.655,0.8057,855,2.3804,11.5967,-14.0381,91,1.1095,0,14.4132,40.8819,23,0.8394,8027,4.0172,-72.5442
rg,1625315785129646394,1,0.0837,0.6567,0.7983,856,2.5635,11.5356,-14.1602,91,1.1095,0,14.387,40.8832,23,0.8394,8060,4.0172,-72.6886
rg,1625315785129754636,1,0.0786,0.6558,0.8015,857,2.3804,11.5356,-14.7095,91,1.1095,0,14.387,40.8665,23,0.8404,8101,4.0172,-72.8516
rg,1625315785129809441,1,0.0886,0.6599,0.8037,858,2.5024,12.207,-14.6484,91,1.1095,0,14.3939,40.8511,23,0.8394,8247,4.0172,-72.9968
rg,1625315785129862175,1,0.0859,0.6514,0.8015,859,3.0518,11.6577,-14.2822,91,1.1075,0,14.3707,40.8589,23,0.8384,8172,4.0172,-73.1452
rg,1625315785129906918,1,0.0806,0.6545,0.8032,860,2.7466,11.0474,-12.9395,91,1.1105,0,14.3064,40.8638,23,0.8404,8157,4.0172,-73.2674
rg,1625315785129956212,1,0.0767,0.6577,0.8008,861,2.1362,12.6343,-14.5874,91,1.1105,0,14.2802,40.9085,24,0.8404,8176,4.0172,-73.3778
rg,1625315785129999771,1,0.083,0.6565,0.8032,862,2.8076,12.5732,-14.7095,91,1.1085,0,14.3068,40.914,24,0.8384,8198,4.0172,-73.5126
rg,1625315785130047400,1,0.0779,0.6538,0.8022,863,2.8076,11.8408,-14.4653,91,1.1105,0,14.3142,40.9129,24,0.8374,8237,4.0172,-73.6606
rg,1625315785130090590,1,0.0742,0.6536,0.8008,864,2.8687,11.6577,-13.855,91,1.1095,0,14.3072,40.9194,24,0.8404,8255,4.0172,-73.7942
rg,1625315785481643741,1,0.0776,0.6619,0.7939,865,2.6245,12.085,-15.3809,91,1.1095,0,14.3245,40.9162,24,0.8394,25105,4.0172,-73.9712
rg,1625315785481724183,1,0.0776,0.6528,0.8042,866,2.5024,11.7798,-14.3433,91,1.1095,0,14.3269,40.8989,24,0.8404,8513,4.0172,-74.1182
rg,1625315785481775511,1,0.0771,0.6567,0.803,867,2.5024,12.4512,-15.0146,91,1.1095,0,14.3627,40.8923,24,0.8394,7564,4.0172,-74.2652
rg,1625315785481822604,1,0.0781,0.6584,0.8044,868,2.8687,11.8408,-14.1602,91,1.1095,0,14.36,40.9016,24,0.8394,7594,4.0172,-74.4027
rg,1625315785481867273,1,0.0771,0.6531,0.8059,869,2.4414,11.6577,-14.5874,91,1.1095,0,14.365,40.8776,24,0.8394,7896,4.0172,-74.5612
rg,1625315785481910518,1,0.0825,0.6565,0.7996,870,3.2959,12.2681,-15.4419,91,1.1095,0,14.3988,40.901,24,0.8404,10318,4.0172,-74.7261
rg,1625315785481954558,1,0.0781,0.6538,0.8054,871,2.8687,12.3291,-15.5029,91,1.1095,0,14.4444,40.8933,24,0.8404,8218,4.0172,-74.8946
rg,1625315785481997785,1,0.0737,0.6577,0.8098,872,2.6245,12.085,-15.0757,91,1.1095,0,14.4796,40.8782,24,0.8384,7619,4.0172,-75.0564
rg,1625315785482039254,1,0.0833,0.6531,0.8071,873,3.2349,11.6577,-14.4043,91,1.1095,0,14.494,40.8732,24,0.8404,7696,4.0172,-75.2318
rg,1625315785482080797,1,0.0784,0.6548,0.8088,874,2.2583,11.9629,-15.5029,91,1.1075,0,14.5249,40.8363,24,0.8384,7708,4.0172,-75.4113
rg,1625315785482122100,1,0.0796,0.6538,0.8027,875,2.0752,11.9629,-14.4043,91,1.1095,0,14.5224,40.8089,23,0.8394,10742,4.0172,-75.5549
rg,1625315785482175870,1,0.0806,0.6492,0.7959,876,2.3804,11.0474,-14.8315,91,1.1095,0,14.5004,40.787,23,0.8404,7780,4.0172,-75.7363
rg,1625315785482220169,1,0.0747,0.6511,0.8025,877,2.6245,11.7188,-14.8926,91,1.1095,0,14.4862,40.7791,23,0.8404,7784,4.0172,-75.8813
rg,1625315785482262915,1,0.0757,0.655,0.7996,878,2.1362,11.4746,-14.7705,91,1.1095,0,14.4877,40.7569,23,0.8394,7999,4.0172,-76.048
rg,1625315785482304162,1,0.0759,0.6509,0.8025,879,2.8076,12.085,-15.5029,91,1.1095,0,14.5262,40.7492,24,0.8394,7843,4.0172,-76.224
rg,1625315785482388063,1,0.0808,0.6558,0.803,880,2.6855,11.2305,-13.855,91,1.1095,0,14.4848,40.752,24,0.8394,10214,4.0172,-76.3698
rg,1625315785482436431,1,0.0833,0.6602,0.8022,881,2.3193,12.146,-16.2964,91,1.1105,0,14.4534,40.7493,24,0.8404,8405,4.0172,-76.5213
rg,1625315785482481008,1,0.0796,0.6555,0.8032,882,2.2583,11.5967,-14.5874,91,1.1085,0,14.4474,40.7312,24,0.8384,7879,4.0172,-76.6801
rg,1625315785482524198,1,0.0779,0.6499,0.7983,883,2.8687,11.7798,-15.1978,91,1.1105,0,14.4655,40.7316,24,0.8414,7930,4.0172,-76.8538
rg,1625315785482566259,1,0.0815,0.6558,0.7993,884,2.6245,11.9629,-15.9912,91,1.1095,0,14.4622,40.7294,24,0.8414,7940,4.0172,-77.0221
rg,1625315785482608505,1,0.0757,0.6545,0.8069,885,2.9297,11.7188,-15.2588,91,1.1085,0,14.4854,40.7274,24,0.8384,8003,4.0172,-77.2004
rg,1625315785482649919,1,0.0815,0.6519,0.7996,886,3.0518,11.4136,-14.2822,91,1.1105,0,14.46,40.7416,24,0.8404,8151,4.0172,-77.355
rg,1625315785482691777,1,0.0835,0.658,0.7991,887,2.9297,11.5967,-14.9536,91,1.1105,0,14.4726,40.7583,24,0.8404,8021,4.0172,-77.5359
rg,1625315785482732969,1,0.0789,0.658,0.7993,888,1.9531,11.5356,-15.0146,91,1.1085,0,14.4764,40.7337,24,0.8384,8069,4.0172,-77.7072
rg,1625315785482773125,1,0.0759,0.6587,0.8054,889,2.5635,11.7798,-14.7705,91,1.1075,0,14.4878,40.7303,24,0.8394,9285,4.0172,-77.8663
rg,1625315785482815870,1,0.0732,0.6572,0.7986,890,2.3804,11.3525,-15.0146,91,1.1095,0,14.4969,40.7223,23,0.8394,9808,4.0172,-78.0428
rg,1625315785482856396,1,0.0789,0.6516,0.8066,891,1.4038,11.4136,-14.9536,91,1.1115,0,14.4948,40.6551,23,0.8414,8115,4.0172,-78.2211
rg,1625315785482923299,1,0.0779,0.6565,0.8008,892,2.4414,11.1694,-14.4043,91,1.1085,0,14.4726,40.6514,23,0.8394,8172,4.0172,-78.3847
rg,1625315785482966692,1,0.0769,0.6562,0.8022,893,2.3193,11.2915,-15.7471,91,1.1105,0,14.4921,40.6308,23,0.8394,8183,4.0172,-78.5877
rg,1625315785483135584,1,0.0779,0.655,0.7979,894,2.3193,11.7188,-15.3809,91,1.1105,0,14.5115,40.6208,23,0.8404,8321,4.0172,-78.7667
rg,1625315785483243086,1,0.0779,0.6545,0.7998,895,2.0142,10.9863,-14.1602,91,1.1105,0,14.5105,40.6117,23,0.8404,8376,4.0172,-78.9516
rg,1625315785483291325,1,0.0779,0.6553,0.8081,896,2.0142,11.0474,-14.6484,91,1.1075,0,14.491,40.5773,23,0.8384,8245,4.0172,-79.1294
rg,1625315785831753512,1,0.0757,0.6558,0.7922,897,1.8311,10.8032,-15.686,91,1.1095,0,14.4927,40.5352,23,0.8404,25553,4.0172,-79.3444
rg,1625315785831837782,1,0.0786,0.6536,0.7959,898,1.5869,11.5356,-15.4419,91,1.1095,0,14.5059,40.4981,23,0.8404,8528,4.0172,-79.5306
rg,1625315785831888888,1,0.0771,0.6533,0.8035,899,2.2583,10.5591,-13.7329,91,1.1095,0,14.4406,40.4847,23,0.8404,7589,4.0172,-79.6924
