name,time,activity,ax,ay,az,batch_val,gx,gy,gz,ibat,index,middle,pitch,roll,temp,thumb,ts,vbat,yaw
lg,1624656412393886927,0,0.1731,-0.1155,1.0823,1,-9.0332,29.6631,12.207,71,1.5558,1.6278,-13.8395,-13.4534,32,0.2921,20214,3.9952,-2.1951
lg,1624656412393923594,0,0.1829,-0.1023,1.0486,2,-9.3384,27.6489,13.3057,71,1.5568,1.6288,-12.4936,-13.5435,31,0.2921,8470,3.9952,-2.0125
lg,1624656412393943779,0,0.1965,-0.0933,1.0586,3,-13.6108,29.1138,16.8457,71,1.5568,1.6288,-11.1295,-13.8244,31,0.2921,8262,3.9952,-1.7008
lg,1624656412393963149,0,0.1804,-0.1335,1.074,4,-19.5923,31.7383,19.043,71,1.5558,1.6278,-9.6516,-14.4134,31,0.2921,11141,3.9952,-1.3188
lg,1624656412393982483,0,0.2498,-0.1611,1.0732,5,-19.2871,30.1514,21.6064,71,1.5568,1.6278,-8.4005,-15.0336,32,0.2921,8257,3.9952,-0.8229
lg,1624656412394001149,0,0.2683,-0.1174,1.0569,6,-17.8223,33.4473,22.583,71,1.5568,1.6288,-6.9289,-15.458,32,0.2921,7894,3.9952,-0.3832
lg,1624656412394018723,0,0.2703,-0.0913,1.043,7,-18.3105,45.166,23.6816,71,1.5568,1.6268,-5.2411,-15.8285,32,0.2921,8308,3.9952,-0.0063
lg,1624656412394035538,0,0.2703,-0.0872,1.0281,8,-23.4375,60.5469,25.3296,71,1.5568,1.6288,-3.0167,-16.3616,32,0.2921,8711,3.9952,0.2564
lg,1624656412394052372,0,0.2529,-0.1055,1.0142,9,-28.9307,82.0312,27.2827,71,1.5568,1.6288,-0.0034,-17.1152,32,0.2911,8741,3.9952,0.3342
lg,1624656412394069372,0,0.2432,-0.1572,1.0364,10,-31.189,93.9331,29.48,71,1.5568,1.6278,3.816,-18.0882,32,0.2911,8826,3.9952,0.1296
lg,1624656412394087131,0,0.2092,-0.1572,1.0476,11,-33.3252,116.394,27.5269,71,1.5568,1.6288,7.9757,-19.086,32,0.2901,8352,3.9952,-0.2882
lg,1624656412394104668,0,0.1167,-0.1931,1.0559,12,-34.2407,139.0381,25.2075,71,1.5568,1.6278,12.9744,-20.2684,32,0.2881,8001,3.9952,-1.1782
lg,1624656412394121964,0,0.0374,-0.1936,1.0386,13,-31.9824,153.4424,20.4468,71,1.5578,1.6288,18.39,-21.5399,32,0.2891,8827,3.9952,-2.5685
lg,1624656412394138668,0,-0.0254,-0.1975,1.0308,14,-30.1514,153.8696,21.9727,71,1.5578,1.6278,23.7375,-22.8653,32,0.2881,8813,3.9952,-4.0437
lg,1624656412394155575,0,-0.072,-0.2117,0.9736,15,-25.3906,151.062,19.7144,71,1.5578,1.6278,28.8137,-24.2391,32,0.2881,8868,3.9952,-5.7395
lg,1624656412394172353,0,-0.1062,-0.2053,0.9165,16,-20.9961,145.3247,17.7002,71,1.5578,1.6288,33.5083,-25.6273,32,0.2861,8086,3.9952,-7.5919
lg,1624656412394188686,0,-0.1277,-0.1843,0.8894,17,-19.7144,140.9912,15.564,71,1.5578,1.6278,37.8616,-27.1316,31,0.2861,8891,3.9952,-9.6147
lg,1624656412394205186,0,-0.1423,-0.167,0.9011,18,-19.3481,138.0005,12.5122,71,1.5578,1.6278,41.8921,-28.842,31,0.2841,8170,3.9952,-11.8888
lg,1624656412394222501,0,-0.1919,-0.1572,0.9163,19,-20.5078,131.2866,10.376,71,1.5578,1.6268,45.5605,-30.7826,31,0.2821,8218,3.9952,-14.316
lg,1624656412394238909,0,-0.1936,-0.1953,0.9697,20,-24.7192,121.46,9.7046,71,1.5578,1.6268,48.6643,-33.0616,31,0.2801,8954,3.9952,-16.8077
lg,1624656412394255575,0,-0.177,-0.2876,1.0095,21,-26.7944,106.8726,7.2632,71,1.5578,1.6258,50.9729,-35.6365,32,0.2771,9526,3.9952,-19.371
lg,1624656412394271686,0,-0.1833,-0.3335,1.0337,22,-24.9023,104.7363,6.5308,71,1.5578,1.6258,52.9064,-38.2176,32,0.2751,8737,3.9952,-22.1489
lg,1624656412394288057,0,-0.146,-0.3894,1.0779,23,-16.5405,98.999,8.8501,71,1.5578,1.6238,54.631,-40.691,32,0.2721,9148,3.9952,-24.9483
lg,1624656412394304853,0,-0.0542,-0.4343,1.1606,24,-41.2598,-229.7363,38.5742,127,1.4357,1.5808,46.5663,-32.9917,32,0.2521,13959,3.9578,-13.4258
lg,1624656412394321872,0,-0.1533,-0.9463,0.7666,25,-80.9326,-209.3506,4.3335,127,1.4347,1.5788,38.327,-32.8458,32,0.2531,8647,3.9578,-7.7305
lg,1624656412394338297,0,-0.0244,-0.9688,0.2935,26,-29.1138,-181.7627,-30.0903,127,1.4327,1.5778,30.5925,-33.7186,32,0.2551,8736,3.9578,-5.1975
lg,1624656412394355520,0,-0.1406,-0.9788,0.2961,27,-29.7241,-109.9243,-38.6963,127,1.4307,1.5818,28.0942,-35.3489,32,0.2561,9389,3.9578,-5.4309
lg,1624656412394372464,0,-0.062,-0.7864,0.344,28,22.3389,-16.1743,20.5688,127,1.4287,1.5828,27.2696,-35.2201,32,0.2581,11464,3.9578,-4.8741
lg,1624656412394389112,0,-0.0374,-0.7136,0.425,29,22.8882,-0.3662,21.7285,127,1.4287,1.5848,27.5298,-34.8943,32,0.2591,8876,3.9578,-4.9685
lg,1624656412394406353,0,-0.0071,-0.7952,0.6711,30,20.813,41.1377,19.6533,127,1.4327,1.5868,28.3153,-34.8762,32,0.2601,9135,3.9578,-5.6154
lg,1624656412394422946,0,-0.0437,-0.9324,0.7053,31,15.2588,50.1099,-9.1553,127,1.4397,1.5888,28.7716,-35.8486,32,0.2601,8486,3.9578,-7.6516
lg,1624656412394439575,0,-0.0527,-0.9504,0.7529,32,24.353,49.9268,-43.5791,127,1.4537,1.5888,28.3636,-36.9763,32,0.2581,9857,3.9578,-10.9294
lg,1624656412767650538,0,-0.2678,-0.7612,0.1802,33,51.0254,51.9409,-84.4727,127,1.4907,1.5768,28.0767,-37.0079,32,0.2541,28789,3.9578,-14.0357
lg,1624656412767687131,0,-0.3083,-0.4775,0.2539,34,16.4795,28.1372,24.353,127,1.4917,1.5758,29.6979,-37.239,32,0.2581,12131,3.9578,-14.3756
lg,1624656412767708019,0,-0.5154,-0.8877,0.6492,35,-44.8608,19.165,78.0029,127,1.4867,1.5808,32.061,-38.5069,32,0.2561,8962,3.9578,-12.3944
lg,1624656412767727408,0,-0.6128,-1.0312,0.7024,36,-47.8516,-1.77,101.0132,127,1.4767,1.5858,34.4487,-39.0335,32,0.2571,8004,3.9578,-8.9621
lg,1624656412767746149,0,-0.7334,-0.9365,0.6316,37,-42.8467,-103.3325,112.3047,127,1.4587,1.5878,33.975,-37.258,32,0.2551,8172,3.9578,-1.9734
lg,1624656412767764964,0,-0.4512,-0.6926,0.8372,38,-56.3354,-189.6362,108.3984,127,1.4387,1.5868,29.9621,-34.6287,32,0.2561,9140,3.9578,7.3515
lg,1624656412767783779,0,-0.041,-0.5095,0.1814,39,-14.4653,-265.3809,10.376,127,1.4317,1.5788,20.7094,-33.6806,32,0.2541,8467,3.9578,13.5802
lg,1624656412767802168,0,0.0652,-0.843,0.709,40,-74.4629,-214.1724,10.2539,127,1.4267,1.5778,13.0424,-35.7151,31,0.2531,8030,3.9578,18.8076
lg,1624656412767820223,0,0.0007,-1.0376,0.2246,41,-48.8281,-134.5215,-13.2446,127,1.4237,1.5778,8.0667,-38.667,31,0.2531,8053,3.9578,21.3513
lg,1624656412767838149,0,-0.2024,-0.9919,0.3083,42,-7.2632,-6.6528,7.5073,127,1.4207,1.5798,8.2193,-40.1535,31,0.2531,8072,3.9578,21.577
lg,1624656412767856094,0,-0.0332,-0.9207,0.5115,43,26.001,8.9111,41.3208,127,1.4197,1.5818,9.3175,-39.7624,31,0.2541,8023,3.9578,22.5068
lg,1624656412767873594,0,0.1738,-0.7251,0.77,44,19.9585,42.4805,40.9546,127,1.4187,1.5818,10.9351,-39.0638,32,0.2571,8162,3.9578,22.664
lg,1624656412767891371,0,0.1021,-0.9072,0.6692,45,-0.3662,74.9512,13.4277,127,1.4227,1.5858,12.9574,-39.9642,32,0.2591,8920,3.9578,21.0264
lg,1624656412767908112,0,-0.0298,-1.0027,0.6064,46,7.6904,114.502,-21.7896,127,1.4307,1.5878,15.4157,-41.326,32,0.2601,8078,3.9578,17.0971
lg,1624656412767926149,0,-0.1101,-1.0229,0.603,47,11.1694,130.8594,-38.6353,127,1.4417,1.5888,17.8616,-42.9977,32,0.2581,8164,3.9578,12.0405
lg,1624656412767943408,0,-0.1448,-0.9644,0.6028,48,31.25,128.2349,-60.3027,127,1.4567,1.5888,19.4944,-44.1428,32,0.2591,8214,3.9578,6.2773
lg,1624656412767960964,0,-0.1738,-1.0286,0.4761,49,46.2646,135.8032,-95.8252,127,1.4717,1.5878,20.2419,-45.5114,32,0.2591,8175,3.9578,-0.9635
lg,1624656412768058019,0,-0.311,-1.0532,0.27,50,36.377,125.6104,-109.6802,127,1.4827,1.5838,20.4083,-47.6913,32,0.2551,8202,3.9578,-8.4691
lg,1624656412768079538,0,-0.4033,-0.9224,0.1292,51,47.9736,34.4849,-67.3828,127,1.4877,1.5788,19.5702,-48.0493,32,0.2521,8256,3.9578,-11.9155
lg,1624656412768097834,0,-0.1917,-0.5266,0.144,52,37.5366,23.9258,29.4189,127,1.4907,1.5758,21.1428,-47.5363,32,0.2531,8232,3.9578,-12.175
lg,1624656412768115556,0,-0.1909,-0.51,0.125,53,4.5776,15.686,53.5889,127,1.4907,1.5788,23.0844,-47.5467,32,0.2561,8287,3.9578,-11.3341
lg,1624656412768133890,0,-0.5046,-1.071,0.5479,54,-54.9316,-3.9062,118.5913,127,1.4807,1.5848,26.5169,-48.8194,32,0.2541,9012,3.9578,-7.9696
lg,1624656412768151538,0,-0.5752,-0.9814,0.6147,55,-48.3398,-81.543,147.3389,127,1.4617,1.5878,28.7578,-47.7654,32,0.2541,8959,3.9578,-0.9619
lg,1624656412768169556,0,-0.5105,-0.8274,0.782,56,-53.1006,-134.3384,136.8408,127,1.4367,1.5888,28.8868,-45.6024,32,0.2571,9027,3.9578,7.8069
lg,1624656412768186945,0,0.0393,-0.4919,0.8831,57,-24.7192,-241.9434,40.4663,127,1.4257,1.5828,21.944,-42.1434,32,0.2541,9088,3.9578,16.8289
lg,1624656412768273908,0,-0.1414,-0.7341,0.3247,58,-36.2549,-228.4546,12.5122,138,1.4197,1.5848,15.9415,-43.4579,32,0.2561,9235,3.9259,23.2328
lg,1624656412768299316,0,0.1797,-1.0688,0.5532,59,-54.0161,-195.9229,1.1597,138,1.4187,1.5788,9.4932,-45.1115,32,0.2581,9184,3.9259,28.6812
lg,1624656412768320094,0,-0.0522,-0.9717,0.1726,60,-27.5879,-52.4292,-16.9678,138,1.4157,1.5818,7.3664,-47.3511,32,0.2591,8831,3.9259,29.5294
lg,1624656412768340094,0,0.1064,-0.8994,0.3057,61,23.9868,15.1367,34.2407,138,1.4157,1.5838,8.2633,-47.2397,32,0.2611,8835,3.9259,29.8946
lg,1624656412768357705,0,0.0745,-0.7996,0.5859,62,35.2173,98.4497,30.2124,138,1.4167,1.5858,11.3276,-46.4383,32,0.2611,8872,3.9259,27.7694
lg,1624656412768374686,0,0.0339,-0.8391,0.7698,63,38.8794,124.8169,20.752,138,1.4237,1.5878,14.6588,-45.6589,32,0.2621,9458,3.9259,23.9962
lg,1624656412768471612,0,-0.0483,-0.8779,0.6643,64,33.9355,129.0283,-44.0674,138,1.4357,1.5908,16.4945,-45.9658,32,0.2611,10958,3.9259,18.8029
lg,1624656413151608612,0,-0.2021,-1.1396,0.4058,65,57.1289,169.6777,-125.2441,138,1.4817,1.5848,17.6191,-47.548,31,0.2541,26341,3.9259,9.6844
lg,1624656413151647334,0,-0.4919,-0.511,0.0054,66,81.4819,81.7261,-11.5967,138,1.4887,1.5678,20.6253,-46.3751,31,0.2551,18010,3.9259,6.481
lg,1624656413151668390,0,-0.5095,-0.3914,0.3965,67,43.6401,71.167,38.6963,138,1.4907,1.5708,24.7411,-46.6842,31,0.2561,8244,3.9259,7.1441
lg,1624656413151688223,0,-0.5293,-0.728,0.7537,68,-52.7954,21.6675,88.3789,138,1.4857,1.5778,27.9924,-47.797,31,0.2531,8624,3.9259,9.1523
lg,1624656413151707204,0,-0.6904,-1.0591,0.5525,69,-49.0112,-58.4106,119.2627,138,1.4767,1.5838,30.0558,-47.5632,31,0.2551,8306,3.9259,14.5329
lg,1624656413151725667,0,-0.7439,-0.9971,0.625,70,-50.1709,-144.7754,136.7188,138,1.4497,1.5868,30.1539,-45.3265,32,0.2521,9915,3.9259,23.5443
lg,1624656413151743815,0,-0.5247,-0.7837,0.8,71,-55.603,-223.5718,135.7422,138,1.4247,1.5848,27.2634,-41.9638,32,0.2551,9219,3.9259,35.0672
lg,1624656413151762741,0,0.1235,-0.5266,0.7207,72,-37.0483,-336.9751,56.2744,138,1.4137,1.5798,17.2365,-38.9314,32,0.2531,8681,3.9259,46.396
lg,1624656413151780927,0,0.3042,-1.1694,0.3596,73,-92.3462,-237.4268,65.979,138,1.4087,1.5798,10.7672,-41.257,32,0.2561,14151,3.9259,52.3169
lg,1624656413151798797,0,0.175,-1.1245,0.1284,74,-44.0674,-114.4409,11.4746,138,1.4077,1.5818,7.0686,-43.9855,32,0.2581,8824,3.9259,55.5281
lg,1624656413151817001,0,0.3862,-1.0999,0.4983,75,17.395,-17.9443,42.1143,138,1.4087,1.5838,6.7883,-43.8776,32,0.2601,8809,3.9259,57.1487
lg,1624656413151834964,0,0.4954,-0.8025,0.5483,76,41.687,83.252,33.9966,138,1.4127,1.5858,8.8698,-42.8029,32,0.2611,8434,3.9259,55.7687
lg,1624656413151852556,0,0.0903,-0.8506,0.6079,77,40.0391,146.9727,13.6108,138,1.4217,1.5878,13.7858,-42.7937,32,0.2611,8823,3.9259,50.1847
lg,1624656413151869853,0,-0.0886,-0.8789,0.6125,78,38.4521,216.4917,-20.9351,138,1.4367,1.5918,19.1328,-43.6903,32,0.2631,8873,3.9259,43.2451
lg,1624656413151887612,0,-0.2419,-0.9729,0.6284,79,51.6968,198.0591,-53.2227,138,1.4587,1.5888,21.9847,-44.4626,32,0.2631,11318,3.9259,35.5571
lg,1624656413151905315,0,-0.2961,-0.9851,0.5088,80,57.1899,172.3633,-89.5996,138,1.4747,1.5878,24.0182,-46.0693,32,0.2621,8520,3.9259,27.224
lg,1624656413151923390,0,-0.3748,-0.9868,0.2126,81,47.4243,133.3008,-77.3926,138,1.4787,1.5858,25.3258,-48.1658,32,0.2581,8907,3.9259,20.1026
lg,1624656413151940686,0,-0.4651,-0.7327,0.0972,82,27.1606,79.4067,-20.3247,138,1.4827,1.5888,27.1851,-49.73,32,0.2641,8934,3.9259,16.3088
lg,1624656413151958908,0,-0.6289,-0.74,0.3455,83,-38.5742,62.9883,67.0776,138,1.4807,1.5928,31.2652,-51.9486,32,0.2651,8597,3.9259,15.7463
lg,1624656413151977464,0,-0.7441,-0.7463,0.4153,84,-46.936,33.6304,98.5718,138,1.4677,1.5958,35.5211,-53.1468,32,0.2651,9018,3.9259,17.2154
lg,1624656413151995353,0,-0.8167,-0.8188,0.5225,85,-42.6636,-29.6021,140.1978,138,1.4457,1.5958,39.41,-51.6454,32,0.2621,8301,3.9259,22.6136
lg,1624656413152012501,0,-0.5042,-0.7424,1.3384,86,-53.772,-139.4653,115.9058,138,1.4257,1.5888,38.5654,-46.8464,32,0.2601,9061,3.9259,32.6067
lg,1624656413152030741,0,-0.2588,-0.5996,0.3162,87,-24.5972,-255.0659,10.0098,138,1.4167,1.5848,31.0687,-43.2891,32,0.2581,8415,3.9259,41.3111
lg,1624656413152048427,0,-0.1365,-1.01,0.907,88,-92.5903,-227.417,1.6479,138,1.4137,1.5828,24.194,-44.5458,32,0.2571,8764,3.9259,47.2488
lg,1624656413152065649,0,-0.1694,-1.0769,0.2229,89,-60.6689,-179.3823,-6.5308,138,1.4097,1.5828,18.5477,-46.3583,31,0.2571,9161,3.9259,52.0061
lg,1624656413152083760,0,0.2529,-1.1003,0.4631,90,-1.5259,-115.7227,43.7622,138,1.4097,1.5838,15.509,-45.8388,31,0.2591,9149,3.9259,56.4972
lg,1624656413152101741,0,0.5789,-0.8865,0.5513,91,32.1045,-10.498,45.6543,138,1.4097,1.5858,14.9297,-44.5612,31,0.2611,8463,3.9259,57.9994
lg,1624656413152119908,0,0.3186,-0.8545,0.5476,92,27.6489,139.2212,7.6904,138,1.4117,1.5878,17.8679,-45.0393,32,0.2641,9161,3.9259,54.0024
lg,1624656413152137353,0,0.0933,-0.8989,0.5876,93,28.4424,190.6128,-9.3994,138,1.4207,1.5908,22.6141,-46.9017,32,0.2651,8827,3.9259,46.4902
lg,1624656413152154723,0,-0.2126,-0.9661,0.5625,94,32.2876,220.1538,-40.7715,138,1.4337,1.5928,26.764,-49.6734,32,0.2661,9244,3.9259,37.8622
lg,1624656413152172278,0,-0.3633,-0.9551,0.4915,95,33.02,198.1201,-65.1245,138,1.4487,1.5938,29.3358,-53.0646,32,0.2641,9242,3.9259,28.7664
lg,1624656413152190001,0,-0.2654,-0.9595,0.5076,96,67.627,172.4243,-68.1152,138,1.4637,1.5918,30.5511,-54.8922,32,0.2621,8940,3.9259,20.2943
lg,1624656413513745315,0,-0.2827,-0.5598,0.1265,97,55.603,83.0078,2.3193,138,1.4837,1.5688,32.4078,-55.2046,32,0.2551,26012,3.9259,16.6964
lg,1624656413513793186,0,-0.3767,-0.5542,0.3215,98,-10.3149,101.1353,62.8052,138,1.4847,1.5698,37.0608,-57.9297,31,0.2571,14097,3.9259,14.4603
lg,1624656413513814463,0,-0.7483,-1.0239,0.6472,99,-50.7202,93.8721,93.2617,138,1.4787,1.5758,41.9242,-61.0302,31,0.2541,7935,3.9259,12.7201
lg,1624656413513834389,0,-0.9573,-1.0183,0.5305,100,-44.4336,-44.9829,127.9907,138,1.4677,1.5808,45.3582,-58.9015,31,0.2531,8114,3.9259,18.3756
lg,1624656413513853741,0,-0.991,-0.8821,0.5718,101,-37.7197,-95.6421,136.2915,138,1.4477,1.5838,47.0306,-52.12,31,0.2531,7970,3.9259,29.631
lg,1624656413513872667,0,-0.9412,-0.6895,0.7393,102,-56.0913,-186.3403,141.0522,138,1.4237,1.5838,46.1238,-44.0814,32,0.2541,7980,3.9259,43.5007
lg,1624656413513890871,0,-0.3511,-0.4231,0.5354,103,-33.3252,-355.5298,60.1807,138,1.4097,1.5868,36.0912,-35.6012,32,0.2541,9301,3.9259,58.1585
lg,1624656413513908963,0,0.1531,-1.1423,1.1414,104,-116.2109,-343.8721,50.5371,138,1.4087,1.5768,24.6394,-35.0337,32,0.2551,8602,3.9259,68.9731
lg,1624656413513926963,0,0.2722,-1.106,0.5701,105,-79.7729,-346.9238,10.1929,138,1.4087,1.5778,14.0682,-37.3876,32,0.2581,8063,3.9259,74.1918
lg,1624656413513946278,0,0.1841,-1.0251,0.0442,106,-57.4341,-161.6821,-35.6445,138,1.4077,1.5768,7.4317,-40.838,32,0.2591,8803,3.9259,76.8193
lg,1624656413513964889,0,0.2253,-1.0342,0.25,107,17.5781,-19.9585,8.3008,138,1.4077,1.5818,6.348,-41.3346,32,0.2601,8477,3.9259,77.4333
lg,1624656413513984963,0,0.0947,-0.8267,0.46,108,54.1992,96.0083,11.2915,138,1.4097,1.5838,9.0739,-40.2207,32,0.2591,8077,3.9259,75.1514
lg,1624656413514003630,0,-0.0137,-0.7761,0.5686,109,59.5093,131.1035,2.3804,138,1.4177,1.5868,12.8338,-39.0123,32,0.2611,8438,3.9259,71.7251
lg,1624656413514022371,0,-0.2292,-0.8159,0.6255,110,47.6685,156.4941,-16.9678,138,1.4267,1.5898,17.2492,-38.837,32,0.2601,8846,3.9259,66.9828
lg,1624656413514041871,0,-0.3762,-0.9204,0.7119,111,40.3442,125.9155,-38.8794,138,1.4427,1.5908,20.1996,-39.2339,32,0.2631,8119,3.9259,62.1978
lg,1624656413514060612,0,-0.3074,-0.926,0.6348,112,54.3823,94.8486,-40.4053,138,1.4557,1.5898,21.8951,-39.3215,32,0.2621,8147,3.9259,57.9832
lg,1624656413514079575,0,-0.2065,-0.895,0.4854,113,44.4946,64.0259,-60.3638,138,1.4647,1.5898,21.9642,-39.8517,32,0.2621,8635,3.9259,53.8798
lg,1624656413514098871,0,-0.2188,-0.8794,0.3796,114,36.2549,62.9272,-56.9458,138,1.4717,1.5878,22.12,-40.8356,32,0.2591,8586,3.9259,49.8467
lg,1624656413514117445,0,-0.2432,-0.8281,0.395,115,25.8179,68.2373,-18.9209,138,1.4777,1.5868,23.4334,-41.7474,32,0.2621,9777,3.9259,46.9137
lg,1624656413514135945,0,-0.4524,-0.7627,0.4175,116,0.5493,61.3403,15.0757,138,1.4797,1.5888,25.8372,-43.0122,32,0.2651,8615,3.9259,45.2825
lg,1624656413514153760,0,-0.6689,-0.9412,0.6582,117,-38.5742,16.7847,77.8198,138,1.4707,1.5918,28.6446,-44.0748,32,0.2601,8575,3.9259,47.0946
lg,1624656413514171260,0,-0.7771,-0.897,0.5269,118,-61.0962,-85.3271,106.7505,138,1.4537,1.5958,29.5169,-44.0245,32,0.2591,13761,3.9259,53.0586
lg,1624656413514189704,0,-0.5654,-0.7268,0.8628,119,-56.1523,-171.6309,105.2856,138,1.4347,1.5938,27.2738,-41.8975,32,0.2591,8298,3.9259,61.9622
lg,1624656413514208389,0,-0.092,-0.5051,0.2812,120,-1.5869,-289.1846,5.4932,138,1.4257,1.5868,18.0682,-39.5299,32,0.2581,8337,3.9259,69.9322
lg,1624656413514226186,0,0.1133,-0.7473,0.8276,121,-72.7539,-276.4893,-11.5356,138,1.4217,1.5858,8.4709,-40.9234,32,0.2581,8563,3.9259,76.8734
lg,1624656413514244575,0,0.1499,-1.0476,0.2798,122,-70.6177,-202.8198,-49.6826,138,1.4197,1.5868,0.6257,-44.6665,32,0.2621,8428,3.9259,80.7732
lg,1624656413514262482,0,-0.0676,-1.126,0.0049,123,-32.7759,-69.8242,-33.9966,138,1.4187,1.5888,-2.1586,-47.5802,32,0.2631,9078,3.9259,81.8299
lg,1624656413514279908,0,0.0947,-0.9727,0.3772,124,42.7246,31.9214,33.3252,138,1.4187,1.5898,-0.4449,-46.6836,31,0.2651,8470,3.9259,81.8258
lg,1624656413514297482,0,0.113,-0.8582,0.5845,125,58.96,82.4585,34.0576,138,1.4227,1.5928,2.5899,-44.702,31,0.2651,8432,3.9259,80.4078
lg,1624656413514314000,0,0.0896,-0.7278,0.679,126,50.8423,104.4922,8.667,138,1.4287,1.5938,5.5218,-42.941,31,0.2651,8427,3.9259,77.7422
lg,1624656413514330815,0,-0.0317,-0.8555,0.5923,127,24.5972,111.2671,-37.9639,138,1.4417,1.5958,7.5832,-42.9149,31,0.2661,8525,3.9259,73.5221
lg,1624656413514357204,0,-0.1567,-1.0247,0.6411,128,21.8506,121.2158,-53.6499,138,1.4557,1.5958,9.4611,-43.1155,32,0.2651,8529,3.9259,68.323
lg,1624656413887612815,0,-0.1736,-0.9275,0.2625,129,52.9175,116.2109,-89.7827,138,1.4787,1.5698,10.6675,-42.9663,32,0.2561,26694,3.9259,63.238
lg,1624656413887653148,0,-0.2585,-0.521,0.3384,130,37.2314,127.5635,6.4697,138,1.4827,1.5578,15.0382,-42.7404,32,0.2561,11776,3.9259,59.7732
lg,1624656413887673371,0,-0.4421,-0.6414,0.5464,131,-20.1416,113.9526,46.2036,138,1.4837,1.5608,20.0863,-44.3568,32,0.2581,7866,3.9259,57.8049
lg,1624656413887692334,0,-0.7485,-1.0212,0.6045,132,-54.8706,57.312,83.5571,138,1.4807,1.5688,24.5522,-46.7883,32,0.2581,8772,3.9259,58.3597
lg,1624656413887710852,0,-0.8345,-1.0022,0.5183,133,-57.8613,-2.1973,102.7832,138,1.4727,1.5768,28.0077,-48.2395,31,0.2571,7937,3.9259,61.2851
lg,1624656413887729093,0,-0.8943,-0.9246,0.6108,134,-60.5469,-96.9238,148.3154,138,1.4557,1.5828,30.2285,-47.1058,31,0.2551,8327,3.9259,69.0033
lg,1624656413887746482,0,-0.6658,-0.7397,0.8279,135,-67.3218,-189.8804,161.438,138,1.4347,1.5838,29.5649,-43.85,31,0.2581,8213,3.9259,80.5729
lg,1624656413887764611,0,-0.0669,-0.4351,1.5562,136,-57.7393,-261.7798,124.5117,138,1.4227,1.5788,21.6757,-41.2766,31,0.2571,7954,3.9259,91.302
lg,1624656413887782260,0,-0.0532,-0.8047,0.6506,137,-95.7031,-295.0439,51.5747,138,1.4187,1.5778,13.6039,-42.4921,32,0.2591,8442,3.9259,101.0097
lg,1624656413887799408,0,0.2937,-1.0857,0.4189,138,-73.2422,-276.2451,3.9673,138,1.4197,1.5798,4.7903,-45.1326,32,0.2611,8878,3.9259,108.6426
lg,1624656413887817241,0,0.1504,-1.1272,0.1907,139,-50.5981,-96.6187,-21.1792,138,1.4167,1.5828,1.0888,-48.3148,32,0.2621,12457,3.9259,110.7867
lg,1624656413887834982,0,0.2429,-1.0151,0.3337,140,16.9067,2.9907,20.9961,138,1.4167,1.5838,1.2529,-48.5043,32,0.2641,8781,3.9259,111.2358
lg,1624656413887852648,0,0.1382,-0.7556,0.3796,141,35.2173,91.9189,17.0288,138,1.4177,1.5868,3.7844,-47.7622,32,0.2671,10405,3.9259,108.9274
lg,1624656413887870260,0,-0.0618,-0.8015,0.5417,142,30.2734,146.0571,6.3477,138,1.4227,1.5888,7.8859,-47.2897,32,0.2661,8796,3.9259,104.7414
lg,1624656413887887389,0,-0.2595,-0.8867,0.5212,143,22.4609,129.2725,-16.9678,138,1.4317,1.5898,11.1151,-47.5718,32,0.2671,8832,3.9259,100.3464
lg,1624656413887904222,0,-0.2803,-0.9236,0.5554,144,31.8604,93.811,-25.0244,138,1.4447,1.5898,13.0385,-47.4717,32,0.2691,9709,3.9259,96.7376
lg,1624656413887921185,0,-0.1716,-0.9395,0.6401,145,45.8374,79.1626,-27.5269,138,1.4527,1.5878,14.2016,-46.7079,32,0.2681,8549,3.9259,93.5025
lg,1624656413887937741,0,-0.166,-0.9609,0.4495,146,50.9644,77.6367,-55.2368,138,1.4637,1.5848,14.5375,-46.3567,32,0.2691,8922,3.9259,89.4287
lg,1624656413887954463,0,-0.3489,-0.8911,0.2664,147,39.0625,59.6313,-43.8232,138,1.4707,1.5818,15.1931,-46.5666,32,0.2691,8557,3.9259,86.1398
lg,1624656413887970556,0,-0.4021,-0.676,0.3013,148,28.0762,37.4756,22.8882,138,1.4737,1.5808,17.431,-46.2593,32,0.2721,8936,3.9259,85.4847
lg,1624656413887987389,0,-0.3965,-0.6797,0.5906,149,-1.6479,20.813,51.4526,138,1.4727,1.5838,19.7335,-46.1413,32,0.2721,8231,3.9259,86.3207
lg,1624656413888007334,0,-0.5295,-0.9299,0.6277,150,-41.626,-29.48,94.4214,138,1.4607,1.5888,21.8856,-46.8512,32,0.2671,9894,3.9259,89.8865
lg,1624656413888025611,0,-0.5249,-0.9011,0.5894,151,-50.1709,-103.3325,107.9712,138,1.4427,1.5928,22.3896,-46.7903,32,0.2651,10511,3.9259,96.1889
lg,1624656413888043500,0,-0.0459,-0.7651,1.303,152,-49.3164,-146.3623,93.1396,138,1.4267,1.5908,20.2664,-45.4061,32,0.2641,9050,3.9259,103.744
lg,1624656413888060519,0,-0.0393,-0.7463,0.2732,153,-26.9165,-186.5234,4.0894,138,1.4187,1.5848,14.584,-45.7441,32,0.2641,9121,3.9259,109.1132
lg,1624656413888077871,0,0.1235,-0.9619,0.408,154,-38.6963,-117.8589,-5.4321,138,1.4167,1.5838,10.4135,-47.3851,32,0.2661,9105,3.9259,112.2718
lg,1624656413888095445,0,-0.2751,-0.9756,0.231,155,-24.6582,26.6724,-28.9307,138,1.4147,1.5858,10.4879,-49.7398,32,0.2671,9160,3.9259,110.479
lg,1624656413888112241,0,-0.366,-0.96,0.2056,156,5.249,54.9316,3.1128,138,1.4137,1.5868,12.8743,-49.3209,32,0.2681,8871,3.9259,109.9847
lg,1624656413888129204,0,-0.0654,-0.8472,0.6453,157,36.1938,40.1611,45.5322,138,1.4187,1.5888,14.9228,-48.0046,32,0.2691,9193,3.9259,109.9412
lg,1624656413888145871,0,0.0908,-0.8032,0.6399,158,25.8789,56.9458,21.3623,138,1.4267,1.5918,16.2994,-47.414,32,0.2701,9193,3.9259,108.7428
lg,1624656413888162963,0,-0.0156,-0.9294,0.5483,159,9.6436,90.4541,-12.6343,138,1.4377,1.5928,17.7366,-48.4396,32,0.2711,8860,3.9259,105.4414
lg,1624656413888193111,0,-0.1406,-1.0225,0.6582,160,18.5547,113.1592,-38.4521,138,1.4507,1.5948,19.0929,-49.5245,32,0.2711,9288,3.9259,100.6692
lg,1624656414247775111,0,-0.322,-0.8486,0.0886,161,60.6689,93.0786,-67.3828,138,1.4707,1.5898,19.7196,-49.5667,32,0.2731,25993,3.9259,96.6296
lg,1624656414247812482,0,-0.4824,-0.7021,0.2944,162,10.6812,86.2427,36.1938,138,1.4697,1.5928,23.548,-50.4378,32,0.2711,10114,3.9259,94.5655
lg,1624656414247832741,0,-0.7935,-0.8984,0.6746,163,-45.7153,76.6602,116.8823,138,1.4607,1.5968,29.5395,-52.0809,32,0.2681,7942,3.9259,95.1036
lg,1624656414247852389,0,-0.9209,-0.8398,0.5244,164,-39.7949,-65.3687,130.0049,138,1.4427,1.5978,32.4984,-50.6646,32,0.2671,7935,3.9259,101.1833
lg,1624656414247871074,0,-0.738,-0.6741,0.8506,165,-34.729,-129.5776,120.9106,138,1.4267,1.5948,32.8267,-47.0086,32,0.2681,7978,3.9259,109.8685
lg,1624656414247889519,0,-0.2703,-0.4255,0.2898,166,-5.249,-242.8589,40.8936,138,1.4147,1.5898,26.9706,-42.946,32,0.2661,8158,3.9259,118.9335
lg,1624656414247907778,0,0.0835,-0.9719,0.6086,167,-88.2568,-257.2021,22.1558,138,1.4087,1.5878,19.0174,-43.8202,32,0.2661,10216,3.9259,127.0173
lg,1624656414247926222,0,-0.0127,-1.2305,0.3679,168,-61.2793,-114.9292,-0.6104,84,1.4087,1.5878,15.1386,-46.4125,32,0.2661,8005,3.9776,130.0443
lg,1624656414247943519,0,-0.009,-1.22,0.3931,169,-19.043,-55.542,14.2212,84,1.4087,1.5888,13.5259,-47.6631,32,0.2671,8000,3.9776,131.8649
lg,1624656414247961037,0,0.2495,-0.9009,0.5642,170,32.959,17.2119,43.0908,84,1.4077,1.5898,14.2376,-46.5816,32,0.2691,8105,3.9776,132.443
lg,1624656414247978944,0,0.0903,-0.7488,0.5764,171,21.8506,102.1729,18.3105,84,1.4087,1.5918,16.7936,-46.6227,32,0.2701,8086,3.9776,129.8171
lg,1624656414247996630,0,-0.0273,-0.8228,0.5928,172,13.3667,116.4551,11.9019,84,1.4137,1.5928,19.7008,-47.4109,31,0.2711,8103,3.9776,126.4758
lg,1624656414248013833,0,-0.1892,-0.9661,0.5969,173,12.3901,127.1973,-15.8691,84,1.4237,1.5958,22.2001,-48.9722,31,0.2711,8308,3.9776,121.8093
lg,1624656414248030648,0,-0.2344,-0.9697,0.4939,174,18.0664,114.3799,-30.0903,84,1.4347,1.5958,23.8342,-50.6407,31,0.2721,8116,3.9776,116.9485
lg,1624656414248049444,0,-0.1865,-0.9539,0.5564,175,26.1841,109.9854,-34.3628,84,1.4457,1.5958,24.9402,-51.9196,31,0.2721,8110,3.9776,112.0817
lg,1624656414248067352,0,-0.1057,-0.9927,0.5513,176,47.3633,116.8823,-68.4814,84,1.4577,1.5928,24.8455,-52.9051,32,0.2711,8108,3.9776,105.998
lg,1624656414248084389,0,-0.2273,-0.9622,0.157,177,40.6494,103.5156,-88.2568,84,1.4687,1.5888,24.0521,-54.8745,32,0.2691,8142,3.9776,99.571
lg,1624656414248101352,0,-0.2578,-0.8938,0.0906,178,51.8799,79.5288,-73.1812,84,1.4757,1.5848,23.2286,-55.8389,32,0.2671,8168,3.9776,94.4256
lg,1624656414248118778,0,-0.2346,-0.677,0.2119,179,63.9038,93.0786,9.7046,84,1.4797,1.5818,25.473,-55.2519,32,0.2671,8224,3.9776,91.0207
lg,1624656414248135685,0,-0.4619,-0.7173,0.457,180,-7.9956,104.6143,64.0869,84,1.4797,1.5838,30.0253,-56.7185,32,0.2671,8217,3.9776,88.6721
lg,1624656414248152685,0,-0.6804,-0.9434,0.772,181,-40.5273,90.6982,86.6699,84,1.4747,1.5878,35.0822,-59.2022,32,0.2591,8308,3.9776,87.1437
lg,1624656414248169278,0,-0.9641,-1.0103,0.5425,182,-50.5371,-17.6392,129.9438,84,1.4577,1.5918,39.3523,-58.7994,32,0.2581,8273,3.9776,91.2037
lg,1624656414248186074,0,-0.97,-0.6248,0.5491,183,-32.5317,-130.249,121.521,84,1.4307,1.5928,40.9201,-53.7764,32,0.2561,8445,3.9776,100.6601
lg,1624656414248203148,0,-0.302,-0.4033,1.5403,184,-48.4009,-240.6006,93.1396,84,1.4057,1.5888,36.7485,-46.0605,32,0.2571,11239,3.9776,114.3242
lg,1624656414248219630,0,0.0173,-0.9114,0.9192,185,-102.478,-333.8013,38.6963,84,1.4007,1.5868,27.0635,-43.5577,32,0.2591,9135,3.9776,126.6659
lg,1624656414248236130,0,0.3765,-1.198,0.5181,186,-73.8525,-284.9731,-9.4604,84,1.4007,1.5858,17.1779,-44.3006,32,0.2601,8368,3.9776,134.4769
lg,1624656414248253278,0,0.334,-1.1086,0.1602,187,-42.2363,-81.7871,-29.9683,84,1.3997,1.5868,12.9018,-46.9225,32,0.2631,10387,3.9776,135.6547
lg,1624656414248269833,0,0.1721,-1.0005,0.187,188,24.9023,72.1436,2.0142,84,1.4007,1.5878,14.1111,-47.6536,32,0.2641,9370,3.9776,133.2517
lg,1624656414248286241,0,-0.1287,-0.8025,0.4199,189,49.3164,192.4438,3.9062,84,1.4037,1.5898,19.1373,-47.9463,32,0.2671,10226,3.9776,127.261
lg,1624656414248303167,0,-0.271,-0.7451,0.4724,190,51.7578,199.3408,4.8828,84,1.4117,1.5918,24.4743,-48.5956,32,0.2671,8643,3.9776,120.8598
lg,1624656414248333037,0,-0.4458,-0.7781,0.5498,191,37.0483,170.4102,-4.3945,84,1.4207,1.5938,28.7722,-50.0017,31,0.2671,8474,3.9776,114.8426
lg,1624656414248350685,0,-0.4583,-0.8792,0.6414,192,24.6582,97.9614,-24.5361,84,1.4387,1.5958,30.2412,-51.2361,31,0.2671,8523,3.9776,110.5681
lg,1624656414625596722,0,-0.1353,-1.021,0.2344,193,29.541,-15.3198,-59.7534,84,1.4697,1.5938,27.4206,-51.9723,32,0.2701,26795,3.9776,108.7403
lg,1624656414625696555,0,-0.1736,-0.7539,0.2744,194,25.6958,-33.8745,-7.019,84,1.4697,1.5958,27.7787,-51.9385,32,0.2721,9381,3.9776,110.0637
lg,1624656414625732241,0,-0.2192,-0.7517,0.4995,195,-21.5454,0.6714,76.0498,84,1.4627,1.5988,29.6285,-51.9637,32,0.2691,8586,3.9776,112.0837
lg,1624656414625763592,0,-0.4651,-0.8286,0.5591,196,-46.6919,-3.6011,101.3184,84,1.4477,1.5998,32.5451,-52.4113,32,0.2661,8145,3.9776,115.0317
lg,1624656414625791370,0,-0.4243,-0.8616,1.1475,197,-54.6265,-20.6299,99.9146,84,1.4287,1.5988,33.7261,-51.0961,32,0.2681,7857,3.9776,120.0685
lg,1624656414625820981,0,-0.2146,-0.5906,1.0166,198,7.4463,-94.6045,45.6543,84,1.4167,1.5918,32.4276,-48.3718,32,0.2661,9278,3.9776,124.7988
lg,1624656414625848426,0,-0.2498,-0.8237,1.1487,199,-55.3589,-112.6099,-17.2119,84,1.4107,1.5868,28.1036,-48.2974,32,0.2651,8970,3.9776,128.4903
lg,1624656414625879148,0,-0.4153,-0.8923,0.2891,200,-49.6216,-127.8076,-43.6401,84,1.4087,1.5888,23.3706,-49.8799,32,0.2651,7982,3.9776,131.0896
lg,1624656414625905463,0,-0.3591,-1.0317,0.3325,201,-16.9678,-80.2002,-0.6714,84,1.4067,1.5898,21.1669,-50.4254,32,0.2671,8681,3.9776,133.3913
lg,1624656414625932926,0,-0.1719,-0.9949,0.3281,202,6.0425,-71.106,31.4941,84,1.4057,1.5908,19.9097,-49.9226,32,0.2681,8710,3.9776,136.273
lg,1624656414625973629,0,0.1074,-0.8032,0.5181,203,17.1509,-25.4517,38.3911,84,1.4067,1.5928,19.4137,-48.899,32,0.2691,8821,3.9776,138.0423
lg,1624656414626002278,0,0.115,-0.8367,0.634,204,9.9487,52.6123,27.5269,84,1.4127,1.5948,20.6299,-48.9714,31,0.2701,10360,3.9776,137.0633
lg,1624656414626032241,0,-0.114,-1.0103,0.5681,205,10.437,82.5806,-12.6343,84,1.4257,1.5968,21.7959,-50.1366,31,0.2721,13193,3.9776,133.844
lg,1624656414626063278,0,-0.1594,-0.9897,0.5505,206,15.1367,83.0078,-16.1743,84,1.4387,1.5978,22.6765,-50.8032,31,0.2711,8842,3.9776,130.4613
lg,1624656414626135926,0,-0.1023,-0.9453,0.6309,207,35.6445,77.0874,-24.4751,84,1.4507,1.5968,23.1664,-50.8776,32,0.2731,8452,3.9776,127.1021
lg,1624656414626170241,0,-0.05,-1.0129,0.592,208,45.2881,85.7544,-59.8755,84,1.4627,1.5938,22.65,-51.2017,32,0.2701,8108,3.9776,122.426
lg,1624656414626197481,0,-0.1885,-1.0571,0.301,209,38.0249,91.2476,-79.2236,84,1.4707,1.5868,21.4208,-52.6339,32,0.2661,8284,3.9776,117.1331
lg,1624656414626224352,0,-0.2524,-1.0056,0.2241,210,44.5557,54.9927,-69.3359,84,1.4767,1.5768,21.356,-52.1828,32,0.2641,9863,3.9776,114.7033
lg,1624656414626446963,0,-0.1687,-0.6396,0.0574,211,55.0537,31.6162,23.8647,84,1.4787,1.5718,22.7429,-51.4195,31,0.2631,8931,3.9776,113.7958
lg,1624656414626513370,0,-0.3252,-0.6924,0.6169,212,-30.7007,54.3213,79.5288,84,1.4767,1.5768,26.4321,-52.3866,31,0.2581,8927,3.9776,114.1176
lg,1624656414626540981,0,-0.6838,-0.9614,0.5686,213,-56.6406,13.9771,129.9438,84,1.4687,1.5828,31.0989,-53.4243,31,0.2561,8950,3.9776,117.0523
lg,1624656414626590185,0,-0.7727,-0.7502,0.4597,214,-34.3628,-95.3369,118.9575,84,1.4507,1.5868,32.9463,-51.2394,31,0.2551,8630,3.9776,123.9641
lg,1624656414626619815,0,-0.8154,-0.7004,0.6338,215,-38.0249,-124.6948,111.084,84,1.4207,1.5878,32.97,-47.8509,32,0.2581,9026,3.9776,132.2323
lg,1624656414626649759,0,-0.0449,-0.5808,1.4299,216,-58.96,-249.3286,98.3887,84,1.4047,1.5878,27.7697,-43.2893,32,0.2551,9047,3.9776,144.2466
lg,1624656414626677185,0,0.1445,-1.0925,0.937,217,-90.5762,-284.4238,33.5693,84,1.3967,1.5858,19.225,-43.3373,32,0.2561,8758,3.9776,153.6775
lg,1624656414626705944,0,0.5349,-1.1584,0.5188,218,-41.5039,-233.8257,-6.4087,84,1.3957,1.5848,10.8644,-44.1171,32,0.2571,8750,3.9776,159.9079
lg,1624656414626733518,0,0.2563,-1.0034,0.1584,219,-29.6021,-129.8218,-32.5928,84,1.3947,1.5868,8.3737,-45.9758,32,0.2591,8773,3.9776,159.1891
lg,1624656414626895778,0,0.0771,-0.9143,0.0115,220,14.2822,57.4951,-25.0854,84,1.3947,1.5878,9.0099,-47.1619,32,0.2611,9130,3.9776,156.5968
lg,1624656414626965315,0,-0.1858,-0.7539,0.2212,221,42.2363,163.4521,-3.1128,84,1.3967,1.5878,13.5254,-47.4452,32,0.2621,9121,3.9776,151.4496
lg,1624656414626996555,0,-0.4128,-0.7253,0.4973,222,49.1943,188.2935,15.1367,84,1.4047,1.5918,19.4923,-47.2985,32,0.2631,10019,3.9776,146.0256
lg,1624656414627027407,0,-0.4636,-0.7915,0.6658,223,39.5508,123.8403,10.0098,84,1.4167,1.5938,23.3053,-47.1273,32,0.2631,9191,3.9776,142.3744
lg,1624656414627055537,0,-0.3267,-0.8643,0.6802,224,28.9307,47.7295,-3.54,84,1.4327,1.5948,24.2262,-46.8133,32,0.2651,9249,3.9776,140.6657
lg,1624656414994498259,0,0.0398,-1.0806,0.4788,225,38.9404,47.6685,-104.4922,84,1.4747,1.5868,21.9105,-48.3841,32,0.2641,27345,3.9776,134.6811
lg,1624656414994545129,0,-0.2014,-0.8477,0.1072,226,75.9888,81.0547,-55.7251,84,1.4777,1.5798,22.1867,-48.2745,32,0.2631,11010,3.9776,129.964
lg,1624656414994566555,0,-0.3074,-0.4246,0.2847,227,75.0122,96.0083,-12.5122,84,1.4787,1.5788,26.5618,-48.6178,32,0.2641,7868,3.9776,126.3896
lg,1624656414994586870,0,-0.4822,-0.5959,0.5684,228,-15.8081,133.1177,49.3774,84,1.4777,1.5828,31.6261,-50.6982,32,0.2591,7905,3.9776,123.235
lg,1624656414994606500,0,-0.8513,-0.9011,0.6709,229,-44.4946,61.4624,79.7119,84,1.4717,1.5878,35.8416,-52.5261,32,0.2571,9104,3.9776,123.234
lg,1624656414994664018,0,-0.9949,-0.9194,0.5913,230,-39.2456,-65.7959,101.4404,84,1.4537,1.5908,37.6509,-50.8172,32,0.2541,8371,3.9776,128.8638
lg,1624656414994690111,0,-0.8943,-0.7549,0.6294,231,-41.687,-179.8706,103.8208,84,1.4287,1.5928,36.2123,-46.3035,32,0.2531,8893,3.9776,139.0937
lg,1624656414994710574,0,-0.156,-0.426,0.75,232,-56.1523,-245.4834,104.0039,84,1.4177,1.5888,27.7353,-40.3597,32,0.2531,8744,3.9776,152.0017
lg,1624656414994729037,0,-0.1704,-0.7002,0.1345,233,-51.6968,-346.7407,32.5317,84,1.4117,1.5858,17.6982,-39.7551,32,0.2521,7973,3.9776,162.019
lg,1624656414994748222,0,0.4163,-1.1516,0.6118,234,-74.4629,-289.917,32.1045,84,1.4107,1.5868,8.5267,-41.5627,32,0.2531,8364,3.9776,170.5108
lg,1624656414994775777,0,0.3357,-1.1355,0.2029,235,-45.4102,-112.2437,-9.7046,84,1.4107,1.5878,4.1086,-44.3999,32,0.2551,8812,3.9776,-186.8725
lg,1624656414994795907,0,0.2942,-1.1299,0.3281,236,-8.606,-26.8555,9.2163,84,1.4097,1.5878,2.7508,-45.5369,32,0.2571,8828,3.9776,-185.9048
lg,1624656414994815629,0,0.3857,-0.8679,0.4902,237,42.5415,71.106,42.7246,84,1.4127,1.5908,5.0402,-44.435,32,0.2591,8829,3.9776,-186.7534
lg,1624656414994833351,0,0.2234,-0.804,0.6199,238,37.5977,140.5029,12.8784,84,1.4207,1.5938,8.7331,-43.6609,32,0.2601,9117,3.9776,169.6436
lg,1624656414994851444,0,-0.0771,-0.918,0.5193,239,24.0479,176.4526,-12.085,84,1.4297,1.5948,13.2732,-44.3823,32,0.2611,10613,3.9776,164.1886
lg,1624656414994872740,0,-0.2581,-1.0229,0.5659,240,29.9072,176.5137,-35.2173,84,1.4427,1.5958,17.2312,-45.4712,32,0.2601,8509,3.9776,157.8346
lg,1624656414994890851,0,-0.2405,-0.9834,0.6223,241,41.687,156.0059,-39.5508,84,1.4517,1.5958,20.1229,-46.2273,32,0.2611,8173,3.9776,151.7833
lg,1624656414994909240,0,-0.1416,-0.8638,0.4717,242,60.5469,132.5684,-52.3071,84,1.4587,1.5948,21.8006,-46.4542,32,0.2621,8612,3.9776,145.911
lg,1624656414994927833,0,-0.4028,-0.7971,0.155,243,38.269,124.2676,-63.3545,84,1.4617,1.5938,23.5668,-48.3564,32,0.2641,8931,3.9776,139.6384
lg,1624656414994945611,0,-0.657,-0.8035,0.426,244,-14.4653,107.666,25.6348,84,1.4637,1.5958,27.6136,-50.6624,32,0.2651,8228,3.9776,136.5336
lg,1624656414994988500,0,-0.6736,-0.8123,0.6038,245,-23.2544,79.2236,69.8853,84,1.4607,1.5988,31.174,-50.8557,32,0.2621,8966,3.9776,137.8818
lg,1624656414995009407,0,-0.7334,-0.7639,0.5903,246,-25.6348,-21.1182,74.8901,84,1.4537,1.5998,33.1832,-50.3068,32,0.2621,9021,3.9776,140.8776
lg,1624656414995027277,0,-0.8738,-0.8496,0.6133,247,-47.3633,-106.1401,77.6367,84,1.4427,1.6008,33.0713,-48.8898,32,0.2651,9044,3.9776,147.0822
lg,1624656414995046944,0,-0.2991,-0.6277,0.4863,248,-0.5493,-231.3843,53.3447,84,1.4367,1.5998,27.8154,-44.2397,32,0.2641,9064,3.9776,156.4869
lg,1624656414995065314,0,-0.0264,-0.8672,0.7595,249,-72.0825,-253.9062,25.6348,84,1.4307,1.5968,20.2683,-43.8265,31,0.2651,9281,3.9776,164.9202
lg,1624656414995082870,0,0.1106,-0.9944,0.1924,250,-41.5039,-181.0303,3.7842,84,1.4297,1.5978,14.3648,-45.208,31,0.2671,9044,3.9776,169.8902
lg,1624656414995102388,0,0.0278,-1.0823,0.4023,251,-37.0483,-93.5669,2.9297,84,1.4287,1.5978,13.184,-45.7122,31,0.2671,9137,3.9776,-188.4566
lg,1624656414995120685,0,0.2629,-1.0286,0.6003,252,21.3623,-32.5928,35.1562,84,1.4317,1.5968,12.3042,-44.9681,31,0.2681,8869,3.9776,-186.6255
lg,1624656414995138407,0,0.4497,-0.8284,0.5906,253,28.0762,18.8599,8.1177,84,1.4357,1.5998,11.7306,-44.2569,31,0.2711,8598,3.9776,-187.0182
lg,1624656414995156240,0,0.1714,-0.9106,0.4587,254,18.1274,122.6196,-23.9868,84,1.4417,1.6008,13.7171,-45.2047,31,0.2711,8443,3.9776,168.5927
lg,1624656414995173981,0,-0.0188,-0.9849,0.4644,255,15.0757,159.6069,-34.668,84,1.4497,1.6018,16.912,-46.8792,31,0.2711,8509,3.9776,162.649
lg,1624656414995193000,0,-0.2048,-1.0061,0.6057,256,37.7197,177.1851,-48.0957,84,1.4557,1.5978,19.9891,-48.0357,31,0.2701,8928,3.9776,155.6323
lg,1624656415367813110,0,-0.5122,-0.6279,0.0984,257,37.9639,86.1206,-1.8921,84,1.4677,1.5938,24.7153,-49.1278,32,0.2691,27487,3.9776,153.7386
lg,1624656415367851073,0,-0.8469,-1.05,1.0413,258,-53.4668,40.5884,129.7607,84,1.4607,1.5978,29.8972,-49.9962,32,0.2631,8665,3.9776,156.187
lg,1624656415367872277,0,-0.7212,-0.8413,0.5208,259,-54.9316,-143.2495,143.6157,84,1.4467,1.5998,30.7283,-47.7387,32,0.2621,8312,3.9776,165.4174
lg,1624656415367892203,0,-0.4917,-0.6074,0.8118,260,-49.1333,-177.063,122.5586,84,1.4307,1.5988,29.184,-44.3339,32,0.2641,7938,3.9776,-184.5429
lg,1624656415367912351,0,-0.2925,-0.5408,0.3914,261,-24.8413,-208.252,49.5605,84,1.4177,1.5948,24.3012,-42.1023,32,0.2631,8644,3.9776,-176.7277
lg,1624656415367931277,0,0.1252,-1.0493,0.7092,262,-82.5195,-255.8594,47.6074,84,1.4127,1.5938,16.9834,-42.8318,32,0.2641,9185,3.9776,-168.0894
lg,1624656415367950259,0,0.1912,-1.198,0.481,263,-57.0068,-123.8403,5.9204,84,1.4107,1.5948,12.6824,-45.1157,32,0.2651,9221,3.9776,-164.6235
lg,1624656415367969610,0,0.1206,-1.1665,0.4053,264,-24.5361,-53.772,8.4229,84,1.4087,1.5938,10.7701,-46.7152,32,0.2671,7991,3.9776,-163.0148
lg,1624656415367987648,0,0.2078,-0.8855,0.5005,265,16.6626,42.2363,27.71,84,1.4087,1.5968,11.8751,-46.6763,32,0.2691,8776,3.9776,-163.6009
lg,1624656415368006648,0,0.001,-0.8083,0.5642,266,14.2212,113.2202,7.9346,84,1.4107,1.5958,14.713,-47.1694,32,0.2701,8006,3.9776,-166.8522
lg,1624656415368024796,0,-0.1135,-0.8533,0.5447,267,10.376,127.9907,3.6011,84,1.4167,1.5988,17.8534,-48.4716,32,0.2701,8776,3.9776,-171.0264
lg,1624656415368079888,0,-0.25,-0.9248,0.5325,268,8.3618,120.3003,-10.6812,84,1.4237,1.5988,20.4745,-49.9617,32,0.2701,8451,3.9776,-175.3261
lg,1624656415368101444,0,-0.2664,-0.9321,0.4604,269,15.3198,103.3936,-18.1274,84,1.4377,1.5998,22.2915,-51.3341,32,0.2721,8822,3.9776,-179.4522
lg,1624656415368120573,0,-0.1296,-0.949,0.5349,270,35.2783,91.9189,-36.0718,84,1.4527,1.5978,22.8271,-51.8783,32,0.2731,12058,3.9776,-183.6912
lg,1624656415368154740,0,-0.1501,-0.9958,0.4585,271,34.8511,89.4775,-82.5806,84,1.4667,1.5948,21.8043,-53.0318,32,0.2701,8821,3.9776,170.8565
lg,1624656415368174888,0,-0.2085,-0.9827,0.1182,272,43.396,56.3965,-72.6318,84,1.4757,1.5898,20.5203,-53.8579,32,0.2701,8467,3.9776,166.6189
lg,1624656415368193462,0,-0.155,-0.9229,0.0811,273,62.0728,38.0249,-46.2646,84,1.4807,1.5838,19.5157,-53.285,32,0.2671,8106,3.9776,163.7722
lg,1624656415368212110,0,-0.1121,-0.5784,0.1111,274,52.3071,68.5425,22.522,84,1.4827,1.5798,22.8951,-53.7129,32,0.2681,9213,3.9776,161.9546
lg,1624656415368230240,0,-0.3469,-0.6826,0.5911,275,-13.0005,87.4634,65.3076,84,1.4827,1.5858,27.0862,-54.691,32,0.2671,10070,3.9776,160.5552
lg,1624656415368248166,0,-0.7117,-1.0537,0.6309,276,-37.2314,55.2979,112.793,84,1.4737,1.5878,32.1457,-55.9094,32,0.2611,8891,3.9776,161.3252
lg,1624656415368266814,0,-0.8738,-0.7983,0.5952,277,-29.2969,-54.1992,104.248,84,1.4517,1.5928,34.6784,-54.2115,32,0.2591,8871,3.9776,166.3758
lg,1624656415368285481,0,-0.9937,-0.647,0.7285,278,-41.0156,-118.1641,106.4453,84,1.4167,1.5938,35.6421,-50.9194,32,0.2561,8984,3.9776,-185.5954
lg,1624656415368304036,0,-0.2488,-0.5703,1.5981,279,-61.3403,-188.0493,113.5864,84,1.3937,1.5898,30.6842,-45.5252,32,0.2551,8271,3.9776,-172.4813
lg,1624656415368321703,0,-0.1929,-0.5645,0.3618,280,-40.8936,-322.876,37.7808,84,1.3857,1.5888,21.2809,-42.3502,32,0.2541,9116,3.9798,-161.4148
lg,1624656415368339129,0,0.2292,-1.1899,0.8262,281,-93.2007,-275.6958,9.6436,81,1.3847,1.5848,12.4455,-44.194,32,0.2551,9079,3.9798,-153.415
lg,1624656415368357796,0,0.261,-1.1135,0.2009,282,-42.5415,-142.6392,-19.3481,81,1.3817,1.5898,7.0178,-46.5684,32,0.2581,9133,3.9798,-150.106
lg,1624656415368375999,0,0.2476,-1.0142,0.2668,283,11.7798,0.6104,3.8452,81,1.3837,1.5898,6.3893,-47.147,32,0.2591,9137,3.9798,-150.1469
lg,1624656415368393999,0,0.0337,-0.8374,0.3735,284,29.6021,110.2905,1.3428,81,1.3847,1.5908,9.0871,-47.129,32,0.2601,8735,3.9798,-153.4621
lg,1624656415368484259,0,-0.1335,-0.7676,0.3977,285,29.1748,137.5122,-1.2207,81,1.3907,1.5928,13.1799,-47.373,32,0.2621,9138,3.9798,-157.7373
lg,1624656415368549407,0,-0.3018,-0.7874,0.438,286,23.6206,129.6997,5.6763,81,1.4017,1.5938,17.039,-47.9369,32,0.2621,9164,3.9798,-161.6759
lg,1624656415368570592,0,-0.322,-0.9006,0.5046,287,17.5781,78.3081,0.061,81,1.4177,1.5958,19.1362,-48.4933,32,0.2641,9239,3.9798,-164.2832
lg,1624656415368590648,0,-0.1604,-0.9878,0.5742,288,17.5171,33.9355,-1.4648,81,1.4327,1.5978,19.5556,-48.6229,32,0.2651,9221,3.9798,-165.5571
lg,1624656415739534870,0,0.0793,-0.9802,0.4204,289,43.396,70.1904,-47.9126,81,1.4637,1.5968,19.0733,-48.8134,32,0.2711,27183,3.9798,-169.3835
lg,1624656415739585610,0,-0.1848,-0.7461,0.2122,290,44.0063,128.7842,-16.6626,81,1.4677,1.5958,21.7466,-49.6694,32,0.2761,15119,3.9798,-174.3449
lg,1624656415739606388,0,-0.5205,-0.7957,0.5847,291,-9.5825,152.832,50.8423,81,1.4637,1.5968,27.3898,-51.7732,32,0.2701,12817,3.9798,-178.204
lg,1624656415739625925,0,-0.8838,-0.9343,0.7544,292,-38.3301,109.4971,93.4448,81,1.4527,1.5988,33.3255,-53.9931,32,0.2661,7865,3.9798,-179.6465
lg,1624656415739646147,0,-1.0002,-0.8806,0.6597,293,-35.8887,46.814,90.21,81,1.4347,1.5998,35.948,-53.3187,32,0.2641,7944,3.9798,-176.4184
lg,1624656415739664203,0,-0.8474,-0.5452,1.0227,294,-28.1372,-86.4868,72.3877,81,1.4217,1.5978,36.186,-50.1608,32,0.2621,7967,3.9798,-170.247
lg,1624656415739731092,0,-0.5217,-0.4802,0.3147,295,-23.1323,-233.5815,21.0571,81,1.4147,1.5928,30.8848,-46.3006,32,0.2621,7994,3.9798,-161.3199
lg,1624656415739750851,0,-0.0581,-0.9722,0.6169,296,-93.689,-278.1372,8.606,81,1.4137,1.5908,22.4749,-46.3659,32,0.2631,9833,3.9798,-152.3151
lg,1624656415739767499,0,-0.0061,-0.9985,0.1758,297,-81.4209,-264.8926,-19.4092,81,1.4127,1.5908,15.984,-49.3178,32,0.2651,8378,3.9798,-147.6538
lg,1624656415739785332,0,-0.0767,-1.2036,0.2065,298,-48.2178,-101.7456,-4.3945,81,1.4117,1.5908,12.8677,-51.647,32,0.2661,8000,3.9798,-144.8456
lg,1624656415739803240,0,0.1262,-1.04,0.377,299,26.2451,-3.1128,52.6123,81,1.4127,1.5938,13.7013,-50.9898,32,0.2671,8805,3.9798,-143.5669
lg,1624656415739822332,0,0.1575,-0.7629,0.5269,300,44.2505,48.645,34.1187,81,1.4157,1.5948,15.0841,-49.5527,32,0.2681,8445,3.9798,-144.2712
lg,1624656415739840147,0,0.1123,-0.7393,0.5493,301,33.9966,74.646,26.8555,81,1.4237,1.5968,16.9809,-48.7914,32,0.2681,8801,3.9798,-145.9451
lg,1624656415739857888,0,-0.1111,-0.9133,0.5583,302,14.5874,100.5249,1.2207,81,1.4327,1.5988,19.197,-49.5853,32,0.2691,8473,3.9798,-149.2336
lg,1624656415739876944,0,-0.1804,-1.0361,0.6729,303,27.4658,91.6138,-25.6958,81,1.4467,1.5998,20.3343,-50.0309,32,0.2721,8110,3.9798,-153.0152
lg,1624656415739893962,0,-0.0957,-1.0183,0.6392,304,42.6025,68.1763,-38.3911,81,1.4577,1.5968,20.0338,-49.8213,32,0.2711,8168,3.9798,-156.4228
lg,1624656415739911221,0,0.054,-0.9561,0.4485,305,52.7954,64.8804,-84.0454,81,1.4657,1.5948,18.2701,-49.7716,32,0.2681,8602,3.9798,-161.0285
lg,1624656415739927870,0,-0.1199,-0.9004,0.1436,306,53.833,67.1997,-80.3223,81,1.4717,1.5908,17.2021,-50.1591,32,0.2661,8910,3.9798,-165.7393
lg,1624656415739944444,0,-0.2261,-0.7368,0.1748,307,39.0625,121.7041,0.2441,81,1.4737,1.5888,20.3204,-50.8901,32,0.2681,8563,3.9798,-170.011
lg,1624656415739972832,0,-0.4451,-0.7908,0.48,308,-0.061,157.7759,28.3203,81,1.4747,1.5908,25.2818,-52.983,32,0.2661,8540,3.9798,-174.7602
lg,1624656415739990055,0,-0.8679,-0.8984,0.6003,309,-25.8789,100.647,79.5898,81,1.4667,1.5938,30.7199,-54.8557,31,0.2611,8948,3.9798,-176.3908
lg,1624656415740006740,0,-1.0098,-0.6909,0.6562,310,-7.5073,-3.418,80.7495,81,1.4507,1.5968,32.3745,-52.8565,31,0.2591,10859,3.9798,-172.1702
lg,1624656415740029740,0,-1.0688,-0.5977,0.6948,311,-37.4146,-140.7471,68.6646,81,1.4327,1.5968,31.7137,-50.1199,31,0.2601,8575,3.9798,-164.7212
lg,1624656415740047499,0,-0.3733,-0.5464,0.6484,312,-54.6875,-315.5518,55.481,81,1.4237,1.5968,24.6943,-46.0618,32,0.2601,8782,3.9798,-152.1952
lg,1624656415740064573,0,0.0017,-1.0544,0.6145,313,-96.2524,-334.6558,36.0718,81,1.4187,1.5958,15.6335,-46.546,32,0.2601,9101,3.9798,-141.1056
lg,1624656415740081758,0,0.4136,-1.126,0.2854,314,-38.5132,-212.4023,33.5083,81,1.4167,1.5958,9.6152,-47.5285,32,0.2611,9191,3.9798,-134.0856
lg,1624656415740098851,0,0.4097,-1.1375,0.5276,315,-20.6299,-107.7881,19.043,81,1.4167,1.5968,8.1159,-47.7346,32,0.2621,8805,3.9798,-132.7756
lg,1624656415740125962,0,0.4167,-0.9404,0.6023,316,15.625,12.207,12.4512,81,1.4197,1.5968,7.7278,-47.4643,32,0.2631,9194,3.9798,-132.8574
lg,1624656415740143777,0,0.24,-0.8877,0.5667,317,18.4326,85.022,-15.625,81,1.4297,1.6008,8.756,-47.5312,32,0.2661,9197,3.9798,-135.8743
lg,1624656415740160647,0,0.0129,-0.9634,0.532,318,20.0806,143.0054,-40.4663,81,1.4397,1.6018,11.0057,-48.1883,32,0.2671,9180,3.9798,-141.3644
lg,1624656415740178240,0,-0.1001,-0.998,0.5559,319,25.9399,155.9448,-65.8569,81,1.4507,1.6008,12.9007,-49.0111,32,0.2671,8872,3.9798,-148.0211
lg,1624656415740195740,0,-0.1389,-0.9658,0.4546,320,44.7998,148.0103,-88.2568,81,1.4597,1.6008,13.8689,-49.4604,32,0.2681,9297,3.9798,-155.1343
lg,1624656416120734369,0,-0.4067,-0.5173,0.1987,321,48.7061,64.5752,-45.166,81,1.4707,1.5938,17.3487,-49.5306,32,0.2721,27112,3.9798,-157.4468
lg,1624656416120773721,0,-0.5564,-0.8621,0.762,322,-38.5742,67.1997,86.0596,81,1.4707,1.5978,22.0248,-50.9728,32,0.2671,8652,3.9798,-157.3055
lg,1624656416120793684,0,-0.7314,-1.0559,0.6379,323,-38.0859,-23.4375,114.3799,81,1.4657,1.5998,25.3353,-51.1901,32,0.2641,8224,3.9798,-153.4864
lg,1624656416120813295,0,-0.6702,-0.7639,0.5713,324,-13.4888,-138.4277,87.5854,81,1.4567,1.6018,24.8573,-48.737,32,0.2631,8619,3.9798,-146.331
lg,1624656416120831851,0,-0.6116,-0.6316,0.5615,325,-20.813,-171.0205,85.083,81,1.4437,1.6018,22.2572,-46.4247,31,0.2601,8631,3.9798,-136.7151
lg,1624656416120849573,0,0.0464,-0.6787,0.6145,326,-56.2744,-254.8828,102.8442,81,1.4317,1.5988,15.8269,-44.819,31,0.2631,10590,3.9798,-125.6603
lg,1624656416120867277,0,0.0613,-0.9395,0.2544,327,-55.603,-275.3296,67.4438,81,1.4267,1.5978,8.9814,-45.369,31,0.2641,9386,3.9798,-115.8776
lg,1624656416120885795,0,0.4124,-1.2747,0.6812,328,-41.3818,-177.3071,70.9839,81,1.4217,1.5968,5.1848,-46.7447,32,0.2651,8306,3.9798,-108.8406
lg,1624656416120903443,0,0.3906,-1.0601,0.4717,329,5.127,-31.311,28.8086,81,1.4247,1.5978,4.2694,-47.0983,32,0.2661,8346,3.9798,-107.1964
lg,1624656416120921406,0,0.3379,-0.8516,0.5703,330,25.2686,35.7056,27.771,81,1.4307,1.6008,6.0579,-45.9762,32,0.2681,8755,3.9798,-108.6056
lg,1624656416120939277,0,0.2815,-0.8435,0.5801,331,40.5884,93.3838,9.2163,81,1.4397,1.5998,8.0957,-45.0109,32,0.2681,8331,3.9798,-111.0827
lg,1624656416120956851,0,0.041,-0.9338,0.5796,332,42.7856,141.2964,-31.25,81,1.4547,1.6038,10.8036,-44.6289,32,0.2681,8733,3.9798,-116.0988
lg,1624656416120974277,0,-0.1033,-0.9087,0.4062,333,72.998,166.3208,-58.3496,81,1.4657,1.6018,13.7451,-43.9214,32,0.2721,8774,3.9798,-122.7186
lg,1624656416120992425,0,-0.231,-0.8645,0.1875,334,69.0308,156.4331,-76.1719,81,1.4687,1.5988,16.7313,-44.3038,32,0.2731,8301,3.9798,-129.8212
lg,1624656416121010721,0,-0.834,-0.7764,0.4399,335,-2.5024,118.2861,6.4087,81,1.4677,1.5958,21.2449,-45.978,32,0.2721,13368,3.9798,-133.3365
lg,1624656416121060369,0,-0.9387,-0.8447,0.6025,336,-28.9307,48.2788,123.4741,81,1.4567,1.5988,26.9386,-46.4903,32,0.2671,8858,3.9798,-131.2359
lg,1624656416121082221,0,-0.9233,-0.6094,0.9617,337,-8.9722,-49.4385,105.5908,81,1.4417,1.5998,29.0409,-44.0116,32,0.2681,8499,3.9798,-126.0401
lg,1624656416121099999,0,-0.626,-0.3906,1.2043,338,-10.8032,-129.5166,78.3691,81,1.4307,1.5988,27.7185,-41.197,32,0.2661,8544,3.9798,-119.3689
lg,1624656416121117703,0,-0.4165,-0.8477,0.9246,339,-81.665,-263.6108,25.1465,81,1.4217,1.5968,20.1297,-41.0916,32,0.2661,8977,3.9798,-110.9808
lg,1624656416121135573,0,0,-1.0588,0.4668,340,-69.9463,-289.5508,5.9204,81,1.4147,1.5938,11.0167,-42.6679,32,0.2661,10121,3.9798,-103.1265
lg,1624656416121153166,0,0.2559,-1.051,0.4395,341,-36.9873,-139.4043,9.9487,81,1.4127,1.5948,6.3924,-44.4205,32,0.2661,8674,3.9798,-99.112
lg,1624656416121171629,0,0.3716,-1.0032,0.6733,342,2.1973,4.1504,6.897,81,1.4137,1.5958,5.8032,-44.757,32,0.2671,8663,3.9798,-99.0804
lg,1624656416121189647,0,0.2539,-0.866,0.5549,343,7.5684,44.4946,-6.5918,81,1.4157,1.5958,6.8863,-45.2527,31,0.2701,9015,3.9798,-102.2159
lg,1624656416121209147,0,0.0061,-0.9185,0.5024,344,7.6294,128.418,-36.9263,81,1.4247,1.5978,9.5966,-46.5006,31,0.2711,10288,3.9798,-108.5183
lg,1624656416121227092,0,-0.2783,-0.9993,0.4705,345,6.897,191.9556,-78.6743,81,1.4347,1.6008,12.632,-48.455,31,0.2711,10970,3.9798,-116.5655
lg,1624656416121244592,0,-0.3679,-1.0098,0.4329,346,8.8501,183.5938,-83.5571,81,1.4457,1.6018,14.7954,-50.2126,32,0.2721,9094,3.9798,-124.0036
lg,1624656416121261925,0,-0.3096,-0.9878,0.5632,347,25.4517,139.4043,-76.8433,81,1.4557,1.5988,15.942,-51.3053,32,0.2711,9312,3.9798,-130.5966
lg,1624656416121279629,0,-0.2131,-1.0393,0.5122,348,34.4238,92.5293,-101.1963,81,1.4637,1.5938,14.8479,-51.9124,32,0.2681,9135,3.9798,-136.3415
lg,1624656416121297166,0,-0.1934,-1.074,0.1909,349,33.5083,36.0107,-106.2622,81,1.4707,1.5858,12.2413,-52.5482,32,0.2621,8839,3.9798,-140.4576
lg,1624656416121314240,0,-0.0632,-0.8438,0.0308,350,67.9321,-20.9351,-41.1987,81,1.4767,1.5748,10.2083,-51.2351,32,0.2581,9215,3.9798,-141.1043
lg,1624656416121456666,0,0.1309,-0.4753,-0.0127,351,56.5186,28.9917,44.6777,81,1.4807,1.5678,11.4314,-50.3697,32,0.2581,8991,3.9798,-141.1402
lg,1624656416121523554,0,0.2019,-0.4153,0.0522,352,27.5269,50.2319,72.6929,81,1.4827,1.5658,13.9252,-49.9614,32,0.2591,8902,3.9798,-140.9805
lg,1624656416487826943,0,-0.6455,-1.1868,0.637,353,-33.9355,89.6606,116.0278,81,1.4727,1.5778,19.8685,-51.1373,31,0.2491,27140,3.9798,-138.6355
lg,1624656416487902332,0,-1.0293,-0.7239,0.655,354,-36.438,-60.73,178.1616,81,1.4377,1.5818,24.838,-49.8426,31,0.2431,11311,3.9798,-131.6766
lg,1624656416487923332,0,-0.8503,-0.4827,0.8135,355,-65.0024,-213.4399,178.1616,81,1.3987,1.5798,25.198,-46.6178,32,0.2441,8306,3.9798,-119.1527
lg,1624656416487952480,0,-0.1016,-0.4724,0.6174,356,-49.5605,-415.1611,73.3032,81,1.3907,1.5758,14.9075,-43.1905,32,0.2441,7864,3.9798,-104.4182
lg,1624656416488028702,0,0.4648,-1.259,1.1013,357,-118.103,-345.9473,41.1987,81,1.3917,1.5758,5.1482,-46.173,32,0.2451,8621,3.9798,-93.4381
lg,1624656416488054184,0,0.4285,-1.1382,0.5225,358,-86.0596,-299.3164,-21.8506,81,1.3937,1.5788,-4.3304,-50.2349,32,0.2471,8589,3.9798,-85.157
lg,1624656416488077517,0,0.2815,-1.0977,0.0437,359,-32.8369,-88.1348,-54.4434,81,1.3947,1.5808,-8.6311,-53.0268,32,0.2501,8685,3.9798,-83.6158
lg,1624656416488100758,0,0.3831,-1.031,0.3853,360,39.1846,70.3125,-9.0332,81,1.3967,1.5828,-7.64,-51.7155,32,0.2511,9647,3.9798,-86.0071
lg,1624656416488119962,0,-0.0852,-0.7302,0.1831,361,48.8281,231.2622,-36.7432,81,1.3987,1.5848,-2.4536,-49.9752,32,0.2511,9620,3.9798,-93.9983
lg,1624656416488138017,0,-0.5295,-0.7363,0.4717,362,43.0298,268.1885,-38.4521,81,1.4017,1.5858,5.3131,-48.8752,32,0.2541,7993,3.9798,-103.2837
lg,1624656416488186443,0,-0.6743,-0.8223,0.6411,363,39.1235,266.9678,-18.3105,81,1.4097,1.5868,12.7916,-48.7674,32,0.2541,8780,3.9798,-111.8976
lg,1624656416488219962,0,-0.6443,-0.8372,0.6492,364,25.2075,127.2583,-33.3862,81,1.4187,1.5898,15.824,-49.0615,32,0.2571,8425,3.9798,-116.7904
lg,1624656416488250814,0,-0.4553,-0.8662,0.4885,365,9.7656,11.7188,-34.2407,81,1.4297,1.5908,15.4456,-49.4395,32,0.2581,8837,3.9798,-118.2007
lg,1624656416488272221,0,-0.2117,-0.9331,0.5176,366,5.9204,-11.5967,-28.5645,81,1.4397,1.5908,13.7269,-49.8098,31,0.2631,8667,3.9798,-118.7374
lg,1624656416488292739,0,-0.1387,-1.0151,0.4861,367,16.8457,-20.5688,-44.6777,81,1.4477,1.5898,11.5852,-49.8267,31,0.2641,8109,3.9798,-119.407
lg,1624656416488310128,0,-0.0457,-1.1104,0.4731,368,37.3535,0.2441,-59.7534,81,1.4577,1.5888,9.4217,-49.2925,31,0.2661,8167,3.9798,-121.1239
lg,1624656416488328536,0,-0.0386,-0.9556,0.325,369,71.5942,0,-37.5977,81,1.4657,1.5868,8.0406,-47.4362,31,0.2671,8919,3.9798,-122.2762
lg,1624656416488368202,0,-0.0481,-0.7959,0.1624,370,78.186,5.6152,-10.376,81,1.4697,1.5848,9.2335,-45.9685,32,0.2691,8892,3.9798,-122.5304
lg,1624656416488388202,0,-0.1904,-0.5815,0.1675,371,41.9312,51.1475,51.3916,81,1.4717,1.5868,12.4863,-45.3233,32,0.2671,9005,3.9798,-122.7266
lg,1624656416488406517,0,-0.4636,-0.8582,0.9363,372,-47.4854,74.9512,121.3379,81,1.4667,1.5908,18.3348,-46.7647,32,0.2571,8623,3.9798,-121.464
lg,1624656416488425054,0,-0.77,-0.9136,0.5188,373,-49.3774,-23.0713,117.5537,81,1.4507,1.5928,21.8678,-47.7681,32,0.2561,8999,3.9798,-117.5021
lg,1624656416488443054,0,-0.9756,-0.7615,0.6118,374,-37.9028,-92.7124,112.915,81,1.4277,1.5938,23.5767,-46.9438,32,0.2531,9028,3.9798,-111.2585
lg,1624656416488461147,0,-0.6233,-0.6846,1.2791,375,-44.0674,-140.4419,129.6997,81,1.4107,1.5898,23.4218,-44.6314,32,0.2511,8337,3.9798,-102.6292
lg,1624656416488479962,0,-0.2122,-0.7461,0.6758,376,-66.8335,-309.3872,72.937,81,1.3997,1.5898,16.1736,-43.5769,32,0.2511,8758,3.9798,-91.3374
lg,1624656416488497943,0,0.3987,-1.1421,0.6304,377,-85.3882,-325.7446,47.4243,81,1.4007,1.5898,7.0654,-45.485,32,0.2531,9107,3.9798,-80.8443
lg,1624656416488516184,0,0.5459,-1.1096,0.2788,378,-50.6592,-157.1045,11.9629,81,1.4037,1.5918,1.9478,-48.1302,32,0.2561,9142,3.9798,-76.023
lg,1624656416488626110,0,0.6245,-1.1287,0.4946,379,-23.7427,-52.4292,13.6108,81,1.4087,1.5928,1.4416,-48.7501,32,0.2581,9000,3.9798,-76.2458
lg,1624656416488649814,0,0.3809,-0.9565,0.4541,380,31.189,138.9771,-23.9258,81,1.4187,1.5958,3.564,-48.2897,32,0.2581,10396,3.9798,-81.0729
lg,1624656416488668517,0,0.1804,-0.907,0.4343,381,37.1704,204.1626,-38.5132,81,1.4307,1.5958,7.2921,-48.0989,32,0.2581,8504,3.9798,-88.2576
lg,1624656416488687221,0,-0.2388,-0.9155,0.3962,382,35.1562,260.1929,-62.6221,81,1.4447,1.5978,12.5142,-49.0583,32,0.2591,8966,3.9798,-97.9345
lg,1624656416488731165,0,-0.4285,-0.9634,0.5439,383,49.5605,232.9712,-67.4438,81,1.4567,1.5968,16.8341,-49.82,32,0.2601,9042,3.9798,-107.1477
lg,1624656416488821721,0,-0.4419,-0.906,0.3201,384,67.1387,166.4429,-70.6177,81,1.4637,1.5928,19.268,-50.1493,32,0.2621,8515,3.9798,-114.6388
lg,1624656416865513924,0,-0.6482,-0.6038,0.2207,385,1.8311,46.875,21.4844,81,1.4687,1.5918,22.8457,-51.3471,31,0.2601,26774,3.9798,-113.5938
lg,1624656416865544980,0,-0.8022,-0.9153,0.551,386,-47.7295,-51.6357,121.582,81,1.4597,1.5968,25.9096,-51.3922,32,0.2591,10803,3.9798,-108.596
lg,1624656416865564813,0,-0.8108,-0.7729,0.4412,387,-34.729,-166.8701,117.4316,81,1.4397,1.5978,25.9259,-49.0906,32,0.2581,10362,3.9798,-99.6611
lg,1624656416865583073,0,-0.3462,-0.5686,1.2029,388,-41.0767,-228.6377,122.8027,81,1.4237,1.5958,22.9622,-45.1836,32,0.2561,8613,3.9798,-88.2249
lg,1624656416865601091,0,-0.1235,-0.8745,0.6335,389,-82.5806,-331.1157,63.9038,81,1.4147,1.5928,14.8554,-45.0139,32,0.2551,8693,3.9798,-76.5914
lg,1624656416865619647,0,0.3877,-1.1755,0.5913,390,-62.6221,-304.0771,43.396,83,1.4127,1.5918,6.5004,-46.3237,32,0.2561,9283,3.982,-66.7068
lg,1624656416865637887,0,0.5134,-1.123,0.4619,391,-47.8516,-231.5674,17.7612,83,1.4117,1.5928,2.0226,-48.1207,32,0.2571,9242,3.982,-62.5304
lg,1624656416865655332,0,0.5657,-1.0889,0.5037,392,-3.6011,-51.2695,12.7563,83,1.4127,1.5938,0.0167,-48.8234,32,0.2581,7991,3.982,-60.6719
lg,1624656416865672498,0,0.457,-0.9111,0.4529,393,23.0103,73.1201,-8.1787,83,1.4187,1.5958,0.7612,-48.4392,32,0.2591,8388,3.982,-63.0927
lg,1624656416865689702,0,0.0552,-0.8945,0.4307,394,26.3672,187.439,-39.3066,83,1.4257,1.5988,4.3815,-48.2958,32,0.2631,8322,3.982,-69.7552
lg,1624656416865706758,0,-0.1436,-0.9141,0.4448,395,25.2686,215.271,-46.936,83,1.4357,1.5988,8.7906,-48.7839,32,0.2621,8758,3.982,-77.5427
lg,1624656416865723536,0,-0.4048,-0.9285,0.4229,396,24.5361,205.6274,-59.1431,83,1.4457,1.5988,12.8378,-49.9022,32,0.2631,9379,3.982,-85.5548
lg,1624656416865740924,0,-0.4294,-0.8794,0.52,397,37.5366,149.8413,-58.2886,83,1.4547,1.5978,15.2662,-50.2715,32,0.2631,10321,3.982,-91.9129
lg,1624656416865757887,0,-0.2903,-0.9175,0.4792,398,39.917,104.6143,-59.2041,83,1.4597,1.5958,16.1199,-50.4767,32,0.2611,8902,3.982,-96.9538
lg,1624656416865774369,0,-0.303,-0.9836,0.2993,399,28.6255,66.2231,-65.3076,83,1.4697,1.5898,15.611,-50.9712,32,0.2631,8452,3.982,-99.9791
lg,1624656416865810887,0,-0.209,-0.8589,0.1863,400,43.7622,27.0386,-24.292,83,1.4727,1.5858,15.5098,-50.6539,32,0.2631,8828,3.982,-101.7646
lg,1624656416865828369,0,-0.1904,-0.6274,0.1116,401,28.9307,41.8091,44.8608,83,1.4747,1.5868,18.0629,-50.6465,32,0.2661,8878,3.982,-102.2301
lg,1624656416865845258,0,-0.4441,-0.8455,0.676,402,-42.9688,63.1104,102.1729,83,1.4727,1.5918,22.9752,-52.1607,32,0.2621,8149,3.982,-101.6359
lg,1624656416865861628,0,-0.6526,-0.9646,0.4893,403,-51.4526,36.0107,136.2305,83,1.4657,1.5948,27.4661,-52.6481,32,0.2561,8744,3.982,-97.0947
lg,1624656416865877869,0,-0.7375,-0.9429,0.4905,404,-48.584,-55.0537,144.8975,83,1.4477,1.5968,31.2268,-51.855,32,0.2531,9277,3.982,-91.1503
lg,1624656416865894295,0,-0.9009,-0.8315,0.6184,405,-32.5317,-87.7075,138.9771,83,1.4207,1.5958,33.6772,-49.2082,32,0.2551,9458,3.982,-83.7681
lg,1624656416865910406,0,-0.2346,-0.438,1.093,406,-29.2358,-241.5161,110.7178,83,1.4007,1.5918,29.4593,-43.0198,32,0.2541,8639,3.982,-71.3739
lg,1624656416865939610,0,0.2051,-1.1147,1.1995,407,-104.9805,-287.4756,68.9087,83,1.3967,1.5898,21.5932,-42.5041,32,0.2541,8289,3.982,-60.514
lg,1624656416865957702,0,0.4187,-1.2268,0.4312,408,-70.8008,-253.54,4.6387,83,1.3977,1.5898,13.0419,-44.1626,31,0.2561,9131,3.982,-53.4708
lg,1624656416865974795,0,0.4207,-1.1592,0.2041,409,-58.2275,-159.668,-6.6528,83,1.3987,1.5918,7.3029,-47.0899,31,0.2581,9128,3.982,-49.3129
lg,1624656416865991443,0,0.3979,-1.0701,0.2986,410,7.8125,14.9536,-3.1128,83,1.4027,1.5938,6.6101,-47.8186,31,0.2591,9114,3.982,-49.9639
lg,1624656416866007998,0,0.2058,-0.8855,0.3406,411,40.7104,138.6719,-14.1602,83,1.4097,1.5948,9.183,-47.6142,31,0.2611,8719,3.982,-54.5923
lg,1624656416866024647,0,-0.229,-0.8369,0.2776,412,41.8091,227.417,-31.5552,83,1.4187,1.5968,14.5286,-48.456,32,0.2611,8394,3.982,-62.5065
lg,1624656416866041313,0,-0.6345,-0.8191,0.3115,413,41.1377,236.4502,-23.2544,83,1.4287,1.5978,20.8121,-49.9716,32,0.2621,9151,3.982,-70.8321
lg,1624656416866057554,0,-0.7415,-0.8254,0.4292,414,45.7764,204.4678,-17.0288,83,1.4387,1.5978,26.1208,-51.495,32,0.2631,8805,3.982,-78.3619
lg,1624656416866073813,0,-0.6467,-0.75,0.635,415,60.3027,100.5859,-2.9907,83,1.4507,1.5978,27.1092,-50.0719,32,0.2661,10974,3.982,-79.9145
lg,1624656416866090147,0,-0.4412,-0.8005,0.5872,416,29.2358,-0.5493,-9.0942,83,1.4577,1.5958,26.6898,-49.1533,31,0.2671,9420,3.982,-80.2232
lg,1624656417231653943,0,-0.4712,-0.9626,0.4419,417,-51.7578,-113.2812,105.4077,83,1.4257,1.6008,26.9567,-48.7928,31,0.2661,27247,3.982,-73.6132
lg,1624656417231688776,0,-0.2002,-0.5356,0.9045,418,-15.7471,-117.6758,103.2715,83,1.4067,1.5968,26.2057,-45.5006,31,0.2651,8877,3.982,-66.2726
lg,1624656417231708924,0,-0.2698,-0.9351,1.2075,419,-62.8052,-145.0195,62.8052,83,1.3937,1.5948,23.3,-44.9465,31,0.2641,7807,3.982,-59.6389
lg,1624656417231728146,0,-0.0349,-1.064,0.5715,420,-52.2461,-219.2383,20.6299,83,1.3897,1.5938,16.9368,-45.2327,31,0.2641,10703,3.982,-52.6801
lg,1624656417231746517,0,0.1951,-1.0547,0.4265,421,-50.1099,-178.1006,10.0708,83,1.3897,1.5948,11.9337,-45.9817,32,0.2651,8035,3.982,-48.1734
lg,1624656417231764832,0,0.4026,-1.0364,0.5391,422,-8.3008,-117.981,9.2163,83,1.3917,1.5958,7.7996,-46.2852,32,0.2671,8916,3.982,-44.5833
lg,1624656417231782961,0,0.4897,-1.0063,0.4536,423,12.2681,4.5166,-9.7656,83,1.3997,1.5968,6.4624,-46.5332,32,0.2661,8126,3.982,-45.0805
lg,1624656417231800517,0,0.1458,-0.9922,0.4209,424,27.5269,135.7422,-48.0957,83,1.4107,1.5988,8.2218,-46.8987,32,0.2641,8087,3.982,-50.4858
lg,1624656417231817906,0,-0.0645,-0.9714,0.3962,425,30.2124,183.8379,-61.9507,83,1.4247,1.5998,11.5534,-47.7292,32,0.2641,8945,3.982,-57.7901
lg,1624656417231835202,0,-0.3611,-0.9658,0.4319,426,37.7808,195.6787,-81.1768,83,1.4387,1.6008,14.6193,-48.7647,32,0.2641,8724,3.982,-66.1359
lg,1624656417231851961,0,-0.426,-0.9033,0.4204,427,53.5889,145.874,-82.5195,83,1.4507,1.5998,16.2986,-49.0378,32,0.2661,8085,3.982,-73.0975
lg,1624656417231868424,0,-0.2959,-0.9004,0.4089,428,65.1245,116.5161,-77.6978,83,1.4597,1.5978,16.469,-48.4539,32,0.2631,8098,3.982,-78.2005
lg,1624656417231884832,0,-0.2051,-0.9292,0.4226,429,59.3872,74.5239,-78.4302,83,1.4657,1.5928,15.9272,-48.0094,32,0.2611,8127,3.982,-82.882
lg,1624656417231901554,0,-0.1558,-0.8943,0.0933,430,58.5938,40.4053,-71.5332,83,1.4707,1.5858,14.7536,-47.8847,32,0.2601,8213,3.982,-86.4863
lg,1624656417231918017,0,-0.074,-0.5359,0.0945,431,55.603,49.9878,-10.9863,83,1.4737,1.5778,15.5763,-47.3786,32,0.2611,8420,3.982,-88.6439
lg,1624656417231934572,0,-0.2175,-0.4312,0.2849,432,6.2866,113.2202,64.0869,83,1.4757,1.5768,20.7836,-48.0011,32,0.2651,9090,3.982,-90.458
lg,1624656417231951350,0,-0.4316,-0.6992,0.5813,433,-30.4565,142.8223,89.9658,83,1.4737,1.5798,27.3831,-50.1722,32,0.2631,8245,3.982,-92.6533
lg,1624656417231988313,0,-0.915,-1.1296,0.6543,434,-51.6968,79.1626,140.0757,83,1.4667,1.5858,34.0021,-51.9609,32,0.2581,8287,3.982,-91.6148
lg,1624656417232006591,0,-1.0437,-0.8955,0.6221,435,-43.2129,-60.3638,168.6401,83,1.4507,1.5878,38.0658,-49.2975,32,0.2551,8408,3.982,-84.0725
lg,1624656417232023739,0,-1.0327,-0.6936,0.6658,436,-36.3159,-100.8301,169.1284,83,1.4217,1.5878,40.4924,-44.1456,32,0.2521,8382,3.982,-74.0369
lg,1624656417232040850,0,-0.6362,-0.554,1.0588,437,-72.876,-244.0186,153.9917,83,1.3957,1.5868,36.7178,-37.4996,32,0.2501,8401,3.982,-59.4579
lg,1624656417232057832,0,0.0615,-0.8396,0.4792,438,-75.3174,-395.0195,91.7969,83,1.3887,1.5848,24.8203,-34.2584,32,0.2501,8378,3.982,-45.9562
lg,1624656417232074480,0,0.6047,-1.3826,0.7881,439,-110.9619,-342.6514,52.124,83,1.3907,1.5858,13.3817,-36.3171,32,0.2511,8414,3.982,-36.223
lg,1624656417232091702,0,0.6016,-1.2688,0.3884,440,-78.9795,-274.6582,5.4321,83,1.3927,1.5858,3.6144,-39.6567,32,0.2531,8506,3.982,-29.488
lg,1624656417232108906,0,0.4417,-1.1558,0.1045,441,-28.1372,-39.7949,-10.7422,83,1.3917,1.5878,1.2343,-42.2329,32,0.2561,8492,3.982,-28.8426
lg,1624656417232138183,0,0.3362,-0.9631,0.1343,442,27.0386,74.8291,-9.7656,83,1.3977,1.5888,2.3916,-42.5953,32,0.2581,8560,3.982,-31.184
lg,1624656417232156128,0,0.0325,-0.7886,0.2153,443,46.2036,147.4609,-12.6343,83,1.4027,1.5908,7.8932,-41.9694,32,0.2601,8444,3.982,-37.3096
lg,1624656417232172850,0,-0.1743,-0.7258,0.1895,444,63.2324,241.8823,-14.5264,83,1.4107,1.5928,14.8993,-42.0754,32,0.2611,8500,3.982,-44.5207
lg,1624656417232189591,0,-0.5513,-0.7961,0.4951,445,60.791,261.1694,-12.146,83,1.4197,1.5938,22.8561,-42.7508,32,0.2631,8841,3.982,-52.4842
lg,1624656417232205961,0,-0.7332,-0.7966,0.6294,446,56.8848,187.9272,-9.4604,83,1.4297,1.5948,28.5581,-43.3892,32,0.2641,9328,3.982,-58.6167
lg,1624656417232222609,0,-0.5557,-0.7253,0.6924,447,45.2881,71.6553,-16.6016,83,1.4397,1.5938,30.187,-43.0636,32,0.2661,8883,3.982,-61.4822
lg,1624656417232239443,0,-0.4214,-0.8889,0.6587,448,30.8228,39.6729,-27.771,83,1.4497,1.5928,29.4772,-43.6822,32,0.2691,8964,3.982,-63.7017
lg,1624656417605786109,0,-0.5161,-0.9873,0.312,449,8.9722,-22.7661,5.9814,83,1.4547,1.5948,29.1455,-43.5185,31,0.2631,27347,3.982,-63.0998
lg,1624656417605855405,0,-0.5239,-0.6477,0.5911,450,-31.8604,-83.1299,111.3892,83,1.4377,1.5968,29.7956,-41.8063,31,0.2581,8619,3.982,-56.8191
lg,1624656417605876350,0,-0.6575,-0.6465,0.5706,451,-36.0718,-79.3457,95.8252,83,1.4207,1.5958,30.242,-40.5986,31,0.2601,8271,3.982,-51.1845
lg,1624656417605894942,0,-0.4521,-0.6514,0.5056,452,-26.8555,-183.4106,51.3916,83,1.4077,1.5928,25.9007,-38.7669,31,0.2581,8263,3.982,-44.3003
lg,1624656417605913313,0,-0.1143,-0.9741,0.6782,453,-79.2847,-254.4556,31.6162,83,1.4017,1.5918,18.1146,-39.6145,32,0.2601,7889,3.982,-36.6101
lg,1624656417605931517,0,0.0149,-1.0603,0.3582,454,-59.7534,-255.3711,11.1694,83,1.3977,1.5908,11.7458,-41.5755,32,0.2611,9430,3.982,-31.5073
lg,1624656417605949868,0,0.0991,-1.0684,0.3679,455,-34.3628,-132.0801,16.0522,83,1.3977,1.5908,7.7032,-43.366,32,0.2611,8931,3.982,-27.6253
lg,1624656417605968109,0,0.4631,-0.9817,0.5974,456,3.418,-59.8145,25.8789,83,1.3967,1.5938,5.5734,-43.5011,32,0.2611,8721,3.982,-25.2864
lg,1624656417605985794,0,0.4714,-1.0044,0.5317,457,8.728,57.0068,2.4414,83,1.4087,1.5948,6.2201,-43.9715,32,0.2631,8670,3.982,-26.8673
lg,1624656417606003202,0,0.2947,-1.0239,0.4663,458,14.2822,111.5112,-18.0664,83,1.4187,1.5968,9.2865,-44.8648,32,0.2631,7978,3.982,-32.423
lg,1624656417606020165,0,-0.0884,-1.0325,0.4258,459,23.9258,189.1479,-48.3398,83,1.4307,1.5958,13.0164,-46.1261,32,0.2621,8763,3.982,-39.4449
lg,1624656417606037850,0,-0.3257,-0.9814,0.4111,460,34.668,193.9697,-63.9038,83,1.4427,1.5978,16.6175,-47.5068,32,0.2641,8796,3.982,-47.2857
lg,1624656417606107220,0,-0.3057,-0.8982,0.4163,461,59.5703,147.1558,-61.9507,83,1.4527,1.5988,18.7759,-47.7281,32,0.2651,8421,3.982,-53.7988
lg,1624656417606126146,0,-0.3086,-0.8606,0.28,462,60.5469,125.8545,-61.1572,83,1.4577,1.5968,19.8284,-48.0123,32,0.2661,8791,3.982,-58.8892
lg,1624656417606142628,0,-0.3232,-0.7544,0.3069,463,45.4712,96.8628,-48.7671,83,1.4607,1.5928,21.045,-48.5156,32,0.2661,8818,3.982,-63.6212
lg,1624656417606162331,0,-0.4734,-0.7361,0.2612,464,15.5029,120.7886,12.3901,83,1.4627,1.5948,24.9891,-50.0987,32,0.2721,8448,3.982,-67.5472
lg,1624656417606178942,0,-0.7256,-1.0068,0.7839,465,-27.0996,98.0225,72.5708,83,1.4627,1.5968,29.8634,-51.8797,32,0.2701,12527,3.982,-68.9669
lg,1624656417606195091,0,-0.9072,-0.9192,0.5054,466,-31.0059,5.8594,97.5342,83,1.4547,1.5988,33.5079,-52.058,32,0.2651,8592,3.982,-66.5268
lg,1624656417606213331,0,-0.9382,-0.6858,0.4832,467,-39.0015,-101.1963,97.7783,83,1.4367,1.5998,34.5813,-49.8829,32,0.2621,9263,3.982,-59.7834
lg,1624656417606230035,0,-0.4241,-0.4741,0.9102,468,-52.4902,-223.0225,98.8159,83,1.4227,1.5988,31.0961,-45.0513,32,0.2621,9783,3.982,-48.2497
lg,1624656417606247109,0,-0.0415,-0.9146,0.4543,469,-98.877,-325.4395,58.96,83,1.4167,1.5968,22.5419,-44.3281,32,0.2611,9018,3.982,-36.5784
lg,1624656417606264591,0,0.416,-1.1609,0.2339,470,-72.1436,-294.6167,31.6162,83,1.4147,1.5968,13.7645,-45.4369,32,0.2621,10062,3.982,-27.3903
lg,1624656417606282276,0,0.3472,-1.2007,0.4019,471,-48.584,-195.4346,12.6343,83,1.4147,1.5968,10.5666,-46.6633,32,0.2621,9033,3.982,-24.8893
lg,1624656417606301628,0,0.2998,-1.1179,0.4744,472,9.7656,-17.2729,8.606,83,1.4167,1.5958,9.4317,-46.9113,32,0.2641,8711,3.982,-24.2803
lg,1624656417606319054,0,0.2075,-0.8479,0.3101,473,29.9683,57.6172,3.2959,83,1.4187,1.5988,10.2555,-46.8612,32,0.2661,8718,3.982,-26.0466
lg,1624656417606357461,0,-0.0144,-0.9373,0.4104,474,37.4146,135.7422,-4.5776,83,1.4297,1.5998,13.4541,-46.9912,32,0.2661,9105,3.982,-30.3707
lg,1624656417606375313,0,-0.1797,-0.957,0.4763,475,45.4102,151.4893,-19.2871,83,1.4407,1.6018,16.8517,-47.175,32,0.2671,8897,3.982,-35.6699
lg,1624656417606391480,0,-0.1938,-0.9236,0.5466,476,51.7578,143.2495,-26.6724,83,1.4487,1.6008,19.2304,-46.7006,32,0.2691,9131,3.982,-40.8747
lg,1624656417606407368,0,-0.1694,-0.792,0.3955,477,72.3267,122.2534,-39.0015,83,1.4537,1.5988,21.1443,-46.1908,32,0.2701,9180,3.982,-46.026
lg,1624656417606423850,0,-0.2781,-0.731,0.4006,478,56.2134,117.7368,-45.8984,83,1.4567,1.6008,22.9639,-46.4377,32,0.2731,9209,3.982,-51.2887
lg,1624656417606439628,0,-0.7388,-0.8457,0.4023,479,3.6621,131.5308,6.897,83,1.4567,1.6018,27.3152,-48.635,32,0.2761,9204,3.982,-55.6288
lg,1624656417606457146,0,-1.1028,-0.9563,0.5571,480,-28.9307,72.6929,86.9751,83,1.4467,1.6038,32.5148,-50.1063,32,0.2681,8871,3.982,-55.7458
lg,1624800837480839313,0,-0.4658,-0.696,0.9541,481,-86.4258,-248.9014,65.1245,83,1.3977,1.5908,27.3621,-48.8766,32,0.2671,27641,3.982,-45.4274
lg,1624800837480879035,0,-0.1299,-1.1003,0.4448,482,-92.041,-312.1948,8.8501,83,1.3957,1.5898,20.3684,-49.6944,32,0.2661,10181,3.982,-37.3347
lg,1624800837480899276,0,0.2175,-1.1873,0.3362,483,-40.5273,-205.6274,26.9775,83,1.3947,1.5908,14.846,-50.0485,32,0.2661,8300,3.982,-30.3468
lg,1624800837480942720,0,0.6116,-1.0491,0.6992,484,6.2256,-88.0737,15.625,83,1.3957,1.5908,11.5751,-49.2903,32,0.2661,9597,3.982,-27.2398
lg,1624800837480962702,0,0.4326,-0.9409,0.4326,485,8.9111,46.6309,-12.5122,83,1.3997,1.5928,11.1316,-49.8653,32,0.2691,7951,3.982,-29.1355
lg,1624800837480981331,0,-0.0308,-1.0115,0.4192,486,15.564,155.3955,-38.6963,83,1.4087,1.5948,13.5029,-51.2002,32,0.2701,11235,3.982,-35.1876
lg,1624800837481013017,0,-0.3313,-0.9922,0.3745,487,19.8975,177.5513,-43.6401,83,1.4177,1.5968,16.4109,-52.5809,32,0.2701,8000,3.982,-42.1827
lg,1624800837481030887,0,-0.3887,-0.9653,0.4058,488,33.2642,153.7476,-53.4058,83,1.4277,1.5988,18.5327,-53.76,32,0.2691,8405,3.982,-48.8446
lg,1624800837481048868,0,-0.3997,-0.9204,0.4392,489,35.1562,104.4312,-57.0679,83,1.4387,1.5988,19.24,-54.379,32,0.2711,8769,3.982,-53.9656
lg,1624800837481066424,0,-0.2681,-0.8716,0.4355,490,45.105,46.1426,-46.5698,83,1.4467,1.5988,18.6601,-53.8211,32,0.2671,8308,3.982,-56.8183
lg,1624800837481084128,0,-0.0103,-0.908,0.5188,491,45.4102,20.0195,-44.7998,83,1.4527,1.5958,16.9962,-52.8177,32,0.2641,9895,3.982,-58.7052
lg,1624800837481102868,0,0.0337,-0.95,0.5142,492,38.208,34.729,-57.4951,83,1.4597,1.5908,15.2781,-52.6894,32,0.2631,8858,3.982,-61.5031
lg,1624800837481121757,0,0.012,-0.9058,0.2698,493,51.2085,52.3682,-48.0347,83,1.4667,1.5818,14.4344,-52.2194,32,0.2641,8853,3.982,-64.6538
lg,1624800837481140257,0,-0.0081,-0.6675,0.1736,494,54.1382,96.4355,14.0381,83,1.4687,1.5798,16.738,-51.7298,32,0.2651,8465,3.982,-67.6909
lg,1624800837481301905,0,-0.4272,-0.666,0.541,495,-4.1504,159.5459,53.0396,83,1.4707,1.5818,22.6517,-53.2053,32,0.2661,8519,3.982,-71.6969
lg,1624800837481329813,0,-0.7202,-0.8696,0.6565,496,-33.02,154.9683,88.3179,83,1.4657,1.5848,29.4997,-55.9806,32,0.2611,8517,3.982,-75.0625
lg,1624800837481350591,0,-1.115,-0.8618,0.3989,497,-46.3867,39.1235,138.2446,83,1.4487,1.5888,35.7259,-56.9768,32,0.2571,8156,3.982,-73.1466
lg,1624800837481380535,0,-1.312,-0.6238,0.5598,498,-38.7573,-51.5137,164.856,83,1.4197,1.5908,40.8232,-53.949,32,0.2531,8649,3.982,-66.0581
lg,1624800837481400517,0,-0.6948,-0.4148,1.5896,499,-73.9746,-228.3936,167.6636,83,1.3887,1.5878,39.6382,-45.5856,32,0.2531,9053,3.982,-50.1379
lg,1624800837481419609,0,-0.4795,-0.5171,0.5608,500,-73.0591,-375.7324,109.4971,83,1.3787,1.5848,30.0808,-39.0681,32,0.2541,8786,3.982,-33.9169
lg,1624800837481438628,0,0.3337,-1.2383,0.8643,501,-142.5781,-436.0962,57.4951,83,1.3797,1.5838,16.7065,-39.8542,32,0.2551,8662,3.982,-20.3604
lg,1624800837481456942,0,0.6433,-1.325,0.4429,502,-94.6045,-295.2881,9.7656,86,1.3817,1.5858,6.7472,-43.014,32,0.2571,9044,3.9787,-12.392
lg,1624800837481475072,0,0.6526,-1.1106,0.0999,503,-17.334,-63.5376,7.6904,86,1.3847,1.5858,3.8241,-44.8074,32,0.2591,11033,3.9787,-10.5332
lg,1624800837481493961,0,0.5315,-0.9885,0.3782,504,28.5645,83.6792,-20.9351,86,1.3877,1.5878,4.4582,-44.7091,32,0.2611,8390,3.9787,-13.5552
lg,1624800837481511720,0,-0.0945,-0.8723,0.2456,505,43.7622,253.6621,-51.8799,86,1.3937,1.5898,10.2108,-45.1985,32,0.2631,9101,3.9787,-22.3373
lg,1624800837481529665,0,-0.3579,-0.8823,0.2622,506,46.5088,292.9688,-49.4995,86,1.4017,1.5908,17.807,-46.4038,32,0.2631,8757,3.9787,-32.3341
lg,1624800837481546887,0,-0.7061,-0.7993,0.4072,507,53.7109,253.8452,-45.5933,86,1.4107,1.5898,24.1189,-48.1327,32,0.2641,8636,3.9787,-41.809
lg,1624800837481564424,0,-0.7209,-0.7275,0.4539,508,46.2036,137.3901,-46.5088,86,1.4217,1.5958,26.95,-49.1613,32,0.2691,8840,3.9787,-47.885
lg,1624800837481595850,0,-0.4648,-0.7537,0.4954,509,26.9165,32.8979,-28.0151,86,1.4317,1.5958,26.9704,-49.2523,32,0.2691,9558,3.9787,-49.9553
lg,1624800837481636035,0,-0.2781,-0.8813,0.4976,510,15.8081,-7.0801,-36.377,86,1.4407,1.5958,25.2412,-49.4472,32,0.2741,8508,3.9787,-50.9811
lg,1624800837481655165,0,-0.2151,-0.9924,0.5818,511,19.3481,-9.2163,-43.396,86,1.4487,1.5948,23.2607,-49.6063,32,0.2771,9333,3.9787,-52.5595
lg,1624800837481672998,0,-0.2769,-1.0229,0.2915,512,33.9966,-6.0425,-38.6963,86,1.4537,1.5938,21.6587,-49.565,32,0.2791,8960,3.9787,-53.8317
lg,1624800837840615813,0,-0.5432,-0.7961,0.5376,513,-29.541,-23.4375,113.1592,86,1.4477,1.5988,24.7974,-49.4006,32,0.2771,25363,3.9787,-49.9487
lg,1624800837840671664,0,-0.6233,-0.6536,0.6909,514,-36.377,-99.5483,96.1304,86,1.4227,1.5998,25.4048,-48.0233,32,0.2771,14211,3.9787,-43.7407
lg,1624800837840692553,0,-0.4324,-0.5706,0.9312,515,-20.5078,-122.1313,89.6606,86,1.4117,1.5978,24.7164,-46.1686,32,0.2751,7964,3.9787,-37.1573
lg,1624800837840712109,0,-0.2227,-0.9597,0.9927,516,-77.4536,-210.5103,68.4204,86,1.4067,1.5968,20.266,-45.8649,32,0.2761,8696,3.9787,-28.5093
lg,1624800837840740924,0,0.1306,-1.0488,0.4524,517,-61.2793,-241.6382,18.3716,86,1.4067,1.5968,13.2008,-46.8792,32,0.2761,7965,3.9787,-20.9656
lg,1624800837840759646,0,0.2354,-1.1216,0.5698,518,-55.1147,-181.3354,6.897,86,1.4087,1.5978,7.4588,-48.7405,32,0.2781,8016,3.9787,-15.4571
lg,1624800837840778146,0,0.5076,-1.1016,0.5044,519,-13.0005,-80.6885,7.9956,86,1.4127,1.5998,4.4717,-49.571,32,0.2811,8895,3.9787,-12.8607
lg,1624800837840796683,0,0.4243,-1.0552,0.5037,520,10.437,52.7954,-21.9116,86,1.4237,1.6008,4.2276,-49.8607,32,0.2801,9506,3.9787,-15.0888
lg,1624800837840814220,0,0.0542,-1.0176,0.4111,521,25.0854,171.3867,-51.3916,86,1.4317,1.6018,6.7576,-50.192,32,0.2801,8102,3.9787,-21.7437
lg,1624800837840832109,0,-0.1182,-1.001,0.407,522,26.6113,195.9229,-61.9507,86,1.4407,1.6018,10.1144,-51.0483,32,0.2801,8134,3.9787,-29.5449
lg,1624800837840849794,0,-0.4131,-0.8884,0.2522,523,43.7622,176.2695,-73.1201,86,1.4477,1.6028,12.784,-51.6076,31,0.2811,8131,3.9787,-37.1664
lg,1624800837840867516,0,-0.5049,-0.7883,0.3506,524,60.2417,103.5767,-51.6357,86,1.4507,1.6018,14.4492,-50.7867,31,0.2821,8167,3.9787,-41.9227
lg,1624800837840884164,0,-0.5974,-0.7197,0.2969,525,48.5229,83.6792,-25.7568,86,1.4527,1.6018,16.889,-50.3825,31,0.2891,8189,3.9787,-45.4403
lg,1624800837840901368,0,-0.7715,-0.7932,0.4934,526,-22.522,51.2695,51.0254,86,1.4517,1.6048,20.6267,-51.6272,31,0.2921,8309,3.9787,-45.8531
lg,1624800837840918220,0,-0.895,-0.9507,0.6328,527,-41.4429,-35.5225,114.624,86,1.4447,1.6048,24.023,-51.8008,32,0.2911,8196,3.9787,-41.6381
lg,1624800837840937757,0,-0.6262,-0.7302,0.7742,528,-28.3203,-103.0884,119.5679,86,1.4357,1.6048,22.5909,-48.5516,32,0.2921,8259,3.9787,-33.7559
lg,1624800837840955442,0,-0.4541,-0.5879,0.2205,529,-25.5127,-185.2417,49.1333,86,1.4267,1.6038,19.6993,-47.616,32,0.2931,8262,3.9787,-26.6949
lg,1624800837840972942,0,-0.0762,-0.9468,0.5303,530,-64.4531,-243.4692,65.3687,86,1.4247,1.6028,14.5399,-47.9579,32,0.2941,8301,3.9787,-17.5029
lg,1624800837840989813,0,0.1875,-1.1355,0.5586,531,-50.9644,-189.6973,30.1514,86,1.4247,1.6028,9.5886,-49.2127,31,0.2941,13171,3.9787,-11.0193
lg,1624800837841007109,0,0.5515,-1.0479,0.5615,532,-14.9536,-99.6094,15.1978,86,1.4277,1.6038,6.201,-49.773,31,0.2961,9088,3.9787,-7.6305
lg,1624800837841023998,0,0.5989,-0.9958,0.449,533,4.8218,21.0571,-9.3384,86,1.4337,1.6048,5.1614,-50.2093,31,0.2971,9053,3.9787,-8.578
lg,1624800837841041257,0,0.2112,-1.0349,0.4475,534,19.165,159.2407,-42.7246,86,1.4417,1.6048,7.2623,-50.7213,31,0.2961,8275,3.9787,-14.67
lg,1624800837841058368,0,0.0195,-1.0364,0.4485,535,23.9258,204.7729,-52.6733,86,1.4477,1.6048,10.7033,-51.5409,32,0.2981,8413,3.9787,-22.5297
lg,1624800837841075813,0,-0.2375,-0.9854,0.4246,536,42.7246,222.9004,-67.8101,86,1.4517,1.6018,14.1121,-52.3361,32,0.2881,8948,3.9787,-31.528
lg,1624800837841092535,0,-0.3767,-0.8308,0.1748,537,56.2744,170.4102,-75.5005,86,1.4547,1.6008,16.2516,-52.983,32,0.2881,8829,3.9787,-39.2646
lg,1624800837841109387,0,-0.4561,-0.7026,0.3208,538,48.8281,126.2207,-33.7524,86,1.4557,1.5978,18.7609,-52.9928,32,0.2901,8422,3.9787,-44.4672
lg,1624800837841144590,0,-0.5938,-0.7639,0.364,539,11.7188,125.5493,38.3911,86,1.4587,1.5968,23.5946,-54.1277,32,0.2951,10795,3.9787,-47.9632
lg,1624800837841164627,0,-0.8994,-1.0708,0.7273,540,-31.0059,58.4106,78.0029,86,1.4597,1.5998,27.9073,-55.4685,32,0.2961,8726,3.9787,-48.1231
lg,1624800837841182609,0,-0.8694,-0.9048,0.3462,541,-41.0156,-14.0991,102.6001,86,1.4507,1.6028,30.0247,-54.3982,32,0.2821,9299,3.9787,-41.2381
lg,1624800837841199998,0,-0.7585,-0.7412,0.4111,542,-51.4526,-167.2363,121.3379,86,1.4327,1.6048,29.7659,-50.8063,32,0.2871,9263,3.9787,-31.2669
lg,1624800837841217850,0,-0.3052,-0.4233,0.4705,543,-19.8975,-221.3745,83.1299,86,1.4177,1.6018,26.2929,-46.519,32,0.2851,9314,3.9787,-21.072
lg,1624800837841235257,0,0.0532,-0.8953,0.6838,544,-106.7505,-307.9834,58.6548,86,1.4097,1.5988,18.5025,-46.6846,32,0.2831,8599,3.9787,-9.7994
lg,1624800838229533572,0,0.2307,-1.1189,0.3369,545,6.0425,-28.1372,-2.8076,86,1.4067,1.5988,16.4903,-47.0815,32,0.2851,26953,3.9787,-9.3003
lg,1624800838229596090,0,0.0569,-0.842,0.4746,546,31.25,114.3188,-5.7983,86,1.4097,1.5998,18.6448,-47.4932,32,0.2851,9963,3.9787,-13.1515
lg,1624800838229617090,0,-0.0249,-0.8584,0.5474,547,27.4048,134.7656,-9.0942,86,1.4157,1.6008,21.4407,-48.4077,32,0.2861,7848,3.9787,-17.8242
lg,1624800838229636479,0,-0.1489,-0.9551,0.5513,548,16.7847,131.1646,-32.3486,86,1.4227,1.6028,23.3273,-50.2018,32,0.2861,8290,3.9787,-23.2135
lg,1624800838229656053,0,-0.2891,-0.9719,0.3591,549,17.4561,107.8491,-58.4717,86,1.4317,1.6028,23.9144,-52.4058,32,0.2821,7920,3.9787,-28.7961
lg,1624800838229674423,0,-0.3662,-0.9316,0.3269,550,32.5928,88.8062,-48.0957,86,1.4397,1.6038,24.3944,-53.6193,32,0.2831,9316,3.9787,-33.4701
lg,1624800838229692479,0,-0.3308,-0.8792,0.4031,551,42.7856,84.2285,-36.3159,86,1.4487,1.6018,24.9908,-54.0282,31,0.2881,8531,3.9787,-37.6058
lg,1624800838229709720,0,-0.1851,-0.8821,0.5706,552,53.5889,61.5234,-44.1895,86,1.4537,1.5988,24.4216,-53.4066,31,0.2861,8810,3.9787,-40.9976
lg,1624800838229727090,0,-0.2241,-0.8894,0.3025,553,49.8047,47.6685,-43.8232,86,1.4597,1.5948,23.4513,-53.1765,31,0.2781,7969,3.9787,-43.2846
lg,1624800838229743979,0,-0.2075,-0.8992,0.3066,554,45.5933,11.4136,-18.1274,86,1.4657,1.5908,22.7503,-52.4336,32,0.2771,8353,3.9787,-44.4535
lg,1624800838229760220,0,-0.1841,-0.7974,0.4116,555,47.9736,38.147,24.8413,86,1.4707,1.5888,24.0366,-51.1946,32,0.2771,8868,3.9787,-45.2664
lg,1624800838229777683,0,-0.3745,-0.7197,0.4236,556,10.5591,38.8184,66.9556,86,1.4727,1.5908,27.0915,-50.8645,32,0.2841,9237,3.9787,-44.8785
lg,1624800838229795053,0,-0.603,-0.9844,0.6689,557,-45.8374,3.1128,117.7368,86,1.4677,1.5948,30.8122,-51.2927,32,0.2771,9277,3.9787,-41.7053
lg,1624800838229819368,0,-0.8081,-0.8491,0.3491,558,-62.9883,-92.6514,142.395,86,1.4527,1.5978,33.3389,-50.2934,32,0.2711,8102,3.9787,-34.3551
lg,1624800838229841479,0,-0.7773,-0.6948,0.4153,559,-55.0537,-129.3945,150.2075,86,1.4247,1.5988,34.8406,-47.1434,32,0.2681,8495,3.9787,-24.8546
lg,1624800838229859461,0,-0.5186,-0.6274,0.9443,560,-65.918,-157.3486,161.0718,86,1.4007,1.5958,34.591,-42.9294,32,0.2671,8530,3.9787,-13.5731
lg,1624800838229877498,0,0.1458,-0.8164,0.5762,561,-74.4019,-311.2183,91.5527,86,1.3917,1.5938,26.2438,-39.9998,32,0.2671,8266,3.9787,-1.2169
lg,1624800838229895109,0,0.469,-1.3987,0.7375,562,-101.2573,-273.0103,30.1514,86,1.3897,1.5938,17.354,-41.6804,32,0.2671,8983,3.9787,7.0633
lg,1624800838229912479,0,0.5403,-1.3625,0.4172,563,-68.6646,-196.7773,14.2822,86,1.3897,1.5948,10.6941,-44.0883,32,0.2711,8231,3.9787,12.6986
lg,1624800838229929775,0,0.552,-1.1707,0.3157,564,-2.3804,-6.7139,0.1221,86,1.3907,1.5948,9.2493,-45.2085,32,0.2731,8621,3.9787,12.7043
lg,1624800838229947164,0,0.335,-0.9016,0.3457,565,34.4238,128.9673,-14.4653,86,1.3947,1.5958,11.3917,-45.449,32,0.2741,8561,3.9787,8.4146
lg,1624800838229987312,0,-0.1123,-0.8486,0.2756,566,35.6445,185.6689,-28.6865,86,1.3997,1.5968,16.3679,-47.0751,32,0.2751,8621,3.9787,0.3237
lg,1624800838230009609,0,-0.374,-0.8589,0.2312,567,29.9072,246.7041,-46.2036,86,1.4087,1.5978,21.7958,-49.896,32,0.2751,8608,3.9787,-9.0789
lg,1624800838230026535,0,-0.6492,-0.8835,0.3196,568,37.2925,215.8203,-44.2505,86,1.4157,1.5988,26.3162,-52.6131,32,0.2761,8695,3.9787,-17.9365
lg,1624800838230044183,0,-0.6768,-0.7725,0.3809,569,42.4194,115.8447,-30.2734,86,1.4267,1.5998,28.5781,-53.5983,32,0.2781,8324,3.9787,-23.1105
lg,1624800838230062498,0,-0.386,-0.7126,0.5286,570,38.7573,59.5703,-18.8599,86,1.4337,1.5998,28.3009,-53.0516,32,0.2811,8743,3.9787,-24.1887
lg,1624800838230080609,0,-0.2654,-0.7515,0.4868,571,18.9819,-7.7515,-15.686,86,1.4417,1.5988,27.1489,-52.5239,32,0.2821,8751,3.9787,-24.4154
lg,1624800838230098109,0,-0.1226,-0.9534,0.4895,572,9.8267,-8.3008,-22.644,86,1.4467,1.5988,25.4412,-52.711,32,0.2801,8386,3.9787,-24.9333
lg,1624800838230115775,0,-0.1201,-1.0227,0.3999,573,21.2402,13.5498,-29.6021,86,1.4547,1.5978,24.107,-53.0642,32,0.2801,8810,3.9787,-26.4847
lg,1624800838230132831,0,-0.126,-0.9893,0.4827,574,45.105,30.2734,-4.6387,86,1.4627,1.5948,24.0157,-52.204,32,0.2831,10014,3.9787,-27.8596
lg,1624800838230150257,0,-0.2639,-0.8315,0.3779,575,42.2974,52.4292,33.0811,86,1.4647,1.5958,26.0475,-51.4496,32,0.2881,10592,3.9787,-29.0105
lg,1624800838230168164,0,-0.4883,-0.7634,0.5823,576,19.6533,41.8091,49.9268,86,1.4637,1.5958,28.4776,-51.0218,32,0.2851,8528,3.9787,-27.6056
lg,1624800838598883812,0,-0.7068,-0.667,0.4019,577,-42.5415,-90.7593,120.7275,86,1.4177,1.5998,29.6158,-49.0253,31,0.2721,27557,3.9787,-19.9727
lg,1624800838598980590,0,-0.1592,-0.7278,0.3997,578,-41.0767,-212.5244,81.604,86,1.4057,1.5988,25.67,-46.7409,32,0.2691,13919,3.9787,-10.6617
lg,1624800838599002460,0,0.2561,-1.1943,0.8713,579,-76.0498,-228.3936,50.7812,86,1.4017,1.5978,19.6176,-46.711,32,0.2691,10114,3.9787,-2.0864
lg,1624800838599090220,0,0.3674,-1.2192,0.5964,580,-36.6821,-116.6382,7.5073,86,1.4027,1.5988,15.4182,-47.6871,32,0.2691,8131,3.9787,1.5034
lg,1624800838599115294,0,0.2852,-1.0164,0.3145,581,-14.2822,-43.0908,-0.1221,86,1.4047,1.5998,14.7014,-48.4649,32,0.2711,8655,3.9787,0.621
lg,1624800838599133183,0,0.1992,-0.8997,0.3145,582,21.5454,59.4482,-9.1553,86,1.4107,1.6008,15.7895,-48.9257,32,0.2731,9855,3.9787,-3.0161
lg,1624800838599181664,0,0.0415,-0.842,0.4255,583,33.5083,130.188,-25.3906,86,1.4217,1.6018,17.6998,-49.5486,32,0.2761,9306,3.9787,-7.9877
lg,1624800838599202516,0,-0.2043,-0.8926,0.439,584,29.2969,177.124,-45.4102,86,1.4337,1.6028,20.5607,-51.2469,32,0.2751,9286,3.9787,-15.164
lg,1624800838599221201,0,-0.3691,-0.991,0.4277,585,26.6113,168.0908,-60.9131,86,1.4447,1.6028,22.6606,-53.4904,32,0.2761,8713,3.9787,-22.7045
lg,1624800838599239145,0,-0.4077,-0.9573,0.4814,586,36.9873,128.1738,-67.3828,86,1.4527,1.6018,23.3891,-54.8343,32,0.2791,8706,3.9787,-29.0831
lg,1624800838599256220,0,-0.3738,-0.9314,0.4033,587,50.0488,107.9712,-66.9556,86,1.4567,1.6008,23.4514,-55.5491,32,0.2771,8461,3.9787,-34.8171
lg,1624800838599273294,0,-0.3477,-0.8911,0.3259,588,53.894,72.4487,-70.9839,86,1.4597,1.5968,22.6253,-55.6622,32,0.2771,8741,3.9787,-39.3819
lg,1624800838599291275,0,-0.3567,-0.7544,0.3264,589,50.9033,36.8042,-39.6118,86,1.4617,1.5938,22.1999,-54.9183,32,0.2761,8027,3.9787,-41.8265
lg,1624800838599325683,0,-0.4766,-0.6987,0.3757,590,5.127,50.2319,45.8374,86,1.4637,1.5958,25.1875,-55.2158,32,0.2831,8813,3.9787,-42.5791
lg,1624800838599345164,0,-0.7739,-0.9951,0.6511,591,-42.9077,16.9678,111.2061,86,1.4607,1.5978,29.5325,-55.9612,32,0.2741,10769,3.9787,-40.4145
lg,1624800838599362960,0,-0.8518,-1.0166,0.5396,592,-41.5039,-35.0342,125.061,86,1.4517,1.6018,31.5426,-54.0007,32,0.2711,8868,3.9787,-33.7295
lg,1624800838599381442,0,-0.8313,-0.7341,0.4688,593,-26.3062,-139.2212,98.5107,86,1.4357,1.6028,31.7693,-50.9316,32,0.2731,8959,3.9787,-25.7557
lg,1624800838599398905,0,-0.3643,-0.4451,0.8477,594,-29.3579,-222.9614,102.8442,86,1.4217,1.6018,28.5849,-45.6645,32,0.2711,9084,3.9787,-14.3918
lg,1624800838599417238,0,-0.0745,-0.9377,0.582,595,-100.4028,-300.1099,75.8057,86,1.4107,1.5988,20.21,-45.4796,32,0.2711,8897,3.9787,-2.7591
lg,1624800838599435145,0,0.4285,-1.2529,0.4636,596,-50.415,-205.3223,30.3955,86,1.4087,1.5988,14.0601,-46.3127,32,0.2731,9073,3.9787,3.9796
lg,1624800838599454127,0,0.4436,-1.2046,0.5103,597,-22.7661,-108.9478,21.9116,86,1.4087,1.5998,10.4837,-47.1509,32,0.2741,8976,3.9787,7.6653
lg,1624800838599472497,0,0.3679,-0.9412,0.4036,598,19.4092,21.9116,15.2588,86,1.4107,1.6008,10.3996,-47.1406,32,0.2751,8255,3.9787,7.2961
lg,1624800838599491516,0,0.1331,-0.9009,0.4128,599,28.9917,105.2246,-2.1362,86,1.4177,1.6018,12.492,-47.3294,32,0.2771,9000,3.9787,3.9487
lg,1624800838599520701,0,-0.1357,-0.9324,0.3953,600,28.0151,141.1743,-15.1367,86,1.4277,1.6028,15.6497,-48.1331,32,0.2781,10184,3.9787,-0.9518
lg,1624800838599540034,0,-0.2773,-0.9087,0.3625,601,33.4473,133.4839,-26.4282,86,1.4387,1.6038,18.4044,-49.0155,32,0.2781,9107,3.9787,-6.0859
lg,1624800838599558775,0,-0.2734,-0.8547,0.4641,602,38.5742,118.5303,-27.771,86,1.4487,1.6028,20.0322,-48.8434,32,0.2811,9101,3.9787,-10.2411
lg,1624800838599577238,0,-0.2009,-0.8274,0.5095,603,60.0586,83.0688,-30.2124,86,1.4557,1.5998,20.8553,-47.9597,32,0.2821,9120,3.9787,-13.8559
lg,1624800838599596516,0,-0.1284,-0.8779,0.4949,604,46.875,83.313,-48.2178,86,1.4597,1.5918,21.1195,-48.0526,32,0.2761,9179,3.9787,-18.0792
lg,1624800838599613849,0,-0.2493,-0.8735,0.3916,605,38.208,78.6133,-29.4189,86,1.4597,1.5928,22.0955,-48.4802,32,0.2811,9203,3.9787,-21.7076
lg,1624800838599630775,0,-0.5371,-0.8337,0.3865,606,3.54,90.3931,34.1797,86,1.4647,1.5938,25.8227,-49.7627,32,0.2881,8830,3.9787,-23.9629
lg,1624800838599648553,0,-0.8506,-0.8701,0.5706,607,-33.7524,43.457,119.3237,86,1.4577,1.5978,31.105,-50.4015,32,0.2781,9200,3.9787,-22.1154
lg,1624800838599669034,0,-0.866,-0.6067,0.4565,608,-36.377,-4.3335,137.5732,86,1.4377,1.6008,34.2492,-48.4751,32,0.2741,9280,3.9787,-16.0807
lg,1624800838967201090,0,0.1409,-1.1267,0.6982,609,-99.9756,-309.2651,51.9409,86,1.3927,1.5958,26.0785,-46.7943,31,0.2741,28954,3.9787,-4.1931
lg,1624800838967235312,0,0.2637,-1.2102,0.376,610,-35.3394,-96.1304,-1.9531,86,1.3917,1.5948,22.122,-47.9901,31,0.2751,15128,3.9787,-1.5998
lg,1624800838967275923,0,0.2495,-1.1013,0.3186,611,-2.9907,-28.1982,2.5635,86,1.3917,1.5958,20.2499,-48.783,31,0.2771,8687,3.9787,-1.0047
lg,1624800838967295553,0,0.1699,-0.8303,0.3721,612,22.0337,54.8096,-6.8359,91,1.3947,1.5968,20.3365,-49.2715,32,0.2791,8340,3.9787,-3.203
lg,1624800838967318497,0,-0.0623,-0.8311,0.4143,613,15.4419,123.291,-16.6016,91,1.3997,1.5978,22.3417,-50.8857,32,0.2791,8610,3.9787,-7.9261
lg,1624800838967337145,0,-0.2859,-0.9338,0.3933,614,13.4277,136.3525,-21.3623,91,1.4097,1.5998,24.5053,-53.0505,32,0.2801,8692,3.9787,-13.3494
lg,1624800838967367053,0,-0.354,-0.9556,0.3845,615,14.1602,119.751,-28.8696,91,1.4187,1.6018,25.8615,-55.0225,32,0.2811,8876,3.9787,-18.4056
lg,1624800838967385090,0,-0.3826,-0.8784,0.3914,616,27.9541,87.6465,-28.5645,91,1.4317,1.6028,26.731,-56.0926,32,0.2831,12301,3.9787,-22.5465
lg,1624800838967403201,0,-0.3513,-0.8833,0.4543,617,32.8979,72.3877,-21.6064,91,1.4407,1.6028,26.9152,-55.7465,32,0.2861,8331,3.9787,-25.1282
lg,1624800838967430923,0,-0.1919,-0.8381,0.4895,618,42.1143,44.9219,-20.2637,91,1.4487,1.6018,26.6406,-55.2071,32,0.2861,8771,3.9787,-27.3808
lg,1624800838967448738,0,-0.0918,-0.9136,0.5474,619,33.3862,48.9502,-32.2876,91,1.4537,1.6008,25.8468,-55.1904,32,0.2861,8767,3.9787,-30.07
lg,1624800838967466275,0,-0.1023,-0.9683,0.4729,620,31.6772,70.3735,-38.0859,91,1.4597,1.5978,25.3867,-55.8237,32,0.2791,8835,3.9787,-33.7622
lg,1624800838967483219,0,-0.1606,-0.9514,0.4973,621,42.4194,93.689,-22.9492,91,1.4657,1.5948,26.0465,-56.1495,32,0.2771,10443,3.9787,-37.9033
lg,1624800838967499775,0,-0.374,-0.8489,0.325,622,39.917,109.8022,27.771,91,1.4697,1.5958,29.2477,-56.6698,32,0.2861,8490,3.9787,-41.5803
lg,1624800838967516442,0,-0.4829,-0.8032,0.4509,623,21.3013,101.5625,53.2837,91,1.4687,1.5978,33.1533,-57.3334,32,0.2821,8503,3.9787,-44.2971
lg,1624800838967533127,0,-0.7036,-0.7634,0.519,624,-25.0854,28.8696,93.75,91,1.4647,1.6018,37.0759,-57.5218,32,0.2731,8207,3.9787,-42.9921
lg,1624800838967549497,0,-0.8245,-0.6279,0.386,625,-39.0625,-72.2046,107.5439,91,1.4427,1.6018,39.4979,-55.2976,32,0.2681,8556,3.9787,-36.8927
lg,1624800838967566645,0,-0.8396,-0.6475,0.5593,626,-47.4243,-124.2676,116.2109,91,1.4237,1.6018,40.4617,-51.2514,32,0.2691,8583,3.9787,-27.8921
lg,1624800838967584108,0,-0.2686,-0.6274,0.4114,627,-39.917,-255.3101,80.9937,91,1.4107,1.5998,35.3572,-45.4897,32,0.2661,8992,3.9787,-15.6943
lg,1624800838967601071,0,-0.0701,-0.929,0.6892,628,-85.083,-280.1514,59.7534,91,1.4027,1.5968,27.5867,-43.5452,32,0.2641,9010,3.9787,-4.8285
lg,1624800838967617608,0,0.3198,-1.1248,0.4246,629,-74.2798,-281.1279,10.3149,91,1.4007,1.5968,18.3878,-44.0998,32,0.2641,8286,3.9787,3.4587
lg,1624800838967635127,0,0.396,-1.1836,0.4092,630,-36.438,-111.9385,-3.9673,91,1.4007,1.5968,13.8523,-45.6599,32,0.2641,8684,3.9787,6.3305
lg,1624800838967652090,0,0.1921,-0.978,0.3059,631,18.3716,36.0718,0.6104,91,1.4007,1.5958,13.9806,-46.2138,32,0.2651,8334,3.9787,5.0297
lg,1624800838967668682,0,0.0125,-0.8916,0.3892,632,32.4097,98.5107,3.6011,91,1.4017,1.5968,16.2419,-46.4655,32,0.2661,8632,3.9787,1.9778
lg,1624800838967684886,0,-0.252,-0.7395,0.3357,633,40.5273,149.7192,11.2305,91,1.4037,1.5978,20.7143,-46.941,32,0.2671,8336,3.9787,-2.5095
lg,1624800838967701682,0,-0.3477,-0.8083,0.5627,634,30.7617,122.7417,11.6577,91,1.4097,1.5988,24.3216,-47.3964,32,0.2691,8750,3.9787,-6.1877
lg,1624800838967718053,0,-0.261,-0.8594,0.5684,635,21.9116,76.2939,4.2725,91,1.4177,1.6008,26.0955,-47.905,32,0.2701,9116,3.9787,-8.7154
lg,1624800838967734738,0,-0.2217,-0.8726,0.5547,636,17.7612,61.4014,-2.0752,91,1.4267,1.6018,27.0847,-48.6038,32,0.2721,8787,3.9787,-11.0352
lg,1624800838967751497,0,-0.2114,-0.8982,0.5107,637,15.3198,56.0913,-7.4463,91,1.4337,1.6028,27.7259,-49.4717,32,0.2741,8790,3.9787,-13.3947
lg,1624800838967793293,0,-0.2156,-0.9146,0.4741,638,18.2495,55.9082,-12.8784,91,1.4427,1.6028,28.1573,-50.3867,32,0.2741,8845,3.9787,-15.9709
lg,1624800838967811738,0,-0.2014,-0.8801,0.467,639,35.3394,53.833,-22.644,91,1.4497,1.6038,28.1791,-50.6748,32,0.2771,9518,3.9787,-18.7502
lg,1624800838967863849,0,-0.1987,-0.895,0.5085,640,44.3726,63.9038,-28.9307,91,1.4557,1.6028,28.2256,-50.776,32,0.2791,8567,3.9787,-22.0296
lg,1624800839379025238,0,-0.3994,-0.7109,0.3223,641,31.311,28.4424,23.3154,91,1.4597,1.6028,29.6428,-50.2641,32,0.2781,25426,3.9787,-22.6369
lg,1624800839379100071,0,-0.6094,-0.709,0.4365,642,-14.7095,-7.3242,96.9849,91,1.4467,1.6058,32.6191,-49.1379,32,0.2701,16628,3.9787,-18.7492
lg,1624800839379122719,0,-0.7053,-0.6782,0.6392,643,-12.7563,-39.4897,110.9009,91,1.4347,1.6048,35.027,-46.7543,32,0.2721,8003,3.9787,-13.7015
lg,1624800839379142867,0,-0.4431,-0.521,0.3298,644,16.6016,-129.3945,58.5938,91,1.4247,1.6038,33.0764,-42.9022,32,0.2681,8370,3.9787,-7.513
lg,1624800839379163367,0,-0.157,-0.8086,0.6462,645,-42.1753,-154.1138,49.1943,91,1.4197,1.6028,27.4534,-41.4703,32,0.2681,8194,3.9787,-0.2731
lg,1624800839379183164,0,-0.0503,-0.8811,0.3926,646,-36.1938,-202.5146,16.8457,91,1.4177,1.6018,21.0134,-41.2946,32,0.2671,9069,3.9787,5.6801
lg,1624800839379207960,0,0.0078,-1.0151,0.4199,647,-23.6206,-119.6289,6.958,91,1.4177,1.6008,16.8937,-42.1176,32,0.2671,8889,3.9787,8.8958
lg,1624800839379227256,0,0.1208,-0.9238,0.4651,648,17.395,-51.0864,10.2539,91,1.4177,1.5998,14.7908,-41.7874,32,0.2661,8024,3.9787,10.3862
lg,1624800839379247460,0,0.1001,-0.8608,0.4963,649,29.9683,-15.3809,4.0894,91,1.4187,1.5988,14.5514,-41.0672,32,0.2661,8030,3.9787,9.7798
lg,1624800839379268849,0,-0.0088,-0.7959,0.4165,650,41.5039,38.9404,-6.4087,91,1.4207,1.5998,15.0436,-40.5772,32,0.2651,8370,3.9787,8.3061
lg,1624800839379287330,0,-0.1753,-0.7625,0.3057,651,44.6167,73.4863,-17.1509,91,1.4237,1.5998,16.7614,-40.5501,32,0.2661,8071,3.9787,5.4951
lg,1624800839379308238,0,-0.2324,-0.7568,0.2983,652,49.2554,84.1064,-14.7705,91,1.4267,1.5998,19.3132,-40.184,32,0.2651,8078,3.9787,2.4867
lg,1624800839379327423,0,-0.3127,-0.7366,0.293,653,63.6597,78.3081,-3.1738,91,1.4297,1.5968,21.7899,-39.4876,32,0.2661,8852,3.9787,-0.116
lg,1624800839379347497,0,-0.2888,-0.6624,0.2327,654,73.1201,51.4526,10.1318,91,1.4327,1.6008,23.7714,-38.1491,32,0.2671,8432,3.9787,-1.6134
lg,1624800839379369349,0,-0.3237,-0.6694,0.2144,655,77.5757,42.3584,23.6816,91,1.4367,1.6018,25.8655,-36.4448,32,0.2681,8127,3.9787,-2.43
lg,1624800839379427015,0,-0.3293,-0.6973,0.2749,656,79.2847,46.4478,35.6445,91,1.4417,1.6028,28.25,-34.4688,32,0.2691,8553,3.9787,-2.8814
lg,1624800839379449071,0,-0.3499,-0.8264,0.4517,657,87.6465,43.7622,60.73,91,1.4457,1.6038,30.8321,-31.4583,32,0.2711,8565,3.9787,-2.1696
lg,1624800839379466941,0,-0.2263,-0.8438,0.5869,658,92.7124,15.0146,68.2373,91,1.4507,1.6048,32.0815,-27.5411,32,0.2711,8263,3.9787,-0.2964
lg,1624800839379483589,0,-0.0862,-0.8093,0.5828,659,108.0933,21.4844,65.6128,91,1.4547,1.6038,33.0846,-23.1736,32,0.2751,8739,3.9787,1.3949
lg,1624800839379502812,0,-0.0608,-0.8032,0.5391,660,109.8633,41.9312,64.0259,91,1.4607,1.6038,34.6726,-19.0614,32,0.2741,9076,3.9787,2.7077
lg,1624800839379521330,0,-0.1702,-0.8198,0.5483,661,113.4644,98.6328,42.9077,91,1.4637,1.6038,38.2457,-15.896,32,0.2721,10726,3.9787,2.2776
lg,1624800839379920330,0,-0.3083,-0.7764,0.4526,662,123.23,125.9766,46.5088,91,1.4647,1.6038,43.1904,-12.4678,32,0.2741,8615,3.9787,1.7818
lg,1624800839379942997,0,-0.4517,-0.5896,0.426,663,124.3286,122.6196,58.4717,91,1.4657,1.6038,48.3012,-7.8829,32,0.2831,9040,3.9787,2.5622
lg,1624800839379994756,0,-0.4822,-0.4729,0.5718,664,109.8633,88.3789,87.2803,91,1.4667,1.6048,51.7187,-1.2744,32,0.2761,9194,3.9787,6.3453
lg,1624800839380020108,0,-0.5388,-0.4514,0.6362,665,98.2056,74.4629,89.0503,91,1.4657,1.6048,54.1538,5.7388,32,0.2691,9203,3.9787,11.0531
lg,1624800839380040330,0,-0.6033,-0.4792,0.6604,666,96.3745,72.937,83.313,91,1.4647,1.6068,56.3016,12.7962,32,0.2671,8769,3.9787,15.8711
lg,1624800839380059052,0,-0.7419,-0.5493,0.687,667,93.3228,50.5981,73.1201,91,1.4617,1.6048,57.3867,19.1843,32,0.2651,9151,3.9787,19.9721
lg,1624800839380077812,0,-0.7727,-0.5774,0.7148,668,92.9565,-1.1597,60.1807,91,1.4597,1.6058,56.5225,23.5929,32,0.2631,8792,3.9787,21.7594
lg,1624800839380096793,0,-0.6204,-0.5068,0.8347,669,93.0786,-59.9976,38.6353,91,1.4597,1.6048,53.4897,25.1368,32,0.2641,8812,3.9787,20.1534
lg,1624800839380115664,0,-0.6152,-0.6433,0.7256,670,84.8999,-105.835,15.0757,91,1.4597,1.6038,49.5238,24.1338,32,0.2661,9217,3.9787,15.8636
lg,1624800839380164312,0,-0.5154,-0.7158,0.8022,671,79.7119,-115.3564,15.4419,91,1.4597,1.6028,44.658,23.073,32,0.2661,9244,3.9787,11.2906
lg,1624800839385351534,0,-0.4692,-0.7058,0.7908,672,93.75,-143.8599,3.8452,91,1.4597,1.6018,39.3515,22.3943,32,0.2671,8893,3.9787,6.6739
lg,1624800839703497182,0,-0.2153,-0.5769,0.8765,673,102.8442,-111.5723,10.376,91,1.4597,1.6008,34.6679,23.1662,31,0.2701,25962,3.9787,3.4984
lg,1624800839703549423,0,-0.1675,-0.5725,0.9336,674,98.6938,-77.0264,14.0381,91,1.4597,1.6008,31.193,24.4358,31,0.2691,9384,3.9787,1.3611
lg,1624800839703569867,0,-0.1926,-0.572,0.979,675,99.0601,-44.0674,13.0615,91,1.4597,1.6008,29.0526,26.1009,32,0.2691,11051,3.9787,-0.0789
lg,1624800839703589219,0,-0.2095,-0.5979,1.0115,676,96.3135,-24.4751,13.5498,91,1.4597,1.5998,27.7033,27.8324,32,0.2691,8534,3.9787,-1.083
lg,1624800839703608089,0,-0.217,-0.5801,1.0071,677,97.5952,-10.6201,9.9487,91,1.4597,1.5988,26.9697,29.6665,32,0.2661,11191,3.9787,-1.9236
lg,1624800839703626571,0,-0.2129,-0.5376,0.9829,678,96.3135,4.6997,9.7656,91,1.4597,1.5988,26.7913,31.5896,32,0.2651,9547,3.9787,-2.4186
lg,1624800839703645108,0,-0.2488,-0.5173,0.9531,679,92.5903,12.7563,9.2163,91,1.4607,1.5988,26.9891,33.4204,32,0.2641,7978,3.9787,-2.7435
lg,1624800839703664626,0,-0.271,-0.4629,0.9463,680,89.4165,14.5874,7.2021,91,1.4597,1.5988,27.3279,35.1737,32,0.2631,7997,3.9787,-3.068
lg,1624800839703686478,0,-0.4282,-0.3796,1.0039,681,83.0688,21.9116,3.8452,91,1.4597,1.5988,28.0915,36.5865,32,0.2631,10731,3.9787,-3.4552
lg,1624800839703705645,0,-0.5076,-0.3374,1.0444,682,73.6694,5.6763,0.4883,91,1.4587,1.5978,28.541,37.6951,32,0.2621,8126,3.9787,-4.1872
lg,1624800839703725219,0,-0.6365,-0.333,1.1418,683,62.2559,-24.1089,0.7324,91,1.4587,1.5968,28.1432,38.0239,32,0.2621,8128,3.9787,-5.7257
lg,1624800839703742997,0,-0.6768,-0.3359,1.229,684,55.6641,-45.8984,5.127,91,1.4577,1.5968,25.9869,37.4542,32,0.2601,8174,3.9787,-8.2568
lg,1624800839703761126,0,-0.6567,-0.3496,1.2554,685,44.2505,-104.126,14.2212,91,1.4577,1.5968,22.7125,36.5032,32,0.2611,8200,3.9787,-11.3102
lg,1624800839703812237,0,-0.4521,-0.3643,1.1821,686,34.1187,-164.3066,20.4468,91,1.4577,1.5968,17.1492,34.8825,32,0.2611,8633,3.9787,-15.4081
lg,1624800839703833645,0,-0.2185,-0.4026,1.1511,687,26.123,-190.1245,20.4468,91,1.4587,1.5968,10.4158,33.1821,32,0.2611,8880,3.9787,-19.6536
lg,1624800839703851663,0,-0.1167,-0.4167,1.1252,688,22.3999,-188.6597,22.0337,91,1.4587,1.5978,3.3872,31.8134,32,0.2611,8287,3.9787,-23.3302
lg,1624800839703870126,0,0.0688,-0.4446,1.0911,689,20.6909,-154.1138,22.583,91,1.4597,1.5978,-2.5325,30.7838,32,0.2601,8350,3.9787,-25.8742
lg,1624800839703888886,0,0.1646,-0.4724,1.0962,690,20.874,-90.4541,15.1978,91,1.4597,1.5968,-6.1973,29.8869,32,0.2601,8363,3.9787,-27.1019
lg,1624800839703906923,0,0.1494,-0.499,1.0947,691,22.2168,-56.5796,11.9019,91,1.4607,1.5978,-7.2596,29.0778,32,0.2601,8314,3.9787,-27.1998
lg,1624800839703925700,0,0.0967,-0.4932,1.0737,692,28.4424,1.8921,2.0752,91,1.4597,1.5948,-7.2457,28.3558,32,0.2601,8392,3.9787,-26.8546
lg,1624800839703944293,0,-0.0156,-0.4565,1.0288,693,35.2173,36.1938,-8.7891,91,1.4617,1.5988,-5.6009,27.9071,32,0.2611,8383,3.9787,-26.2479
lg,1624800839703961867,0,-0.0889,-0.3933,1.0044,694,40.9546,48.4619,-10.9863,91,1.4617,1.5978,-3.359,27.775,32,0.2611,8418,3.9787,-25.5577
lg,1624800839703980645,0,-0.1592,-0.3433,0.9482,695,41.0156,44.4336,-18.4937,91,1.4617,1.5978,-1.007,27.7419,32,0.2611,8426,3.9787,-25.2839
lg,1624800839703999052,0,-0.3022,-0.2397,0.9385,696,39.6118,17.334,-28.5034,91,1.4607,1.5988,0.8388,27.8671,32,0.2641,8436,3.9787,-25.9416
lg,1624800839704017849,0,-0.3999,-0.1533,0.9719,697,31.8604,-11.1084,-21.9727,91,1.4617,1.5978,1.6877,27.8495,32,0.2661,11351,3.9787,-26.9466
lg,1624800839704035774,0,-0.4761,-0.1653,1.0857,698,19.6533,-42.7856,-1.1597,91,1.4607,1.5968,1.0507,27.3696,32,0.2671,8477,3.9787,-27.8253
lg,1624800839704054645,0,-0.4446,-0.2183,1.1777,699,8.5449,-94.2993,17.4561,91,1.4617,1.5968,-1.8573,26.4087,32,0.2671,8573,3.9787,-28.9455
lg,1624800839704072163,0,-0.3831,-0.2346,1.196,700,3.8452,-123.1079,21.3013,91,1.4617,1.5968,-7.1161,25.1142,32,0.2691,8631,3.9787,-30.5456
lg,1624800839704114311,0,-0.1572,-0.2996,1.2102,701,-1.8311,-168.8232,30.2734,91,1.4617,1.5958,-13.2303,23.906,32,0.2691,8557,3.9787,-32.1054
lg,1624800839704139293,0,0.0486,-0.365,1.1296,702,-4.5166,-192.627,30.4565,91,1.4627,1.5978,-20.4466,22.7325,32,0.2711,8653,3.9787,-33.769
lg,1624800839704157830,0,0.3113,-0.4221,1.0542,703,-5.6763,-176.8799,27.3438,91,1.4637,1.5968,-27.3809,21.5583,32,0.2721,8665,3.9787,-34.9934
lg,1624800839704176163,0,0.4434,-0.439,1.0034,704,-4.5166,-149.6582,24.7192,91,1.4637,1.5978,-31.8962,20.2348,32,0.2731,8966,3.9787,-35.1877
lg,1624800840086096682,0,0.2805,-0.3723,0.9683,705,12.207,41.5649,-7.9956,91,1.4647,1.5978,-28.7158,18.8618,32,0.2741,27550,3.9787,-33.7263
lg,1624800840086158145,0,-0.0027,-0.3293,1.0042,706,13.1226,84.8999,-8.8501,91,1.4647,1.5968,-24.5082,17.4953,32,0.2741,10191,3.9787,-32.1821
lg,1624800840086181145,0,-0.1223,-0.2881,1.0493,707,12.207,72.876,-4.8828,91,1.4657,1.5968,-20.6511,16.382,32,0.2751,8310,3.9787,-30.9166
lg,1624800840086202533,0,-0.1189,-0.2749,1.075,708,11.2305,48.2788,3.9062,91,1.4657,1.5968,-17.9272,15.3701,32,0.2751,8626,3.9787,-29.7688
lg,1624800840086264293,0,-0.1023,-0.2847,1.0989,709,9.4604,35.2783,7.2632,91,1.4667,1.5968,-16.3564,14.2743,32,0.2751,8813,3.9787,-28.7547
lg,1624800840086286441,0,-0.0042,-0.3118,1.0916,710,7.5073,18.3716,11.4746,91,1.4667,1.5968,-15.1882,13.2101,32,0.2751,9170,3.9787,-27.7769
lg,1624800840086309219,0,0.095,-0.3208,1.0564,711,7.9346,22.644,11.2915,91,1.4647,1.5968,-14.0767,12.1851,32,0.2761,8905,3.9787,-26.8074
lg,1624800840086330663,0,0.1497,-0.3311,1.0005,712,7.5073,48.2788,10.376,91,1.4667,1.5968,-12.1095,11.1262,32,0.2761,8309,3.9787,-25.7017
lg,1624800840086350663,0,0.1235,-0.3105,0.9678,713,7.3853,65.979,7.019,91,1.4677,1.5968,-8.596,10.1998,32,0.2761,8691,3.9787,-24.7006
lg,1624800840086369552,0,-0.0481,-0.2881,0.875,714,8.4839,118.1641,0.061,91,1.4677,1.5958,-3.5405,9.3667,32,0.2771,10686,3.9787,-23.728
lg,1624800840086388422,0,-0.1428,-0.2612,0.8552,715,6.5308,130.9814,0.3662,91,1.4667,1.5958,2.0916,8.6211,32,0.2771,7924,3.9787,-22.834
lg,1624800840086406182,0,-0.3098,-0.2366,0.8662,716,-1.2817,149.0479,10.5591,91,1.4677,1.5968,8.5709,7.8154,32,0.2771,8921,3.9787,-21.5948
lg,1624800840086458756,0,-0.4714,-0.2537,0.9299,717,-7.5684,137.3291,20.3247,91,1.4667,1.5958,14.5912,7.007,32,0.2771,8358,3.9787,-20.1765
lg,1624800840086478089,0,-0.5564,-0.2971,0.9834,718,-6.4087,85.083,23.4985,91,1.4677,1.5968,18.4292,6.303,32,0.2771,8770,3.9787,-19.0084
lg,1624800840086496071,0,-0.571,-0.3127,0.9929,719,-4.2114,50.4761,26.4282,91,1.4687,1.5958,20.7228,5.7401,32,0.2781,8766,3.9787,-17.9385
lg,1624800840086513959,0,-0.4822,-0.2778,1.0142,720,-1.4038,-12.5122,28.0151,91,1.4677,1.5948,20.316,5.2907,32,0.2771,8051,3.9787,-17.0829
lg,1624800840086531608,0,-0.303,-0.3035,1.0308,721,-4.5776,-56.7627,27.9541,91,1.4677,1.5958,17.8331,4.5708,32,0.2771,8891,3.9787,-16.4104
lg,1624800840086549219,0,-0.1443,-0.3535,1.0244,722,-6.5308,-67.9321,26.6113,91,1.4677,1.5958,14.6324,3.5825,32,0.2771,8539,3.9787,-15.8681
lg,1624800840086567126,0,-0.0847,-0.3694,1.032,723,-7.3853,-65.1855,21.1792,91,1.4687,1.5968,11.6323,2.5353,32,0.2771,8566,3.9787,-15.3739
lg,1624800840086586108,0,0.0105,-0.3376,1.0071,724,-4.7607,-39.1846,16.8457,91,1.4677,1.5958,9.5944,1.6314,32,0.2771,8554,3.9787,-14.9124
lg,1624800840086603830,0,-0.0085,-0.354,1.0039,725,-2.9297,-2.2583,15.3809,87,1.4677,1.5958,9.1531,0.7898,32,0.2781,8960,3.9798,-14.4275
lg,1624800840086621515,0,-0.0654,-0.3333,1.0051,726,-2.9907,25.3296,13.3057,87,1.4677,1.5948,9.9538,0.0088,32,0.2761,13054,3.9798,-14.0002
lg,1624800840086641015,0,-0.1611,-0.3298,0.9971,727,-3.2349,39.1235,14.5264,87,1.4677,1.5958,11.4843,-0.729,32,0.2761,8981,3.9798,-13.5438
lg,1624800840086659052,0,-0.2124,-0.3325,0.9875,728,-2.3804,40.2222,17.7612,87,1.4677,1.5958,13.1192,-1.3738,32,0.2761,8971,3.9798,-12.9877
lg,1624800840086678422,0,-0.2542,-0.3303,0.9905,729,-2.6855,33.2642,25.5127,87,1.4677,1.5948,14.5137,-1.9054,32,0.2751,8643,3.9798,-12.1294
lg,1624800840086697404,0,-0.2598,-0.3132,1.0068,730,-3.0518,28.8086,26.2451,87,1.4677,1.5948,15.6888,-2.3601,32,0.2751,8673,3.9798,-11.2402
lg,1624800840086715256,0,-0.2468,-0.3186,1.0037,731,-3.9673,19.104,29.8462,87,1.4677,1.5948,16.4205,-2.7889,32,0.2761,9739,3.9798,-10.1994
lg,1624800840086748811,0,-0.2288,-0.3381,1.011,732,-5.6763,14.4653,29.7241,87,1.4667,1.5948,16.9071,-3.2948,32,0.2751,9498,3.9798,-9.1701
lg,1624800840086766478,0,-0.218,-0.3647,1.0205,733,-5.9814,11.3525,28.2593,87,1.4687,1.5938,17.2313,-3.8503,32,0.2741,10951,3.9798,-8.2108
lg,1624800840086785682,0,-0.2073,-0.3638,0.9844,734,-3.2959,12.9395,25.5127,87,1.4677,1.5948,17.6007,-4.3325,32,0.2751,9330,3.9798,-7.3788
lg,1624800840086802830,0,-0.2314,-0.3645,0.9834,735,-0.5493,14.7095,21.7896,87,1.4677,1.5948,18.0707,-4.7303,32,0.2751,9153,3.9798,-6.7099
lg,1624800840086819200,0,-0.2756,-0.3367,0.9565,736,-0.4883,15.9912,19.5312,87,1.4677,1.5958,18.6759,-5.0919,32,0.2751,8805,3.9798,-6.1297
lg,1624800840461244626,0,-0.3101,-0.302,0.9739,737,0.3662,0.7324,17.7002,87,1.4677,1.5948,18.4465,-5.345,32,0.2731,26213,3.9798,-5.5104
lg,1624800840461288552,0,-0.2974,-0.2937,0.9678,738,-1.4038,-19.2871,17.4561,87,1.4687,1.5948,17.4228,-5.6361,31,0.2731,15267,3.9798,-4.8555
lg,1624800840461309144,0,-0.2329,-0.272,0.9724,739,-3.3569,-27.832,16.1743,87,1.4677,1.5938,16.2144,-5.9402,31,0.2721,8220,3.9798,-4.1855
lg,1624800840461328348,0,-0.2004,-0.3083,0.9773,740,-4.8218,-30.2124,17.8223,87,1.4677,1.5938,14.8981,-6.3607,31,0.2721,9839,3.9798,-3.4443
lg,1624800840461346237,0,-0.1792,-0.3438,0.9785,741,-5.0049,-24.4751,17.0898,87,1.4677,1.5948,13.8167,-6.8745,32,0.2711,7955,3.9798,-2.76
lg,1624800840461363737,0,-0.1772,-0.3337,0.9929,742,-4.3335,-20.5078,16.6626,87,1.4677,1.5938,13.0726,-7.3328,32,0.2701,8804,3.9798,-2.1058
lg,1624800840461380589,0,-0.1711,-0.3379,0.9919,743,-3.3569,-14.7095,16.4185,87,1.4687,1.5948,12.4673,-7.7293,32,0.2701,9679,3.9798,-1.4562
lg,1624800840461397718,0,-0.1836,-0.3333,1.0034,744,-1.5869,-11.0474,14.2212,87,1.4677,1.5938,12.0105,-8.0775,32,0.2691,8641,3.9798,-0.9086
lg,1624800840461414237,0,-0.1851,-0.3401,1.0256,745,-0.061,-9.2163,14.2212,87,1.4687,1.5938,11.6416,-8.356,32,0.2691,7917,3.9798,-0.3643
lg,1624800840461432793,0,-0.1975,-0.3479,1.0112,746,0.1831,-9.0332,16.0522,87,1.4687,1.5938,11.3381,-8.6265,32,0.2681,7956,3.9798,0.2533
lg,1624800840461474459,0,-0.188,-0.3464,1.0227,747,0.5493,-8.1787,14.8926,87,1.4677,1.5938,11.0784,-8.8994,32,0.2681,9926,3.9798,0.8209
lg,1624800840461494978,0,-0.1821,-0.3354,0.999,748,0.8545,-5.5542,15.686,87,1.4677,1.5938,10.9106,-9.118,32,0.2671,8337,3.9798,1.4141
lg,1624800840461512330,0,-0.1936,-0.3254,0.9905,749,0.8545,-1.3428,15.4419,87,1.4687,1.5938,10.9435,-9.3203,32,0.2661,9765,3.9798,1.9759
lg,1624800840461530107,0,-0.2317,-0.3447,1.0056,750,0.4883,-0.3662,16.9678,87,1.4677,1.5938,11.0966,-9.5442,32,0.2661,8083,3.9798,2.5887
lg,1624800840461546978,0,-0.2117,-0.3296,0.9866,751,0.4883,-0.4272,16.7236,87,1.4687,1.5938,11.21,-9.7433,32,0.2661,8034,3.9798,3.1959
lg,1624800840461563737,0,-0.22,-0.3279,0.9897,752,0.9766,-0.9766,16.6016,87,1.4677,1.5938,11.3146,-9.9081,32,0.2651,9250,3.9798,3.804
lg,1624800840461580033,0,-0.2449,-0.3406,0.9863,753,1.2817,-3.2349,16.7847,87,1.4687,1.5938,11.3813,-10.0751,32,0.2651,8604,3.9798,4.4309
lg,1624800840461597107,0,-0.2422,-0.3372,0.9868,754,1.8921,-6.7139,16.6626,87,1.4687,1.5938,11.3043,-10.2003,32,0.2651,8553,3.9798,5.0803
lg,1624800840461614070,0,-0.2551,-0.3406,0.988,755,2.1362,-9.3384,16.4795,87,1.4687,1.5938,11.153,-10.315,32,0.2651,8589,3.9798,5.742
lg,1624800840461630904,0,-0.2363,-0.3188,0.9917,756,2.1362,-12.6953,16.4185,87,1.4687,1.5938,10.8383,-10.3783,32,0.2641,8552,3.9798,6.4363
lg,1624800840461648533,0,-0.2419,-0.3376,0.9846,757,2.8687,-15.3198,15.3198,87,1.4687,1.5938,10.4392,-10.4615,32,0.2641,8974,3.9798,7.0997
lg,1624800840461741885,0,-0.2441,-0.3247,0.9807,758,2.8687,-19.2261,16.1133,87,1.4687,1.5938,9.9171,-10.5121,32,0.2651,8633,3.9798,7.8307
lg,1624800840461774126,0,-0.2134,-0.3289,0.9844,759,3.418,-20.3857,16.6626,87,1.4687,1.5938,9.3283,-10.5228,32,0.2641,9016,3.9798,8.5976
lg,1624800840461792385,0,-0.2092,-0.2917,0.9746,760,3.418,-22.583,16.3574,87,1.4687,1.5928,8.6529,-10.4965,32,0.2651,8330,3.9798,9.3774
lg,1624800840461808978,0,-0.2217,-0.3137,1.0046,761,2.1362,-24.231,15.9302,87,1.4697,1.5938,7.9481,-10.5588,32,0.2641,8386,3.9798,10.1498
lg,1624800840461955737,0,-0.2058,-0.3235,0.9946,762,1.0986,-25.6958,17.0288,87,1.4697,1.5938,7.1935,-10.6895,32,0.2651,8755,3.9798,10.9765
lg,1624800840461980885,0,-0.2019,-0.3384,0.9854,763,1.6479,-26.8555,17.5171,87,1.4697,1.5928,6.4291,-10.8169,32,0.2641,9120,3.9798,11.8343
lg,1624800840462000181,0,-0.1853,-0.3198,1.0232,764,3.2349,-31.0669,16.3574,87,1.4697,1.5908,5.4695,-10.8499,32,0.2641,9124,3.9798,12.6874
lg,1624800840462019570,0,-0.1692,-0.3259,1.0186,765,2.5635,-33.9355,15.1978,87,1.4677,1.5918,4.3955,-10.9411,32,0.2641,9225,3.9798,13.5191
lg,1624800840462040811,0,-0.1367,-0.3335,1.0127,766,2.1973,-33.3252,13.855,87,1.4707,1.5928,3.313,-11.0829,32,0.2641,8506,3.9798,14.2983
lg,1624800840462058941,0,-0.1123,-0.3186,1.0071,767,2.9907,-27.6489,12.3901,87,1.4707,1.5928,2.4364,-11.1802,32,0.2631,8929,3.9798,14.9848
lg,1624800840462089626,0,-0.1028,-0.3223,1.0225,768,2.6855,-24.6582,13.7939,87,1.4697,1.5918,1.8633,-11.3171,32,0.2631,9371,3.9798,15.6401
lg,1624800840837175959,0,-0.1301,-0.3271,1.02,769,2.2583,-3.7231,13.7939,87,1.4697,1.5928,2.0269,-11.4585,32,0.2631,29517,3.9798,16.2024
lg,1624800840837215052,0,-0.1394,-0.314,0.9998,770,2.0142,-1.9531,15.3198,87,1.4707,1.5928,2.2924,-11.5863,32,0.2621,9284,3.9798,16.8105
lg,1624800840837235644,0,-0.1572,-0.3237,1.0037,771,2.0752,-0.6104,14.1602,87,1.4707,1.5928,2.6274,-11.7225,32,0.2621,12211,3.9798,17.3606
lg,1624800840837254533,0,-0.1738,-0.3198,0.9915,772,1.5869,-0.1831,14.5264,87,1.4707,1.5918,3.0093,-11.8684,32,0.2621,10910,3.9798,17.9204
lg,1624800840837275700,0,-0.165,-0.3149,0.9983,773,1.8311,-0.2441,13.5498,87,1.4707,1.5918,3.3467,-11.9833,32,0.2621,8591,3.9798,18.4418
lg,1624800840837294607,0,-0.168,-0.3171,0.9827,774,1.4648,-0.5493,14.7095,87,1.4707,1.5918,3.7031,-12.1137,32,0.2621,7867,3.9798,19.0095
lg,1624800840837327829,0,-0.1931,-0.3318,1.0105,775,1.4648,-1.5259,14.4043,87,1.4707,1.5918,4.0253,-12.2496,32,0.2621,7858,3.9798,19.5715
lg,1624800840837347200,0,-0.176,-0.3235,1.0093,776,0.7935,-2.8076,14.7705,87,1.4707,1.5918,4.2553,-12.3872,32,0.2611,11350,3.9798,20.1591
lg,1624800840837364070,0,-0.1753,-0.3247,0.9978,777,1.2817,-7.2021,15.564,87,1.4707,1.5928,4.3156,-12.5031,32,0.2621,8903,3.9798,20.8148
lg,1624800840837382218,0,-0.1606,-0.3079,0.9944,778,1.2817,-5.8594,13.5498,87,1.4717,1.5938,4.381,-12.5888,32,0.2611,8710,3.9798,21.3827
lg,1624800840837399755,0,-0.1567,-0.3228,0.9929,779,1.3428,-4.5166,13.0615,87,1.4707,1.5928,4.5337,-12.7105,32,0.2611,8707,3.9798,21.9289
lg,1624800840837416422,0,-0.1736,-0.3108,0.9824,780,0.4883,-1.6479,12.8784,87,1.4717,1.5918,4.7817,-12.835,32,0.2611,8769,3.9798,22.4326
lg,1624800840837433440,0,-0.1797,-0.3225,1.0034,781,0.7935,-1.9531,13.7329,87,1.4707,1.5918,5.0213,-12.9476,32,0.2611,8393,3.9798,22.9713
lg,1624800840837449737,0,-0.1731,-0.324,1.0127,782,0.3662,-4.8218,15.686,87,1.4717,1.5918,5.1417,-13.0592,32,0.2611,8066,3.9798,23.6124
lg,1624800840837466126,0,-0.1733,-0.3164,0.9954,783,0.7324,-5.4321,14.8926,87,1.4717,1.5918,5.2345,-13.1487,32,0.2601,8071,3.9798,24.2286
lg,1624800840837482385,0,-0.1714,-0.3298,0.9885,784,1.1597,-6.6528,16.9067,87,1.4717,1.5908,5.2926,-13.2405,31,0.2601,8813,3.9798,24.932
lg,1624800840837498866,0,-0.1799,-0.3274,0.9949,785,1.0376,-6.897,16.5405,87,1.4717,1.5918,5.3526,-13.3245,31,0.2601,10909,3.9798,25.6247
lg,1624800840837515718,0,-0.1782,-0.3242,1.0112,786,0.7324,-7.5073,17.4561,87,1.4717,1.5918,5.3872,-13.3958,31,0.2601,8551,3.9798,26.3607
lg,1624800840837532052,0,-0.1689,-0.3264,1.0044,787,0.7324,-7.9346,17.0898,87,1.4717,1.5918,5.3841,-13.4742,31,0.2601,8966,3.9798,27.086
lg,1624800840837548033,0,-0.1589,-0.3201,1.0107,788,0.9766,-8.1787,16.6016,87,1.4717,1.5918,5.375,-13.5668,32,0.2601,8611,3.9798,27.7533
lg,1624800840837564311,0,-0.1555,-0.3293,1.0146,789,0.7935,-7.3242,16.2354,87,1.4717,1.5928,5.3587,-13.6394,32,0.2601,8987,3.9798,28.4406
lg,1624800840837594144,0,-0.1555,-0.3186,0.9944,790,1.3428,-6.1035,15.2588,87,1.4717,1.5928,5.3887,-13.6832,32,0.2601,8498,3.9798,29.0794
lg,1624800840837612718,0,-0.1689,-0.3196,1.0071,791,0.9155,-5.4321,14.3433,87,1.4717,1.5918,5.4166,-13.7378,32,0.2591,8675,3.9798,29.677
lg,1624800840837629107,0,-0.1577,-0.3062,0.989,792,1.5259,-5.0659,14.2212,87,1.4717,1.5908,5.483,-13.7521,32,0.2591,9133,3.9798,30.2679
lg,1624800840837645977,0,-0.1558,-0.3145,1.0122,793,1.5259,-6.2866,14.8315,87,1.4727,1.5918,5.4935,-13.7644,32,0.2591,9092,3.9798,30.8941
lg,1624800840837662126,0,-0.1453,-0.3108,1.011,794,1.4648,-7.9346,14.4653,87,1.4727,1.5918,5.415,-13.7724,32,0.2591,9831,3.9798,31.5225
lg,1624800840837678755,0,-0.1567,-0.322,1.0085,795,1.6479,-8.8501,13.1836,87,1.4717,1.5918,5.3162,-13.8017,32,0.2591,8514,3.9798,32.1074
lg,1624800840837695737,0,-0.1516,-0.3088,1.0046,796,1.5259,-7.8125,11.8408,87,1.4717,1.5918,5.2402,-13.8171,32,0.2591,9956,3.9798,32.6327
lg,1624800840837711996,0,-0.1428,-0.3215,0.9927,797,1.9531,-5.249,12.3291,87,1.4727,1.5908,5.2552,-13.8495,32,0.2581,9662,3.9798,33.1495
lg,1624800840837728255,0,-0.1453,-0.3286,1.0173,798,1.5259,-4.0894,12.3901,87,1.4727,1.5918,5.3663,-13.8604,32,0.2591,9204,3.9798,33.6337
lg,1624800840838009977,0,-0.1543,-0.3035,0.9883,799,1.9531,-3.7842,13.7329,87,1.4727,1.5918,5.4739,-13.851,32,0.2591,8495,3.9798,34.1944
lg,1624800840838029533,0,-0.168,-0.3264,1.0037,800,2.1362,-4.5776,12.4512,87,1.4717,1.5918,5.5564,-13.8747,32,0.2581,9275,3.9798,34.709
lg,1624800841199913570,0,-0.1736,-0.3264,1.0044,801,1.4648,-7.0801,15.9302,87,1.4727,1.5908,5.584,-13.9077,32,0.2591,26666,3.9798,35.3835
lg,1624800841199952848,0,-0.1655,-0.3193,1.0093,802,1.0376,-8.5449,16.7847,87,1.4727,1.5908,5.4934,-13.9942,32,0.2581,11718,3.9798,36.0728
lg,1624800841199973496,0,-0.1516,-0.3171,1.0081,803,1.2817,-12.0239,16.4795,87,1.4727,1.5908,5.2925,-14.0046,32,0.2581,9597,3.9798,36.8196
lg,1624800841200004477,0,-0.1382,-0.3167,1.009,804,0.8545,-11.9019,15.3198,87,1.4727,1.5908,5.0648,-14.0371,32,0.2571,7920,3.9798,37.5205
lg,1624800841200023125,0,-0.1401,-0.3081,1.0027,805,0.1221,-11.2305,16.5405,87,1.4727,1.5908,4.891,-14.083,32,0.2581,8706,3.9798,38.2642
lg,1624800841200058792,0,-0.1328,-0.3098,1.0093,806,0.1831,-8.9111,16.6016,87,1.4737,1.5908,4.7976,-14.1275,32,0.2591,7936,3.9798,38.9881
lg,1624800841200077848,0,-0.1304,-0.3237,1.0078,807,-0.1221,-6.6528,15.1367,87,1.4737,1.5908,4.7758,-14.2191,32,0.2581,8309,3.9798,39.6307
lg,1624800841200095422,0,-0.1318,-0.3201,1.0122,808,-0.4883,-3.9062,16.3574,87,1.4747,1.5918,4.8764,-14.3091,32,0.2581,9638,3.9798,40.295
lg,1624800841200125588,0,-0.1521,-0.3215,1.0042,809,-0.4883,-3.1738,16.2964,87,1.4737,1.5888,5.0463,-14.4028,32,0.2581,8074,3.9798,40.9492
lg,1624800841200143792,0,-0.1655,-0.3267,1.0017,810,-0.1221,-3.1738,17.0288,87,1.4727,1.5898,5.2464,-14.4852,32,0.2591,8004,3.9798,41.6308
lg,1624800841200168829,0,-0.1606,-0.3201,1.0112,811,-0.6714,-4.7607,16.7236,87,1.4737,1.5908,5.3626,-14.5645,32,0.2581,8777,3.9798,42.3184
lg,1624800841200189274,0,-0.1633,-0.3203,1.011,812,-0.8545,-7.9346,18.1885,87,1.4737,1.5908,5.3731,-14.6395,32,0.2581,13088,3.9798,43.0952
lg,1624800841200222181,0,-0.1609,-0.3362,1.0166,813,-0.6104,-10.2539,18.3716,87,1.4737,1.5908,5.2885,-14.7278,32,0.2581,8848,3.9798,43.9005
lg,1624800841200240162,0,-0.1516,-0.3293,0.9958,814,-0.1221,-12.5732,18.6768,87,1.4737,1.5908,5.1095,-14.7918,32,0.2581,8463,3.9798,44.7422
lg,1624800841200268940,0,-0.1384,-0.3157,1.0112,815,-0.4883,-12.3291,17.0288,87,1.4737,1.5908,4.8999,-14.8389,32,0.2581,8092,3.9798,45.5215
lg,1624800841200291996,0,-0.1365,-0.3105,1.0132,816,-0.3662,-11.7798,18.4937,87,1.4737,1.5908,4.731,-14.8659,32,0.2581,8149,3.9798,46.3534
lg,1624800841200321829,0,-0.134,-0.3374,1.0061,817,-0.4883,-11.4746,17.5171,87,1.4737,1.5908,4.5662,-14.9615,32,0.2581,8500,3.9798,47.1397
lg,1624800841200352811,0,-0.1199,-0.3235,0.9958,818,-0.2441,-10.9863,16.6016,87,1.4747,1.5908,4.3952,-15.0342,32,0.2581,8608,3.9798,47.8876
lg,1624800841200379588,0,-0.1094,-0.3286,1.012,819,-0.061,-9.7046,17.7612,87,1.4737,1.5908,4.2637,-15.0897,32,0.2571,8947,3.9798,48.6683
lg,1624800841200409940,0,-0.1238,-0.3159,1.0083,820,0.1831,-6.6528,17.0288,87,1.4747,1.5918,4.2917,-15.1538,32,0.2581,10853,3.9798,49.3318
lg,1624800841200448440,0,-0.127,-0.3098,1.0037,821,0,-4.7607,16.4795,87,1.4747,1.5918,4.3828,-15.1766,32,0.2581,8242,3.9798,50.0143
lg,1624800841200467144,0,-0.1379,-0.3164,1.0076,822,-0.2441,-4.7607,17.7002,87,1.4747,1.5908,4.5053,-15.2142,32,0.2571,8640,3.9798,50.7432
lg,1624800841200496477,0,-0.1406,-0.3267,1.0198,823,0.1221,-5.3711,16.2354,87,1.4737,1.5898,4.5862,-15.2513,32,0.2571,8306,3.9798,51.4208
lg,1624800841200514625,0,-0.1375,-0.3218,1.0071,824,0.4883,-6.0425,15.2588,87,1.4737,1.5908,4.6224,-15.2565,32,0.2581,9123,3.9798,52.0693
lg,1624800841200531088,0,-0.1328,-0.3223,1.021,825,0,-7.3853,15.4419,87,1.4737,1.5868,4.597,-15.2872,32,0.2581,9131,3.9798,52.7384
lg,1624800841200547570,0,-0.1313,-0.3252,1.0068,826,0.2441,-7.2021,15.564,87,1.4727,1.5918,4.5816,-15.3221,32,0.2571,9137,3.9798,53.4093
lg,1624800841200564162,0,-0.1279,-0.322,1.012,827,0.7324,-6.958,15.8081,87,1.4747,1.5908,4.5707,-15.326,32,0.2581,8383,3.9798,54.088
lg,1624800841200581681,0,-0.1282,-0.3274,1.0103,828,0.8545,-7.2021,16.6016,87,1.4757,1.5918,4.5538,-15.3391,32,0.2581,8805,3.9798,54.7397
lg,1624800841200597922,0,-0.1206,-0.3186,1.0049,829,0.6104,-7.3242,15.7471,87,1.4737,1.5908,4.516,-15.3452,32,0.2581,8452,3.9798,55.4202
lg,1624800841200614551,0,-0.1147,-0.3208,1.0168,830,0.4272,-7.2632,14.3433,87,1.4727,1.5918,4.452,-15.3601,32,0.2581,8859,3.9798,56.046
lg,1624800841200631255,0,-0.114,-0.3108,1.0056,831,0.5493,-6.5308,15.3809,87,1.4747,1.5918,4.4314,-15.3543,32,0.2581,8870,3.9798,56.7053
lg,1624800841200648014,0,-0.1311,-0.322,1.0054,832,1.0986,-5.249,14.7705,87,1.4757,1.5908,4.4898,-15.3524,32,0.2571,8876,3.9798,57.3256
lg,1624800841572991292,0,-0.1448,-0.3325,1.0063,833,0.8545,-5.8594,15.686,87,1.4757,1.5908,4.5446,-15.3301,32,0.2571,26720,3.9798,57.9588
lg,1624800841573078921,0,-0.1343,-0.3198,1.0049,834,1.1597,-5.9814,15.8691,87,1.4747,1.5898,4.5887,-15.3174,32,0.2561,15781,3.9798,58.6296
lg,1624800841573164255,0,-0.134,-0.3269,1.0129,835,0.9155,-5.9204,15.1978,93,1.4747,1.5908,4.6232,-15.3258,32,0.2571,8634,3.9732,59.2729
lg,1624800841573186644,0,-0.1384,-0.3376,1.0139,836,0.8545,-6.7749,14.8926,93,1.4757,1.5908,4.6286,-15.3572,32,0.2571,9074,3.9732,59.9117
lg,1624800841573205773,0,-0.1123,-0.325,1.0208,837,1.3428,-9.5825,16.2964,93,1.4757,1.5898,4.4854,-15.3323,32,0.2571,7848,3.9732,60.6372
lg,1624800841573224384,0,-0.1089,-0.3311,1.0029,838,1.6479,-9.7046,15.3198,93,1.4757,1.5908,4.3288,-15.3249,32,0.2561,9746,3.9732,61.3243
lg,1624800841573241236,0,-0.0889,-0.3245,0.9983,839,1.2207,-6.2256,13.9771,93,1.4767,1.5918,4.2566,-15.3328,32,0.2571,9301,3.9732,61.9234
lg,1624800841573259533,0,-0.1067,-0.3242,0.9985,840,1.709,-3.479,13.7329,93,1.4757,1.5908,4.4242,-15.3363,32,0.2561,8667,3.9732,62.4931
lg,1624800841573277496,0,-0.1101,-0.304,1.0056,841,1.5869,0.9155,14.0991,93,1.4757,1.5908,4.6689,-15.285,32,0.2561,8687,3.9732,63.0247
lg,1624800841573295199,0,-0.1299,-0.314,1.0073,842,1.3428,4.3945,14.4043,93,1.4757,1.5908,5.0815,-15.2639,32,0.2561,8318,3.9732,63.5297
lg,1624800841573313310,0,-0.147,-0.323,1.0139,843,1.0986,5.0659,13.916,93,1.4767,1.5918,5.5317,-15.2659,32,0.2561,8765,3.9732,64.0071
lg,1624800841573331236,0,-0.155,-0.3162,1.0071,844,1.1597,3.2349,14.7705,93,1.4757,1.5908,5.9371,-15.25,32,0.2561,8365,3.9732,64.5374
lg,1624800841573348347,0,-0.1536,-0.3167,1.0247,845,1.0986,-1.77,16.3574,93,1.4767,1.5908,6.127,-15.2093,32,0.2561,8425,3.9732,65.1835
lg,1624800841573366162,0,-0.1484,-0.3071,0.9905,846,1.1597,-5.8594,16.4795,93,1.4767,1.5908,6.1528,-15.1635,32,0.2561,8510,3.9732,65.8771
lg,1624800841573383570,0,-0.1343,-0.3259,1.0117,847,1.0986,-6.7749,16.1743,93,1.4757,1.5908,6.112,-15.1495,32,0.2561,8404,3.9732,66.5676
lg,1624800841573400903,0,-0.1177,-0.3411,1.0205,848,1.0986,-6.1035,14.6484,93,1.4767,1.5908,6.0343,-15.1665,32,0.2571,8470,3.9732,67.1869
lg,1624800841573417662,0,-0.1323,-0.334,1.021,849,2.4414,-5.188,17.395,93,1.4737,1.5908,6.0542,-15.1047,32,0.2561,8877,3.9732,67.905
lg,1624800841573449570,0,-0.1272,-0.3083,1.0066,850,2.9907,-3.1738,16.1743,93,1.4757,1.5908,6.1316,-14.9874,32,0.2561,8907,3.9732,68.5589
lg,1624800841573469421,0,-0.1348,-0.3162,0.9907,851,2.6245,-3.2959,16.9067,93,1.4767,1.5908,6.2274,-14.9113,32,0.2571,8937,3.9732,69.2392
lg,1624800841573486384,0,-0.1423,-0.2942,0.9929,852,2.2583,-4.0894,15.625,93,1.4767,1.5908,6.2918,-14.8093,32,0.2571,8518,3.9732,69.8828
lg,1624800841573502921,0,-0.135,-0.3,1.0149,853,2.1973,-8.5449,16.2354,93,1.4777,1.5908,6.1651,-14.7053,32,0.2571,8575,3.9732,70.5955
