name,time,activity,ax,ay,az,batch_val,gx,gy,gz,ibat,index,middle,pitch,roll,temp,thumb,ts,vbat,yaw
lg,1624810848603866182,0,-0.1914,-0.2107,1.0312,1,1.0986,-0.3662,13.916,73,1.5598,1.5878,9.6486,-8.4571,35,0.4062,20086,3.9996,-62.032
lg,1624810848603913524,0,-0.1992,-0.2097,1.0332,2,0.9766,-1.77,12.8174,73,1.5588,1.5868,9.6937,-8.4467,35,0.4062,8588,3.9996,-61.5267
lg,1624810848603935416,0,-0.199,-0.2214,1.0269,3,1.0376,-3.0518,14.9536,73,1.5598,1.5878,9.7003,-8.4457,35,0.4072,7884,3.9996,-60.9327
lg,1624810848603955123,0,-0.1882,-0.2253,1.0349,4,1.3428,-4.0894,13.4888,73,1.5598,1.5878,9.6315,-8.4466,35,0.4062,7926,3.9996,-60.3923
lg,1624810848603974034,0,-0.1975,-0.2207,1.0437,5,2.0752,-4.6997,15.5029,73,1.5598,1.5868,9.5885,-8.3793,35,0.4072,7955,3.9996,-59.783
lg,1624810848603992352,0,-0.1743,-0.1997,1.0359,6,2.0752,-3.9673,15.7471,73,1.5588,1.5868,9.513,-8.2859,35,0.4062,8009,3.9996,-59.1441
lg,1624810848604010373,0,-0.189,-0.2378,1.0425,7,2.3804,-0.6714,15.2588,73,1.5598,1.5868,9.5931,-8.2668,35,0.4062,7981,3.9996,-58.5574
lg,1624810848604027839,0,-0.1763,-0.2234,1.04,8,1.9531,1.3428,13.9771,73,1.5598,1.5878,9.7775,-8.2297,35,0.4062,8399,3.9996,-58.0031
lg,1624810848604045824,0,-0.1687,-0.2153,1.0496,9,2.2583,3.7842,15.1367,73,1.5588,1.5868,9.9784,-8.1703,35,0.4062,8075,3.9996,-57.4393
lg,1624810848604064568,0,-0.1846,-0.1953,1.0305,10,2.9297,5.9204,15.1367,73,1.5598,1.5868,10.2952,-8.0516,35,0.4052,8833,3.9996,-56.8818
lg,1624810848604084071,0,-0.1797,-0.1987,1.0371,11,1.77,6.7749,15.0146,73,1.5598,1.5868,10.6188,-7.987,35,0.4052,8460,3.9996,-56.3353
lg,1624810848604102871,0,-0.1777,-0.2197,1.0327,12,1.3428,6.5308,14.5874,73,1.5598,1.5878,10.9137,-7.9881,35,0.4032,8111,3.9996,-55.8135
lg,1624810848604120707,0,-0.1846,-0.2092,1.0356,13,-0.7324,19.9585,10.9863,73,1.5598,1.5878,11.7208,-8.0869,35,0.3992,34291,3.9996,-55.5097
lg,1624810848604138525,0,-0.2205,-0.1877,1.0776,14,0.6714,22.3999,11.1694,73,1.5568,1.5868,12.6516,-8.0609,35,0.3992,8256,3.9996,-55.2005
lg,1624810848604156454,0,0.1001,-0.8337,0.5881,15,-43.6401,-220.9473,-4.6997,96,1.4897,1.5518,3.3964,-11.2691,35,0.3412,15237,3.9677,-54.2389
lg,1624810848604174290,0,-0.0339,-0.7981,0.2585,16,-31.0669,-90.9424,-16.4795,96,1.4877,1.5528,-0.2599,-14.4751,35,0.3402,9139,3.9677,-54.1873
lg,1624810848604193108,0,0.1006,-0.9314,0.5134,17,-14.9536,-30.8838,3.1738,96,1.4867,1.5538,-1.6173,-16.719,35,0.3412,8201,3.9677,-53.7204
lg,1624810848604211371,0,0.1663,-0.9849,0.6992,18,15.3198,44.7998,8.3008,96,1.4857,1.5558,-0.0716,-17.481,35,0.3442,8948,3.9677,-53.8911
lg,1624810848604229503,0,0.0305,-0.8027,0.5449,19,22.7051,99.9756,-6.897,96,1.4857,1.5578,3.5685,-18.0222,35,0.3482,8230,3.9677,-55.3748
lg,1624810848604246506,0,-0.1416,-0.8489,0.6301,20,25.8179,156.9214,-25.2075,96,1.4897,1.5578,9.3677,-18.6306,35,0.3492,9280,3.9677,-58.4089
lg,1624810848604263787,0,-0.2739,-0.9275,0.7168,21,24.6582,147.1558,-44.9829,96,1.4957,1.5568,14.5189,-19.6615,35,0.3482,9921,3.9677,-62.3271
lg,1624810848604281253,0,-0.3118,-0.9199,0.8254,22,29.3579,125.3052,-49.2554,96,1.5007,1.5548,17.5361,-19.6085,35,0.3402,8691,3.9677,-65.6935
lg,1624810848604298608,0,-0.2546,-0.7781,0.5044,23,66.2842,55.2368,-43.457,96,1.5057,1.5508,19.0819,-19.1469,35,0.3292,9089,3.9677,-68.6191
lg,1624810848604316481,0,-0.3699,-0.7324,0.3369,24,34.79,31.6162,-42.6025,96,1.5117,1.5478,20.1154,-20.0593,35,0.3242,9784,3.9677,-71.2979
lg,1624810848604333669,0,-0.156,-0.6858,0.4219,25,10.1318,-11.1694,23.9868,96,1.5137,1.5478,19.83,-20.7359,35,0.3302,8366,3.9677,-70.6823
lg,1624810848604350264,0,-0.207,-1.0171,0.696,26,-38.3301,19.043,38.5132,96,1.5147,1.5488,20.8261,-23.196,35,0.3362,8401,3.9677,-69.9234
lg,1624810848604367712,0,-0.3313,-1.0107,0.6826,27,-42.1143,32.2876,47.3633,96,1.5137,1.5518,22.6662,-25.6679,35,0.3382,8484,3.9677,-69.0977
lg,1624810848604385104,0,-0.5657,-0.7529,0.5105,28,-36.9263,-11.9629,62.439,96,1.5097,1.5548,23.8024,-27.1393,35,0.3382,8925,3.9677,-66.8461
lg,1624810848604402940,0,-0.6199,-0.7261,0.5867,29,-53.2837,-91.6748,81.604,96,1.5007,1.5568,22.5246,-28.1262,35,0.3382,8447,3.9677,-62.1889
lg,1624810848604436594,0,-0.0344,-0.8257,1.3652,30,-61.0962,-193.3594,80.6274,96,1.4957,1.5548,16.4511,-28.3833,35,0.3342,9230,3.9677,-55.3432
lg,1624810848604462802,0,-0.0051,-0.8015,0.4636,31,-37.4756,-231.4453,27.71,96,1.4907,1.5488,8.4099,-29.8791,35,0.3352,8950,3.9677,-50.0811
lg,1624810848604480398,0,0.1562,-0.887,0.7422,32,-55.1147,-206.543,23.4985,96,1.4877,1.5488,1.2532,-32.4167,35,0.3362,8559,3.9677,-45.09
lg,1624810848952027656,0,0.2349,-0.9937,0.6633,33,31.0669,-12.4512,16.0522,96,1.4857,1.5528,0.6939,-32.0529,35,0.3382,26331,3.9677,-44.303
lg,1624810848952078961,0,0.1736,-0.8567,0.6287,34,40.2222,69.6411,-7.019,96,1.4877,1.5538,2.5149,-31.3169,35,0.3402,9878,3.9677,-46.0226
lg,1624810848952100595,0,-0.0972,-0.8274,0.6011,35,36.7432,144.8975,-35.0952,96,1.4907,1.5548,7.3516,-31.2748,35,0.3402,12712,3.9677,-50.2959
lg,1624810848952121839,0,-0.4517,-0.7849,0.4692,36,32.3486,112.6099,-31.8604,96,1.4937,1.5538,11.2782,-31.5043,35,0.3402,8015,3.9677,-53.9024
lg,1624810848952142676,0,-0.4475,-0.6587,0.5776,37,53.1006,88.9893,15.1978,96,1.4937,1.5538,15.2606,-30.3005,35,0.3382,8090,3.9677,-55.362
lg,1624810848952164309,0,-0.5771,-0.6851,0.6367,38,-2.8076,24.4141,16.8457,96,1.4947,1.5548,17.0983,-30.9637,35,0.3412,8772,3.9677,-55.434
lg,1624810848952184461,0,-0.5015,-0.9126,0.7314,39,-17.1509,-42.0532,41.1377,96,1.4957,1.5568,16.797,-31.7019,35,0.3472,10702,3.9677,-53.2725
lg,1624810848952205335,0,-0.415,-0.8979,0.7454,40,-12.6953,-71.4722,44.1284,96,1.4957,1.5578,15.4494,-32.0396,35,0.3492,8122,3.9677,-50.3427
lg,1624810848952224264,0,-0.2363,-0.7827,0.6184,41,-8.2397,-116.272,42.6025,123,1.4957,1.5568,12.3799,-32.1545,35,0.3502,8169,3.9314,-46.5093
lg,1624810848952242878,0,-0.0559,-0.8174,0.5842,42,-12.5732,-120.3613,44.5557,123,1.4957,1.5568,8.9632,-32.7509,35,0.3512,8128,3.9314,-42.5334
lg,1624810848952261066,0,0.106,-0.8416,0.7363,43,-6.6528,-96.4966,39.7949,123,1.4967,1.5568,6.054,-33.1858,35,0.3512,8186,3.9314,-39.1621
lg,1624810848952280347,0,0.2617,-0.8472,0.824,44,8.5449,-60.3638,2.0752,123,1.4987,1.5608,3.372,-33.2073,35,0.3472,8891,3.9314,-37.8147
lg,1624810848952298795,0,0.0854,-0.9075,0.5535,45,15.1978,-6.4087,-30.9448,123,1.5087,1.5518,2.7888,-33.4529,35,0.3412,12561,3.9314,-39.7892
lg,1624810848952317669,0,0.0503,-0.8982,0.5674,46,24.4751,52.6733,-45.8984,123,1.5137,1.5478,3.3164,-33.5463,35,0.3352,8361,3.9314,-42.5335
lg,1624810848952336116,0,-0.0781,-0.864,0.3418,47,17.395,65.8569,-25.8179,123,1.5147,1.5448,4.9969,-34.3118,35,0.3412,8241,3.9314,-44.945
lg,1624810848952356731,0,-0.2871,-1.0237,0.6016,48,-18.6157,142.9443,25.5127,123,1.5157,1.5448,10.5785,-36.3335,35,0.3442,8302,3.9314,-47.5366
lg,1624810848952375827,0,-0.6877,-0.803,0.6921,49,-26.7944,124.7559,44.1284,123,1.5137,1.5478,16.4596,-38.2229,35,0.3422,8364,3.9314,-49.3019
lg,1624810848952393941,0,-0.7832,-0.6616,0.8342,50,-32.4707,67.5659,51.8188,123,1.5067,1.5508,18.4455,-39.2847,35,0.3392,9337,3.9314,-47.4878
lg,1624810848952412185,0,-0.7673,-0.7617,0.7273,51,-46.936,-81.0547,46.1426,123,1.4987,1.5538,17.8325,-40.2403,35,0.3382,8838,3.9314,-43.887
lg,1624810848952430354,0,-0.1921,-0.793,1.0911,52,-42.9077,-221.1914,19.9585,123,1.4907,1.5508,11.2486,-40.1358,35,0.3332,8429,3.9314,-37.3061
lg,1624810848952448098,0,-0.0662,-0.7749,0.4019,53,-49.5605,-257.7515,-16.1743,123,1.4857,1.5468,2.8738,-42.1962,35,0.3302,8512,3.9314,-31.1308
lg,1624810848952466546,0,0.2585,-0.8494,0.3591,54,-64.3311,-236.3281,1.5259,123,1.4807,1.5428,-3.4392,-44.848,35,0.3272,8486,3.9314,-25.6703
lg,1624810848952485808,0,0.3008,-0.9114,0.302,55,-36.6211,-130.188,1.1597,123,1.4767,1.5408,-7.5583,-47.617,35,0.3282,8472,3.9314,-21.7862
lg,1624810848952505163,0,0.3633,-1.0352,0.376,56,-6.6528,15.1978,28.6865,123,1.4747,1.5418,-6.7413,-48.7416,35,0.3282,9199,3.9314,-21.363
lg,1624810848952523963,0,0.1499,-0.9028,0.3181,57,18.3105,124.3286,36.0718,123,1.4747,1.5418,-2.5005,-48.6115,35,0.3302,8603,3.9314,-24.0656
lg,1624810848952582250,0,-0.1399,-0.823,0.3948,58,32.0435,183.8989,43.457,123,1.4747,1.5438,4.09,-47.9939,35,0.3292,8538,3.9314,-28.3786
lg,1624810848952602791,0,-0.2859,-0.8093,0.6145,59,33.2642,184.6313,47.9126,123,1.4757,1.5448,10.3366,-47.2654,35,0.3292,8634,3.9314,-31.8371
lg,1624810848952622128,0,-0.3179,-0.7725,0.7139,60,31.311,123.4741,49.1943,123,1.4777,1.5458,15.3756,-46.5192,35,0.3292,8628,3.9314,-34.1621
lg,1624810848952640538,0,-0.1667,-0.7917,0.8447,61,13.5498,34.9121,46.7529,123,1.4827,1.5458,17.3975,-45.7447,35,0.3302,8667,3.9314,-33.8294
lg,1624810848952658208,0,0.0891,-0.9011,0.7876,62,9.0942,-4.3945,23.4985,123,1.4897,1.5458,17.1051,-45.2568,35,0.3292,8678,3.9314,-33.0506
lg,1624810848952675803,0,0.1699,-0.9966,0.6567,63,18.7988,14.3433,0.2441,123,1.4957,1.5448,16.8519,-45.0388,35,0.3272,8651,3.9314,-35.3428
lg,1624810848952693547,0,0.1292,-1.0293,0.5476,64,42.7856,83.6182,-48.3398,123,1.5027,1.5438,16.9623,-45.1456,35,0.3192,8674,3.9314,-39.4467
lg,1624810849352217898,0,-0.4006,-0.6951,0.5396,65,14.8926,139.8926,25.1465,123,1.5077,1.5438,23.4484,-48.4814,35,0.3212,26427,3.9314,-43.8482
lg,1624810849352253293,0,-0.9124,-1.0645,0.7847,66,-54.1992,186.1572,56.5186,123,1.5047,1.5478,28.6133,-51.4364,35,0.3212,13767,3.9314,-46.5948
lg,1624810849352273833,0,-1.1819,-0.7256,0.7639,67,-28.6255,10.9253,41.8091,123,1.4977,1.5508,28.1093,-49.7654,35,0.3182,10337,3.9314,-41.463
lg,1624810849352293484,0,-0.9893,-0.7097,0.696,68,-28.9917,-205.9937,51.0254,123,1.4907,1.5508,24.8516,-47.0225,35,0.3192,8019,3.9314,-32.9736
lg,1624810849352312469,0,-0.2935,-0.5942,0.5476,69,-10.437,-355.1636,29.1138,123,1.4867,1.5478,15.557,-43.4424,35,0.3172,8059,3.9314,-21.4026
lg,1624810849352331435,0,-0.2417,-0.5874,-0.021,70,-16.6016,-367.6758,16.8457,123,1.4837,1.5478,6.5626,-44.8646,35,0.3182,8038,3.9314,-12.0686
lg,1624810849352349975,0,0.1165,-0.8699,0.3645,71,-47.7295,-242.3096,22.2778,123,1.4817,1.5478,-0.0013,-47.175,35,0.3182,8151,3.9314,-4.5635
lg,1624810849352368200,0,0.3066,-1.2017,0.5767,72,-14.2822,-99.4873,45.8374,123,1.4807,1.5498,-1.8094,-48.446,35,0.3192,8080,3.9314,-0.378
lg,1624810849352386221,0,0.5315,-1.0417,0.6409,73,39.7949,-7.9956,48.8281,123,1.4827,1.5508,-1.415,-47.2511,35,0.3192,10266,3.9314,1.1674
lg,1624810849352404743,0,0.3052,-0.7937,0.6543,74,38.9404,115.7837,11.1084,123,1.4847,1.5508,1.4817,-45.8114,35,0.3212,8114,3.9314,-1.9009
lg,1624810849352422931,0,0.0891,-0.7998,0.5974,75,29.7852,151.3672,1.3428,123,1.4877,1.5498,5.4783,-45.1652,35,0.3232,8089,3.9314,-6.204
lg,1624810849352440748,0,-0.1956,-0.9001,0.6133,76,19.8975,177.7344,-10.0098,123,1.4907,1.5498,10.347,-45.5182,35,0.3222,8103,3.9314,-11.6356
lg,1624810849352458492,0,-0.2527,-0.9229,0.6958,77,46.3867,140.3198,-17.7002,123,1.4957,1.5488,13.8534,-44.9117,35,0.3212,8183,3.9314,-16.2751
lg,1624810849352475643,0,-0.2781,-0.8738,0.5657,78,50.8423,109.375,-22.0337,123,1.4987,1.5478,16.3816,-44.3526,35,0.3172,8170,3.9314,-20.2259
lg,1624810849352492886,0,-0.3457,-0.7227,0.3345,79,26.7334,36.9263,-15.625,123,1.4997,1.5478,17.3069,-44.498,35,0.3222,8272,3.9314,-21.9911
lg,1624810849352521743,0,-0.3765,-0.8562,0.5193,80,-27.0386,42.2974,40.8325,123,1.4997,1.5498,19.7918,-46.1376,35,0.3262,8240,3.9314,-22.2193
lg,1624810849352577863,0,-0.4768,-0.8999,0.6091,81,-43.2739,45.7153,63.0493,123,1.4977,1.5528,23.0292,-48.0846,35,0.3252,8260,3.9314,-21.9516
lg,1624810849352601793,0,-0.6709,-0.7468,0.6655,82,-48.5229,7.9956,83.9844,123,1.4887,1.5538,26.1741,-49.1086,35,0.3282,8265,3.9314,-19.7814
lg,1624810849352621592,0,-0.4011,-0.5723,0.8047,83,-0.8545,-101.1963,22.7051,123,1.4867,1.5498,24.0145,-46.8844,35,0.3192,8267,3.9314,-15.5347
lg,1624810849352640391,0,-0.4253,-0.7917,0.7476,84,-27.771,-135.6201,-5.0049,123,1.4827,1.5478,18.6811,-47.2202,35,0.3142,8271,3.9314,-10.3346
lg,1624810849352661191,0,-0.2773,-0.8362,0.4963,85,-36.8042,-206.7871,-12.207,123,1.4777,1.5468,12.6646,-47.5372,35,0.3122,8354,3.9314,-4.5021
lg,1624810849352679083,0,-0.2065,-0.834,0.3196,86,-19.7754,-152.2827,-7.9346,123,1.4777,1.5478,8.4187,-48.3342,35,0.3122,8412,3.9314,-0.2925
lg,1624810849352698086,0,0.0632,-0.9517,0.5232,87,9.0942,-62.6831,21.5454,123,1.4747,1.5478,6.9453,-48.1404,35,0.3152,8498,3.9314,2.1005
lg,1624810849352717904,0,0.0938,-0.8882,0.5681,88,13.7329,-28.2593,23.6816,123,1.4747,1.5468,6.4246,-47.7752,35,0.3172,8430,3.9314,3.5385
lg,1624810849352736425,0,0.0918,-0.8237,0.6257,89,21.9116,42.3584,23.1323,123,1.4747,1.5508,7.7911,-47.1666,35,0.3202,8717,3.9314,2.8812
lg,1624810849352758484,0,0.0227,-0.8389,0.6775,90,23.8647,78.5522,3.2349,123,1.4767,1.5518,9.6616,-46.699,35,0.3212,11638,3.9314,0.6208
lg,1624810849352777932,0,-0.1045,-0.8777,0.6438,91,23.0713,108.0933,-22.3999,123,1.4817,1.5508,11.7901,-46.7627,35,0.3222,9674,3.9314,-3.2589
lg,1624810849352797138,0,-0.1948,-0.917,0.6421,92,23.0713,110.3516,-41.3208,123,1.4877,1.5478,13.1878,-46.4916,35,0.3182,10938,3.9314,-7.517
lg,1624810849352815901,0,-0.105,-0.9021,0.6702,93,58.3496,93.3228,-44.6167,123,1.4947,1.5448,14.1776,-45.3889,35,0.3092,9421,3.9314,-11.6225
lg,1624810849352834756,0,-0.1245,-0.9082,0.5422,94,61.2793,101.8066,-81.2988,123,1.5017,1.5368,14.4518,-44.8112,35,0.3031,9472,3.9314,-17.1029
lg,1624810849352853999,0,-0.2307,-0.7659,0.2881,95,53.6499,61.1572,-52.2461,123,1.5067,1.5247,14.8138,-44.4377,35,0.3021,9705,3.9314,-20.6496
lg,1624810849352873521,0,-0.1416,-0.5518,0.2385,96,30.6396,65.3687,14.5264,123,1.5107,1.5197,17.0513,-44.4772,35,0.3051,9136,3.9314,-22.3496
lg,1624810849693209189,0,-0.8198,-0.908,0.5159,97,-65.3076,72.8149,86.0596,123,1.5057,1.5317,22.3561,-47.4926,35,0.3092,28386,3.9314,-22.2186
lg,1624810849693251362,0,-0.9844,-0.7876,0.5298,98,-71.8384,-54.0771,118.8354,123,1.4947,1.5378,25.3559,-48.4873,35,0.3071,8634,3.9314,-17.093
lg,1624810849693272328,0,-0.833,-0.9031,0.7656,99,-82.5195,-195.0073,142.5171,123,1.4817,1.5408,24.7714,-47.3177,35,0.3112,8990,3.9314,-6.5089
lg,1624810849693292887,0,-0.019,-0.658,0.8059,100,-81.4819,-277.8931,130.8594,123,1.4737,1.5327,15.9434,-43.3756,35,0.2981,7903,3.9314,5.3196
lg,1624810849693312816,0,0.3054,-1.012,1.0669,101,-60.6689,-269.7144,16.9067,123,1.4687,1.5317,7.6127,-44.1249,35,0.2991,10264,3.9314,13.4264
lg,1624810849693331579,0,-0.0747,-0.7546,0.1472,102,-26.6113,-171.3257,-32.7759,123,1.4667,1.5337,1.8481,-46.1349,35,0.3021,8082,3.9314,17.2066
lg,1624810849693349637,0,-0.002,-0.8472,0.2104,103,-18.2495,-118.3472,-26.9165,123,1.4637,1.5368,-0.6084,-47.306,35,0.3071,7995,3.9314,19.3552
lg,1624810849693367307,0,0.1165,-0.9312,0.3301,104,11.6577,-48.4619,16.0522,123,1.4637,1.5388,-1.6794,-47.755,35,0.3092,8044,3.9314,21.2305
lg,1624810849693385235,0,0.1755,-0.8899,0.5098,105,27.9541,58.6548,17.7002,123,1.4647,1.5408,0.1004,-47.0937,35,0.3112,8062,3.9314,19.988
lg,1624810849693402757,0,-0.031,-0.8447,0.6284,106,47.1802,160.0342,-7.3242,123,1.4677,1.5418,4.3402,-45.6348,35,0.3132,9234,3.9314,15.1461
lg,1624810849693419926,0,-0.1716,-0.8318,0.6892,107,46.814,175.9644,-17.334,123,1.4707,1.5408,9.178,-44.4914,35,0.3132,8146,3.9314,9.6335
lg,1624810849693439003,0,-0.3918,-0.8308,0.8181,108,30.2124,114.3188,-35.2173,123,1.4807,1.5408,11.8169,-44.0889,35,0.3262,11204,3.9314,5.3558
lg,1624810849693456728,0,-0.3245,-0.8125,0.8022,109,41.0156,77.3315,-29.9683,123,1.4917,1.5398,13.374,-43.1625,35,0.3202,8163,3.9314,2.2708
lg,1624810849693474138,0,-0.178,-0.936,0.6367,110,45.2271,45.3491,-54.0161,123,1.5007,1.5398,13.0631,-42.5138,35,0.3162,8145,3.9314,-0.7393
lg,1624810849693491400,0,-0.3154,-0.9453,0.4321,111,46.2036,26.4893,-72.0215,123,1.5037,1.5368,12.2988,-41.9134,35,0.3172,13351,3.9314,-1.9707
lg,1624810849693508144,0,-0.2166,-0.5754,0.2488,112,25.4517,-13.9771,7.5073,123,1.5047,1.5388,12.3901,-41.6756,35,0.3312,8174,3.9314,-1.5533
lg,1624810849693583304,0,-0.2769,-0.7085,0.6118,113,-59.021,47.0581,52.1851,123,1.5047,1.5428,15.3404,-44.2528,35,0.3342,8280,3.9314,-1.3728
lg,1624810849693602418,0,-0.6553,-0.8391,0.5781,114,-71.5332,69.0918,69.0918,123,1.5007,1.5448,19.6272,-47.3276,35,0.3332,8308,3.9314,-0.4627
lg,1624810849693619995,0,-0.8108,-0.8499,0.5801,115,-70.1904,-3.2959,84.8999,123,1.4917,1.5468,22.7981,-49.4853,35,0.3242,8263,3.9314,1.95
lg,1624810849693637424,0,-0.8289,-0.824,0.8027,116,-55.9082,-113.8306,94.4824,123,1.4827,1.5468,23.2141,-49.056,35,0.3322,8452,3.9314,8.4344
lg,1624810849693654982,0,-0.3013,-0.7415,0.6589,117,-11.2305,-267.5171,56.1523,123,1.4807,1.5418,17.4417,-45.9877,35,0.3312,8289,3.9314,18.4621
lg,1624810849693672299,0,-0.1187,-0.8149,0.6199,118,-41.0767,-265.1367,52.9175,123,1.4767,1.5418,10.8007,-46.3245,35,0.3322,8399,3.9314,27.4429
lg,1624810849693689821,0,0.0984,-0.8704,0.3848,119,-33.5083,-233.7646,20.9351,123,1.4757,1.5438,4.4313,-47.4297,35,0.3342,8365,3.9314,34.7582
lg,1624810849693708083,0,0.4482,-1.1082,0.6929,120,-10.9863,-133.9722,15.2588,123,1.4767,1.5458,0.4032,-48.0588,35,0.3372,8433,3.9314,39.1147
lg,1624810849693725567,0,0.6306,-0.9998,0.5583,121,22.2778,-15.9302,4.3335,123,1.4797,1.5478,-1.0012,-47.6024,35,0.3392,8467,3.9314,39.6937
lg,1624810849693743440,0,0.5447,-0.9387,0.5046,122,27.0996,76.7822,-20.6909,123,1.4837,1.5468,-0.5357,-46.967,35,0.3442,8461,3.9314,36.8729
lg,1624810849693772130,0,0.0823,-0.9661,0.5588,123,44.3726,231.5063,-74.4019,123,1.4857,1.5478,3.5051,-45.9288,35,0.3362,8541,3.9314,28.1239
lg,1624810849693790874,0,-0.3518,-0.7854,0.3337,124,69.397,223.6328,-85.7544,123,1.4947,1.5458,8.0582,-44.7982,35,0.3372,8502,3.9314,19.2833
lg,1624810849693809766,0,-0.634,-0.5471,0.3235,125,61.5845,194.9463,-71.2891,123,1.4967,1.5448,13.0149,-44.8154,35,0.3432,8544,3.9314,12.6468
lg,1624810849693828195,0,-0.8281,-0.5698,0.2434,126,-9.5215,145.5688,-9.3994,123,1.4967,1.5478,18.2505,-46.9667,35,0.3432,8548,3.9314,7.8856
lg,1624810849693846068,0,-0.9695,-0.8792,0.6128,127,-72.8149,79.1016,81.8481,123,1.4927,1.5518,23.6917,-50.2049,35,0.3382,9604,3.9314,7.5475
lg,1624810849693878962,0,-0.9285,-0.7336,0.8796,128,-41.8091,-63.8428,96.6187,123,1.4887,1.5498,25.6113,-49.466,35,0.3262,10150,3.9314,12.5857
lg,1624810850099414704,0,0.1829,-0.9758,0.4351,129,-47.7905,-360.1685,46.0815,123,1.4797,1.5418,16.2545,-47.4797,35,0.3082,27540,3.9314,25.0648
lg,1624810850099452432,0,0.5967,-0.9497,0.2434,130,-13.1836,-161.9873,47.7905,123,1.4777,1.5428,11.6829,-47.4101,35,0.3122,13329,3.9314,31.045
lg,1624810850099473287,0,0.6064,-0.9702,0.3132,131,6.1035,-27.2217,61.2183,123,1.4787,1.5448,13.3269,-47.1314,35,0.3122,8860,3.9314,30.8118
lg,1624810850099493104,0,0.5522,-0.9417,0.5508,132,39.7949,115.5396,-3.7231,123,1.4807,1.5478,14.8959,-46.8656,35,0.3152,10618,3.9314,27.1046
lg,1624810850099512329,0,0.4182,-0.8809,0.4875,133,46.2646,185.6689,-27.4658,123,1.4857,1.5498,18.0186,-47.3951,35,0.3142,8915,3.9314,20.5071
lg,1624810850099531073,0,0.0544,-0.9116,0.5347,134,41.3208,315.3076,-67.2607,123,1.4917,1.5488,23.7873,-50.2896,35,0.3152,10339,3.9314,7.5956
lg,1624810850099549150,0,-0.123,-0.9685,0.6162,135,79.5898,321.106,-82.3364,123,1.4967,1.5448,28.399,-53.3638,35,0.3071,8945,3.9314,-5.9835
lg,1624810850099567097,0,-0.3997,-0.9998,0.3267,136,80.5664,313.7207,-128.9062,123,1.5037,1.5307,30.8508,-58.4838,35,0.2951,8926,3.9314,-21.5728
lg,1624810850099584322,0,-0.5735,-0.7241,0.1614,137,85.8154,171.5088,-85.2661,123,1.5097,1.5157,31.6746,-60.3605,35,0.2981,9898,3.9314,-30.8617
lg,1624810850099601806,0,-0.5369,-0.22,0.033,138,30.2734,118.3472,13.6108,123,1.5107,1.5077,35.7473,-62.1254,35,0.3021,9084,3.9314,-35.7657
lg,1624810850099619216,0,-0.5374,-0.5525,0.3042,139,-38.6353,134.2773,67.749,123,1.5107,1.5097,40.6531,-66.5144,35,0.3041,9064,3.9314,-40.4353
lg,1624810850099636348,0,-0.8271,-1.1479,0.7512,140,-61.2183,121.1548,85.022,123,1.5127,1.5147,45.1601,-71.5653,35,0.3071,9081,3.9314,-44.6617
lg,1624810850099652647,0,-1.103,-0.9028,0.5125,141,-48.4009,-37.7808,115.9058,123,1.5067,1.5227,49.0926,-69.8254,35,0.3051,9168,3.9314,-39.9922
lg,1624810850099669427,0,-1.0876,-0.6545,0.5913,142,-76.0498,-184.2041,161.438,123,1.4947,1.5227,52.0173,-60.4859,35,0.3001,9195,3.9314,-24.4877
lg,1624810850099686615,0,-0.6875,-0.9619,0.7429,143,-101.1963,-344.7266,177.1851,123,1.4807,1.5337,48.5813,-45.6728,35,0.3051,9946,3.9314,-0.322
lg,1624810850099703580,0,0.1687,-0.7561,0.8413,144,-41.5039,-470.9473,85.8154,123,1.4727,1.5267,34.5233,-34.2133,35,0.3011,10478,3.9314,19.1147
lg,1624810850099720397,0,0.5098,-1.0569,1.0449,145,-32.5928,-402.3438,55.9082,123,1.4697,1.5257,22.848,-32.8249,35,0.3051,9209,3.9314,29.1129
lg,1624810850099736881,0,0.4629,-1.0044,0.6692,146,-59.7534,-303.4058,6.6528,123,1.4667,1.5257,11.6853,-34.562,35,0.3082,9058,3.9314,35.7904
lg,1624810850099753865,0,0.2356,-0.8569,0.0398,147,-28.8086,-160.6445,-39.5508,123,1.4647,1.5277,4.7137,-37.0933,35,0.3112,9306,3.9314,37.9602
lg,1624810850099770849,0,0.3906,-0.9785,0.2119,148,19.2871,-3.479,-1.0986,123,1.4637,1.5317,3.6208,-37.6948,35,0.3152,9245,3.9314,37.8992
lg,1624810850099787778,0,0.1604,-0.8689,0.4136,149,47.9126,190.4297,-14.1602,123,1.4647,1.5347,8.7855,-37.3452,35,0.3192,9242,3.9314,32.7109
lg,1624810850099807633,0,-0.2771,-0.8147,0.6694,150,72.6929,299.7437,-32.3486,123,1.4677,1.5368,17.7452,-36.9146,35,0.3192,8915,3.9314,24.1621
lg,1624810850099826024,0,-0.5742,-0.7534,0.7874,151,71.7773,262.8174,-57.373,123,1.4717,1.5378,25.0737,-37.5087,35,0.3212,8941,3.9314,15.308
lg,1624810850099843249,0,-0.6714,-0.7295,0.7844,152,62.1948,205.2612,-69.2139,123,1.4807,1.5368,27.851,-38.3816,35,0.3162,8944,3.9314,8.5915
lg,1624810850099860085,0,-0.6472,-0.6943,0.7686,153,56.6406,86.0596,-77.6367,97,1.4927,1.5357,28.7516,-38.7193,35,0.3172,9334,3.9787,3.3309
lg,1624810850099876532,0,-0.5112,-0.9873,0.5347,154,49.7437,-3.2959,-91.0645,97,1.5037,1.5337,26.2664,-39.0648,35,0.3222,14259,3.9787,-0.2006
lg,1624810850099893442,0,-0.3281,-0.9155,0.3413,155,54.6875,-104.0039,-45.5933,97,1.5077,1.5337,21.7218,-37.559,35,0.3242,9351,3.9787,0.5347
lg,1624810850099909981,0,-0.1196,-0.533,0.2146,156,24.5361,-107.3608,19.9585,97,1.5097,1.5357,18.5154,-36.5914,35,0.3282,9352,3.9787,3.5282
lg,1624810850099944190,0,-0.1643,-0.7373,0.5901,157,-59.7534,-23.4375,81.2378,97,1.5097,1.5398,19.4286,-38.4816,35,0.3342,9438,3.9787,6.669
lg,1624810850099968360,0,-0.4233,-0.8711,0.6074,158,-73.0591,-23.5596,101.8066,97,1.5017,1.5438,21.4078,-40.637,35,0.3312,9320,3.9787,10.4383
lg,1624810850099987048,0,-0.6599,-0.8496,0.6909,159,-63.5376,-79.9561,108.7036,97,1.4877,1.5458,22.2439,-41.3772,35,0.3192,9931,3.9787,16.0947
lg,1624810850100003921,0,-0.1921,-0.7595,1.4929,160,-60.6079,-116.8823,109.7412,97,1.4787,1.5438,18.7483,-40.2086,35,0.3152,9790,3.9787,24.3739
lg,1624810850451135575,0,0.2739,-0.9128,0.1782,161,-56.0913,-267.5781,-5.5542,97,1.4707,1.5357,9.4514,-42.115,35,0.3222,30229,3.9787,31.0171
lg,1624810850451172340,0,0.4575,-1.0339,0.147,162,-16.1133,-94.1772,21.6675,97,1.4697,1.5388,6.1274,-43.6433,35,0.3232,8574,3.9787,34.0399
lg,1624810850451193103,0,0.6702,-1.0166,0.4387,163,40.4053,62.561,38.0249,97,1.4717,1.5428,7.6225,-42.8625,35,0.3242,13968,3.9787,33.3279
lg,1624810850451212846,0,0.3655,-0.8203,0.4763,164,59.6924,216.3086,-3.8452,97,1.4747,1.5448,12.7792,-42.1783,35,0.3252,8028,3.9787,27.1764
lg,1624810850451231330,0,-0.1318,-0.7659,0.467,165,50.7202,305.4199,-25.3296,97,1.4797,1.5468,20.8291,-43.5564,35,0.3262,7942,3.9787,17.5963
lg,1624810850451250593,0,-0.3296,-0.7954,0.5747,166,49.3164,309.5093,-25.6348,97,1.4867,1.5468,28.7197,-46.3942,35,0.3212,8018,3.9787,7.0302
lg,1624810850451268799,0,-0.4871,-0.8225,0.7009,167,66.1621,241.8823,-31.0059,97,1.4937,1.5468,34.098,-48.7464,35,0.3202,7975,3.9787,-2.3762
lg,1624810850451286820,0,-0.4924,-0.8086,0.6562,168,54.5654,133.8501,-33.4473,97,1.5007,1.5448,36.1744,-50.1212,35,0.3222,11299,3.9787,-8.4698
lg,1624810850451304026,0,-0.3845,-0.8645,0.5833,169,44.7388,61.8286,-16.4795,97,1.5037,1.5438,36.6128,-50.3098,35,0.3252,8359,3.9787,-11.5165
lg,1624810850451321196,0,-0.345,-0.7766,0.3699,170,17.2729,-11.5967,5.8594,97,1.5067,1.5448,35.9499,-49.8803,35,0.3292,8081,3.9787,-11.2692
lg,1624810850451338606,0,-0.2051,-0.7476,0.3684,171,1.2207,-28.0151,36.438,97,1.5077,1.5448,35.5126,-49.1783,35,0.3372,8166,3.9787,-9.4373
lg,1624810850451355553,0,-0.2131,-0.7969,0.5696,172,-34.3018,28.9307,75.4395,97,1.5087,1.5478,37.6505,-49.9823,35,0.3332,8190,3.9787,-8.2422
lg,1624810850451372426,0,-0.4863,-0.8113,0.5764,173,-54.5044,40.4053,94.2383,97,1.5027,1.5488,41.1086,-51.414,35,0.3312,8197,3.9787,-6.9013
lg,1624810850451389280,0,-0.7061,-0.7285,0.7131,174,-63.7817,-5.4321,119.5679,97,1.4887,1.5488,44.425,-50.7395,35,0.3192,12933,3.9787,-2.4071
lg,1624810850451408190,0,-0.2588,-0.6611,1.6487,175,-46.4478,-93.811,87.9517,97,1.4837,1.5468,43.4083,-46.1417,35,0.3122,8204,3.9787,5.7587
lg,1624810850451425897,0,-0.3162,-0.9551,0.99,176,-11.4746,-163.208,33.1421,97,1.4807,1.5438,38.1782,-43.0272,35,0.3102,8273,3.9787,13.6569
lg,1624810850451443399,0,-0.0627,-1.0266,1.1279,177,-62.1948,-204.9561,33.3252,97,1.4777,1.5418,31.7514,-41.451,35,0.3112,9006,3.9787,21.2724
lg,1624810850451460346,0,-0.0762,-0.8289,0.3584,178,-42.5415,-205.2612,-27.1606,97,1.4757,1.5428,24.0189,-41.7665,35,0.3142,8426,3.9787,25.9596
lg,1624810850451477460,0,0.0198,-0.8584,0.248,179,-24.353,-132.8125,-13.6108,97,1.4757,1.5438,18.9083,-42.7701,35,0.3122,8766,3.9787,28.852
lg,1624810850451494870,0,0.1465,-0.8806,0.2009,180,11.9629,-7.0801,13.3057,97,1.4767,1.5478,18.1165,-43.4246,35,0.3182,8861,3.9787,29.0355
lg,1624810850451512058,0,0.1345,-0.8618,0.3098,181,24.1089,58.96,13.1226,97,1.4777,1.5498,19.3503,-43.6533,35,0.3192,8315,3.9787,27.4751
lg,1624810850451528875,0,-0.0564,-0.8347,0.5005,182,51.3916,177.8564,-1.0986,97,1.4807,1.5518,23.8047,-44.2054,35,0.3232,8371,3.9787,21.9142
lg,1624810850451546229,0,-0.3337,-0.7993,0.7104,183,54.1382,204.7729,-21.6064,97,1.4867,1.5508,28.7114,-45.3654,35,0.3262,8427,3.9787,14.7253
lg,1624810850451564010,0,-0.4609,-0.7869,0.8467,184,57.8003,189.7583,-33.4473,97,1.4947,1.5498,31.3759,-45.9029,35,0.3232,8400,3.9787,8.1209
lg,1624810850451581160,0,-0.4709,-0.7358,0.7778,185,66.5283,106.5063,-53.1006,97,1.5007,1.5468,32.4852,-45.9626,35,0.3242,8475,3.9787,2.8279
lg,1624810850451598126,0,-0.3782,-0.8687,0.6326,186,44.4336,26.2451,-59.8755,97,1.5037,1.5438,30.979,-46.0264,35,0.3272,8499,3.9787,-0.1988
lg,1624810850451614684,0,-0.3489,-1.0127,0.49,187,34.4849,-3.6011,-63.5986,97,1.5087,1.5408,28.5553,-46.3666,35,0.3222,8486,3.9787,-2.5
lg,1624810850451631686,0,-0.2014,-0.9207,0.3938,188,31.4331,-26.1841,-47.6685,97,1.5107,1.5368,25.964,-45.3908,35,0.3202,8524,3.9787,-2.141
lg,1624810850451648985,0,-0.1262,-0.6951,0.3308,189,39.3066,-61.0352,7.019,97,1.5107,1.5327,23.8363,-43.7371,35,0.3262,8555,3.9787,-0.39
lg,1624810850451665969,0,0.0007,-0.4934,0.3276,190,-5.7983,-53.3447,58.1055,97,1.5127,1.5357,22.9915,-43.1355,35,0.3332,8484,3.9787,2.825
lg,1624810850451682990,0,-0.262,-0.8718,0.6665,191,-65.0635,44.0063,88.6841,97,1.5107,1.5378,26.3416,-45.5144,35,0.3312,8558,3.9787,4.108
lg,1624810850451713125,0,-0.6538,-0.8909,0.5542,192,-64.8804,43.0298,98.0835,97,1.5077,1.5418,29.8925,-47.0689,35,0.3192,8590,3.9787,6.713
lg,1624810850841884100,0,-0.4971,-0.8154,1.0938,193,-79.7729,-179.5044,107.3608,97,1.4757,1.5398,23.6528,-44.247,35,0.3041,27636,3.9787,17.3376
lg,1624810850841997432,0,0.3582,-0.9824,0.8416,194,-52.7344,-268.7378,16.3574,97,1.4717,1.5357,15.003,-43.7678,35,0.3061,12262,3.9787,25.6433
lg,1624810850842035437,0,0.1702,-0.8979,0.2395,195,-39.6118,-148.7427,-34.2407,97,1.4707,1.5368,8.9465,-45.827,35,0.3102,12291,3.9787,28.6492
lg,1624810850842069868,0,0.22,-0.9304,0.179,196,-4.7607,-23.5596,-20.4468,97,1.4697,1.5388,6.9114,-47.2136,35,0.3142,8567,3.9787,28.5917
lg,1624810850842102225,0,0.1133,-0.8704,0.1558,197,16.7847,32.7148,-14.6484,97,1.4697,1.5408,8.7612,-47.8471,35,0.3162,8930,3.9787,25.1005
lg,1624810850842133267,0,-0.0405,-0.8147,0.22,198,33.2031,163.7573,-9.6436,97,1.4707,1.5448,12.6088,-48.5311,35,0.3182,8947,3.9787,19.7072
lg,1624810850842163568,0,-0.3052,-0.7996,0.6042,199,49.6216,226.6846,3.6011,97,1.4727,1.5468,18.8437,-48.6082,35,0.3182,8741,3.9787,12.7092
lg,1624810850842196591,0,-0.4824,-0.7781,0.8008,200,54.0161,165.5273,-0.5493,97,1.4767,1.5468,23.3653,-48.1814,35,0.3192,9705,3.9787,7.4411
lg,1624810850842227855,0,-0.4031,-0.7007,0.8374,201,33.3862,40.5884,-7.5073,97,1.4817,1.5468,24.1091,-47.1194,35,0.3272,8612,3.9787,6.0433
lg,1624810850842259545,0,-0.2153,-0.8274,0.6711,202,20.6909,-31.311,-19.4702,97,1.4897,1.5458,22.1887,-46.2839,35,0.3262,8643,3.9787,6.3912
lg,1624810850842300829,0,-0.1372,-0.9673,0.6667,203,18.4937,-40.5884,-29.3579,97,1.4967,1.5448,19.6243,-45.784,35,0.3302,8680,3.9787,6.6292
lg,1624810850842338223,0,-0.0457,-1.1074,0.5889,204,28.0762,-36.0107,-47.3633,97,1.5017,1.5448,16.6148,-45.4172,35,0.3302,8710,3.9787,6.0981
lg,1624810850842369802,0,0.0635,-1.0364,0.4534,205,55.542,-19.5923,-31.8604,97,1.5057,1.5438,14.4374,-44.1337,35,0.3342,8779,3.9787,5.4857
lg,1624810850842403103,0,0.2029,-0.6533,0.3081,206,62.6221,37.4146,10.5591,97,1.5077,1.5438,14.7047,-42.6132,35,0.3432,8797,3.9787,4.5221
lg,1624810850842647214,0,0.1538,-0.5063,0.3613,207,39.4287,72.3877,22.644,97,1.5087,1.5438,18.2147,-43.3929,35,0.3492,8766,3.9787,2.3166
lg,1624810850842714224,0,-0.2195,-0.73,0.6196,208,-32.2266,150.3906,49.4995,97,1.5097,1.5478,23.6383,-46.0054,35,0.3402,8897,3.9787,-0.7928
lg,1624810850842748229,0,-0.7031,-0.8979,0.6602,209,-51.3306,149.4141,72.6929,97,1.5037,1.5508,30.1043,-49.5904,35,0.3392,9150,3.9787,-3.7051
lg,1624810850842778178,0,-0.9902,-0.741,0.7783,210,-39.856,49.9268,91.6138,97,1.4907,1.5518,34.6665,-50.4366,35,0.3232,8891,3.9787,-2.6351
lg,1624810850842809534,0,-0.585,-0.6033,1.3875,211,-54.6875,-99.7314,89.9658,97,1.4837,1.5508,34.3717,-47.7425,35,0.3182,9259,3.9787,4.5522
lg,1624810850842839613,0,-0.4863,-0.7678,0.4426,212,-27.0996,-242.3096,2.5635,97,1.4787,1.5438,27.6217,-45.0484,35,0.3162,11888,3.9787,12.5513
lg,1624810850843018880,0,0.0623,-0.9561,0.751,213,-56.8237,-295.8984,4.6997,97,1.4777,1.5408,18.2426,-44.0376,35,0.3182,9308,3.9787,21.5462
lg,1624810850843065017,0,0.0276,-0.8669,0.1912,214,-47.0581,-223.8159,-43.457,97,1.4747,1.5408,10.0603,-45.9015,35,0.3282,9277,3.9787,26.4087
lg,1624810850843099374,0,0.166,-0.9307,0.1262,215,0.8545,-79.895,-1.3428,97,1.4737,1.5438,7.121,-46.8475,35,0.3312,9329,3.9787,28.485
lg,1624810850843135416,0,0.1101,-0.8376,0.2773,216,26.6724,76.7822,14.7095,97,1.4737,1.5458,9.1008,-46.9925,35,0.3322,9275,3.9787,26.5
lg,1624810850843167736,0,-0.1348,-0.8169,0.6255,217,46.6919,182.9834,19.5923,97,1.4747,1.5488,14.5924,-46.3476,35,0.3332,9367,3.9787,21.5691
lg,1624810850843199204,0,-0.2581,-0.7839,0.6946,218,46.3257,190.7959,19.5923,97,1.4777,1.5488,20.511,-45.9864,35,0.3322,9089,3.9787,16.3801
lg,1624810850843232801,0,-0.3813,-0.7429,0.8379,219,36.0107,103.3936,-0.6104,97,1.4837,1.5488,23.2873,-45.5562,35,0.3282,9417,3.9787,13.2267
lg,1624810850843268084,0,-0.2971,-0.7896,0.8982,220,12.7563,8.667,-17.0898,97,1.4907,1.5468,22.6729,-45.168,35,0.3372,9344,3.9787,12.5104
lg,1624810850843299626,0,-0.0891,-0.8945,0.668,221,19.6533,-43.8843,-21.6675,97,1.4977,1.5488,20.1247,-44.4723,35,0.3312,9446,3.9787,13.0497
lg,1624810850843330927,0,0.042,-1.0737,0.5706,222,17.6392,-24.9023,-43.1519,97,1.5027,1.5478,17.3882,-44.6606,35,0.3342,9468,3.9787,12.2469
lg,1624810850843362598,0,0.0525,-1.0642,0.4648,223,43.0908,2.9907,-36.3159,97,1.5057,1.5468,15.7282,-44.1434,35,0.3332,9598,3.9787,10.8127
lg,1624810850843461020,0,0.1667,-0.707,0.3535,224,50.6592,46.7529,12.6953,97,1.5077,1.5458,16.404,-43.1452,35,0.3442,9522,3.9787,9.6298
lg,1624810851204403497,0,-0.6453,-0.9111,0.7109,225,-54.1992,161.9873,77.6367,97,1.4977,1.5518,22.5574,-45.867,35,0.3302,28357,3.9787,8.5267
lg,1624810851204432686,0,-0.8853,-0.658,0.8872,226,-55.7861,-15.1978,89.6606,97,1.4887,1.5538,25.358,-46.4683,35,0.3262,10819,3.9787,11.8416
lg,1624810851204452911,0,-0.3835,-0.6064,1.5886,227,-44.6777,-91.3696,67.749,97,1.4847,1.5498,25.0677,-46.2284,35,0.3082,7937,3.9787,16.7895
lg,1624810851204471673,0,-0.3691,-0.7598,0.7493,228,-49.7437,-220.6421,6.4087,97,1.4817,1.5468,18.9137,-45.5397,35,0.3152,8814,3.9787,23.8349
lg,1624810851204489657,0,0.0688,-0.8254,0.5398,229,-46.2646,-261.7188,-7.0801,97,1.4817,1.5458,10.5899,-45.9144,35,0.3182,7925,3.9787,31.2261
lg,1624810851204507401,0,-0.0481,-0.8857,0.1443,230,-47.4243,-164.0625,-54.8096,97,1.4807,1.5478,4.3314,-48.6572,35,0.3212,9805,3.9787,34.3616
lg,1624810851204534664,0,-0.0369,-0.9238,0.0732,231,-26.6724,-104.248,-34.3628,97,1.4797,1.5508,2.9497,-49.9222,35,0.3232,8579,3.9787,35.4244
lg,1624810851204554074,0,0.0303,-0.9587,0.2368,232,16.7236,30.8838,13.3057,97,1.4807,1.5528,3.9698,-50.2847,35,0.3262,8024,3.9787,34.7624
lg,1624810851204572632,0,-0.1196,-0.8848,0.6216,233,44.1284,132.4463,15.4419,97,1.4817,1.5538,7.9366,-49.0744,35,0.3272,8015,3.9787,31.0858
lg,1624810851204590709,0,-0.2351,-0.8025,0.6794,234,52.6123,138.2446,21.9116,97,1.4827,1.5538,12.5646,-47.481,35,0.3272,8040,3.9787,27.5015
lg,1624810851204611860,0,-0.3284,-0.6562,0.7427,235,38.9404,73.1201,13.6108,97,1.4867,1.5538,15.1773,-46.1172,35,0.3282,8076,3.9787,25.7404
lg,1624810851204629955,0,-0.2031,-0.7512,0.8691,236,14.7095,-13.916,-1.6479,97,1.4907,1.5528,14.5387,-45.2129,35,0.3212,8240,3.9787,26.1629
lg,1624810851204647531,0,-0.0889,-0.8167,0.8779,237,10.0098,-51.3916,-10.8032,97,1.4957,1.5518,11.3759,-44.5675,35,0.3232,8141,3.9787,27.6283
lg,1624810851204664534,0,0.0928,-0.9553,0.6113,238,15.0757,-76.7212,-32.4707,97,1.5017,1.5508,7.6708,-44.2601,35,0.3292,8116,3.9787,28.77
lg,1624810851204681869,0,-0.0012,-1.1421,0.322,239,40.8936,4.0894,-58.0444,97,1.5047,1.5498,5.9116,-43.9746,35,0.3272,13391,3.9787,26.8267
lg,1624810851204698835,0,0.0215,-1.0251,0.2524,240,60.3027,-2.3804,-26.6724,97,1.5057,1.5498,4.8665,-42.8425,35,0.3332,8259,3.9787,25.9875
lg,1624810851204715744,0,0.1267,-0.5181,0.3198,241,46.2646,56.0913,31.5552,97,1.5077,1.5498,6.7235,-41.6415,35,0.3452,8251,3.9787,25.3466
lg,1624810851204742674,0,-0.283,-0.6333,0.6387,242,-49.1943,168.2129,75.8667,97,1.5067,1.5508,14.0993,-44.1509,35,0.3382,8234,3.9787,22.918
lg,1624810851204760140,0,-0.5991,-0.7537,0.6655,243,-64.209,178.894,85.9985,97,1.4987,1.5538,22.4565,-47.7843,35,0.3252,8263,3.9787,19.9401
lg,1624810851204776772,0,-1.0044,-0.7534,0.728,244,-47.4243,70.4346,88.6841,97,1.4897,1.5528,27.7763,-49.4994,35,0.3132,8965,3.9787,20.1936
lg,1624810851204793589,0,-0.5073,-0.6875,1.5879,245,-40.7104,-92.041,92.2241,97,1.4847,1.5518,27.7437,-47.2868,35,0.3011,8353,3.9787,26.5794
lg,1624810851204810054,0,-0.2698,-0.8408,0.8118,246,-46.3867,-238.3423,37.7197,97,1.4807,1.5468,21.7231,-45.4211,35,0.2961,8360,3.9787,35.3372
lg,1624810851204826982,0,0.1338,-0.8525,0.4595,247,-67.749,-264.5264,43.7622,97,1.4787,1.5458,13.8146,-45.1994,35,0.2931,8674,3.9787,43.8774
lg,1624810851204843818,0,0.1487,-0.8796,0.2749,248,-41.9922,-220.3369,3.479,97,1.4767,1.5458,6.9977,-46.7269,35,0.2921,8342,3.9787,50.1719
lg,1624810851204860543,0,0.3401,-1.0486,0.3354,249,-14.6484,-80.3833,17.8833,97,1.4747,1.5488,4.4504,-47.9489,35,0.2941,8473,3.9787,52.9314
lg,1624810851204876989,0,0.4202,-0.9348,0.3599,250,27.2827,50.354,24.9634,97,1.4777,1.5508,5.5053,-47.6767,35,0.3011,8507,3.9787,52.0379
lg,1624810851204893714,0,0.1296,-0.8213,0.4954,251,38.0249,130.8594,20.5078,97,1.4787,1.5538,10.8507,-47.2305,35,0.3051,8439,3.9787,46.1462
lg,1624810851204910550,0,-0.0686,-0.8428,0.5896,252,44.8608,251.8921,1.1597,97,1.4817,1.5548,17.3785,-47.6108,35,0.3102,8476,3.9787,38.4753
lg,1624810851204926811,0,-0.406,-0.8188,0.6582,253,46.6309,229.5532,-20.6909,97,1.4857,1.5548,22.9965,-48.5992,35,0.3142,8494,3.9787,30.5664
lg,1624810851204943332,0,-0.4695,-0.7866,0.6895,254,50.7812,138.0005,-32.4097,97,1.4937,1.5558,25.6773,-48.826,35,0.3192,8514,3.9787,25.0711
lg,1624810851204959649,0,-0.4133,-0.8162,0.7026,255,52.124,90.0269,-36.0718,97,1.4977,1.5538,25.5506,-48.5417,35,0.3172,8641,3.9787,21.5647
lg,1624810851204976392,0,-0.3479,-0.9302,0.6013,256,40.2222,41.3818,-58.2886,97,1.5027,1.5498,24.5771,-48.5855,35,0.3152,8602,3.9787,18.3417
lg,1624810851600579973,0,-0.0308,-0.6453,0.5098,257,-23.4375,-44.5557,54.9927,97,1.5007,1.5568,24.5207,-48.3498,35,0.3202,28215,3.9787,21.3652
lg,1624810851600640185,0,-0.4902,-0.8521,0.6233,258,-54.0161,33.8135,110.9619,97,1.4927,1.5578,28.7567,-49.7634,35,0.3051,9375,3.9787,23.3758
lg,1624810851600692377,0,-0.49,-0.7297,1.1252,259,-31.0669,-25.5127,82.4585,97,1.4867,1.5568,30.2796,-48.621,35,0.3031,8501,3.9787,27.0831
lg,1624810851600725882,0,-0.4919,-0.6069,0.5527,260,-3.0518,-128.7842,1.8311,97,1.4817,1.5498,26.9053,-46.5883,35,0.3011,11103,3.9787,31.51
lg,1624810851600757775,0,-0.1956,-0.8362,0.6711,261,-44.1895,-187.7441,6.6528,88,1.4797,1.5488,21.301,-46.0277,35,0.3011,8858,3.9831,37.5761
lg,1624810851600788539,0,-0.2295,-0.8423,0.2251,262,-42.9077,-151.123,-11.5967,88,1.4767,1.5498,16.6805,-47.4452,35,0.3041,8923,3.9831,41.4962
lg,1624810851600818580,0,0.0864,-1.0532,0.5193,263,5.8594,-57.0679,37.2314,88,1.4767,1.5518,15.448,-47.0892,35,0.3061,9243,3.9831,44.1012
lg,1624810851600849159,0,0.2549,-0.8992,0.6816,264,27.9541,25.1465,30.9448,88,1.4777,1.5538,15.9617,-46.1631,35,0.3082,11674,3.9831,44.1499
lg,1624810851600878774,0,0.0059,-0.7817,0.6145,265,21.4233,104.248,0.7935,88,1.4807,1.5538,18.2096,-46.4523,35,0.3132,9538,3.9831,40.9494
lg,1624810851600907519,0,-0.2249,-0.8352,0.6423,266,13.5498,120.7886,-9.8877,88,1.4827,1.5538,20.9503,-47.4993,35,0.3152,8946,3.9831,36.8346
lg,1624810851600936560,0,-0.2954,-0.886,0.7053,267,12.3291,110.7178,-13.7329,88,1.4857,1.5528,23.2453,-48.6363,35,0.3242,8658,3.9831,32.8262
lg,1624810851600964786,0,-0.2896,-0.8782,0.7063,268,17.8223,53.4668,-12.8784,88,1.4907,1.5528,23.9055,-48.8709,35,0.3282,9038,3.9831,30.6594
lg,1624810851600993605,0,-0.2107,-0.8328,0.4644,269,35.2173,-10.1929,-7.2021,88,1.4937,1.5518,22.9873,-47.9078,35,0.3332,9039,3.9831,30.5797
lg,1624810851601021849,0,-0.1838,-0.8008,0.4233,270,19.8364,-22.3389,6.8359,88,1.4957,1.5518,22.1599,-47.3473,35,0.3372,8692,3.9831,31.2637
lg,1624810851601057262,0,-0.2424,-0.8472,0.6047,271,-32.2266,-15.9302,40.4663,88,1.4947,1.5538,22.5757,-48.2748,35,0.3392,9084,3.9831,32.8421
lg,1624810851601089359,0,-0.4021,-0.8699,0.5698,272,-53.7109,-3.2349,74.9512,88,1.4897,1.5558,25.1392,-49.5817,35,0.3362,9133,3.9831,35.5071
lg,1624810851601121178,0,-0.4302,-0.7581,0.5833,273,-40.4053,-32.6538,87.1582,88,1.4837,1.5548,26.4455,-48.894,35,0.3362,9130,3.9831,39.4341
lg,1624810851601152108,0,-0.3586,-0.6111,0.7327,274,-4.8828,-78.4912,35.7056,88,1.4797,1.5478,25.1926,-47.1114,35,0.3352,9148,3.9831,43.2611
lg,1624810851601208005,0,-0.2751,-1.001,0.9514,275,-45.0439,-133.3008,23.7427,88,1.4787,1.5478,21.7241,-46.8926,35,0.3352,9176,3.9831,48.2397
lg,1624810851601242102,0,-0.332,-0.9045,0.4236,276,-23.5596,-151.123,2.0752,88,1.4767,1.5488,17.5858,-46.9302,35,0.3382,9282,3.9831,52.7354
lg,1624810851601271014,0,-0.1555,-0.8921,0.4321,277,5.6152,-119.5068,16.9067,88,1.4757,1.5498,14.4986,-46.2529,35,0.3382,9237,3.9831,56.6285
lg,1624810851601301500,0,0.0176,-0.7734,0.4568,278,15.3198,-91.9189,18.8599,88,1.4757,1.5508,11.8948,-45.4215,35,0.3402,8896,3.9831,59.7442
lg,1624810851601332319,0,0.0466,-0.8225,0.6121,279,15.1978,-64.4531,17.4561,88,1.4777,1.5508,10.7595,-45.0123,35,0.3382,9289,3.9831,60.8407
lg,1624810851601363379,0,-0.0034,-0.8684,0.6543,280,10.376,-10.6812,2.2583,88,1.4797,1.5488,10.1072,-44.8416,35,0.3372,8934,3.9831,61.1531
lg,1624810851601392679,0,-0.0183,-0.9084,0.75,281,17.9443,0.3662,-10.3149,88,1.4877,1.5478,9.4644,-44.3929,35,0.3422,8955,3.9831,60.805
lg,1624810851601422702,0,0.1545,-0.8735,0.6597,282,46.6919,17.0898,-43.0298,88,1.4957,1.5458,8.086,-43.1243,35,0.3392,11744,3.9831,59.007
lg,1624810851601451780,0,0.0183,-0.9268,0.4387,283,40.4663,28.6865,-61.7676,88,1.4997,1.5428,6.6739,-42.783,35,0.3402,9432,3.9831,55.8493
lg,1624810851601481228,0,-0.0244,-0.8665,0.3369,284,40.1611,36.8652,-60.791,88,1.5007,1.5388,6.0376,-42.5598,35,0.3442,9410,3.9831,52.9211
lg,1624810851601510029,0,-0.1697,-0.6794,0.3721,285,2.2583,86.2427,6.5918,88,1.5007,1.5418,8.9846,-43.4629,35,0.3462,9435,3.9831,50.66
lg,1624810851601539829,0,-0.5166,-0.8201,0.6436,286,-43.7622,159.9731,81.9702,88,1.4957,1.5458,16.4755,-46.001,35,0.3432,9422,3.9831,48.3588
lg,1624810851601568518,0,-0.7808,-0.634,0.6472,287,-38.5132,69.3359,94.5435,88,1.4857,1.5518,22.0364,-47.2739,35,0.3402,9094,3.9831,48.9686
lg,1624810851601597152,0,-0.4243,-0.5862,1.5879,288,-38.3301,-57.4951,79.3457,88,1.4807,1.5498,22.5451,-46.1303,35,0.3292,9100,3.9831,53.5387
lg,1624810851967072502,0,0.1404,-0.9404,0.4146,289,-39.917,-190.4907,-28.1372,88,1.4717,1.5418,15.4311,-46.8938,35,0.3242,26743,3.9831,58.2649
lg,1624810851967136030,0,0.1509,-0.9316,0.291,290,8.9111,-11.2305,-0.6714,88,1.4697,1.5428,14.2309,-47.4497,35,0.3272,14890,3.9831,58.3222
lg,1624810851967158663,0,0.1575,-0.8887,0.3828,291,22.522,43.2739,7.0801,88,1.4697,1.5448,14.7253,-47.584,35,0.3282,7873,3.9831,57.01
lg,1624810851967180536,0,0.0393,-0.822,0.6143,292,32.5317,129.8218,6.4087,88,1.4707,1.5478,17.7328,-47.574,35,0.3302,7891,3.9831,53.131
lg,1624810851967199705,0,-0.1365,-0.7891,0.6104,293,28.3203,135.0098,-3.6011,88,1.4727,1.5498,20.8339,-48.0629,35,0.3332,7980,3.9831,48.7252
lg,1624810851967219134,0,-0.217,-0.7871,0.5789,294,22.583,120.9717,-9.3384,88,1.4747,1.5518,23.4082,-48.9587,35,0.3362,7960,3.9831,44.4597
lg,1624810851967238822,0,-0.3071,-0.8372,0.562,295,19.043,74.4019,-16.6626,88,1.4797,1.5528,24.5742,-49.6826,35,0.3282,9627,3.9831,41.3955
lg,1624810851967271790,0,-0.2083,-0.8889,0.7529,296,32.1655,21.9727,-15.3198,88,1.4867,1.5518,24.1088,-48.8738,35,0.3302,7968,3.9831,40.2232
lg,1624810851967292200,0,-0.0356,-0.8931,0.7458,297,51.2695,0.6714,-18.1274,88,1.4947,1.5488,21.8267,-47.3156,35,0.3302,8416,3.9831,38.9442
lg,1624810851967310350,0,-0.0159,-0.9597,0.4548,298,48.584,-8.7891,-84.2896,88,1.5007,1.5438,18.3463,-46.8346,35,0.3282,11431,3.9831,36.5103
lg,1624810851967328446,0,0.0381,-0.9382,0.3591,299,61.3403,-30.0903,-60.6079,88,1.5037,1.5398,14.7241,-45.658,35,0.3312,8417,3.9831,35.3357
lg,1624810851967347522,0,0.25,-0.5959,0.1921,300,60.6079,16.9678,11.7188,88,1.5067,1.5388,14.2398,-44.2452,35,0.3412,8093,3.9831,34.9147
lg,1624810851967369896,0,-0.0046,-0.614,0.7034,301,-22.7051,139.0381,46.0205,88,1.5057,1.5418,18.8954,-45.7928,35,0.3262,8437,3.9831,32.1976
lg,1624810851967390436,0,-0.2883,-0.8342,0.8499,302,-47.7295,191.8335,74.5239,88,1.5047,1.5458,26.9909,-49.3718,35,0.3312,8157,3.9831,28.7879
lg,1624810851967410272,0,-0.8662,-0.7449,0.7634,303,-30.7007,70.4346,86.4868,88,1.4897,1.5498,31.8984,-50.3578,35,0.3222,12839,3.9831,28.9441
lg,1624810851967428571,0,-0.9155,-0.5708,1.0093,304,-39.1846,-58.0444,69.1528,88,1.4807,1.5498,32.8137,-48.8917,35,0.3192,8227,3.9831,33.5742
lg,1624810851967449314,0,-0.4668,-0.6245,1.5322,305,-44.3726,-144.8364,66.2842,88,1.4777,1.5438,30.6647,-46.9917,35,0.3082,8680,3.9831,40.6716
lg,1624810851967467521,0,-0.1858,-0.8176,0.8386,306,-62.1948,-267.395,19.5312,88,1.4747,1.5418,23.0327,-45.1814,35,0.3041,8266,3.9831,49.9569
lg,1624810851967486412,0,0.1809,-0.8901,0.385,307,-45.9595,-264.2822,-1.2207,88,1.4737,1.5428,14.4162,-45.3298,35,0.3051,9169,3.9831,57.5
lg,1624810851967505155,0,0.4219,-1.0396,0.2407,308,-26.4893,-115.0513,18.1885,88,1.4677,1.5448,10.4961,-46.6546,35,0.3071,8469,3.9831,61.1401
lg,1624810851967585704,0,0.6135,-1.0083,0.324,309,24.1089,82.4585,45.5933,88,1.4727,1.5458,12.6269,-46.7849,35,0.3061,8331,3.9831,59.7971
lg,1624810851967618079,0,0.1843,-0.8274,0.4683,310,41.1377,264.1602,17.0898,88,1.4727,1.5478,19.3502,-47.7819,35,0.3061,9190,3.9831,52.0929
lg,1624810851967660048,0,-0.0608,-0.7634,0.5083,311,42.1753,303.2227,14.8926,88,1.4747,1.5498,27.0912,-50.2215,35,0.3061,8708,3.9831,42.4622
lg,1624810851967688903,0,-0.4121,-0.7952,0.6851,312,38.6963,274.5361,13.3057,88,1.4777,1.5508,34.0027,-53.5311,35,0.3132,8385,3.9831,32.843
lg,1624810851967708388,0,-0.5273,-0.8206,0.7034,313,31.25,161.499,-0.3662,88,1.4827,1.5518,37.36,-55.8706,35,0.3182,8406,3.9831,26.4401
lg,1624810851967727575,0,-0.3845,-0.8269,0.7388,314,30.7007,50.9033,7.0801,88,1.4887,1.5508,38.0243,-55.45,35,0.3142,8739,3.9831,24.734
lg,1624810851967748652,0,-0.2168,-0.8379,0.7012,315,43.5181,18.0664,10.2539,88,1.4967,1.5498,37.0769,-53.788,35,0.3202,9196,3.9831,24.4046
lg,1624810851967769378,0,-0.0754,-0.8867,0.6108,316,39.0625,16.9067,-16.0522,88,1.4997,1.5468,35.7182,-52.9885,35,0.3222,8464,3.9831,23.1991
lg,1624810851967790306,0,-0.1577,-0.814,0.3992,317,36.9263,36.7432,-12.146,88,1.5017,1.5468,35.3372,-53.0146,35,0.3272,10359,3.9831,21.127
lg,1624810851967807809,0,-0.2322,-0.6675,0.5103,318,1.5259,66.1621,33.5083,88,1.5037,1.5478,37.193,-53.8924,35,0.3432,8533,3.9831,19.4923
lg,1624810851967827182,0,-0.5571,-0.8025,0.759,319,-41.0767,102.417,55.603,88,1.5027,1.5508,40.9147,-56.8906,35,0.3292,8574,3.9831,16.9788
lg,1624810851967848333,0,-0.8633,-0.8071,0.7139,320,-52.6123,31.9214,68.7256,88,1.4967,1.5528,43.8201,-58.2578,35,0.3292,8563,3.9831,17.7448
lg,1624810852343101575,0,-0.3162,-0.729,0.5859,321,-26.001,-247.2534,18.4326,88,1.4787,1.5458,37.0514,-52.6815,35,0.3202,27417,3.9831,29.9623
lg,1624810852343167639,0,0.0698,-0.856,0.6338,322,-62.2559,-274.8413,3.6011,88,1.4767,1.5428,28.9442,-50.6687,35,0.3182,8740,3.9831,38.1955
lg,1624810852343190198,0,0.0906,-0.9917,0.209,323,-51.2695,-176.5137,-28.1372,88,1.4757,1.5438,24.8032,-51.7721,35,0.3182,7941,3.9831,40.7397
lg,1624810852343210664,0,0.1077,-1.0056,0.2324,324,-4.4556,-26.3672,10.1929,88,1.4747,1.5448,25.3909,-52.19,35,0.3162,9629,3.9831,39.6274
lg,1624810852343230500,0,0.0159,-0.8494,0.386,325,33.4473,89.9048,21.6064,88,1.4747,1.5468,27.2632,-52.5795,35,0.3152,7985,3.9831,36.7798
lg,1624810852343249928,0,-0.1558,-0.7454,0.6235,326,44.1284,134.2163,31.4331,88,1.4757,1.5488,30.7806,-52.6403,35,0.3142,7972,3.9831,32.8159
lg,1624810852343282766,0,-0.2031,-0.7349,0.7439,327,42.1753,126.4648,33.6304,88,1.4777,1.5498,34.1699,-52.5738,35,0.3202,7982,3.9831,29.2206
lg,1624810852343301713,0,-0.2083,-0.77,0.8018,328,25.9399,58.1665,13.3667,88,1.4837,1.5508,35.1006,-52.1648,35,0.3182,9718,3.9831,27.6039
lg,1624810852343320048,0,-0.0364,-0.8711,0.812,329,24.231,-4.0283,-5.249,88,1.4927,1.5508,33.5891,-50.9503,35,0.3212,8614,3.9831,27.7323
lg,1624810852343337865,0,0.165,-0.9917,0.7539,330,45.2881,5.0049,-47.2412,88,1.4987,1.5478,30.7653,-50.0787,35,0.3202,8800,3.9831,26.0769
lg,1624810852343356683,0,0.0735,-1.0593,0.4087,331,51.0254,68.3594,-108.6426,88,1.5007,1.5438,27.8812,-51.6007,35,0.3172,8442,3.9831,20.0921
lg,1624810852343374981,0,-0.0381,-1.0334,0.3201,332,57.251,78.4912,-109.0088,88,1.5027,1.5378,25.5488,-52.8081,35,0.3192,8851,3.9831,13.9141
lg,1624810852343393225,0,-0.155,-0.3979,0.4443,333,17.0898,166.5039,17.1509,88,1.5047,1.5388,29.6077,-54.2277,35,0.3222,11682,3.9831,8.5342
lg,1624810852343411005,0,-0.3638,-0.5625,0.7036,334,-37.9639,211.0596,38.6353,88,1.5047,1.5448,35.9764,-60.4592,35,0.3252,8842,3.9831,0.8789
lg,1624810852343428896,0,-0.9949,-0.8008,0.6616,335,-58.8989,176.1475,45.105,88,1.5027,1.5458,40.9944,-66.8353,35,0.3242,8536,3.9831,-5.9867
lg,1624810852343446509,0,-1.3232,-0.8071,0.8193,336,-35.0952,7.0801,47.9736,88,1.4957,1.5518,43.2411,-67.0042,35,0.3142,8911,3.9831,-4.8167
lg,1624810852343464289,0,-1.1326,-0.812,0.7988,337,-37.3535,-197.0825,58.8379,88,1.4867,1.5528,41.9938,-60.1741,35,0.3092,8645,3.9831,6.8046
lg,1624810852343482384,0,-0.3396,-0.6877,1.0352,338,-42.6636,-384.9487,71.3501,88,1.4817,1.5488,34.5999,-49.4333,35,0.3092,9029,3.9831,25.6259
lg,1624810852343500516,0,-0.1021,-0.6135,0.3254,339,-17.2119,-436.5234,44.9829,88,1.4787,1.5428,22.9499,-43.081,35,0.3092,8312,3.9831,40.9561
lg,1624810852343518222,0,0.3398,-0.8633,0.4836,340,-80.9937,-402.71,5.249,88,1.4747,1.5418,10.0082,-43.6613,35,0.3092,8322,3.9831,52.3037
lg,1624810852343535540,0,0.4956,-1.01,-0.0571,341,-45.2271,-246.7041,16.5405,88,1.4717,1.5408,2.3103,-46.1946,35,0.3102,9020,3.9831,59.5211
lg,1624810852343553246,0,0.5891,-1.1348,0.2778,342,11.9019,10.9253,45.166,88,1.4717,1.5438,2.8246,-46.6742,35,0.3051,8754,3.9831,60.408
lg,1624810852343571174,0,0.573,-1.072,0.5183,343,45.4712,104.126,51.1475,88,1.4717,1.5458,6.0876,-45.5924,35,0.3021,8740,3.9831,58.7651
lg,1624810852343615180,0,0.2102,-0.7019,0.5403,344,63.6597,201.0498,27.771,88,1.4717,1.5478,11.7795,-44.0798,35,0.3041,8804,3.9831,53.7774
lg,1624810852343633756,0,-0.145,-0.6694,0.6562,345,43.2129,229.126,20.5688,88,1.4747,1.5498,18.7731,-43.9886,35,0.3082,9124,3.9831,47.7739
lg,1624810852343651703,0,-0.3354,-0.8308,0.7688,346,28.9917,171.0815,16.4185,88,1.4787,1.5508,23.998,-44.6372,35,0.3162,8999,3.9831,43.0962
lg,1624810852343668575,0,-0.2998,-0.8455,0.8391,347,34.4849,89.4775,12.5732,88,1.4847,1.5508,26.4923,-44.2889,35,0.3142,8788,3.9831,40.7048
lg,1624810852343686522,0,-0.1863,-0.7769,0.7795,348,42.6025,64.3921,9.9487,88,1.4907,1.5498,27.8811,-43.5232,35,0.3282,9174,3.9831,38.9329
lg,1624810852343703802,0,-0.1392,-0.8096,0.6531,349,28.2593,63.8428,-5.7373,88,1.4957,1.5488,28.7749,-43.7632,35,0.3272,9201,3.9831,36.5816
lg,1624810852343721619,0,-0.2012,-0.9077,0.6187,350,23.6206,94.7876,-6.3477,88,1.4997,1.5478,30.5872,-44.9562,35,0.3322,8850,3.9831,33.0648
lg,1624810852343739103,0,-0.3511,-0.8481,0.5754,351,21.1792,105.1025,2.3193,88,1.4997,1.5458,33.1184,-46.4063,35,0.3402,8887,3.9831,29.3538
lg,1624810852343769126,0,-0.5535,-0.7146,0.7346,352,-16.0522,75.5615,28.8086,88,1.4997,1.5478,35.8054,-47.924,35,0.3392,9554,3.9831,27.6646
lg,1624810852713706646,0,-0.865,-0.6318,0.6458,353,-44.5557,-119.0796,91.3696,88,1.4827,1.5508,34.5289,-44.6374,35,0.3162,27252,3.9831,35.4577
lg,1624810852713741762,0,-0.1653,-0.7927,0.6841,354,-54.5044,-285.2173,42.3584,88,1.4777,1.5458,26.4606,-41.7041,35,0.3162,10726,3.9831,45.7953
lg,1624810852713762190,0,0.0422,-0.8894,0.7346,355,-71.9604,-299.6216,31.6162,88,1.4757,1.5448,17.317,-41.3652,35,0.3162,7858,3.9831,55.1843
lg,1624810852713786138,0,0.0823,-0.9866,0.2898,356,-45.3491,-220.7031,8.1177,88,1.4737,1.5458,10.2767,-42.8838,35,0.3182,7901,3.9831,61.1638
lg,1624810852713805844,0,0.365,-1.0464,0.3918,357,-27.4048,-162.8418,19.7754,88,1.4727,1.5468,7.1082,-42.97,35,0.3192,7914,3.9831,65.1058
lg,1624810852713823717,0,0.5249,-0.9746,0.4949,358,33.7524,-34.9121,47.7295,88,1.4727,1.5488,6.161,-42.0508,35,0.3142,8020,3.9831,67.3718
lg,1624810852713841441,0,0.3359,-0.7778,0.585,359,42.8467,121.2158,20.4468,88,1.4707,1.5488,9.3466,-41.1018,35,0.3212,9473,3.9831,64.6799
lg,1624810852713879298,0,-0.1189,-0.8169,0.6455,360,36.9263,202.8198,5.249,88,1.4767,1.5488,15.4475,-41.1846,35,0.3272,8755,3.9831,59.3048
lg,1624810852713898801,0,-0.3887,-0.8342,0.7178,361,45.5933,197.876,-6.1646,88,1.4817,1.5498,21.3497,-41.4759,35,0.3312,8562,3.9831,53.5145
lg,1624810852713917433,0,-0.3667,-0.7537,0.8276,362,54.1382,168.396,-9.5825,88,1.4867,1.5488,25.9782,-41.4199,35,0.3252,8602,3.9831,48.3156
lg,1624810852713935694,0,-0.3784,-0.7336,0.7051,363,44.5557,115.2344,-24.1089,88,1.4907,1.5488,28.5386,-41.7787,35,0.3302,8622,3.9831,43.9713
lg,1624810852713954160,0,-0.481,-0.8494,0.5359,364,15.0146,62.3169,-12.7563,88,1.4927,1.5498,29.9352,-42.9681,35,0.3452,8627,3.9831,41.3023
lg,1624810852713971551,0,-0.6689,-0.8689,0.5903,365,-32.3486,29.7852,26.2451,88,1.4907,1.5528,31.6277,-44.7842,35,0.3442,8677,3.9831,40.9715
lg,1624810852713988387,0,-0.7256,-0.7607,0.53,366,-39.917,2.8687,47.8516,88,1.4847,1.5548,33.5503,-45.819,35,0.3282,8714,3.9831,42.3326
lg,1624810852714005648,0,-0.7812,-0.5728,0.6411,367,-49.4385,-42.6636,73.9746,88,1.4777,1.5438,32.6024,-43.1803,35,0.3222,8735,3.9831,47.7425
lg,1624810852714023280,0,-0.425,-0.7957,0.9639,368,-57.0679,-174.2554,18.0664,88,1.4737,1.5408,27.4629,-42.2462,35,0.3252,8701,3.9831,53.9133
lg,1624810852714050672,0,-0.3528,-0.9224,0.5071,369,-51.3916,-215.8203,1.2207,88,1.4717,1.5408,20.8573,-42.4275,35,0.3222,8993,3.9831,59.9783
lg,1624810852714069008,0,0.0308,-0.9995,0.5491,370,-39.2456,-200.1343,11.3525,88,1.4707,1.5408,14.3388,-42.1903,35,0.3232,8602,3.9831,66.0473
lg,1624810852714086122,0,0.2366,-0.9282,0.593,371,-12.6343,-191.1011,13.0615,88,1.4697,1.5408,8.0667,-42.1842,35,0.3242,9044,3.9831,71.527
lg,1624810852714103235,0,0.439,-0.8977,0.5352,372,-2.3193,-70.2515,9.7046,79,1.4707,1.5528,5.1114,-42.6291,35,0.3242,9058,3.9897,73.6424
lg,1624810852714120496,0,0.3911,-0.9436,0.5649,373,11.5967,57.1899,-7.019,79,1.4737,1.5468,5.6493,-42.9321,35,0.3252,8527,3.9897,71.8179
lg,1624810852714137239,0,0.0823,-0.9133,0.5503,374,23.6206,175.2319,-38.5132,79,1.4757,1.5488,9.2901,-43.3861,35,0.3282,8297,3.9897,65.7868
lg,1624810852714154649,0,-0.0854,-0.906,0.5327,375,29.3579,209.8389,-48.9502,79,1.4807,1.5518,13.7792,-44.3272,35,0.3332,8374,3.9897,58.3119
lg,1624810852714182653,0,-0.3171,-0.886,0.5459,376,41.0156,219.9097,-64.27,79,1.4847,1.5518,18.2913,-45.5424,35,0.3302,8328,3.9897,49.831
lg,1624810852714199877,0,-0.3311,-0.8564,0.5762,377,72.937,191.3452,-64.0869,79,1.4897,1.5518,21.7666,-45.6909,35,0.3282,8433,3.9897,41.9737
lg,1624810852714216453,0,-0.3054,-0.856,0.6055,378,75.8667,180.0537,-69.7021,79,1.4957,1.5488,23.9795,-46.4056,35,0.3252,8408,3.9897,33.8777
lg,1624810852714232548,0,-0.3989,-0.9128,0.6145,379,65.979,160.2783,-85.8765,79,1.4967,1.5428,25.6691,-47.4104,35,0.3222,8416,3.9897,25.9787
lg,1624810852714249087,0,-0.4329,-0.7861,0.4651,380,60.3027,103.6987,-38.6353,79,1.4997,1.5357,27.3154,-47.5134,35,0.3222,8437,3.9897,21.188
lg,1624810852714265145,0,-0.4167,-0.4841,0.3682,381,36.6821,55.2368,10.8643,79,1.5027,1.5347,29.4007,-46.9485,35,0.3312,8507,3.9897,19.5913
lg,1624810852714282184,0,-0.4971,-0.4656,0.436,382,-2.2583,37.5366,21.4233,79,1.5037,1.5398,31.2009,-47.4348,35,0.3362,8873,3.9897,18.9379
lg,1624810852714299149,0,-0.6831,-0.8367,0.5769,383,-58.5938,7.6294,69.1528,79,1.5037,1.5448,33.5675,-49.0435,35,0.3182,9299,3.9897,20.6869
lg,1624810852714328524,0,-0.9194,-0.7983,0.4167,384,-70.3125,-88.4399,91.2476,79,1.4957,1.5478,34.4977,-48.8505,35,0.3122,8775,3.9897,26.5628
lg,1624810853102015648,0,-0.0789,-0.6995,0.6885,385,-31.4331,-403.9307,67.627,79,1.4687,1.5418,23.7305,-42.5938,35,0.3011,27481,3.9897,41.8285
lg,1624810853102052486,0,0.5444,-1.0413,0.6025,386,-61.4624,-337.5244,20.6299,79,1.4657,1.5428,12.7597,-42.4694,35,0.3031,13322,3.9897,51.764
lg,1624810853102073248,0,0.645,-0.9961,0.3262,387,-24.1699,-168.2739,21.1182,79,1.4657,1.5428,6.8987,-43.4656,35,0.3041,8012,3.9897,56.8444
lg,1624810853102093750,0,0.6611,-1.0593,0.4128,388,12.207,95.2759,19.2871,79,1.4667,1.5448,8.8205,-44.0988,35,0.3061,10539,3.9897,54.6407
lg,1624810853102112697,0,0.0967,-0.8474,0.3193,389,31.6162,232.605,-18.8599,79,1.4667,1.5458,14.3103,-45.2652,35,0.3071,8538,3.9897,47.2712
lg,1624810853102130958,0,-0.1433,-0.7361,0.3005,390,38.3301,278.4424,-12.0239,79,1.4677,1.5468,23.0638,-47.3133,35,0.3092,8553,3.9897,37.466
lg,1624810853102149072,0,-0.5361,-0.7158,0.5688,391,42.1753,321.0449,-1.709,79,1.4687,1.5478,31.646,-50.8396,35,0.3112,8507,3.9897,26.4446
lg,1624810853102166722,0,-0.7576,-0.6606,0.7415,392,41.8701,205.4443,4.2114,79,1.4707,1.5478,37.0157,-53.1554,35,0.3132,8599,3.9897,18.8986
lg,1624810853102206801,0,-0.5881,-0.636,0.8821,393,20.3857,54.1992,15.2588,79,1.4757,1.5468,38.4987,-52.6235,35,0.3102,9039,3.9897,17.6318
lg,1624810853102226322,0,-0.2749,-0.8264,0.8538,394,4.3945,-35.2173,2.1362,79,1.4817,1.5448,36.7356,-51.1306,35,0.3242,8784,3.9897,19.3564
lg,1624810853102245287,0,-0.1882,-0.8789,0.6995,395,7.5684,-39.4897,-17.1509,79,1.4897,1.5438,34.0839,-50.5382,35,0.3312,8655,3.9897,20.1638
lg,1624810853102263845,0,-0.0327,-1.0715,0.6953,396,17.7002,-21.4844,-40.5884,79,1.4957,1.5418,31.073,-50.3633,35,0.3332,8674,3.9897,19.5603
lg,1624810853102281662,0,-0.064,-1.0569,0.4702,397,39.0625,19.9585,-52.063,79,1.4987,1.5408,28.9474,-50.6225,35,0.3332,8788,3.9897,16.96
lg,1624810853102299164,0,0.0251,-0.6917,0.3564,398,44.6167,31.4941,-9.9487,79,1.4997,1.5418,28.2985,-50.0462,35,0.3402,8737,3.9897,15.295
lg,1624810853102317111,0,-0.207,-0.5977,0.5059,399,15.3198,64.5142,11.1694,79,1.5007,1.5458,31.181,-52.4417,35,0.3342,8714,3.9897,12.2238
lg,1624810853102334539,0,-0.4448,-0.6389,0.4526,400,-45.7764,122.6196,46.5698,79,1.4967,1.5488,35.4506,-56.2552,35,0.3172,8772,3.9897,8.6969
lg,1624810853102351782,0,-0.821,-0.8032,0.6204,401,-55.9082,91.6138,73.3032,79,1.4887,1.5508,39.9857,-59.5181,35,0.3092,8804,3.9897,6.8154
lg,1624810853102368914,0,-1.1011,-0.7371,0.9185,402,-20.6909,17.334,45.8374,79,1.4827,1.5498,42.0896,-59.2502,35,0.3112,8808,3.9897,7.7712
lg,1624810853102385397,0,-0.802,-0.5532,0.6013,403,-2.1973,-200.2563,-4.1504,79,1.4777,1.5458,37.6629,-53.2074,35,0.3051,8897,3.9897,16.7854
lg,1624810853102402362,0,-0.3694,-0.7549,0.6743,404,-64.3311,-331.665,-8.7891,79,1.4737,1.5438,28.454,-48.9865,35,0.3021,10571,3.9897,28.9321
lg,1624810853102419235,0,-0.0962,-0.8467,0.2358,405,-66.2231,-347.4731,-18.3105,79,1.4727,1.5428,18.0557,-48.395,35,0.3031,8863,3.9897,39.2222
lg,1624810853102436200,0,0.3101,-1.0537,0.2336,406,-23.5596,-216.6748,31.6162,79,1.4717,1.5438,12.0891,-48.4367,35,0.3021,8873,3.9897,46.4556
lg,1624810853102459851,0,0.5347,-1.0881,0.3838,407,4.1504,-135.1929,47.1191,79,1.4707,1.5458,10.5519,-47.6278,35,0.2951,8961,3.9897,48.7729
lg,1624810853102478242,0,0.5425,-0.9004,0.5098,408,33.5693,41.9922,23.0713,79,1.4727,1.5468,10.9657,-46.8524,35,0.3021,8977,3.9897,48.0551
lg,1624810853102495522,0,0.2168,-0.7393,0.5356,409,34.1187,168.9453,0.9766,79,1.4747,1.5508,14.65,-46.8816,35,0.3051,8945,3.9897,42.9634
lg,1624810853102523173,0,-0.0815,-0.8396,0.6821,410,27.1606,205.9326,-14.2822,79,1.4797,1.5528,19.3582,-47.93,35,0.3112,8952,3.9897,36.1781
lg,1624810853102591052,0,-0.2705,-0.9219,0.6736,411,23.4375,157.8369,-28.5645,79,1.4857,1.5528,22.4048,-49.321,35,0.3172,9687,3.9897,30.2183
lg,1624810853102610388,0,-0.2319,-0.9216,0.6609,412,44.1284,108.3374,-25.0244,79,1.4947,1.5528,24.0176,-49.4533,35,0.3132,9035,3.9897,25.8462
lg,1624810853102628316,0,-0.2537,-0.8792,0.5105,413,52.063,90.1489,-27.832,79,1.4957,1.5518,24.466,-49.3056,35,0.3172,9107,3.9897,22.2331
lg,1624810853102646225,0,-0.3433,-0.7859,0.4302,414,42.5415,58.6548,-29.6021,79,1.4967,1.5528,24.9641,-49.2572,35,0.3332,9068,3.9897,19.2242
lg,1624810853102663357,0,-0.3435,-0.6653,0.5029,415,-9.2163,33.8135,41.9312,79,1.4967,1.5538,27.0025,-49.7312,35,0.3302,9115,3.9897,19.2276
lg,1624810853102681378,0,-0.4976,-0.7344,0.6924,416,-41.1987,36.5601,74.4629,79,1.4937,1.5558,30.1806,-50.8125,35,0.3222,9118,3.9897,20.1672
lg,1624810853468276298,0,-0.4695,-0.6619,0.6545,417,-4.9438,-124.5728,53.5278,79,1.4777,1.5518,28.44,-47.8636,35,0.3011,27784,3.9897,26.2251
lg,1624810853468316784,0,-0.0837,-0.8896,0.6377,418,-40.8936,-235.2295,27.4048,79,1.4747,1.5498,21.9576,-46.1858,35,0.2991,13645,3.9897,34.5094
lg,1624810853468337453,0,0.0791,-0.9937,0.5337,419,-29.9683,-156.7383,18.3105,79,1.4737,1.5508,17.2048,-46.2177,35,0.3092,10541,3.9897,39.6134
lg,1624810853468357104,0,0.3147,-0.9287,0.4248,420,3.54,-80.5054,16.5405,79,1.4737,1.5518,14.2153,-46.0266,35,0.3112,9669,3.9897,42.2814
lg,1624810853468376236,0,0.3391,-0.8457,0.3586,421,13.7939,-25.5127,7.6294,79,1.4747,1.5538,12.4791,-46.0267,35,0.3122,7933,3.9897,43.0605
lg,1624810853468394127,0,0.116,-0.8667,0.5117,422,25.9399,119.9341,-11.8408,79,1.4767,1.5548,14.7048,-46.4367,35,0.3142,7919,3.9897,39.0391
lg,1624810853468411907,0,-0.2488,-0.8875,0.6147,423,34.1797,175.7202,-30.2124,79,1.4807,1.5538,18.5373,-47.1969,35,0.3192,7943,3.9897,32.7365
lg,1624810853468429483,0,-0.3967,-0.8306,0.7292,424,46.6919,136.7798,-38.5132,79,1.4877,1.5538,21.1437,-47.2097,35,0.3212,9035,3.9897,27.3363
lg,1624810853468446411,0,-0.3701,-0.8125,0.7512,425,58.3496,97.3511,-38.0859,79,1.4937,1.5518,22.5711,-46.4307,35,0.3272,8639,3.9897,23.1524
lg,1624810853468463321,0,-0.2375,-0.8472,0.6929,426,44.6167,42.7246,-52.4902,79,1.4967,1.5488,21.8247,-45.9171,35,0.3282,8005,3.9897,20.1829
lg,1624810853468480619,0,-0.2617,-0.8994,0.4578,427,30.9448,-5.4932,-61.1572,79,1.4987,1.5468,19.6606,-45.9486,35,0.3312,8528,3.9897,18.2817
lg,1624810853468518402,0,-0.2214,-0.8787,0.3757,428,27.5269,-30.1514,-39.856,79,1.4997,1.5468,18.2755,-45.5857,35,0.3362,8840,3.9897,18.9585
lg,1624810853468537385,0,-0.1169,-0.6938,0.3787,429,2.1973,-26.8555,37.5366,79,1.5017,1.5468,18.2328,-45.5301,35,0.3382,8528,3.9897,20.6719
lg,1624810853468555054,0,-0.199,-0.7383,0.5845,430,-34.4238,15.9912,89.6606,79,1.4987,1.5518,20.9991,-46.4166,35,0.3272,8101,3.9897,22.7475
lg,1624810853468573186,0,-0.4834,-0.7678,0.541,431,-45.3491,35.2783,109.9854,79,1.4917,1.5528,25.2133,-47.8321,35,0.3102,8158,3.9897,25.2056
lg,1624810853468590855,0,-0.7827,-0.6484,0.6802,432,-36.438,-3.479,88.623,79,1.4797,1.5508,28.3109,-47.8767,35,0.3082,11535,3.9897,28.0456
lg,1624810853468607875,0,-0.5439,-0.5896,1.3367,433,-33.5083,-39.1846,79.5898,79,1.4757,1.5478,26.7695,-45.386,35,0.3001,8207,3.9897,33.4233
lg,1624810853468624748,0,-0.5984,-0.8569,0.8921,434,-43.9453,-156.4331,31.7993,79,1.4717,1.5478,23.228,-44.5807,35,0.2931,8259,3.9897,39.3364
lg,1624810853468641769,0,-0.135,-0.9524,0.6968,435,-43.9453,-266.0522,38.269,79,1.4697,1.5478,16.069,-43.6787,35,0.2991,8214,3.9897,48.2028
lg,1624810853468658789,0,0.4758,-0.9099,0.5779,436,-37.9028,-296.3257,40.5884,79,1.4687,1.5478,7.8802,-43.7989,35,0.3031,8243,3.9897,56.8893
lg,1624810853468676588,0,0.6379,-0.967,0.4773,437,-31.0059,-191.1011,30.5786,79,1.4687,1.5488,1.9177,-45.1521,35,0.3051,8692,3.9897,63.058
lg,1624810853468693905,0,0.5159,-1.0388,0.3411,438,-12.8784,19.7144,9.7656,79,1.4687,1.5508,1.7138,-46.584,35,0.3092,8848,3.9897,62.7417
lg,1624810853468711610,0,0.0466,-0.9399,0.3877,439,20.5688,190.1245,-8.4229,79,1.4697,1.5498,6.4747,-46.9823,35,0.3122,9257,3.9897,56.9275
lg,1624810853468729983,0,-0.3826,-0.8164,0.5098,440,39.0625,243.3472,-8.728,79,1.4717,1.5528,13.4033,-47.1211,35,0.3132,8350,3.9897,49.416
lg,1624810853468747226,0,-0.6003,-0.7322,0.6423,441,39.4897,176.4526,-3.7842,79,1.4737,1.5528,18.7681,-47.1077,35,0.3162,8386,3.9897,43.9139
lg,1624810853468764450,0,-0.6045,-0.7014,0.7014,442,36.499,119.2017,-3.1738,79,1.4787,1.5528,22.3936,-46.9044,35,0.3222,8405,3.9897,40.1194
lg,1624810853468781193,0,-0.438,-0.762,0.6919,443,23.4985,6.0425,-1.2207,79,1.4857,1.5518,22.5447,-46.0751,35,0.3182,8414,3.9897,39.8847
lg,1624810853468798010,0,-0.1665,-0.9475,0.7634,444,18.9819,-37.1704,-17.395,79,1.4907,1.5498,20.4372,-45.2935,35,0.3322,8458,3.9897,40.4266
lg,1624810853468828495,0,-0.0537,-1.0737,0.6284,445,20.9961,-44.3115,-37.9028,79,1.4977,1.5488,16.6522,-44.9777,35,0.3342,8509,3.9897,39.9065
lg,1624810853468859666,0,-0.0195,-1.0381,0.4658,446,33.5083,-52.3682,-65.7349,79,1.4997,1.5458,12.7523,-44.5697,35,0.3352,8642,3.9897,39.2687
lg,1624810853468879150,0,0.1121,-0.7634,0.2754,447,51.0864,-34.3018,-33.3252,79,1.4997,1.5468,10.0962,-43.5149,35,0.3412,8552,3.9897,39.0417
lg,1624810853468896985,0,0.0986,-0.6155,0.5232,448,-0.061,77.8198,32.0435,79,1.5027,1.5488,12.5515,-43.9973,35,0.3382,8642,3.9897,37.7428
lg,1624810853824437707,0,-0.957,-0.7817,0.9583,449,-0.061,98.999,35.7666,79,1.4867,1.5538,17.3319,-44.2977,35,0.3082,27346,3.9897,35.9779
lg,1624810853824477100,0,-0.7219,-0.4949,1.2505,450,-14.9536,-89.9048,13.2446,79,1.4807,1.5518,15.5858,-43.2289,35,0.3031,12377,3.9897,39.2266
lg,1624810853824498881,0,-0.4709,-0.6519,0.5732,451,-45.4712,-242.5537,1.9531,79,1.4777,1.5498,9.1545,-43.7545,35,0.3071,8865,3.9897,46.0682
lg,1624810853824518309,0,-0.0691,-0.8748,0.2917,452,-64.27,-290.7104,15.7471,79,1.4757,1.5488,1.3062,-46.5808,35,0.3102,8809,3.9897,54.6073
lg,1624810853824537367,0,0.2688,-1.0264,0.1411,453,-35.7666,-185.3027,36.438,79,1.4747,1.5498,-0.3396,-47.6019,35,0.3102,14187,3.9897,58.6561
lg,1624810853824556129,0,0.5623,-1.1155,0.4839,454,26.062,-2.0752,59.6924,79,1.4757,1.5508,0.42,-47.2203,35,0.3122,8031,3.9897,60.327
lg,1624810853824574260,0,0.4561,-0.8218,0.614,455,48.0957,122.7417,31.4941,79,1.4777,1.5528,3.7575,-45.607,35,0.3122,8118,3.9897,57.6118
lg,1624810853824592966,0,0.1338,-0.7629,0.6692,456,46.7529,173.9502,16.4795,79,1.4807,1.5538,9.1022,-44.8968,35,0.3182,8843,3.9897,51.9098
lg,1624810853824611858,0,-0.0056,-0.8447,0.6909,457,28.7476,204.7119,-5.3101,79,1.4847,1.5548,14.3513,-45.2099,35,0.3202,8087,3.9897,45.7992
lg,1624810853824630304,0,-0.1482,-0.8943,0.7053,458,32.5928,185.1196,-34.1187,79,1.4907,1.5558,18.2503,-45.9921,35,0.3172,8743,3.9897,39.2273
lg,1624810853824648251,0,-0.1545,-0.8975,0.5811,459,50.354,161.6821,-46.1426,79,1.4967,1.5558,20.9717,-46.5515,35,0.3322,8756,3.9897,32.7683
lg,1624810853824666457,0,-0.1816,-0.8977,0.5632,460,49.6826,165.7104,-49.7437,79,1.4987,1.5548,23.6993,-47.6782,35,0.3372,8149,3.9897,25.8527
lg,1624810853824683718,0,-0.3467,-0.8118,0.4434,461,53.5889,157.5928,-42.9077,79,1.4997,1.5538,26.4794,-48.8236,35,0.3372,8116,3.9897,19.1732
lg,1624810853824792046,0,-0.5098,-0.5532,0.4778,462,22.522,154.48,11.4136,79,1.4997,1.5528,31.1245,-50.356,35,0.3352,8212,3.9897,14.1238
lg,1624810853824819735,0,-0.7871,-0.6909,0.7502,463,-15.1367,165.9546,41.1377,79,1.4977,1.5558,37.0821,-53.7529,35,0.3292,8389,3.9897,10.4384
lg,1624810853824845423,0,-0.9426,-0.7664,0.7695,464,-54.9316,106.5063,72.998,79,1.4947,1.5568,42.0281,-57.1224,35,0.3202,8228,3.9897,8.2235
lg,1624810853824865685,0,-1.1841,-0.7751,0.6865,465,-49.1333,-38.147,52.2461,79,1.4897,1.5598,43.2157,-56.5217,35,0.3102,8294,3.9897,11.7376
lg,1624810853824884947,0,-0.6606,-0.542,1.0664,466,-12.7563,-201.4771,48.4619,79,1.4857,1.5548,39.4972,-49.0279,35,0.3061,8299,3.9897,22.7527
lg,1624810853824905375,0,-0.5295,-0.5352,0.4482,467,-2.1362,-266.8457,27.2217,79,1.4847,1.5538,32.8255,-42.9686,35,0.3082,8358,3.9897,33.1861
lg,1624810853824924711,0,-0.2285,-0.7534,0.5701,468,-81.2988,-324.1577,4.9438,79,1.4847,1.5538,22.7462,-41.9489,35,0.3102,8327,3.9897,42.9812
lg,1624810853824945602,0,-0.0652,-0.9937,0.2063,469,-71.5332,-290.7104,-4.3335,79,1.4827,1.5538,13.578,-43.6462,35,0.3212,8337,3.9897,50.6048
lg,1624810853824964290,0,0.1807,-1.1892,0.3025,470,-54.8096,-236.4502,7.1411,79,1.4817,1.5548,8.589,-44.4995,35,0.3232,8346,3.9897,56.2545
lg,1624810853824984477,0,0.3218,-1.1355,0.4111,471,11.5356,-123.0469,47.4243,79,1.4817,1.5538,5.5481,-44.3863,35,0.3252,8450,3.9897,60.9478
lg,1624810853825006684,0,0.384,-0.8528,0.5708,472,39.1235,-1.3428,36.2549,79,1.4817,1.5568,5.5176,-43.1499,35,0.3262,8447,3.9897,61.9799
lg,1624810853825026001,0,0.1934,-0.717,0.583,473,23.6816,71.3501,25.8179,79,1.4827,1.5578,7.6234,-42.6334,35,0.3272,8437,3.9897,60.747
lg,1624810853825043540,0,0.0879,-0.7805,0.6306,474,13.3057,95.459,26.001,79,1.4827,1.5578,10.8833,-42.8489,35,0.3282,8493,3.9897,58.8277
lg,1624810853825061172,0,-0.1438,-0.957,0.636,475,7.3242,110.5347,26.062,79,1.4847,1.5588,14.6583,-43.6017,35,0.3302,8949,3.9897,56.393
lg,1624810853825079897,0,-0.2676,-0.9678,0.6177,476,24.5972,93.75,27.9541,79,1.4877,1.5578,18.0772,-43.6844,35,0.3342,9929,3.9897,54.3924
lg,1624810853825099158,0,-0.1243,-0.7605,0.707,477,49.9268,68.3594,30.2734,79,1.4917,1.5578,20.445,-42.1669,35,0.3342,8620,3.9897,53.3035
lg,1624810853825116957,0,-0.1399,-0.7205,0.6633,478,29.8462,71.2891,10.9253,79,1.4957,1.5578,22.3587,-41.8058,35,0.3362,8535,3.9897,51.521
lg,1624810853825162647,0,-0.1555,-0.7627,0.616,479,20.6299,67.0166,10.7422,79,1.4997,1.5578,24.2035,-42.0848,35,0.3412,8596,3.9897,49.7323
lg,1624810853825183891,0,-0.1963,-0.8369,0.6055,480,20.752,74.3408,7.8735,79,1.5017,1.5578,26.0849,-42.5913,35,0.3342,8561,3.9897,47.5628
lg,1624810854192291910,0,-0.4089,-0.7407,0.5952,481,19.8364,108.4595,0.4272,79,1.5057,1.5568,28.6042,-43.8408,35,0.3522,27507,3.9897,44.592
lg,1624810854192359140,0,-0.7722,-0.832,0.6472,482,-38.6353,20.0195,7.8125,79,1.5037,1.5588,29.6881,-45.8668,35,0.3372,10858,3.9897,44.0505
lg,1624810854192380309,0,-0.8088,-0.7454,0.4641,483,-64.8804,-74.5239,62.7441,82,1.4917,1.5608,29.9699,-46.6187,35,0.3162,9513,3.9886,48.3356
lg,1624810854192417721,0,-0.2539,-0.5938,1.5862,484,-69.0918,-102.5391,71.5332,82,1.4857,1.5558,27.2055,-44.5525,35,0.3071,7900,3.9886,55.3362
lg,1624810854192438038,0,-0.3979,-0.5435,0.3901,485,1.9531,-182.6782,-1.2817,82,1.4797,1.5448,22.0596,-42.5319,35,0.3051,8205,3.9886,60.6842
lg,1624810854192457651,0,-0.2871,-0.7598,0.7412,486,-80.0781,-255.6763,-45.5933,82,1.4747,1.5408,13.1561,-44.0461,35,0.3051,9017,3.9886,66.606
lg,1624810854192506842,0,-0.3589,-0.8816,0.1863,487,-64.3311,-240.8447,-34.9731,82,1.4707,1.5408,5.8603,-46.8116,35,0.3051,8542,3.9886,72.2866
lg,1624810854192528937,0,-0.1538,-1.1113,0.3516,488,-32.1655,-209.2285,-10.498,82,1.4687,1.5408,0.05,-48.7509,35,0.3061,8002,3.9886,78.1103
lg,1624810854192594871,0,0.2742,-1.167,0.5459,489,11.1694,-135.8643,23.2544,82,1.4647,1.5398,-3.2735,-49.0414,35,0.3071,8297,3.9886,82.8209
lg,1624810854192614503,0,0.3582,-0.8176,0.2883,490,31.8604,-71.4111,6.1646,82,1.4667,1.5408,-5.7077,-48.7149,35,0.3082,8104,3.9886,85.1853
lg,1624810854192633931,0,0.3457,-0.7056,0.302,491,36.8042,8.0566,7.6294,82,1.4657,1.5408,-5.6395,-47.4439,35,0.3102,8060,3.9886,85.1632
lg,1624810854192652285,0,0.1257,-0.8096,0.7183,492,21.1182,130.3711,2.0752,82,1.4667,1.5418,-2.0771,-46.3747,35,0.3112,8718,3.9886,81.3995
lg,1624810854192671861,0,-0.1296,-0.8271,0.6765,493,19.7754,128.9062,-7.1411,82,1.4687,1.5458,1.6287,-45.7301,35,0.3132,9317,3.9886,77.493
lg,1624810854192690400,0,-0.2568,-0.802,0.5918,494,22.0947,115.2954,-10.437,82,1.4707,1.5488,5.0451,-45.3475,35,0.3142,8290,3.9886,73.8933
lg,1624810854192708476,0,-0.301,-0.8098,0.5759,495,24.7803,111.6333,-7.8125,82,1.4737,1.5508,8.457,-45.0452,35,0.3242,8189,3.9886,70.4537
lg,1624810854192726830,0,-0.3218,-0.8137,0.6509,496,28.1982,102.1729,0.7935,82,1.4727,1.5508,11.7024,-44.6598,35,0.3262,8196,3.9886,67.5111
lg,1624810854192744258,0,-0.2502,-0.8245,0.8062,497,29.6631,81.604,3.2349,82,1.4817,1.5528,14.1321,-44.0068,35,0.3292,8202,3.9886,65.2546
lg,1624810854192778318,0,-0.2068,-0.8059,0.8433,498,29.7852,72.2046,-8.667,82,1.4887,1.5528,15.84,-43.6194,35,0.3342,8293,3.9886,62.8717
lg,1624810854192797783,0,-0.1316,-0.8999,0.7202,499,28.5034,56.3965,-30.7007,82,1.4917,1.5508,16.254,-43.4905,35,0.3332,13572,3.9886,60.2411
lg,1624810854192815229,0,-0.1968,-0.9807,0.6323,500,29.2358,89.9658,-48.4009,82,1.4937,1.5478,17.2487,-44.0381,35,0.3332,8328,3.9886,56.0263
lg,1624810854192833065,0,-0.2505,-0.9851,0.5178,501,31.8604,83.8013,-42.7856,82,1.4967,1.5438,18.4701,-44.6769,35,0.3322,8298,3.9886,52.0486
lg,1624810854192849845,0,-0.304,-0.7944,0.3975,502,44.7388,60.9741,-2.7466,82,1.4997,1.5418,20.1719,-44.2406,35,0.3372,8955,3.9886,49.9205
lg,1624810854192867791,0,-0.3406,-0.4573,0.3901,503,12.207,62.8662,46.875,82,1.5007,1.5438,23.635,-44.1023,35,0.3352,8360,3.9886,49.4098
lg,1624810854192885238,0,-0.6069,-0.666,0.7312,504,-69.5801,55.4199,67.0776,82,1.5017,1.5468,27.393,-46.656,35,0.3282,8566,3.9886,49.764
lg,1624810854192901814,0,-0.9292,-0.7585,0.4011,505,-76.7822,26.4282,76.7822,82,1.4947,1.5488,29.5709,-48.2959,35,0.3222,8376,3.9886,53.7582
lg,1624810854192918908,0,-1.0217,-0.7612,0.4131,506,-80.2002,-106.3843,105.835,82,1.4837,1.5508,30.714,-48.3858,35,0.3162,8451,3.9886,60.5004
lg,1624810854192937725,0,-0.9722,-0.7092,0.7434,507,-64.0869,-172.3633,130.9814,82,1.4707,1.5488,30.3732,-45.6756,35,0.2991,8612,3.9886,70.6034
lg,1624810854192954709,0,-0.3557,-0.7598,0.7312,508,-27.4048,-345.0928,65.5518,82,1.4677,1.5478,21.7628,-41.2174,35,0.2931,8518,3.9886,83.224
lg,1624810854192971803,0,0.3362,-1.0273,0.9016,509,-78.4912,-378.2349,55.7861,82,1.4647,1.5478,9.457,-41.4285,35,0.2971,8474,3.9886,95.4634
lg,1624810854192989805,0,0.4475,-0.9753,0.5522,510,-64.7583,-372.6807,17.8833,82,1.4637,1.5488,-2.0843,-44.0014,35,0.3001,8593,3.9886,105.9657
lg,1624810854193007066,0,0.6082,-1.0637,0.3545,511,-54.2603,-231.0181,-1.3428,82,1.4617,1.5498,-9.524,-47.7419,35,0.3051,8979,3.9886,112.6504
lg,1624810854193024735,0,0.7268,-1.0718,0.3245,512,-9.6436,-29.9683,-6.0425,82,1.4627,1.5508,-11.4229,-49.0767,35,0.3071,9946,3.9886,113.5476
lg,1624810854555925611,0,-0.387,-0.8667,0.4841,513,36.8042,294.1895,-36.499,82,1.4707,1.5528,-3.2294,-46.6704,35,0.3102,26269,3.9886,103.8847
lg,1624810854555961801,0,-0.5989,-0.7712,0.6494,514,39.978,135.437,-30.8838,82,1.4767,1.5518,0.9027,-45.0644,35,0.3192,10828,3.9886,99.1611
lg,1624810854555999231,0,-0.4355,-0.7349,0.6572,515,36.377,68.7256,-24.0479,82,1.4827,1.5518,1.6148,-43.8558,35,0.3222,7896,3.9886,98.2442
lg,1624810854556020456,0,-0.3081,-0.7844,0.6128,516,31.4941,-29.1138,-14.2822,82,1.4887,1.5508,0.9912,-42.8878,35,0.3262,7953,3.9886,98.6298
lg,1624810854556039699,0,-0.0842,-0.9517,0.6128,517,24.4751,-60.5469,-22.2778,82,1.4927,1.5508,-1.2525,-42.4642,35,0.3312,7871,3.9886,99.6128
lg,1624810854556058608,0,-0.1228,-0.9597,0.3376,518,31.0669,-75.2563,-9.4604,82,1.4947,1.5508,-3.4022,-42.3512,35,0.3372,9048,3.9886,101.3945
lg,1624810854556098446,0,0.0759,-0.6462,0.377,519,4.5776,-57.312,53.4668,82,1.4937,1.5538,-3.7289,-43.0301,35,0.3302,10138,3.9886,104.5669
lg,1624810854556118374,0,-0.2336,-0.6228,0.4727,520,-43.7622,53.894,101.0742,82,1.4857,1.5558,1.405,-45.163,35,0.3122,12872,3.9886,105.9692
lg,1624810854556135913,0,-0.4934,-0.6167,0.6143,521,-35.0342,61.4624,108.9478,82,1.4777,1.5538,7.2933,-46.4531,35,0.3082,8037,3.9886,107.2249
lg,1624810854556152952,0,-0.4622,-0.6494,1.2905,522,-11.3525,63.8428,80.0781,82,1.4737,1.5498,11.7833,-46.0933,35,0.3011,8058,3.9886,107.6867
lg,1624810854556170306,0,-0.4717,-0.8428,1.2563,523,-25.6958,-55.8472,37.7197,82,1.4697,1.5488,11.5556,-46.0896,35,0.3031,8132,3.9886,110.4988
lg,1624810854556188160,0,-0.1997,-0.8821,0.709,524,-35.2783,-158.7524,20.6299,82,1.4677,1.5478,7.7436,-46.808,35,0.3021,8150,3.9886,115.7087
lg,1624810854556205829,0,0.1611,-0.9128,0.5691,525,-33.5693,-165.5884,19.6533,82,1.4687,1.5498,3.1535,-47.8223,35,0.3041,9056,3.9886,121.0663
lg,1624810854556223220,0,0.3511,-0.9363,0.5073,526,-19.7144,-142.334,20.2026,82,1.4687,1.5518,-0.8223,-49.0119,35,0.3061,8100,3.9886,125.843
lg,1624810854556240500,0,0.4414,-1.0181,0.4465,527,-2.5024,21.6064,7.9956,82,1.4697,1.5528,-0.8287,-49.7234,35,0.3092,8081,3.9886,125.4052
lg,1624810854556261113,0,0.0784,-0.9556,0.4771,528,22.7661,170.4102,-19.7144,82,1.4737,1.5548,2.8273,-49.4415,35,0.3122,10603,3.9886,119.7082
lg,1624810854556280041,0,-0.2485,-0.8318,0.5334,529,35.3394,220.459,-31.5552,82,1.4777,1.5558,8.0351,-49.0428,35,0.3142,8183,3.9886,112.1654
lg,1624810854556298673,0,-0.3801,-0.7937,0.5481,530,36.0107,208.8623,-32.1655,82,1.4837,1.5548,13.0251,-49.1628,35,0.3202,8236,3.9886,104.8588
lg,1624810854556317545,0,-0.3987,-0.7891,0.6555,531,43.9453,135.437,-28.9307,82,1.4887,1.5558,16.0092,-48.6904,35,0.3212,8300,3.9886,99.8466
lg,1624810854556335640,0,-0.2759,-0.8376,0.4775,532,42.7246,63.6597,-35.5225,82,1.4937,1.5558,16.6309,-48.2673,35,0.3242,8313,3.9886,96.7528
lg,1624810854556353439,0,-0.2415,-0.8484,0.4224,533,37.2925,34.8511,-40.5884,82,1.4957,1.5548,16.2655,-48.0614,35,0.3302,8356,3.9886,94.352
lg,1624810854556370866,0,-0.1499,-0.7961,0.3582,534,39.6118,-3.2349,-12.2681,82,1.4977,1.5548,15.586,-47.2461,35,0.3332,8317,3.9886,93.9096
lg,1624810854556387980,0,-0.1555,-0.7285,0.4832,535,-24.231,42.7246,43.6401,82,1.4977,1.5568,17.8026,-48.6039,35,0.3332,8416,3.9886,93.7039
lg,1624810854556405111,0,-0.5735,-0.7437,0.4651,536,-41.748,69.9463,62.7441,82,1.4947,1.5588,23.1055,-50.9575,35,0.3272,8404,3.9886,93.0458
lg,1624810854556422243,0,-0.7842,-0.7546,0.5083,537,-48.0957,72.7539,93.9941,82,1.4867,1.5558,28.5192,-53.0283,35,0.3222,8350,3.9886,92.9804
lg,1624810854556438911,0,-1.0508,-0.6433,0.8083,538,-26.2451,-10.0098,91.98,82,1.4787,1.5548,31.8716,-52.1071,35,0.3132,8787,3.9886,96.164
lg,1624810854556470026,0,-0.7996,-0.5757,0.8838,539,-14.2212,-189.8804,55.542,82,1.4747,1.5528,28.9594,-47.7133,35,0.3092,8544,3.9886,104.9516
lg,1624810854556489362,0,-0.5056,-0.896,1.0654,540,-62.0117,-269.7144,49.8657,82,1.4707,1.5498,20.2946,-45.4296,35,0.3112,8487,3.9886,116.6345
lg,1624810854556526662,0,-0.0618,-0.9712,0.6782,541,-54.8096,-351.4404,31.9214,82,1.4687,1.5488,10.7016,-44.9866,35,0.3132,8574,3.9886,127.7311
lg,1624810854556545664,0,0.3918,-1.0051,0.4827,542,-43.0908,-308.5327,19.043,82,1.4677,1.5508,1.5699,-46.3982,35,0.3152,8495,3.9886,136.9934
lg,1624810854556564500,0,0.687,-1.0076,0.2634,543,-15.0146,-148.5596,14.8926,82,1.4677,1.5518,-3.3016,-47.9618,35,0.3192,8645,3.9886,141.7485
lg,1624810854556582687,0,0.469,-1.0205,0.4255,544,11.6577,102.356,-9.2773,82,1.4687,1.5548,-1.6246,-48.0387,35,0.3212,9222,3.9886,138.4879
lg,1624810854922969761,0,-0.5625,-0.8127,0.5918,545,38.208,200.9888,-39.6118,82,1.4817,1.5548,2.369,-46.7342,35,0.3312,28232,3.9886,132.9696
lg,1624810854923075236,0,-0.4434,-0.8062,0.6204,546,46.3257,45.7764,-36.438,82,1.4887,1.5528,3.4078,-45.1988,35,0.3322,8712,3.9886,130.6422
lg,1624810854923097258,0,-0.3215,-0.8621,0.6448,547,41.5649,15.8081,-39.856,82,1.4937,1.5508,3.2581,-43.9253,35,0.3342,7854,3.9886,129.0512
lg,1624810854923116852,0,-0.2546,-0.9338,0.4441,548,37.1704,-36.499,-48.4619,82,1.4957,1.5478,1.2959,-43.2265,35,0.3342,7865,3.9886,128.6181
lg,1624810854923136336,0,-0.0161,-0.8042,0.248,549,41.1377,-74.5239,-26.001,82,1.4977,1.5468,-0.9376,-42.8985,35,0.3412,7868,3.9886,131.3244
lg,1624810854923154801,0,0.0588,-0.6736,0.3132,550,7.3853,-55.8472,41.687,82,1.4987,1.5488,-1.3997,-42.8947,35,0.3402,9246,3.9886,134.0716
lg,1624810854923173192,0,-0.1499,-0.6887,0.6323,551,-38.9404,42.6636,95.8862,82,1.4967,1.5528,2.8873,-44.5951,35,0.3332,8552,3.9886,135.651
lg,1624810854923191194,0,-0.4375,-0.6631,0.6091,552,-30.9448,41.748,111.3892,82,1.4887,1.5548,8.0965,-45.7333,35,0.3252,7982,3.9886,137.5931
lg,1624810854923209141,0,-0.6294,-0.6501,0.6157,553,-29.3579,37.9639,93.689,82,1.4807,1.5558,12.6319,-46.0472,35,0.3232,8029,3.9886,139.2078
lg,1624810854923226791,0,-0.6765,-0.5144,1.1975,554,-5.6763,-19.8364,45.7153,82,1.4757,1.5548,13.9932,-45.0218,35,0.3182,8063,3.9886,141.2905
lg,1624810854923244089,0,-0.4421,-0.9404,1.1721,555,-61.9507,-164.917,28.2593,82,1.4707,1.5518,10.304,-46.0545,35,0.3182,8139,3.9886,146.9799
lg,1624810854923261332,0,-0.2109,-0.9456,0.8774,556,-47.5464,-230.1636,16.7847,82,1.4677,1.5498,4.1333,-47.2285,35,0.3202,8136,3.9886,154.1564
lg,1624810854923278741,0,0.1025,-0.9768,0.6431,557,-49.0112,-206.4209,4.0894,82,1.4647,1.5478,-1.5572,-49.4003,35,0.3222,8080,3.9886,160.4107
lg,1624810854923296040,0,0.2583,-0.918,0.2063,558,-27.5879,-119.751,-2.1973,82,1.4647,1.5498,-5.1925,-51.7289,35,0.3272,8086,3.9886,164.1028
lg,1624810854923313431,0,0.2732,-0.9202,0.1267,559,-12.4512,-44.7388,-1.77,82,1.4647,1.5488,-6.6639,-53.2837,35,0.3292,8114,3.9886,165.5768
lg,1624810854923331099,0,0.1287,-1.0073,0.4373,560,19.043,138.3057,3.8452,82,1.4637,1.5508,-3.2404,-52.6557,35,0.3302,8179,3.9886,161.2905
lg,1624810854923348916,0,-0.1941,-0.8977,0.5918,561,41.3818,177.6733,-15.1978,82,1.4687,1.5538,1.1699,-51.0401,35,0.3312,8209,3.9886,155.3423
lg,1624810854923365640,0,-0.3237,-0.7776,0.5752,562,41.3818,153.1982,-20.9351,82,1.4727,1.5558,5.2302,-49.6812,35,0.3332,8210,3.9886,150.0918
lg,1624810854923399959,0,-0.3992,-0.7302,0.6274,563,28.8696,76.355,-21.7896,82,1.4777,1.5578,7.2249,-48.8189,35,0.3352,8218,3.9886,147.1987
lg,1624810854923419906,0,-0.2373,-0.8,0.6394,564,15.7471,-14.3433,-10.437,82,1.4847,1.5568,6.7639,-48.2592,35,0.3372,8247,3.9886,147.3458
lg,1624810854923438445,0,0.0291,-0.9001,0.5964,565,25.6348,-51.7578,-11.6577,82,1.4937,1.5558,4.3533,-47.4394,35,0.3402,13922,3.9886,147.925
lg,1624810854923457447,0,0.1943,-1.0852,0.6235,566,30.6396,-18.4937,-42.2974,82,1.4957,1.5508,2.1016,-46.7335,35,0.3242,8338,3.9886,147.2769
lg,1624810854923475431,0,0.1987,-1.0676,0.4919,567,51.0864,36.499,-54.1382,82,1.4987,1.5448,1.0934,-45.4676,35,0.3222,9127,3.9886,144.6923
lg,1624810854923493988,0,0.1858,-0.7046,0.353,568,75.1953,116.0278,-4.0894,82,1.5007,1.5408,3.7166,-43.279,35,0.3312,8706,3.9886,141.2967
lg,1624810854923511546,0,-0.0842,-0.4187,0.4482,569,20.6909,200.2563,40.4053,82,1.5017,1.5398,10.7866,-42.9842,35,0.3402,8362,3.9886,136.9612
lg,1624810854923528844,0,-0.3347,-0.5054,0.665,570,-17.4561,233.9478,55.1758,82,1.5027,1.5438,20.6151,-46.0196,35,0.3302,9560,3.9886,131.9668
lg,1624810854923557329,0,-0.9773,-0.7671,0.6355,571,-55.6641,202.8809,86.3647,82,1.4977,1.5478,29.46,-50.1214,35,0.3262,9256,3.9886,127.7609
lg,1624810854923578257,0,-1.3608,-0.585,0.6052,572,-59.6313,28.0762,93.9941,82,1.4857,1.5508,34.1504,-51.3992,35,0.3152,8433,3.9886,129.5903
lg,1624810854923598612,0,-1.3201,-0.6846,0.9016,573,-69.2139,-146.8506,102.0508,82,1.4767,1.5508,34.1541,-48.8558,35,0.3092,8942,3.9886,138.4781
lg,1624810854923622559,0,-0.4185,-0.8477,0.5994,574,-41.626,-379.5776,65.979,82,1.4717,1.5458,25.1586,-43.4997,35,0.3031,8937,3.9886,152.9706
lg,1624810854923647080,0,0.3721,-1.0054,0.7583,575,-77.3926,-416.8701,57.0679,82,1.4667,1.5438,12.5496,-42.6241,35,0.3021,9240,3.9886,166.4495
lg,1624810854923670509,0,0.4717,-0.9836,0.458,576,-63.8428,-387.8174,19.043,82,1.4657,1.5448,0.6331,-44.6524,35,0.3051,8947,3.9886,-182.4518
lg,1624810855291737880,0,0.5427,-0.9961,0.178,577,30.3955,113.2202,-8.5449,82,1.4667,1.5488,5.3742,-44.1538,35,0.3112,27270,3.9886,171.1896
lg,1624810855291828927,0,-0.147,-0.8037,0.4375,578,57.8003,297.0581,-25.3906,82,1.4697,1.5508,13.3047,-44.0025,35,0.3142,8695,3.9886,162.0345
lg,1624810855291854430,0,-0.4387,-0.7527,0.6101,579,66.7114,273.1934,-27.4658,82,1.4737,1.5528,20.773,-44.1659,35,0.3172,7929,3.9886,153.216
lg,1624810855291961756,0,-0.5215,-0.7305,0.676,580,66.9556,236.2671,-29.541,82,1.4777,1.5538,26.9018,-44.9017,35,0.3212,7919,3.9886,145.0134
lg,1624810855291985073,0,-0.5378,-0.6853,0.729,581,58.2886,137.146,-29.1138,82,1.4837,1.5538,29.9756,-45.0386,35,0.3252,8034,3.9886,139.6942
lg,1624810855292002760,0,-0.4568,-0.7136,0.6785,582,44.4946,69.5801,-27.9541,82,1.4897,1.5538,30.9326,-44.9351,35,0.3332,8824,3.9886,136.4639
lg,1624810855292023837,0,-0.3713,-0.8613,0.6624,583,35.7056,42.2974,-26.4893,82,1.4947,1.5538,30.9013,-44.9933,35,0.3362,8628,3.9886,134.0287
lg,1624810855292045006,0,-0.373,-0.9338,0.6833,584,36.5601,46.2646,-27.5269,82,1.4967,1.5528,30.935,-45.278,35,0.3382,8036,3.9886,131.3367
lg,1624810855292062304,0,-0.428,-0.9189,0.5386,585,47.1191,40.7715,-7.9346,82,1.4997,1.5528,31.5246,-44.8361,35,0.3412,8188,3.9886,129.4071
lg,1624810855292081973,0,-0.5325,-0.5657,0.551,586,-17.1509,-0.5493,36.1938,82,1.5007,1.5528,32.6186,-44.889,35,0.3412,13092,3.9886,130.6227
lg,1624810855292101290,0,-0.6567,-0.6218,0.5876,587,-53.9551,-7.9346,59.082,82,1.4977,1.5548,34.2611,-45.8461,35,0.3312,8072,3.9886,132.8504
lg,1624810855292120810,0,-0.8438,-0.6882,0.5864,588,-69.7632,-69.8853,93.3838,82,1.4887,1.5568,35.3299,-45.5357,35,0.3182,8113,3.9886,138.4007
lg,1624810855292143276,0,-0.8149,-0.7166,0.7659,589,-64.209,-173.9502,93.5669,82,1.4807,1.5568,33.0761,-42.8615,35,0.3102,8411,3.9886,147.5826
lg,1624810855292161370,0,-0.4219,-0.6982,1.2883,590,-47.3633,-234.1919,80.2002,82,1.4767,1.5508,27.5387,-39.9042,35,0.3051,8163,3.9886,157.4243
lg,1624810855292180576,0,-0.061,-0.8936,0.9155,591,-73.9746,-350.2808,24.9023,82,1.4737,1.5538,16.2164,-39.4287,35,0.3021,10274,3.9886,167.6174
lg,1624810855292200819,0,0.2971,-0.998,0.467,592,-82.5195,-378.1738,-6.5918,82,1.4727,1.5468,3.5573,-41.9837,35,0.3031,8321,3.9886,-182.8797
lg,1624810855292220136,0,0.5178,-1.1741,0.2588,593,-55.3589,-213.501,-15.8081,82,1.4717,1.5478,-4.0143,-45.3992,35,0.3041,8235,3.9886,-177.4896
lg,1624810855292238712,0,0.5881,-1.103,0.0415,594,-25.0244,-117.6147,-3.0518,82,1.4717,1.5488,-5.159,-46.4722,35,0.3041,8465,3.9886,-176.7864
lg,1624810855292257566,0,0.4644,-0.949,0.1091,595,34.4238,94.2383,8.8501,82,1.4727,1.5498,-3.1563,-46.1419,35,0.3011,8435,3.9886,-179.1738
lg,1624810855292288569,0,0.0737,-0.7759,0.437,596,53.833,257.0801,9.0942,82,1.4737,1.5518,4.2075,-44.621,35,0.3001,8374,3.9886,-186.2018
lg,1624810855292307997,0,-0.2463,-0.729,0.7275,597,50.4761,257.6904,11.7188,82,1.4757,1.5538,12.2445,-43.6041,35,0.3001,8347,3.9864,166.9009
lg,1624810855292326981,0,-0.3435,-0.7009,0.6992,598,46.5698,218.811,7.3853,85,1.4787,1.5548,17.4988,-43.2282,35,0.3041,8602,3.9864,162.2595
lg,1624810855292344853,0,-0.3794,-0.7146,0.7373,599,32.3486,121.3989,3.7842,85,1.4827,1.5548,21.227,-43.0897,35,0.3102,8442,3.9864,158.841
lg,1624810855292373578,0,-0.2825,-0.8142,0.8042,600,20.813,66.5283,8.2397,85,1.4887,1.5548,23.0895,-42.9849,35,0.3162,8885,3.9864,157.1026
lg,1624810855292394858,0,-0.1448,-0.8677,0.7258,601,28.1372,35.7056,-1.5869,85,1.4927,1.5518,23.4719,-42.594,35,0.3262,8442,3.9864,155.8732
lg,1624810855292413657,0,-0.0947,-0.9148,0.6584,602,31.0669,59.9976,-20.5078,85,1.4957,1.5508,23.9548,-42.8246,35,0.3292,8528,3.9864,153.2361
lg,1624810855292432233,0,-0.1211,-0.9583,0.665,603,34.3018,78.4302,-25.5127,85,1.4987,1.5498,25.6087,-43.4309,35,0.3182,8540,3.9864,149.2366
lg,1624810855292450457,0,-0.2429,-0.9258,0.574,604,42.1143,111.5112,-17.2729,85,1.5007,1.5448,27.8402,-44.18,35,0.3212,8555,3.9864,144.9439
lg,1624810855292467348,0,-0.3364,-0.6775,0.5234,605,31.4331,97.8394,6.2256,85,1.5017,1.5468,30.5385,-44.6901,35,0.3392,8558,3.9864,141.8433
lg,1624810855292485442,0,-0.5281,-0.614,0.6172,606,-33.2031,55.9082,37.1704,85,1.5027,1.5478,33.1722,-46.3532,35,0.3332,8676,3.9864,141.1846
lg,1624810855292502925,0,-0.8452,-0.8525,0.5747,607,-63.7817,45.9595,53.2837,85,1.5007,1.5508,36.052,-48.7973,35,0.3222,8677,3.9864,142.5236
lg,1624810855292521761,0,-0.9446,-0.7937,0.522,608,-68.0542,-37.4756,84.1675,85,1.4927,1.5538,37.9584,-49.2519,35,0.3202,8656,3.9864,146.5475
lg,1624810855656690606,0,-0.1543,-0.772,0.561,609,-44.5557,-340.7593,47.7905,85,1.4707,1.5448,28.2382,-45.2399,35,0.3031,27662,3.9864,159.4108
lg,1624810855656745186,0,0.2144,-1.0149,0.3699,610,-53.1006,-276.2451,4.6387,85,1.4697,1.5458,19.2681,-44.8588,35,0.3011,8771,3.9864,167.5932
lg,1624810855656777078,0,0.4548,-1.1323,0.571,611,-13.855,-164.6118,-7.1411,85,1.4707,1.5478,13.0294,-44.8055,35,0.3011,7893,3.9864,-188.0145
lg,1624810855656807026,0,0.5823,-1.0352,0.5161,612,7.3242,-110.1685,-7.2021,85,1.4717,1.5498,8.2875,-44.6183,35,0.3051,7948,3.9864,-185.2166
lg,1624810855656836140,0,0.5105,-0.8838,0.4165,613,24.231,45.8374,-28.4424,85,1.4737,1.5518,7.4719,-44.6344,35,0.3082,7938,3.9864,-187.4389
lg,1624810855656863717,0,0.085,-0.8994,0.4543,614,32.1045,204.7729,-51.3916,85,1.4767,1.5528,11.3133,-45.2749,35,0.3142,8168,3.9864,165.131
lg,1624810855656927724,0,-0.134,-0.8982,0.5088,615,35.5835,244.3848,-55.6641,85,1.4807,1.5538,16.331,-46.568,35,0.3202,8199,3.9864,156.198
lg,1624810855656976267,0,-0.3572,-0.8088,0.5588,616,54.6875,227.417,-53.1616,85,1.4847,1.5548,21.0849,-47.4667,35,0.3212,7972,3.9864,147.5531
lg,1624810855657005659,0,-0.4165,-0.6951,0.5698,617,61.2183,143.9209,-48.0347,85,1.4867,1.5548,23.6806,-47.4129,35,0.3202,8576,3.9864,141.5182
lg,1624810855657033088,0,-0.3381,-0.6526,0.5671,618,48.4619,89.2944,-21.9727,85,1.4897,1.5538,25.3489,-47.0017,35,0.3212,8097,3.9864,137.9534
lg,1624810855657060128,0,-0.2917,-0.6763,0.5854,619,34.9731,77.5757,-16.2964,85,1.4917,1.5528,26.6808,-47.0096,35,0.3242,8105,3.9864,134.8932
lg,1624810855657086149,0,-0.3345,-0.8125,0.5908,620,20.1416,65.6128,-12.0239,85,1.4957,1.5548,27.7675,-47.6496,35,0.3392,8206,3.9864,132.2241
lg,1624810855657112170,0,-0.3181,-0.835,0.6733,621,14.8926,42.8467,7.9956,85,1.4977,1.5528,28.7011,-47.7585,35,0.3412,8162,3.9864,130.9592
lg,1624810855657138395,0,-0.332,-0.8621,0.7273,622,10.8643,33.4473,24.1699,85,1.4997,1.5528,29.8197,-47.5936,35,0.3462,8126,3.9864,130.5262
lg,1624810855657165417,0,-0.4316,-0.978,0.854,623,-26.9775,12.7563,51.2085,85,1.5007,1.5548,31.2191,-48.1233,35,0.3362,8147,3.9864,131.6575
lg,1624810855657280725,0,-0.5764,-0.8157,0.5483,624,-68.1152,-61.1572,74.8901,85,1.4967,1.5568,31.8158,-48.8004,35,0.3202,8193,3.9864,135.9769
lg,1624810855657316785,0,-0.6399,-0.7085,0.4783,625,-77.3926,-112.5488,78.5522,85,1.4877,1.5578,31.6634,-48.8332,35,0.3102,8217,3.9864,142.2242
lg,1624810855657344918,0,-0.4807,-0.6084,0.6626,626,-47.3022,-189.0869,89.0503,85,1.4827,1.5548,29.0447,-45.7807,35,0.3041,8299,3.9864,151.6047
lg,1624810855657371680,0,-0.1396,-0.6868,0.6077,627,-14.2822,-250.6104,35.2173,85,1.4787,1.5508,22.1001,-42.6393,35,0.2991,8298,3.9864,160.39
lg,1624810855657398460,0,-0.0339,-0.8328,0.8445,628,-62.1338,-263.3057,19.3481,85,1.4767,1.5508,13.9214,-43.2131,35,0.2971,8280,3.9864,168.1847
lg,1624810855657424148,0,0.0354,-0.9697,0.374,629,-49.1333,-233.4595,8.4839,85,1.4757,1.5508,6.9191,-44.919,35,0.3001,8336,3.9864,-185.2032
lg,1624810855657452263,0,0.2737,-1.1414,0.5818,630,-10.9253,-149.7192,-4.0283,85,1.4757,1.5538,1.8929,-45.7075,35,0.3001,8315,3.9864,-181.1213
lg,1624810855657622948,0,0.5295,-0.989,0.5872,631,26.7944,-75.1953,-3.8452,85,1.4767,1.5548,-1.3292,-45.1031,35,0.3051,8383,3.9864,-179.1068
lg,1624810855657665582,0,0.5254,-0.8184,0.4133,632,32.3486,57.1289,-24.9634,85,1.4787,1.5568,-1.5021,-44.3585,35,0.3092,13737,3.9864,-181.4226
lg,1624810855657693770,0,0.1736,-0.8726,0.4512,633,29.541,199.646,-50.0488,85,1.4827,1.5578,2.4631,-43.9322,35,0.3112,8369,3.9864,-188.4024
lg,1624810855657724199,0,-0.1653,-0.9165,0.5593,634,38.269,246.0327,-58.6548,85,1.4857,1.5578,8.1455,-43.7622,35,0.3082,8371,3.9864,163.0422
lg,1624810855657751536,0,-0.2366,-0.8896,0.5762,635,48.7671,227.478,-53.772,85,1.4907,1.5568,13.3693,-43.8169,35,0.3202,8459,3.9864,154.9889
lg,1624810855657779594,0,-0.2041,-0.7717,0.6204,636,74.2798,178.5889,-43.0908,85,1.4937,1.5548,17.2852,-42.8237,35,0.3262,8568,3.9864,148.5399
lg,1624810855657915979,0,-0.2305,-0.7363,0.5691,637,68.0542,158.6914,-48.2178,85,1.4967,1.5498,20.4925,-42.4384,35,0.3172,10448,3.9864,142.3818
lg,1624810855657958039,0,-0.3569,-0.7026,0.5073,638,51.1475,149.0479,-26.123,85,1.4987,1.5488,24.2276,-42.828,35,0.3202,8494,3.9864,137.0184
lg,1624810855657985876,0,-0.3843,-0.689,0.5933,639,23.9868,127.2583,18.1885,85,1.5007,1.5468,28.356,-43.5829,35,0.3282,8663,3.9864,133.6078
lg,1624810855658014879,0,-0.4146,-0.7244,0.7168,640,11.5356,121.7041,32.5928,85,1.5017,1.5448,32.5358,-44.6754,35,0.3352,8498,3.9864,130.6962
lg,1624810856026709791,0,-0.7114,-0.8391,0.6306,641,-65.4297,-80.5664,60.791,85,1.4967,1.5508,32.2425,-45.056,35,0.3192,27690,3.9864,135.2659
lg,1624810856026748887,0,-0.5781,-0.6355,0.533,642,-54.8096,-212.5854,80.7495,85,1.4897,1.5528,28.4889,-42.5974,35,0.3152,15601,3.9864,144.7031
lg,1624810856026793669,0,-0.0464,-0.6892,1.0137,643,-52.8564,-296.5088,84.3506,85,1.4867,1.5528,20.8281,-39.6038,35,0.3112,7917,3.9864,156.1973
lg,1624810856026815116,0,0.2275,-0.8516,0.5696,644,-58.8379,-345.6421,23.5596,85,1.4837,1.5528,9.6761,-39.9922,35,0.3142,8845,3.9864,165.8416
lg,1624810856026834729,0,0.3655,-0.9648,0.5923,645,-73.9136,-314.5142,11.9629,85,1.4827,1.5528,-0.484,-43.265,35,0.3172,8035,3.9864,-185.5972
lg,1624810856026854342,0,0.4512,-1.0354,0.1865,646,-24.1699,-161.3159,-2.3804,85,1.4817,1.5538,-6.0043,-45.7023,35,0.3182,9297,3.9864,-181.1069
lg,1624810856026872585,0,0.5032,-1.0723,0.5212,647,22.644,23.0713,-5.7983,85,1.4817,1.5558,-6.1949,-45.3614,35,0.3192,8567,3.9864,-181.8685
lg,1624810856026890976,0,0.4387,-0.812,0.5354,648,55.8472,128.7842,-4.0283,85,1.4837,1.5578,-3.3502,-43.2165,35,0.3202,8820,3.9864,-185.5716
lg,1624810856026921312,0,0.3379,-0.7358,0.5432,649,55.7861,171.814,-12.5122,85,1.4857,1.5578,2.2119,-41.5367,35,0.3222,8038,3.9864,167.9032
lg,1624810856026940221,0,0.0291,-0.7585,0.5781,650,39.6118,256.1035,-25.0854,85,1.4887,1.5578,9.039,-41.132,35,0.3242,8053,3.9864,160.3393
lg,1624810856026958316,0,-0.2612,-0.8223,0.6248,651,33.6914,273.1934,-24.5972,85,1.4907,1.5588,16.7146,-42.0648,35,0.3252,8083,3.9864,152.0847
lg,1624810856026976577,0,-0.3591,-0.8167,0.6809,652,34.1187,252.9907,-23.8647,85,1.4937,1.5578,23.6771,-43.775,35,0.3282,8107,3.9864,143.9203
lg,1624810856026995116,0,-0.5681,-0.8074,0.6343,653,40.7104,153.8086,-25.6348,85,1.4967,1.5568,27.5384,-44.8555,35,0.3262,14550,3.9864,138.2101
lg,1624810856027012192,0,-0.5293,-0.8562,0.6833,654,39.3066,76.0498,-5.188,85,1.4987,1.5558,29.4648,-44.7871,35,0.3222,8512,3.9864,135.4765
lg,1624810856027029990,0,-0.5103,-0.7703,0.4734,655,40.0391,42.7856,2.2583,85,1.4997,1.5548,30.0162,-43.5726,35,0.3422,8206,3.9864,135.8362
lg,1624810856027047732,0,-0.4758,-0.6919,0.4827,656,10.9863,-39.3677,37.7808,85,1.5017,1.5558,29.8905,-42.3208,35,0.3432,8580,3.9864,138.13
lg,1624810856027064882,0,-0.5237,-0.6113,0.4644,657,-47.3022,-98.8159,90.8203,85,1.4997,1.5578,29.5764,-41.5304,35,0.3282,8592,3.9864,144.0982
lg,1624810856027082625,0,-0.5476,-0.5071,0.3809,658,-38.9404,-144.7754,141.5405,85,1.4947,1.5598,29.2906,-38.9082,35,0.3112,8421,3.9864,153.1757
lg,1624810856027100552,0,-0.3711,-0.6282,0.9355,659,-66.2842,-135.3149,145.4468,85,1.4867,1.5568,28.182,-36.9835,35,0.3082,8249,3.9864,162.3021
lg,1624810856027118684,0,-0.3293,-0.8396,1.1799,660,-62.1338,-158.7524,120.6665,85,1.4797,1.5518,25.3341,-35.5281,35,0.3011,8632,3.9864,170.8907
lg,1624810856027136204,0,0.001,-1.178,1.2646,661,-65.4907,-258.5449,88.4399,85,1.4757,1.5498,18.0138,-34.9348,35,0.2981,9117,3.9864,-179.7403
lg,1624810856027154058,0,0.4927,-0.9082,0.9006,662,-25.9399,-270.3247,41.0767,85,1.4737,1.5508,8.7024,-34.5682,35,0.2991,9137,3.9864,-172.1643
lg,1624810856027172393,0,0.7178,-0.9636,0.6479,663,-31.9214,-144.104,14.8315,85,1.4757,1.5528,2.9153,-36.1458,35,0.3031,8386,3.9864,-168.4135
lg,1624810856027190673,0,0.6902,-1.0947,0.5173,664,-19.165,-41.626,0.061,85,1.4777,1.5528,2.9744,-37.4675,35,0.3082,8817,3.9864,-170.6601
lg,1624810856027208063,0,0.4238,-1.0959,0.4189,665,15.625,151.3062,-59.082,85,1.4837,1.5548,5.409,-38.3667,35,0.3041,9188,3.9864,-176.3131
lg,1624810856027226565,0,-0.0229,-1.0061,0.4609,666,47.4854,320.0684,-110.4736,85,1.4877,1.5558,12.4127,-39.323,35,0.3112,8477,3.9864,-187.9768
lg,1624810856027244048,0,-0.4326,-0.8196,0.3628,667,81.9092,356.4453,-125.6104,85,1.4947,1.5558,20.593,-40.8794,35,0.3122,8502,3.9864,158.3003
lg,1624810856027278274,0,-0.7983,-0.6011,0.2576,668,83.9844,313.9038,-131.4087,85,1.4967,1.5538,26.1757,-43.1208,35,0.3192,8453,3.9864,146.5728
lg,1624810856027366690,0,-0.8953,-0.4309,0.3809,669,63.0493,219.6655,-94.4824,85,1.4967,1.5538,31.1086,-45.3046,35,0.3172,9227,3.9864,136.5497
lg,1624810856027396008,0,-0.9902,-0.4871,0.5181,670,-3.2349,116.4551,-30.3955,85,1.4967,1.5538,34.2755,-48.0839,35,0.3332,8570,3.9864,131.5309
lg,1624810856027416751,0,-1.0215,-0.8826,0.5842,671,-40.4663,-26.4282,20.813,85,1.4967,1.5568,34.5875,-49.0544,35,0.3382,8983,3.9864,133.0019
lg,1624810856027436697,0,-0.9597,-0.8892,0.571,672,-46.9971,-147.644,87.7075,85,1.4947,1.5608,33.5578,-46.6383,35,0.3272,11618,3.9864,140.9885
lg,1624810856417448887,0,0.259,-0.7454,0.3562,673,-50.5371,-457.3975,100.5249,85,1.4827,1.5518,23.015,-43.3229,35,0.3182,27247,3.9864,155.9802
lg,1624810856417498707,0,1.0869,-1.2915,0.4348,674,-30.9448,-146.3623,53.1616,85,1.4817,1.5528,18.3022,-43.3161,35,0.3182,9586,3.9864,161.5727
lg,1624810856417530432,0,1.085,-1.2737,0.6143,675,-2.6855,-25.2075,31.5552,85,1.4827,1.5548,16.6277,-43.4255,35,0.3182,8585,3.9864,163.0963
lg,1624810856417560250,0,0.6726,-0.8955,0.5088,676,37.0483,149.292,-9.1553,85,1.4837,1.5558,18.9568,-43.9309,35,0.3202,8972,3.9864,158.3165
lg,1624810856417588679,0,0.1157,-0.7722,0.4102,677,32.7759,261.4746,-40.3442,85,1.4857,1.5578,24.1326,-46.7547,35,0.3192,8891,3.9864,148.8846
lg,1624810856417616256,0,-0.3494,-0.8699,0.5818,678,28.6255,324.8291,-45.9595,85,1.4897,1.5578,30.9454,-51.7782,35,0.3282,9831,3.9864,136.3041
lg,1624810856417644425,0,-0.7478,-0.8108,0.4282,679,40.8325,249.6948,-43.6401,85,1.4917,1.5578,35.6575,-56.5201,35,0.3322,8968,3.9864,125.1873
lg,1624810856417711543,0,-0.7012,-0.6204,0.6479,680,50.4761,114.0747,-23.6206,85,1.4937,1.5578,37.4409,-57.2073,35,0.3352,8992,3.9864,120.0723
lg,1624810856417742861,0,-0.7148,-0.5764,0.5759,681,40.0391,76.7212,-19.2871,85,1.4947,1.5568,37.7471,-56.7588,35,0.3292,8633,3.9864,118.8905
lg,1624810856417771364,0,-0.6853,-0.6938,0.6309,682,5.9204,-25.5737,-0.4883,85,1.4967,1.5548,37.1081,-55.4995,35,0.3342,8735,3.9864,120.1844
lg,1624810856417799181,0,-0.582,-0.9141,0.6516,683,-3.7842,-93.5669,20.0195,85,1.4977,1.5558,35.2013,-53.0292,35,0.3472,8983,3.9864,124.5635
lg,1624810856418407058,0,-0.3105,-0.925,0.7227,684,-17.4561,-163.6963,44.1895,85,1.4997,1.5578,31.7216,-49.5634,35,0.3492,9050,3.9864,132.0306
lg,1624810856418507327,0,-0.1091,-0.885,0.5352,685,-42.2363,-194.458,66.2231,85,1.4977,1.5598,27.6118,-47.3455,35,0.3372,8734,3.9864,140.5159
lg,1624810856418538053,0,-0.0728,-0.7769,0.4558,686,-50.5371,-155.7617,76.416,85,1.4917,1.5618,24.7526,-46.6163,35,0.3292,9124,3.9864,147.6643
lg,1624810856418567870,0,0.0662,-0.7632,0.6997,687,-35.4614,-125.9766,77.8809,85,1.4877,1.5538,21.796,-44.7057,35,0.3292,8754,3.9864,152.9758
lg,1624810856418596058,0,0.1755,-0.8889,0.8091,688,-37.5366,-108.2764,26.9165,85,1.4857,1.5568,18.3613,-44.9203,35,0.3312,10812,3.9864,157.0007
lg,1624810856418661639,0,0.1841,-0.874,0.5449,689,-20.1416,-98.2666,18.2495,85,1.4837,1.5558,16.0699,-45.6677,35,0.3332,9225,3.9864,158.3643
lg,1624810856418691124,0,0.0381,-0.9409,0.4766,690,-3.7842,-2.1362,-1.77,85,1.4797,1.5578,15.2771,-46.5119,35,0.3322,9135,3.9864,158.1864
lg,1624810856418734647,0,0.1118,-0.887,0.5615,691,28.2593,11.1694,16.9678,85,1.4847,1.5578,15.2552,-45.7879,35,0.3342,8904,3.9864,158.2129
lg,1624810856418762094,0,0.1658,-0.7996,0.6377,692,29.48,54.5044,9.9487,85,1.4857,1.5588,16.1176,-45.1902,35,0.3322,8849,3.9864,156.8177
lg,1624810856418789059,0,0.0483,-0.8442,0.6433,693,23.9258,95.0317,-4.5776,85,1.4877,1.5588,17.9175,-45.4019,35,0.3332,8861,3.9864,153.767
lg,1624810856418817433,0,-0.0376,-0.8474,0.6479,694,22.8882,109.7412,-9.6436,85,1.4907,1.5588,20.4033,-45.8593,35,0.3372,8900,3.9864,149.7255
lg,1624810856418844880,0,-0.0955,-0.8274,0.7454,695,36.6821,116.4551,-5.3711,85,1.4937,1.5588,22.8608,-45.8617,35,0.3392,8921,3.9864,145.9308
lg,1624810856418871864,0,-0.0967,-0.7637,0.6455,696,37.9028,101.9897,-11.7188,85,1.4967,1.5578,24.6655,-45.9429,35,0.3452,9008,3.9864,142.3026
lg,1624810856418897496,0,-0.29,-0.7791,0.5259,697,24.9634,97.7783,-1.2207,85,1.4977,1.5578,27.0214,-46.7433,35,0.3492,9214,3.9864,138.9419
lg,1624810856418924425,0,-0.4829,-0.8003,0.6223,698,-22.2168,75.3174,32.1655,85,1.4977,1.5598,29.9189,-48.5746,35,0.3492,9000,3.9864,137.2904
lg,1624810856418951965,0,-0.6868,-0.7007,0.5876,699,-38.6353,33.3862,78.4302,85,1.4917,1.5618,33.4191,-49.5096,35,0.3422,9030,3.9864,138.4887
lg,1624810856418979097,0,-0.6218,-0.626,0.689,700,-33.7524,-1.2817,92.2852,85,1.4857,1.5598,34.4807,-47.059,35,0.3422,9149,3.9864,142.7444
lg,1624810856419005378,0,-0.5757,-0.6055,0.6621,701,-6.6528,-64.8804,52.6123,85,1.4797,1.5558,34.1229,-44.8493,35,0.3392,9078,3.9864,146.8926
lg,1624810856419040752,0,-0.4214,-0.8748,0.8992,702,-52.6123,-170.2271,45.4102,85,1.4757,1.5518,29.9056,-43.1338,35,0.3382,9091,3.9864,154.0324
lg,1624810856419068421,0,-0.0073,-0.9495,0.7478,703,-43.0298,-215.3931,29.8462,85,1.4707,1.5498,23.2984,-41.8714,35,0.3392,9091,3.9864,161.3259
lg,1624810856419095090,0,0.2756,-0.9475,0.4766,704,-27.832,-172.1802,11.8408,85,1.4727,1.5508,17.186,-41.9961,35,0.3392,9122,3.9864,166.2715
lg,1624810856788082170,0,0.2576,-0.8997,0.5894,705,21.1182,141.5405,-45.2271,85,1.4787,1.5578,18.9532,-43.419,35,0.3432,27684,3.9864,160.6677
lg,1624810856788120785,0,-0.2197,-0.9187,0.5447,706,23.9868,213.0127,-87.8296,85,1.4837,1.5608,22.2119,-46.3038,35,0.3442,14899,3.9864,151.3908
lg,1624810856788142805,0,-0.3328,-0.9265,0.5161,707,24.292,204.7729,-92.2852,85,1.4877,1.5608,24.5516,-49.0757,35,0.3442,7934,3.9897,142.718
lg,1624810856788163048,0,-0.4111,-0.9043,0.5818,708,42.1143,153.1372,-73.6084,81,1.4917,1.5598,26.0696,-50.8312,35,0.3462,7986,3.9897,135.3008
lg,1624810856788181809,0,-0.3823,-0.8206,0.4304,709,61.8286,78.186,-69.2139,81,1.4937,1.5588,25.754,-50.8465,35,0.3392,7921,3.9897,130.4603
lg,1624810856788200570,0,-0.3362,-0.803,0.4412,710,62.5,30.4565,-68.0542,81,1.4937,1.5568,24.0463,-49.8294,35,0.3382,8016,3.9897,127.4085
lg,1624810856788218461,0,-0.2434,-0.7266,0.4727,711,53.6499,5.3101,-41.9312,81,1.4957,1.5528,22.5898,-48.5164,35,0.3332,8521,3.9897,125.9212
lg,1624810856788236704,0,-0.1804,-0.604,0.3608,712,22.8271,0.2441,10.376,81,1.4967,1.5508,22.5912,-47.9219,35,0.3472,8619,3.9897,126.044
lg,1624810856788254465,0,-0.1902,-0.6489,0.5044,713,11.7798,-0.1831,35.1562,81,1.4977,1.5508,24.3375,-47.7788,35,0.3522,8051,3.9897,127.0461
lg,1624810856788293691,0,-0.2805,-0.7688,0.647,714,-27.0386,36.1328,80.4443,81,1.4997,1.5538,27.3359,-48.4143,35,0.3502,9003,3.9897,128.1976
lg,1624810856788313156,0,-0.4736,-0.8801,0.6235,715,-51.2085,-6.5308,115.2344,81,1.4977,1.5578,30.4732,-48.9109,35,0.3412,8476,3.9897,131.7758
lg,1624810856788330639,0,-0.6592,-0.7283,0.5129,716,-54.6265,-84.0454,128.3569,81,1.4887,1.5598,32.3166,-47.6725,35,0.3312,8547,3.9897,138.6111
lg,1624810856788348456,0,-0.5449,-0.7036,0.8708,717,-55.7861,-136.2305,139.2822,81,1.4767,1.5568,28.9923,-42.8967,35,0.3282,13964,3.9897,149.5795
lg,1624810856788367736,0,-0.1567,-0.6838,0.7207,718,-22.3999,-280.1514,72.6318,81,1.4727,1.5548,21.7295,-39.2882,35,0.3292,8562,3.9897,160.098
lg,1624810856788386145,0,0.2766,-1.001,0.8979,719,-78.3081,-321.4111,53.4058,81,1.4717,1.5548,12.0056,-39.7825,35,0.3302,8560,3.9897,170.2008
lg,1624810856788404517,0,0.5459,-1.1096,0.5349,720,-53.2837,-231.2622,17.6392,81,1.4707,1.5558,4.211,-41.8178,35,0.3312,8645,3.9897,-183.3244
lg,1624810856788422649,0,0.6765,-1.0813,0.3557,721,-37.9639,-155.9448,-1.0986,81,1.4717,1.5568,0.0393,-43.1376,35,0.3332,9113,3.9897,-181.3163
lg,1624810856788451689,0,0.6775,-0.9958,0.2495,722,13.3057,-7.7515,-11.7188,81,1.4717,1.5588,-1.7564,-43.6236,35,0.3352,8831,3.9897,-181.4411
lg,1624810856788471357,0,0.3672,-0.8669,0.3506,723,32.2266,195.1294,-25.8179,81,1.4737,1.5588,2.4002,-43.2349,35,0.3372,10214,3.9897,-187.5363
lg,1624810856788489340,0,-0.1628,-0.7795,0.3677,724,40.0391,301.2695,-29.6631,81,1.4737,1.5588,10.6213,-43.5063,35,0.3392,8733,3.9897,163.2576
lg,1624810856788506935,0,-0.502,-0.7615,0.5549,725,45.9595,286.1938,-19.043,81,1.4787,1.5608,18.9691,-44.2814,35,0.3392,9102,3.9897,154.4303
lg,1624810856788524196,0,-0.6665,-0.7185,0.6157,726,45.2271,171.4478,-14.2822,81,1.4797,1.5598,24.0539,-44.6901,35,0.3402,8691,3.9897,148.7658
lg,1624810856788541198,0,-0.666,-0.6575,0.6311,727,40.5884,104.4922,-6.5918,81,1.4827,1.5598,27.1341,-44.5768,35,0.3452,8391,3.9897,145.2902
lg,1624810856788558607,0,-0.4653,-0.658,0.7068,728,25.5127,-0.9155,8.7891,81,1.4847,1.5588,27.2897,-43.3387,35,0.3422,9132,3.9897,145.6378
lg,1624810856788576183,0,-0.24,-0.7783,0.6462,729,17.334,-57.312,17.2119,81,1.4867,1.5588,25.5353,-41.9142,35,0.3442,8751,3.9897,147.8002
lg,1624810856788593258,0,-0.0613,-0.9438,0.6736,730,14.2212,-55.0537,9.3384,81,1.4927,1.5568,23.2944,-41.0914,35,0.3512,9181,3.9897,149.475
lg,1624810856788610501,0,-0.0452,-0.9912,0.5903,731,32.0435,-27.9541,16.7847,81,1.4967,1.5568,22.1129,-40.0541,35,0.3582,9385,3.9897,150.5072
lg,1624810856788642097,0,0.0432,-0.8318,0.575,732,44.7998,-13.7329,33.9966,81,1.4987,1.5568,22.5981,-38.3519,35,0.3642,8893,3.9897,151.182
lg,1624810856788660469,0,-0.0291,-0.6692,0.5681,733,32.8369,41.1987,39.5508,81,1.5007,1.5568,24.0727,-37.4187,35,0.3602,8914,3.9897,151.2413
lg,1624810856788677359,0,-0.2566,-0.6873,0.739,734,-21.1182,64.9414,67.627,81,1.4997,1.5558,27.3793,-38.2213,35,0.3462,9310,3.9897,151.746
lg,1624810856788695491,0,-0.5479,-0.7446,0.6641,735,-33.7524,56.8237,84.0454,81,1.4907,1.5598,31.3005,-39.2805,35,0.3332,8959,3.9897,152.9307
lg,1624810856788712048,0,-0.7722,-0.7126,0.687,736,-34.6069,3.0518,83.8623,81,1.4867,1.5598,33.7755,-39.2895,35,0.3222,9045,3.9897,155.7901
lg,1624810857152674465,0,-0.0327,-0.9238,0.6797,737,-51.1475,-227.9053,36.3159,81,1.4777,1.5558,26.6243,-38.497,35,0.3192,28026,3.9897,162.3078
lg,1624810857152722099,0,0.2979,-1.022,0.481,738,-26.7334,-123.1079,9.8267,81,1.4787,1.5568,21.6483,-39.0914,35,0.3232,8766,3.9897,165.5584
lg,1624810857152744546,0,0.3357,-0.8657,0.2356,739,-10.6201,-79.6509,-0.9155,81,1.4787,1.5578,19.4528,-40.0814,35,0.3242,8505,3.9897,165.5178
lg,1624810857152764677,0,0.2502,-0.8662,0.3015,740,15.3809,55.1758,-8.3008,81,1.4797,1.5588,19.7038,-41.2464,35,0.3272,7913,3.9897,163.3339
lg,1624810857152799644,0,-0.0815,-0.9087,0.5039,741,32.5317,183.3496,-11.0474,81,1.4817,1.5608,24.2592,-42.8795,35,0.3282,7994,3.9897,157.4041
lg,1624810857152820609,0,-0.3657,-0.8389,0.6323,742,45.2881,189.7583,-12.9395,81,1.4847,1.5618,29.1678,-44.3103,35,0.3302,8783,3.9897,150.9484
lg,1624810857152838425,0,-0.4304,-0.78,0.6724,743,46.936,160.7666,-15.3198,81,1.4877,1.5628,31.8456,-44.8363,35,0.3342,8498,3.9897,146.5304
lg,1624810857152856186,0,-0.4233,-0.7449,0.7273,744,39.6729,75.1343,-13.3057,81,1.4917,1.5628,33.1951,-44.8734,35,0.3372,8098,3.9897,143.5466
lg,1624810857152873799,0,-0.3127,-0.741,0.6484,745,29.2969,9.5825,-11.9019,81,1.4947,1.5628,32.5193,-44.2653,35,0.3412,8099,3.9897,142.7262
lg,1624810857152892004,0,-0.2288,-0.8721,0.5774,746,26.123,-6.5918,-5.0049,81,1.4957,1.5628,31.1846,-43.3563,35,0.3472,8098,3.9897,143.1626
lg,1624810857152909043,0,-0.1792,-0.8806,0.5686,747,26.2451,-32.4097,9.3384,81,1.4967,1.5638,29.6911,-42.2433,35,0.3512,8173,3.9897,144.1774
lg,1624810857152925952,0,-0.1755,-0.7952,0.6511,748,-8.9722,-19.5923,21.3013,81,1.4977,1.5648,28.9166,-42.3166,35,0.3502,8104,3.9897,145.3226
lg,1624810857152944083,0,-0.3584,-0.6692,0.5608,749,-19.2261,-17.9443,32.1655,81,1.4957,1.5658,29.3397,-42.5327,35,0.3442,8194,3.9897,147.2986
lg,1624810857152961418,0,-0.4473,-0.7141,0.616,750,-22.3999,-9.5215,58.4717,81,1.4917,1.5638,30.4823,-42.5489,35,0.3402,8156,3.9897,149.4513
lg,1624810857152978105,0,-0.4717,-0.7559,1.011,751,-3.8452,-21.7896,56.7627,81,1.4897,1.5618,30.9526,-41.0916,35,0.3392,8247,3.9897,152.2225
lg,1624810857152995236,0,-0.4292,-0.6506,0.7727,752,-11.7188,-115.7837,25.5737,81,1.4867,1.5578,27.7795,-39.3823,35,0.3352,8295,3.9897,156.5828
lg,1624810857153013127,0,-0.2983,-0.6807,0.7935,753,-30.2124,-155.7007,22.644,81,1.4857,1.5568,23.0603,-38.4339,35,0.3322,8520,3.9897,161.6773
lg,1624810857153031221,0,-0.1304,-0.8198,0.5881,754,-39.3066,-176.5137,18.5547,81,1.4827,1.5558,17.4571,-38.8081,35,0.3332,8228,3.9897,166.7426
lg,1624810857153048426,0,0.1528,-0.9641,0.5999,755,-24.1699,-151.7334,19.8364,81,1.4857,1.5558,12.3431,-39.3474,35,0.3312,8301,3.9897,171.1153
lg,1624810857153067521,0,0.3015,-0.9829,0.5696,756,-8.8501,-127.9907,17.7002,81,1.4867,1.5578,7.6914,-39.8251,35,0.3292,8291,3.9897,-185.1839
lg,1624810857153085171,0,0.386,-0.8633,0.416,757,11.1694,-22.522,2.3804,81,1.4857,1.5578,5.9675,-40.1712,35,0.3282,8303,3.9897,-184.6423
lg,1624810857153102783,0,0.1382,-0.8071,0.4285,758,24.1089,115.7227,-5.9814,81,1.4867,1.5588,8.7673,-40.4548,35,0.3292,8337,3.9897,-187.9391
lg,1624810857153120859,0,-0.2002,-0.8225,0.6013,759,32.8369,187.2559,-4.2114,81,1.4877,1.5608,14.4125,-40.6886,35,0.3282,11183,3.9897,166.8742
lg,1624810857153138342,0,-0.4219,-0.7349,0.6187,760,38.208,143.9819,0.6104,81,1.4887,1.5608,19.1392,-40.6268,35,0.3282,8517,3.9897,162.8838
lg,1624810857153155437,0,-0.4792,-0.6658,0.6306,761,32.4707,78.0029,16.1133,81,1.4887,1.5618,22.2512,-40.1215,35,0.3302,13502,3.9897,161.1734
lg,1624810857153172457,0,-0.4009,-0.7009,0.6335,762,18.0054,11.4746,30.2734,81,1.4897,1.5618,23.4073,-39.4309,35,0.3332,8449,3.9897,161.7492
lg,1624810857153189403,0,-0.2458,-0.7737,0.676,763,11.7798,-28.5645,37.5366,81,1.4907,1.5628,23.0828,-38.5349,35,0.3302,8475,3.9897,163.6451
lg,1624810857153206478,0,-0.1692,-0.8064,0.7053,764,13.4888,-38.0249,37.4146,81,1.4917,1.5628,21.8919,-37.4827,35,0.3322,8448,3.9897,165.5867
lg,1624810857153245353,0,-0.0269,-0.7957,0.6731,765,22.8271,-33.4473,25.8179,81,1.4937,1.5628,20.6736,-36.449,35,0.3362,8521,3.9897,167.1368
lg,1624810857153422054,0,-0.0073,-0.7629,0.6665,766,27.5879,7.6294,9.2773,81,1.4967,1.5628,20.367,-35.8174,35,0.3412,8837,3.9897,167.0754
lg,1624810857153450613,0,-0.0757,-0.7358,0.6443,767,31.189,49.9878,2.8687,81,1.4977,1.5628,21.4426,-35.519,35,0.3412,8569,3.9897,165.7324
lg,1624810857153472763,0,-0.1499,-0.7346,0.6738,768,34.4849,82.3975,-0.1831,81,1.4987,1.5628,23.6143,-35.4345,35,0.3432,8602,3.9897,163.4649
lg,1624810857546046376,0,-0.3367,-0.6711,0.637,769,34.9121,76.2939,-0.3662,81,1.4997,1.5598,25.6514,-35.2434,35,0.3522,27437,3.9897,161.5632
lg,1624810857546080546,0,-0.3745,-0.6699,0.6328,770,29.7241,42.2974,1.1597,81,1.5007,1.5598,26.5144,-34.7774,35,0.3562,9557,3.9897,160.7811
lg,1624810857546100733,0,-0.3845,-0.6533,0.6499,771,26.6113,14.8315,6.1646,81,1.5017,1.5598,26.9966,-34.1963,35,0.3582,8916,3.9897,160.444
lg,1624810857546119920,0,-0.3513,-0.6304,0.6436,772,22.9492,-15.686,9.7656,81,1.5017,1.5598,26.4796,-33.3525,35,0.3602,8816,3.9897,161.0095
lg,1624810857546140977,0,-0.2988,-0.6218,0.6201,773,21.6675,-44.0674,14.1602,81,1.5017,1.5588,25.0244,-32.275,35,0.3622,8814,3.9897,162.3845
lg,1624810857546159424,0,-0.2595,-0.6174,0.6113,774,22.3389,-65.1855,18.9209,81,1.5037,1.5578,22.9014,-31.0181,35,0.3632,9798,3.9897,164.362
lg,1624810857546177185,0,-0.1768,-0.635,0.582,775,24.5972,-76.5991,23.1323,81,1.5017,1.5568,20.3276,-29.7781,35,0.3622,11138,3.9897,166.6242
lg,1624810857546216799,0,-0.0979,-0.6216,0.5388,776,28.6255,-74.5239,24.8413,81,1.5037,1.5558,17.7335,-28.6168,35,0.3602,8694,3.9897,168.8046
lg,1624810857546236135,0,-0.0928,-0.5918,0.4407,777,36.499,-53.7109,26.4282,81,1.5037,1.5548,15.9894,-27.5492,35,0.3602,8944,3.9897,170.5345
lg,1624810857546253710,0,-0.1125,-0.5728,0.4255,778,40.6494,-34.6069,29.1748,81,1.5047,1.5548,15.0741,-26.4725,35,0.3592,8598,3.9897,-188.0151
lg,1624810857546271249,0,-0.1948,-0.5833,0.4514,779,51.6357,10.9863,31.7993,81,1.5047,1.5558,16.0661,-25.1313,35,0.3582,8983,3.9897,-187.2839
lg,1624810857546289177,0,-0.2612,-0.5823,0.5493,780,63.3545,26.7944,38.208,81,1.5017,1.5548,17.7848,-23.1343,35,0.3592,8993,3.9897,-186.5133
lg,1624810857546307790,0,-0.3159,-0.5769,0.6111,781,71.4722,5.7373,41.9922,81,1.5057,1.5548,18.7733,-20.5644,35,0.3612,9020,3.9897,-185.1953
lg,1624810857546336311,0,-0.2617,-0.5649,0.6658,782,74.646,-26.9775,45.8374,81,1.5057,1.5538,18.3176,-17.6592,35,0.3612,13326,3.9897,-183.2459
lg,1624810857546354720,0,-0.167,-0.6121,0.7109,783,75.3174,-54.6265,45.7764,81,1.5057,1.5548,16.4746,-14.829,35,0.3602,9064,3.9897,-181.0584
lg,1624810857546371907,0,-0.0288,-0.6328,0.7012,784,78.8574,-67.5049,40.1611,81,1.5057,1.5548,13.7327,-12.1682,35,0.3592,9395,3.9897,-179.1058
lg,1624810857546388983,0,0.0186,-0.6489,0.6992,785,84.4727,-49.6216,31.6772,81,1.5057,1.5548,11.5286,-9.6236,35,0.3582,9145,3.9897,-177.741
lg,1624810857546407003,0,0.0002,-0.6506,0.7371,786,90.0269,-6.1646,23.6816,81,1.5067,1.5548,11.0406,-7.0582,35,0.3572,10269,3.9897,-177.0032
lg,1624810857546425227,0,-0.1113,-0.6431,0.729,787,97.1069,27.5879,15.9912,81,1.5047,1.5538,12.0985,-4.3752,35,0.3572,9215,3.9897,-176.7192
lg,1624810857546442154,0,-0.2383,-0.5759,0.7246,788,101.3184,35.7056,17.2729,81,1.5047,1.5538,13.7297,-1.4562,35,0.3562,8809,3.9897,-176.3486
lg,1624810857546459248,0,-0.3057,-0.5239,0.709,789,103.2104,34.2407,19.6533,81,1.5037,1.5528,15.2811,1.7383,35,0.3552,9204,3.9897,-175.579
lg,1624810857546476065,0,-0.3958,-0.449,0.7405,790,102.7222,18.3105,30.8228,81,1.5047,1.5528,16.3943,5.0303,35,0.3542,8853,3.9897,-174.5517
lg,1624810857546492715,0,-0.4373,-0.4023,0.7673,791,101.0742,2.9297,51.5137,81,1.5027,1.5518,16.771,8.5351,35,0.3532,9227,3.9897,-172.712
lg,1624810857546510327,0,-0.4058,-0.395,0.8455,792,96.0693,-18.6157,72.998,81,1.5027,1.5508,15.8935,11.9701,35,0.3432,9349,3.9897,-170.1956
lg,1624810857546527181,0,-0.3347,-0.4497,0.9167,793,88.8672,-39.6729,83.4351,81,1.5037,1.5508,13.8026,14.8976,35,0.3432,10790,3.9897,-167.5973
lg,1624810857546543571,0,-0.2256,-0.5095,1.0066,794,85.7544,-51.6968,84.3506,81,1.5007,1.5518,10.9283,17.3821,35,0.3422,9345,3.9897,-165.2369
lg,1624810857546560184,0,-0.1523,-0.5637,1.0129,795,83.5571,-62.0117,69.6411,81,1.5027,1.5508,7.707,19.3641,35,0.3382,9406,3.9897,-163.6715
lg,1624810857546662860,0,-0.1384,-0.6006,1.0652,796,83.6182,-57.8613,48.4009,81,1.5027,1.5498,4.9312,21.1035,35,0.3392,9049,3.9897,-162.8833
lg,1624810857546683899,0,-0.208,-0.573,1.1428,797,85.9375,-51.6968,27.8931,81,1.5027,1.5498,2.8388,22.8854,35,0.3432,9464,3.9897,-162.7666
lg,1624810857546701623,0,-0.2812,-0.4951,1.1362,798,87.0972,-55.7251,20.5078,81,1.5017,1.5488,0.6149,24.7514,35,0.3432,9442,3.9897,-163.2926
lg,1624810857546719292,0,-0.2871,-0.4312,1.0906,799,85.4492,-73.6694,15.7471,81,1.5027,1.5488,-1.9089,26.4908,35,0.3452,9679,3.9897,-163.9355
lg,1624810857546737201,0,-0.2795,-0.3953,1.0767,800,78.7964,-73.2422,25.7568,81,1.5027,1.5478,-4.4396,28.0212,35,0.3432,9506,3.9897,-164.3053
lg,1624810857914048897,0,-0.0864,-0.4609,1.1689,801,63.0493,-31.9824,55.481,81,1.5017,1.5458,-6.1938,28.5822,35,0.3392,28448,3.9897,-162.6876
lg,1624810857914085605,0,0.0212,-0.532,1.1948,802,58.7158,12.5122,37.4146,81,1.5017,1.5458,-6.3647,28.937,35,0.3402,16532,3.9897,-160.9281
lg,1624810857914106588,0,0.0042,-0.5398,1.2158,803,57.8613,32.4707,29.9683,81,1.5017,1.5448,-5.6725,29.2448,35,0.3402,7973,3.9897,-159.0349
lg,1624810857914126331,0,-0.093,-0.5042,1.2139,804,57.312,70.0073,16.6016,81,1.5007,1.5448,-3.2728,29.5904,35,0.3412,7951,3.9897,-156.8935
lg,1624810857914144795,0,-0.1716,-0.4685,1.1467,805,56.8237,76.2939,10.498,81,1.5007,1.5448,-0.3655,29.9847,35,0.3422,7981,3.9897,-155.2776
lg,1624810857914162871,0,-0.3115,-0.3628,1.0703,806,51.3916,60.6079,-0.8545,81,1.5007,1.5438,2.3492,30.4068,35,0.3422,8128,3.9897,-154.0726
lg,1624810857914180132,0,-0.4248,-0.2986,1.0071,807,42.9077,45.4102,4.6997,81,1.5007,1.5438,4.6023,30.6393,35,0.3422,8183,3.9897,-153.0475
lg,1624810857914197986,0,-0.4739,-0.3044,1.0383,808,37.3535,36.6211,14.2212,81,1.5017,1.5438,5.8627,30.496,35,0.3392,8017,3.9897,-151.8111
lg,1624810857914215154,0,-0.4609,-0.3635,1.0679,809,26.1841,-1.2207,38.0249,81,1.5017,1.5438,5.766,30.0666,35,0.3382,11394,3.9897,-150.6864
lg,1624810857914231730,0,-0.4375,-0.386,1.1052,810,25.2075,-20.3857,42.6636,81,1.5007,1.5428,4.7717,29.5114,35,0.3372,8049,3.9897,-149.7805
lg,1624810857914249250,0,-0.3152,-0.3967,1.0962,811,27.771,-52.5513,44.6167,81,1.4997,1.5428,2.5442,28.9823,35,0.3342,8074,3.9897,-149.3971
lg,1624810857914266640,0,-0.1963,-0.4016,1.0842,812,28.7476,-63.9648,43.2129,81,1.5007,1.5418,-0.2058,28.434,35,0.3372,8089,3.9897,-149.1933
lg,1624810857914284179,0,-0.1479,-0.4087,1.106,813,27.5879,-58.96,42.2974,81,1.5007,1.5418,-2.8638,27.8315,35,0.3352,8095,3.9897,-148.8132
lg,1624810857914301755,0,-0.095,-0.4041,1.1814,814,29.8462,-31.7383,36.9873,81,1.5007,1.5418,-4.4191,27.3224,35,0.3382,8228,3.9897,-148.0091
lg,1624810857914318793,0,-0.1274,-0.3718,1.3162,815,26.9775,6.5308,25.2686,81,1.5007,1.5388,-4.3088,26.7676,35,0.3382,8192,3.9897,-146.8689
lg,1624810857914335888,0,-0.1721,-0.3467,1.3699,816,26.6113,22.1558,20.6909,81,1.4997,1.5398,-3.0847,26.2679,35,0.3352,8359,3.9897,-145.7713
lg,1624810857914372373,0,-0.2715,-0.2581,1.3135,817,20.1416,26.5503,6.6528,81,1.4997,1.5398,-1.7046,25.6858,35,0.3342,8261,3.9897,-144.9951
lg,1624810857914391115,0,-0.3667,-0.2004,1.2104,818,8.5449,8.9722,0.8545,81,1.4987,1.5388,-0.6939,24.7691,35,0.3372,8258,3.9897,-144.7798
lg,1624810857914409265,0,-0.3486,-0.2273,1.1599,819,3.1128,-2.6245,1.9531,86,1.4997,1.5388,-0.6426,23.4123,35,0.3372,8232,3.9886,-144.7298
lg,1624810857914427748,0,-0.3137,-0.291,1.1389,820,-5.4932,-24.292,13.2446,86,1.4997,1.5368,-1.1357,21.8461,35,0.3332,8244,3.9886,-144.61
lg,1624810857914445991,0,-0.1643,-0.343,1.0627,821,-7.2021,-47.1802,22.7661,86,1.4997,1.5388,-2.8517,20.113,35,0.3342,8298,3.9886,-144.4151
lg,1624810857914463270,0,-0.074,-0.3572,1.02,822,-3.7231,-46.814,19.2261,86,1.4997,1.5378,-4.623,18.5134,35,0.3292,8363,3.9886,-144.2419
lg,1624810857914480661,0,-0.0396,-0.3599,0.9854,823,-1.0986,-37.7197,17.7002,86,1.5007,1.5378,-6.0399,17.0263,35,0.3342,8374,3.9886,-143.9163
lg,1624810857914497570,0,-0.0054,-0.3423,0.9348,824,5.127,-6.958,11.5356,86,1.4977,1.5378,-6.2315,15.8126,35,0.3352,8402,3.9886,-143.4065
lg,1624810857914515294,0,-0.0337,-0.2937,0.9368,825,10.376,27.5879,7.9956,86,1.5007,1.5388,-4.9711,14.9178,35,0.3372,8343,3.9886,-142.6675
lg,1624810857914532795,0,-0.083,-0.2756,0.9321,826,13.1836,53.1616,3.418,86,1.5007,1.5378,-2.5946,14.2181,35,0.3382,13249,3.9886,-141.8964
lg,1624810857914549593,0,-0.1594,-0.2319,0.937,827,14.8315,67.3218,2.0752,86,1.5007,1.5378,0.4471,13.7392,35,0.3382,8467,3.9886,-141.1174
lg,1624810857914654010,0,-0.2261,-0.1858,0.96,828,12.6953,75.1953,1.2817,86,1.5007,1.5378,3.8423,13.3479,35,0.3392,8886,3.9886,-140.3701
lg,1624810857914675475,0,-0.2881,-0.1567,0.9526,829,8.4839,72.2046,3.1128,86,1.5007,1.5368,7.1267,12.9162,35,0.3402,9863,3.9886,-139.6467
lg,1624810857914694014,0,-0.3809,-0.136,0.9556,830,1.1597,61.7676,4.6387,86,1.5007,1.5368,10.0674,12.3027,35,0.3402,9584,3.9886,-139.0164
lg,1624810857914769929,0,-0.4285,-0.136,0.9751,831,-4.5166,47.9126,8.728,86,1.5007,1.5368,12.4102,11.5316,35,0.3402,9729,3.9886,-138.3976
lg,1624810857914813933,0,-0.4546,-0.1577,1.0056,832,-8.606,40.5273,13.7939,86,1.5007,1.5357,14.3709,10.644,35,0.3392,8922,3.9886,-137.6859
lg,1624810858299176340,0,-0.3481,-0.3428,1.0476,833,-7.7515,-34.4849,21.9116,86,1.5007,1.5357,12.9884,9.4077,35,0.3372,26605,3.9886,-137.3175
lg,1624810858299209973,0,-0.2131,-0.2891,0.9517,834,2.3804,-49.0112,18.9819,86,1.5007,1.5357,10.9523,8.5904,35,0.3372,11598,3.9886,-137.0941
lg,1624810858299230327,0,-0.1848,-0.2717,0.9526,835,1.2207,-31.6162,17.2729,86,1.5007,1.5357,9.6258,7.7892,35,0.3372,7846,3.9886,-136.7636
lg,1624810858299250143,0,-0.1926,-0.2783,0.9548,836,-0.3052,-6.7139,14.1602,86,1.5007,1.5357,9.3694,6.9442,35,0.3382,7914,3.9886,-136.3853
lg,1624810858299269052,0,-0.2004,-0.3022,0.9814,837,-0.2441,3.6011,11.5967,86,1.5007,1.5357,9.6421,6.1122,35,0.3382,7846,3.9886,-136.0511
lg,1624810858299286832,0,-0.2781,-0.2812,0.9983,838,0.6104,14.3433,11.1694,86,1.5007,1.5347,10.4014,5.3954,35,0.3382,8064,3.9886,-135.683
lg,1624810858299303870,0,-0.3247,-0.2891,0.9988,839,-0.9155,7.6904,10.2539,86,1.5017,1.5357,10.9689,4.6302,35,0.3372,8316,3.9886,-135.3897
lg,1624810858299320538,0,-0.3406,-0.2849,1.0349,840,-1.2207,0.9766,10.0098,86,1.5017,1.5357,10.9598,3.8936,35,0.3382,8336,3.9886,-135.1426
lg,1624810858299337114,0,-0.3459,-0.3005,1.0637,841,-0.9766,-15.8081,9.2163,86,1.5007,1.5357,10.582,3.1744,35,0.3382,7998,3.9886,-134.9523
lg,1624810858299354208,0,-0.2659,-0.2966,1.0718,842,0.7935,-35.3394,9.4604,86,1.5017,1.5357,9.2875,2.5431,35,0.3382,8767,3.9886,-134.7741
lg,1624810858299371209,0,-0.1873,-0.2952,1.04,843,1.709,-42.7246,8.9722,86,1.5017,1.5357,7.6086,1.941,35,0.3392,8241,3.9886,-134.596
lg,1624810858299387915,0,-0.1792,-0.2974,1.0085,844,3.479,-39.3066,8.3008,86,1.5017,1.5357,6.1272,1.4038,35,0.3382,8489,3.9886,-134.4035
lg,1624810858299404379,0,-0.1355,-0.3042,1.0032,845,5.0659,-24.5972,8.4839,86,1.5017,1.5357,5.6098,0.9321,35,0.3382,11138,3.9886,-134.2491
lg,1624810858299420455,0,-0.1567,-0.2798,0.9946,846,6.0425,-2.9297,7.1411,86,1.5017,1.5347,6.0065,0.5234,35,0.3382,8071,3.9886,-134.0295
lg,1624810858299456254,0,-0.2195,-0.2742,1.0029,847,3.8452,18.0054,7.3853,86,1.5017,1.5347,6.9633,0.1017,35,0.3382,9178,3.9886,-133.7935
lg,1624810858299474348,0,-0.2231,-0.2505,0.9934,848,2.9907,21.0571,9.5215,86,1.5017,1.5347,8.1028,-0.3021,35,0.3392,8175,3.9886,-133.4321
lg,1624810858299491479,0,-0.2781,-0.2607,1.0181,849,2.6855,19.7754,11.8408,86,1.5017,1.5347,9.1673,-0.6633,35,0.3402,8881,3.9886,-133.0374
lg,1624810858299509777,0,-0.2842,-0.2778,1.0107,850,2.2583,12.4512,13.7939,86,1.5017,1.5347,9.9177,-1.0454,35,0.3392,8159,3.9886,-132.577
lg,1624810858299527520,0,-0.3005,-0.2622,1.002,851,2.3804,4.2114,15.4419,86,1.5017,1.5347,10.3537,-1.3619,35,0.3402,8262,3.9886,-132.0446
lg,1624810858299544855,0,-0.2817,-0.2786,1.0281,852,2.1973,0.1221,15.8081,86,1.5027,1.5357,10.404,-1.6985,35,0.3402,9302,3.9886,-131.5086
lg,1624810858299561615,0,-0.2559,-0.2754,1.0054,853,1.8921,-5.0049,15.9912,86,1.5017,1.5347,10.3676,-2.0319,35,0.3402,8305,3.9886,-130.9485
