name,time,activity,ax,ay,az,batch_val,gx,gy,gz,ibat,index,middle,pitch,roll,temp,thumb,ts,vbat,yaw
rg,1624800848216302047,1,-0.1262,-0.0398,1.0361,1,-0.4883,-4.8828,19.8975,63,1.1376,1.4297,14.972,-0.5389,29,1.0045,19545,4.0733,31.6796
rg,1624800848216349306,1,-0.145,-0.3545,1.1475,2,-16.3574,21.8506,17.2119,63,1.1386,1.4317,15.556,-1.6741,29,1.0045,8454,4.0733,32.2046
rg,1624800848216370806,1,-0.3281,-0.2593,1.1067,3,-7.7515,30.6396,12.3901,63,1.1386,1.4327,16.7355,-2.0908,29,1.0055,7977,4.0733,32.4544
rg,1624800848216391010,1,-0.3689,-0.1846,1.0981,4,0.7324,20.874,11.4136,63,1.1386,1.4357,17.6476,-2.2217,29,1.0055,7990,4.0733,32.8142
rg,1624800848216410806,1,-0.3569,-0.2073,1.082,5,-4.8218,-11.8408,15.4419,63,1.1386,1.4397,17.2163,-2.5523,29,1.0055,8104,4.0733,33.3783
rg,1624800848216430510,1,-0.2661,-0.2437,1.0972,6,-5.4321,-23.3154,14.2822,63,1.1386,1.4437,15.8676,-2.9125,29,1.0065,8021,4.0733,33.9729
rg,1624800848216478880,1,-0.241,-0.2332,1.0847,7,-2.3193,-34.6069,14.7705,63,1.1376,1.4477,14.3823,-3.1925,29,1.0065,8053,4.0733,34.5597
rg,1624800848216499066,1,-0.2319,-0.2253,1.0701,8,0.4272,-37.0483,15.3198,63,1.1386,1.4497,12.8502,-3.3512,29,1.0065,8022,4.0733,35.1903
rg,1624800848216516918,1,-0.2502,-0.2097,1.0454,9,3.6621,-36.8042,14.8315,63,1.1386,1.4527,11.443,-3.2417,29,1.0065,8028,4.0733,35.8379
rg,1624800848216535547,1,-0.2886,-0.1726,1.033,10,5.6763,-40.8325,15.4419,63,1.1376,1.4547,10.0086,-3.1227,29,1.0065,8109,4.0733,36.51
rg,1624800848216554677,1,-0.3259,-0.155,1.0186,11,4.3335,-50.8423,17.334,63,1.1386,1.4577,8.3192,-3.0309,29,1.0065,8126,4.0733,37.2856
rg,1624800848216573455,1,-0.3049,-0.1758,1.0303,12,3.0518,-56.7627,17.395,63,1.1386,1.4617,6.1785,-3.0987,29,1.0075,8126,4.0733,38.1039
rg,1624800848216591566,1,-0.2859,-0.166,1.0234,13,2.9907,-68.4204,18.0054,63,1.1386,1.4637,3.8584,-3.1362,29,1.0075,8127,4.0733,38.9501
rg,1624800848216609103,1,-0.2363,-0.1301,1.0151,14,2.3193,-73.6084,17.9443,63,1.1386,1.4677,1.3282,-3.1639,29,1.0075,9819,4.0733,39.8189
rg,1624800848216625843,1,-0.1614,-0.1235,1.0195,15,-1.2207,-70.2515,17.9443,63,1.1386,1.4727,-1.1269,-3.3565,29,1.0085,8192,4.0733,40.6918
rg,1624800848216644473,1,-0.1128,-0.1213,1.0496,16,-3.2959,-65.1245,17.8833,63,1.1386,1.4767,-3.0329,-3.6274,29,1.0075,8210,4.0733,41.4524
rg,1624800848216661788,1,-0.1013,-0.0671,1.074,17,-4.4556,-50.293,16.4795,63,1.1376,1.4787,-4.6577,-3.8551,29,1.0085,8339,4.0733,42.2429
rg,1624800848216679769,1,-0.1394,-0.1138,1.1028,18,-13.6719,-35.8276,8.606,63,1.1386,1.4837,-5.5909,-4.5192,29,1.0085,8226,4.0733,42.6968
rg,1624800848216697306,1,-0.2083,-0.126,1.124,19,-14.7705,-32.1045,4.3945,63,1.1386,1.4887,-6.2239,-5.2093,29,1.0085,8248,4.0733,42.9862
rg,1624800848216713918,1,-0.2473,-0.113,1.1284,20,-14.4653,-36.377,0.6104,63,1.1376,1.4927,-6.9429,-5.823,29,1.0095,8292,4.0733,43.1503
rg,1624800848216730566,1,-0.2703,-0.1172,1.1233,21,-17.7612,-53.6499,-4.9438,63,1.1336,1.4977,-8.2982,-6.5386,29,1.0105,8298,4.0733,43.1815
rg,1624800848216766066,1,-0.2637,-0.1484,1.1331,22,-22.644,-71.4111,-8.667,63,1.1386,1.5017,-10.3402,-7.4754,29,1.0105,8331,4.0733,43.1856
rg,1624800848216786825,1,-0.2585,-0.1704,1.1365,23,-24.1089,-79.5898,-9.2773,63,1.1386,1.5047,-12.9281,-8.4293,29,1.0115,8324,4.0733,43.259
rg,1624800848216804695,1,-0.2219,-0.2131,1.1306,24,-19.7144,-89.2944,-10.376,63,1.1386,1.5007,-15.5883,-9.3372,29,1.0105,8415,4.0733,43.4198
rg,1624800848216821510,1,-0.1814,-0.1665,1.127,25,-15.3809,-92.4683,-8.7891,63,1.1386,1.5097,-18.3305,-9.9918,29,1.0115,8397,4.0733,43.6927
rg,1624800848216905306,1,-0.1382,-0.1257,1.1133,26,-15.564,-89.6606,-10.376,63,1.1396,1.5127,-20.945,-10.5424,29,1.0115,8439,4.0733,43.888
rg,1624800848216929029,1,-0.1287,-0.106,1.1211,27,-17.2119,-85.8765,-10.3149,63,1.1386,1.5147,-23.3564,-11.0843,29,1.0115,8498,4.0733,44.0576
rg,1624800848217058695,1,-0.1025,-0.103,1.1125,28,-23.0103,-78.125,-14.2212,63,1.1376,1.5157,-25.4332,-11.773,29,1.0105,8465,4.0733,44.0198
rg,1624800848217087677,1,-0.0991,-0.1458,1.1333,29,-34.9731,-69.9463,-22.3389,63,1.1376,1.5177,-27.196,-12.826,29,1.0115,8991,4.0733,43.6158
rg,1624800848217149547,1,-0.1458,-0.2051,1.1514,30,-40.4053,-65.6738,-29.3579,63,1.1366,1.5197,-28.7308,-14.0217,29,1.0115,8595,4.0733,42.9434
rg,1624800848217173621,1,-0.2002,-0.2786,1.1672,31,-41.8701,-69.458,-31.4941,63,1.1386,1.5217,-30.5825,-15.3433,29,1.0125,8538,4.0733,42.2538
rg,1624800848217199825,1,-0.2136,-0.3113,1.1907,32,-43.8232,-82.8857,-35.4004,63,1.1386,1.5207,-32.6697,-16.7692,29,1.0145,8655,4.0733,41.6976
rg,1624800850070621935,1,-0.2419,-0.2173,0.2644,33,165.1611,64.5142,3.418,145,0.8984,0.7784,-28.3524,-12.3041,29,0.9515,28611,4.0337,41.6288
rg,1624800850070661490,1,-0.3516,-0.1572,0.3167,34,62.3779,52.6733,-2.5635,145,0.8874,0.8024,-24.1745,-10.0239,29,0.9525,8641,4.0337,41.318
rg,1624800850070681546,1,-0.5503,-0.6238,0.3269,35,-120.1172,-48.4619,-12.5122,145,0.8244,0.8154,-24.4156,-16.2939,29,0.9545,7749,4.0337,41.8065
rg,1624800850070701250,1,-0.2395,-1.0972,0.6958,36,-254.6997,-248.8403,-26.3672,145,0.7594,0.8104,-32.7783,-29.6036,29,0.9495,7677,4.0337,45.6605
rg,1624800850070720379,1,0.0588,-1.3816,0.7852,37,-281.8604,-308.3496,-15.9912,145,0.7163,0.7153,-41.638,-47.5801,29,0.9375,7922,4.0337,55.2286
rg,1624800850070738953,1,0.4761,-1.8384,0.4453,38,-220.0317,-264.6484,35.7666,145,0.6993,0.6223,-45.1269,-66.7807,29,0.9194,7886,4.0337,69.2688
rg,1624800850070756639,1,0.7915,-1.5244,0.6436,39,-152.6489,-218.5059,63.2324,145,0.7023,0.5873,-43.7203,-75.2569,29,0.9164,7906,4.0337,79.6033
rg,1624800850070774398,1,0.7581,-1.4431,0.4377,40,91.98,-98.7549,84.0454,145,0.7043,0.5733,-40.7754,-75.7124,29,0.9074,8499,4.0337,85.8165
rg,1624800850070791194,1,0.8792,-0.8718,0.2954,41,120.5444,-77.6978,78.6743,145,0.7053,0.5733,-38.66,-73.9015,29,0.9014,7926,4.0337,90.6568
rg,1624800850070808657,1,0.4702,-0.4424,0.0115,42,149.4141,-8.8501,-26.9775,145,0.7063,0.5723,-40.1398,-68.4045,29,0.8964,7795,4.0337,90.9317
rg,1624800850070825453,1,0.314,-0.2683,-0.0295,43,149.9634,7.6294,-41.1377,145,0.7063,0.5763,-41.9871,-62.4628,29,0.8924,7919,4.0337,90.2144
rg,1624800850070842065,1,0.176,-0.0249,-0.1335,44,106.5674,43.7622,-26.3062,145,0.7073,0.5793,-43.6694,-58.0635,29,0.8914,7914,4.0337,88.5567
rg,1624800850070859157,1,0.0669,-0.0671,-0.1763,45,-13.6108,104.8584,7.0801,145,0.7083,0.5813,-42.0669,-58.2993,29,0.8914,7961,4.0337,85.8719
rg,1624800850070875935,1,0.0996,-0.304,-0.0168,46,-104.248,134.9487,32.1655,145,0.7123,0.5833,-37.5748,-60.7006,29,0.8934,7901,4.0337,81.7031
rg,1624800850070893453,1,0.4478,-1.3169,1.1575,47,-210.4492,248.6572,74.2798,145,0.7204,0.5903,-29.5368,-63.6217,29,0.9024,8193,4.0337,72.4562
rg,1624800850070931194,1,-0.1797,-2.2214,1.0872,48,-97.6562,284.5459,73.5474,145,0.7304,0.6103,-20.6296,-63.3618,29,0.9134,10205,4.0337,62.6886
rg,1624800850070950342,1,-0.3921,-1.8208,0.3533,49,99.0601,93.9331,10.0098,145,0.7584,0.6363,-17.2875,-58.9577,29,0.9215,8927,4.0337,59.681
rg,1624800850070968102,1,-0.2871,-1.1414,0.6741,50,189.7583,29.9683,7.8125,145,0.7964,0.6653,-15.2383,-51.1915,29,0.9335,8637,4.0337,58.927
rg,1624800850070985361,1,-0.2288,-0.8237,0.4202,51,226.5625,-1.2817,22.522,145,0.8324,0.7043,-13.4904,-43.1197,29,0.9405,8727,4.0337,59.8831
rg,1624800850071002676,1,-0.1782,-0.3433,0.0955,52,188.2935,-20.5078,25.8179,145,0.8604,0.7454,-12.0745,-37.0023,29,0.9435,8630,4.0337,61.5644
rg,1624800850071030342,1,-0.2463,-0.1978,0.1331,53,71.5332,-39.4287,4.1504,145,0.8714,0.7764,-11.3424,-34.8981,29,0.9475,8736,4.0337,62.7994
rg,1624800850071047546,1,-0.4158,-0.5562,0.3059,54,-92.4072,-91.9189,-5.3101,145,0.8474,0.7934,-12.8165,-39.8629,29,0.9505,8747,4.0337,65.0171
rg,1624800850071064250,1,-0.1899,-1.0344,0.5781,55,-158.6914,-150.5737,-7.9346,145,0.7804,0.8004,-18.4552,-51.0245,29,0.9535,8743,4.0337,71.3086
rg,1624800850071081435,1,0.0439,-1.2737,0.6536,56,-259.4604,-276.9165,-16.8457,145,0.7254,0.7584,-24.1461,-65.3466,29,0.9455,8887,4.0337,81.0476
rg,1624800850071098176,1,0.4385,-1.7456,0.4756,57,-238.6475,-275.5737,2.6855,145,0.6983,0.6573,-26.8303,-80.2515,29,0.9265,8277,4.0337,92.7898
rg,1624800850071114805,1,0.6379,-1.4668,0.5603,58,-114.0747,-177.4292,41.4429,145,0.7023,0.6093,-25.7214,-87.8842,29,0.9164,8191,4.0337,100.6169
rg,1624800850071131453,1,0.6748,-1.5198,0.6855,59,23.7427,-115.8447,52.4902,145,0.7033,0.5953,-23.8204,-88.5431,29,0.9044,8315,4.0337,105.5382
rg,1624800850071159750,1,0.7957,-1.1196,0.3748,60,122.1924,-68.2983,89.0503,145,0.7033,0.5883,-20.8664,-84.2537,29,0.8984,8235,4.0337,108.4433
rg,1624800850071224268,1,0.5632,-0.6611,0.0457,61,158.3862,-9.1553,-7.6904,145,0.7033,0.5883,-21.9776,-78.0785,29,0.8924,8354,4.0337,108.7515
rg,1624800850071251287,1,0.2471,-0.2654,-0.0828,62,171.0205,20.5078,-42.9688,145,0.7033,0.5913,-24.465,-71.2522,29,0.8874,8230,4.0337,106.5645
rg,1624800850071299546,1,0.1343,-0.1174,-0.1174,63,156.1279,68.7256,-57.9834,145,0.7033,0.5963,-26.6058,-65.1093,29,0.8844,8444,4.0337,103.4539
rg,1624800850071325657,1,-0.0266,0.019,-0.1677,64,93.0786,116.5771,-46.2036,145,0.7053,0.6003,-26.3983,-61.0469,29,0.8844,8283,4.0337,98.8307
rg,1624800850427135379,1,0.1282,-1.4304,1.5146,65,-277.2827,164.1846,66.1011,145,0.7184,0.6033,-20.4971,-69.2285,29,0.8904,25724,4.0337,93.156
rg,1624800850427412231,1,-0.2888,-2.2769,0.8481,66,-226.8677,184.4482,61.8286,145,0.7324,0.6203,-16.246,-70.621,29,0.9054,9111,4.0337,88.7837
rg,1624800850427456416,1,-0.302,-2.0244,0.3198,67,54.9927,33.3862,12.6343,145,0.7564,0.6443,-14.3763,-68.5417,29,0.9164,8507,4.0337,87.8011
rg,1624800850427490324,1,0.0491,-1.4988,0.782,68,157.7759,13.1226,27.5879,177,0.7954,0.6763,-12.6602,-61.9874,29,0.9275,8548,4.0029,87.7472
rg,1624800850427525009,1,0.0508,-0.9216,0.4285,69,234.4971,-9.4604,28.3813,177,0.8354,0.7194,-11.5268,-52.9683,29,0.9315,8129,4.0029,88.7493
rg,1624800850427560490,1,0.0308,-0.6301,0.1643,70,227.7832,-31.7993,17.7612,177,0.8694,0.7664,-11.6671,-46.6428,29,0.9335,8443,4.0029,90.0101
rg,1624800850427589620,1,-0.0386,-0.2495,0.0327,71,142.7612,-6.0425,-0.6714,177,0.8924,0.7984,-11.1616,-42.3182,29,0.9365,8031,4.0029,90.4643
rg,1624800850427631916,1,-0.1677,-0.1658,0.3054,72,-9.2163,17.1509,6.3477,177,0.8984,0.8284,-9.1337,-42.1331,29,0.9385,8293,4.0029,90.0921
rg,1624800850427654712,1,-0.2485,-0.7673,0.4692,73,-151.7334,-59.3872,7.2021,177,0.8544,0.8414,-9.6422,-49.1036,29,0.9415,8204,4.0029,92.0605
rg,1624800850427691638,1,-0.0542,-1.0242,0.6787,74,-206.1768,-126.6479,6.0425,177,0.7834,0.8304,-11.9372,-58.4084,29,0.9445,8181,4.0029,96.3682
rg,1624800850427717527,1,0.3418,-1.4446,0.6758,75,-260.437,-203.7354,-0.8545,177,0.7264,0.7744,-15.4189,-70.8278,29,0.9355,8742,4.0029,103.9479
rg,1624800850427750342,1,0.5864,-1.6675,0.2817,76,-202.3315,-159.3018,29.7241,177,0.6983,0.6603,-15.9308,-81.0666,29,0.9134,8555,4.0029,110.7546
rg,1624800850427771842,1,0.7126,-1.2996,0.5522,77,-162.5366,-88.4399,42.5415,177,0.7003,0.5963,-14.3631,-84.9685,29,0.9014,8251,4.0029,112.0772
rg,1624800850428118212,1,0.5498,-1.1516,0.3906,78,61.0352,65.8569,87.7075,177,0.7043,0.5733,-10.9945,-81.5095,29,0.8884,16693,4.0029,109.6643
rg,1624800850428264083,1,0.4504,-1.04,0.2219,79,56.8848,63.9648,36.0718,177,0.7043,0.5733,-9.2358,-78.9223,29,0.8854,8011,4.0029,107.3624
rg,1624800850428289712,1,0.0122,-0.7432,0.01,80,124.1455,66.2231,-76.5991,177,0.7033,0.5743,-11.2683,-73.767,29,0.8814,8189,4.0029,104.1033
rg,1624800850428336861,1,-0.2314,-0.3254,-0.0286,81,167.2974,75.0732,-95.7031,177,0.7033,0.5773,-12.2517,-66.9303,29,0.8804,8054,4.0029,100.1523
rg,1624800850428362250,1,-0.3313,-0.1658,-0.0232,82,164.7339,80.6274,-84.3506,177,0.7043,0.5793,-10.7822,-60.7776,29,0.8814,8183,4.0029,96.6955
rg,1624800850428384120,1,-0.457,-0.0129,-0.0662,83,103.5156,47.7905,-16.4795,177,0.7083,0.5833,-7.4749,-60.3838,29,0.8854,9709,4.0029,96.9528
rg,1624800850428405453,1,-0.3638,-0.3423,0.0085,84,-82.9468,-34.0576,55.8472,177,0.7163,0.5813,-4.3027,-64.6511,29,0.8934,9261,4.0029,99.2304
rg,1624800850428426842,1,0.6965,-2.0374,2.0715,85,-223.877,-151.4893,68.0542,177,0.7294,0.5923,-3.9911,-72.5661,29,0.9084,11332,4.0029,104.8656
rg,1624800850428451324,1,0.5205,-2.1929,1.2336,86,-85.5103,-36.5601,61.0962,177,0.7584,0.6193,-2.2083,-76.2875,29,0.9225,8982,4.0029,106.945
rg,1624800850428477472,1,0.3811,-1.9102,0.2463,87,156.3721,-57.0068,18.7988,177,0.8044,0.6603,-2.4888,-70.3747,29,0.9305,9078,4.0029,109.3327
rg,1624800850428504379,1,0.3054,-1.1257,0.4473,88,220.52,11.1084,-25.4517,177,0.8494,0.6963,-3.6903,-61.4512,29,0.9345,8778,4.0029,108.4739
rg,1624800850428524694,1,0.0498,-0.4224,0.2068,89,222.168,73.5474,-3.2959,177,0.8834,0.7364,-2.3075,-52.5495,29,0.9375,8508,4.0029,105.9332
rg,1624800850428600787,1,-0.1086,0.0457,0.2219,90,119.5679,131.5918,16.3574,177,0.9004,0.7624,2.6101,-45.9462,29,0.9405,9578,4.0029,102.3603
rg,1624800850428629916,1,-0.4143,-0.136,0.1226,91,-62.561,97.5342,5.8594,177,0.8804,0.7824,7.439,-48.7071,29,0.9415,9098,4.0029,99.5909
rg,1624800850428653509,1,-0.4463,-0.8411,0.4773,92,-254.5166,-81.0547,-13.7329,177,0.7974,0.7894,5.779,-59.0034,29,0.9455,9000,4.0029,101.7835
rg,1624800850428674842,1,0.1157,-1.3679,0.8174,93,-352.417,-251.77,-11.7188,177,0.7294,0.7514,0.9042,-72.5128,29,0.9405,10209,4.0029,110.7526
rg,1624800850428698101,1,0.5945,-1.8127,0.4253,94,-308.6548,-255.188,14.0991,177,0.6993,0.6563,0.4203,-81.611,29,0.9245,9262,4.0029,119.2198
rg,1624800850428718546,1,0.6313,-1.7373,0.0813,95,-152.4658,-132.5684,78.2471,177,0.7013,0.5993,1.9244,-87.2502,29,0.9174,9163,4.0029,124.836
rg,1624800850428742101,1,0.8494,-1.5366,0.5249,96,25.0244,0.7935,79.3457,177,0.7023,0.5833,3.9636,-85.6621,29,0.9084,9038,4.0029,124.9902
rg,1624800850762965657,1,-0.01,-0.6367,-0.0007,97,98.4497,105.3467,-101.9897,177,0.7053,0.5673,0.237,-82.0574,29,0.9004,27180,4.0029,120.3653
rg,1624800850763027194,1,-0.3599,-0.3455,-0.0657,98,135.3149,111.0229,-109.9243,177,0.7073,0.5733,-1.6697,-77.0888,29,0.9004,8825,4.0029,115.2958
rg,1624800850763047805,1,-0.5391,-0.1511,-0.0952,99,116.8213,89.2334,-31.9214,177,0.7093,0.5753,0.1795,-72.877,29,0.9024,7983,4.0029,111.6244
rg,1624800850763068860,1,-0.4153,-0.2078,0.0056,100,63.7207,47.2412,19.5312,177,0.7143,0.5853,4.292,-73.8294,29,0.9094,8987,4.0029,112.6868
rg,1624800850763088823,1,-0.3164,-0.5239,0.1929,101,-103.7598,-77.5757,69.8853,177,0.7234,0.5923,7.2018,-77.4507,29,0.9164,8160,4.0029,116.3777
rg,1624800850763108620,1,0.4746,-1.8838,1.8938,102,-190.7959,-196.106,64.5142,177,0.7354,0.6133,7.7968,-82.7722,29,0.9265,8504,4.0029,124.7701
rg,1624800850763203990,1,0.3428,-2.0237,0.4836,103,37.5977,-87.9517,32.1655,177,0.7614,0.6393,7.8946,-80.4916,29,0.9355,8073,4.0029,128.4885
rg,1624800850763226046,1,0.4639,-1.8691,0.2451,104,136.1694,-66.1621,49.8047,177,0.8014,0.6773,8.2199,-74.5578,29,0.9445,8345,4.0029,131.4759
rg,1624800850763245083,1,0.5054,-1.1934,0.4053,105,212.4634,1.2817,10.9253,177,0.8384,0.7133,7.5132,-65.9525,29,0.9505,8279,4.0029,131.5039
rg,1624800850763264046,1,0.1165,-0.4797,0.1787,106,214.2944,73.1201,-10.1318,177,0.8694,0.7504,7.7325,-57.9167,29,0.9535,8338,4.0029,128.6375
rg,1624800850763282120,1,-0.2627,-0.0837,0.3479,107,110.5347,152.5879,17.2729,177,0.8834,0.7884,13.2028,-56.3666,29,0.9575,12971,4.0029,123.9833
rg,1624800850763347490,1,-0.4832,-0.6541,0.2886,108,-61.8896,110.4736,21.7285,177,0.8434,0.7964,14.5343,-62.7865,29,0.9595,8148,4.0029,123.1103
rg,1624800850763369268,1,-0.4148,-0.8799,0.4417,109,-219.7876,-84.3506,-19.2871,177,0.7814,0.7934,12.8457,-70.8887,29,0.9595,8061,4.0029,125.964
rg,1624800850763389379,1,0.0525,-1.3296,0.7678,110,-292.5415,-231.4453,-17.0898,177,0.7284,0.7414,9.3814,-80.3847,29,0.9525,8810,4.0029,135.0225
rg,1624800850763408138,1,0.5229,-1.7874,0.428,111,-209.3506,-209.9609,39.1235,177,0.7023,0.6403,9.0805,-87.1738,29,0.9385,8185,4.0029,143.6955
rg,1624800850763427323,1,0.8245,-1.5403,0.5449,112,-155.4565,-162.2314,59.2041,177,0.7063,0.5953,10.4108,-88.2891,29,0.9375,8993,4.0029,148.1646
rg,1624800850763445231,1,0.7358,-1.5134,0.3252,113,49.7437,-18.1885,75.5005,177,0.7063,0.5813,12.0541,-85.738,29,0.9285,8464,4.0029,149.0916
rg,1624800850763463194,1,0.9165,-1.1067,0.2856,114,70.4346,28.0151,82.5195,177,0.7083,0.5733,13.6774,-82.7793,29,0.9235,8883,4.0029,148.2924
rg,1624800850763481360,1,0.3792,-0.801,0.0813,115,103.9429,113.4033,-43.396,177,0.7093,0.5733,11.2123,-79.7242,29,0.9204,8900,4.0029,143.3874
rg,1624800850763499342,1,-0.0686,-0.532,-0.0059,116,116.333,124.4507,-97.8394,177,0.7093,0.5753,8.2581,-76.4748,29,0.9225,8631,4.0029,137.5595
rg,1624800850763517175,1,-0.2415,-0.4165,-0.0376,117,126.0986,132.3242,-99.9146,177,0.7123,0.5813,7.9334,-72.6386,29,0.9235,8826,4.0029,131.5776
rg,1624800850763534342,1,-0.4683,-0.2292,-0.0496,118,126.2207,117.2485,-50.5371,177,0.7174,0.5833,9.4456,-68.868,29,0.9285,8895,4.0029,126.4325
rg,1624800850763552564,1,-0.4336,-0.199,0.0461,119,33.0811,53.2227,37.5366,177,0.7234,0.5923,13.4787,-67.9631,29,0.9345,8718,4.0029,124.9691
rg,1624800850763571509,1,-0.2646,-0.7803,0.5393,120,-117.0654,-52.063,67.8101,177,0.7334,0.6083,15.3975,-71.3835,29,0.9415,8723,4.0029,128.0665
rg,1624800850763589342,1,0.3145,-1.79,1.5664,121,-130.4321,-105.1636,59.7534,177,0.7604,0.6283,15.6205,-74.3615,29,0.9505,8931,4.0029,133.2233
rg,1624800850763607101,1,0.2981,-1.9121,0.5439,122,-27.6489,-73.3643,49.0112,177,0.8024,0.6693,15.972,-69.8735,29,0.9595,8669,4.0029,136.2081
rg,1624800850763625638,1,0.3958,-1.708,0.2959,123,173.4619,-72.1436,48.645,177,0.8434,0.7143,15.3524,-62.3554,29,0.9645,9146,4.0029,139.576
rg,1624800850763643712,1,0.373,-0.9675,0.3,124,226.0742,-30.0293,4.8828,177,0.8824,0.7534,13.5878,-53.4744,29,0.9655,8491,4.0029,140.5205
rg,1624800850763768675,1,0.1677,-0.3228,0.1296,125,193.4814,52.3071,8.3008,177,0.9114,0.7824,13.7602,-46.64,29,0.9665,8540,4.0029,138.8728
rg,1624800850763793009,1,-0.0391,0.0852,0.3877,126,45.7764,152.0996,32.7759,177,0.9225,0.8044,18.8704,-43.786,29,0.9695,8583,4.0029,135.8103
rg,1624800850763812935,1,-0.2192,-0.0049,0.3979,127,-44.6167,158.8745,33.0811,177,0.8924,0.8214,23.002,-50.6198,29,0.9705,8585,4.0029,133.0068
rg,1624800850763847268,1,-0.3613,-0.8938,0.5796,128,-229.6753,-0.3052,9.0942,177,0.8044,0.8244,23.12,-59.9233,29,0.9705,8568,4.0029,133.1585
rg,1624800851105861138,1,0.5305,-1.6169,0.1924,129,-99.1821,-88.7451,62.439,177,0.6993,0.6143,22.1882,-62.9722,29,0.9365,29941,4.0029,137.502
rg,1624800851105911138,1,0.6738,-1.376,0.6321,130,-8.8501,-31.7993,62.9883,177,0.7003,0.5903,23.5255,-60.3517,29,0.9285,8897,4.0029,137.4669
rg,1624800851105932675,1,0.6023,-1.1101,0.2959,131,79.7119,21.4844,79.7119,177,0.7023,0.5823,24.9498,-57.3309,29,0.9245,8180,4.0029,138.182
rg,1624800851105970786,1,0.3821,-0.9846,0.1472,132,72.2656,42.5415,-14.9536,177,0.7033,0.5763,23.8207,-56.1953,29,0.9225,8299,4.0029,135.8346
rg,1624800851105992564,1,-0.1006,-0.7603,-0.0532,133,104.7974,54.3823,-73.6084,177,0.7033,0.5793,21.301,-53.9576,29,0.9215,7913,4.0029,131.0449
rg,1624800851106012786,1,-0.2156,-0.5132,-0.0371,134,161.2549,50.2319,-102.6001,177,0.7053,0.5823,19.5323,-50.4854,29,0.9204,8566,4.0029,126.1632
rg,1624800851106030897,1,-0.3838,-0.114,-0.0305,135,200.8667,58.3496,-71.106,177,0.7073,0.5853,20.925,-44.3606,29,0.9235,8067,4.0029,122.2115
rg,1624800851106049990,1,-0.438,0.1287,-0.1289,136,130.9814,52.1851,19.8364,177,0.7133,0.5923,25.2554,-39.4265,29,0.9265,8266,4.0029,121.4484
rg,1624800851106068008,1,-0.2773,-0.501,0.0535,137,-185.6689,-63.1714,88.8672,177,0.7264,0.6073,26.173,-46.2934,29,0.9385,17622,4.0029,125.5509
rg,1624800851106086471,1,0.7944,-2.0461,2.51,138,-304.4434,-139.3433,83.252,177,0.7394,0.6203,23.8199,-55.0742,29,0.9475,7958,4.0029,132.854
rg,1624800851106104138,1,0.7505,-2.5566,1.9434,139,-178.4668,-30.2734,63.5986,177,0.7674,0.6493,23.9624,-60.9776,29,0.9565,8066,4.0029,135.5609
rg,1624800851106122231,1,0.3096,-2.0488,0.1057,140,134.1553,-30.7617,32.8979,177,0.8054,0.6903,23.328,-55.95,29,0.9635,7973,4.0029,136.9615
rg,1624800851106140082,1,0.3586,-1.2256,0.481,141,199.1577,44.1284,-0.9155,177,0.8404,0.7264,22.9814,-49.1694,29,0.9675,8101,4.0029,135.1156
rg,1624800851106158249,1,0.2097,-0.8171,0.54,142,211.3037,90.3931,-5.7983,177,0.8714,0.7614,24.3309,-42.2767,29,0.9695,8669,4.0029,131.9304
rg,1624800851106176471,1,-0.0803,-0.2122,0.2546,143,184.8145,134.7046,8.5449,177,0.8874,0.7914,28.2541,-36.3647,29,0.9715,8105,4.0029,128.4366
rg,1624800851106194194,1,-0.3655,-0.0281,0.2241,144,37.8418,145.0195,4.7607,177,0.8784,0.8114,34.2061,-36.15,29,0.9725,8773,4.0029,124.9264
rg,1624800851106210860,1,-0.6284,-0.6206,0.2725,145,-172.0581,7.2632,-19.7754,177,0.8114,0.8234,34.3376,-44.5658,29,0.9745,8279,4.0029,123.3638
rg,1624800851106228694,1,-0.345,-1.104,0.603,146,-258.728,-116.8823,-36.5601,177,0.7484,0.7984,26.3979,-54.2826,29,0.9655,8809,4.0029,130.1526
rg,1624800851106246749,1,0.0039,-1.4819,0.8767,147,-327.5146,-312.5,-22.2778,177,0.7113,0.6993,18.2543,-63.314,29,0.9505,8518,4.0029,141.0987
rg,1624800851106266434,1,0.5107,-1.9177,0.3208,148,-177.9175,-269.4092,52.124,177,0.7003,0.6303,14.5204,-67.9024,29,0.9385,8481,4.0029,152.0134
rg,1624800851106306397,1,0.9331,-1.541,0.2673,149,19.8975,-147.583,99.6704,177,0.7013,0.6033,14.2624,-65.7108,29,0.9365,8663,4.0029,159.084
rg,1624800851106333934,1,0.9668,-1.1389,0.2644,150,122.6807,-43.8232,78.3691,177,0.7033,0.5893,14.4439,-60.4135,29,0.9265,8752,4.0029,161.9764
rg,1624800851106377860,1,0.5415,-0.6792,0.0786,151,102.9663,50.5371,-29.1748,177,0.7053,0.5763,12.7074,-57.587,29,0.9215,10273,4.0029,159.3486
rg,1624800851106398490,1,0.0344,-0.5027,-0.0203,152,89.0503,103.5156,-88.2568,177,0.7053,0.5753,11.4243,-56.4981,29,0.9204,9563,4.0029,153.5421
rg,1624800851106419064,1,-0.1541,-0.4067,-0.0332,153,89.3555,130.6152,-84.4727,177,0.7053,0.5733,11.9783,-55.5533,29,0.9194,8221,4.0029,146.9355
rg,1624800851106438379,1,-0.353,-0.1768,-0.0142,154,110.2295,144.2261,-35.0342,177,0.7073,0.5693,15.9933,-53.1739,29,0.9204,8419,4.0029,141.1728
rg,1624800851106457916,1,-0.3623,-0.0771,0.0054,155,52.5513,103.2715,36.438,177,0.7133,0.5783,21.653,-52.1524,29,0.9225,8314,4.0029,138.5789
rg,1624800851106476545,1,-0.3103,-0.5042,0.3315,156,-128.6621,34.4238,60.9131,177,0.7214,0.5993,24.6379,-57.3276,29,0.9285,8535,4.0029,138.8069
rg,1624800851106495823,1,0.1218,-2.0269,2.2017,157,-193.2983,-18.5547,56.3965,177,0.7334,0.6193,24.3539,-63.7604,29,0.9385,8913,4.0029,142.4781
rg,1624800851106515527,1,0.136,-2.2715,1.3486,158,-114.624,-63.8428,34.9121,177,0.7574,0.6523,23.631,-67.6007,29,0.9515,8915,4.0029,145.4449
rg,1624800851106534045,1,0.2043,-1.9434,0.4028,159,100.5249,-59.5093,45.166,177,0.7984,0.6953,23.1816,-62.7857,29,0.9595,8729,4.0029,148.3903
rg,1624800851106552527,1,0.4473,-1.3303,0.4158,160,210.4492,-25.8789,44.1284,177,0.8374,0.7414,22.6839,-54.0765,29,0.9645,9033,4.0029,150.0636
rg,1624800851449339638,1,-0.127,0.0095,0.2351,161,39.2456,105.6519,13.916,177,0.8744,0.8164,26.1987,-52.0469,29,0.9715,25321,4.0029,147.4389
rg,1624800851449378471,1,-0.3586,-0.5566,0.4736,162,-79.7119,100.4028,22.8271,177,0.8184,0.8264,27.1124,-59.683,29,0.9735,9123,4.0029,146.5187
rg,1624800851449398712,1,-0.3555,-0.8884,0.5256,163,-253.7231,-74.8291,-22.644,177,0.7574,0.8154,24.6999,-68.6472,29,0.9685,8253,4.0029,149.1135
rg,1624800851449418471,1,-0.0579,-1.5432,0.5308,164,-301.4526,-234.9854,-22.644,177,0.7224,0.7294,20.2644,-77.1384,29,0.9585,8274,4.0029,158.5193
rg,1624800851449461527,1,0.415,-1.8928,0.3352,165,-147.644,-210.2661,60.9741,177,0.7033,0.6663,19.7768,-79.9209,29,0.9425,8614,4.0029,167.7726
rg,1624800851449482897,1,0.5857,-1.6709,0.1265,166,-45.6543,-170.6543,101.1353,177,0.7043,0.6403,21.2862,-75.6887,29,0.9395,8082,4.0029,-185.9306
rg,1624800851449501379,1,0.7876,-0.9551,0.2195,167,128.9673,-55.7251,68.4204,177,0.7053,0.6243,21.132,-69.3861,29,0.9275,15512,4.0029,-182.8897
rg,1624800851449519360,1,0.5076,-0.4514,0.0452,168,122.4976,9.5825,-19.6533,177,0.7053,0.6163,18.4562,-65.1696,29,0.9245,7859,4.0029,-183.8225
rg,1624800851449537693,1,0.0977,-0.1619,-0.1787,169,126.9531,82.4585,-69.5801,177,0.7073,0.6163,16.3658,-63.5261,29,0.9235,7968,4.0029,171.1166
rg,1624800851449555693,1,-0.0166,-0.0706,-0.1531,170,99.3652,121.0938,-63.1104,177,0.7113,0.6223,16.479,-63.5306,29,0.9245,7870,4.0029,164.7598
rg,1624800851449579471,1,-0.261,-0.1484,-0.0334,171,-46.5698,224.6094,-4.1504,177,0.7163,0.6293,21.5169,-69.0456,29,0.9275,8194,4.0029,155.7071
rg,1624800851449613119,1,-0.3198,-0.9463,0.7478,172,-192.5049,205.6885,50.5981,177,0.7254,0.6393,25.4612,-79.1957,29,0.9345,9893,4.0029,147.9807
rg,1624800851449634082,1,-0.5012,-2.1311,0.9214,173,-54.1992,17.334,21.6675,177,0.7364,0.6583,25.9229,-81.047,29,0.9445,8141,4.0029,147.6304
rg,1624800851449653823,1,-0.324,-1.7239,0.2065,174,21.1182,-41.8091,3.1128,177,0.7604,0.6723,25.1649,-79.4819,29,0.9535,8112,4.0029,149.4384
rg,1624800851449692360,1,0.1367,-1.4902,0.9688,175,69.6411,-41.687,21.9727,177,0.7994,0.6973,24.593,-74.8991,29,0.9625,8194,4.0029,151.8099
rg,1624800851449717175,1,0.2412,-1.2898,0.4937,176,165.0391,-4.2725,43.8843,177,0.8404,0.7384,24.9078,-67.7516,29,0.9675,8316,4.0029,152.6186
rg,1624800851449736175,1,0.1228,-1.1284,0.061,177,181.4575,-6.2866,21.1792,177,0.8754,0.7784,23.8715,-61.6591,29,0.9685,8248,4.0029,152.3474
rg,1624800851449754138,1,-0.123,-0.6677,0.0156,178,171.6919,14.5874,-12.3901,177,0.8984,0.8104,23.3321,-56.2446,29,0.9695,8642,4.0029,151.055
rg,1624800851449776082,1,-0.312,-0.157,0.3281,179,117.7979,55.7251,10.7422,177,0.8914,0.8324,25.7322,-51.2574,29,0.9695,8426,4.0029,149.7828
rg,1624800851449795601,1,-0.5271,-0.2905,0.2695,180,-89.0503,-7.9346,5.8594,153,0.8344,0.8424,26.7667,-54.5091,29,0.9685,8333,4.0062,150.2448
rg,1624800851449814249,1,-0.5154,-0.6292,0.2603,181,-194.0308,-134.2773,-19.6533,153,0.7654,0.8354,19.8972,-62.5103,29,0.9615,8501,4.0062,159.1679
rg,1624800851449832527,1,-0.0171,-1.3181,0.6255,182,-332.3975,-370.4834,-16.3574,153,0.7254,0.7404,12.9088,-71.8895,29,0.9485,8518,4.0062,-186.9803
rg,1624800851449852119,1,0.7107,-2.1199,0.564,183,-213.7451,-288.6963,69.519,153,0.7023,0.6733,11.4457,-77.9295,29,0.9345,9106,4.0062,-174.8739
rg,1624800851449871712,1,0.9639,-1.5989,-0.04,184,42.6636,-160.5835,138.4277,153,0.7023,0.6293,13.8003,-74.9681,29,0.9305,8212,4.0062,-167.3039
rg,1624800851449923564,1,0.9077,-0.8892,0.1616,185,182.9224,-49.1333,67.9321,153,0.7023,0.6183,13.7962,-67.1546,29,0.9204,8707,4.0062,-164.6668
rg,1624800851449949212,1,0.8357,-0.5667,0.2273,186,159.3018,-27.71,29.6631,153,0.7043,0.6013,12.2783,-60.4909,29,0.9144,8239,4.0062,-163.249
rg,1624800851449968619,1,0.3997,-0.2825,-0.01,187,86.9141,77.8198,-53.3447,153,0.7063,0.5863,9.9664,-58.4645,29,0.9114,8326,4.0062,-167.2741
rg,1624800851449987101,1,-0.0198,-0.2468,-0.1577,188,32.5928,185.8521,-69.0308,153,0.7083,0.5723,11.2925,-60.7065,29,0.9124,9487,4.0062,-175.5704
rg,1624800851450005934,1,-0.3149,-0.3032,-0.0938,189,-1.9531,257.6294,-30.0293,153,0.7113,0.5763,16.2793,-64.3865,29,0.9114,8812,4.0062,-185.8112
rg,1624800851450023916,1,-0.4822,-0.6311,0.3555,190,-39.5508,260.498,3.0518,153,0.7174,0.5923,21.662,-70.7835,29,0.9154,8795,4.0062,165.6327
rg,1624800851450042490,1,-0.5393,-1.0447,1.0083,191,-134.8877,172.1802,41.3208,153,0.7264,0.6093,25.1138,-77.8563,29,0.9225,8931,4.0062,159.2558
rg,1624800851450061619,1,-0.501,-1.7122,0.811,192,-66.7114,-25.6958,12.0239,153,0.7374,0.6313,25.0021,-79.4268,29,0.9335,8730,4.0062,160.7206
rg,1624800851794184008,1,0.2869,-1.2791,0.4888,193,142.0288,-65.7959,49.4385,153,0.8254,0.7284,24.9148,-71.9257,29,0.9605,25041,4.0062,164.1563
rg,1624800851794273545,1,0.1746,-0.9028,0.0205,194,153.0762,-71.167,-0.6714,153,0.8614,0.7794,22.5915,-65.3761,29,0.9645,9241,4.0062,166.6664
rg,1624800851794304638,1,0.1084,-0.6743,-0.0015,195,141.1133,-44.0674,-13.1836,153,0.8844,0.8074,20.2267,-60.2411,29,0.9665,7910,4.0062,167.6529
rg,1624800851794335804,1,-0.0256,-0.3171,0.2791,196,76.5991,27.9541,-1.9531,153,0.8874,0.8324,20.0912,-57.0578,29,0.9685,8051,4.0062,166.7435
rg,1624800851794366026,1,-0.2385,-0.4055,0.4211,197,-94.6045,14.9536,7.2021,153,0.8114,0.8364,20.7477,-60.446,29,0.9705,8940,4.0062,166.5338
rg,1624800851794398971,1,-0.0012,-1.2285,0.4902,198,-232.5439,-145.874,-27.2217,153,0.7414,0.7944,15.6979,-69.3479,29,0.9655,14365,4.0062,-186.2949
rg,1624800851794427564,1,0.252,-1.5471,0.5259,199,-269.4092,-230.0415,-2.7466,153,0.7033,0.6933,12.1111,-77.9598,29,0.9445,7834,4.0062,-177.2301
rg,1624800851794456471,1,0.5122,-1.7676,0.2251,200,-158.2031,-156.189,60.8521,153,0.6993,0.6223,12.4133,-82.9918,29,0.9325,9455,4.0062,-170.5251
rg,1624800851794483508,1,0.678,-1.5215,0.4038,201,64.3921,-26.6113,85.7544,153,0.7003,0.6053,14.3106,-79.7382,29,0.9265,7880,4.0062,-168.9024
rg,1624800851794514026,1,0.7822,-1.3335,0.2739,202,105.4077,-0.4272,106.8115,153,0.7023,0.5933,16.8801,-75.2215,29,0.9215,7968,4.0062,-167.9943
rg,1624800851794557230,1,0.6492,-0.8367,0.1821,203,119.5068,32.5317,30.7617,153,0.7023,0.5833,16.589,-70.8104,29,0.9184,9195,4.0062,-169.0248
rg,1624800851794586249,1,0.1594,-0.4346,-0.0833,204,178.1616,61.7065,-73.4253,153,0.7023,0.5823,13.5211,-65.727,29,0.9144,8855,4.0062,-172.8899
rg,1624800851794615267,1,-0.1143,-0.0869,-0.0728,205,167.5415,113.9526,-84.8999,153,0.7033,0.5893,13.885,-61.87,29,0.9124,8289,4.0062,-178.9237
rg,1624800851794641341,1,-0.2351,-0.0059,-0.063,206,141.7847,154.3579,-67.0166,153,0.7043,0.5923,18.5742,-61.2172,29,0.9114,8492,4.0062,-186.653
rg,1624800851794668045,1,-0.4829,-0.095,-0.0764,207,-12.2681,198.7915,16.9678,153,0.7083,0.5943,24.7458,-64.9815,29,0.9144,8489,4.0062,165.8074
rg,1624800851794695786,1,-0.5208,-0.7615,0.4353,208,-183.2886,96.6187,62.5,153,0.7153,0.6013,28.6577,-73.4772,29,0.9194,8431,4.0062,162.8096
rg,1624800851794744712,1,-0.2783,-2.062,2.0298,209,-209.1675,-52.4902,44.0674,153,0.7254,0.6153,29.1348,-79.2136,29,0.9285,8609,4.0062,166.2408
rg,1624800851794772101,1,-0.1658,-1.9807,0.7808,210,-78.3691,-102.9053,24.9023,153,0.7444,0.6413,28.232,-75.1275,29,0.9405,8499,4.0062,171.4653
rg,1624800851794879026,1,0.1497,-1.666,0.448,211,106.9946,-92.5293,50.9644,153,0.7774,0.6613,27.7855,-68.6564,29,0.9505,8358,4.0062,-183.9089
rg,1624800851794917804,1,0.3113,-1.136,0.5271,212,180.481,-57.4951,25.3296,153,0.8204,0.7013,26.2052,-60.0748,29,0.9565,8638,4.0062,-181.1475
rg,1624800851794953767,1,0.1282,-0.6697,0.1528,213,181.2134,-49.4995,-8.606,153,0.8574,0.7394,23.5391,-52.9198,29,0.9605,8372,4.0062,-179.9445
rg,1624800851794983508,1,0.0642,-0.4629,0.0671,214,149.5361,-17.0898,-7.2021,153,0.8854,0.7744,22.1546,-48.0634,29,0.9615,8252,4.0062,-180.1043
rg,1624800851795015008,1,-0.0586,-0.2725,0.1121,215,51.0254,50.415,7.5684,153,0.8994,0.8034,23.3413,-47.368,29,0.9625,8177,4.0062,-181.8132
rg,1624800851795049952,1,-0.2798,-0.501,0.4224,216,-94.2993,34.79,12.146,153,0.8814,0.8194,24.5925,-51.5465,29,0.9635,8286,4.0062,-182.6631
rg,1624800851795079989,1,-0.1697,-1.0588,0.541,217,-159.4238,-23.3765,2.9297,153,0.8114,0.8244,21.1954,-59.321,29,0.9645,8216,4.0062,-179.0751
rg,1624800851795112156,1,0.2002,-1.4219,0.5947,218,-266.2354,-208.4961,-17.8223,153,0.7374,0.7824,15.8266,-67.8418,29,0.9605,11237,4.0062,-171.602
rg,1624800851795140489,1,0.3655,-1.5779,0.4446,219,-214.6606,-206.1768,5.127,153,0.7063,0.6913,13.7992,-72.3611,29,0.9445,8644,4.0062,-164.7357
rg,1624800851795170675,1,0.5901,-1.5281,0.0452,220,-91.5527,-100.9521,65.3076,153,0.7003,0.6243,13.912,-75.4513,29,0.9365,8599,4.0062,-160.1121
rg,1624800851795199175,1,0.7747,-1.2737,0.6213,221,16.5405,40.6494,79.4678,153,0.7003,0.5983,15.8595,-74.572,29,0.9315,8933,4.0062,-160.8139
rg,1624800851795232915,1,0.5889,-1.2156,0.3027,222,54.0161,97.7173,66.1011,153,0.7033,0.5773,17.9619,-73.3838,29,0.9285,8766,4.0062,-164.0223
rg,1624800851795336323,1,0.1548,-1.1504,0.2227,223,77.6978,133.4839,-27.2827,153,0.7043,0.5653,17.5003,-72.2408,29,0.9275,8736,4.0062,-169.7953
rg,1624800851795384415,1,-0.3079,-0.7058,0.0217,224,159.79,136.8408,-83.7402,153,0.7053,0.5563,16.4443,-68.3714,29,0.9255,9021,4.0062,-176.5126
rg,1624800852140112823,1,-0.5706,0.1572,-0.0466,225,171.6919,87.1582,-3.6621,153,0.7143,0.5543,20.0043,-62.4874,29,0.9285,24639,4.0062,-179.7656
rg,1624800852140166563,1,-0.4893,0.0818,-0.0454,226,-32.4097,-0.1831,62.3169,153,0.7224,0.5663,24.4491,-63.3252,29,0.9335,9527,4.0062,-178.5559
rg,1624800852140189249,1,-0.3464,-0.7822,0.3604,227,-233.7646,-115.3564,69.8242,153,0.7324,0.5863,25.1101,-70.2524,29,0.9425,8198,4.0062,-172.7145
rg,1624800852140209823,1,0.5483,-2.8081,2.7554,228,-240.3564,-169.6777,57.6782,153,0.7654,0.6363,24.306,-76.7274,29,0.9605,13947,4.0062,-164.8857
rg,1624800852140228711,1,0.2666,-2.1851,0.178,229,106.8726,-115.2344,45.6543,153,0.8074,0.6843,23.6052,-70.6247,29,0.9685,7853,4.0062,-159.7071
rg,1624800852140247804,1,0.5796,-1.4507,0.2915,230,229.3701,-68.6035,37.8418,153,0.8434,0.7234,22.2832,-60.5373,29,0.9715,7926,4.0062,-156.6055
rg,1624800852140267137,1,0.468,-0.9329,0.3286,231,244.873,-19.6533,11.9629,153,0.8754,0.7574,20.8143,-51.5487,29,0.9735,8393,4.0062,-157.727
rg,1624800852140286249,1,0.1318,-0.1616,0.0469,232,212.2192,60.1807,-7.0801,153,0.8984,0.7944,20.3214,-44.5922,29,0.9735,8444,4.0062,-160.2253
rg,1624800852140304434,1,-0.063,0.1316,0.1753,233,43.8232,159.1797,12.3901,153,0.9024,0.8244,25.7121,-42.1965,29,0.9735,8961,4.0062,-163.761
rg,1624800852140322841,1,-0.3999,-0.5752,0.4692,234,-172.3633,93.5669,4.7607,153,0.8694,0.8414,28.502,-50.7151,29,0.9745,8707,4.0062,-166.815
rg,1624800852140346619,1,-0.3062,-1.2957,0.6575,235,-246.2158,-16.4185,-15.3809,153,0.7964,0.8344,24.136,-61.3439,29,0.9755,8449,4.0062,-162.836
rg,1624800852140384915,1,-0.0911,-1.5361,0.5215,236,-315.6128,-209.8389,-25.5737,153,0.7444,0.7874,19.096,-71.4167,29,0.9695,8628,4.0062,-155.1476
rg,1624800852140405897,1,0.4407,-1.9453,0.3801,237,-183.4717,-228.5767,17.0898,153,0.7073,0.6833,16.0405,-76.1595,29,0.9535,8621,4.0062,-145.8194
rg,1624800852140424804,1,0.5583,-1.4292,0.0386,238,-28.8696,-83.1299,63.8428,153,0.7003,0.6153,16.3721,-76.633,29,0.9375,8979,4.0062,-141.9597
rg,1624800852140443563,1,0.6311,-0.9875,0.5771,239,84.9609,33.1421,60.8521,153,0.7023,0.5873,17.4623,-72.8325,29,0.9305,10005,4.0062,-142.5213
rg,1624800852140462563,1,0.5515,-0.9651,0.2678,240,59.2651,42.4805,49.3164,153,0.7043,0.5733,18.2095,-70.8467,29,0.9275,8532,4.0062,-143.6301
rg,1624800852140481711,1,0.1392,-0.9702,0.033,241,46.6919,62.7441,4.3335,153,0.7053,0.5623,16.7975,-69.9624,29,0.9245,8946,4.0062,-148.2141
rg,1624800852140500508,1,-0.0923,-0.8088,-0.03,242,112.6099,113.0371,-71.8384,153,0.7063,0.5563,16.0072,-67.8074,29,0.9245,9392,4.0062,-153.9055
rg,1624800852140518286,1,-0.3467,-0.3101,0.0342,243,175.9644,138.4888,-68.6035,153,0.7093,0.5543,17.0194,-63.0346,29,0.9265,9562,4.0062,-160.3948
rg,1624800852140536100,1,-0.5249,-0.0125,0.0259,244,162.1094,139.6484,-6.0425,153,0.7133,0.5633,21.6527,-58.2028,29,0.9285,8738,4.0062,-165.5467
rg,1624800852140554693,1,-0.4966,-0.0593,0.0439,245,-17.1509,52.6733,68.6035,153,0.7214,0.5783,27.0302,-59.0151,29,0.9345,8794,4.0062,-165.9607
rg,1624800852140572619,1,-0.3625,-0.8223,0.4365,246,-198.3032,-83.8013,64.4531,153,0.7304,0.5963,27.5088,-64.8821,29,0.9435,8775,4.0062,-161.3179
rg,1624800852140591378,1,0.4309,-2.3574,2.3657,247,-218.811,-134.5215,54.4434,153,0.7474,0.6263,26.2477,-69.7682,29,0.9565,8748,4.0062,-154.3645
rg,1624800852140610378,1,0.123,-2.0762,0.323,248,80.9937,-77.6367,38.5132,153,0.7854,0.6723,25.3921,-65.351,29,0.9675,9821,4.0062,-150.7889
rg,1624800852140628656,1,0.3867,-1.4373,0.2871,249,190.979,-69.397,24.5972,153,0.8284,0.7214,23.5094,-57.01,29,0.9735,9414,4.0062,-147.9536
rg,1624800852140647674,1,0.1624,-0.6265,0.2429,250,207.7637,-31.6772,0.061,153,0.8594,0.7644,21.8345,-49.2148,29,0.9765,9318,4.0062,-148.5438
rg,1624800852140664934,1,0.0437,-0.3416,0.1272,251,188.7817,31.7993,-6.1035,153,0.8804,0.8014,22.1272,-42.1972,29,0.9795,9103,4.0062,-149.7602
rg,1624800852140683193,1,-0.0959,0.0173,0.1353,252,58.2886,98.8159,19.7144,153,0.8784,0.8234,26.3521,-39.1986,29,0.9805,9307,4.0062,-151.3256
rg,1624800852140701711,1,-0.304,-0.4741,0.3728,253,-152.2217,49.2554,19.4702,153,0.8124,0.8304,28.3337,-46.1472,29,0.9825,9192,4.0062,-152.4093
rg,1624800852140759063,1,-0.2007,-1.1938,0.6272,254,-316.4062,-141.1133,-20.5078,153,0.7454,0.7924,23.5144,-57.4912,29,0.9755,8958,4.0062,-148.3017
rg,1624800852140795656,1,0.1421,-1.8962,0.6116,255,-303.4668,-223.999,-9.2163,153,0.7073,0.6753,18.06,-67.2028,29,0.9565,9648,4.0062,-140.1993
rg,1624800852140817508,1,0.4023,-1.7256,0.0977,256,-92.1021,-154.7241,54.8706,153,0.7023,0.6043,16.6847,-69.5528,29,0.9455,9009,4.0062,-133.5498
rg,1624800852583823433,1,0.5547,-0.9878,0.1641,257,71.4722,8.8501,75.1953,153,0.7083,0.5653,16.7883,-67.6647,29,0.9325,25532,4.0062,-135.2149
rg,1624800852583886637,1,-0.1865,-0.6655,0.0361,258,122.9248,106.7505,-83.6182,153,0.7083,0.5703,15.4181,-65.0137,29,0.9315,10233,4.0062,-140.8861
rg,1624800852583918100,1,-0.4175,-0.3315,0.0374,259,144.7144,117.981,-81.0547,153,0.7103,0.5723,16.6015,-60.6798,29,0.9335,8271,4.0062,-146.3763
rg,1624800852583946656,1,-0.4822,-0.1006,0.0298,260,154.4189,105.3467,-35.9497,153,0.7143,0.5693,20.3536,-56.87,29,0.9365,8484,4.0062,-149.5236
rg,1624800852583975433,1,-0.4741,-0.0737,0.0386,261,55.6641,60.4858,28.3813,153,0.7194,0.5803,24.5865,-55.2387,29,0.9415,8598,4.0062,-150.9933
rg,1624800852584004026,1,-0.4404,-0.5771,0.2798,262,-120.2393,-27.832,47.1802,153,0.7264,0.5893,25.9635,-59.4242,29,0.9475,8431,4.0062,-148.9782
rg,1624800852584031137,1,-0.0586,-1.6414,1.6125,263,-203.9185,-125.6714,49.1333,153,0.7384,0.6153,24.4531,-64.4044,29,0.9565,8317,4.0062,-142.7518
rg,1624800852584060156,1,0.0798,-2.042,0.8035,264,-16.1133,-90.0269,41.0767,153,0.7664,0.6483,23.3387,-63.4512,29,0.9655,9083,4.0062,-138.5033
rg,1624800852584105285,1,0.1685,-1.95,0.4624,265,103.8818,-87.0972,51.0864,153,0.8094,0.6933,22.2361,-58.2749,29,0.9745,8909,4.0062,-134.4453
rg,1624800852584134674,1,0.3804,-1.2888,0.3608,266,200.5005,-85.7544,23.6206,153,0.8434,0.7354,19.6537,-49.6899,29,0.9765,9135,4.0062,-131.2392
rg,1624800852584162915,1,0.1292,-0.5649,0.1584,267,202.1484,-33.5693,-15.9912,153,0.8724,0.7714,17.1537,-42.4466,29,0.9795,8789,4.0062,-131.0899
rg,1624800852584191359,1,-0.0181,-0.1145,0.0625,268,126.1597,45.5933,6.3477,153,0.8894,0.8014,18.3697,-38.4917,29,0.9805,8714,4.0062,-132.3709
rg,1624800852584220915,1,-0.1741,-0.0776,0.186,269,51.3916,83.4961,22.3999,153,0.8874,0.8184,22.9788,-40.0769,29,0.9825,8059,4.0062,-133.8066
rg,1624800852584285545,1,-0.2388,-0.3992,0.3354,270,-140.625,54.9927,31.189,153,0.8284,0.8264,25.4839,-46.3293,29,0.9865,8518,4.0062,-134.6195
rg,1624800852584333119,1,-0.0637,-1.127,0.6489,271,-315.3076,-120.4834,-2.5024,153,0.7524,0.7954,21.6317,-57.7999,29,0.9795,9205,4.0062,-130.7148
rg,1624800852584365396,1,0.1841,-1.6812,0.3999,272,-306.4575,-200.1343,-11.0474,153,0.7113,0.6723,16.642,-68.3281,29,0.9645,8998,4.0062,-123.6031
rg,1624800852584394989,1,0.4224,-1.7219,0.2061,273,-131.5308,-136.9629,57.1289,153,0.7053,0.5993,15.8255,-72.3898,29,0.9515,8593,4.0062,-117.5689
rg,1624800852584424100,1,0.7092,-1.4414,0.562,274,50.293,-6.0425,103.9429,153,0.7053,0.5843,18.1937,-69.751,29,0.9455,8704,4.0062,-115.9314
rg,1624800852584452082,1,0.7632,-1.3328,0.3145,275,73.3643,21.2402,119.0796,153,0.7083,0.5713,21.1607,-66.745,29,0.9405,8671,4.0062,-115.0468
rg,1624800852584478711,1,0.7026,-1.1758,0.1743,276,62.6831,68.4814,42.1753,153,0.7093,0.5543,22.0348,-65.5027,29,0.9375,8729,4.0062,-117.2342
rg,1624800852584506878,1,0.1055,-0.873,0.106,277,116.6382,135.6812,-61.7065,153,0.7093,0.5523,21.0441,-63.9325,29,0.9365,8693,4.0062,-123.9274
rg,1624800852584534600,1,-0.2847,-0.457,0.0059,278,187.9272,159.5459,-86.3647,153,0.7113,0.5583,21.4663,-60.1364,29,0.9375,8758,4.0062,-131.9896
rg,1624800852584562859,1,-0.5444,-0.1399,-0.0149,279,186.0962,173.9502,-42.8467,153,0.7143,0.5603,25.5354,-56.0072,29,0.9385,8704,4.0062,-139.4547
rg,1624800852584590008,1,-0.6196,-0.053,-0.0515,280,149.4751,159.3628,-3.3569,153,0.7184,0.5653,31.0807,-53.0417,29,0.9415,8867,4.0062,-145.4572
rg,1624800852584617248,1,-0.6328,-0.2739,0.0874,281,-42.2363,69.8242,54.9316,153,0.7254,0.5803,35.7656,-55.7542,29,0.9475,8824,4.0062,-146.8821
rg,1624800852584644674,1,-0.5312,-1.0527,0.834,282,-188.2324,-94.2993,46.875,153,0.7354,0.6073,34.8169,-60.0758,29,0.9555,8873,4.0062,-141.6047
rg,1624800852584670933,1,0.0315,-1.9978,1.4448,283,-134.6436,-182.6172,37.9639,153,0.7594,0.6413,31.2398,-60.5308,29,0.9665,9211,4.0062,-132.967
rg,1624800852584698674,1,0.1792,-1.9692,0.4609,284,125.9155,-124.6948,58.2275,153,0.7994,0.6883,29.1976,-53.0934,29,0.9755,9054,4.0062,-127.138
rg,1624800852584724989,1,0.4006,-1.2786,0.324,285,203.4302,-104.248,32.4707,153,0.8364,0.7334,25.9162,-43.9146,29,0.9805,8885,4.0062,-123.2498
rg,1624800852584776674,1,0.2725,-0.8796,0.2698,286,206.7261,-72.8149,-5.7983,153,0.8674,0.7734,22.8049,-37.1242,29,0.9815,9006,4.0062,-123.4461
rg,1624800852584808600,1,0.0486,-0.3328,0.1338,287,167.1753,-4.7607,-14.8926,153,0.8854,0.8104,21.3015,-31.8764,29,0.9845,8913,4.0062,-124.3959
rg,1624800852584836267,1,-0.072,-0.0383,0.1724,288,32.0435,77.1484,18.5547,153,0.8844,0.8334,24.3828,-30.2386,29,0.9865,9004,4.0062,-125.1588
rg,1624800852944510322,1,0.0278,-1.5125,0.4919,289,-326.8433,-162.2925,-23.5596,153,0.7314,0.7574,17.9191,-43.5942,29,0.9725,24470,4.0084,-122.3754
rg,1624800852944552637,1,0.1777,-1.8142,0.4963,290,-295.2271,-174.6826,-6.1646,169,0.7033,0.6573,12.2899,-55.1277,29,0.9545,8747,4.0084,-117.3576
rg,1624800852944572674,1,0.4014,-1.7317,0.3433,291,-103.2104,-96.6797,55.481,169,0.7043,0.5983,11.1301,-59.1881,29,0.9475,8666,4.0084,-112.9765
rg,1624800852944591841,1,0.5059,-1.3306,0.4106,292,77.3315,15.564,82.0312,169,0.7043,0.5883,13.0693,-56.3487,29,0.9395,8053,4.0084,-111.8659
rg,1624800852944610600,1,0.6338,-1.1265,0.3264,293,59.2041,29.4189,69.6411,169,0.7083,0.5683,14.5403,-54.4501,29,0.9375,8257,4.0084,-111.4114
rg,1624800852944629155,1,0.4531,-1.0823,0.209,294,70.0073,66.4673,10.6201,169,0.7083,0.5593,15.1282,-53.0589,29,0.9355,8021,4.0084,-113.622
rg,1624800852944647155,1,-0.0515,-0.8259,0.0432,295,133.7891,91.6748,-74.3408,169,0.7093,0.5613,14.7078,-50.2812,29,0.9355,8252,4.0084,-118.8534
rg,1624800852944666100,1,-0.4321,-0.2471,0.0488,296,181.0913,120.4834,-66.4673,169,0.7113,0.5613,17.6035,-45.1573,29,0.9375,13708,4.0084,-124.4798
rg,1624800852944684507,1,-0.5349,-0.0339,0.0327,297,120.3003,97.8394,9.4604,169,0.7163,0.5573,22.7818,-41.2125,29,0.9415,8701,4.0084,-126.9616
rg,1624800852944702452,1,-0.4509,-0.2476,0.1138,298,-59.7534,8.606,57.6172,169,0.7224,0.5733,25.9494,-43.4571,29,0.9465,8482,4.0084,-125.5805
rg,1624800852944720007,1,-0.4133,-0.5889,0.2759,299,-139.5264,-50.8423,53.894,169,0.7304,0.5903,26.3832,-48.3383,29,0.9535,8426,4.0084,-122.6376
rg,1624800852944737359,1,0.0894,-1.6829,1.8425,300,-232.8491,-144.165,52.063,169,0.7434,0.6183,23.3911,-54.6379,29,0.9635,8274,4.0084,-116.0675
rg,1624800852944754933,1,0.095,-2.0852,0.7283,301,-10.6201,-78.186,36.8652,169,0.7784,0.6623,21.8197,-54.3028,29,0.9725,9903,4.0084,-112.6535
rg,1624800852944772470,1,0.2744,-1.6074,0.2207,302,172.6685,-101.0132,35.5835,169,0.8134,0.7133,19.3176,-47.0407,29,0.9795,8741,4.0084,-108.8437
rg,1624800852944808507,1,0.1853,-0.7764,0.321,303,190.7959,-48.2178,-5.7373,169,0.8424,0.7504,16.6406,-39.8906,29,0.9855,8628,4.0084,-107.9686
rg,1624800852944828989,1,0.0449,-0.2969,0.1409,304,144.5923,0.5493,3.9673,169,0.8614,0.7924,15.8843,-35.0739,29,0.9875,12189,4.0084,-108.1723
rg,1624800852944847785,1,-0.0684,-0.1687,0.147,305,-10.8032,43.2739,17.5171,169,0.8524,0.8104,17.7473,-36.1725,29,0.9895,8578,4.0084,-108.7826
rg,1624800852944865544,1,-0.0967,-0.7554,0.5432,306,-205.8105,-29.541,1.8921,169,0.7944,0.8134,16.4589,-44.8323,29,0.9865,8816,4.0084,-108.1081
rg,1624800852944883674,1,0.0691,-1.4058,0.4756,307,-297.7905,-122.3755,-15.5029,169,0.7364,0.7344,12.2343,-56.8334,29,0.9725,10044,4.0084,-104.8308
rg,1624800852944901970,1,0.2388,-1.8252,0.4478,308,-206.604,-117.3096,21.6064,169,0.7073,0.6413,9.9835,-64.9103,29,0.9535,9790,4.0084,-100.3461
rg,1624800852944919859,1,0.3462,-1.7546,0.344,309,-103.4546,-92.1631,55.4199,169,0.7083,0.5913,9.3963,-68.3558,29,0.9475,8774,4.0084,-96.0054
rg,1624800852944956470,1,0.5239,-1.3486,0.4624,310,78.3081,2.8076,81.604,169,0.7083,0.5863,11.311,-65.1079,29,0.9395,9048,4.0084,-94.8605
rg,1624800852944982674,1,0.6611,-1.1179,0.3218,311,78.064,13.3667,69.397,169,0.7093,0.5723,12.5456,-62.1392,29,0.9355,8875,4.0084,-94.2015
rg,1624800852945006044,1,0.1885,-0.9021,0.0598,312,121.7651,79.895,-49.1943,169,0.7103,0.5663,11.501,-59.0009,29,0.9325,9185,4.0084,-98.2602
rg,1624800852945033063,1,-0.1841,-0.5159,-0.001,313,160.3394,106.8726,-89.5386,169,0.7103,0.5663,11.209,-54.8337,29,0.9325,9223,4.0084,-104.1044
rg,1624800852945051507,1,-0.4492,-0.187,0.0452,314,169.4336,146.8506,-62.439,169,0.7113,0.5673,14.6788,-49.8125,29,0.9345,9061,4.0084,-110.4023
rg,1624800852945076415,1,-0.5779,-0.0227,0.0017,315,90.21,121.3989,18.3105,169,0.7174,0.5673,20.5865,-47.2471,29,0.9385,9421,4.0084,-113.6728
rg,1624800852945107767,1,-0.5256,-0.4033,0.1372,316,-0.7935,69.0918,49.4385,169,0.7234,0.5853,23.4684,-51.0538,29,0.9455,9283,4.0084,-112.3533
rg,1624800852945135730,1,-0.4683,-0.7532,0.3997,317,-168.6401,-80.2612,50.1709,169,0.7284,0.5923,23.4169,-56.5472,29,0.9525,8332,4.0084,-108.4147
rg,1624800852945154174,1,0.155,-1.8687,1.8718,318,-222.229,-193.0542,47.4243,169,0.7424,0.6083,20.141,-61.8619,29,0.9615,8370,4.0084,-100.0031
rg,1624800852945172211,1,0.1826,-2.0195,0.583,319,31.0669,-123.23,42.4805,169,0.7694,0.6403,18.2649,-59.3107,29,0.9705,8625,4.0084,-94.7657
rg,1624800852945201952,1,0.4578,-1.4473,0.291,320,131.8359,-117.5537,58.2275,169,0.8024,0.6793,15.9822,-51.5688,29,0.9785,8452,4.0084,-90.3208
rg,1624800853335992822,1,0.0837,-0.3384,0.113,321,129.1504,18.6157,5.127,169,0.8534,0.7544,15.5525,-47.322,29,0.9895,26324,4.0084,-91.0305
rg,1624800853336039433,1,-0.0093,-0.2646,0.2019,322,-17.9443,73.2422,33.5693,169,0.8294,0.7714,17.9482,-48.6304,29,0.9905,8796,4.0084,-92.4239
rg,1624800853336060970,1,-0.0559,-0.8379,0.6851,323,-211.3037,19.3481,10.8032,169,0.7704,0.7714,18.1656,-57.231,29,0.9865,8560,4.0084,-92.7789
rg,1624800853336081692,1,-0.0398,-1.4597,0.4995,324,-267.7612,-35.4614,-10.0708,169,0.7304,0.7133,15.488,-68.1645,29,0.9715,7982,4.0084,-90.4471
rg,1624800853336100544,1,-0.0212,-1.7712,0.5906,325,-240.6616,-88.501,-3.418,169,0.7103,0.6423,13.7317,-76.9979,29,0.9565,8331,4.0084,-86.9969
rg,1624800853336120452,1,0.3174,-1.6848,0.5137,326,-54.8096,-92.7734,64.8193,169,0.7113,0.5963,14.5385,-77.9435,29,0.9545,8109,4.0084,-82.6424
rg,1624800853336141229,1,0.5281,-1.3098,0.3496,327,76.1719,-32.6538,85.5103,169,0.7113,0.5723,16.0373,-74.1669,29,0.9455,10845,4.0084,-80.4974
rg,1624800853336160655,1,0.6013,-1.106,0.3542,328,74.5239,5.0049,51.2085,169,0.7123,0.5613,16.4838,-70.9972,29,0.9425,7923,4.0084,-80.0919
rg,1624800853336180155,1,0.085,-0.9614,0.1755,329,118.042,63.9038,-45.3491,169,0.7133,0.5603,14.8653,-67.4832,29,0.9415,8019,4.0084,-83.3627
rg,1624800853336200266,1,-0.2268,-0.5457,-0.009,330,160.1562,80.3223,-79.0405,169,0.7133,0.5593,13.6865,-63.0189,29,0.9415,7812,4.0084,-87.9316
rg,1624800853336220637,1,-0.3103,-0.3103,0.0149,331,179.9316,85.6323,-77.6367,169,0.7143,0.5483,13.8915,-57.6064,29,0.9425,8156,4.0084,-92.6635
rg,1624800853336239822,1,-0.4211,0.0378,0.0344,332,175.7812,91.5527,-27.0386,169,0.7163,0.5403,17.3157,-51.2969,29,0.9435,7940,4.0084,-96.2053
rg,1624800853336257692,1,-0.4207,0.1118,0.0063,333,5.3711,59.6924,49.8047,169,0.7194,0.5503,22.5689,-50.8772,29,0.9455,8410,4.0084,-96.7202
rg,1624800853336276803,1,-0.4077,-0.1711,0.0334,334,-104.7974,18.8599,63.0493,169,0.7244,0.5643,24.1297,-58.0489,29,0.9485,8350,4.0084,-94.162
rg,1624800853336296692,1,-0.2639,-0.9556,0.7212,335,-264.4043,-99.4873,56.1523,169,0.7324,0.5783,23.8251,-66.3183,29,0.9545,8580,4.0084,-89.0539
rg,1624800853336315063,1,0.2976,-2.3291,1.6555,336,-203.5522,-112.4878,35.9497,169,0.7414,0.5993,22.4768,-71.8774,29,0.9635,8459,4.0084,-83.6715
rg,1624800853336333414,1,0.1404,-1.8862,0.3062,337,65.8569,-85.3271,33.7524,169,0.7614,0.6313,21.5786,-68.1291,29,0.9725,8472,4.0084,-79.8928
rg,1624800853336390155,1,0.2952,-1.5286,0.3679,338,123.5352,-73.3032,40.6494,169,0.7894,0.6633,20.4128,-61.8116,29,0.9795,8280,4.0084,-76.3528
rg,1624800853336416322,1,0.3093,-0.876,0.5061,339,164.4287,-33.4473,5.4932,169,0.8174,0.6903,18.5239,-54.7567,29,0.9855,8550,4.0084,-75.0879
rg,1624800853336435489,1,0.0942,-0.4446,0.1475,340,129.8218,-1.2207,-1.6479,169,0.8374,0.7153,17.3474,-50.2611,29,0.9885,8003,4.0084,-75.3516
rg,1624800853336453044,1,0.0452,-0.3767,0.0364,341,85.6323,24.7192,6.5918,169,0.8444,0.7434,17.7794,-50.7346,29,0.9915,8221,4.0084,-76.2946
rg,1624800853336471174,1,0.0757,-0.5454,0.3518,342,-65.0024,27.3438,17.9443,169,0.8314,0.7574,18.0719,-53.7128,29,0.9925,8095,4.0084,-76.7996
rg,1624800853336489692,1,-0.0017,-1.0271,0.5796,343,-183.0444,-9.1553,-6.5308,169,0.7744,0.7604,16.9563,-61.2163,29,0.9875,9939,4.0084,-76.6604
rg,1624800853336507952,1,0.0066,-1.4399,0.373,344,-218.3838,-75.6226,-21.7896,169,0.7354,0.6913,14.2701,-69.8141,29,0.9735,8217,4.0084,-74.2957
rg,1624800853336540155,1,0.0518,-1.5396,0.3289,345,-106.6284,-79.9561,17.7612,169,0.7153,0.6213,13.319,-73.5729,29,0.9545,8357,4.0084,-71.0003
rg,1624800853336563359,1,0.218,-1.3589,0.2598,346,-42.5415,-87.2192,51.5747,169,0.7133,0.5783,13.4923,-74.5463,29,0.9465,8253,4.0084,-67.0182
rg,1624800853336582581,1,0.4885,-1.2268,0.4968,347,57.4951,-37.9639,73.1812,169,0.7123,0.5763,14.5833,-71.4138,29,0.9385,8453,4.0084,-64.6242
rg,1624800853336601711,1,0.6262,-1.1821,0.2378,348,52.124,-5.6152,73.2422,169,0.7143,0.5573,15.7434,-69.2659,29,0.9335,8271,4.0084,-63.4909
rg,1624800853336620581,1,0.1406,-1.0205,0.1934,349,98.5718,75.6836,-22.2168,169,0.7143,0.5533,15.1507,-66.5975,29,0.9285,13067,4.0084,-66.8791
rg,1624800853336639285,1,-0.208,-0.4861,0.0435,350,158.6914,93.2007,-58.1055,169,0.7143,0.5513,15.0021,-62.1065,29,0.9265,9120,4.0084,-71.5534
rg,1624800853336657470,1,-0.3506,-0.0635,0.0532,351,179.2603,104.7363,-37.6587,169,0.7163,0.5483,17.8372,-56.0982,29,0.9265,8920,4.0084,-75.9524
rg,1624800853336676248,1,-0.4011,0.1235,0.0215,352,71.0449,88.9893,24.292,169,0.7194,0.5503,22.8627,-53.6108,29,0.9275,9842,4.0084,-78.2552
rg,1624800853612643859,1,-0.2461,-1.783,1.9822,353,-275.3906,-112.6099,35.0952,169,0.7354,0.5913,19.0989,-59.0208,29,0.9435,24222,4.0084,-72.3129
rg,1624800853612682488,1,-0.0383,-1.9795,0.3787,354,-35.6445,-152.2827,2.9297,169,0.7484,0.6173,15.4532,-59.5905,29,0.9545,8598,4.0084,-67.025
rg,1624800853612702637,1,0.2917,-1.4729,0.4216,355,85.8154,-79.3457,51.5747,169,0.7704,0.6433,14.5279,-55.723,29,0.9625,7814,4.0084,-63.2969
rg,1624800853612724692,1,0.4272,-1.0173,0.5908,356,113.8306,-54.8096,48.7671,169,0.7984,0.6793,13.0086,-50.1124,29,0.9705,7943,4.0084,-61.3859
rg,1624800853612745062,1,0.2546,-0.8281,0.2925,357,135.9863,-43.7012,-6.7139,169,0.8234,0.7113,10.5724,-45.2346,29,0.9755,7786,4.0084,-60.4718
rg,1624800853612763007,1,0.0457,-0.6067,-0.0059,358,90.8203,-19.4702,-19.2871,169,0.8424,0.7404,9.0242,-43.24,29,0.9795,7912,4.0084,-60.7887
rg,1624800853612779859,1,0.0188,-0.5576,0.0625,359,56.0913,8.3618,-6.7749,169,0.8544,0.7694,9.4858,-43.419,29,0.9825,7961,4.0084,-61.3959
rg,1624800853612796562,1,-0.0181,-0.6973,0.4666,360,-23.5596,19.104,12.4512,169,0.8474,0.7824,10.0579,-44.8881,29,0.9845,8045,4.0084,-61.6552
rg,1624800853612813099,1,-0.0991,-0.9558,0.4246,361,-125.4883,-47.4854,-0.3662,169,0.7964,0.7834,8.6117,-50.4777,29,0.9825,7894,4.0084,-60.3764
rg,1624800853612830618,1,0.019,-1.0894,0.4446,362,-176.8799,-94.2383,-6.7139,169,0.7364,0.6973,5.0355,-58.9129,29,0.9665,8115,4.0084,-56.9623
rg,1624800853612847433,1,0.176,-1.5244,0.4214,363,-114.0747,-87.8906,17.0288,169,0.7143,0.6133,3.5185,-63.797,29,0.9495,10477,4.0084,-53.5774
rg,1624800853612884803,1,0.4714,-1.2632,0.4077,364,-7.1411,-65.6128,80.2002,169,0.7143,0.5763,4.3644,-64.1207,29,0.9465,7977,4.0084,-49.8274
rg,1624800853612905174,1,0.489,-1.1135,0.3071,365,39.7949,-31.6772,80.2002,169,0.7143,0.5663,5.9617,-61.1054,29,0.9425,8027,4.0084,-48.3835
rg,1624800853612923618,1,0.5508,-1.0706,0.2188,366,82.2754,-13.4277,66.3452,169,0.7153,0.5613,6.763,-58.2207,29,0.9395,7994,4.0084,-46.6721
rg,1624800853612941118,1,0.2495,-0.9036,0.2368,367,87.8906,46.0205,-25.1465,169,0.7153,0.5523,6.0917,-55.5877,29,0.9355,8330,4.0084,-48.8735
rg,1624800853612958211,1,-0.1465,-0.5474,0.1165,368,131.958,83.1909,-61.7065,169,0.7143,0.5523,6.426,-51.607,29,0.9355,9373,4.0084,-53.1118
rg,1624800853612975674,1,-0.3323,-0.2346,0.1477,369,135.9253,98.0835,-57.4951,169,0.7174,0.5523,9.6714,-47.4205,29,0.9365,8400,4.0084,-57.6127
rg,1624800853613009748,1,-0.4058,-0.1394,0.1602,370,100.5249,115.0513,-16.8457,169,0.7194,0.5423,14.1813,-44.0683,29,0.9385,8178,4.0084,-61.3828
rg,1624800853613027766,1,-0.4121,-0.2407,0.2224,371,-16.9067,39.917,31.3721,169,0.7254,0.5523,17.5647,-44.8814,29,0.9425,10506,4.0084,-61.6452
rg,1624800853613044970,1,-0.3198,-0.9175,0.7812,372,-152.71,-78.125,31.4331,169,0.7324,0.5713,16.2859,-50.1852,29,0.9495,8465,4.0084,-58.3986
rg,1624800853613062507,1,0.1062,-1.9155,1.2939,373,-121.9482,-138.3057,21.3623,169,0.7404,0.5893,12.851,-53.9978,29,0.9575,8767,4.0084,-53.3873
rg,1624800853613079507,1,0.1411,-1.709,0.5037,374,50.6592,-64.1479,43.8232,169,0.7624,0.6223,12.0674,-52.0559,29,0.9665,8786,4.0084,-50.393
rg,1624800853613097285,1,0.4058,-1.282,0.6084,375,100.8301,-52.2461,56.3965,169,0.7954,0.6513,10.8991,-46.6569,29,0.9755,8390,4.0084,-47.769
rg,1624800853613115285,1,0.3191,-1.0317,0.4536,376,158.9966,-53.1616,12.6953,169,0.8244,0.6793,8.7342,-40.7432,29,0.9815,8280,4.0084,-46.0997
rg,1624800853613147988,1,0.0959,-0.5757,0.0464,377,151.9775,-35.6445,-6.897,169,0.8474,0.7103,6.8526,-36.176,29,0.9835,8415,4.0084,-45.6884
rg,1624800853613167099,1,0.0291,-0.3904,0.0737,378,66.5894,31.9214,17.2119,169,0.8604,0.7384,7.9254,-35.0969,29,0.9865,8354,4.0084,-46.0683
rg,1624800853613208137,1,0.0364,-0.4155,0.3521,379,-0.2441,42.7856,26.001,169,0.8544,0.7534,9.1874,-38.413,29,0.9875,8827,4.0084,-46.1741
rg,1624800853613234785,1,-0.0879,-0.8091,0.5916,380,-139.9536,-5.4932,10.1318,169,0.8004,0.7604,9.1325,-44.5161,29,0.9865,8498,4.0084,-45.8081
rg,1624800853613254951,1,0.0896,-1.269,0.4548,381,-232.7271,-103.0273,-6.7749,169,0.7504,0.7354,5.7945,-54.3821,29,0.9755,8637,4.0084,-42.9503
rg,1624800853613277025,1,0.2444,-1.6753,0.4229,382,-170.166,-98.1445,11.5356,169,0.7204,0.6523,3.5935,-61.6782,29,0.9625,8788,4.0084,-39.4186
rg,1624800853613297229,1,0.3533,-1.4319,0.1956,383,-35.2173,-44.8608,63.9038,169,0.7103,0.5893,4.3738,-63.6506,29,0.9485,8716,4.0084,-36.688
rg,1624800853613315396,1,0.4285,-1.0991,0.5847,384,66.9556,11.9629,59.021,169,0.7113,0.5683,5.7789,-60.8437,29,0.9465,9102,4.0084,-36.0359
rg,1624800853970535451,1,0.1013,-1.1438,0.2534,385,77.6978,54.9316,-30.0903,169,0.7143,0.5363,5.849,-58.6644,29,0.9395,25256,4.0084,-38.62
rg,1624800853970593414,1,-0.2622,-0.4736,0.0642,386,177.6733,65.7349,-51.0864,169,0.7153,0.5333,6.5362,-52.7265,29,0.9395,11580,4.0084,-41.9881
rg,1624800853970615025,1,-0.3376,-0.0454,0.1179,387,180.7861,65.979,-22.3999,169,0.7184,0.5303,9.5982,-45.4452,29,0.9415,8745,4.0084,-44.4057
rg,1624800853970634488,1,-0.3181,0.0986,0.0842,388,149.5972,54.0771,8.1177,169,0.7224,0.5263,13.7014,-41.5544,29,0.9435,7826,4.0084,-43.7923
rg,1624800853970652692,1,-0.2649,-0.0398,0.1375,389,-28.4424,1.77,62.561,169,0.7294,0.5423,17.1197,-41.6998,29,0.9475,7702,4.0084,-41.7879
rg,1624800853970670859,1,-0.1255,-0.7661,0.5864,390,-192.5659,-73.3643,62.9272,169,0.7364,0.5583,16.4686,-48.6389,29,0.9545,7879,4.0084,-37.8748
rg,1624800853970689081,1,0.2251,-1.4187,1.5383,391,-237.1216,-84.5947,62.3169,169,0.7494,0.5783,16.5531,-55.723,29,0.9625,7654,4.0084,-35.2317
rg,1624800853970706821,1,0.1287,-1.9702,0.4543,392,-70.9839,2.7466,45.3491,169,0.7784,0.6223,16.638,-54.2739,29,0.9745,10299,4.0084,-34.2325
rg,1624800853970724544,1,0.2031,-1.6802,0.3743,393,119.0796,-25.2075,24.8413,169,0.8104,0.6513,15.9658,-50.0345,29,0.9815,8397,4.0084,-33.0673
rg,1624800853970742377,1,0.1897,-0.9868,0.5464,394,153.8696,15.1367,-0.6714,169,0.8354,0.6833,15.3921,-44.4752,29,0.9845,8204,4.0084,-33.7198
rg,1624800853970763692,1,0.0115,-0.5293,0.2598,395,135.1318,32.5317,0.4883,169,0.8554,0.7204,15.7559,-40.1056,29,0.9865,8032,4.0084,-34.8479
rg,1624800853970782562,1,-0.0486,-0.3918,0.2153,396,94.3604,45.105,0.7324,169,0.8664,0.7484,16.8377,-37.5065,29,0.9875,8108,4.0084,-36.2433
rg,1624800853970800414,1,-0.2319,-0.4729,0.3088,397,-22.8271,29.6021,-6.958,169,0.8574,0.7724,17.8299,-39.4357,29,0.9885,8005,4.0084,-37.4592
rg,1624800853970873673,1,-0.239,-0.8691,0.4692,398,-155.3345,-72.2046,-10.9253,169,0.8064,0.7724,15.2939,-45.9971,29,0.9865,7816,4.0084,-36.005
rg,1624800853970896655,1,-0.0854,-1.0327,0.4805,399,-202.7588,-126.6479,-7.9956,169,0.7544,0.7414,11.1258,-54.1115,29,0.9775,8059,4.0084,-32.4222
rg,1624800853970915840,1,0.249,-1.4524,0.4475,400,-213.3789,-180.1147,2.5635,169,0.7224,0.6543,6.6864,-62.3621,29,0.9645,7959,4.0084,-26.272
rg,1624800853970936062,1,0.4243,-1.5432,0.2444,401,-92.5293,-116.2109,43.335,169,0.7073,0.5843,5.4096,-66.2065,29,0.9485,8150,4.0084,-21.3647
rg,1624800853970958359,1,0.5471,-1.3582,0.2532,402,-39.5508,-83.0688,71.167,145,0.7093,0.5453,5.4621,-67.2196,29,0.9465,7940,4.0172,-17.1514
rg,1624800853970977784,1,0.5635,-1.2043,0.5217,403,74.7681,28.8696,73.3032,145,0.7093,0.5383,7.5068,-64.1836,29,0.9425,8773,4.0172,-17.0354
rg,1624800853970998636,1,0.5588,-1.1199,0.2708,404,76.1719,29.4189,47.9126,145,0.7123,0.5313,8.4982,-61.5965,29,0.9415,8489,4.0172,-17.3063
rg,1624800853971041747,1,0.0862,-0.958,0.2136,405,117.981,74.707,-45.4712,145,0.7123,0.5303,7.9033,-58.0051,29,0.9415,8497,4.0172,-20.9455
rg,1624800853971065266,1,-0.0837,-0.7009,0.0942,406,146.7896,85.6934,-60.1807,145,0.7113,0.5263,8.7555,-52.5888,29,0.9405,8827,4.0172,-25.7455
rg,1624800853971097562,1,-0.2524,-0.175,0.1082,407,181.2134,114.624,-52.6123,145,0.7123,0.5273,11.6307,-46.361,29,0.9425,8477,4.0172,-30.5988
rg,1624800853971120099,1,-0.373,0.1423,0.1147,408,140.625,138.1836,-1.1597,145,0.7153,0.5253,17.5772,-40.7083,29,0.9425,8368,4.0172,-34.2498
rg,1624800853971139933,1,-0.4136,0.0032,0.0886,409,-60.0586,97.5952,53.3447,145,0.7194,0.5343,23.8862,-43.1506,29,0.9445,8657,4.0172,-35.2871
rg,1624800853971160803,1,-0.457,-0.8062,0.5713,410,-161.1328,47.6074,52.2461,145,0.7274,0.5523,24.6626,-52.3193,29,0.9495,8505,4.0172,-33.3865
rg,1624800853971180692,1,-0.3271,-1.5825,1.7383,411,-292.2974,-91.7969,40.7104,145,0.7344,0.5683,23.4257,-61.7329,29,0.9565,8501,4.0172,-28.8212
rg,1624800853971202414,1,-0.0378,-2.0752,0.6294,412,-81.604,-152.0386,11.7188,145,0.7474,0.5873,20.1944,-63.1935,29,0.9655,8246,4.0172,-22.9571
rg,1624800853971222747,1,0.2844,-1.5601,0.4583,413,70.1294,-94.9097,63.2935,145,0.7694,0.6213,19.4712,-59.1817,29,0.9745,8679,4.0172,-18.317
rg,1624800853971245951,1,0.4424,-1.2805,0.5859,414,101.6846,-75.1953,60.9741,145,0.7954,0.6463,17.5273,-53.229,29,0.9815,8294,4.0172,-15.2414
rg,1624800853971267840,1,0.3413,-0.8672,0.3542,415,135.6201,-67.8101,-1.8921,145,0.8224,0.6793,14.4044,-47.7998,29,0.9875,8550,4.0172,-13.3481
rg,1624800853971288599,1,0.1284,-0.5999,0.0349,416,89.5996,-35.0342,-21.1792,145,0.8394,0.7093,11.9496,-45.5491,29,0.9895,8372,4.0172,-13.271
rg,1624800854322496562,1,-0.0049,-0.7183,0.4219,417,-104.5532,26.001,22.522,145,0.7804,0.7444,13.023,-50.387,29,0.9895,24509,4.0172,-13.5683
rg,1624800854322529673,1,-0.1091,-1.0552,0.4121,418,-194.2139,-49.8047,-4.7607,145,0.7264,0.6543,10.7806,-58.6893,29,0.9665,9042,4.0172,-10.8208
rg,1624800854322568840,1,0.2319,-1.5503,0.5383,419,-116.7603,-76.355,62.6831,145,0.7123,0.5843,10.7639,-63.0655,29,0.9525,10543,4.0172,-6.9318
rg,1624800854322588877,1,0.5137,-1.3252,0.5579,420,17.0898,-39.7949,92.2852,145,0.7133,0.5623,12.1531,-61.8972,29,0.9505,7674,4.0172,-3.8022
rg,1624800854322607506,1,0.5093,-1.2034,0.2307,421,61.7676,-5.0049,91.1865,145,0.7143,0.5553,13.9601,-59.6105,29,0.9445,7878,4.0172,-1.9665
rg,1624800854322624914,1,0.5549,-0.9336,0.3298,422,62.8662,32.4097,47.3022,145,0.7143,0.5453,14.6945,-57.5174,29,0.9405,7733,4.0172,-2.2223
rg,1624800854322641581,1,0.0959,-0.6082,0.1721,423,70.4956,78.186,-2.2583,145,0.7153,0.5363,14.8262,-56.0352,29,0.9365,7874,4.0172,-6.803
rg,1624800854322658414,1,-0.0691,-0.4326,0.0916,424,91.5527,117.3096,-54.5044,145,0.7143,0.5303,16.7901,-54.5571,29,0.9355,9711,4.0172,-13.2069
rg,1624800854322675877,1,-0.3477,-0.2014,0.0857,425,89.7827,169.1284,-52.7954,145,0.7163,0.5313,20.52,-53.507,29,0.9355,8538,4.0172,-20.3484
rg,1624800854322693395,1,-0.5669,-0.1729,0.0984,426,7.8125,165.1001,12.8784,145,0.7204,0.5333,26.4768,-55.5078,29,0.9375,8051,4.0172,-25.9525
rg,1624800854322711284,1,-0.5894,-0.7549,0.4692,427,-133.606,30.3345,39.1846,145,0.7254,0.5553,28.707,-61.0336,29,0.9405,8713,4.0172,-26.2461
rg,1624800854322728451,1,-0.5754,-1.4375,1.2407,428,-170.105,-72.2656,25.5737,145,0.7334,0.5703,25.076,-62.9508,29,0.9475,8490,4.0172,-19.1057
rg,1624800854322745321,1,-0.0952,-1.7578,0.6494,429,-56.2134,-203.064,5.3101,145,0.7444,0.5883,20.7181,-62.3792,29,0.9575,8372,4.0172,-11.2924
rg,1624800854322762044,1,0.2595,-1.4829,0.561,430,40.8325,-125.7935,68.6035,145,0.7634,0.6183,19.5299,-58.9258,29,0.9665,8364,4.0172,-5.3284
rg,1624800854322778932,1,0.4775,-1.1882,0.4026,431,114.1357,-60.4248,66.04,145,0.7904,0.6533,18.9453,-53.6513,29,0.9745,8402,4.0172,-1.8841
rg,1624800854322796099,1,0.3901,-1.0215,0.2344,432,131.5308,-50.415,19.8364,145,0.8144,0.6903,16.9343,-48.6351,29,0.9805,8307,4.0172,-0.0651
rg,1624800854322812581,1,0.1003,-0.6838,0.0774,433,112.1216,-24.1699,-28.6865,145,0.8304,0.7214,14.5993,-45.5176,29,0.9845,8520,4.0172,-0.5534
rg,1624800854322829229,1,-0.05,-0.5,0.1917,434,47.7295,47.3022,5.4321,145,0.8284,0.7454,15.7581,-44.8621,29,0.9875,10343,4.0172,-2.0274
rg,1624800854322846506,1,-0.1511,-0.7505,0.5205,435,-100.3418,29.8462,11.5356,145,0.7904,0.7524,16.6523,-49.4346,29,0.9855,8248,4.0172,-2.7173
rg,1624800854322863229,1,-0.2073,-1.2263,0.2981,436,-162.5366,-27.2217,-14.9536,145,0.7484,0.7003,13.1571,-58.0038,29,0.9765,8101,4.0172,-0.9481
rg,1624800854322879969,1,-0.1135,-1.4604,0.4272,437,-205.9326,-137.3291,-33.3862,145,0.7234,0.6333,9.0944,-65.9925,29,0.9605,8259,4.0172,3.2334
rg,1624800854322896469,1,0.437,-1.3977,0.3918,438,12.8784,-101.0132,69.5801,145,0.7163,0.5803,8.9731,-65.0059,29,0.9475,12527,4.0172,8.0597
rg,1624800854322913099,1,0.5464,-1.2393,0.4207,439,79.895,-62.5,82.5806,145,0.7163,0.5783,9.7545,-60.4659,29,0.9405,8604,4.0172,10.7051
rg,1624800854322929951,1,0.6274,-1.0225,0.2671,440,111.9385,-35.5835,52.5513,145,0.7174,0.5713,9.3395,-56.117,29,0.9365,8999,4.0172,12.9029
rg,1624800854322958747,1,0.3103,-0.7573,0.1316,441,117.7368,29.0527,-52.6733,145,0.7174,0.5653,7.1569,-52.595,29,0.9335,8856,4.0172,10.5338
rg,1624800854322977636,1,-0.0745,-0.4731,0.0471,442,134.9487,88.3789,-87.0972,145,0.7184,0.5613,6.7942,-48.9929,29,0.9315,8525,4.0172,5.4193
rg,1624800854322994081,1,-0.2874,-0.1833,0.124,443,122.3755,152.6489,-54.1382,145,0.7204,0.5573,10.9584,-45.1976,29,0.9315,9294,4.0172,-0.5526
rg,1624800854323010840,1,-0.406,-0.0913,0.1721,444,98.3276,171.936,-20.2026,145,0.7254,0.5523,18.0014,-44.1932,29,0.9345,8590,4.0172,-4.8708
rg,1624800854323028062,1,-0.4297,-0.1804,0.2275,445,-29.6021,137.9395,40.8325,145,0.7314,0.5643,24.406,-46.31,29,0.9395,8657,4.0172,-7.83
rg,1624800854323044729,1,-0.4758,-0.7786,0.6841,446,-157.4097,19.4702,29.6021,145,0.7414,0.5793,25.8072,-52.5828,29,0.9475,8688,4.0172,-7.6725
rg,1624800854323060840,1,-0.1145,-1.7244,1.4624,447,-174.7437,-98.6938,22.0947,145,0.7574,0.5963,23.4153,-57.682,29,0.9585,8977,4.0172,-3.4536
rg,1624800854323089488,1,0.0828,-1.8728,0.699,448,2.9907,-71.0449,31.6162,145,0.7794,0.6363,21.979,-56.7672,29,0.9685,8843,4.0172,-0.3271
rg,1624800854685450358,1,0.2761,-0.908,0.3181,449,124.2676,-30.0903,-9.0942,145,0.8474,0.7254,19.7653,-52.1085,29,0.9855,25759,4.0172,0.2243
rg,1624800854685496877,1,0.0042,-0.4834,0.2458,450,38.9404,19.3481,-11.9629,145,0.8434,0.7604,19.0926,-51.3216,29,0.9865,15100,4.0172,-0.8942
rg,1624800854685516858,1,-0.1404,-0.657,0.3696,451,-95.7031,-8.5449,-4.0283,145,0.8024,0.7604,18.4259,-55.4443,29,0.9855,9376,4.0172,-0.8147
rg,1624800854685536043,1,-0.0461,-1.103,0.4209,452,-212.2803,-109.1919,-13.6108,145,0.7574,0.7274,15.1426,-63.3982,29,0.9745,7741,4.0172,2.6889
rg,1624800854685554766,1,0.0623,-1.4067,0.4343,453,-233.3374,-149.292,-10.0708,145,0.7284,0.6553,11.9895,-70.1202,29,0.9595,7747,4.0172,8.6704
rg,1624800854685573914,1,0.2927,-1.656,0.3389,454,-110.1074,-142.6392,26.001,145,0.7113,0.5943,10.3824,-73.682,29,0.9395,8164,4.0172,14.4791
rg,1624800854685591988,1,0.686,-1.3176,0.4956,455,-3.2959,-91.8579,80.8716,145,0.7133,0.5643,11.0807,-72.7994,29,0.9375,8027,4.0172,19.0164
rg,1624800854685610284,1,0.6433,-1.2,0.2925,456,89.9048,4.2725,90.8203,145,0.7133,0.5613,13.1433,-69.1127,29,0.9305,8297,4.0172,19.9779
rg,1624800854685628173,1,0.6377,-1.116,0.2161,457,90.4541,7.9346,73.9746,145,0.7143,0.5513,14.4649,-65.6454,29,0.9275,8052,4.0172,20.7081
rg,1624800854685645840,1,0.229,-0.9795,0.1626,458,108.8867,65.6128,-26.9165,145,0.7153,0.5523,13.606,-62.59,29,0.9255,8337,4.0172,17.6147
rg,1624800854685664395,1,-0.1882,-0.6089,-0.0098,459,143.4326,115.5396,-61.9507,145,0.7153,0.5483,13.8792,-59.1971,29,0.9245,8425,4.0172,11.983
rg,1624800854685681821,1,-0.342,-0.1887,-0.0247,460,178.4058,119.6899,-50.1099,145,0.7163,0.5413,16.5332,-54.152,29,0.9255,10151,4.0172,6.6199
rg,1624800854685698858,1,-0.4116,-0.0217,-0.0024,461,175.7812,113.2812,-31.4941,145,0.7184,0.5353,20.9804,-49.8588,29,0.9285,8390,4.0172,3.5628
rg,1624800854685715395,1,-0.448,0.1338,-0.0486,462,40.8936,48.2788,30.6396,145,0.7234,0.5353,25.4067,-48.2328,29,0.9315,8485,4.0172,2.9771
rg,1624800854685732173,1,-0.3628,-0.3611,0.0652,463,-175.5981,-54.0161,53.1006,145,0.7294,0.5533,26.5529,-54.7176,29,0.9375,8536,4.0172,5.8701
rg,1624800854685751469,1,0.0938,-1.7048,2.0049,464,-304.5654,-162.6587,61.5234,145,0.7384,0.5693,24.3013,-62.9483,29,0.9465,9255,4.0172,13.7699
rg,1624800854685768951,1,0.1177,-2.1836,0.4736,465,-56.0913,-92.5293,25.2075,145,0.7504,0.5923,22.5386,-64.1457,29,0.9565,8231,4.0172,17.6246
rg,1624800854685786303,1,0.1792,-1.9768,0.2131,466,52.7344,-54.9316,44.9219,145,0.7734,0.6263,22.1441,-61.7194,29,0.9655,8156,4.0172,20.2836
rg,1624800854685803321,1,0.4053,-1.2603,0.594,467,134.5825,0.4883,32.0435,145,0.8024,0.6473,21.8425,-56.2305,29,0.9725,8193,4.0172,20.854
rg,1624800854685820247,1,0.1477,-0.7563,0.3633,468,157.5317,16.3574,-16.4795,145,0.8294,0.6753,20.5173,-50.6538,29,0.9775,8194,4.0172,19.683
rg,1624800854685857932,1,-0.0706,-0.4761,0.0237,469,135.0098,29.9683,-19.104,145,0.8514,0.7063,21.0462,-48.7135,29,0.9795,9002,4.0172,17.3321
rg,1624800854685877266,1,-0.1169,-0.4707,0.0833,470,50.9033,53.5278,-0.9766,145,0.8664,0.7384,22.3531,-47.9823,29,0.9815,9092,4.0172,15.3411
rg,1624800854685894451,1,-0.2783,-0.6653,0.3538,471,-56.3354,15.1978,-3.1738,145,0.8574,0.7564,22.5799,-51.001,29,0.9815,8161,4.0172,14.543
rg,1624800854685911080,1,-0.2712,-0.9888,0.3882,472,-153.9307,-87.3413,-11.4746,145,0.8024,0.7554,19.8697,-56.843,29,0.9785,8329,4.0172,17.0301
rg,1624800854685927988,1,0.1206,-1.2546,0.4607,473,-230.6519,-192.5049,0.1831,145,0.7454,0.7274,15.2038,-64.4323,29,0.9645,8869,4.0172,23.9331
rg,1624800854685944543,1,0.2896,-1.4275,0.4424,474,-204.5288,-201.8433,8.5449,145,0.7204,0.6493,11.3618,-71.3264,29,0.9515,8517,4.0172,31.6457
rg,1624800854685961173,1,0.4524,-1.3596,0.1003,475,-60.6689,-121.7651,43.5791,145,0.7113,0.5903,10.4356,-73.2672,29,0.9395,8650,4.0172,36.8153
rg,1624800854685977858,1,0.8069,-1.249,0.6851,476,10.376,-24.4141,96.4355,145,0.7113,0.5753,12.3685,-72.0036,29,0.9365,8927,4.0172,38.9865
rg,1624800854685994673,1,0.6897,-1.2546,0.2561,477,48.1567,48.0347,94.2993,145,0.7123,0.5633,15.0611,-70.4536,29,0.9335,8360,4.0172,38.2764
rg,1624800854686011321,1,0.3127,-1.2349,0.239,478,62.561,106.6895,5.4321,145,0.7133,0.5513,15.6153,-69.3677,29,0.9305,8863,4.0172,34.0934
rg,1624800854686039710,1,0.03,-1.095,0.2493,479,90.3931,130.127,-33.6914,145,0.7143,0.5453,15.5865,-67.5603,29,0.9275,8386,4.0172,28.4596
rg,1624800854686116469,1,-0.2971,-0.5623,0.019,480,160.4004,117.9199,-66.04,145,0.7153,0.5423,15.646,-63.3817,29,0.9275,8768,4.0172,22.704
rg,1624800855178186932,1,-0.3418,-0.0593,0.0972,481,86.2427,49.8657,29.541,145,0.7274,0.5453,19.9003,-63.3994,29,0.9375,24101,4.0172,23.4107
rg,1624800855178230062,1,0.0667,-1.4177,1.4221,482,-232.9102,-110.2905,57.7393,145,0.7354,0.5733,19.5118,-70.1246,29,0.9445,16013,4.0172,28.9805
rg,1624800855178249969,1,0.2983,-2.1462,1.8408,483,-195.1904,-83.8623,45.6543,145,0.7464,0.5853,19.3607,-75.7072,29,0.9555,7659,4.0172,33.2745
rg,1624800855178269395,1,0.0378,-1.8862,0.3433,484,47.6074,-29.1748,30.2124,145,0.7684,0.6203,19.4202,-73.4487,29,0.9645,7930,4.0172,34.7352
rg,1624800855178288821,1,0.2129,-1.2993,0.542,485,144.043,-5.0049,21.2402,145,0.8014,0.6353,19.0834,-67.2863,29,0.9725,7775,4.0172,35.2593
rg,1624800855178307173,1,0.1797,-1.0435,0.5918,486,163.147,3.0518,3.7842,145,0.8334,0.6633,18.221,-60.5182,29,0.9755,7931,4.0172,35.2419
rg,1624800855178324932,1,-0.02,-0.6458,0.1653,487,149.7192,3.7231,-12.0239,145,0.8594,0.6923,17.2789,-55.2854,29,0.9765,8547,4.0172,34.6192
rg,1624800855178342302,1,-0.1284,-0.4802,0.1138,488,73.6084,23.6816,1.0986,145,0.8794,0.7194,17.8004,-53.4127,29,0.9765,7916,4.0172,33.5877
rg,1624800855178360228,1,-0.1714,-0.4604,0.2429,489,26.3062,19.104,3.6011,145,0.8824,0.7434,18.3912,-52.8685,29,0.9765,7844,4.0172,32.9308
rg,1624800855178377043,1,-0.2261,-0.6169,0.3057,490,-92.1021,-45.5322,1.0986,145,0.8324,0.7524,17.3778,-56.4666,29,0.9775,8344,4.0172,34.3906
rg,1624800855178393839,1,0.0845,-1.0354,0.5083,491,-229.4922,-145.6909,-0.2441,145,0.7714,0.7384,13.7039,-64.4914,29,0.9755,7845,4.0172,39.6069
rg,1624800855178410562,1,0.218,-1.2551,0.5164,492,-253.479,-169.8608,-3.6621,145,0.7314,0.7083,10.2028,-73.5698,29,0.9655,8131,4.0172,46.0117
rg,1624800855178427136,1,0.4363,-1.5879,0.2988,493,-140.1367,-138.6719,24.7803,145,0.7113,0.6413,8.8669,-78.4085,29,0.9515,8093,4.0172,51.7032
rg,1624800855178443673,1,0.6221,-1.4553,0.2295,494,-38.269,-21.0571,77.9419,145,0.7093,0.5953,10.5661,-79.7724,29,0.9465,8160,4.0172,53.1285
rg,1624800855178460062,1,0.5149,-1.3242,0.6467,495,58.8989,97.1069,72.5708,145,0.7093,0.5743,13.0352,-77.4901,29,0.9465,8327,4.0172,49.8986
rg,1624800855178490710,1,0.4683,-1.3105,0.4885,496,80.3223,87.3413,78.8574,145,0.7103,0.5693,15.7262,-74.644,29,0.9455,8132,4.0172,47.2088
rg,1624800855178509450,1,0.1902,-1.2622,0.2808,497,109.0698,59.5093,-5.7373,145,0.7103,0.5603,15.2724,-71.0473,29,0.9425,8039,4.0172,44.7174
rg,1624800855178527321,1,-0.2476,-0.7981,-0.0188,498,186.8896,65.7349,-88.562,145,0.7123,0.5453,13.0819,-65.3049,29,0.9435,10462,4.0172,40.6617
rg,1624800855178544710,1,-0.3374,-0.084,0.0527,499,265.1978,65.7959,-87.8296,145,0.7133,0.5373,13.2907,-55.5646,29,0.9445,8183,4.0172,36.7532
rg,1624800855178561858,1,-0.4033,0.1602,0.0735,500,277.0996,90.271,-65.4907,145,0.7153,0.5343,15.5688,-44.8325,29,0.9445,8202,4.0172,32.5689
rg,1624800855178578450,1,-0.5471,0.5073,-0.0371,501,114.9292,93.9941,35.2783,145,0.7184,0.5463,21.1692,-39.6355,29,0.9455,8085,4.0172,31.3842
rg,1624800855178595302,1,-0.4368,-0.0422,-0.1738,502,-164.3066,-13.1836,75.9888,145,0.7244,0.5573,24.9626,-45.8776,29,0.9485,8237,4.0172,33.7936
rg,1624800855178612210,1,-0.3645,-0.438,-0.0422,503,-283.7524,-76.1108,66.9556,145,0.7314,0.5703,23.4054,-59.3957,29,0.9535,8131,4.0172,40.1073
rg,1624800855178628747,1,0.334,-2.5625,3.6685,504,-444.9463,-178.4058,66.2842,145,0.7424,0.5823,22.0511,-72.8334,29,0.9635,8286,4.0172,48.774
rg,1624800855178645580,1,0.0496,-2.4348,0.0552,505,-32.2266,-126.4038,11.4136,145,0.7704,0.6263,20.4378,-68.3179,29,0.9775,8237,4.0172,53.7495
rg,1624800855178662895,1,0.5127,-1.7097,0.4294,506,151.4893,-85.4492,37.8418,145,0.8034,0.6473,19.021,-61.256,29,0.9845,8621,4.0172,57.5194
rg,1624800855178690247,1,0.3853,-0.752,0.4309,507,196.5332,-6.5308,-3.479,145,0.8314,0.6753,17.2217,-53.3616,29,0.9875,8486,4.0172,57.572
rg,1624800855178710691,1,0.0588,-0.2861,-0.0681,508,159.79,42.6025,-19.6533,145,0.8554,0.7043,16.8314,-49.3301,29,0.9895,8555,4.0172,55.1033
rg,1624800855178727710,1,-0.0522,-0.2769,-0.0564,509,87.7075,60.5469,-7.8125,145,0.8664,0.7314,18.6188,-51.6491,29,0.9905,8785,4.0172,52.4502
rg,1624800855178745654,1,-0.1023,-0.5334,0.2275,510,-79.7729,52.7344,8.5449,145,0.8454,0.7494,19.8035,-55.9625,29,0.9905,8477,4.0172,50.6726
rg,1624800855178762450,1,-0.1702,-1.061,0.5125,511,-200.3784,-33.4473,5.0049,145,0.7794,0.7484,18.8571,-63.831,29,0.9885,8797,4.0172,51.9242
rg,1624800855178779376,1,0.0061,-1.4561,0.3176,512,-234.7412,-138.3057,3.6621,145,0.7354,0.7153,16.2181,-72.1021,29,0.9715,8530,4.0172,57.2155
rg,1624800855517535950,1,0.5757,-1.1824,0.3252,513,18.0664,-47.9736,93.2007,145,0.7073,0.5803,17.6266,-70.5356,29,0.9425,23331,4.0172,60.3049
rg,1624800855517572080,1,0.5696,-1.1057,0.5083,514,75.3174,48.4619,97.9614,145,0.7083,0.5743,20.4195,-67.4725,29,0.9375,9404,4.0172,59.876
rg,1624800855517592117,1,0.3972,-1.2505,0.3008,515,57.251,65.8569,46.1426,154,0.7093,0.5653,21.759,-66.2005,29,0.9365,7855,4.0128,57.9042
rg,1624800855517610858,1,0.167,-1.2375,0.2646,516,74.2188,87.2803,-7.3242,154,0.7093,0.5593,21.8232,-65.0444,29,0.9355,7792,4.0128,54.151
rg,1624800855517628395,1,-0.3093,-0.782,0.0588,517,169.7998,103.6377,-81.665,154,0.7103,0.5553,20.8225,-61.0819,29,0.9345,8236,4.0128,48.3155
rg,1624800855517646432,1,-0.4001,-0.1887,0.134,518,204.0405,94.6045,-62.3779,154,0.7113,0.5583,22.1397,-54.555,29,0.9355,7783,4.0128,43.6032
rg,1624800855517684987,1,-0.4287,0.0232,0.1782,519,185.4858,104.6143,-34.6069,154,0.7143,0.5483,25.412,-48.085,29,0.9365,8056,4.0128,39.5329
rg,1624800855517704265,1,-0.4736,0.1108,0.1208,520,33.3252,74.9512,37.9028,154,0.7194,0.5623,30.466,-46.5114,29,0.9415,7795,4.0128,38.5927
rg,1624800855517722098,1,-0.4524,-0.5491,0.2761,521,-158.8745,-28.4424,43.7012,154,0.7244,0.5703,31.3053,-52.2565,29,0.9465,7952,4.0128,40.5988
rg,1624800855517740209,1,-0.4104,-1.0144,0.8157,522,-230.3467,-87.4634,40.0391,154,0.7324,0.5833,30.1348,-59.1091,29,0.9545,7897,4.0128,45.0709
rg,1624800855517757709,1,0.1399,-2.1575,1.4075,523,-186.8896,-138.916,34.3628,154,0.7444,0.5973,27.4502,-63.3799,29,0.9655,7997,4.0128,51.4841
rg,1624800855517775969,1,0.2156,-1.9915,0.3584,524,80.9326,-74.0967,46.3257,154,0.7714,0.6283,26.4491,-59.0903,29,0.9735,8122,4.0128,55.0185
rg,1624800855517811876,1,0.3394,-1.6294,0.322,525,155.3345,-54.9316,49.1943,154,0.8054,0.6473,25.5241,-52.332,29,0.9795,8068,4.0128,57.8073
rg,1624800855517916728,1,0.2554,-0.814,0.2634,526,200.8667,-38.3301,-8.9722,154,0.8364,0.6753,22.8068,-44.7613,29,0.9845,7951,4.0128,58.3536
rg,1624800855518122432,1,0.0254,-0.3193,-0.0005,527,166.0156,-3.9673,-21.3623,154,0.8664,0.7113,21.3547,-40.0943,29,0.9875,11509,4.0128,57.0796
rg,1624800855518148265,1,-0.1626,-0.2578,0.1177,528,-26.1841,56.9458,24.5972,154,0.8654,0.7454,24.0963,-42.366,29,0.9875,13118,4.0128,55.9078
rg,1624800855518167284,1,-0.21,-0.5034,0.3013,529,-117.1875,26.9165,31.4941,154,0.8154,0.7544,25.2551,-47.6277,29,0.9885,8025,4.0128,55.7977
rg,1624800855518186821,1,-0.0771,-1.1045,0.5537,530,-268.0664,-113.0371,5.7983,154,0.7564,0.7404,21.9042,-57.3168,29,0.9795,8184,4.0128,59.6435
rg,1624800855518205821,1,0.2417,-1.6599,0.5139,531,-253.6621,-178.5889,4.5166,154,0.7244,0.6883,17.5908,-65.7409,29,0.9665,8069,4.0128,66.2283
rg,1624800855518223617,1,0.4082,-1.7651,0.4202,532,-155.2734,-143.7988,33.2031,154,0.7123,0.6323,17.2662,-67.1706,29,0.9555,8200,4.0128,70.7886
rg,1624800855518242580,1,0.7197,-1.3186,0.4307,533,12.6953,-50.1709,96.4966,154,0.7113,0.5953,18.4087,-65.7444,29,0.9545,9223,4.0128,74.257
rg,1624800855518261469,1,0.718,-1.0706,0.4363,534,71.7773,48.0957,93.9941,154,0.7123,0.5793,20.8668,-62.9974,29,0.9505,8475,4.0128,74.0573
rg,1624800855518280172,1,0.4841,-1.0908,0.2668,535,46.3257,98.3276,24.9023,154,0.7113,0.5653,21.9587,-62.8509,29,0.9495,8424,4.0128,70.5858
rg,1624800855518297487,1,-0.1323,-1.0593,0.2957,536,76.416,168.9453,-51.2085,154,0.7133,0.5573,22.5966,-63.1307,29,0.9485,8675,4.0128,62.8978
rg,1624800855518315635,1,-0.3584,-0.8555,0.2148,537,115.4785,177.6123,-63.4155,154,0.7143,0.5543,23.5758,-62.2094,29,0.9485,8426,4.0128,54.5892
rg,1624800855518334691,1,-0.5564,-0.4392,0.1077,538,180.0537,148.6206,-47.3633,154,0.7163,0.5603,25.9184,-58.1973,29,0.9485,9238,4.0128,47.777
rg,1624800855518352117,1,-0.5774,-0.1001,0.1709,539,111.8774,93.1396,4.8218,154,0.7204,0.5623,29.7424,-54.8881,29,0.9505,8622,4.0128,44.6095
rg,1624800855518370191,1,-0.5168,-0.3262,0.2666,540,-52.6123,-23.0103,31.25,154,0.7274,0.5743,31.0635,-55.9952,29,0.9555,8824,4.0128,46.3695
rg,1624800855518387598,1,-0.3511,-1.0234,0.741,541,-170.5933,-153.1982,31.311,154,0.7324,0.5913,28.2715,-59.3633,29,0.9615,8957,4.0128,53.167
rg,1624800855518423524,1,-0.042,-1.5366,1.2581,542,-185.6079,-180.4199,33.7524,154,0.7434,0.6053,24.8822,-61.3144,29,0.9715,8795,4.0128,60.3577
rg,1624800855518443246,1,0.2605,-1.9121,0.7144,543,-24.8413,-118.103,29.8462,154,0.7654,0.6333,22.4459,-60.574,29,0.9795,8521,4.0128,65.3481
rg,1624800855518461172,1,0.3286,-1.4556,0.3357,544,129.0894,-61.0962,32.3486,154,0.8044,0.6583,20.9957,-55.0126,29,0.9885,8588,4.0128,67.9907
rg,1624800855863811209,1,-0.0435,-0.3904,0.0852,545,72.0825,46.0205,-3.6621,154,0.8554,0.7214,21.4238,-53.6748,29,0.9955,26485,4.0128,65.9508
rg,1624800855863941080,1,-0.2256,-0.5056,0.3035,546,-43.9453,47.3633,9.8877,154,0.8434,0.7404,22.8042,-56.1675,29,0.9965,8814,4.0128,64.4444
rg,1624800855863963931,1,-0.2349,-0.9402,0.4192,547,-169.8608,-64.6973,0.2441,154,0.7854,0.7414,21.1152,-62.4282,29,0.9925,8612,4.0128,66.7182
rg,1624800855863985339,1,-0.0488,-1.1292,0.4756,548,-226.6846,-133.4839,-0.2441,154,0.7384,0.7204,17.9498,-70.0048,29,0.9785,8306,4.0128,71.853
rg,1624800855864005450,1,0.3413,-1.584,0.5337,549,-204.1626,-166.2598,16.6016,154,0.7153,0.6593,15.5629,-76.2007,29,0.9605,7997,4.0128,78.7269
rg,1624800855864025154,1,0.5144,-1.4849,0.2334,550,-39.4897,-66.4673,62.561,154,0.7093,0.6093,16.0967,-77.0398,29,0.9495,8674,4.0128,81.9691
rg,1624800855864045969,1,0.6042,-1.2368,0.6997,551,56.5796,46.2646,81.604,154,0.7103,0.5903,18.2845,-74.4604,29,0.9475,8327,4.0128,81.0593
rg,1624800855864065320,1,0.5188,-1.2158,0.52,552,64.0259,72.0825,80.5664,154,0.7103,0.5783,20.7259,-72.2555,29,0.9435,7984,4.0128,79.1577
rg,1624800855864086931,1,0.2361,-1.3188,0.3962,553,68.6035,71.2891,8.3008,154,0.7113,0.5663,20.7823,-70.5373,29,0.9405,8660,4.0128,76.344
rg,1624800855864131913,1,-0.2405,-1.0549,0.1057,554,149.9023,86.0596,-72.7539,154,0.7113,0.5573,19.0312,-66.6522,29,0.9405,8048,4.0128,71.6107
rg,1624800855864151376,1,-0.386,-0.4058,0.0596,555,187.5,86.9751,-84.7168,154,0.7123,0.5553,18.6489,-59.9245,29,0.9405,8654,4.0128,66.7181
rg,1624800855864171431,1,-0.4248,-0.123,0.1091,556,226.1963,94.0552,-68.2373,154,0.7153,0.5453,20.2045,-52.3289,29,0.9435,8287,4.0128,61.9957
rg,1624800855864191061,1,-0.5701,0.2212,-0.0374,557,70.6177,29.0527,36.438,154,0.7234,0.5573,24.2577,-49.4598,29,0.9475,16606,4.0128,62.0773
rg,1624800855864210654,1,-0.4119,-0.269,0.0042,558,-144.043,-99.4873,60.4248,154,0.7274,0.5653,25.0244,-53.9707,29,0.9505,7960,4.0128,66.7449
rg,1624800855864233691,1,-0.0146,-1.0774,0.9917,559,-299.7437,-226.9897,70.1294,154,0.7364,0.5833,21.6988,-61.6533,29,0.9575,8102,4.0128,76.8714
rg,1624800855864255709,1,0.6785,-1.988,2.3616,560,-299.2554,-216.4917,71.228,154,0.7484,0.6023,19.463,-69.9932,29,0.9675,8026,4.0128,86.6444
rg,1624800855864278820,1,0.4229,-2.2141,0.4565,561,-7.0801,-41.4429,55.7861,154,0.7744,0.6313,19.8425,-69.7439,29,0.9795,8415,4.0128,88.9912
rg,1624800855864373209,1,0.4736,-1.5378,0.2493,562,151.3672,-40.7715,0.6714,154,0.8064,0.6553,17.8936,-63.6392,29,0.9845,9252,4.0128,90.3599
rg,1624800855864400154,1,0.2473,-0.7683,0.4272,563,181.0913,47.0581,-28.0762,154,0.8364,0.6823,16.5875,-57.0029,29,0.9895,8966,4.0128,88.027
rg,1624800855864422709,1,0.0117,-0.3506,0.1631,564,165.8936,76.1719,-13.1226,154,0.8574,0.7073,18.3133,-53.3766,29,0.9905,8216,4.0128,84.187
rg,1624800855864445265,1,-0.0955,-0.323,0.1755,565,73.0591,127.6245,5.127,154,0.8664,0.7344,21.3938,-52.2035,29,0.9895,8973,4.0128,79.8866
rg,1624800855864465320,1,-0.4163,-0.53,0.2751,566,-59.2041,83.6182,-12.2681,154,0.8394,0.7514,23.4684,-56.1643,29,0.9885,8712,4.0128,76.4894
rg,1624800855864485117,1,-0.5229,-0.9292,0.3003,567,-188.5376,-55.7251,-11.4136,154,0.7744,0.7414,22.1677,-63.5583,29,0.9845,8740,4.0128,78.0861
rg,1624800855864508431,1,-0.0569,-1.1577,0.4988,568,-274.353,-233.5815,-1.1597,154,0.7314,0.7053,17.8565,-71.4805,29,0.9675,8603,4.0128,87.2148
rg,1624800855864527394,1,0.4905,-1.5737,0.5469,569,-221.3135,-251.77,10.1318,154,0.7113,0.6423,15.3879,-73.9511,29,0.9505,8878,4.0128,96.108
rg,1624800855864581765,1,0.6206,-1.5188,0.324,570,-59.5703,-157.1045,71.6553,154,0.7073,0.5943,15.0857,-74.5962,29,0.9425,8538,4.0128,103.1375
rg,1624800855864606876,1,0.9426,-1.4553,0.6858,571,27.1606,-2.3193,117.7368,154,0.7073,0.5833,17.9505,-72.7361,29,0.9395,8740,4.0128,104.6579
rg,1624800855864652117,1,0.6978,-1.4624,0.3713,572,52.8564,110.3516,91.6138,154,0.7093,0.5713,21.2116,-71.8347,29,0.9365,8544,4.0128,101.3126
rg,1624800855864740635,1,0.1216,-1.4072,0.427,573,93.0176,168.2739,-7.9956,154,0.7093,0.5693,22.0429,-70.7405,29,0.9345,11801,4.0128,94.3166
rg,1624800855864762061,1,-0.407,-0.9329,0.1411,574,181.0303,149.9023,-81.543,154,0.7103,0.5653,21.2354,-66.6133,29,0.9345,8380,4.0128,86.9039
rg,1624800855864785913,1,-0.5239,-0.2986,0.0325,575,258.728,92.5903,-90.0879,154,0.7113,0.5613,21.1825,-58.5362,29,0.9355,8546,4.0128,81.6099
rg,1624800855864808876,1,-0.571,0.0093,0.0684,576,260.437,83.252,-69.8242,154,0.7143,0.5493,23.0515,-49.3021,29,0.9375,8449,4.0128,77.349
rg,1624800856207418857,1,-0.4363,-0.3442,-0.0022,577,-199.3408,-111.8164,73.3032,154,0.7274,0.5773,23.8758,-55.9553,29,0.9515,25392,4.0128,82.6801
rg,1624800856207470172,1,0.0706,-1.4805,1.5715,578,-366.6992,-237.2437,76.355,154,0.7364,0.5843,21.0599,-65.9573,29,0.9595,9159,4.0128,93.4756
rg,1624800856207490653,1,0.3816,-2.4353,0.8806,579,-122.3755,-118.042,42.2363,154,0.7514,0.6133,19.6961,-69.0883,29,0.9725,8373,4.0128,98.7847
rg,1624800856207510283,1,0.2842,-2.3037,0.1611,580,57.251,-101.4404,38.0249,154,0.7804,0.6373,18.5076,-66.1769,29,0.9815,8289,4.0128,103.0405
rg,1624800856207529357,1,0.3857,-1.3145,0.2087,581,183.1665,-71.3501,-4.6387,154,0.8114,0.6583,15.7838,-58.716,29,0.9865,8671,4.0128,105.3261
rg,1624800856207548265,1,0.1904,-0.4929,0.3618,582,184.3872,4.6997,-25.3296,154,0.8344,0.6803,13.8269,-51.375,29,0.9895,8231,4.0128,104.5408
rg,1624800856207567135,1,0.0234,-0.1003,0.072,583,163.208,30.4565,-9.5825,154,0.8474,0.7043,14.684,-47.7151,29,0.9925,8113,4.0128,102.683
rg,1624800856207585728,1,-0.0479,-0.1174,-0.0288,584,33.2642,87.4634,19.4702,154,0.8444,0.7244,18.0786,-48.8253,29,0.9935,8443,4.0128,100.0257
rg,1624800856207604283,1,-0.1096,-0.5957,0.1848,585,-173.4619,34.79,18.1274,154,0.7904,0.7314,19.2043,-56.9064,29,0.9925,8622,4.0128,99.0385
rg,1624800856207622487,1,0.0056,-1.2261,0.6387,586,-312.6221,-75.6836,-17.334,154,0.7394,0.7163,16.4844,-68.7933,29,0.9815,8112,4.0128,101.5348
rg,1624800856207641172,1,0.219,-1.6562,0.2344,587,-211.792,-107.5439,1.4038,154,0.7083,0.6303,15.871,-72.3278,29,0.9505,13505,4.0128,105.3125
rg,1624800856207659839,1,0.4363,-1.5,0.2603,588,-26.4282,-65.7959,73.9746,154,0.7073,0.5943,16.4545,-72.0248,29,0.9465,8997,4.0128,108.9502
rg,1624800856207677579,1,0.6492,-1.4172,0.6165,589,59.3872,28.3813,98.6328,154,0.7083,0.5923,19.1014,-69.3643,29,0.9405,8097,4.0128,109.2048
rg,1624800856207695653,1,0.5771,-1.4158,0.2424,590,64.0869,87.1582,81.3599,154,0.7103,0.5853,21.8986,-68.0006,29,0.9385,7964,4.0128,106.8255
rg,1624800856207713542,1,0.3674,-1.4331,0.3135,591,82.2754,119.6289,28.6865,154,0.7093,0.5893,22.2859,-65.7303,29,0.9365,8153,4.0128,100.6103
rg,1624800856207733172,1,-0.2324,-0.9797,0.2075,592,174.3774,144.5312,-66.7725,154,0.7083,0.5843,22.0801,-61.8781,29,0.9355,8677,4.0128,93.5463
rg,1624800856207782783,1,-0.4778,-0.3777,0.043,593,258.9111,118.7744,-87.6465,154,0.7093,0.5793,22.7483,-54.5188,29,0.9365,8592,4.0128,87.0818
rg,1624800856207806283,1,-0.644,0.1497,0.0583,594,235.2905,115.8447,-32.6538,154,0.7103,0.5723,26.777,-46.6021,29,0.9365,10638,4.0128,82.6061
rg,1624800856207870802,1,-0.6108,0.3186,0.0029,595,41.9312,33.8135,58.2886,154,0.7133,0.5773,31.4888,-43.6653,29,0.9395,8690,4.0128,83.8294
rg,1624800856207892339,1,-0.46,-0.3477,0.1184,596,-190.0635,-84.1064,62.5,154,0.7184,0.5913,31.8382,-49.4597,29,0.9445,8312,4.0128,88.2655
rg,1624800856207910968,1,-0.3887,-0.7314,0.4529,597,-279.8462,-146.4844,59.3872,154,0.7224,0.5923,27.9649,-58.0428,29,0.9475,8874,4.0128,97.511
rg,1624800856207930228,1,0.3828,-2.1631,2.1606,598,-302.124,-197.3877,47.1802,154,0.7314,0.6033,24.6754,-65.5749,29,0.9575,8895,4.0128,106.5816
rg,1624800856207949598,1,0.134,-2.1423,0.3948,599,-2.0752,-95.8252,23.8647,154,0.7474,0.6243,22.8746,-64.5067,29,0.9695,8631,4.0128,110.562
rg,1624800856207996802,1,0.3098,-1.3362,0.4478,600,119.1406,-72.3877,7.1411,154,0.7694,0.6413,20.4681,-58.9858,29,0.9785,8817,4.0128,113.2741
rg,1624800856208019524,1,0.1526,-0.7417,0.4314,601,135.8643,-42.5415,-34.0576,154,0.8004,0.6583,17.2478,-53.3833,29,0.9845,8889,4.0128,113.9019
rg,1624800856208039116,1,0.0271,-0.5044,0.0562,602,86.3647,-31.7383,-15.0757,154,0.8284,0.6823,15.3075,-50.9373,29,0.9875,9212,4.0128,114.1945
rg,1624800856208058228,1,0.0281,-0.4595,-0.0161,603,46.6919,-17.0898,-2.1362,154,0.8464,0.7073,14.225,-50.4829,29,0.9905,8488,4.0128,114.2752
rg,1624800856208078302,1,0.1101,-0.6411,0.105,604,-36.1938,-4.3945,7.2632,154,0.8544,0.7294,13.4936,-52.9953,29,0.9915,8318,4.0128,114.3345
rg,1624800856208096913,1,0.1355,-0.9062,0.2808,605,-96.9849,-5.6152,11.9629,154,0.8264,0.7424,12.9451,-57.5208,29,0.9925,8543,4.0128,114.6529
rg,1624800856208115820,1,0.0566,-1.0867,0.3074,606,-181.5186,-27.4048,1.9531,154,0.7684,0.7344,11.8871,-65.1874,29,0.9895,8565,4.0128,115.5677
rg,1624800856208134339,1,0.0967,-1.1704,0.3103,607,-204.1016,-61.2183,-7.0801,154,0.7294,0.6973,9.8088,-72.2335,29,0.9735,8924,4.0128,118.3987
rg,1624800856208152024,1,0.1912,-1.3245,0.2927,608,-120.9717,-64.5142,13.9771,154,0.7103,0.6463,8.9714,-76.8161,29,0.9505,8592,4.0128,121.0608
rg,1624800856565364227,1,0.4165,-1.4895,0.2527,609,60.791,61.7676,90.0879,154,0.7123,0.6083,12.1123,-74.7968,29,0.9405,25496,4.0128,119.4706
rg,1624800856565404264,1,0.0825,-1.4775,0.4192,610,113.5254,92.5903,15.4419,154,0.7133,0.6093,13.1776,-70.9812,29,0.9365,9188,4.0128,116.013
rg,1624800856565424283,1,-0.2026,-1.3552,0.4563,611,165.3442,100.8911,-24.4751,154,0.7133,0.6103,13.0655,-63.8157,29,0.9365,8023,4.0128,112.0559
rg,1624800856565443616,1,-0.4929,-0.9226,0.113,612,241.9434,64.5752,-49.2554,154,0.7123,0.6113,13.2746,-55.5852,29,0.9355,8191,4.0128,108.652
rg,1624800856565462468,1,-0.4141,-0.3113,0.0093,613,286.5601,-4.6387,-49.5605,154,0.7133,0.6103,13.1434,-45.1623,29,0.9375,8061,4.0128,107.4811
rg,1624800856565480950,1,-0.4231,0.2224,0.1138,614,283.2031,-14.4653,-47.5464,154,0.7143,0.6003,13.7765,-33.8555,29,0.9395,8310,4.0128,107.4343
rg,1624800856565498672,1,-0.4539,0.415,0.0908,615,204.1626,-26.7944,2.0142,154,0.7163,0.5903,14.5852,-24.0575,29,0.9435,8403,4.0128,108.5532
rg,1624800856565517672,1,-0.311,0.3918,-0.1118,616,9.4604,-78.0029,73.9746,154,0.7214,0.5923,14.4693,-21.2208,29,0.9475,9016,4.0128,113.0219
rg,1624800856565535524,1,-0.0337,-0.5317,0.1812,617,-381.897,-157.8979,69.7632,154,0.7304,0.6063,10.0943,-36.9365,29,0.9545,15956,4.0128,118.1926
rg,1624800856565580857,1,1.0049,-2.75,3.2483,618,-428.0396,-44.7998,48.584,154,0.7384,0.6153,9.3273,-53.552,29,0.9625,7884,4.0128,120.9504
rg,1624800856565601913,1,0.2261,-2.5168,0.6685,619,-217.8345,66.9556,24.7192,154,0.7524,0.6393,9.0231,-56.2423,29,0.9725,8105,4.0128,120.2173
rg,1624800856565619598,1,0.0522,-1.9468,0.1238,620,61.6455,-15.7471,-25.3906,154,0.7694,0.6593,7.4658,-54.9303,29,0.9795,7926,4.0128,119.9804
rg,1624800856565637264,1,0.0786,-0.9253,0.7744,621,108.7646,51.0254,-29.6021,154,0.7924,0.6753,7.3075,-50.6906,29,0.9855,8151,4.0128,117.6296
rg,1624800856565654764,1,-0.0498,-0.4883,0.2588,622,122.7417,40.3442,-25.1465,154,0.8164,0.6953,7.1026,-46.8554,29,0.9905,8404,4.0128,116.3572
rg,1624800856565672894,1,-0.1028,-0.4446,0.0208,623,74.0967,6.5308,-20.752,154,0.8384,0.7214,6.9841,-45.4329,29,0.9945,8491,4.0128,115.414
rg,1624800856565690987,1,-0.0442,-0.6653,-0.0615,624,-28.5645,-39.856,-15.564,154,0.8524,0.7364,5.4114,-48.2267,29,0.9945,8467,4.0128,115.9468
rg,1624800856565708764,1,0.0796,-0.9658,0.2732,625,-76.7822,-66.7114,-12.0239,154,0.8484,0.7544,2.9724,-52.1447,29,0.9955,8488,4.0128,117.6156
rg,1624800856565726320,1,0.0256,-1.0059,0.1096,626,-110.5347,-58.3496,-1.5869,154,0.7994,0.7574,1.4293,-57.6624,29,0.9945,8936,4.0128,119.437
rg,1624800856565743857,1,0.0972,-1.0713,0.2495,627,-148.6206,-83.4351,-1.4038,154,0.7474,0.7294,-0.916,-64.8329,29,0.9795,8980,4.0128,123.3271
rg,1624800856565760950,1,0.1643,-1.2268,0.364,628,-141.1743,-121.2158,12.8174,168,0.7214,0.6783,-2.4982,-70.9312,29,0.9575,8480,4.0018,128.0267
rg,1624800856565779413,1,0.3823,-1.1909,0.1936,629,-44.0674,-90.6982,55.0537,168,0.7143,0.6373,-2.1012,-73.2128,29,0.9395,8510,4.0018,132.1796
rg,1624800856565796264,1,0.7075,-1.4097,0.7712,630,20.2637,-38.3911,81.8481,168,0.7143,0.6243,-0.2773,-72.0107,29,0.9385,8809,4.0018,134.5866
rg,1624800856565814524,1,0.6833,-1.5183,0.1753,631,63.7207,39.978,101.5625,168,0.7153,0.6233,3.151,-69.8677,29,0.9335,8607,4.0018,134.3697
rg,1624800856565832283,1,0.5754,-1.4792,0.1721,632,83.4961,86.6089,75.0122,168,0.7174,0.6263,5.6904,-65.5274,29,0.9315,8723,4.0018,130.0161
rg,1624800856565850283,1,0.0208,-1.2239,0.499,633,166.3208,142.6392,-4.0894,168,0.7194,0.6283,7.8871,-59.5879,29,0.9295,8546,4.0018,124.824
rg,1624800856565883394,1,-0.4553,-0.9946,0.3965,634,212.7686,101.3184,-43.0298,168,0.7184,0.6293,9.3184,-52.0631,29,0.9265,9250,4.0018,120.465
rg,1624800856565903283,1,-0.4871,-0.6328,0.0422,635,234.9854,2.5635,-34.668,168,0.7204,0.6293,9.4859,-43.8651,29,0.9255,8510,4.0018,119.3711
rg,1624800856565920950,1,-0.3333,-0.0552,0.0632,636,258.1787,-66.5894,-37.5977,168,0.7204,0.6193,8.5517,-33.4582,29,0.9305,8384,4.0018,120.0722
rg,1624800856565937709,1,-0.3264,0.1909,0.1143,637,253.7842,-56.7627,-31.189,168,0.7224,0.6063,7.8069,-22.0648,29,0.9335,8555,4.0018,120.4111
rg,1624800856565954764,1,-0.3447,0.4617,0.0588,638,159.668,-49.1943,38.4521,168,0.7264,0.6043,7.7907,-13.6318,29,0.9375,8364,4.0018,122.8421
rg,1624800856565972061,1,-0.1509,0.2107,-0.1353,639,-66.5283,-96.8628,90.9424,168,0.7354,0.6133,4.7522,-22.6573,29,0.9455,12057,4.0018,127.3543
rg,1624800856565989376,1,0.0061,-0.4304,0.1301,640,-327.5757,-153.5034,75.0732,168,0.7474,0.6273,0.8123,-37.1358,29,0.9555,8694,4.0018,132.8505
rg,1624800856867162820,1,0.147,-2.0693,0.0527,641,78.9185,-12.146,-39.917,168,0.7924,0.6923,-0.7053,-35.7312,29,0.9805,25377,4.0018,131.8293
rg,1624800856867194968,1,0.0364,-1.0122,0.8459,642,141.6016,74.2188,-49.4995,168,0.8094,0.7123,0.6478,-30.6391,29,0.9855,8929,4.0018,128.5543
rg,1624800856867215098,1,-0.0488,-0.6421,0.6924,643,163.5132,70.1294,-36.0718,168,0.8174,0.7304,2.8878,-24.9575,29,0.9895,8193,4.0018,125.9842
rg,1624800856867234320,1,-0.1626,-0.27,0.0342,644,93.811,32.2266,-28.6255,168,0.7974,0.7354,4.7048,-22.9671,29,0.9895,8339,4.0018,124.3477
rg,1624800856867252616,1,-0.2683,-0.4644,-0.0186,645,-113.3423,-34.1187,-26.7334,168,0.7604,0.7194,4.0778,-29.3549,29,0.9805,8213,4.0018,123.7807
rg,1624800856867270227,1,-0.2014,-0.7234,0.2273,646,-213.8062,-167.2363,-43.1519,168,0.7344,0.6793,-1.9107,-39.3191,29,0.9585,8136,4.0018,125.9823
rg,1624800856867287598,1,-0.115,-0.9224,0.511,647,-193.3594,-192.0166,-34.1187,168,0.7244,0.6523,-8.0309,-48.2226,29,0.9415,8624,4.0018,130.3236
rg,1624800856867304542,1,0.5537,-1.4778,0.4153,648,-15.2588,-186.9507,59.2651,168,0.7234,0.6513,-11.5283,-51.0158,29,0.9365,12120,4.0018,137.8004
rg,1624800856867321690,1,0.9465,-1.4922,0.2659,649,55.2368,-121.2769,78.5522,168,0.7244,0.6503,-12.959,-50.9989,29,0.9335,11066,4.0018,143.8659
rg,1624800856867338875,1,0.749,-1.2095,0.2542,650,99.7925,-39.4287,54.7485,168,0.7244,0.6483,-12.1881,-46.5647,29,0.9315,7949,4.0018,143.8058
rg,1624800856867356449,1,0.5503,-1.0098,0.3096,651,145.2026,64.5752,-3.6011,168,0.7264,0.6463,-11.0885,-41.2814,29,0.9295,8068,4.0018,142.0281
rg,1624800856867373486,1,0.0852,-0.8103,0.3457,652,139.3433,105.7129,-46.2036,168,0.7274,0.6493,-8.7866,-35.9937,29,0.9285,7973,4.0018,138.0818
rg,1624800856867390431,1,-0.2917,-0.8889,0.3833,653,133.1787,113.8306,-50.1099,168,0.7294,0.6493,-5.3844,-31.6219,29,0.9285,8096,4.0018,134.5229
rg,1624800856867407283,1,-0.407,-0.9414,0.4182,654,130.3711,72.0825,-31.3721,168,0.7314,0.6493,-2.458,-27.4694,29,0.9295,8393,4.0018,132.1583
rg,1624800856867423912,1,-0.3562,-0.7935,0.3352,655,157.2876,-28.3203,-13.2446,168,0.7334,0.6433,-2.7713,-22.5364,29,0.9305,8701,4.0018,132.2585
rg,1624800856867440764,1,-0.1697,-0.4478,0.3286,656,153.8696,-103.9429,-16.8457,168,0.7344,0.6383,-6.1396,-17.5903,29,0.9315,8342,4.0018,133.1463
rg,1624800856867457635,1,-0.0713,-0.2837,0.3416,657,109.4971,-114.3799,-15.2588,168,0.7374,0.6313,-10.1093,-14.1709,29,0.9325,8682,4.0018,133.9312
rg,1624800856867474135,1,-0.0247,-0.2725,0.3586,658,76.355,-109.6802,-8.1787,168,0.7384,0.6273,-14.1347,-13.7899,29,0.9325,8566,4.0018,135.1711
rg,1624800856867507894,1,0.1042,-0.439,0.4243,659,11.1084,-111.3892,2.4414,168,0.7404,0.6273,-18.31,-14.9311,29,0.9345,8446,4.0018,136.7275
rg,1624800856867525264,1,0.2649,-0.7324,0.561,660,-29.7852,-117.4927,-4.2725,168,0.7424,0.6273,-22.8795,-17.9734,29,0.9345,8556,4.0018,138.429
rg,1624800856867541505,1,0.3967,-0.9224,0.5676,661,-20.2026,-93.2617,-18.0054,168,0.7454,0.6243,-26.6914,-20.5507,29,0.9365,11203,4.0018,139.6381
rg,1624800856867557857,1,0.4143,-0.894,0.5071,662,8.3618,-55.3589,-30.1514,168,0.7484,0.6293,-29.2011,-21.5667,29,0.9385,8611,4.0018,139.9599
rg,1624800856867574357,1,0.3875,-0.8005,0.5173,663,17.5171,-38.208,-43.9453,168,0.7514,0.6273,-31.1652,-21.6544,29,0.9405,8931,4.0018,139.4172
rg,1624800856867591098,1,0.3594,-0.8079,0.5347,664,10.2539,-25.7568,-46.936,168,0.7544,0.6273,-32.575,-21.8248,29,0.9425,8323,4.0018,138.5595
rg,1624800856867607542,1,0.3477,-0.8423,0.5334,665,9.5215,-16.9678,-46.2036,168,0.7594,0.6273,-33.5755,-21.9854,29,0.9455,8517,4.0018,137.6269
rg,1624800856867623838,1,0.3372,-0.8901,0.5588,666,18.9819,-4.1504,-41.8701,168,0.7624,0.6263,-33.9547,-21.7513,29,0.9475,8360,4.0018,136.6808
rg,1624800856867639801,1,0.2979,-0.854,0.5762,667,33.2031,-3.1738,-42.7856,168,0.7654,0.6213,-34.2071,-20.86,29,0.9485,8571,4.0018,135.6484
rg,1624800856867655727,1,0.2437,-0.7668,0.5454,668,43.2739,-13.6108,-45.105,168,0.7684,0.6173,-34.782,-19.5789,29,0.9505,8440,4.0018,134.6665
rg,1624800856867671764,1,0.2327,-0.7197,0.5186,669,46.1426,-23.0103,-42.6025,168,0.7694,0.6153,-35.8663,-18.5031,29,0.9525,8632,4.0018,134.0669
rg,1624800856867687986,1,0.2417,-0.6665,0.4912,670,38.269,-36.499,-38.0249,168,0.7704,0.6123,-37.4545,-18.2592,29,0.9535,9871,4.0018,134.0114
rg,1624800856867703949,1,0.3037,-0.7175,0.5024,671,24.9634,-47.3633,-34.3018,168,0.7714,0.6073,-39.2087,-18.3371,29,0.9535,8621,4.0018,134.114
rg,1624800856867719801,1,0.3579,-0.8049,0.5,672,16.9067,-56.7017,-34.1797,168,0.7684,0.6083,-41.3577,-18.9563,29,0.9525,8527,4.0018,134.5024
rg,1624800857256647468,1,0.4429,-0.8792,0.533,673,38.7573,-68.9697,-35.9497,168,0.7744,0.5943,-44.0221,-18.795,29,0.9545,27044,4.0018,135.082
rg,1624800857256746894,1,0.5,-0.886,0.5884,674,51.1475,-65.6128,-27.3438,168,0.7764,0.5883,-46.3962,-18.3343,29,0.9545,13332,4.0018,136.0518
rg,1624800857256813505,1,0.5449,-0.8779,0.625,675,59.3262,-46.0205,-20.6299,168,0.7774,0.5853,-47.9063,-17.4974,29,0.9545,8227,4.0018,137.0242
rg,1624800857256848968,1,0.5527,-0.863,0.6313,676,63.5376,-35.2783,-15.9912,168,0.7774,0.5833,-48.4671,-16.2418,29,0.9545,7762,4.0018,137.8353
rg,1624800857256877857,1,0.5283,-0.8054,0.626,677,67.1997,-13.6719,-15.2588,168,0.7784,0.5773,-48.6035,-14.8107,29,0.9555,9569,4.0018,138.491
rg,1624800857256909671,1,0.4819,-0.7275,0.6121,678,63.7817,3.418,-15.8691,168,0.7784,0.5743,-48.0628,-13.3023,29,0.9555,7777,4.0018,138.8507
rg,1624800857256940023,1,0.4153,-0.6929,0.6052,679,52.6733,15.625,-15.0757,168,0.7784,0.5723,-46.9622,-12.198,29,0.9555,9209,4.0018,139.1181
rg,1624800857256997394,1,0.375,-0.6917,0.6399,680,41.1987,19.2261,-18.5547,168,0.7794,0.5713,-45.6744,-11.3877,29,0.9565,8358,4.0018,139.1341
rg,1624800857257048134,1,0.3479,-0.698,0.6641,681,36.5601,14.0381,-20.0806,168,0.7794,0.5683,-44.5656,-10.7712,29,0.9555,7996,4.0018,139.1204
rg,1624800857257081653,1,0.3206,-0.6978,0.6809,682,32.5317,-16.1133,-27.4658,168,0.7784,0.5653,-44.6555,-10.2621,29,0.9555,12385,4.0018,138.9993
rg,1624800857257111097,1,0.3474,-0.7007,0.6877,683,30.5786,-27.2217,-26.3672,168,0.7784,0.5603,-45.5631,-10.1083,29,0.9565,8034,4.0018,139.2691
rg,1624800857257140042,1,0.4395,-0.7339,0.7119,684,30.3955,-41.0767,-22.0947,168,0.7794,0.5563,-46.7337,-10.0516,29,0.9565,7891,4.0018,139.6982
rg,1624800857257168042,1,0.52,-0.761,0.7175,685,35.0952,-47.2412,-19.2871,168,0.7794,0.5563,-48.2098,-9.9789,29,0.9575,8081,4.0018,140.3818
rg,1624800857257195449,1,0.5483,-0.7563,0.7173,686,37.7808,-45.8374,-16.9678,168,0.7804,0.5573,-49.5273,-9.7629,29,0.9575,7919,4.0018,141.2257
rg,1624800857257226394,1,0.6006,-0.7307,0.686,687,46.1426,-32.8369,-13.1226,168,0.7804,0.5543,-50.4656,-9.3978,29,0.9585,11058,4.0018,142.1668
rg,1624800857257257690,1,0.6067,-0.7114,0.6748,688,45.8984,-25.2686,-13.2446,168,0.7814,0.5503,-51.1042,-8.9742,29,0.9575,7974,4.0018,143.0344
rg,1624800857257283060,1,0.6204,-0.679,0.6484,689,45.4102,-7.5684,-11.2305,168,0.7784,0.5493,-51.0745,-8.5075,29,0.9575,8349,4.0018,143.8422
rg,1624800857257313301,1,0.5737,-0.6526,0.6353,690,38.147,16.4795,-11.5356,168,0.7824,0.5443,-50.0566,-8.1527,29,0.9585,8010,4.0018,144.4129
rg,1624800857257342227,1,0.5427,-0.646,0.6404,691,34.79,24.5361,-12.2681,168,0.7814,0.5393,-48.6195,-7.8725,29,0.9585,8192,4.0018,144.8717
rg,1624800857257368671,1,0.4595,-0.6389,0.6714,692,30.7617,33.8135,-11.4136,168,0.7834,0.5373,-46.7701,-7.7141,29,0.9585,8075,4.0018,145.262
rg,1624800857257394357,1,0.3975,-0.6504,0.7129,693,33.3252,33.1421,-6.5308,168,0.7824,0.5353,-44.826,-7.6519,29,0.9585,8231,4.0018,145.8953
rg,1624800857257422171,1,0.375,-0.6606,0.7607,694,34.668,27.9541,-2.0142,168,0.7834,0.5343,-43.2527,-7.7238,29,0.9585,8107,4.0018,146.9871
rg,1624800857257451838,1,0.3801,-0.6714,0.7759,695,40.9546,14.9536,4.0283,168,0.7834,0.5293,-41.9861,-7.7483,29,0.9585,8239,4.0018,148.19
rg,1624800857257479634,1,0.4119,-0.6619,0.7764,696,46.6919,0.1831,6.2256,168,0.7834,0.5273,-41.3841,-7.632,29,0.9585,8547,4.0018,149.5503
rg,1624800857257506542,1,0.4565,-0.6348,0.761,697,50.9644,-7.5073,8.0566,168,0.7844,0.5233,-41.1894,-7.3813,29,0.9595,8340,4.0018,151.0073
rg,1624800857257582468,1,0.4851,-0.5935,0.7437,698,49.1943,-4.4556,6.3477,168,0.7854,0.5233,-40.9624,-7.053,29,0.9595,8245,4.0018,152.2987
rg,1624800857257620782,1,0.4893,-0.5728,0.7383,699,47.1802,0,4.2114,168,0.7854,0.5213,-40.3489,-6.6724,29,0.9595,8397,4.0018,153.2802
rg,1624800857257651301,1,0.4661,-0.5623,0.7434,700,39.5508,11.8408,0.4883,168,0.7844,0.5203,-39.5111,-6.4096,29,0.9585,8235,4.0018,154.1129
rg,1624800857257680894,1,0.4316,-0.5747,0.7561,701,33.6914,16.7236,-3.2349,168,0.7854,0.5203,-38.4517,-6.2661,29,0.9565,8241,4.0018,154.7277
rg,1624800857257708820,1,0.3914,-0.6008,0.7756,702,30.5176,13.7329,-4.1504,168,0.7864,0.5183,-37.4588,-6.2717,29,0.9595,8263,4.0018,155.3191
rg,1624800857257735282,1,0.3845,-0.6072,0.7764,703,31.6772,8.4839,-4.3335,168,0.7864,0.5193,-36.6951,-6.2464,29,0.9605,8523,4.0018,155.9133
rg,1624800857257763468,1,0.3826,-0.5874,0.7773,704,34.9731,-5.3711,-2.0752,168,0.7864,0.5183,-36.4898,-6.1576,29,0.9595,8310,4.0018,156.6538
rg,1624800857605903412,1,0.5056,-0.5374,0.7288,705,34.1797,-24.7803,9.2163,168,0.7864,0.5173,-37.2907,-6.4,29,0.9605,25746,4.0018,157.9982
rg,1624800857606022949,1,0.5654,-0.551,0.7383,706,32.7148,-21.9116,10.7422,168,0.7864,0.5133,-38.0293,-6.7381,29,0.9605,10109,4.0018,159.4209
rg,1624800857606044838,1,0.5891,-0.5586,0.7729,707,32.7148,-16.2354,11.4136,168,0.7874,0.5133,-38.4966,-7.0335,29,0.9615,7675,4.0018,160.8327
rg,1624800857606063912,1,0.5764,-0.553,0.8203,708,32.5928,20.813,15.7471,168,0.7884,0.5143,-37.392,-7.268,29,0.9615,11897,4.0018,162.2021
rg,1624800857606082782,1,0.5171,-0.5513,0.8579,709,26.3672,38.8794,15.686,168,0.7884,0.5153,-35.4717,-7.608,29,0.9615,10594,4.0018,163.3865
rg,1624800857606100634,1,0.4514,-0.5559,0.8809,710,25.0244,44.7388,13.2446,168,0.7894,0.5163,-33.2116,-7.8416,29,0.9625,7757,4.0018,164.3036
rg,1624800857606121319,1,0.4177,-0.5535,0.887,711,24.5361,45.166,10.8032,168,0.7894,0.5173,-31.0137,-7.9914,29,0.9615,7837,4.0018,165.0754
rg,1624800857606139616,1,0.3757,-0.5454,0.8982,712,25.0854,38.4521,8.4839,168,0.7894,0.5163,-29.0861,-8.036,29,0.9625,7757,4.0018,165.7219
rg,1624800857606156967,1,0.3542,-0.5271,0.8865,713,24.1089,36.0718,7.6294,168,0.7894,0.5163,-27.5095,-8.0965,29,0.9615,8549,4.0018,166.3301
rg,1624800857606259486,1,0.3733,-0.511,0.8691,714,20.0195,18.9819,7.3853,168,0.7904,0.5163,-26.5012,-8.2992,29,0.9625,10644,4.0018,166.9592
rg,1624800857606286449,1,0.3877,-0.5029,0.8579,715,18.0664,16.6626,6.8359,168,0.7904,0.5153,-25.6605,-8.5467,29,0.9625,7958,4.0018,167.5491
rg,1624800857606307764,1,0.4053,-0.4875,0.8455,716,12.9395,17.0898,6.958,168,0.7904,0.5153,-24.8771,-8.9562,29,0.9625,7763,4.0018,168.1071
rg,1624800857606326486,1,0.4263,-0.4812,0.8337,717,6.7139,19.165,8.0566,168,0.7914,0.5153,-24.0823,-9.5933,29,0.9635,7974,4.0018,168.6673
rg,1624800857606344579,1,0.4297,-0.491,0.8362,718,2.9907,20.3247,7.5073,168,0.7904,0.5133,-23.2726,-10.3453,29,0.9625,7795,4.0018,169.1673
rg,1624800857606362653,1,0.4299,-0.5193,0.8328,719,0.2441,24.9023,4.6997,168,0.7914,0.5143,-22.3276,-11.1628,29,0.9595,7999,4.0018,169.496
rg,1624800857606379338,1,0.4092,-0.5317,0.8162,720,-0.1831,26.123,3.6621,168,0.7914,0.5143,-21.2938,-11.9589,29,0.9625,7848,4.0018,169.6568
rg,1624800857606397060,1,0.3979,-0.5305,0.8181,721,0.4883,27.6489,1.4038,168,0.7924,0.5143,-20.285,-12.6732,29,0.9625,7911,4.0018,169.757
rg,1624800857606414505,1,0.3757,-0.5288,0.8074,722,1.0986,24.5361,-0.3662,168,0.7934,0.5133,-19.4147,-13.3304,29,0.9635,7916,4.0018,169.7817
rg,1624800857606433893,1,0.3748,-0.5317,0.8025,723,0.9766,21.9116,-1.1597,168,0.7924,0.5163,-18.8343,-13.9952,29,0.9625,7936,4.0018,169.818
rg,1624800857606450930,1,0.3867,-0.532,0.7966,724,1.8311,15.0757,-1.2817,168,0.7924,0.5163,-18.4233,-14.6016,29,0.9625,7901,4.0018,169.8518
rg,1624800857606470356,1,0.394,-0.5339,0.7834,725,7.2632,10.6812,-2.6245,168,0.7934,0.5163,-18.2355,-14.9815,29,0.9635,7930,4.0018,169.866
rg,1624800857606488912,1,0.3997,-0.5317,0.7769,726,8.728,7.6904,-2.4414,168,0.7934,0.5173,-18.174,-15.2956,29,0.9635,8166,4.0018,169.9096
rg,1624800857606507412,1,0.394,-0.5237,0.7812,727,12.3901,2.7466,-2.9907,168,0.7924,0.5193,-18.3091,-15.4504,29,0.9625,7974,4.0018,169.9768
rg,1624800857606525782,1,0.407,-0.54,0.7871,728,17.1509,-1.4038,-3.2959,168,0.7934,0.5203,-18.618,-15.4417,29,0.9615,10905,4.0018,170.0845
rg,1624800857606567708,1,0.4124,-0.541,0.8093,729,25.2686,-3.2349,-2.0142,168,0.7944,0.5233,-18.9646,-15.1092,29,0.9635,8657,4.0018,170.2602
rg,1624800857606629653,1,0.4136,-0.531,0.8364,730,30.5786,-1.8311,1.5869,168,0.7944,0.5223,-19.1916,-14.5728,29,0.9635,8267,4.0018,170.559
rg,1624800857606654467,1,0.4058,-0.5159,0.8508,731,33.9966,0.061,3.7842,168,0.7954,0.5233,-19.198,-13.7771,29,0.9625,8124,4.0018,171.0004
rg,1624800857606673356,1,0.4111,-0.4963,0.8728,732,38.147,2.8687,9.0332,168,0.7954,0.5233,-19.1472,-12.9729,29,0.9635,8341,4.0018,-188.4563
rg,1624800857606694097,1,0.4216,-0.498,0.8823,733,40.8936,5.6152,12.0239,168,0.7954,0.5253,-18.9854,-12.113,29,0.9635,8423,4.0018,-187.8056
rg,1624800857606712301,1,0.4324,-0.488,0.8879,734,44.5557,6.4087,11.4136,168,0.7944,0.5243,-18.8318,-11.1022,29,0.9625,11825,4.0018,-187.1824
rg,1624800857606730634,1,0.4275,-0.4495,0.8816,735,46.0815,10.498,10.498,168,0.7954,0.5263,-18.5456,-9.9785,29,0.9635,8252,4.0018,-186.6344
rg,1624800857606748319,1,0.4324,-0.3738,0.9189,736,46.0815,14.2822,12.146,168,0.7954,0.5273,-18.1144,-8.7279,29,0.9645,8458,4.0018,-186.0827
rg,1624800857964419282,1,0.4326,-0.2725,0.938,737,19.9585,24.4141,27.4658,168,0.8004,0.5383,-17.2314,-9.4076,29,0.9655,25992,4.0018,-185.0476
rg,1624800857964455282,1,0.4077,-0.385,0.9048,738,-15.9302,25.3296,18.3716,168,0.8014,0.5443,-16.199,-10.8576,29,0.9665,9021,4.0018,-184.2831
rg,1624800857964475764,1,0.2854,-0.4937,0.9072,739,-22.9492,33.3862,11.7798,113,0.8014,0.5433,-14.7931,-12.5123,29,0.9655,7698,4.0315,-183.8925
rg,1624800857964495319,1,0.1897,-0.5242,0.9077,740,-11.6577,28.5034,15.3809,113,0.8014,0.5453,-13.3886,-13.7507,29,0.9655,11291,4.0315,-183.3669
rg,1624800857964513338,1,0.1748,-0.4819,0.8818,741,2.7466,-4.6387,12.8174,113,0.8014,0.5473,-13.3174,-14.3568,29,0.9655,7818,4.0315,-182.6726
rg,1624800857964530801,1,0.2617,-0.4482,0.8804,742,6.958,-32.7759,12.085,113,0.8024,0.5483,-14.5283,-14.767,29,0.9655,9211,4.0315,-181.7356
rg,1624800857964547856,1,0.364,-0.4319,0.8835,743,7.2632,-35.7056,14.7095,113,0.8024,0.5493,-15.9854,-15.1609,29,0.9655,7870,4.0315,-180.6539
rg,1624800857964564727,1,0.3945,-0.4363,0.8989,744,5.3101,-32.8369,13.6719,113,0.8034,0.5513,-17.327,-15.6177,29,0.9665,7925,4.0315,-179.6247
rg,1624800857964581078,1,0.4165,-0.4326,0.8987,745,2.7466,-24.4751,11.9629,113,0.8034,0.5533,-18.3496,-16.124,29,0.9665,7746,4.0315,-178.7434
rg,1624800857964596912,1,0.405,-0.4346,0.8889,746,-0.9766,-16.2354,10.8643,113,0.8024,0.5523,-19.0062,-16.7442,29,0.9665,7904,4.0315,-177.9878
rg,1624800857964613856,1,0.3875,-0.4485,0.8889,747,-3.2349,-12.5732,9.0942,113,0.8024,0.5543,-19.432,-17.4491,29,0.9665,7796,4.0315,-177.3296
rg,1624800857964630171,1,0.3542,-0.4592,0.8862,748,-4.6387,-10.9863,9.2163,113,0.8034,0.5543,-19.7447,-18.1941,29,0.9655,8016,4.0315,-176.6836
rg,1624800857964646467,1,0.3281,-0.4653,0.8813,749,-3.7842,-11.4746,9.2163,113,0.8034,0.5533,-20.0048,-18.9028,29,0.9665,7977,4.0315,-176.0271
rg,1624800857964662541,1,0.3442,-0.4583,0.8875,750,-1.709,-14.4653,10.1318,113,0.8034,0.5553,-20.3785,-19.5108,29,0.9665,13232,4.0315,-175.3022
rg,1624800857964678801,1,0.3474,-0.4509,0.886,751,0.1831,-15.3809,10.6812,113,0.8044,0.5573,-20.7668,-20.0244,29,0.9665,9623,4.0315,-174.5472
rg,1624800857964714838,1,0.3464,-0.436,0.8911,752,0,-14.0381,11.5967,113,0.8044,0.5573,-21.069,-20.5013,29,0.9665,7893,4.0315,-173.788
rg,1624800857964733264,1,0.3457,-0.4302,0.8906,753,-1.5259,-13.7939,12.2681,113,0.8044,0.5563,-21.368,-21.072,29,0.9655,7937,4.0315,-172.9894
rg,1624800857964750615,1,0.3408,-0.4377,0.9001,754,-4.2114,-15.4419,11.5356,113,0.8044,0.5563,-21.6678,-21.6879,29,0.9665,7945,4.0315,-172.2152
rg,1624800857964767282,1,0.3398,-0.449,0.8965,755,-5.3101,-17.4561,9.3994,113,0.8034,0.5573,-22.0517,-22.3367,29,0.9655,10174,4.0315,-171.4855
rg,1624800857964783764,1,0.3337,-0.447,0.8906,756,-4.8828,-19.104,6.7139,113,0.8044,0.5583,-22.5068,-22.922,29,0.9665,8156,4.0315,-170.8353
rg,1624800857964799689,1,0.3335,-0.4509,0.8867,757,-6.1646,-18.7988,6.3477,113,0.8054,0.5583,-22.9823,-23.549,29,0.9665,8175,4.0315,-170.1761
rg,1624800857964816078,1,0.3342,-0.4551,0.8877,758,-5.7373,-22.0947,6.7749,113,0.8044,0.5583,-23.4962,-24.1776,29,0.9645,8026,4.0315,-169.4614
rg,1624800857964832430,1,0.3413,-0.467,0.8826,759,-2.7466,-26.9775,7.6904,113,0.8054,0.5583,-24.1588,-24.753,29,0.9625,8220,4.0315,-168.6072
rg,1624800857964865967,1,0.3584,-0.4526,0.875,760,-1.709,-29.4189,7.3853,113,0.8054,0.5583,-25.0199,-25.2178,29,0.9665,8100,4.0315,-167.6745
rg,1624800857964882171,1,0.3713,-0.4421,0.8687,761,0.4272,-32.959,7.2632,113,0.8054,0.5573,-25.909,-25.6602,29,0.9655,8286,4.0315,-166.727
rg,1624800857964899338,1,0.3845,-0.4355,0.8672,762,0.9155,-35.5835,8.1787,113,0.8054,0.5593,-26.864,-26.1121,29,0.9655,8161,4.0315,-165.6874
rg,1624800857964917023,1,0.3945,-0.4209,0.8679,763,0.061,-37.7808,8.3008,113,0.8054,0.5593,-27.8744,-26.5934,29,0.9665,8136,4.0315,-164.6025
rg,1624800857964933264,1,0.397,-0.4165,0.8713,764,-2.5024,-39.1846,8.3618,113,0.8054,0.5603,-28.8884,-27.1858,29,0.9645,8192,4.0315,-163.4795
rg,1624800857964949745,1,0.4023,-0.4167,0.8557,765,-7.1411,-40.6494,7.3853,113,0.8044,0.5593,-29.9422,-27.9831,29,0.9655,8177,4.0315,-162.3412
rg,1624800857964975301,1,0.4207,-0.4258,0.8513,766,-9.8877,-41.626,5.5542,113,0.8054,0.5603,-31.0444,-28.891,29,0.9655,8403,4.0315,-161.2263
rg,1624800857964991949,1,0.4226,-0.4285,0.8516,767,-11.2305,-39.3066,4.2114,113,0.8054,0.5603,-31.9534,-29.8272,29,0.9655,8302,4.0315,-160.3224
rg,1624800857965010875,1,0.4097,-0.4438,0.8516,768,-13.7939,-35.2783,2.6245,113,0.8044,0.5583,-32.756,-30.7761,29,0.9645,8506,4.0315,-159.4292
rg,1624800858333987911,1,0.3948,-0.4873,0.8342,769,-7.4463,-35.0342,1.6479,113,0.8044,0.5583,-33.4914,-31.5512,29,0.9645,27459,4.0315,-158.5114
rg,1624800858334049023,1,0.4153,-0.4839,0.8264,770,-3.54,-36.7432,3.479,113,0.8064,0.5583,-34.2545,-32.2299,29,0.9655,9306,4.0315,-157.4664
rg,1624800858334069949,1,0.4539,-0.47,0.8245,771,0,-37.9639,6.4697,113,0.8054,0.5573,-35.0378,-32.8241,29,0.9645,7763,4.0315,-156.274
rg,1624800858334089430,1,0.4724,-0.4668,0.8245,772,1.2817,-33.8135,7.4463,113,0.8054,0.5563,-35.6761,-33.3425,29,0.9665,13252,4.0315,-155.1358
rg,1624800858334115226,1,0.4873,-0.4644,0.8235,773,3.6011,-28.5034,10.6201,113,0.8064,0.5563,-36.0485,-33.7296,29,0.9645,7699,4.0315,-154.0252
rg,1624800858334134689,1,0.4937,-0.4609,0.811,774,4.6387,-23.8037,13.4888,113,0.8064,0.5543,-36.2055,-34.0704,29,0.9655,10066,4.0315,-152.923
rg,1624800858334152819,1,0.5007,-0.4331,0.8108,775,3.9673,-18.3716,15.625,113,0.8064,0.5533,-36.1553,-34.3256,29,0.9655,7698,4.0315,-151.928
rg,1624800858334170134,1,0.5,-0.4312,0.8057,776,2.6245,-15.4419,16.1743,113,0.8064,0.5533,-35.9993,-34.5889,29,0.9665,7892,4.0315,-150.9981
rg,1624800858334186708,1,0.5029,-0.4412,0.813,777,0.4883,-6.897,16.6016,113,0.8064,0.5533,-35.5507,-34.8039,29,0.9655,7773,4.0315,-150.2926
rg,1624800858334203911,1,0.4783,-0.4602,0.8281,778,-0.061,3.2349,17.1509,113,0.8064,0.5533,-34.7057,-34.8918,29,0.9655,9413,4.0315,-149.847
rg,1624800858334221004,1,0.4368,-0.4744,0.8376,779,1.2207,7.5073,16.4795,113,0.8064,0.5533,-33.6759,-34.8497,29,0.9665,8499,4.0315,-149.5419
rg,1624800858334259856,1,0.4236,-0.4731,0.8345,780,1.1597,6.958,16.4185,113,0.8064,0.5533,-32.6831,-34.8127,29,0.9665,8162,4.0315,-149.2223
rg,1624800858334279708,1,0.4097,-0.4668,0.8459,781,4.4556,4.4556,17.0288,113,0.8034,0.5543,-31.7657,-34.659,29,0.9655,7997,4.0315,-148.825
rg,1624800858334296949,1,0.4172,-0.4561,0.8433,782,7.0801,-0.4883,17.5171,113,0.8064,0.5553,-31.0582,-34.4606,30,0.9665,7861,4.0315,-148.2817
rg,1624800858334314393,1,0.4219,-0.4563,0.8489,783,7.1411,-1.5869,17.2729,113,0.8064,0.5553,-30.4508,-34.2598,30,0.9665,8028,4.0315,-147.72
rg,1624800858334331263,1,0.4304,-0.4453,0.8513,784,8.667,-2.5024,17.9443,113,0.8044,0.5563,-29.8807,-34.0053,30,0.9655,7901,4.0315,-147.114
rg,1624800858334347837,1,0.4287,-0.4365,0.8525,785,6.8359,-0.7935,17.7612,113,0.8064,0.5563,-29.2833,-33.7822,30,0.9665,8076,4.0315,-146.5637
rg,1624800858334443615,1,0.4219,-0.436,0.8525,786,6.897,-1.2817,19.2871,113,0.8064,0.5573,-28.6803,-33.5923,29,0.9665,7984,4.0315,-145.9384
rg,1624800858334463634,1,0.4126,-0.4443,0.8625,787,4.6997,-0.4883,17.334,113,0.8074,0.5573,-28.09,-33.4515,29,0.9665,8115,4.0315,-145.4005
rg,1624800858334481967,1,0.3894,-0.4495,0.8621,788,4.7607,-2.8687,16.3574,113,0.8074,0.5573,-27.5766,-33.3286,29,0.9665,9600,4.0315,-144.832
rg,1624800858334500097,1,0.3855,-0.449,0.8538,789,4.8828,-7.2021,15.1978,113,0.8074,0.5623,-27.2517,-33.239,29,0.9645,8188,4.0315,-144.1931
rg,1624800858334516986,1,0.3936,-0.4473,0.8579,790,5.6763,-12.6343,14.6484,113,0.8084,0.5623,-27.1475,-33.1627,29,0.9675,8069,4.0315,-143.4423
rg,1624800858334534986,1,0.4001,-0.4485,0.864,791,4.9438,-13.9771,14.2212,113,0.8084,0.5613,-27.1106,-33.1215,29,0.9665,8252,4.0315,-142.6751
rg,1624800858334552337,1,0.4155,-0.4414,0.8506,792,3.418,-16.1743,13.6719,113,0.8084,0.5623,-27.2036,-33.1601,29,0.9665,8134,4.0315,-141.8727
rg,1624800858334578523,1,0.4265,-0.4404,0.8479,793,0.8545,-17.7612,14.3433,113,0.8074,0.5623,-27.3539,-33.3329,29,0.9665,8310,4.0315,-141.0046
rg,1624800858334596652,1,0.4275,-0.4402,0.8484,794,0.9155,-16.6626,13.6108,113,0.8084,0.5623,-27.4774,-33.4727,29,0.9675,8142,4.0315,-140.1938
rg,1624800858334614041,1,0.4324,-0.4539,0.8484,795,0.9155,-13.916,12.7563,113,0.8054,0.5633,-27.5249,-33.5915,29,0.9675,8215,4.0315,-139.4719
rg,1624800858334631634,1,0.426,-0.4529,0.8438,796,1.4038,-12.8174,13.0615,113,0.8084,0.5633,-27.5167,-33.6937,29,0.9675,11753,4.0315,-138.7612
rg,1624800858334650819,1,0.425,-0.4482,0.8447,797,2.0752,-14.3433,14.0991,113,0.8084,0.5633,-27.5358,-33.778,29,0.9665,8443,4.0315,-137.9854
rg,1624800858334669949,1,0.4331,-0.447,0.8477,798,2.1973,-14.1602,13.6108,113,0.8084,0.5643,-27.5725,-33.8385,29,0.9675,9131,4.0315,-137.2363
rg,1624800858334714449,1,0.4294,-0.4448,0.842,799,1.6479,-13.9771,13.6108,113,0.8084,0.5643,-27.5989,-33.9186,29,0.9665,8328,4.0315,-136.4919
rg,1624800858334735930,1,0.4331,-0.4404,0.8452,800,1.2817,-14.7095,14.7095,113,0.8074,0.5643,-27.6449,-34.0459,29,0.9675,8482,4.0315,-135.7094
rg,1624800858664085874,1,0.4336,-0.4524,0.8337,801,0.9766,-12.146,13.3667,113,0.8084,0.5653,-27.6124,-34.1351,29,0.9675,26609,4.0315,-135.0166
rg,1624800858664128152,1,0.4272,-0.45,0.8433,802,0.7935,-12.0239,14.3433,113,0.8084,0.5663,-27.5452,-34.2364,29,0.9665,8962,4.0315,-134.2952
rg,1624800858664148245,1,0.4255,-0.4475,0.8442,803,1.2817,-10.9863,13.5498,113,0.8084,0.5663,-27.4607,-34.2808,30,0.9675,7859,4.0315,-133.6349
rg,1624800858664167541,1,0.4253,-0.4502,0.8425,804,1.709,-12.2681,14.5264,113,0.8084,0.5643,-27.3986,-34.3327,30,0.9685,7710,4.0315,-132.9028
rg,1624800858664186541,1,0.4287,-0.4526,0.844,805,2.5635,-11.8408,14.3433,113,0.8084,0.5663,-27.333,-34.3553,30,0.9675,14620,4.0315,-132.1877
rg,1624800858664204374,1,0.4302,-0.4502,0.8372,806,2.6855,-10.8643,14.1602,113,0.8084,0.5683,-27.2478,-34.3562,29,0.9675,10556,4.0315,-131.5052
rg,1624800858664221745,1,0.4255,-0.4421,0.8506,807,3.1128,-11.5967,16.2964,113,0.8084,0.5683,-27.1304,-34.3535,29,0.9675,7791,4.0315,-130.7389
rg,1624800858664239263,1,0.4282,-0.4375,0.8438,808,2.9907,-9.7046,15.8691,113,0.8094,0.5673,-26.978,-34.3232,29,0.9685,7832,4.0315,-130.0375
rg,1624800858664257226,1,0.4253,-0.4397,0.8474,809,1.5869,-9.5825,14.8315,113,0.8094,0.5673,-26.8415,-34.3293,29,0.9675,7974,4.0315,-129.3773
rg,1624800858664274967,1,0.4229,-0.449,0.8472,810,2.9907,-10.1318,15.4419,113,0.8084,0.5693,-26.7054,-34.3136,29,0.9675,7910,4.0315,-128.672
rg,1624800858664292689,1,0.4207,-0.4475,0.842,811,2.0752,-10.9863,16.1133,113,0.8094,0.5703,-26.5876,-34.3568,29,0.9685,8345,4.0315,-127.9189
rg,1624800858664309745,1,0.429,-0.4497,0.8469,812,1.9531,-11.2305,14.4653,113,0.8094,0.5713,-26.5199,-34.4037,29,0.9685,7953,4.0315,-127.1073
rg,1624800858664326893,1,0.4246,-0.4458,0.8459,813,2.0142,-12.0239,16.0522,113,0.8084,0.5703,-26.4495,-34.4462,29,0.9675,7862,4.0315,-126.3357
rg,1624800858664343411,1,0.425,-0.4465,0.8389,814,1.8311,-12.4512,15.625,113,0.8094,0.5703,-26.4108,-34.5011,29,0.9685,7925,4.0315,-125.5653
rg,1624800858664360374,1,0.4263,-0.4502,0.8467,815,2.2583,-13.1226,16.0522,113,0.8094,0.5713,-26.3825,-34.5224,29,0.9685,7939,4.0315,-124.8568
rg,1624800858664401615,1,0.4233,-0.4453,0.8491,816,1.6479,-13.2446,16.1133,113,0.8094,0.5713,-26.3502,-34.5828,29,0.9685,8003,4.0315,-124.0564
rg,1624800858664525745,1,0.4275,-0.4509,0.8459,817,2.1973,-12.8174,14.3433,113,0.8094,0.5713,-26.3525,-34.6009,29,0.9685,7979,4.0315,-123.3257
rg,1624800858664545893,1,0.4316,-0.4478,0.843,818,3.0518,-12.5122,14.5874,113,0.8084,0.5723,-26.351,-34.5819,29,0.9675,12525,4.0315,-122.5953
rg,1624800858664564467,1,0.4341,-0.4436,0.8413,819,2.3193,-12.6343,15.7471,113,0.8094,0.5713,-26.3356,-34.6067,29,0.9685,8658,4.0315,-121.8219
rg,1624800858664583189,1,0.4331,-0.4478,0.8447,820,2.8687,-11.2305,15.1367,113,0.8094,0.5723,-26.282,-34.5869,29,0.9685,8124,4.0315,-121.1051
rg,1624800858664601337,1,0.4243,-0.4417,0.8455,821,2.0142,-11.9019,15.8081,113,0.8094,0.5733,-26.2225,-34.6049,29,0.9685,8049,4.0315,-120.3529
rg,1624800858664619171,1,0.4231,-0.4402,0.8462,822,1.8921,-10.9863,16.2354,113,0.8094,0.5733,-26.1234,-34.6186,29,0.9675,8161,4.0315,-119.6106
rg,1624800858664637152,1,0.4243,-0.4465,0.8486,823,1.5259,-11.4746,15.3198,113,0.8094,0.5743,-26.0621,-34.6465,29,0.9675,8126,4.0315,-118.8851
rg,1624800858664655985,1,0.428,-0.4497,0.8442,824,1.2207,-12.6953,15.5029,113,0.8094,0.5733,-26.0472,-34.7136,29,0.9675,9311,4.0315,-118.1169
rg,1624800858664674041,1,0.4238,-0.4456,0.8423,825,2.0752,-12.0239,14.7095,113,0.8104,0.5753,-26.024,-34.7166,29,0.9685,8184,4.0315,-117.399
rg,1624800858664691819,1,0.4299,-0.4377,0.8489,826,2.1362,-13.3667,14.9536,113,0.8094,0.5753,-26.0513,-34.7126,29,0.9685,8282,4.0315,-116.6484
rg,1624800858664708634,1,0.4329,-0.4404,0.8447,827,2.0142,-14.2822,15.8691,113,0.8064,0.5743,-26.0938,-34.7498,29,0.9675,8236,4.0315,-115.836
rg,1624800858664726948,1,0.4353,-0.4448,0.8374,828,2.5024,-13.3057,15.5029,113,0.8104,0.5753,-26.1187,-34.7678,29,0.9685,8368,4.0315,-115.0544
rg,1624800858664745800,1,0.4343,-0.448,0.8428,829,2.0142,-12.207,13.916,113,0.8094,0.5753,-26.1341,-34.8434,29,0.9685,8229,4.0315,-114.2801
rg,1624800858664763411,1,0.4382,-0.4436,0.8467,830,1.9531,-12.207,13.1226,113,0.8094,0.5743,-26.1745,-34.8165,29,0.9675,8347,4.0315,-113.6208
rg,1624800858664804115,1,0.4336,-0.4441,0.8457,831,1.8921,-11.4746,15.0146,113,0.8104,0.5763,-26.1377,-34.8172,29,0.9685,8343,4.0315,-112.9101
rg,1624800858664843208,1,0.4272,-0.448,0.8403,832,0.9766,-13.1836,15.5029,113,0.8104,0.5763,-26.1359,-34.8949,29,0.9685,8389,4.0315,-112.1316
rg,1624800859039365985,1,0.4241,-0.4497,0.8369,833,1.77,-12.8784,13.6108,113,0.8104,0.5773,-26.174,-34.9049,29,0.9685,25664,4.0315,-111.4309
rg,1624800859039409096,1,0.4343,-0.4468,0.8433,834,3.6011,-14.9536,14.6484,113,0.8104,0.5783,-26.2601,-34.8766,29,0.9685,11839,4.0315,-110.6418
rg,1624800859039428856,1,0.4417,-0.4468,0.842,835,3.1738,-12.8174,14.0991,113,0.8104,0.5773,-26.3013,-34.8365,29,0.9695,10105,4.0315,-109.926
rg,1624800859039447985,1,0.4434,-0.447,0.8376,836,3.2349,-12.6343,13.6108,113,0.8104,0.5763,-26.3169,-34.7605,29,0.9685,7659,4.0315,-109.2427
rg,1624800859039466096,1,0.4348,-0.4504,0.8398,837,3.3569,-12.4512,15.2588,113,0.8104,0.5773,-26.305,-34.7424,29,0.9685,7864,4.0315,-108.4877
rg,1624800859039483467,1,0.4348,-0.4497,0.8462,838,3.9673,-11.3525,13.3057,113,0.8104,0.5773,-26.2984,-34.6474,29,0.9685,7692,4.0315,-107.836
rg,1624800859039500967,1,0.4297,-0.4458,0.8438,839,3.7842,-11.2305,12.7563,113,0.8114,0.5783,-26.2952,-34.5472,29,0.9695,7885,4.0315,-107.2086
rg,1624800859039517800,1,0.4365,-0.4451,0.8398,840,5.5542,-11.1084,12.6953,113,0.8114,0.5793,-26.3076,-34.3819,29,0.9695,11827,4.0315,-106.5833
rg,1624800859039534096,1,0.4355,-0.4426,0.8452,841,5.3101,-12.085,14.2212,113,0.8114,0.5783,-26.2726,-34.3034,29,0.9695,8000,4.0315,-105.8848
rg,1624800859039550318,1,0.4385,-0.4316,0.8447,842,4.8218,-11.3525,15.0757,113,0.8124,0.5813,-26.2489,-34.1943,29,0.9705,9467,4.0315,-105.1722
rg,1624800859039566985,1,0.4294,-0.4392,0.8494,843,4.3335,-11.3525,14.1602,113,0.8114,0.5833,-26.2235,-34.0933,29,0.9695,7975,4.0315,-104.4918
rg,1624800859039583300,1,0.429,-0.4373,0.8477,844,2.8076,-11.7798,14.7705,113,0.8114,0.5833,-26.2015,-34.0693,29,0.9695,7833,4.0315,-103.7774
