name,time,activity,ax,ay,az,batch_val,gx,gy,gz,ibat,index,middle,pitch,roll,temp,thumb,ts,vbat,yaw
rg,1624810866032116630,1,-0.2361,-0.1072,0.9109,1,29.3579,-28.8086,13.1836,66,1.0925,0.8964,23.5609,2.1978,29,0.9865,19953,4.1074,47.109
rg,1624810866032169003,1,-0.1719,0.1797,0.9167,2,20.752,-19.104,16.4795,66,1.0895,0.9014,22.2549,3.6575,29,0.9865,8269,4.1074,47.9253
rg,1624810866032190690,1,-0.0286,0.0979,1.054,3,-11.5356,1.3428,21.1792,66,1.0915,0.9054,21.4475,3.6078,29,0.9855,7891,4.1074,48.8674
rg,1624810866032210469,1,-0.1475,-0.1592,1.1387,4,-18.1274,33.2642,17.6392,66,1.0925,0.9094,22.1881,2.7116,29,0.9865,7803,4.1074,49.5308
rg,1624810866032247804,1,-0.5017,-0.2346,1.1743,5,1.5259,55.1758,11.2305,66,1.0925,0.9124,24.4021,2.4569,29,0.9855,7729,4.1074,49.9178
rg,1624810866032268249,1,-0.6003,-0.0762,1.0818,6,7.5073,23.0103,16.9678,66,1.0925,0.9144,25.4656,2.8437,29,0.9865,7773,4.1074,50.6104
rg,1624810866032286158,1,-0.5852,-0.1216,1.0522,7,3.6621,-1.709,19.043,66,1.0925,0.9164,25.5002,2.9895,29,0.9875,7812,4.1074,51.2931
rg,1624810866032303807,1,-0.4595,-0.1501,1.0291,8,0.4883,-33.7524,17.7002,66,1.0915,0.9164,24.0658,2.8553,29,0.9855,7831,4.1074,51.8013
rg,1624810866032322308,1,-0.4041,-0.1482,1.0076,9,0.9766,-38.6963,18.6157,66,1.0925,0.9184,22.3914,2.6474,29,0.9865,7830,4.1074,52.2518
rg,1624810866032341679,1,-0.3804,-0.1841,0.9866,10,-0.5493,-36.6211,13.6719,66,1.0915,0.9204,20.8604,2.2945,29,0.9865,7939,4.1074,52.5705
rg,1624810866032361514,1,-0.3882,-0.1765,0.9619,11,0.1831,-34.4849,11.5967,66,1.0915,0.9215,19.5136,1.959,29,0.9875,9718,4.1074,52.8319
rg,1624810866032380459,1,-0.3652,-0.1167,0.9509,12,-2.5024,-34.6069,11.5967,66,1.0915,0.9215,18.1774,1.6535,29,0.9865,7866,4.1074,53.1577
rg,1624810866032398923,1,-0.3606,-0.1282,0.9624,13,-6.0425,-34.8511,10.2539,66,1.0915,0.9204,16.8691,1.1727,29,0.9875,7890,4.1074,53.4382
rg,1624810866032416850,1,-0.3433,-0.156,0.9844,14,-6.2866,-36.0718,11.1084,66,1.0915,0.9215,15.514,0.6493,29,0.9875,8058,4.1074,53.7607
rg,1624810866032434110,1,-0.3025,-0.1145,0.998,15,-8.5449,-37.9028,9.8877,66,1.0925,0.9215,14.0501,0.1288,29,0.9875,7944,4.1074,54.0828
rg,1624810866032453333,1,-0.2847,-0.1277,1.0154,16,-11.7798,-35.8276,9.8877,66,1.0925,0.9204,12.6829,-0.531,29,0.9875,8062,4.1074,54.4242
rg,1624810866032470871,1,-0.3062,-0.1545,1.04,17,-12.9395,-26.1841,6.7139,66,1.0925,0.9204,11.7849,-1.2922,29,0.9885,7983,4.1074,54.6471
rg,1624810866032490132,1,-0.3396,-0.1367,1.0483,18,-13.5498,-24.9023,5.4932,66,1.0925,0.9204,11.0362,-2.0177,29,0.9875,8171,4.1074,54.8505
rg,1624810866032506688,1,-0.3411,-0.1296,1.0491,19,-15.0757,-26.123,4.6387,66,1.0915,0.9174,10.2724,-2.7679,29,0.9875,8078,4.1074,55.0448
rg,1624810866032582303,1,-0.3401,-0.1338,1.0547,20,-15.9912,-32.0435,4.6997,66,1.0915,0.9184,9.3004,-3.531,29,0.9875,8150,4.1074,55.2745
rg,1624810866032606878,1,-0.3179,-0.1074,1.0559,21,-15.8081,-36.438,4.0283,66,1.0925,0.9184,8.151,-4.208,29,0.9885,8080,4.1074,55.5212
rg,1624810866032624916,1,-0.324,-0.093,1.0513,22,-15.9912,-38.5132,4.2725,66,1.0925,0.9184,6.9835,-4.8383,29,0.9885,8059,4.1074,55.8097
rg,1624810866032642528,1,-0.3391,-0.0957,1.012,23,-17.7612,-42.7856,3.54,66,1.0925,0.9194,5.7469,-5.5337,29,0.9865,8132,4.1074,56.1026
rg,1624810866032660103,1,-0.3486,-0.1431,0.9995,24,-20.9351,-50.5981,3.6011,66,1.0925,0.9215,4.2767,-6.4342,29,0.9875,8122,4.1074,56.4452
rg,1624810866032676678,1,-0.3394,-0.176,1.0042,25,-22.3389,-55.2979,4.3335,66,1.0935,0.9225,2.6627,-7.4287,28,0.9895,8115,4.1074,56.8714
rg,1624810866032693439,1,-0.3149,-0.2373,1.0342,26,-21.6064,-58.2886,3.7231,66,1.0895,0.9235,0.9258,-8.4819,28,0.9875,8389,4.1074,57.3283
rg,1624810866032712403,1,-0.2751,-0.2629,1.0249,27,-17.8223,-57.1289,5.0049,66,1.0925,0.9265,-0.7571,-9.4153,28,0.9885,8233,4.1074,57.8749
rg,1624810866032729311,1,-0.2617,-0.2705,1.0276,28,-16.0522,-52.7954,5.249,66,1.0925,0.9295,-2.0331,-10.1424,28,0.9895,8259,4.1074,58.3938
rg,1624810866032747775,1,-0.2458,-0.2673,1.0337,29,-8.9111,-42.9077,6.4087,66,1.0925,0.9325,-3.0814,-10.6882,29,0.9885,8281,4.1074,58.9612
rg,1624810866032764905,1,-0.2517,-0.238,1.0425,30,-5.188,-32.3486,5.8594,66,1.0935,0.9355,-3.6651,-11.004,29,0.9855,8336,4.1074,59.4395
rg,1624810866032782332,1,-0.2595,-0.2166,1.0435,31,-0.1831,-26.7944,3.7231,66,1.0925,0.9405,-3.8185,-10.9319,29,0.9895,8658,4.1074,59.7233
rg,1624810866032799407,1,0.3523,-1.2778,1.1423,32,-241.8213,-317.3218,7.9956,139,0.7234,0.6263,-16.0694,-22.6108,29,0.9665,8732,4.0766,63.8446
rg,1624810866378898841,1,0.4404,-1.1965,0.46,33,98.2666,124.5728,54.1992,139,0.7214,0.5423,-10.9538,-20.3142,29,0.9635,26427,4.0766,64.4764
rg,1624810866378947380,1,0.0737,-0.4172,0.2561,34,109.314,144.104,13.1836,139,0.7254,0.5343,-4.7325,-17.3267,29,0.9585,15970,4.0766,63.415
rg,1624810866378968418,1,-0.1213,-0.123,0.0942,35,104.8584,102.356,-54.6875,139,0.7274,0.5403,0.2198,-13.3955,29,0.9555,10430,4.0766,59.5323
rg,1624810866378988771,1,-0.3706,0.0146,-0.0117,36,75.7446,103.1494,-83.9844,139,0.7284,0.5533,5.8032,-10.5209,29,0.9535,7681,4.0766,55.4503
rg,1624810866379037052,1,-0.666,-0.0764,0.1414,37,-58.96,103.3936,-31.311,139,0.7314,0.5693,11.7085,-13.3631,29,0.9535,7627,4.0766,53.2759
rg,1624810866379060386,1,-0.7551,-0.4324,0.5295,38,-147.0337,49.8657,-0.4883,139,0.7354,0.5873,14.955,-20.0567,29,0.9555,7822,4.0766,52.4464
rg,1624810866379078739,1,-0.449,-1.4656,1.5876,39,-218.3838,-155.2124,6.958,139,0.7394,0.5983,9.3682,-29.01,29,0.9615,7698,4.0766,55.1184
rg,1624810866379097944,1,0.1655,-1.8684,1.0574,40,-63.8428,-186.6455,7.8735,139,0.7434,0.6063,2.6492,-32.3015,29,0.9685,7966,4.0766,59.0378
rg,1624810866379117315,1,0.407,-1.7649,0.9641,41,23.4985,-105.7129,53.833,139,0.7534,0.6193,3.9938,-29.3643,29,0.9765,7987,4.0766,62.6224
rg,1624810866379136520,1,0.6233,-1.3318,0.7219,42,146.4844,69.2139,122.5586,139,0.7784,0.6343,7.6822,-24.3263,29,0.9805,7783,4.0766,65.6267
rg,1624810866379155410,1,0.3889,-0.8726,0.2979,43,176.0254,110.4736,62.0728,139,0.8184,0.6443,11.6278,-18.7443,29,0.9865,7917,4.0766,66.0548
rg,1624810866379174726,1,0.1597,-0.6404,0.2292,44,167.4805,136.7188,24.4141,139,0.8474,0.6463,16.3514,-14.0079,29,0.9905,7770,4.0766,65.0309
rg,1624810866379192449,1,-0.2764,-0.3447,0.48,45,123.291,206.1768,16.6626,139,0.8654,0.6463,24.8904,-10.3051,29,0.9935,8231,4.0766,63.6535
rg,1624810866379211265,1,-0.77,-0.2991,0.6448,46,39.7949,154.0527,14.5264,139,0.8774,0.6443,31.9013,-9.4121,28,0.9955,7824,4.0766,62.9234
rg,1624810866379229043,1,-0.918,-0.374,0.4756,47,-14.6484,53.4058,0.4883,139,0.8764,0.6493,35.0118,-10.9602,28,0.9925,8020,4.0766,62.0915
rg,1624810866379260082,1,-0.6445,-0.7615,0.6226,48,-154.7852,-180.3589,2.0752,139,0.8224,0.6543,28.2319,-17.4107,28,0.9875,7867,4.0766,63.4325
rg,1624810866379280250,1,0.1003,-1.0786,0.9614,49,-214.1113,-298.7061,3.2349,139,0.7664,0.6453,16.1948,-25.3312,28,0.9795,7895,4.0766,67.7238
rg,1624810866379298454,1,0.3423,-1.271,0.8152,50,-184.9365,-273.0103,1.8921,139,0.7394,0.6383,5.7504,-32.8253,29,0.9725,8100,4.0766,72.904
rg,1624810866379315529,1,0.5928,-1.512,0.459,51,-111.8774,-165.7104,29.4189,139,0.7314,0.6293,0.1175,-38.3924,29,0.9645,7967,4.0766,77.6273
rg,1624810866379332623,1,0.478,-1.2966,0.6418,52,-31.25,4.5776,24.0479,139,0.7344,0.5813,0.1536,-40.5435,29,0.9645,8146,4.0766,78.262
rg,1624810866379349642,1,-0.0037,-0.97,0.4958,53,72.5708,107.1777,14.8315,134,0.7344,0.5623,3.8193,-38.5832,29,0.9635,13997,4.0502,75.979
rg,1624810866379381903,1,-0.1553,-0.7007,0.335,54,73.3643,82.1533,13.855,134,0.7354,0.5613,7.0544,-36.7715,29,0.9625,8015,4.0502,74.3375
rg,1624810866379402608,1,-0.2727,-0.4375,0.0735,55,94.5435,52.6123,-22.3389,134,0.7364,0.5633,9.2425,-34.6212,29,0.9615,8140,4.0502,72.2173
rg,1624810866379420146,1,-0.3096,-0.1257,0.0422,56,98.2056,23.3154,-41.9312,134,0.7374,0.5693,11.0463,-31.5782,29,0.9615,8059,4.0502,70.2428
rg,1624810866379437758,1,-0.3777,-0.0198,0.061,57,77.7588,37.0483,-38.0859,134,0.7394,0.5813,13.674,-28.8241,29,0.9615,8279,4.0502,68.2065
rg,1624810866379455870,1,-0.4709,-0.1035,0.2798,58,-46.4478,11.3525,3.1128,134,0.7434,0.6043,15.7046,-30.5214,29,0.9665,8785,4.0502,68.109
rg,1624810866379473204,1,-0.3376,-0.9915,1.2617,59,-171.875,-122.9858,7.1411,134,0.7474,0.6183,11.6485,-36.9426,29,0.9675,8827,4.0502,71.0928
rg,1624810866379492168,1,0.0764,-1.8357,1.2515,60,-106.8115,-166.9312,-11.4746,134,0.7544,0.6273,5.6989,-41.3391,29,0.9745,8146,4.0502,74.8685
rg,1624810866379509817,1,0.2271,-1.8159,0.9309,61,-6.1035,-122.2534,8.9722,134,0.7664,0.6423,1.8502,-42.166,29,0.9835,8236,4.0502,78.325
rg,1624810866379527133,1,0.4646,-1.3997,0.6318,62,127.1973,18.1885,89.2334,134,0.7964,0.6563,3.9764,-37.8385,29,0.9905,8385,4.0502,80.529
rg,1624810866379549375,1,0.3306,-0.7981,0.4087,63,161.9873,66.5894,48.1567,134,0.8274,0.6653,6.3359,-32.2782,29,0.9945,8273,4.0502,80.4601
rg,1624810866379566598,1,0.1274,-0.5588,0.438,64,147.2168,92.9565,17.5171,134,0.8514,0.6703,10.5113,-28.0953,29,0.9995,8390,4.0502,78.068
rg,1624810866752745266,1,-0.3333,-0.865,0.6741,65,-126.4038,-102.6001,-16.6016,134,0.7554,0.6583,3.7573,-35.6684,29,0.9855,27069,4.0502,81.3079
rg,1624810866752781694,1,0.2395,-1.1697,0.8857,66,-193.4204,-243.3472,-15.686,134,0.7384,0.6493,-4.5516,-44.0723,29,0.9775,10919,4.0502,87.0395
rg,1624810866752802732,1,0.4873,-1.4109,0.4983,67,-111.2671,-175.8423,18.8599,134,0.7334,0.6213,-9.2913,-50.1498,29,0.9705,7807,4.0502,92.8466
rg,1624810866752822770,1,0.6467,-1.2957,0.8494,68,-28.5034,-38.208,41.9312,134,0.7364,0.5773,-9.467,-51.8861,29,0.9725,7852,4.0502,95.1638
rg,1624810866752842197,1,0.4321,-1.1816,0.4763,69,38.9404,47.0581,45.5322,134,0.7354,0.5613,-7.2574,-50.8758,29,0.9705,7787,4.0502,94.9133
rg,1624810866752860235,1,0.2759,-0.8423,0.4299,70,66.1011,69.397,42.1753,134,0.7364,0.5543,-4.5504,-48.5776,29,0.9685,7853,4.0502,93.9215
rg,1624810866752877662,1,-0.0535,-0.5566,0.1296,71,83.0688,96.4355,-1.1597,134,0.7344,0.5493,-1.6215,-46.1726,29,0.9665,10040,4.0502,91.1371
rg,1624810866752895718,1,-0.166,-0.2178,-0.0156,72,93.2617,86.792,-17.0288,134,0.7384,0.5533,1.7446,-43.7912,29,0.9645,7876,4.0502,88.27
rg,1624810866752913275,1,-0.249,-0.1121,0.0066,73,88.7451,99.3652,-16.9067,134,0.7404,0.5643,6.2495,-41.1021,29,0.9625,7871,4.0502,85.1131
rg,1624810866752970074,1,-0.3691,-0.0588,0.2002,74,-12.9395,94.6045,18.1885,134,0.7444,0.5823,11.4055,-41.4442,29,0.9635,7921,4.0502,83.1857
rg,1624810866752991260,1,-0.4858,-0.8662,0.9978,75,-153.8086,-14.7095,12.207,134,0.7484,0.6103,8.6011,-47.8206,29,0.9665,12952,4.0502,85.6764
rg,1624810866753009761,1,-0.272,-1.8057,1.1072,76,-109.6802,-133.1177,-9.8267,134,0.7524,0.6213,4.8539,-52.1515,29,0.9735,7883,4.0502,89.4716
rg,1624810866753028225,1,0.2305,-1.572,0.9666,77,25.3296,-70.2515,35.3394,134,0.7604,0.6323,3.7581,-51.1428,29,0.9805,7974,4.0502,92.5364
rg,1624810866753046152,1,0.3772,-1.3108,0.9099,78,81.3599,2.5024,69.1528,134,0.7784,0.6503,5.1606,-48.0629,29,0.9885,7963,4.0502,94.2091
rg,1624810866753063838,1,0.3594,-1.0225,0.4463,79,145.874,71.7773,88.4399,134,0.8094,0.6663,8.8016,-42.8726,29,0.9945,7990,4.0502,94.5313
rg,1624810866753081265,1,0.1428,-0.7217,0.2776,80,128.7842,100.4639,35.8887,134,0.8404,0.6753,12.0476,-39.0144,29,1.0005,9286,4.0502,92.7702
rg,1624810866753098544,1,-0.2644,-0.5051,0.4849,81,95.8862,145.4468,17.4561,134,0.8584,0.6763,17.3933,-36.2408,29,1.0015,8060,4.0502,89.6171
rg,1624810866753115174,1,-0.4668,-0.4524,0.5854,82,70.1294,143.0054,16.4185,134,0.8684,0.6733,22.9841,-34.5044,29,1.0035,8091,4.0502,86.6495
rg,1624810866753131657,1,-0.7026,-0.4443,0.5464,83,-24.231,13.1836,6.4697,134,0.8654,0.6753,24.4046,-35.6468,29,1.0035,8092,4.0502,86.4884
rg,1624810866753148787,1,-0.3467,-0.7939,0.6946,84,-151.7944,-179.2603,3.2349,134,0.8074,0.6693,18.6488,-40.4337,29,1.0005,8100,4.0502,91.1415
rg,1624810866753165677,1,-0.0564,-0.9812,0.8013,85,-189.3921,-232.9102,-2.4414,134,0.7574,0.6553,11.2705,-46.695,29,0.9935,8197,4.0502,97.5976
rg,1624810866753182456,1,0.3125,-1.3547,0.6826,86,-167.5415,-217.7734,-4.0283,134,0.7384,0.6403,4.7141,-53.0751,29,0.9875,8113,4.0502,104.1258
rg,1624810866753199271,1,0.4976,-1.5103,0.542,87,-89.1724,-125.7324,31.25,134,0.7374,0.6093,2.0323,-56.9643,29,0.9835,8205,4.0502,108.9436
rg,1624810866753217069,1,0.5854,-1.4478,0.9822,88,-39.4287,-46.2646,40.1611,134,0.7384,0.5683,1.8408,-58.9621,29,0.9855,8151,4.0502,111.3544
rg,1624810866753234032,1,0.3259,-1.2212,0.4265,89,63.5986,62.5,47.0581,134,0.7394,0.5583,4.1258,-56.9203,29,0.9825,8232,4.0502,110.1981
rg,1624810866753251848,1,0.0522,-0.8467,0.3796,90,91.6138,91.6138,9.3994,134,0.7394,0.5523,6.2108,-53.8594,29,0.9815,8587,4.0502,107.3463
rg,1624810866753268571,1,-0.1462,-0.4302,-0.0044,91,136.5967,98.5107,-20.0806,134,0.7394,0.5503,8.5285,-50.1608,29,0.9785,8229,4.0502,103.5946
rg,1624810866753285443,1,-0.2939,-0.0676,0.0059,92,139.8926,111.084,-44.7388,134,0.7404,0.5563,12.279,-45.6875,29,0.9805,8239,4.0502,99.0733
rg,1624810866753302184,1,-0.4316,0.0342,-0.0278,93,122.5586,126.6479,-43.1519,134,0.7434,0.5713,16.9635,-41.9996,29,0.9795,8281,4.0502,94.2496
rg,1624810866753318963,1,-0.6213,-0.0144,0.0923,94,-27.5879,80.8105,4.8218,134,0.7454,0.5943,21.5083,-43.6251,29,0.9805,8432,4.0502,92.0992
rg,1624810866753336316,1,-0.6194,-0.8655,1.0532,95,-188.5376,-80.0781,14.2822,134,0.7494,0.6113,19.8662,-49.9411,29,0.9855,8330,4.0502,95.0695
rg,1624810866753352928,1,-0.3704,-1.4814,1.7429,96,-209.3506,-164.1846,4.8218,134,0.7534,0.6183,14.499,-53.8736,29,0.9905,8377,4.0502,101.3971
rg,1624810867111562990,1,0.4556,-1.2405,0.5894,97,148.5596,35.2173,81.1157,134,0.7994,0.6543,16.7417,-48.1245,29,1.0095,25817,4.0502,102.1979
rg,1624810867111683237,1,-0.0581,-0.4348,0.3743,98,145.4468,112.9761,14.8315,134,0.8364,0.6643,19.8629,-43.3022,29,1.0135,14552,4.0502,99.1908
rg,1624810867111717461,1,-0.6626,-0.366,0.6118,99,65.3687,131.1035,16.1743,134,0.8454,0.6693,23.2463,-43.1458,29,1.0165,11336,4.0502,97.0697
rg,1624810867111785649,1,-0.7954,-0.4766,0.5413,100,-39.7949,-2.9297,-8.1787,134,0.8274,0.6743,23.8746,-44.7441,29,1.0175,7745,4.0502,96.9145
rg,1624810867111820318,1,-0.4651,-0.8511,0.7024,101,-169.0063,-222.5952,-13.9771,134,0.7784,0.6773,17.4183,-49.3908,29,1.0155,7875,4.0502,103.3822
rg,1624810867111855079,1,-0.1184,-0.9917,0.8523,102,-210.022,-296.0815,-17.5781,134,0.7444,0.6673,8.7568,-55.7825,29,1.0085,7809,4.0502,112.5754
rg,1624810867111883265,1,0.4546,-1.3999,0.769,103,-185.791,-287.5977,-9.4604,134,0.7334,0.6513,1.649,-62.501,29,0.9995,7824,4.0502,122.2722
rg,1624810867111935157,1,0.7009,-1.5547,0.6216,104,-86.731,-149.9023,25.2075,134,0.7374,0.5803,-0.9579,-66.1017,29,1.0045,9344,4.0502,128.1293
rg,1624810867111973992,1,0.4348,-1.3647,0.3787,105,46.1426,51.4526,38.147,134,0.7364,0.5593,0.6458,-64.5569,29,1.0035,7935,4.0502,126.8841
rg,1624810867112001549,1,0.4165,-1.1057,0.4915,106,65.6738,59.2041,42.2974,134,0.7374,0.5483,2.4457,-62.0139,29,1.0015,7817,4.0502,125.5018
rg,1624810867112027532,1,0.0605,-0.6448,0.2695,107,106.5674,89.1113,-4.6997,134,0.7374,0.5423,3.7533,-58.1292,29,1.0005,8572,4.0502,122.2932
rg,1624810867112060793,1,-0.1309,-0.2041,-0.0042,108,133.1177,81.1157,-30.3345,134,0.7394,0.5423,5.658,-54.1272,29,1.0005,9773,4.0502,118.8873
rg,1624810867112089887,1,-0.2896,0.0315,-0.113,109,123.1079,115.1123,-26.5503,134,0.7414,0.5543,9.7742,-50.327,29,0.9975,7889,4.0502,114.5853
rg,1624810867112118240,1,-0.3655,0.0891,-0.1169,110,67.749,124.6948,-5.188,134,0.7434,0.5723,15.043,-48.6781,29,0.9985,7965,4.0502,110.5661
rg,1624810867112148205,1,-0.4854,-0.3337,0.2764,111,-143.2495,60.1196,22.644,134,0.7474,0.5983,18.4622,-54.8467,29,0.9955,7982,4.0502,109.0981
rg,1624810867112175965,1,-0.3967,-1.7734,2.2395,112,-223.0225,-25.3906,12.2681,134,0.7514,0.6093,15.7396,-62.5481,29,1.0035,8044,4.0502,113.4575
rg,1624810867112203744,1,-0.22,-2.0178,1.1873,113,-139.8315,-154.1138,0,134,0.7554,0.6183,12.7102,-66.5709,29,1.0095,7993,4.0502,119.2478
rg,1624810867112231338,1,0.4197,-1.8884,0.844,114,61.6455,-81.2378,60.0586,134,0.7684,0.6323,12.5809,-63.1806,29,1.0135,8156,4.0502,123.2815
rg,1624810867112260525,1,0.5227,-1.2527,0.4937,115,184.2041,51.8188,92.2241,134,0.7984,0.6453,15.5326,-56.0283,29,1.0185,8066,4.0502,123.2225
rg,1624810867112288378,1,0.3894,-0.8843,0.2717,116,216.1865,80.5054,69.8242,134,0.8254,0.6523,18.3172,-48.3218,29,1.0215,8222,4.0502,122.075
rg,1624810867112318732,1,0.0366,-0.3003,0.2324,117,175.5371,153.5645,32.4097,134,0.8444,0.6543,22.5917,-42.7946,29,1.0245,8039,4.0502,118.2596
rg,1624810867112345270,1,-0.4133,-0.1094,0.708,118,69.519,187.9272,20.4468,134,0.8554,0.6533,29.1004,-40.9249,29,1.0255,8247,4.0502,113.8391
rg,1624810867112374975,1,-0.7317,-0.2837,0.7195,119,3.8452,138.4888,5.6763,134,0.8534,0.6573,33.9627,-42.2726,29,1.0255,8046,4.0502,110.0232
rg,1624810867112403902,1,-0.8386,-0.8264,0.6096,120,-120.8496,-94.7266,-7.5684,134,0.8084,0.6663,31.2674,-45.9415,29,1.0215,8534,4.0502,112.6741
rg,1624810867112431682,1,0.2119,-1.2334,0.873,121,-197.4487,-287.3535,-3.54,134,0.7504,0.6643,22.1358,-49.9406,29,1.0115,12984,4.0502,121.9408
rg,1624810867112458090,1,0.4045,-1.4128,0.6995,122,-151.4893,-246.1548,1.2817,134,0.7394,0.6613,14.8206,-53.8986,29,1.0065,8267,4.0502,129.9638
rg,1624810867112485703,1,0.5776,-1.5054,0.3398,123,-54.9927,-116.272,34.9121,134,0.7384,0.6063,12.0249,-55.8281,29,1.0005,8210,4.0502,134.4983
rg,1624810867112518760,1,0.4207,-1.0881,0.803,124,29.7852,44.1895,17.9443,134,0.7414,0.5743,12.4992,-54.7704,29,1.0035,8336,4.0502,133.4317
rg,1624810867112662304,1,0.1648,-0.9512,0.501,125,76.4771,91.0034,16.6016,134,0.7424,0.5653,14.4109,-52.7666,29,1.0015,8208,4.0502,130.6987
rg,1624810867112697528,1,0.0083,-0.6367,0.271,126,72.8149,73.3643,5.4321,134,0.7414,0.5613,15.8043,-51.0159,29,1.0005,9587,4.0502,128.2884
rg,1624810867112724455,1,-0.2275,-0.3425,0.0476,127,101.3794,74.1577,-34.3628,134,0.7424,0.5633,17.4059,-48.9196,29,1.0005,9703,4.0502,124.7338
rg,1624810867112779273,1,-0.2959,-0.0872,-0.0056,128,96.6187,85.6934,-21.7285,134,0.7454,0.5713,20.9877,-46.6125,29,1.0015,8402,4.0502,121.3291
rg,1624810867474080203,1,-0.4375,-1.0903,1.2339,129,-196.8994,-99.3042,1.0986,134,0.7544,0.6163,18.2501,-53.1464,29,1.0065,25822,4.0502,124.6771
rg,1624810867474117483,1,0.2134,-1.7759,0.8774,130,-102.6001,-169.9219,-6.8359,134,0.7624,0.6283,14.8619,-52.7649,29,1.0155,12881,4.0502,128.9096
rg,1624810867474137836,1,0.417,-1.5242,0.8235,131,51.5747,-39.917,59.6924,134,0.7744,0.6413,14.6692,-50.3318,29,1.0205,7842,4.0502,131.6211
rg,1624810867474157467,1,0.4487,-1.075,0.6023,132,114.1357,69.519,76.9043,134,0.7944,0.6533,17.5182,-46.1913,29,1.0235,7909,4.0502,131.4302
rg,1624810867474175764,1,0.0425,-0.7693,0.4402,133,113.4033,89.2944,42.5415,134,0.8154,0.6653,19.8985,-43.6533,29,1.0275,7714,4.0502,128.4026
rg,1624810867474193431,1,-0.1804,-0.6748,0.4656,134,87.4634,110.9619,-6.2256,134,0.8324,0.6733,22.6842,-41.8867,29,1.0295,7898,4.0502,124.7972
rg,1624810867474211173,1,-0.5215,-0.627,0.5505,135,50.9033,84.0454,-1.8311,134,0.8434,0.6843,25.5043,-41.1168,29,1.0355,10438,4.0502,122.2002
rg,1624810867474228637,1,-0.6274,-0.6118,0.5349,136,-17.7612,-48.5229,-4.0894,134,0.8374,0.6963,24.4266,-41.5416,29,1.0335,8489,4.0502,123.3715
rg,1624810867474245860,1,-0.1931,-0.8313,0.6604,137,-125.3052,-198.9746,-2.9907,134,0.7904,0.7033,18.0446,-44.8596,29,1.0285,8089,4.0502,128.9697
rg,1624810867474262657,1,0.0464,-0.9966,0.678,138,-163.3911,-238.1592,-9.8267,134,0.7524,0.6923,10.5979,-50.0807,29,1.0195,8381,4.0502,135.8239
rg,1624810867474280028,1,0.3335,-1.3972,0.6211,139,-156.0059,-223.4497,-11.6577,134,0.7404,0.6553,4.031,-56.0182,29,1.0125,8434,4.0502,142.6576
rg,1624810867474297159,1,0.4663,-1.531,0.6707,140,-58.4106,-97.168,21.8506,134,0.7434,0.5813,1.9177,-58.5212,29,1.0145,8713,4.0502,146.3934
rg,1624810867474335975,1,0.3208,-1.3396,0.3313,141,73.3643,36.8042,57.312,134,0.7434,0.5623,4.0477,-56.2517,29,1.0135,8520,4.0502,146.3456
rg,1624810867474356402,1,0.2107,-0.8479,0.3772,142,98.999,34.1797,64.7583,134,0.7434,0.5413,5.9216,-51.9145,29,1.0115,8762,4.0502,145.5224
rg,1624810867474374329,1,-0.0273,-0.3599,0.0005,143,164.4287,66.6504,-5.8594,134,0.7434,0.5343,7.4555,-47.0064,29,1.0095,8281,4.0502,143.1822
rg,1624810867474392367,1,-0.1458,0.0366,0.0181,144,168.1519,92.5293,-30.8228,134,0.7444,0.5383,11.4455,-40.2819,29,1.0075,10387,4.0502,139.9056
rg,1624810867474410849,1,-0.3696,0.2263,-0.1328,145,97.7783,123.3521,-11.2305,134,0.7454,0.5473,17.0545,-36.79,29,1.0065,7872,4.0502,136.5287
rg,1624810867474428813,1,-0.4209,0.1741,-0.1309,146,-10.6812,99.3652,12.3901,134,0.7484,0.5613,22.7172,-37.6375,29,1.0075,8035,4.0502,134.464
rg,1624810867474446277,1,-0.4971,-0.5837,0.7385,147,-244.0186,-27.0996,11.2915,134,0.7504,0.5823,22.4249,-46.9379,29,1.0115,8899,4.0502,135.5903
rg,1624810867474463945,1,-0.2212,-2.0955,1.9302,148,-238.3423,-181.7017,-16.1743,134,0.7544,0.6033,16.6806,-54.5784,29,1.0115,8578,4.0502,141.1617
rg,1624810867474481149,1,0.2368,-1.9141,0.657,149,11.1084,-108.6426,26.2451,134,0.7574,0.6193,14.1191,-53.6324,29,1.0185,8774,4.0502,145.2563
rg,1624810867474500261,1,0.4651,-1.5686,0.9009,150,59.1431,-23.3765,67.3218,134,0.7644,0.6313,14.5951,-50.9131,29,1.0245,8546,4.0502,147.626
rg,1624810867474518929,1,0.3284,-0.9282,0.7073,151,135.437,78.9795,61.8286,134,0.7824,0.6473,17.3772,-45.7923,29,1.0275,8432,4.0502,146.7984
rg,1624810867474536578,1,0.0818,-0.7461,0.4187,152,113.2202,90.3931,32.2266,134,0.8114,0.6623,19.9953,-42.4274,29,1.0315,8949,4.0502,144.9002
rg,1624810867474553357,1,-0.1929,-0.7644,0.4692,153,66.5283,90.8813,11.7798,134,0.8344,0.6733,22.7168,-41.2348,29,1.0355,8411,4.0502,142.4389
rg,1624810867474569876,1,-0.3459,-0.7434,0.4749,154,60.4858,84.4116,6.2256,134,0.8524,0.6793,25.6282,-40.2451,29,1.0375,8642,4.0502,140.0235
rg,1624810867474586710,1,-0.4819,-0.6504,0.5215,155,34.6069,22.7661,8.3008,134,0.8624,0.6823,26.7198,-39.4342,29,1.0395,8454,4.0502,139.4785
rg,1624810867474603378,1,-0.3257,-0.614,0.564,156,-30.2124,-88.9893,7.4463,134,0.8674,0.6833,23.9734,-39.769,29,1.0405,9023,4.0502,142.1081
rg,1624810867474632416,1,0.053,-0.8201,0.7166,157,-117.7979,-154.4189,13.916,134,0.8254,0.6873,18.7274,-43.0712,29,1.0355,8486,4.0502,146.8214
rg,1624810867474650510,1,0.2698,-1.1206,0.5918,158,-153.0151,-165.5884,4.2725,134,0.7634,0.6763,13.1493,-49.3129,29,1.0275,9084,4.0502,151.0152
rg,1624810867474687382,1,0.2747,-1.2629,0.5454,159,-156.6162,-130.3711,-13.2446,134,0.7424,0.6633,8.6525,-55.4772,29,1.0215,8962,4.0502,154.7881
rg,1624810867474710327,1,0.3113,-1.4165,0.4602,160,-78.8574,-52.002,21.0571,134,0.7424,0.5923,7.4573,-58.9302,29,1.0175,8410,4.0502,156.9414
rg,1624810867821890592,1,0.0396,-0.8467,0.4299,161,77.2705,57.9834,36.0718,134,0.7444,0.5423,9.8812,-56.3949,29,1.0225,26297,4.0502,155.6845
rg,1624810867821931538,1,-0.1702,-0.3447,0.0183,162,126.709,51.0254,-7.2632,134,0.7454,0.5403,11.5089,-52.7239,29,1.0195,14303,4.0502,153.6636
rg,1624810867821953910,1,-0.2795,-0.0127,0.0854,163,110.1074,77.7588,-21.6675,134,0.7464,0.5503,14.8191,-48.5195,29,1.0185,7692,4.0502,150.8098
rg,1624810867821974818,1,-0.4224,0.0254,0.1538,164,0.9766,81.0547,13.7329,93,0.7484,0.5623,19.314,-48.4116,29,1.0195,7829,4.0865,148.8337
rg,1624810867821994875,1,-0.4597,-0.2583,0.3608,165,-88.9893,33.6914,22.8882,93,0.7514,0.5813,21.1086,-51.8454,29,1.0215,7695,4.0865,148.4401
rg,1624810867822013691,1,-0.343,-1.1941,1.3567,166,-205.7495,-122.1313,2.3193,93,0.7534,0.6033,18.0249,-58.1613,29,1.0245,7696,4.0865,152.9234
rg,1624810867822032655,1,0.0046,-1.8601,0.9128,167,-88.9893,-144.104,-1.4648,93,0.7564,0.6183,14.3511,-60.4931,29,1.0275,7946,4.0865,158.001
rg,1624810867822051359,1,0.1531,-1.7478,0.769,168,-3.9062,-98.1445,21.9116,93,0.7624,0.6293,12.4414,-59.9525,29,1.0335,7741,4.0865,161.8929
rg,1624810867822069656,1,0.3335,-1.2305,0.7588,169,98.5718,27.2827,72.998,93,0.7824,0.6423,14.5073,-55.7999,29,1.0365,9668,4.0865,162.5068
rg,1624810867822136086,1,0.1687,-0.8201,0.4714,170,118.6523,49.3164,35.7666,93,0.8074,0.6553,15.8735,-51.439,29,1.0405,7778,4.0865,161.6533
rg,1624810867822158105,1,0.0332,-0.6931,0.4124,171,99.8535,58.7769,18.6157,93,0.8264,0.6623,17.6614,-49.0746,29,1.0425,7952,4.0865,159.6034
rg,1624810867822178421,1,-0.2605,-0.6277,0.5198,172,53.3447,77.8809,6.8359,93,0.8394,0.6683,19.9183,-47.7173,29,1.0455,7810,4.0865,157.3163
rg,1624810867822198107,1,-0.5076,-0.667,0.6201,173,-4.8828,25.3296,-2.8076,93,0.8414,0.6753,20.868,-48.1855,29,1.0465,8012,4.0865,156.4427
rg,1624810867822219534,1,-0.552,-0.7161,0.6235,174,-54.0161,-37.1704,-10.7422,93,0.8064,0.6813,19.5169,-50.1036,29,1.0435,7823,4.0865,157.3198
rg,1624810867822256999,1,-0.1245,-0.8882,0.6108,175,-157.7759,-177.5513,-18.8599,93,0.7574,0.6753,14.1366,-55.0383,29,1.0295,8034,4.0865,162.6819
rg,1624810867822279222,1,0.1589,-1.2058,0.6646,176,-169.0063,-195.7397,-26.5503,93,0.7444,0.6663,8.3227,-60.8025,29,1.0185,7909,4.0865,168.8423
rg,1624810867822299334,1,0.2566,-1.3591,0.6123,177,-120.7275,-163.8184,-10.1318,93,0.7434,0.6133,4.1382,-65.3565,29,1.0175,8128,4.0865,-185.4891
rg,1624810867822318576,1,0.5024,-1.4805,0.7944,178,-25.8179,-55.2368,35.9497,93,0.7424,0.5773,3.7391,-66.0526,29,1.0205,7950,4.0865,-182.8659
rg,1624810867822337762,1,0.3889,-1.2739,0.3489,179,54.6875,19.4702,45.4712,93,0.7444,0.5653,4.9291,-64.1805,29,1.0205,8148,4.0865,-182.849
rg,1624810867822357949,1,0.084,-0.7683,0.2239,180,81.4819,40.8936,27.0996,93,0.7454,0.5593,5.8749,-59.8331,29,1.0205,8027,4.0865,-184.983
rg,1624810867822375690,1,-0.0818,-0.2346,-0.0459,181,153.0762,67.627,-7.3242,93,0.7464,0.5543,7.3481,-55.0984,29,1.0175,10068,4.0865,-188.0297
rg,1624810867822394784,1,-0.1599,-0.02,-0.0078,182,167.1753,94.8486,-30.2124,93,0.7464,0.5573,10.9051,-49.2696,29,1.0165,8000,4.0865,168.2771
rg,1624810867822413581,1,-0.3789,0.2061,-0.1294,183,110.7788,141.8457,-10.2539,93,0.7494,0.5733,16.5084,-45.7392,29,1.0175,8407,4.0865,163.7945
rg,1624810867822436564,1,-0.5105,-0.1184,0.0444,184,-111.5723,83.4961,30.3345,93,0.7514,0.5923,21.5728,-51.0275,29,1.0185,8097,4.0865,161.8424
rg,1624810867822480010,1,-0.5664,-0.5449,0.5881,185,-210.022,5.188,21.3623,93,0.7544,0.6123,22.9315,-58.9861,29,1.0175,8264,4.0865,162.2557
rg,1624810867822501993,1,-0.3701,-2.0066,2.0029,186,-234.0088,-169.8608,-5.188,93,0.7574,0.6253,19.0565,-65.4505,29,1.0215,8098,4.0865,168.8425
rg,1624810867822521086,1,0.125,-1.8491,0.6482,187,6.5918,-148.0713,18.0664,93,0.7624,0.6363,16.3036,-63.573,29,1.0285,8385,4.0865,-185.3022
rg,1624810867822643000,1,0.3906,-1.5957,0.8467,188,64.3311,-72.7539,58.6548,93,0.7764,0.6473,17.6731,-58.4306,29,1.0345,8734,4.0865,-183.4682
rg,1624810867822672779,1,0.4617,-1.0605,0.6582,189,144.8975,24.9023,66.7725,93,0.8024,0.6593,19.0304,-52.4241,29,1.0385,8444,4.0865,-182.8196
rg,1624810867822692650,1,0.1489,-0.6675,0.2573,190,133.0566,62.9883,10.0708,93,0.8254,0.6713,19.8062,-48.3846,29,1.0435,8330,4.0865,-184.8723
rg,1624810867822713651,1,-0.1777,-0.531,0.4568,191,79.0405,103.8818,-1.0986,93,0.8424,0.6793,22.3408,-46.45,29,1.0445,8423,4.0865,-188.203
rg,1624810867822737856,1,-0.3225,-0.5254,0.5571,192,51.1475,92.5293,3.8452,93,0.8524,0.6843,25.2736,-45.4249,29,1.0475,8298,4.0865,169.045
rg,1624810868180113551,1,-0.0112,-0.9436,0.6375,193,-174.2554,-197.8149,-22.7051,93,0.7454,0.6873,18.4277,-50.6851,29,1.0285,27504,4.0865,-185.4165
rg,1624810868180154238,1,0.3398,-1.4275,0.5232,194,-108.8867,-165.7104,1.8311,93,0.7414,0.6193,13.3395,-54.2495,29,1.0245,15319,4.0865,-180.1103
rg,1624810868180174480,1,0.6042,-1.4009,0.8765,195,-18.0054,-40.9546,44.3726,93,0.7424,0.5823,12.5799,-54.5484,29,1.0275,7794,4.0865,-177.715
rg,1624810868180193944,1,0.3574,-1.1267,0.3706,196,45.105,38.9404,49.0112,93,0.7434,0.5683,14.4437,-52.1459,29,1.0265,7858,4.0865,-178.1181
rg,1624810868180212741,1,0.2637,-0.9331,0.4712,197,88.2568,56.6406,41.1987,93,0.7424,0.5573,16.0645,-49.2531,29,1.0255,7809,4.0865,-178.9995
rg,1624810868180254873,1,-0.062,-0.6045,0.1296,198,113.1592,82.0312,-3.7842,93,0.7444,0.5483,17.8073,-46.6358,29,1.0245,10656,4.0865,-181.9781
rg,1624810868180274411,1,-0.1965,-0.1892,0.0212,199,113.3423,76.9653,-28.1372,93,0.7454,0.5493,20.3227,-44.1345,29,1.0255,8299,4.0865,-185.4125
rg,1624810868180292930,1,-0.3586,0.0342,0.0171,200,100.8301,104.7974,-13.0005,93,0.7464,0.5583,25.165,-41.191,29,1.0225,7945,4.0865,171.242
rg,1624810868180310987,1,-0.4021,0.0779,0.0288,201,38.147,95.8252,14.7095,93,0.7484,0.5713,30.5035,-40.257,29,1.0225,7838,4.0865,169.1422
rg,1624810868180328339,1,-0.4622,-0.4661,0.5354,202,-157.8369,-7.3853,27.8931,93,0.7524,0.5923,31.1429,-45.9607,29,1.0255,8020,4.0865,170.3088
rg,1624810868180348933,1,-0.3228,-1.8552,1.9475,203,-226.1353,-166.0156,-10.376,93,0.7574,0.6163,25.6102,-52.2744,29,1.0275,7941,4.0865,-184.1815
rg,1624810868180367026,1,-0.1704,-2.0356,1.0229,204,-123.0469,-177.063,-10.376,93,0.7624,0.6303,20.31,-55.3072,29,1.0325,8038,4.0865,-178.4193
rg,1624810868180384490,1,0.3186,-1.6626,0.7744,205,50.9644,-74.9512,54.8706,93,0.7714,0.6433,19.1887,-52.3314,29,1.0385,7957,4.0865,-174.6423
rg,1624810868180403046,1,0.4688,-1.0713,0.5554,206,134.3384,23.4375,85.6934,93,0.7924,0.6593,20.9415,-46.84,29,1.0425,8044,4.0865,-173.2549
rg,1624810868180421010,1,0.3774,-0.8401,0.3657,207,139.2212,41.0156,57.251,93,0.8154,0.6703,22.2015,-41.871,29,1.0455,8161,4.0865,-173.0795
rg,1624810868180438733,1,-0.0159,-0.5786,0.3862,208,87.7686,89.9658,-4.4556,93,0.8304,0.6803,24.0014,-40.0451,29,1.0475,8082,4.0865,-176.0425
rg,1624810868180456327,1,-0.439,-0.5515,0.6262,209,26.001,93.9941,-8.1787,93,0.8364,0.6893,26.7873,-40.3206,29,1.0505,8025,4.0865,-179.0293
rg,1624810868180473661,1,-0.5393,-0.686,0.561,210,-71.7773,-30.8838,-6.7139,93,0.7964,0.7013,25.8767,-43.2568,29,1.0405,11820,4.0865,-178.5086
rg,1624810868180491458,1,-0.1475,-0.9236,0.5898,211,-193.2983,-192.8101,-31.4331,93,0.7574,0.6963,19.0191,-49.5912,29,1.0225,8104,4.0865,-173.6226
rg,1624810868180508885,1,0.0166,-1.1118,0.679,212,-198.3643,-224.3652,-33.0811,93,0.7454,0.6793,11.8426,-56.0947,29,1.0095,8171,4.0865,-167.1233
rg,1624810868180526293,1,0.3962,-1.4978,0.533,213,-84.7778,-167.0532,13.3057,93,0.7444,0.6043,7.7519,-58.9782,29,1.0065,8123,4.0865,-161.2045
rg,1624810868180562739,1,0.6025,-1.5068,0.583,214,4.7607,-30.0903,53.3447,93,0.7434,0.5813,7.8888,-58.8481,29,1.0085,8205,4.0865,-159.1084
rg,1624810868180584388,1,0.5154,-1.3696,0.3477,215,51.9409,20.5078,56.0913,93,0.7434,0.5693,9.2132,-55.8786,29,1.0075,8834,4.0865,-159.4732
rg,1624810868180602630,1,0.2666,-0.9194,0.3472,216,117.4316,61.4624,23.3154,93,0.7444,0.5583,10.476,-51.9537,29,1.0045,8862,4.0865,-161.054
rg,1624810868180621149,1,-0.001,-0.387,-0.0076,217,147.0337,88.0127,-23.0103,93,0.7454,0.5533,11.707,-48.187,29,1.0015,9173,4.0865,-164.6849
rg,1624810868180640854,1,-0.2256,0.0015,0.0183,218,144.5923,134.5825,-52.6123,93,0.7464,0.5573,16.1068,-43.5706,29,0.9955,10089,4.0865,-170.039
rg,1624810868180659892,1,-0.5029,0.1086,-0.0691,219,74.646,163.7573,-14.0381,93,0.7484,0.5683,22.7524,-42.156,29,0.9925,8260,4.0865,-175.1252
rg,1624810868180699782,1,-0.6401,-0.272,0.219,220,-118.4082,52.4902,14.0991,93,0.7494,0.5863,26.034,-47.5711,29,0.9945,8355,4.0865,-176.4581
rg,1624810868180723080,1,-0.7041,-0.6838,0.8105,221,-192.0166,-43.396,2.1362,93,0.7554,0.6083,25.3223,-54.277,29,0.9985,8271,4.0865,-174.7959
rg,1624810868180741247,1,-0.2639,-1.7952,1.6323,222,-199.4629,-218.0176,-4.2725,93,0.7594,0.6243,19.707,-58.9612,29,1.0025,8326,4.0865,-166.8756
rg,1624810868180760230,1,0.2136,-1.8108,0.8101,223,8.3618,-163.0859,29.1748,93,0.7664,0.6383,16.2669,-56.8931,29,1.0125,8384,4.0865,-160.5257
rg,1624810868180780638,1,0.4834,-1.6067,0.7419,224,76.416,-90.6982,82.8857,93,0.7784,0.6563,17.343,-51.2796,29,1.0215,8463,4.0865,-156.8787
rg,1624810868537856932,1,0.1128,-0.5093,0.2322,225,116.6992,85.6323,-7.6904,93,0.8494,0.7053,21.0708,-50.374,29,1.0385,27269,4.0865,-160.9077
rg,1624810868537900379,1,-0.5417,-0.6899,0.5957,226,8.3618,111.2671,13.0615,93,0.8414,0.7163,22.6835,-52.2085,29,1.0385,8468,4.0865,-162.1119
rg,1624810868537921639,1,-0.4709,-0.7864,0.5417,227,-91.9189,-56.2134,-3.2349,93,0.7894,0.7254,21.3972,-55.2842,29,1.0295,7870,4.0865,-160.2807
rg,1624810868537941640,1,-0.0806,-0.9795,0.6194,228,-177.7954,-182.373,-20.5078,93,0.7564,0.7174,16.1922,-60.5078,29,1.0195,7733,4.0865,-154.2212
rg,1624810868537960585,1,0.106,-1.1365,0.677,229,-169.7998,-195.1904,-14.8926,93,0.7454,0.7033,12.0763,-64.0654,29,1.0125,7884,4.0865,-147.738
rg,1624810868537979049,1,0.4653,-1.4983,0.4768,230,-78.4302,-126.5259,32.7759,93,0.7414,0.6313,10.0849,-66.4838,29,1.0095,7828,4.0865,-142.5422
rg,1624810868537998143,1,0.5269,-1.416,0.7439,231,2.0142,22.7661,43.457,93,0.7404,0.6043,10.9579,-66.2564,29,1.0105,8107,4.0865,-142.6633
rg,1624810868538015310,1,0.2043,-1.0427,0.4531,232,93.5059,68.3594,36.8652,93,0.7414,0.5873,12.6267,-62.9087,29,1.0105,12848,4.0865,-144.573
rg,1624810868538047626,1,-0.0378,-0.6077,0.1826,233,116.0889,78.7964,-8.3618,93,0.7414,0.5753,13.4865,-59.3612,29,1.0095,7955,4.0865,-147.6754
rg,1624810868538066442,1,-0.2009,-0.1836,0.0422,234,125.4272,88.6841,-45.9595,93,0.7424,0.5693,15.0872,-55.8372,29,1.0075,7902,4.0865,-151.8473
rg,1624810868538088258,1,-0.4231,0.0581,0.0493,235,126.3428,107.7881,-46.7529,93,0.7444,0.5803,19.3305,-52.6254,29,1.0065,9661,4.0865,-156.7231
rg,1624810868538107129,1,-0.5247,0.0967,0.0825,236,40.9546,121.1548,3.6621,93,0.7474,0.5983,24.5017,-51.9231,29,1.0075,7857,4.0865,-160.5557
rg,1624810868538150279,1,-0.5742,-0.5205,0.6975,237,-161.8652,-26.8555,28.5034,93,0.7474,0.6223,25.1927,-57.1129,29,1.0085,8213,4.0865,-158.6487
rg,1624810868538183540,1,-0.1353,-1.6897,1.6824,238,-223.4497,-205.0781,6.1646,93,0.7554,0.6393,20.5158,-62.46,29,1.0125,7896,4.0865,-150.5784
rg,1624810868538203967,1,0.1216,-1.9434,1.1128,239,-137.4512,-206.665,2.3193,93,0.7614,0.6513,15.9832,-65.7484,29,1.0205,8124,4.0865,-142.79
rg,1624810868538223450,1,0.4302,-1.6309,0.6523,240,48.3398,-59.4482,67.0166,93,0.7684,0.6643,16.2425,-62.9437,29,1.0265,7939,4.0865,-139.4115
rg,1624810868538242136,1,0.4905,-1.054,0.5879,241,113.2812,39.917,75.1953,93,0.7874,0.6793,18.2228,-58.3227,29,1.0335,8178,4.0865,-139.373
rg,1624810868538259914,1,0.3491,-0.8206,0.4751,242,110.9619,50.4761,38.147,93,0.8074,0.6893,19.4968,-54.1792,29,1.0375,8204,4.0865,-140.2991
rg,1624810868538277767,1,-0.0498,-0.6294,0.4619,243,62.3779,85.3882,-5.8594,93,0.8194,0.6973,20.7037,-52.7176,29,1.0395,8135,4.0865,-143.3744
rg,1624810868538295527,1,-0.4109,-0.7087,0.6621,244,-4.0283,80.0781,2.7466,93,0.8234,0.7073,22.7856,-53.637,29,1.0425,8037,4.0865,-145.9861
rg,1624810868538313565,1,-0.5168,-0.7935,0.6584,245,-42.2974,26.6724,0.4883,93,0.7944,0.7174,21.3431,-56.4574,29,1.0435,8208,4.0865,-144.1589
rg,1624810868538331510,1,-0.3118,-0.9363,0.6047,246,-129.6997,-132.4463,-20.1416,93,0.7574,0.7163,17.6761,-60.1966,29,1.0315,8022,4.0865,-139.8174
rg,1624810868538350233,1,0.0522,-1.1465,0.5869,247,-156.7383,-206.4819,-14.0991,93,0.7444,0.7013,12.6222,-64.6377,29,1.0175,8057,4.0865,-132.5167
rg,1624810868538369975,1,0.4392,-1.4009,0.5903,248,-124.5728,-198.8525,3.54,93,0.7424,0.6243,9.7154,-66.6195,29,1.0135,8275,4.0865,-126.4776
rg,1624810868538388309,1,0.5667,-1.4612,0.7097,249,-34.1797,-90.21,33.02,93,0.7414,0.5903,8.4295,-67.2594,29,1.0145,8103,4.0865,-122.5712
rg,1624810868538406032,1,0.5454,-1.3228,0.3149,250,31.189,-6.897,46.1426,93,0.7414,0.5763,8.8712,-66.2005,29,1.0145,8356,4.0865,-121.646
rg,1624810868538424126,1,0.2224,-0.8877,0.2102,251,110.7788,52.2461,10.5591,93,0.7414,0.5643,9.2815,-62.4484,29,1.0115,8214,4.0865,-123.4637
rg,1624810868538441719,1,0.1143,-0.5925,0.0625,252,136.4136,49.1333,-2.3804,93,0.7414,0.5553,9.4119,-58.1159,29,1.0065,8348,4.0865,-125.4066
rg,1624810868538459905,1,-0.0676,-0.0835,-0.0115,253,163.0859,55.9082,-33.02,93,0.7404,0.5573,10.757,-53.2024,29,1.0015,8158,4.0865,-128.1689
rg,1624810868538478184,1,-0.1934,0.1355,-0.0894,254,135.5591,111.2671,-12.9395,93,0.7444,0.5683,15.1161,-48.5659,29,0.9985,9059,4.0865,-131.9425
rg,1624810868538495703,1,-0.3252,0.0347,-0.146,255,-46.814,142.7612,44.0063,93,0.7484,0.5943,22.2645,-52.1467,29,0.9945,10053,4.0865,-135.6256
rg,1624810868538513500,1,-0.502,-0.8784,1.1743,256,-257.6904,33.3862,32.3486,93,0.7544,0.6183,23.9756,-61.9591,29,1.0015,8542,4.0865,-135.8343
rg,1624810868901175259,1,0.491,-1.4067,0.7893,257,45.3491,-103.4546,38.0249,93,0.7894,0.6673,24.2455,-57.2708,29,1.0265,27072,4.0865,-133.4745
rg,1624810868901285968,1,0.3062,-0.8508,0.3479,258,157.5928,73.4863,56.0303,93,0.8064,0.6823,26.2371,-51.9613,29,1.0325,10178,4.0865,-134.957
rg,1624810868901308802,1,-0.0522,-0.5596,0.3748,259,101.4404,115.4175,13.4888,93,0.8164,0.6923,28.7,-49.7864,29,1.0355,7713,4.0865,-138.7184
rg,1624810868901329877,1,-0.5024,-0.541,0.6331,260,60.1807,126.2207,-0.9766,93,0.8104,0.7023,31.3247,-50.9503,29,1.0375,7899,4.0865,-142.4496
rg,1624810868901348471,1,-0.6458,-0.6782,0.6064,261,-51.6357,40.8325,-10.8032,93,0.7744,0.7083,32.126,-53.8593,29,1.0305,7798,4.0865,-144.2276
rg,1624810868901365879,1,-0.4346,-0.8643,0.4385,262,-156.1279,-160.9497,-36.499,93,0.7504,0.7013,27.042,-57.8921,29,1.0145,9963,4.0865,-139.2188
rg,1624810868901451846,1,0.0759,-1.2371,0.8577,263,-152.0386,-236.5112,-7.9346,93,0.7434,0.6483,20.8349,-60.2965,29,1.0105,8472,4.0865,-130.4504
rg,1624810868901512608,1,0.5806,-1.6726,0.8167,264,-57.9224,-159.3018,36.2549,93,0.7434,0.6053,17.5676,-60.5476,29,1.0135,7895,4.0865,-123.875
rg,1624810868901556054,1,0.6116,-1.7158,0.374,265,1.709,-87.7075,50.9644,93,0.7424,0.5913,16.2726,-59.8948,29,1.0135,8022,4.0865,-119.8442
rg,1624810868901577129,1,0.5708,-1.2913,0.3486,266,101.6846,22.7661,43.396,93,0.7414,0.5813,16.8023,-56.3613,29,1.0125,7825,4.0865,-119.9071
rg,1624810868901598260,1,0.1812,-0.4673,0.0635,267,158.3252,61.7676,12.6953,93,0.7424,0.5723,16.6325,-50.7171,29,1.0125,8056,4.0865,-123.1904
rg,1624810868901618205,1,0.0273,-0.1353,0.0566,268,196.9604,88.3789,-47.9736,93,0.7414,0.5723,16.5763,-44.7031,29,1.0115,7883,4.0865,-127.5067
rg,1624810868901638817,1,-0.26,0.1619,-0.0125,269,182.251,156.9214,-60.6689,93,0.7444,0.5803,21.7031,-38.6569,29,1.0105,8091,4.0865,-133.4662
rg,1624810868901658411,1,-0.4287,0.2429,-0.177,270,134.4604,174.4995,-31.189,93,0.7464,0.5973,28.8819,-38.9134,29,1.0095,7944,4.0865,-137.6163
rg,1624810868901693227,1,-0.5483,-0.0049,-0.2344,271,-90.1489,108.8257,25.8179,93,0.7494,0.6173,34.9191,-44.572,29,1.0105,8096,4.0865,-140.5836
rg,1624810868901715580,1,-0.5725,-0.8149,1.0051,272,-303.7109,-45.7153,17.8833,93,0.7544,0.6303,33.8879,-55.111,29,1.0135,10025,4.0865,-138.1429
rg,1624810868901734137,1,-0.1365,-2.208,1.4661,273,-216.9189,-200.5005,0.6104,93,0.7584,0.6353,28.4697,-59.6818,29,1.0145,8232,4.0865,-130.2205
rg,1624810868901752508,1,0.3625,-1.8926,0.5576,274,-56.4575,-197.0215,-3.7842,93,0.7634,0.6443,25.0123,-56.4237,29,1.0265,8085,4.0865,-124.3282
rg,1624810868901771138,1,0.6287,-1.5286,0.7817,275,67.0166,-59.8145,67.0166,93,0.7744,0.6503,24.2052,-52.4227,29,1.0315,8021,4.0865,-120.6489
rg,1624810868901789213,1,0.4663,-1.0024,0.5613,276,133.606,53.5278,35.1562,93,0.7954,0.6623,25.0169,-47.7908,29,1.0355,8179,4.0865,-121.6824
rg,1624810868901839531,1,0.0696,-0.6858,0.2363,277,110.7788,90.1489,0.6714,93,0.8144,0.6723,26.4189,-45.6182,29,1.0395,8354,4.0865,-125.0248
rg,1624810868901861495,1,-0.2817,-0.6614,0.4529,278,65.8569,129.4556,7.5684,93,0.8274,0.6793,29.9701,-45.2678,29,1.0435,11525,4.0865,-129.1671
rg,1624810868901880292,1,-0.5044,-0.6338,0.5327,279,38.9404,101.4404,13.4888,93,0.8214,0.6863,31.4121,-46.0082,29,1.0455,8154,4.0865,-130.1328
rg,1624810868901899237,1,-0.4822,-0.6643,0.4683,280,-65.1855,-44.3726,-0.9155,87,0.7764,0.6903,30.1589,-48.1828,29,1.0365,8410,4.0865,-128.8191
rg,1624810868901918997,1,-0.2256,-0.8442,0.5537,281,-164.1846,-174.8657,-27.0386,87,0.7514,0.6843,24.2395,-52.6642,29,1.0215,8245,4.0865,-123.682
rg,1624810868901938331,1,0.1709,-1.2803,0.7253,282,-139.2822,-210.5713,6.2866,87,0.7424,0.6663,18.4054,-55.8012,29,1.0165,9821,4.0865,-116.2974
rg,1624810868901956832,1,0.6257,-1.6787,0.7461,283,-43.8843,-130.5542,45.2271,87,0.7424,0.6063,15.6405,-56.2903,29,1.0165,8954,4.0865,-110.8317
rg,1624810868901999001,1,0.5974,-1.5776,0.4065,284,53.2837,-4.1504,57.0068,87,0.7424,0.5913,16.1259,-54.4837,29,1.0225,8272,4.0865,-109.569
rg,1624810868902020872,1,0.447,-1.3228,0.4111,285,100.8301,49.8657,46.3867,87,0.7424,0.5843,17.56,-51.3112,29,1.0225,8469,4.0865,-110.3038
rg,1624810868902038781,1,0.1169,-0.6182,0.0444,286,174.6826,80.4443,3.6621,87,0.7384,0.5763,18.8292,-46.4474,29,1.0195,8296,4.0865,-113.2045
rg,1624810868902056689,1,-0.1309,-0.0818,0.0171,287,196.7773,93.4448,-44.7998,87,0.7424,0.5753,21.7617,-40.692,29,1.0175,8542,4.0865,-117.4672
rg,1624810868902078394,1,-0.3149,0.166,-0.0659,288,197.4487,114.3799,-40.7715,87,0.7434,0.5843,27.8228,-34.7923,29,1.0165,8403,4.0865,-121.2425
rg,1624810869255255372,1,-0.5442,-1.3467,2.1538,289,-241.6992,45.4712,32.3486,87,0.7584,0.6383,26.4815,-46.9761,29,1.0245,27902,4.0865,-119.3786
rg,1624810869255289503,1,0.0376,-2.0249,0.4551,290,8.1787,-133.3008,25.8789,87,0.7654,0.6483,22.654,-45.7946,29,1.0315,11718,4.0865,-114.9176
rg,1624810869255309837,1,0.3833,-1.6865,0.7378,291,70.6177,-65.6128,58.8989,87,0.7764,0.6543,23.4268,-41.0548,29,1.0385,7772,4.0865,-113.3842
rg,1624810869255329023,1,0.3103,-0.9546,0.6331,292,154.6631,53.4668,50.5981,87,0.7964,0.6643,24.9714,-35.4316,29,1.0415,7857,4.0865,-113.43
rg,1624810869255346987,1,-0.0007,-0.5601,0.3386,293,130.188,82.3975,17.0288,87,0.8124,0.6723,27.2058,-31.8684,29,1.0445,7764,4.0865,-115.2948
rg,1624810869255364877,1,-0.1704,-0.5259,0.4702,294,89.2944,97.9614,3.2349,87,0.8244,0.6773,30.1163,-30.0541,29,1.0475,7867,4.0865,-117.806
rg,1624810869255382544,1,-0.5625,-0.5803,0.6123,295,16.8457,56.7627,-15.9912,87,0.8264,0.6813,31.8951,-30.9105,29,1.0475,8041,4.0865,-120.0543
rg,1624810869255400008,1,-0.5459,-0.741,0.5259,296,-87.0361,-96.8018,-18.8599,87,0.7944,0.6903,28.2814,-34.4324,29,1.0465,7910,4.0865,-118.8429
rg,1624810869255417046,1,-0.0806,-0.9282,0.6348,297,-149.0479,-174.3164,-24.7192,87,0.7594,0.6843,19.4612,-40.7549,29,1.0315,8230,4.0865,-114.3438
rg,1624810869255433935,1,0.105,-1.0952,0.6814,298,-186.4624,-249.3286,-35.4004,87,0.7454,0.6773,10.4769,-47.2832,29,1.0185,8075,4.0865,-108.4228
rg,1624810869255451158,1,0.5168,-1.4749,0.5261,299,-91.9189,-203.6133,6.7139,87,0.7424,0.6293,4.322,-50.9549,29,1.0195,7897,4.0865,-102.1659
rg,1624810869255467844,1,0.6392,-1.5337,0.355,300,10.8643,-29.8462,41.5649,87,0.7414,0.5843,3.8744,-51.2875,29,1.0185,12500,4.0865,-100.2586
rg,1624810869255484734,1,0.4976,-1.2224,0.4551,301,74.5239,57.0068,35.4004,87,0.7414,0.5743,5.468,-49.0424,29,1.0195,7950,4.0865,-101.1777
rg,1624810869255501901,1,0.1155,-0.6638,0.0908,302,144.165,91.6138,5.5542,87,0.7414,0.5673,7.5572,-44.8052,29,1.0175,8035,4.0865,-103.8628
rg,1624810869255518865,1,0.0032,-0.3787,-0.0208,303,159.3018,85.144,-12.4512,87,0.7424,0.5633,9.4974,-40.5612,29,1.0155,7950,4.0865,-106.8045
rg,1624810869255535662,1,-0.1919,0.0332,-0.0046,304,180.2979,114.1357,-36.1328,87,0.7444,0.5703,14.4722,-33.9222,29,1.0135,8011,4.0865,-110.6155
rg,1624810869255552255,1,-0.3948,0.2073,-0.1389,305,95.5811,166.8091,14.5874,87,0.7474,0.5883,22.5149,-30.6364,29,1.0135,9126,4.0865,-113.6647
rg,1624810869255568441,1,-0.4543,0.1365,-0.1104,306,-18.7378,155.4565,42.7856,87,0.7514,0.6123,30.3478,-32.7004,29,1.0145,8096,4.0865,-115.8822
rg,1624810869255584627,1,-0.6504,-0.6863,0.8494,307,-242.3706,20.5688,26.9165,87,0.7574,0.6293,31.6563,-42.3731,29,1.0175,8073,4.0865,-115.5973
rg,1624810869255600869,1,-0.4963,-2.2058,1.8398,308,-229.4922,-178.2837,-2.4414,87,0.7624,0.6413,25.8206,-49.0675,29,1.0255,8493,4.0865,-109.9839
rg,1624810869255617814,1,0.186,-1.9114,0.6704,309,14.9536,-177.2461,23.7427,87,0.7704,0.6523,20.7019,-46.8234,29,1.0325,8337,4.0865,-103.9764
rg,1624810869255634240,1,0.5916,-1.2915,0.7236,310,65.979,-106.0181,64.4531,87,0.7884,0.6643,20.5902,-41.5987,29,1.0385,8152,4.0865,-100.9143
rg,1624810869255655297,1,0.509,-1.0405,0.4553,311,152.5879,17.7612,65.1245,87,0.8074,0.6763,21.254,-35.8604,29,1.0425,8102,4.0865,-99.6328
rg,1624810869255673075,1,0.1421,-0.5835,0.2107,312,128.7842,80.0171,9.8267,87,0.8244,0.6863,22.9807,-32.6779,29,1.0455,8249,4.0865,-101.7587
rg,1624810869255689817,1,-0.2576,-0.4937,0.5862,313,52.3071,114.6851,-4.3335,87,0.8314,0.6943,26.5673,-32.0921,29,1.0485,8147,4.0865,-104.7523
rg,1624810869255706207,1,-0.4351,-0.5073,0.6677,314,2.5635,84.6558,-0.7324,87,0.8104,0.7053,29.4165,-33.17,29,1.0495,8250,4.0865,-106.9443
rg,1624810869255722559,1,-0.4539,-0.7161,0.4937,315,-138.2446,-78.3691,-21.9727,87,0.7654,0.7093,26.3592,-38.9288,29,1.0395,8222,4.0865,-106.0754
rg,1624810869255738912,1,-0.24,-1.0195,0.5471,316,-207.7637,-208.9233,-50.293,87,0.7454,0.7043,18.4084,-46.4036,29,1.0235,8163,4.0865,-101.9315
rg,1624810869255755320,1,-0.019,-1.2546,0.7668,317,-175.354,-228.8208,-28.5645,87,0.7424,0.6423,10.5898,-52.4355,29,1.0205,8398,4.0865,-95.6905
rg,1624810869255772321,1,0.5562,-1.6567,0.8359,318,-55.3589,-162.9639,40.1001,87,0.7414,0.6103,6.9628,-54.0742,29,1.0235,8268,4.0865,-89.4993
rg,1624810869255808804,1,0.698,-1.5798,0.3516,319,35.9497,-52.7344,68.3594,87,0.7414,0.5993,6.7903,-53.0616,29,1.0255,8469,4.0865,-86.2714
rg,1624810869255826453,1,0.408,-1.0649,0.2144,320,84.3506,17.5781,58.2886,87,0.7404,0.5923,8.7199,-48.6564,29,1.0245,8278,4.0865,-87.4107
rg,1624810869610108472,1,-0.1521,0.0872,0.0308,321,190.3687,138.7329,-51.8799,87,0.7454,0.6153,14.9362,-43.5882,29,1.0215,27198,4.0865,-93.4878
rg,1624810869610147140,1,-0.6807,-0.262,0.1045,322,-138.9771,133.9722,31.1279,87,0.7494,0.6363,21.2697,-50.5419,29,1.0225,8584,4.0865,-96.9361
rg,1624810869610167826,1,-0.8318,-0.7139,0.834,323,-228.9429,37.3535,17.7612,87,0.7524,0.6483,22.7203,-59.4664,29,1.0235,7758,4.0865,-97.6286
rg,1624810869610187235,1,-0.5388,-1.7837,1.4675,324,-226.8677,-190.3076,3.1738,87,0.7554,0.6533,19.0024,-65.5394,29,1.0275,7837,4.0865,-90.1914
rg,1624810869610206124,1,0.0789,-1.7024,0.6169,325,-18.5547,-201.1719,22.3999,87,0.7604,0.6583,15.5818,-64.0575,29,1.0335,7922,4.0865,-82.2415
rg,1624810869610224199,1,0.5249,-1.178,0.7512,326,70.0073,-63.7207,83.6182,87,0.7694,0.6653,16.0013,-59.9235,29,1.0395,10607,4.0865,-78.2605
rg,1624810869610242496,1,0.5273,-0.9849,0.6409,327,90.5762,-15.3809,64.7583,87,0.7854,0.6753,16.4268,-55.8256,29,1.0435,7825,4.0865,-76.3628
rg,1624810869610260645,1,0.2976,-0.8552,0.417,328,66.2842,26.123,2.8076,87,0.8074,0.6853,15.8601,-53.7257,29,1.0485,8161,4.0865,-77.3018
rg,1624810869610277868,1,-0.0305,-0.8743,0.4736,329,40.7104,82.8857,-9.0332,87,0.8224,0.6913,16.9777,-53.2613,29,1.0505,7833,4.0865,-80.398
rg,1624810869610295258,1,-0.1733,-0.886,0.49,330,37.3535,96.8628,0,87,0.8344,0.6943,18.9977,-53.0858,29,1.0525,7958,4.0865,-83.7568
rg,1624810869610312777,1,-0.3921,-0.7725,0.478,331,35.9497,53.5889,2.3804,87,0.8384,0.6993,20.5314,-52.4305,29,1.0565,7829,4.0865,-85.5731
rg,1624810869610330056,1,-0.3623,-0.5327,0.4509,332,-42.0532,-40.1001,3.9062,87,0.8114,0.7033,19.9663,-53.4887,29,1.0475,7862,4.0865,-84.067
rg,1624810869610347556,1,-0.2644,-0.606,0.541,333,-113.0371,-92.8955,-6.5308,87,0.7674,0.6923,17.5716,-56.7896,29,1.0305,8224,4.0865,-80.9212
rg,1624810869610364631,1,-0.0872,-1.0015,0.5947,334,-175.4761,-174.9878,-21.6675,87,0.7494,0.6833,12.8002,-62.3616,29,1.0135,7921,4.0865,-75.1301
rg,1624810869610382039,1,0.4177,-1.4504,0.6223,335,-106.8115,-193.9087,30.8228,87,0.7424,0.6453,9.4643,-65.2999,29,1.0055,8142,4.0865,-67.504
rg,1624810869610399244,1,0.679,-1.6096,0.7935,336,-67.3828,-150.2075,48.7671,87,0.7424,0.5983,7.6947,-66.9622,29,1.0105,7951,4.0865,-61.1303
rg,1624810869610416356,1,0.6567,-1.6042,0.3457,337,33.9966,10.7422,68.8477,87,0.7424,0.5893,9.2684,-65.8904,29,1.0135,8167,4.0865,-60.4902
rg,1624810869610433134,1,0.4185,-1.291,0.4126,338,90.332,114.9292,48.0957,87,0.7424,0.5823,11.9484,-63.1445,29,1.0105,7996,4.0865,-63.9445
rg,1624810869610450154,1,0.1843,-1.0229,0.2573,339,130.9204,140.9912,19.8975,87,0.7424,0.5773,14.4915,-59.4953,29,1.0095,8204,4.0865,-68.7712
rg,1624810869610466839,1,-0.1389,-0.3911,0.0393,340,182.0068,135.9863,-41.3208,87,0.7424,0.5793,16.2893,-54.6598,29,1.0075,8023,4.0865,-74.6502
rg,1624810869610505712,1,-0.405,0.0281,0.0654,341,206.604,158.5693,-57.312,87,0.7444,0.5853,20.5329,-48.1113,29,1.0075,8175,4.0865,-81.1118
rg,1624810869610524972,1,-0.5669,0.1438,-0.0442,342,181.0303,163.4521,-29.9072,87,0.7464,0.5963,26.4662,-43.0207,29,1.0075,8076,4.0865,-86.9117
rg,1624810869610543343,1,-0.6941,0.2063,-0.145,343,4.8218,82.9468,30.7617,87,0.7484,0.6163,31.9427,-43.4056,29,1.0075,8251,4.0865,-88.419
rg,1624810869610561955,1,-0.7085,-0.4578,0.4202,344,-212.3413,-66.8945,25.9399,87,0.7524,0.6313,31.535,-50.3581,29,1.0115,8185,4.0865,-85.3954
rg,1624810869610580178,1,-0.2588,-1.7756,2.0427,345,-283.3252,-158.6304,27.1606,87,0.7574,0.6363,25.673,-56.8505,29,1.0175,8336,4.0865,-75.2801
rg,1624810869610597845,1,0.1023,-1.9939,0.6311,346,-54.8096,-235.0464,10.1318,87,0.7624,0.6453,19.8121,-56.2829,29,1.0275,10100,4.0865,-66.8295
rg,1624810869610615605,1,0.3767,-1.8745,0.5723,347,35.8887,-163.4521,56.7017,87,0.7724,0.6583,16.4681,-53.1414,29,1.0355,8349,4.0865,-60.0419
rg,1624810869610645755,1,0.7046,-1.3213,0.6531,348,116.0278,-20.6909,78.4912,87,0.7934,0.6723,16.8649,-48.125,29,1.0415,8166,4.0865,-57.4843
rg,1624810869610664126,1,0.3157,-0.7996,0.2544,349,137.3291,61.9507,0.4272,87,0.8144,0.6853,17.2628,-44.1118,29,1.0445,8422,4.0865,-59.66
rg,1624810869610682182,1,-0.1262,-0.5322,0.2996,350,117.4316,104.7974,-17.0898,87,0.8254,0.6963,20.8436,-42.6347,29,1.0475,8202,4.0865,-64.239
rg,1624810869610699553,1,-0.2915,-0.5122,0.4648,351,53.5278,148.1934,3.1128,87,0.8254,0.7043,25.3456,-42.3624,29,1.0485,8249,4.0865,-68.5706
rg,1624810869610717276,1,-0.522,-0.521,0.478,352,-56.4575,59.9976,-1.4038,87,0.7854,0.7113,27.4521,-45.6394,29,1.0395,8408,4.0865,-70.5691
rg,1624810869974139622,1,0.3201,-1.5452,0.8335,353,-145.0806,-229.4312,18.0054,87,0.7414,0.6143,20.2679,-48.8907,29,1.0125,26812,4.0865,-62.9455
rg,1624810869974183883,1,0.729,-1.7234,0.3999,354,32.3486,-46.2036,62.5,87,0.7424,0.6043,19.447,-47.5341,29,1.0135,8558,4.0865,-60.0955
rg,1624810869974205236,1,0.4492,-1.1941,0.2842,355,121.3989,103.3325,52.9175,87,0.7414,0.5903,22.4706,-44.3827,29,1.0135,7823,4.0865,-62.1254
rg,1624810869974227570,1,0.2297,-0.7656,0.0876,356,157.5317,120.9106,22.583,87,0.7424,0.5823,25.3869,-40.7697,29,1.0135,7736,4.0865,-65.6068
rg,1624810869974246812,1,-0.0786,-0.1265,0.0476,357,202.3315,122.0703,-49.8657,87,0.7424,0.5813,28.2519,-36.0737,29,1.0125,7805,4.0865,-71.1899
rg,1624810869974265183,1,-0.3665,0.1316,0.0049,358,170.5933,170.5933,-42.5415,87,0.7444,0.5893,34.9877,-31.6974,29,1.0115,9027,4.0865,-76.8559
rg,1624810869974283146,1,-0.5176,0.2009,-0.1118,359,105.6519,173.645,-11.4746,87,0.7454,0.6023,42.7773,-30.4868,29,1.0115,8387,4.0865,-81.8361
rg,1624810869974301814,1,-0.6328,-0.1914,0.0469,360,-115.2954,79.1626,25.8179,87,0.7464,0.6203,47.184,-36.7068,29,1.0135,7811,4.0865,-83.6709
rg,1624810869974320222,1,-0.7041,-1.1533,1.5715,361,-276.5503,-104.4922,6.897,87,0.7524,0.6373,43.2136,-44.6564,29,1.0165,7909,4.0865,-79.3739
rg,1624810869974337834,1,-0.4277,-1.8044,1.856,362,-257.0801,-198.6084,4.0894,87,0.7564,0.6503,36.7494,-49.8313,29,1.0225,7871,4.0865,-71.5305
rg,1624810869974355946,1,0.0442,-1.8464,0.5867,363,-27.9541,-211.3037,12.0239,87,0.7614,0.6623,29.9924,-47.4419,29,1.0295,10415,4.0865,-64.1217
rg,1624810869974373706,1,0.4856,-1.3318,0.6943,364,87.7686,-83.374,74.8901,87,0.7744,0.6753,28.1081,-42.1197,29,1.0355,7885,4.0865,-59.4097
rg,1624810869974391799,1,0.479,-0.9543,0.4438,365,138.6108,-23.9258,35.2783,87,0.8004,0.6893,26.5601,-36.6599,29,1.0415,7968,4.0865,-58.0226
rg,1624810869974409504,1,0.3562,-0.7676,0.2502,366,127.1362,-4.5166,10.376,87,0.8194,0.6993,25.0882,-32.7317,29,1.0455,7917,4.0865,-58.1913
rg,1624810869974426708,1,0.0645,-0.5571,0.1748,367,75.0122,78.4912,0.8545,87,0.8334,0.7053,26.7807,-32.1512,29,1.0475,8021,4.0865,-60.7311
rg,1624810869974444024,1,-0.3635,-0.6282,0.5664,368,16.1133,116.8823,19.2261,87,0.8444,0.7123,30.1474,-34.233,29,1.0505,13206,4.0865,-62.7613
rg,1624810869974477803,1,-0.4771,-0.6426,0.5254,369,-58.2886,37.8418,10.376,87,0.8104,0.7194,31.6229,-37.5285,29,1.0435,7985,4.0865,-63.7334
rg,1624810869974496860,1,-0.2068,-0.8311,0.5544,370,-182.1289,-134.0942,-13.1836,87,0.7644,0.7103,26.5209,-43.8529,29,1.0265,8304,4.0865,-60.5675
rg,1624810869974515286,1,0.0264,-1.1199,0.5618,371,-178.2227,-177.2461,-14.8315,87,0.7454,0.7003,20.268,-49.6927,29,1.0125,8029,4.0865,-55.6977
rg,1624810869974533917,1,0.2302,-1.2871,0.4673,372,-126.4648,-163.8184,14.7095,87,0.7404,0.6533,15.6094,-53.744,29,1.0065,8251,4.0865,-50.156
rg,1624810869974552103,1,0.6814,-1.4783,0.9021,373,-59.2651,-84.7168,46.4478,87,0.7394,0.6073,15.7747,-54.1,29,1.0095,11036,4.0865,-49.3028
rg,1624810869974569307,1,0.5286,-1.4712,0.5332,374,27.0996,39.4897,59.5703,87,0.7404,0.6033,17.3581,-53.5891,29,1.0105,8247,4.0865,-49.3508
rg,1624810869974588067,1,0.2554,-1.3171,0.4221,375,58.2886,125.3662,39.2456,87,0.7404,0.6013,20.5586,-53.0703,29,1.0105,8087,4.0865,-52.8554
rg,1624810869974606716,1,-0.1055,-0.7688,0.0942,376,121.7041,143.1885,-26.001,87,0.7414,0.6023,22.8182,-51.4724,29,1.0095,8283,4.0865,-58.8487
rg,1624810869974624624,1,-0.22,-0.4783,0.0618,377,153.8696,135.8032,-50.5371,87,0.7424,0.6053,24.9059,-48.9162,29,1.0085,8107,4.0865,-65.2725
rg,1624810869974642533,1,-0.438,-0.0615,0.1003,378,159.2407,161.6821,-45.7153,87,0.7444,0.6153,29.6724,-45.4293,29,1.0085,8287,4.0865,-71.8506
rg,1624810869974660552,1,-0.7114,0.0127,0.0281,379,61.3403,140.2588,10.498,87,0.7464,0.6303,35.8232,-45.238,29,1.0095,8414,4.0865,-76.1906
rg,1624810869974696702,1,-0.7957,-0.1475,0.1213,380,-28.3203,75.8057,17.2119,87,0.7494,0.6433,39.0795,-47.9283,29,1.0125,8412,4.0865,-78.534
rg,1624810869974716258,1,-0.8154,-0.863,0.8208,381,-177.002,-126.0376,5.5542,87,0.7534,0.6473,35.8478,-51.8385,29,1.0155,8291,4.0865,-73.4306
rg,1624810869974733425,1,-0.1252,-1.6521,1.2979,382,-167.5415,-285.2783,17.8833,87,0.7564,0.6483,28.2801,-52.5926,29,1.0245,10712,4.0865,-62.2854
rg,1624810869974751167,1,0.3525,-1.7285,0.7117,383,2.6855,-218.8721,40.8936,87,0.7654,0.6583,22.6804,-49.3817,29,1.0325,8300,4.0865,-53.9595
rg,1624810869974768205,1,0.7249,-1.4932,0.5391,384,115.6616,-94.4824,76.416,87,0.7904,0.6743,20.7066,-43.6449,29,1.0415,8492,4.0865,-49.141
rg,1624810870334805817,1,-0.0771,-0.3423,0.1899,385,105.957,165.0391,11.2915,87,0.8494,0.6993,27.2168,-42.7594,29,1.0495,27208,4.0865,-53.8587
rg,1624810870334844411,1,-0.6172,-0.4915,0.5847,386,7.8735,177.3682,32.6538,87,0.8124,0.7073,31.0723,-46.9626,29,1.0425,8534,4.0865,-56.9304
rg,1624810870334865190,1,-0.6536,-0.6653,0.416,387,-147.0337,-16.8457,-20.874,87,0.7624,0.7073,30.3484,-53.2212,29,1.0245,7826,4.0865,-57.1653
rg,1624810870334884413,1,-0.2664,-0.9414,0.4534,388,-242.7979,-233.2153,-33.7524,87,0.7444,0.6993,23.5405,-59.7883,29,1.0065,7799,4.0865,-49.4947
rg,1624810870334902617,1,0.5042,-1.5879,0.8105,389,-168.457,-253.54,21.8506,87,0.7364,0.6473,18.062,-63.065,29,0.9965,10280,4.0865,-39.5601
rg,1624810870334921359,1,0.8181,-1.8,0.4663,390,-15.0757,-46.3867,62.6221,87,0.7364,0.6213,17.9511,-63.198,29,0.9995,7722,4.0865,-36.7787
rg,1624810870334939767,1,0.7346,-1.6995,0.335,391,37.1094,52.5513,71.4722,87,0.7364,0.6143,19.9726,-62.5017,29,0.9985,7848,4.0887,-37.5847
rg,1624810870334958045,1,0.3386,-1.1084,0.4155,392,104.248,171.875,42.5415,87,0.7364,0.6073,23.3741,-60.7089,29,0.9965,7780,4.0887,-43.3512
rg,1624810870334975454,1,-0.0291,-0.4412,-0.0156,393,161.1328,180.603,-30.5786,87,0.7374,0.6033,25.3052,-58.6785,29,0.9935,7917,4.0887,-51.395
rg,1624810870334992880,1,-0.1711,-0.2007,0.0093,394,173.4619,192.3828,-65.0024,87,0.7384,0.6093,29.0498,-55.7526,29,0.9915,8976,4.0887,-60.1589
rg,1624810870335030604,1,-0.7234,-0.0354,0.0146,395,135.498,249.8779,-66.1621,87,0.7414,0.6213,34.3098,-56.4209,29,0.9905,8452,4.0887,-71.6394
rg,1624810870335049808,1,-1.1074,-0.2126,0.2305,396,-30.8838,92.041,-5.4932,87,0.7434,0.6363,37.4943,-59.8236,29,0.9895,8095,4.0887,-75.5971
rg,1624810870335068402,1,-0.9084,-0.7698,0.6721,397,-106.9336,-38.5132,3.9062,87,0.7474,0.6503,35.124,-61.2854,29,0.9945,8029,4.0887,-68.055
rg,1624810870335086384,1,-0.5918,-0.9846,0.7488,398,-179.3823,-262.3291,41.0156,87,0.7514,0.6603,31.235,-61.5303,29,0.9985,8113,4.0887,-55.9123
rg,1624810870335104125,1,0.3779,-1.5859,1.2073,399,-129.1504,-336.4258,60.1807,87,0.7534,0.6643,25.2404,-59.3762,29,1.0075,8637,4.0887,-41.1645
rg,1624810870335121885,1,0.6167,-1.5977,0.5144,400,31.6162,-178.7109,74.707,87,0.7604,0.6773,22.3149,-55.2513,29,1.0195,8016,4.0887,-33.1145
rg,1624810870335139442,1,0.811,-1.2603,0.3955,401,94.4214,-62.9883,61.2183,87,0.7774,0.6893,20.969,-50.7353,29,1.0275,8159,4.0887,-29.6813
rg,1624810870335157183,1,0.7605,-1.0537,0.4062,402,102.417,-5.6152,28.9307,87,0.7974,0.7003,19.8747,-46.946,29,1.0325,8049,4.0887,-28.9829
rg,1624810870335174128,1,0.2461,-0.6797,0.1189,403,87.7075,134.3384,-2.5024,87,0.8144,0.7143,22.1436,-46.2229,29,1.0385,8343,4.0887,-33.6849
rg,1624810870335191111,1,-0.2153,-0.6633,0.2842,404,34.79,247.6196,11.9629,87,0.8244,0.7264,28.9471,-49.0261,29,1.0425,8059,4.0887,-41.7538
rg,1624810870335209315,1,-0.5449,-0.7817,0.5359,405,6.4087,254.6387,12.4512,87,0.8024,0.7384,36.0264,-53.949,29,1.0435,8181,4.0887,-50.9957
rg,1624810870335227279,1,-0.9336,-0.8804,0.2839,406,-61.4624,106.3232,-13.7939,87,0.7604,0.7404,38.2368,-59.9508,29,1.0285,8152,4.0887,-56.2462
rg,1624810870335246854,1,-0.7554,-0.8008,0.145,407,-136.8408,-110.9009,-51.1475,87,0.7444,0.7234,34.6051,-63.9206,29,1.0075,8231,4.0887,-52.9971
rg,1624810870335265151,1,-0.3337,-1.0146,0.6809,408,-143.0054,-173.0957,-37.4756,87,0.7414,0.6573,30.1207,-64.211,29,1.0005,8170,4.0887,-44.2827
rg,1624810870335283003,1,0.0237,-1.3608,1.2124,409,-101.4404,-222.0459,23.7427,87,0.7404,0.6333,25.9406,-63.0767,29,1.0005,8301,4.0887,-34.4475
rg,1624810870335299985,1,0.614,-1.7546,0.4946,410,-21.4233,-197.6318,53.894,87,0.7404,0.6273,22.577,-60.7799,29,1.0025,8249,4.0887,-25.9237
rg,1624810870335317264,1,0.6853,-1.6721,0.2644,411,86.2427,8.4229,39.1846,87,0.7394,0.6143,22.5482,-57.9173,29,1.0005,8367,4.0887,-25.7248
rg,1624810870335348636,1,0.4524,-1.1982,0.2053,412,142.7612,81.1768,6.5918,87,0.7394,0.6043,23.1451,-53.9993,29,0.9985,8269,4.0887,-28.8101
rg,1624810870335367266,1,0.0315,-0.2515,0.1831,413,232.9102,108.0933,-65.918,87,0.7394,0.6013,22.7577,-46.8695,29,0.9945,8337,4.0887,-34.3093
rg,1624810870335386248,1,-0.2239,0.2251,0.2114,414,198.1812,154.541,-60.5469,87,0.7414,0.6073,26.7868,-39.6931,29,0.9885,8341,4.0887,-40.0247
rg,1624810870335403767,1,-0.4805,0.2637,0.0339,415,47.3633,145.9351,10.8032,87,0.7424,0.6183,33.5737,-38.6584,29,0.9925,8331,4.0887,-43.3985
rg,1624810870335423787,1,-0.5344,-0.032,0.1035,416,-70.4956,79.4678,28.8086,87,0.7454,0.6373,38.3312,-42.1477,29,0.9955,8309,4.0887,-44.8121
rg,1624810870690326848,1,0.0662,-1.9446,0.7021,417,-87.5244,-248.0469,4.5166,87,0.7734,0.6923,31.7507,-38.8278,29,1.0265,27498,4.0887,-37.895
rg,1624810870690372757,1,0.4958,-1.0505,0.3372,418,124.5117,-64.5142,34.4849,87,0.7944,0.7113,28.8214,-33.6775,29,1.0325,11639,4.0887,-35.6242
rg,1624810870690393295,1,0.3711,-0.7957,0.2322,419,122.0093,-29.3579,11.2305,87,0.8094,0.7244,26.5083,-29.8204,29,1.0365,7725,4.0887,-35.2863
rg,1624810870690412963,1,0.1348,-0.5342,0.1787,420,61.2793,55.2368,6.1646,87,0.8174,0.7374,27.3303,-29.4685,29,1.0405,7827,4.0887,-37.0223
rg,1624810870690431964,1,0.0208,-0.5544,0.3203,421,12.4512,83.9844,13.1226,87,0.8094,0.7494,29.6051,-33.0297,29,1.0425,7727,4.0887,-38.7463
rg,1624810870690451335,1,-0.1736,-0.7905,0.4683,422,-107.2388,50.415,8.9722,87,0.7714,0.7574,30.7834,-38.9413,29,1.0335,7905,4.0887,-40.3152
rg,1624810870690470113,1,-0.3113,-1.0212,0.3489,423,-152.2217,-37.2314,-32.7759,87,0.7504,0.7464,28.3659,-46.2936,29,1.0225,7980,4.0887,-40.9125
rg,1624810870690488873,1,-0.0664,-1.2639,0.5015,424,-116.9434,-75.3174,8.0566,87,0.7404,0.6833,25.7045,-50.6222,29,1.0055,7968,4.0887,-38.5527
rg,1624810870690507355,1,0.1541,-1.3564,0.677,425,-81.0547,-73.6694,39.1235,87,0.7404,0.6493,23.9521,-52.8674,29,1.0055,7908,4.0887,-35.1482
rg,1624810870690525041,1,0.3389,-1.4663,0.4055,426,20.752,-24.8413,68.1763,87,0.7404,0.6383,24.2183,-51.8337,29,1.0065,8020,4.0887,-32.8439
rg,1624810870690543116,1,0.3945,-1.3367,0.2888,427,63.6597,32.959,55.8472,87,0.7404,0.6233,25.3975,-50.1721,29,1.0065,7862,4.0887,-32.8893
rg,1624810870690560746,1,0.2209,-1.1272,0.262,428,99.0601,70.1904,26.6724,87,0.7404,0.6123,26.7917,-48.0395,29,1.0035,8057,4.0887,-34.9915
rg,1624810870690578303,1,-0.0901,-0.4675,0.0457,429,158.02,99.0601,-28.2593,87,0.7414,0.6103,28.2561,-45.1332,29,0.9975,7918,4.0887,-39.8027
rg,1624810870690595914,1,-0.314,-0.0439,0.0688,430,172.9126,155.6396,-31.7383,87,0.7424,0.6123,33.5549,-41.1681,29,0.9985,8052,4.0887,-45.6984
rg,1624810870690614008,1,-0.4448,0.0342,0.0322,431,142.334,177.5513,-5.9814,87,0.7434,0.6213,40.6591,-38.7544,29,0.9985,7925,4.0887,-51.4324
rg,1624810870690631897,1,-0.6182,-0.0725,0.0674,432,-22.644,107.4829,33.02,87,0.7464,0.6323,46.2075,-41.4085,29,0.9995,8139,4.0887,-53.9614
rg,1624810870690649343,1,-0.6365,-0.7383,0.845,433,-191.3452,-89.1113,12.085,87,0.7504,0.6443,43.3469,-46.1796,29,1.0015,8024,4.0887,-49.9233
rg,1624810870690667028,1,-0.4392,-1.1814,1.3542,434,-226.2573,-178.1006,12.6343,87,0.7544,0.6563,37.9176,-50.056,29,1.0055,8187,4.0887,-42.253
rg,1624810870690685251,1,0.1655,-1.8494,0.7017,435,-100.647,-198.7305,18.8599,87,0.7614,0.6763,34.2151,-47.3651,29,1.0175,8107,4.0887,-36.4022
rg,1624810870690702067,1,0.3572,-1.6501,0.5933,436,62.1338,-81.543,79.6509,87,0.7724,0.6943,33.3789,-41.7419,29,1.0275,8374,4.0887,-32.5685
rg,1624810870690719845,1,0.4395,-1.0906,0.4771,437,129.0894,-22.2168,45.2881,87,0.7894,0.7093,32.233,-36.5612,29,1.0345,8157,4.0887,-30.9772
rg,1624810870690737457,1,0.1716,-0.6582,0.2046,438,121.46,21.1792,3.1738,87,0.8044,0.7234,31.5977,-33.5099,29,1.0385,8297,4.0887,-32.2984
rg,1624810870690779107,1,-0.0452,-0.5266,0.2715,439,51.5137,91.3086,15.3198,87,0.8094,0.7364,34.0634,-33.7401,29,1.0425,8079,4.0887,-34.7992
rg,1624810870690802238,1,-0.342,-0.7141,0.5645,440,-67.0776,77.6367,7.2632,87,0.7784,0.7474,36.2346,-38.3125,29,1.0435,9354,4.0887,-37.179
rg,1624810870690820553,1,-0.4414,-0.8296,0.4678,441,-126.9531,8.1787,-18.4326,87,0.7524,0.7414,32.6028,-45.5164,29,1.0265,8638,4.0887,-37.1961
rg,1624810870690838795,1,-0.3687,-0.9851,0.4133,442,-161.7432,-124.7559,-45.3491,87,0.7424,0.6953,27.4987,-51.3919,29,1.0085,8353,4.0887,-34.7261
rg,1624810870690856925,1,0.2061,-1.3855,1.0691,443,-111.2671,-148.8647,23.9868,87,0.7424,0.6553,23.3698,-53.3243,29,1.0115,8192,4.0887,-28.8473
rg,1624810870690874907,1,0.6047,-1.707,0.3997,444,-12.6343,-100.5249,82.3975,87,0.7424,0.6443,22.1268,-52.5682,29,1.0095,8444,4.0887,-23.5969
rg,1624810870690892315,1,0.7429,-1.6926,0.3125,445,24.292,-56.3965,79.5288,87,0.7434,0.6363,21.7083,-51.113,29,1.0095,8217,4.0887,-19.9777
rg,1624810870690909853,1,0.4524,-1.1965,0.2241,446,120.6055,95.9473,-1.6479,87,0.7444,0.6263,22.6918,-48.6116,29,1.0095,8441,4.0887,-23.6386
rg,1624810870690927205,1,-0.1138,-0.4253,0.1223,447,172.8516,166.626,-79.0405,87,0.7434,0.6233,24.6309,-45.8337,29,1.0075,8321,4.0887,-31.7158
rg,1624810870690945188,1,-0.4746,-0.0908,0.0535,448,189.5142,196.8994,-90.3931,87,0.7434,0.6253,30.4436,-42.5177,29,1.0065,8427,4.0887,-40.6748
rg,1624810871058664027,1,-0.791,-0.0972,0.0879,449,-89.8438,-1.1597,6.4087,87,0.7504,0.6603,25.0258,-48.8672,29,1.0125,27169,4.0887,-33.659
rg,1624810871058707526,1,-0.2456,-1.3059,1.3857,450,-260.7422,-290.2832,24.8413,87,0.7554,0.6723,18.0622,-55.1586,29,1.0175,8767,4.0887,-23.0834
rg,1624810871058729119,1,0.2625,-1.9058,0.8821,451,-94.7876,-256.2256,13.2446,87,0.7594,0.6853,11.8584,-56.9631,29,1.0235,7870,4.0887,-14.1063
rg,1624810871058749618,1,0.5823,-1.6152,0.5227,452,60.0586,-121.0327,79.5288,87,0.7654,0.6963,10.5998,-53.9663,29,1.0315,7781,4.0887,-8.356
rg,1624810871058769840,1,0.7427,-1.366,0.6345,453,90.271,-67.5049,74.646,87,0.7804,0.7073,9.9472,-50.0423,29,1.0375,8104,4.0887,-4.4531
rg,1624810871058789451,1,0.4868,-0.9653,0.3315,454,122.0703,10.1929,1.9531,87,0.8024,0.7214,8.9871,-45.9586,29,1.0415,10305,4.0887,-4.8863
rg,1624810871058808414,1,0.1621,-0.6658,0.1013,455,93.9941,100.3418,-5.7983,87,0.8164,0.7304,10.8403,-44.026,29,1.0425,8381,4.0887,-8.1574
rg,1624810871058827303,1,-0.0667,-0.6055,0.2444,456,43.5791,169.7388,21.9116,87,0.8294,0.7354,16.1274,-44.204,29,1.0465,7825,4.0887,-12.5555
rg,1624810871058845599,1,-0.3708,-0.7075,0.4932,457,-27.5879,132.3242,17.1509,87,0.8024,0.7424,20.5858,-46.8065,29,1.0465,13062,4.0887,-16.1553
rg,1624810871058886561,1,-0.5056,-0.8347,0.4551,458,-114.3188,6.4697,-11.4136,87,0.7614,0.7394,20.7089,-52.0859,29,1.0345,7855,4.0887,-16.8838
rg,1624810871058907283,1,-0.448,-0.9094,0.4773,459,-144.2871,-55.603,-18.7988,87,0.7434,0.7274,17.9035,-57.5191,29,1.0175,7901,4.0887,-13.6324
rg,1624810871058928746,1,-0.053,-1.1572,0.6331,460,-134.1553,-138.3667,19.7754,87,0.7354,0.6873,15.1888,-61.4731,29,1.0085,7855,4.0887,-8.2658
rg,1624810871058950764,1,0.4336,-1.4963,0.886,461,-61.2183,-110.5957,43.8232,87,0.7374,0.6433,13.5684,-62.6008,29,1.0115,8113,4.0887,-3.3515
rg,1624810871058969338,1,0.5049,-1.5283,0.4626,462,27.9541,-19.7754,54.6875,87,0.7364,0.6323,13.9637,-61.4616,29,1.0125,8887,4.0887,-1.6898
rg,1624810871058989708,1,0.429,-1.3838,0.4436,463,55.1758,24.7803,51.2085,87,0.7364,0.6173,15.0863,-59.6348,29,1.0135,8032,4.0887,-1.6696
rg,1624810871059015504,1,0.0962,-0.9873,0.2539,464,113.1592,79.2847,-3.3569,87,0.7374,0.6013,15.8647,-56.5229,29,1.0115,7985,4.0887,-4.7293
rg,1624810871059036412,1,-0.2485,-0.4319,0.0974,465,149.4141,97.5952,-66.8335,87,0.7374,0.5933,16.4991,-52.651,29,1.0145,8104,4.0887,-9.8251
rg,1624810871059080282,1,-0.3843,-0.218,0.0747,466,172.9736,117.6147,-73.5474,87,0.7384,0.5933,18.7779,-47.865,29,1.0145,8062,4.0887,-15.6199
rg,1624810871059099337,1,-0.6211,0.0791,-0.0503,467,155.5176,130.3711,-14.9536,87,0.7394,0.6013,24.1972,-43.1969,29,1.0155,8180,4.0887,-19.944
rg,1624810871059118318,1,-0.6223,0.1306,-0.0051,468,-29.9683,17.4561,37.5366,87,0.7424,0.6123,27.8855,-43.725,29,1.0155,8049,4.0887,-19.1254
rg,1624810871059136522,1,-0.5808,-0.2202,0.2349,469,-147.522,-71.6553,25.8179,87,0.7444,0.6273,27.879,-48.1373,29,1.0185,8143,4.0887,-16.0221
rg,1624810871059157077,1,-0.3169,-1.4851,1.8186,470,-300.5981,-265.9912,9.5825,87,0.7494,0.6423,20.9682,-55.8141,29,1.0225,8106,4.0887,-6.3775
rg,1624810871059176892,1,0.1448,-2.042,0.5444,471,-98.3887,-266.9067,-11.3525,87,0.7534,0.6553,13.8685,-57.7668,29,1.0305,8346,4.0887,2.4385
rg,1624810871059199706,1,0.293,-1.9365,0.4458,472,5.6152,-180.9082,23.6206,87,0.7594,0.6663,9.5673,-56.6504,29,1.0375,8140,4.0887,9.0387
rg,1624810871059219447,1,0.6211,-1.0674,0.5349,473,121.46,0.6104,50.415,87,0.7804,0.6823,9.8507,-51.8421,29,1.0445,11353,4.0887,10.108
rg,1624810871059238187,1,0.447,-0.8801,0.2915,474,128.3569,13.9771,9.1553,87,0.8014,0.6943,9.1928,-47.4566,29,1.0485,8214,4.0887,9.741
rg,1624810871059256613,1,0.0918,-0.6147,0.1282,475,83.4351,76.2329,-15.3198,87,0.8164,0.7053,10.1994,-45.7362,29,1.0495,8330,4.0887,6.8656
rg,1624810871059275428,1,-0.1636,-0.6294,0.3945,476,32.7759,119.1406,9.1553,87,0.8244,0.7163,13.865,-45.5679,29,1.0535,8230,4.0887,3.5529
rg,1624810871059293594,1,-0.2837,-0.7263,0.5234,477,0.1221,95.1538,13.7329,87,0.8104,0.7264,15.3297,-47.9082,29,1.0525,8325,4.0887,2.441
rg,1624810871059311631,1,-0.3306,-0.8286,0.4263,478,-92.3462,-38.208,-10.8643,87,0.7674,0.7294,14.1971,-51.9153,29,1.0405,8297,4.0887,3.2098
rg,1624810871059330834,1,-0.1438,-0.9365,0.3652,479,-136.9019,-130.4932,-30.0293,87,0.7464,0.7254,9.9998,-57.265,29,1.0195,8275,4.0887,6.7014
rg,1624810871059350390,1,0.188,-1.238,0.4697,480,-85.8154,-130.4932,21.7896,87,0.7374,0.6883,7.366,-60.3916,29,1.0105,8541,4.0887,11.6119
rg,1624810871413949877,1,0.343,-1.2019,0.3679,481,65.1855,28.8696,51.6357,87,0.7374,0.6143,8.7638,-57.4833,29,1.0085,25232,4.0887,10.7217
rg,1624810871413986340,1,0.0078,-0.6421,0.0962,482,135.5591,80.0781,-24.353,87,0.7364,0.5933,10.1417,-53.6013,29,1.0055,13916,4.0887,7.347
rg,1624810871414007691,1,-0.2188,-0.1611,0.0754,483,150.3906,118.103,-55.542,87,0.7374,0.5943,12.8308,-48.903,29,1.0035,7756,4.0887,2.1928
rg,1624810871414028172,1,-0.4668,-0.0054,0.1038,484,95.6421,164.4897,-11.9629,87,0.7394,0.6043,18.9632,-46.1784,29,1.0025,8093,4.0887,-3.0479
rg,1624810871414047857,1,-0.5559,-0.061,0.1892,485,14.3433,140.625,14.8926,87,0.7414,0.6183,25.0376,-46.6896,29,1.0035,7826,4.0887,-6.8831
rg,1624810871414068061,1,-0.7197,-0.7256,0.811,486,-165.4053,-24.5361,2.3804,87,0.7454,0.6383,24.8133,-52.7238,29,1.0065,7937,4.0887,-5.9268
rg,1624810871414087098,1,-0.374,-1.6179,1.2244,487,-206.7261,-209.2896,-6.5918,87,0.7504,0.6573,19.3461,-58.227,29,1.0135,8403,4.0887,1.37
rg,1624810871414106783,1,-0.0208,-1.907,1.0144,488,-141.8457,-235.3516,-2.3804,87,0.7564,0.6723,14.3142,-58.4595,29,1.0205,8525,4.0887,8.8731
rg,1624810871414125116,1,0.3994,-1.6768,0.645,489,32.6538,-141.2964,38.3301,87,0.7624,0.6843,11.5601,-56.2714,29,1.0285,7725,4.0887,14.4819
rg,1624810871414143690,1,0.541,-1.2371,0.4253,490,130.4932,-22.1558,58.8379,87,0.7944,0.7013,11.6808,-51.1793,29,1.0375,9689,4.0887,16.4585
rg,1624810871414161616,1,0.342,-0.8171,0.1702,491,133.2397,0.9766,-6.1646,87,0.8124,0.7174,10.305,-46.876,29,1.0415,9992,4.0887,16.0173
rg,1624810871414180152,1,-0.0378,-0.5178,0.0647,492,108.8257,82.0312,-19.165,87,0.8244,0.7274,11.8725,-44.4489,29,1.0455,7862,4.0887,12.83
rg,1624810871414198337,1,-0.175,-0.4736,0.2622,493,73.1812,114.0137,3.3569,87,0.8244,0.7374,15.4987,-42.8964,29,1.0465,8314,4.0887,9.5575
rg,1624810871414218541,1,-0.3716,-0.5916,0.5063,494,-49.9268,62.3779,21.1792,87,0.7844,0.7464,18.2586,-45.4678,29,1.0345,7951,4.0887,8.298
rg,1624810871414237800,1,-0.3723,-0.7566,0.2996,495,-139.7095,-93.3838,-22.7661,87,0.7514,0.7464,15.4018,-51.2117,29,1.0165,7791,4.0887,10.3095
rg,1624810871414257244,1,-0.2673,-0.8794,0.4106,496,-149.0479,-144.4092,-16.6626,87,0.7374,0.7354,11.5032,-56.6589,29,0.9995,8356,4.0887,14.5676
rg,1624810871414275559,1,0.3713,-1.3633,0.6577,497,-116.8213,-178.833,56.5186,87,0.7334,0.6773,8.7516,-60.3002,29,0.9925,7902,4.0887,21.9216
rg,1624810871414294447,1,0.7307,-1.6326,0.7029,498,-18.3716,-50.2319,75.3174,87,0.7334,0.6533,9.2159,-60.7409,29,0.9945,8369,4.0887,25.1546
rg,1624810871414312188,1,0.6287,-1.5923,0.3809,499,50.9644,13.0005,72.7539,87,0.7334,0.6433,10.8573,-59.1064,29,0.9945,8260,4.0887,26.0576
rg,1624810871414331262,1,0.3508,-1.1414,0.4856,500,102.8442,86.2427,25.4517,87,0.7324,0.6263,12.5403,-55.7898,29,0.9935,8824,4.0887,23.5526
rg,1624810871414349836,1,-0.05,-0.6155,0.1519,501,130.4321,116.5161,-36.8042,87,0.7324,0.6123,13.7748,-52.4692,29,0.9935,7950,4.0887,18.6061
rg,1624810871414368336,1,-0.3198,-0.2061,0.1516,502,134.2773,127.2583,-57.8003,87,0.7334,0.6103,16.8976,-48.706,29,0.9925,8469,4.0887,12.45
rg,1624810871414387854,1,-0.5601,-0.0391,0.1218,503,88.2568,161.0718,-10.3149,87,0.7354,0.6253,22.8799,-46.7169,29,0.9905,12359,4.0887,7.21
rg,1624810871414409354,1,-0.6216,-0.2227,0.2612,504,-68.2983,48.0347,23.0103,87,0.7394,0.6373,26.2355,-49.6865,29,0.9925,8642,4.0887,6.3216
rg,1624810871414431724,1,-0.6328,-0.5339,0.5198,505,-144.7144,-40.6494,8.728,87,0.7424,0.6553,26.0711,-54.5879,29,0.9945,7987,4.0887,8.0311
rg,1624810871414451187,1,-0.3733,-1.2998,1.1479,506,-229.6753,-204.1016,5.6152,81,0.7464,0.6713,21.3945,-60.4009,29,1.0005,8558,4.0909,15.811
rg,1624810871414555111,1,0.186,-1.8779,0.803,507,-115.5396,-217.1631,11.6577,81,0.7504,0.6813,16.6764,-62.5431,29,1.0085,8913,4.0909,24.0313
rg,1624810871414586259,1,0.4509,-1.5452,0.5076,508,36.6821,-105.6519,47.4243,81,0.7574,0.6933,15.1233,-60.1118,29,1.0175,8605,4.0909,28.7
rg,1624810871414631092,1,0.5195,-1.2717,0.5051,509,82.3975,-58.4106,50.0488,81,0.7734,0.6993,14.211,-56.3536,29,1.0265,8422,4.0909,31.706
rg,1624810871414654277,1,0.4126,-0.8962,0.3015,510,108.7036,-22.9492,13.3057,81,0.7984,0.7163,12.799,-52.4873,29,1.0335,10238,4.0909,32.5659
rg,1624810871414675610,1,0.186,-0.6753,0.1182,511,76.7822,38.6963,1.9531,81,0.8154,0.7234,12.8054,-50.7241,29,1.0365,8913,4.0909,31.1197
rg,1624810871414697702,1,-0.0283,-0.677,0.2998,512,34.0576,97.4121,21.0571,81,0.8284,0.7324,15.5055,-50.6009,29,1.0415,8382,4.0909,28.4167
rg,1624810871773900641,1,-0.0608,-0.9578,0.5322,513,-131.1646,-74.0967,20.5688,81,0.7494,0.7444,13.9121,-55.4839,29,1.0125,27455,4.0909,31.2862
rg,1624810871774004899,1,0.1538,-1.2024,0.387,514,-74.9512,-73.1201,37.3535,81,0.7344,0.7013,12.7874,-58.348,29,0.9995,15615,4.0909,34.5023
rg,1624810871774039602,1,0.312,-1.2617,0.3748,515,-50.1709,-53.5278,63.9038,81,0.7324,0.6493,13.5738,-59.6249,29,0.9995,7687,4.0909,36.5948
rg,1624810871774073306,1,0.3528,-1.3276,0.8025,516,-0.1831,29.48,56.7017,81,0.7324,0.6333,15.1074,-59.5557,29,1.0015,7851,4.0909,36.7289
rg,1624810871774104268,1,0.2112,-1.3308,0.4893,517,55.542,43.396,61.2793,81,0.7324,0.6223,17.1911,-57.8076,29,1.0025,7817,4.0909,36.3791
rg,1624810871774133953,1,-0.0535,-1.0508,0.229,518,66.5894,53.4058,35.5835,81,0.7324,0.6163,18.1343,-55.1589,29,1.0015,7779,4.0909,34.1832
rg,1624810871774167027,1,-0.1345,-0.7388,0.0498,519,140.2588,54.5654,-20.6299,81,0.7334,0.6173,19.05,-51.3331,29,1.0005,8179,4.0909,31.5082
rg,1624810871774195638,1,-0.2656,-0.1741,0.0974,520,181.7627,79.4678,-48.584,81,0.7344,0.6203,20.9614,-45.6312,29,1.0015,7779,4.0909,27.6061
rg,1624810871774224137,1,-0.4546,0.0281,0.0776,521,119.812,126.8311,-1.1597,81,0.7364,0.6313,26.5767,-41.9795,29,0.9995,7990,4.0909,23.9514
rg,1624810871774254304,1,-0.4663,-0.0029,0.1067,522,33.3862,97.229,32.2266,81,0.7394,0.6473,32.1128,-41.1629,29,1.0005,7777,4.0909,22.2773
rg,1624810871774283785,1,-0.4753,-0.6165,0.6482,523,-157.5928,-34.4238,23.0103,81,0.7424,0.6663,31.5922,-46.5186,29,1.0025,8048,4.0909,24.145
rg,1624810871774311340,1,-0.1519,-1.5923,1.4048,524,-207.4585,-149.7192,7.3242,81,0.7484,0.6783,26.9099,-52.1964,29,1.0105,7900,4.0909,29.5832
rg,1624810871774337692,1,0.1541,-1.9731,0.6711,525,-28.5645,-116.8823,26.6113,81,0.7534,0.6943,23.7718,-52.072,29,1.0205,12781,4.0909,34.0243
rg,1624810871774365802,1,0.3149,-1.4402,0.5452,526,129.1504,-22.3999,40.1611,81,0.7694,0.7053,23.1514,-46.9035,29,1.0295,7956,4.0909,35.5496
rg,1624810871774397043,1,0.1331,-0.7668,0.3005,527,181.0303,2.3193,15.2588,81,0.7904,0.7184,22.5053,-40.4461,29,1.0345,8806,4.0909,35.5324
rg,1624810871774539430,1,0.0107,-0.5024,0.2041,528,168.335,27.9541,14.7095,81,0.8074,0.7294,22.9463,-34.9716,29,1.0375,7921,4.0909,34.8145
rg,1624810871774588078,1,-0.2026,-0.2942,0.2395,529,86.853,80.6885,28.4424,81,0.8134,0.7414,26.4769,-32.4898,29,1.0425,8130,4.0909,33.6482
rg,1624810871774621152,1,-0.4104,-0.3811,0.4329,530,-52.9785,29.1138,26.3672,81,0.7854,0.7574,28.3777,-34.7973,29,1.0395,9727,4.0909,33.7588
rg,1624810871774649688,1,-0.3044,-0.7739,0.4834,531,-140.8691,-54.3823,4.5776,81,0.7514,0.7614,22.5034,-42.4506,29,1.0255,8130,4.0909,37.2341
rg,1624810871774679669,1,-0.1189,-0.9216,0.5234,532,-250.9766,-239.0137,-23.8037,81,0.7374,0.7434,14.7352,-51.0393,29,1.0085,8026,4.0909,43.6313
rg,1624810871774708577,1,0.4678,-1.4341,0.6169,533,-184.3872,-247.0703,25.5127,81,0.7324,0.6723,8.6502,-57.1839,29,0.9995,8205,4.0909,52.2932
rg,1624810871774741132,1,0.8904,-1.5942,0.4709,534,-32.2876,-96.1914,75.0732,81,0.7324,0.6433,7.7917,-58.3085,29,1.0005,8063,4.0909,57.121
rg,1624810871774772354,1,0.886,-1.4507,0.3743,535,16.7847,-12.0239,76.5991,81,0.7324,0.6213,8.7378,-57.9204,29,1.0015,8275,4.0909,59.0746
rg,1624810871774802761,1,0.4851,-1.0698,0.4189,536,43.5791,137.5122,41.1377,81,0.7314,0.6043,11.8629,-57.25,29,1.0015,8115,4.0909,55.1724
rg,1624810871774832205,1,-0.0386,-0.8589,0.2471,537,48.8281,207.2754,-1.6479,81,0.7324,0.6003,15.8746,-57.702,29,0.9995,8342,4.0909,47.7988
rg,1624810871774860890,1,-0.2749,-0.7378,0.1807,538,60.5469,219.6045,-23.3154,81,0.7334,0.6053,20.5062,-58.4675,29,0.9975,8142,4.0909,39.28
rg,1624810871774890426,1,-0.6665,-0.5488,0.196,539,99.5483,207.5195,-33.4473,81,0.7374,0.6193,24.7828,-58.059,29,0.9965,8296,4.0909,30.7688
rg,1624810871774921871,1,-0.8772,-0.468,0.2905,540,53.9551,116.5771,3.418,81,0.7394,0.6323,28.5792,-57.8388,29,0.9985,8221,4.0909,26.4276
rg,1624810871774952815,1,-0.8525,-0.7397,0.5105,541,1.1597,33.8135,8.3618,81,0.7414,0.6483,28.0503,-58.5344,29,1.0005,8350,4.0909,29.0421
rg,1624810871774986518,1,-0.6934,-0.9004,0.5898,542,-84.3506,-148.9258,7.9346,81,0.7454,0.6653,25.452,-59.1629,29,1.0055,8230,4.0909,34.98
rg,1624810871775022462,1,-0.0811,-1.3298,0.9199,543,-95.3369,-252.3804,26.6724,81,0.7504,0.6813,20.3533,-58.9097,29,1.0105,8470,4.0909,45.031
rg,1624810871775056073,1,0.4194,-1.5601,0.6387,544,12.4512,-206.604,31.189,81,0.7614,0.6943,15.7367,-56.2647,29,1.0225,8339,4.0909,52.9124
rg,1624810872125444249,1,0.2417,-0.5762,0.0642,545,165.6494,3.9062,7.6904,81,0.8204,0.7394,15.8486,-51.7498,29,1.0395,27081,4.0909,50.4597
rg,1624810872125486823,1,-0.2029,-0.4241,0.4773,546,33.7524,156.311,24.4141,81,0.8414,0.7614,20.5433,-51.4021,29,1.0455,15418,4.0909,46.0473
rg,1624810872125507952,1,-0.5295,-0.739,0.4966,547,-67.749,65.8569,17.7002,81,0.8214,0.7754,23.0723,-54.9454,29,1.0425,7845,4.0909,44.1578
rg,1624810872125527341,1,-0.4885,-0.8699,0.4082,548,-123.291,-27.5879,10.1929,81,0.7704,0.7824,22.9791,-59.7435,29,1.0265,7816,4.0909,45.2554
rg,1624810872125547063,1,-0.1453,-1.0679,0.5022,549,-181.2134,-177.4902,-7.9956,81,0.7454,0.7764,18.813,-64.8279,29,1.0105,7767,4.0909,51.765
rg,1624810872125566581,1,0.3416,-1.3882,0.5427,550,-160.2173,-198.6694,2.8076,81,0.7344,0.7264,15.717,-67.4701,29,0.9965,7864,4.0909,59.0879
rg,1624810872125585711,1,0.5339,-1.4478,0.4399,551,-76.7822,-129.9438,51.9409,81,0.7304,0.6633,14.4388,-69.2188,29,0.9905,7761,4.0909,64.8404
rg,1624810872125604526,1,0.6333,-1.2917,0.8286,552,21.8506,33.7524,50.354,81,0.7304,0.6393,15.4432,-68.0297,29,0.9915,8135,4.0909,64.3878
rg,1624810872125623081,1,0.2793,-1.2563,0.5183,553,64.6973,100.769,44.4946,81,0.7304,0.6273,17.5891,-66.3176,29,0.9915,7863,4.0909,61.2124
rg,1624810872125641155,1,0.1262,-1.2073,0.447,554,62.0117,100.0977,13.3667,81,0.7304,0.6193,18.8091,-65.1004,29,0.9905,7972,4.0909,57.5449
rg,1624810872125658581,1,-0.2629,-0.8384,0.1294,555,122.8638,109.6802,-66.3452,81,0.7304,0.6193,18.3137,-62.537,29,0.9855,7851,4.0909,51.9607
rg,1624810872125676673,1,-0.4351,-0.2603,0.1606,556,158.8745,114.2578,-80.5664,81,0.7324,0.6243,19.6284,-57.3269,29,0.9875,7917,4.0909,45.6254
rg,1624810872125694210,1,-0.5933,-0.0745,0.1484,557,178.3447,161.0718,-57.4341,81,0.7324,0.6323,23.2969,-52.4369,29,0.9875,7903,4.0909,38.7654
rg,1624810872125711376,1,-0.7363,0.0918,0.0518,558,62.9883,96.6187,17.6392,81,0.7364,0.6473,28.3285,-50.819,29,0.9885,8033,4.0909,36.0487
rg,1624810872125728580,1,-0.6855,-0.0398,0.1013,559,-30.3955,8.3618,28.6255,81,0.7394,0.6653,27.8797,-54.1397,29,0.9925,7901,4.0909,39.626
rg,1624810872125745820,1,-0.5271,-0.7183,0.6321,560,-203.6133,-178.772,20.0195,81,0.7424,0.6803,24.6894,-58.8794,29,0.9975,8019,4.0909,46.865
rg,1624810872125762783,1,0.2131,-1.6689,1.4309,561,-228.1494,-295.7153,29.7852,81,0.7464,0.6873,18.948,-63.1937,29,1.0075,7965,4.0909,58.787
rg,1624810872125779894,1,0.4409,-1.9851,1.0442,562,-135.1929,-253.1738,28.4424,81,0.7514,0.6973,15.9088,-61.8622,29,1.0175,8192,4.0909,65.934
rg,1624810872125811283,1,0.5632,-1.8743,0.3936,563,85.144,-118.2861,53.3447,81,0.7684,0.7103,14.2038,-57.7019,29,1.0255,8066,4.0909,71.058
rg,1624810872125830671,1,0.5771,-1.1162,0.3984,564,176.2695,-28.9307,22.7661,81,0.7984,0.7224,12.8286,-50.7909,29,1.0325,8977,4.0909,72.3632
rg,1624810872125848412,1,0.1953,-0.4915,0.1672,565,165.7715,63.3545,-4.6387,81,0.8154,0.7374,13.1561,-45.4097,29,1.0375,11954,4.0909,70.0685
rg,1624810872125865615,1,-0.0916,-0.2527,0.1335,566,83.5571,147.7051,23.6206,81,0.8254,0.7474,18.2005,-43.6861,29,1.0415,8257,4.0909,66.3133
rg,1624810872125883189,1,-0.4094,-0.5,0.4978,567,-33.9355,135.5591,38.8794,81,0.8164,0.7594,23.5723,-46.1267,29,1.0425,8214,4.0909,63.3612
rg,1624810872125921115,1,-0.5208,-0.686,0.5388,568,-103.5767,63.5376,25.5127,81,0.7694,0.7674,26.0975,-51.4042,29,1.0315,8295,4.0909,61.7543
rg,1624810872125940374,1,-0.3633,-0.9644,0.4199,569,-210.7544,-145.9351,-26.6724,81,0.7454,0.7624,21.657,-58.5591,29,1.0175,8240,4.0909,66.0634
rg,1624810872125957559,1,0.0222,-1.2373,0.5947,570,-172.7295,-212.1582,-4.3945,81,0.7344,0.7274,16.5437,-63.132,29,1.0045,8571,4.0909,73.7491
rg,1624810872125975003,1,0.5474,-1.4436,0.4478,571,-70.4956,-129.3335,75.4395,81,0.7314,0.6663,15.6403,-64.5626,29,0.9975,8981,4.0909,79.8696
rg,1624810872125992818,1,0.6985,-1.3901,0.6001,572,-28.4424,-59.082,81.9092,81,0.7314,0.6433,16.1744,-64.7059,29,0.9995,8349,4.0909,83.5355
rg,1624810872126010669,1,0.4961,-1.3103,0.532,573,42.0532,69.2749,61.0962,81,0.7304,0.6303,18.2447,-63.5874,29,0.9975,8282,4.0909,81.9801
rg,1624810872126028503,1,0.1589,-1.1919,0.4617,574,48.0957,118.5303,14.7705,81,0.7324,0.6243,19.9007,-63.2501,29,0.9975,8372,4.0909,77.6952
rg,1624810872126045910,1,-0.301,-0.8899,0.1953,575,97.8394,134.9487,-41.626,81,0.7324,0.6253,20.8401,-61.9695,29,0.9975,8341,4.0909,71.5753
rg,1624810872126064169,1,-0.4104,-0.6394,0.1418,576,131.2256,124.5728,-50.1099,81,0.7334,0.6303,21.9805,-59.361,29,0.9955,8391,4.0909,65.6781
rg,1624810872486506386,1,-0.5188,-0.1904,0.2529,577,-32.7759,-12.0239,20.3857,81,0.7434,0.6763,21.7963,-61.7808,29,1.0025,27012,4.0909,68.9849
rg,1624810872486553107,1,-0.1885,-1.2026,1.1428,578,-183.4717,-179.8096,28.0151,81,0.7484,0.6923,19.103,-65.8609,29,1.0085,8492,4.0909,76.6505
rg,1624810872486575070,1,0.2449,-1.7842,0.8904,579,-86.9751,-168.6401,28.9917,81,0.7534,0.7023,16.4972,-67.0738,29,1.0175,7950,4.0909,83.6728
rg,1624810872486594848,1,0.3318,-1.7981,0.6204,580,0.061,-125.9155,37.8418,81,0.7654,0.7123,14.877,-65.746,29,1.0265,7698,4.0909,89.0393
rg,1624810872486613644,1,0.4988,-1.3887,0.4666,581,115.4175,-31.6772,46.9971,81,0.7874,0.7244,14.7344,-60.8384,29,1.0335,8272,4.0909,90.9658
rg,1624810872486632514,1,0.2917,-0.8228,0.2615,582,145.6909,33.6914,11.7798,81,0.8114,0.7394,14.6008,-55.7096,29,1.0385,10634,4.0909,89.8623
rg,1624810872486650551,1,-0.0791,-0.4624,0.1846,583,109.4971,112.7319,6.1035,81,0.8264,0.7534,17.2026,-52.8384,29,1.0435,8570,4.0909,86.0679
rg,1624810872486669643,1,-0.2476,-0.4175,0.3223,584,76.8433,139.1602,15.4419,81,0.8334,0.7634,21.3974,-51.1428,29,1.0465,7730,4.0909,81.8316
rg,1624810872486687865,1,-0.5847,-0.4878,0.4009,585,-7.9346,81.7871,20.9351,81,0.8204,0.7714,24.8871,-52.311,29,1.0425,7897,4.0909,79.5977
rg,1624810872486705347,1,-0.4819,-0.6968,0.3235,586,-152.832,-110.9619,2.9297,81,0.7754,0.7754,22.7398,-57.2351,29,1.0335,7772,4.0909,83.4319
rg,1624810872486723328,1,-0.3125,-0.7839,0.343,587,-213.1958,-199.5239,-11.9629,81,0.7484,0.7614,18.331,-63.5837,29,1.0175,7978,4.0909,90.4445
rg,1624810872486741994,1,0.1702,-1.1064,0.6035,588,-210.7544,-264.7705,5.3711,81,0.7384,0.7254,13.341,-69.1086,29,1.0005,7833,4.0909,100.6511
rg,1624810872486760679,1,0.6455,-1.4885,0.3713,589,-148.5596,-232.9102,32.3486,81,0.7344,0.6503,11.8029,-71.5301,29,1.0005,8095,4.0909,107.7681
rg,1624810872486779142,1,0.8101,-1.4976,0.5664,590,-50.5981,-84.8999,59.8145,81,0.7344,0.6253,11.6211,-72.6264,29,1.0015,7930,4.0909,111.843
rg,1624810872486796901,1,0.5977,-1.4116,0.5703,591,33.5693,73.6084,57.4951,81,0.7354,0.6143,13.458,-71.5674,29,0.9995,8073,4.0909,109.7093
rg,1624810872486841586,1,0.2222,-1.1829,0.3206,592,41.8701,118.4082,55.9082,81,0.7354,0.6093,15.9919,-71.0036,29,1.0025,7919,4.0909,103.8588
rg,1624810872486863604,1,-0.1995,-0.8101,0.1357,593,99.3652,182.373,-33.1421,81,0.7354,0.6133,17.0901,-69.5821,29,1.0005,12005,4.0909,96.134
rg,1624810872486882808,1,-0.5942,-0.4541,0.1934,594,122.6196,187.561,-57.4341,81,0.7364,0.6223,18.9011,-66.6492,29,0.9995,8013,4.0909,87.7534
rg,1624810872486901326,1,-0.7732,-0.3733,0.2227,595,130.9814,174.6216,-38.269,81,0.7384,0.6313,21.9167,-63.8417,29,1.0005,8164,4.0909,80.4097
rg,1624810872486919585,1,-0.811,-0.3511,0.2617,596,28.6865,24.5361,17.7612,81,0.7394,0.6443,24.4377,-62.6941,29,1.0025,8033,4.0909,79.9043
rg,1624810872486937492,1,-0.5386,-0.7021,0.4119,597,-36.1938,-77.0874,15.564,81,0.7424,0.6603,22.2168,-63.3457,29,1.0055,8224,4.0909,86.6766
rg,1624810872486956696,1,-0.3149,-0.8748,0.6016,598,-120.4834,-234.9854,21.4844,81,0.7464,0.6783,18.6859,-64.5376,29,1.0155,8547,4.0909,96.2056
rg,1624810872486975566,1,0.3501,-1.3909,0.8789,599,-85.6934,-249.2065,30.0903,81,0.7494,0.6943,14.3973,-64.839,29,1.0185,8789,4.0909,106.2149
rg,1624810872486999807,1,0.5022,-1.4551,0.3579,600,36.9263,-133.7891,26.7334,81,0.7604,0.7093,11.7783,-62.552,29,1.0265,8228,4.0909,111.4924
rg,1624810872487020195,1,0.5339,-1.1548,0.4238,601,95.9473,-28.4424,12.8784,81,0.7824,0.7274,10.3688,-58.7453,29,1.0285,8763,4.0909,112.6585
rg,1624810872487038676,1,0.2664,-0.8242,0.2808,602,109.8022,51.6357,-2.4414,81,0.8034,0.7434,10.3699,-55.1609,29,1.0385,8207,4.0909,110.7221
rg,1624810872487056269,1,0.095,-0.7195,0.1987,603,102.9663,84.7778,0.1831,81,0.8194,0.7614,11.703,-52.3392,29,1.0435,8636,4.0909,107.7814
rg,1624810872487074435,1,-0.1775,-0.6038,0.2937,604,75.6836,133.4229,24.1089,81,0.8284,0.7754,15.8841,-50.6443,29,1.0475,8265,4.0909,104.0029
rg,1624810872487092398,1,-0.4304,-0.5938,0.3086,605,38.3911,95.3979,36.6211,81,0.8334,0.7894,20.0899,-50.1655,29,1.0495,8263,4.0909,101.7774
rg,1624810872487109713,1,-0.4204,-0.5583,0.332,606,6.4087,45.3491,37.3535,81,0.8014,0.7984,21.2003,-52.3165,29,1.0375,8692,4.0909,102.9881
rg,1624810872487244897,1,-0.3342,-0.6497,0.4578,607,-133.3008,-87.2192,14.0381,81,0.7624,0.7864,19.7029,-56.538,29,1.0195,8307,4.0909,106.3338
rg,1624810872487306396,1,-0.1067,-0.9307,0.5237,608,-196.167,-179.5654,3.54,81,0.7454,0.7494,15.6756,-62.5224,29,1.0055,8500,4.0909,112.8699
rg,1624810872858766128,1,0.6692,-1.4226,0.4131,609,35.3394,7.4463,55.9692,81,0.7384,0.6233,16.3329,-61.2873,29,1.0005,25853,4.0909,113.5551
rg,1624810872858815702,1,0.0752,-1.2473,0.386,610,82.1533,176.3306,28.2593,81,0.7384,0.6173,19.9736,-60.3159,29,1.0005,11647,4.0909,107.5089
rg,1624810872858836943,1,-0.4695,-1.009,0.3381,611,121.2769,187.439,-28.6255,81,0.7394,0.6123,22.9236,-58.6684,29,0.9995,7785,4.0909,99.8076
rg,1624810872858857535,1,-0.7002,-0.8369,0.2708,612,161.6821,164.7339,-42.6025,81,0.7394,0.6053,26.1166,-55.67,29,0.9995,7857,4.0909,92.5473
rg,1624810872858877516,1,-0.8125,-0.4485,0.0005,613,209.7778,76.2329,-5.0049,81,0.7404,0.5993,29.1858,-49.2861,29,0.9995,7763,4.0909,89.4651
rg,1624810872858897868,1,-0.6096,0.0051,-0.0408,614,145.0195,-54.3213,38.208,81,0.7424,0.5953,30.7884,-42.0236,29,0.9995,7825,4.0909,92.5901
rg,1624810872858916627,1,-0.323,-0.0337,0.0366,615,-17.8223,-179.8096,49.1943,81,0.7444,0.5943,28.3842,-39.1946,29,1.0005,10613,4.0909,99.758
rg,1624810872858936182,1,-0.0874,-0.6182,0.551,616,-177.124,-283.5693,46.6919,81,0.7454,0.5963,20.2634,-42.647,29,1.0025,7893,4.0909,109.2685
rg,1624810872858955275,1,0.2607,-1.0945,1.1843,617,-213.9282,-309.8755,40.4663,81,0.7474,0.5993,11.6916,-48.3077,29,1.0055,7837,4.0909,119.634
rg,1624810872858973867,1,0.4807,-1.7346,0.4194,618,-78.8574,-172.5464,10.498,87,0.7494,0.6033,6.6179,-51.5698,29,1.0085,8055,4.0865,125.0697
rg,1624810872859026404,1,0.5046,-1.3267,0.3804,619,50.5371,-23.5596,21.7896,87,0.7514,0.6033,5.7004,-50.2198,29,1.0085,8075,4.0865,126.2493
rg,1624810872859050218,1,0.1914,-0.8079,0.6504,620,84.4727,67.0166,-3.0518,87,0.7524,0.6003,6.735,-47.1051,29,1.0075,9209,4.0865,124.1189
rg,1624810872859069588,1,0.0039,-0.7095,0.5784,621,70.1904,78.6133,-8.728,87,0.7524,0.6013,8.381,-44.7747,29,1.0055,7929,4.0865,121.5683
rg,1624810872859087662,1,-0.2617,-0.8542,0.5852,622,9.0332,59.6313,-2.1362,87,0.7534,0.6023,10.232,-45.1088,29,1.0035,8021,4.0865,119.7357
rg,1624810872859107273,1,-0.2207,-1.1802,0.6499,623,-8.606,-26.1841,-3.418,87,0.7534,0.6043,9.3807,-45.9577,29,1.0065,7962,4.0865,120.2886
rg,1624810872859127143,1,-0.1099,-1.2034,0.5645,624,7.3853,-54.8706,-5.7373,87,0.7544,0.6073,7.5355,-46.1822,29,1.0065,8110,4.0865,121.6095
rg,1624810872859146273,1,0.041,-1.0181,0.4548,625,51.3306,-57.373,-9.1553,87,0.7554,0.6063,5.3116,-44.7407,29,1.0045,8043,4.0865,122.8952
rg,1624810872859166143,1,-0.0337,-0.6968,0.3572,626,70.4956,-33.3862,-13.1836,87,0.7554,0.6053,3.8852,-42.5817,29,1.0065,8168,4.0865,123.3732
rg,1624810872859185513,1,-0.1033,-0.6077,0.3652,627,62.8662,-26.4893,-11.5967,87,0.7564,0.6043,2.9699,-40.6782,29,1.0055,8052,4.0865,123.694
rg,1624810872859204976,1,-0.1575,-0.6262,0.4072,628,27.4048,-40.7104,-1.709,87,0.7544,0.6053,2.0485,-40.1545,29,1.0045,8117,4.0865,124.6718
rg,1624810872859224068,1,-0.0427,-0.8228,0.4778,629,-0.4272,-88.562,-0.4883,87,0.7574,0.6053,-0.6175,-40.898,29,1.0055,8081,4.0865,126.9367
rg,1624810872859243216,1,0.0349,-0.9197,0.4775,630,-2.7466,-99.7314,0.3052,87,0.7584,0.6063,-3.7997,-41.9638,29,1.0055,8107,4.0865,129.6035
rg,1624810872859263142,1,0.1763,-0.9961,0.5137,631,14.6484,-95.5811,1.5259,87,0.7574,0.6063,-6.7872,-42.4106,29,1.0045,8089,4.0865,132.2856
rg,1624810872859283382,1,0.2124,-0.9556,0.5286,632,31.4331,-65.918,-0.5493,87,0.7594,0.6073,-8.9218,-42.1088,29,1.0055,8101,4.0865,134.147
rg,1624810872859302178,1,0.1726,-0.9175,0.5166,633,36.8652,-48.584,-0.3662,87,0.7604,0.6083,-10.0141,-41.4455,29,1.0055,8229,4.0865,135.2662
rg,1624810872859341900,1,0.083,-0.8867,0.5437,634,36.377,-36.0718,-1.3428,87,0.7604,0.6093,-10.9299,-40.8275,29,1.0045,8130,4.0865,136.3111
rg,1624810872859362826,1,0.0605,-0.8958,0.509,635,38.208,-39.4897,-1.5259,87,0.7614,0.6093,-11.8872,-40.2665,29,1.0055,8224,4.0865,137.4625
rg,1624810872859381363,1,0.0854,-0.8735,0.4932,636,42.4194,-42.7856,-1.5869,87,0.7614,0.6103,-12.9829,-39.5996,29,1.0045,8362,4.0865,138.7076
rg,1624810872859400011,1,0.0862,-0.8518,0.479,637,44.2505,-40.8325,-3.3569,87,0.7624,0.6103,-14.0444,-38.8838,29,1.0045,8202,4.0865,139.8559
rg,1624810872859417899,1,0.0806,-0.8074,0.447,638,45.0439,-41.5649,-2.9297,87,0.7634,0.6103,-15.0916,-38.2056,29,1.0045,8852,4.0865,141.0509
rg,1624810872859436325,1,0.0688,-0.7922,0.4753,639,43.8843,-41.5039,-2.9297,87,0.7634,0.6083,-16.0764,-37.5419,29,1.0065,8998,4.0865,142.2367
rg,1624810872859454436,1,0.0789,-0.8411,0.5291,640,41.8701,-42.0532,-1.1597,87,0.7644,0.6083,-17.0187,-36.9733,29,1.0065,8435,4.0865,143.4928
rg,1624810873216299248,1,0.0693,-0.8403,0.5686,641,57.8613,-42.9688,4.6997,87,0.7654,0.6063,-17.8031,-35.7961,29,1.0045,25902,4.0865,144.9539
rg,1624810873216334785,1,0.0645,-0.7986,0.572,642,58.1665,-47.0581,5.3101,87,0.7664,0.6043,-18.6942,-34.6446,29,1.0015,9970,4.0865,146.5211
rg,1624810873216355470,1,0.0779,-0.7854,0.5632,643,52.1851,-58.7769,-0.4883,87,0.7664,0.6023,-20.1267,-33.8255,29,1.0025,14813,4.0865,148.1743
rg,1624810873216375544,1,0.0928,-0.7783,0.5654,644,50.4761,-63.9038,-3.2959,87,0.7664,0.6013,-21.7925,-33.1378,29,1.0025,7700,4.0865,149.8626
rg,1624810873216394414,1,0.1411,-0.7532,0.5405,645,49.0112,-72.876,-5.7983,87,0.7674,0.6003,-23.8894,-32.6423,29,1.0025,7642,4.0865,151.7048
rg,1624810873216412247,1,0.1499,-0.75,0.5559,646,46.2646,-78.0029,-15.0757,87,0.7674,0.6003,-26.3076,-32.2157,29,1.0025,9480,4.0865,153.3565
rg,1624810873216430229,1,0.1489,-0.7563,0.5798,647,43.7012,-80.2002,-16.3574,87,0.7674,0.5993,-28.7349,-31.9426,29,1.0025,7722,4.0865,155.0515
rg,1624810873216447432,1,0.1848,-0.8101,0.6377,648,46.3867,-79.7729,-14.7095,87,0.7694,0.6013,-31.0758,-31.642,29,1.0055,8543,4.0865,156.8459
rg,1624810873216464154,1,0.2537,-0.8435,0.6624,649,52.002,-73.4253,-9.5825,87,0.7674,0.5963,-33.1377,-31.2213,29,1.0015,8917,4.0865,158.7452
rg,1624810873216480784,1,0.2917,-0.8523,0.6638,650,59.4482,-58.3496,-5.4321,87,0.7684,0.5953,-34.6115,-30.4666,29,1.0025,8623,4.0865,160.4891
rg,1624810873216497043,1,0.2905,-0.835,0.6555,651,63.1104,-48.8892,-3.8452,87,0.7684,0.5933,-35.7021,-29.5211,29,1.0025,8109,4.0865,162.0916
rg,1624810873216535357,1,0.2266,-0.7673,0.6335,652,67.749,-34.4238,-5.7983,87,0.7664,0.5903,-36.2137,-28.1329,29,1.0005,7938,4.0865,163.249
rg,1624810873216553061,1,0.1406,-0.7109,0.6165,653,66.04,-34.6069,-10.1929,87,0.7684,0.5883,-36.6533,-26.7048,29,1.0015,8150,4.0865,164.2023
rg,1624810873216570709,1,0.0967,-0.6658,0.5984,654,64.7583,-40.6494,-10.8032,87,0.7684,0.5853,-37.654,-25.5784,29,1.0015,8708,4.0865,165.3222
rg,1624810873216587264,1,0.0842,-0.6536,0.5986,655,58.4106,-63.9648,-17.0898,87,0.7694,0.5833,-39.1307,-24.67,29,1.0005,8708,4.0865,166.5797
rg,1624810873216604505,1,0.1213,-0.6711,0.6609,656,53.1616,-88.6841,-19.2871,87,0.7694,0.5813,-41.6171,-24.2079,29,1.0005,8387,4.0865,168.2384
rg,1624810873216621171,1,0.2324,-0.7153,0.7241,657,54.6875,-98.5107,-14.6484,87,0.7694,0.5783,-44.4188,-24.0903,29,1.0005,8631,4.0865,170.433
rg,1624810873216658263,1,0.3396,-0.7417,0.7419,658,59.4482,-94.3604,-2.4414,87,0.7694,0.5753,-46.9514,-24.3168,29,0.9985,8427,4.0865,-186.6893
rg,1624810873216675893,1,0.4746,-0.7371,0.748,659,64.0259,-87.5854,7.8125,87,0.7694,0.5723,-49.1897,-24.7735,29,0.9995,8640,4.0865,-183.284
rg,1624810873216696393,1,0.5662,-0.7114,0.7173,660,67.4438,-64.1479,6.2866,87,0.7694,0.5683,-50.7003,-24.6898,29,0.9995,12970,4.0865,-180.4436
rg,1624810873216713985,1,0.5742,-0.6516,0.665,661,70.4346,-20.5078,2.3804,87,0.7694,0.5663,-50.7446,-23.4378,29,0.9995,8271,4.0865,-178.9596
rg,1624810873216732207,1,0.4263,-0.6062,0.6768,662,59.082,23.6206,-5.6763,87,0.7694,0.5643,-49.066,-21.4276,29,0.9995,8506,4.0865,-179.0434
rg,1624810873216751725,1,0.3118,-0.6167,0.7246,663,54.3823,33.1421,-7.5684,87,0.7704,0.5633,-46.6254,-19.547,29,0.9995,8698,4.0865,-179.3017
rg,1624810873216770077,1,0.0991,-0.6687,0.7754,664,55.0537,21.3623,-13.3057,87,0.7704,0.5633,-44.6154,-17.7479,29,0.9985,8888,4.0865,-179.5303
rg,1624810873216788910,1,0.0242,-0.6729,0.7854,665,65.0024,-27.4048,-12.0239,87,0.7704,0.5623,-44.3689,-16.2739,29,0.9985,10561,4.0865,-178.8228
rg,1624810873216806966,1,0.207,-0.634,0.8369,666,69.0308,-75.6836,-6.4087,87,0.7704,0.5603,-46.187,-15.2442,29,0.9975,9524,4.0865,-177.1867
rg,1624810873216824206,1,0.3916,-0.6204,0.834,667,68.7866,-86.2427,0.8545,87,0.7704,0.5593,-48.6054,-14.6604,29,0.9975,8116,4.0865,-174.9718
rg,1624810873216841724,1,0.4958,-0.6179,0.8071,668,70.4956,-72.998,4.2114,87,0.7704,0.5583,-50.6075,-14.1246,29,0.9985,8932,4.0865,-172.6602
rg,1624810873216862650,1,0.5237,-0.6013,0.7871,669,72.2656,-61.7676,3.9673,87,0.7714,0.5583,-51.7006,-12.9635,29,0.9975,8113,4.0865,-170.9078
rg,1624810873216880594,1,0.5193,-0.5439,0.7886,670,75.8057,-34.729,1.0986,87,0.7704,0.5583,-52.2471,-11.5887,29,0.9975,8680,4.0865,-169.3903
rg,1624810873216897854,1,0.4382,-0.5012,0.7998,671,71.3501,-14.4653,0.4272,87,0.7714,0.5583,-51.8656,-10.1002,29,0.9975,8915,4.0865,-168.2273
rg,1624810873216914279,1,0.3479,-0.5044,0.8379,672,65.2466,-7.6294,1.3428,87,0.7704,0.5573,-51.0528,-8.8776,29,0.9965,8671,4.0865,-167.065
rg,1624810873584455213,1,0.3442,-0.5181,0.8879,673,60.1196,-40.6494,5.0049,87,0.7704,0.5543,-51.5062,-8.3011,29,0.9965,26458,4.0865,-165.3579
rg,1624810873584499787,1,0.4736,-0.468,0.8862,674,59.7534,-38.147,10.3149,87,0.7714,0.5513,-52.0283,-7.8323,29,0.9965,16933,4.0865,-163.4602
rg,1624810873584521564,1,0.5046,-0.4666,0.8887,675,58.1055,-30.7617,11.6577,87,0.7704,0.5503,-51.9462,-7.457,29,0.9965,7674,4.0865,-161.5782
rg,1624810873584541397,1,0.5242,-0.4556,0.8804,676,54.5654,-9.3384,15.0146,87,0.7714,0.5503,-51.3963,-7.2081,29,0.9965,7886,4.0865,-159.6543
rg,1624810873584561027,1,0.4639,-0.4724,0.8826,677,52.4292,15.3809,17.0898,87,0.7704,0.5493,-49.7902,-7.0208,29,0.9965,7653,4.0865,-157.7821
rg,1624810873584604638,1,0.4138,-0.4622,0.9006,678,52.124,23.2544,17.6392,87,0.7714,0.5483,-47.74,-6.6785,29,0.9955,7900,4.0865,-156.0667
rg,1624810873584624822,1,0.3232,-0.4429,0.9277,679,53.1006,23.9258,20.0806,87,0.7724,0.5483,-45.6398,-6.3217,29,0.9975,9412,4.0865,-154.2908
rg,1624810873584643656,1,0.3118,-0.4062,0.9321,680,48.584,10.2539,17.8223,87,0.7724,0.5483,-44.135,-5.9617,29,0.9985,7947,4.0865,-152.6897
rg,1624810873584666155,1,0.3547,-0.4089,0.9333,681,41.687,-7.6904,17.5781,87,0.7724,0.5463,-43.646,-5.9829,29,0.9955,13156,4.0865,-151.1667
rg,1624810873584686081,1,0.3704,-0.4148,0.9294,682,35.4004,-14.5874,13.3667,87,0.7724,0.5463,-43.3192,-6.048,29,0.9945,8011,4.0865,-149.7115
rg,1624810873584706081,1,0.3872,-0.4382,0.9407,683,29.8462,-16.9678,12.2681,87,0.7724,0.5453,-43.1237,-6.3328,29,0.9945,7851,4.0865,-148.2853
rg,1624810873584725488,1,0.384,-0.4441,0.938,684,28.2593,-15.9302,12.4512,87,0.7734,0.5453,-42.8513,-6.6982,29,0.9945,8002,4.0865,-146.8651
rg,1624810873584744432,1,0.3806,-0.4336,0.9495,685,26.5503,-13.4277,13.0005,87,0.7724,0.5443,-42.4981,-7.0634,29,0.9945,7925,4.0865,-145.4657
rg,1624810873584763062,1,0.3701,-0.4602,0.967,686,28.3813,-11.6577,15.8691,87,0.7734,0.5433,-42.0385,-7.4712,29,0.9965,8722,4.0865,-143.9125
rg,1624810873584781376,1,0.3743,-0.45,0.9641,687,26.4893,-7.6904,17.2729,87,0.7734,0.5423,-41.4307,-7.9262,29,0.9945,8445,4.0865,-142.3566
rg,1624810873584800580,1,0.374,-0.447,0.9568,688,26.6724,-6.3477,18.4937,87,0.7744,0.5423,-40.7241,-8.349,29,0.9945,8115,4.0865,-140.8127
rg,1624810873584819413,1,0.3481,-0.4399,0.9521,689,26.7334,-5.6152,17.4561,87,0.7734,0.5413,-40.0255,-8.6981,29,0.9945,7937,4.0865,-139.3364
rg,1624810873584837950,1,0.3315,-0.4253,0.9468,690,26.4282,-7.019,14.5264,87,0.7744,0.5413,-39.3919,-8.9068,29,0.9935,8249,4.0865,-138.0472
rg,1624810873584856098,1,0.3342,-0.4014,0.9426,691,24.5361,-11.5967,12.5122,87,0.7734,0.5403,-38.9762,-9.0705,29,0.9925,8773,4.0865,-136.8798
rg,1624810873584873672,1,0.3579,-0.4084,0.9368,692,22.8271,-15.9302,11.8408,87,0.7744,0.5423,-38.8509,-9.3085,29,0.9935,8180,4.0865,-135.7442
rg,1624810873584909449,1,0.3687,-0.418,0.9451,693,20.0195,-15.7471,8.8501,87,0.7744,0.5423,-38.697,-9.5608,29,0.9925,8157,4.0865,-134.7285
rg,1624810873584930968,1,0.3645,-0.449,0.9805,694,19.6533,-14.5264,10.8643,87,0.7754,0.5413,-38.4524,-9.9085,29,0.9935,8186,4.0865,-133.6063
rg,1624810873584949967,1,0.356,-0.4534,0.9656,695,24.5361,-11.2915,14.1602,87,0.7754,0.5413,-38.0575,-10.1511,29,0.9925,8103,4.0865,-132.3441
rg,1624810873584979837,1,0.3501,-0.4321,0.9612,696,26.6113,-10.0098,16.9067,87,0.7754,0.5403,-37.5955,-10.323,29,0.9925,8286,4.0865,-130.9995
rg,1624810873584998189,1,0.3669,-0.3906,0.9668,697,24.8413,-5.6763,19.7144,87,0.7764,0.5403,-36.9838,-10.4975,29,0.9925,8180,4.0865,-129.638
rg,1624810873585017133,1,0.3757,-0.394,0.959,698,20.3857,-4.7607,21.2402,87,0.7764,0.5393,-36.3641,-10.8759,29,0.9925,8324,4.0865,-128.2234
rg,1624810873585034300,1,0.3577,-0.4082,0.9524,699,18.1274,-4.3945,21.3013,87,0.7754,0.5393,-35.6456,-11.3038,29,0.9905,8194,4.0865,-126.8996
rg,1624810873585052133,1,0.342,-0.4099,0.95,700,16.3574,-2.4414,18.6157,87,0.7754,0.5373,-34.9334,-11.729,29,0.9915,8473,4.0865,-125.6606
rg,1624810873585069262,1,0.3152,-0.4163,0.9438,701,15.1367,-4.7607,16.8457,87,0.7754,0.5383,-34.2984,-12.1555,29,0.9925,8238,4.0865,-124.4958
rg,1624810873585087133,1,0.3254,-0.406,0.9316,702,13.5498,-9.9487,15.3809,87,0.7764,0.5383,-33.922,-12.5918,29,0.9915,8432,4.0865,-123.3764
rg,1624810873585105077,1,0.3386,-0.3972,0.9028,703,12.5732,-11.4746,14.7095,87,0.7774,0.5373,-33.708,-13.0829,29,0.9925,8312,4.0865,-122.2128
rg,1624810873585122706,1,0.3452,-0.3958,0.8887,704,13.2446,-10.6201,14.1602,87,0.7774,0.5363,-33.4465,-13.4678,29,0.9925,8500,4.0865,-121.164
rg,1624810874027296912,1,0.3242,-0.3965,0.8826,705,17.8223,-1.2207,18.7378,87,0.7774,0.5363,-32.7458,-13.7136,29,0.9915,26160,4.0865,-120.0169
rg,1624810874027364523,1,0.3457,-0.3772,0.9224,706,15.625,8.4229,23.1323,87,0.7774,0.5353,-31.6691,-13.9778,29,0.9915,12911,4.0865,-118.8477
rg,1624810874027389448,1,0.3694,-0.4114,0.9326,707,13.1836,13.6108,24.6582,87,0.7774,0.5353,-30.4481,-14.3688,29,0.9915,10395,4.0865,-117.665
rg,1624810874027409152,1,0.3298,-0.4346,0.9404,708,12.8174,21.6675,19.6533,87,0.7774,0.5363,-28.924,-14.6147,29,0.9905,9552,4.0865,-116.8113
rg,1624810874027427670,1,0.2932,-0.4246,0.9492,709,14.2212,25.0854,17.5781,87,0.7784,0.5363,-27.2046,-14.6602,29,0.9905,7813,4.0865,-116.1406
rg,1624810874027447133,1,0.2283,-0.4055,0.9514,710,15.0146,18.9819,12.085,87,0.7774,0.5363,-25.7776,-14.5586,29,0.9905,7764,4.0865,-115.666
rg,1624810874027464596,1,0.2051,-0.3977,0.9399,711,11.9019,0.1221,8.4229,87,0.7774,0.5363,-25.1272,-14.5938,29,0.9905,9059,4.0865,-115.15
rg,1624810874027483503,1,0.2275,-0.4019,0.925,712,10.6201,-19.4702,3.7842,87,0.7784,0.5363,-25.3563,-14.7063,29,0.9915,8310,4.0865,-114.6091
rg,1624810874027501447,1,0.252,-0.4028,0.9192,713,10.8643,-27.3438,3.7231,87,0.7784,0.5363,-25.9331,-14.8522,29,0.9905,7750,4.0865,-113.9761
rg,1624810874027571002,1,0.3113,-0.3823,0.9128,714,12.3291,-32.8979,4.0894,87,0.7784,0.5363,-26.8249,-14.9338,29,0.9865,8298,4.0865,-113.2761
rg,1624810874027596002,1,0.364,-0.366,0.908,715,11.9629,-30.8228,5.3101,87,0.7794,0.5363,-27.6463,-15.0727,29,0.9905,7816,4.0865,-112.4593
rg,1624810874027615298,1,0.3906,-0.3682,0.9182,716,13.1836,-26.8555,8.667,87,0.7804,0.5373,-28.3465,-15.152,29,0.9905,8110,4.0865,-111.6312
rg,1624810874027635835,1,0.447,-0.3762,0.9375,717,12.207,-17.1509,12.5732,87,0.7794,0.5363,-28.6954,-15.2991,29,0.9915,8245,4.0865,-110.7423
rg,1624810874027655261,1,0.4368,-0.3718,0.9412,718,11.9629,2.8687,14.0991,87,0.7794,0.5373,-28.2229,-15.3548,29,0.9895,8137,4.0865,-110.0346
rg,1624810874027673649,1,0.3997,-0.3843,0.9575,719,10.1929,10.2539,15.1367,87,0.7794,0.5383,-27.389,-15.466,29,0.9885,8234,4.0865,-109.3707
rg,1624810874027694057,1,0.3132,-0.4075,0.9758,720,11.4136,17.9443,11.6577,87,0.7794,0.5383,-26.1483,-15.4425,29,0.9905,8198,4.0865,-108.942
rg,1624810874027711964,1,0.2566,-0.3938,0.9817,721,12.6953,12.0239,13.6719,87,0.7794,0.5393,-25.0492,-15.397,29,0.9895,7917,4.0865,-108.3793
rg,1624810874027730186,1,0.249,-0.3816,0.9785,722,12.3901,5.0049,11.9019,87,0.7794,0.5393,-24.269,-15.3356,29,0.9885,8233,4.0865,-107.8268
rg,1624810874027750334,1,0.2751,-0.3723,0.9504,723,9.8267,-9.7656,8.667,87,0.7794,0.5403,-24.1887,-15.3902,29,0.9885,8348,4.0865,-107.2426
rg,1624810874027768371,1,0.3213,-0.3721,0.9568,724,8.1787,-19.6533,8.728,87,0.7804,0.5403,-24.5791,-15.5502,29,0.9885,7886,4.0865,-106.5434
rg,1624810874027786352,1,0.3457,-0.3555,0.959,725,7.3242,-22.7051,9.5825,87,0.7794,0.5393,-25.1096,-15.7359,29,0.9885,8007,4.0865,-105.7844
rg,1624810874027804259,1,0.4165,-0.3687,0.9761,726,4.9438,-21.7285,10.3149,87,0.7784,0.5393,-25.6929,-16.0373,29,0.9895,8655,4.0865,-104.9963
rg,1624810874027822611,1,0.4148,-0.3787,0.9492,727,4.6997,-11.4746,13.3667,87,0.7794,0.5393,-25.5805,-16.3726,29,0.9885,8999,4.0865,-104.2122
rg,1624810874027841703,1,0.3518,-0.366,0.9397,728,4.3945,-2.5635,15.0146,87,0.7804,0.5393,-25.2531,-16.683,29,0.9885,8699,4.0865,-103.4562
rg,1624810874027860222,1,0.3108,-0.3577,0.9219,729,3.0518,-2.0142,13.0615,87,0.7794,0.5393,-24.8667,-16.9895,29,0.9885,9004,4.0865,-102.7996
rg,1624810874027907554,1,0.3079,-0.377,0.9116,730,1.4648,-7.5684,12.3291,87,0.7804,0.5403,-24.7088,-17.4125,29,0.9885,8320,4.0865,-102.0878
rg,1624810874027929665,1,0.3171,-0.3892,0.9099,731,3.1128,-7.8125,11.2915,87,0.7794,0.5403,-24.5926,-17.7621,29,0.9895,8684,4.0865,-101.412
rg,1624810874027949850,1,0.3118,-0.3828,0.9175,732,4.6997,-6.897,10.8643,92,0.7794,0.5403,-24.4304,-17.9913,29,0.9895,8897,4.0832,-100.7846
rg,1624810874027966276,1,0.2954,-0.3672,0.9128,733,8.4229,-5.127,11.5356,92,0.7804,0.5413,-24.173,-18.0403,29,0.9895,8459,4.0832,-100.167
rg,1624810874027983794,1,0.2981,-0.3469,0.9258,734,9.3384,-5.249,14.1602,92,0.7804,0.5403,-23.8992,-18.0361,29,0.9895,9882,4.0832,-99.4645
rg,1624810874028001942,1,0.3318,-0.3477,0.9363,735,7.6294,-7.2021,15.0757,92,0.7804,0.5393,-23.7609,-18.1156,29,0.9895,8633,4.0832,-98.7024
rg,1624810874028019572,1,0.3596,-0.3496,0.9377,736,7.2632,-7.3853,16.4185,92,0.7804,0.5393,-23.6719,-18.2305,29,0.9895,8949,4.0832,-97.8832
rg,1624810874304410703,1,0.2952,-0.3589,0.9407,737,2.8687,5.5542,17.4561,92,0.7804,0.5383,-22.9474,-18.476,29,0.9905,27030,4.0832,-97.1959
rg,1624810874304481054,1,0.2852,-0.3674,0.9458,738,1.709,5.4321,16.9678,92,0.7804,0.5383,-22.2106,-18.7359,29,0.9895,8696,4.0832,-96.5397
rg,1624810874304511165,1,0.271,-0.3601,0.9536,739,3.6621,2.4414,13.7939,92,0.7804,0.5383,-21.6464,-18.8628,29,0.9895,7858,4.0832,-95.982
rg,1624810874304539331,1,0.2493,-0.3794,0.9397,740,2.3193,0.6104,11.7798,92,0.7784,0.5373,-21.1569,-19.0654,29,0.9895,8218,4.0832,-95.4662
rg,1624810874304565849,1,0.2539,-0.376,0.9402,741,3.3569,-1.1597,11.7188,92,0.7804,0.5383,-20.8999,-19.1891,29,0.9895,8210,4.0832,-94.9644
rg,1624810874304592182,1,0.2737,-0.3831,0.9412,742,5.188,-5.3101,8.7891,92,0.7804,0.5393,-20.7492,-19.2507,29,0.9895,9003,4.0832,-94.4923
rg,1624810874304618126,1,0.2942,-0.3843,0.9431,743,7.2021,-6.7139,8.1787,92,0.7814,0.5393,-20.7061,-19.2274,29,0.9905,8384,4.0832,-94.0263
rg,1624810874304693200,1,0.2903,-0.3616,0.9224,744,10.3149,-4.7607,8.8501,92,0.7814,0.5413,-20.5913,-19.049,29,0.9905,8465,4.0832,-93.5718
rg,1624810874304726607,1,0.3091,-0.3313,0.9434,745,10.8032,0.061,8.728,92,0.7824,0.5413,-20.2816,-18.7622,29,0.9915,8967,4.0832,-93.1213
rg,1624810874304756088,1,0.3245,-0.3354,0.946,746,8.5449,-1.1597,13.3667,92,0.7824,0.5413,-20.055,-18.6384,29,0.9915,11079,4.0832,-92.5568
rg,1624810874304782773,1,0.3347,-0.3357,0.9431,747,8.0566,-1.1597,14.4043,92,0.7824,0.5413,-19.854,-18.5712,29,0.9915,7955,4.0832,-91.9425
rg,1624810874304809180,1,0.3359,-0.3486,0.9473,748,5.9204,0.3662,15.3809,92,0.7824,0.5413,-19.5599,-18.5995,29,0.9915,8092,4.0832,-91.3085
rg,1624810874304836550,1,0.3147,-0.3491,0.9424,749,6.8359,3.479,14.0991,92,0.7824,0.5433,-19.1581,-18.5634,29,0.9915,8087,4.0832,-90.7673
rg,1624810874304861291,1,0.3081,-0.3474,0.9338,750,7.6294,2.6245,16.2354,92,0.7824,0.5423,-18.7697,-18.528,29,0.9915,8272,4.0832,-90.1288
rg,1624810874304887716,1,0.2993,-0.3406,0.9363,751,7.9346,3.8452,16.3574,92,0.7824,0.5443,-18.2789,-18.4367,29,0.9915,8089,4.0832,-89.5172
rg,1624810874304915142,1,0.2747,-0.3379,0.947,752,8.2397,5.5542,14.8315,92,0.7824,0.5443,-17.7586,-18.3117,29,0.9915,8203,4.0832,-88.9851
rg,1624810874304939901,1,0.259,-0.3364,0.9526,753,9.2163,3.7231,14.8926,92,0.7834,0.5453,-17.2932,-18.1492,29,0.9915,8304,4.0832,-88.428
rg,1624810874304965827,1,0.2666,-0.3213,0.9551,754,7.3242,1.4648,16.3574,92,0.7824,0.5453,-16.9321,-18.0559,29,0.9925,8543,4.0832,-87.7924
rg,1624810874304992512,1,0.271,-0.322,0.959,755,6.1646,-1.4038,17.0898,92,0.7834,0.5463,-16.6908,-18.0384,29,0.9925,8424,4.0832,-87.0873
rg,1624810874305021678,1,0.2798,-0.3284,0.9553,756,4.7607,-2.7466,16.4795,92,0.7834,0.5473,-16.5384,-18.0779,29,0.9925,9231,4.0832,-86.3883
rg,1624810874305084714,1,0.2417,-0.3291,0.9556,757,4.3335,-1.9531,14.4653,92,0.7834,0.5473,-16.3062,-18.1066,29,0.9925,8144,4.0832,-85.7803
rg,1624810874305114585,1,0.2327,-0.3291,0.9534,758,4.5166,-5.5542,14.6484,92,0.7834,0.5473,-16.1989,-18.1418,29,0.9925,8312,4.0832,-85.1186
rg,1624810874305172936,1,0.2336,-0.3245,0.9526,759,4.1504,-8.7891,14.0991,92,0.7834,0.5483,-16.2404,-18.1899,29,0.9925,8156,4.0832,-84.4387
rg,1624810874305203176,1,0.2554,-0.332,0.9556,760,2.6855,-12.6953,13.4277,92,0.7834,0.5493,-16.4663,-18.3131,29,0.9935,8403,4.0832,-83.7313
rg,1624810874305229972,1,0.2651,-0.3479,0.9526,761,3.418,-11.7798,11.3525,92,0.7834,0.5503,-16.6928,-18.4143,29,0.9935,8454,4.0832,-83.1076
rg,1624810874305259713,1,0.2622,-0.3411,0.9546,762,3.7842,-11.6577,11.5967,92,0.7834,0.5503,-16.8956,-18.4857,29,0.9935,8593,4.0832,-82.4803
rg,1624810874305288824,1,0.2639,-0.3342,0.9631,763,4.3945,-10.6812,10.3149,92,0.7844,0.5503,-17.0735,-18.5196,29,0.9935,8381,4.0832,-81.9147
rg,1624810874305318286,1,0.2644,-0.3403,0.9546,764,4.8218,-11.9629,10.6812,92,0.7834,0.5523,-17.2882,-18.5388,29,0.9935,9062,4.0832,-81.3193
rg,1624810874305345897,1,0.2778,-0.3481,0.9592,765,4.4556,-11.9019,10.9253,92,0.7834,0.5523,-17.5127,-18.5899,29,0.9935,8532,4.0832,-80.7103
rg,1624810874305374156,1,0.2703,-0.3457,0.9395,766,5.0049,-11.3525,9.2773,92,0.7844,0.5533,-17.7236,-18.6077,29,0.9935,8533,4.0832,-80.1706
rg,1624810874305400545,1,0.2705,-0.3494,0.9424,767,4.6997,-13.1226,8.9722,92,0.7844,0.5553,-17.9844,-18.5804,29,0.9935,8414,4.0832,-79.6558
rg,1624810874305428637,1,0.2766,-0.3459,0.9463,768,6.1646,-13.7939,9.1553,92,0.7844,0.5563,-18.28,-18.5611,29,0.9945,8594,4.0832,-79.0876
rg,1624810874753981362,1,0.2715,-0.3132,0.9392,769,7.2632,-8.8501,12.6953,92,0.7854,0.5603,-18.3318,-18.4583,29,0.9945,24620,4.0832,-78.4645
rg,1624810874754017473,1,0.2915,-0.3215,0.939,770,4.0894,-10.8032,15.8691,92,0.7854,0.5613,-18.4295,-18.6143,29,0.9945,12062,4.0832,-77.7201
rg,1624810874754038176,1,0.2859,-0.3293,0.9424,771,1.77,-9.6436,15.8691,92,0.7854,0.5623,-18.4881,-18.8066,29,0.9955,8352,4.0832,-76.9488
rg,1624810874754057991,1,0.2673,-0.3306,0.9514,772,0.7935,-6.2866,14.4653,92,0.7854,0.5623,-18.3895,-18.9937,29,0.9955,9147,4.0832,-76.2828
rg,1624810874754079454,1,0.2637,-0.3257,0.9468,773,0.9766,-7.2632,15.686,92,0.7854,0.5633,-18.3092,-19.1772,29,0.9945,7642,4.0832,-75.5596
rg,1624810874754136731,1,0.2505,-0.3357,0.9597,774,1.709,-7.3242,16.4185,92,0.7864,0.5633,-18.1865,-19.3442,29,0.9955,7663,4.0832,-74.8052
rg,1624810874754158527,1,0.2661,-0.3306,0.946,775,2.0142,-8.0566,15.2588,92,0.7854,0.5633,-18.1489,-19.484,29,0.9955,7667,4.0832,-74.0875
rg,1624810874754176527,1,0.2612,-0.3342,0.9563,776,3.1128,-8.5449,14.0991,92,0.7864,0.5633,-18.1307,-19.5573,29,0.9945,9455,4.0832,-73.412
rg,1624810874754193379,1,0.2664,-0.3372,0.9519,777,1.77,-9.2163,13.4277,92,0.7854,0.5633,-18.1587,-19.6855,29,0.9935,7822,4.0832,-72.7513
rg,1624810874754210767,1,0.2668,-0.3374,0.9453,778,1.77,-7.8125,13.3057,92,0.7854,0.5633,-18.1377,-19.8066,29,0.9945,8064,4.0832,-72.1149
rg,1624810874754227693,1,0.2754,-0.334,0.9468,779,2.1973,-7.6904,14.0381,92,0.7864,0.5643,-18.1197,-19.9056,29,0.9945,8128,4.0832,-71.4554
rg,1624810874754245230,1,0.2612,-0.3376,0.9446,780,2.5635,-7.7515,13.2446,92,0.7864,0.5643,-18.0852,-19.9858,29,0.9945,8089,4.0832,-70.8245
rg,1624810874754262915,1,0.2668,-0.3318,0.9473,781,3.8452,-8.728,11.1694,92,0.7854,0.5643,-18.1282,-19.9759,29,0.9955,8021,4.0832,-70.267
rg,1624810874754279970,1,0.2666,-0.3286,0.9429,782,2.9907,-8.9722,11.9629,92,0.7854,0.5653,-18.1701,-20.0081,29,0.9955,8134,4.0832,-69.6755
rg,1624810874754297192,1,0.272,-0.322,0.957,783,3.1128,-10.498,14.1602,92,0.7864,0.5653,-18.2421,-20.0441,29,0.9945,8030,4.0832,-68.9829
rg,1624810874754315748,1,0.2659,-0.3271,0.9509,784,2.6245,-9.2163,12.8174,92,0.7864,0.5653,-18.2706,-20.0918,29,0.9945,7997,4.0832,-68.3573
rg,1624810874754335229,1,0.2493,-0.3247,0.9612,785,2.9297,-9.9487,13.2446,92,0.7864,0.5663,-18.2795,-20.1213,29,0.9955,7866,4.0832,-67.7088
rg,1624810874754354710,1,0.2649,-0.3274,0.958,786,2.5635,-10.8643,12.8784,92,0.7864,0.5663,-18.3607,-20.1726,29,0.9955,8042,4.0832,-67.0588
rg,1624810874754373284,1,0.2625,-0.3203,0.947,787,1.709,-10.5591,12.4512,92,0.7864,0.5663,-18.4345,-20.243,29,0.9955,7897,4.0832,-66.4328
rg,1624810874754391173,1,0.2512,-0.3213,0.959,788,1.0376,-11.6577,11.9629,92,0.7864,0.5663,-18.5224,-20.3304,29,0.9955,8067,4.0832,-65.8125
rg,1624810874754425117,1,0.251,-0.3301,0.9514,789,0.9766,-11.8408,11.9629,92,0.7864,0.5663,-18.6142,-20.4434,29,0.9955,7957,4.0832,-65.182
rg,1624810874754445561,1,0.252,-0.3333,0.9534,790,1.6479,-13.3667,11.2305,92,0.7864,0.5673,-18.7689,-20.53,29,0.9955,8092,4.0832,-64.5567
rg,1624810874754463765,1,0.2617,-0.3325,0.9531,791,1.5869,-13.6108,10.9253,92,0.7864,0.5663,-18.9508,-20.6136,29,0.9955,8009,4.0832,-63.9404
rg,1624810874754482728,1,0.2695,-0.3323,0.9482,792,1.8311,-13.916,11.6577,92,0.7864,0.5663,-19.1447,-20.7007,29,0.9955,8191,4.0832,-63.2894
rg,1624810874754499894,1,0.2634,-0.325,0.9453,793,1.77,-13.3667,10.5591,92,0.7864,0.5673,-19.3153,-20.7581,29,0.9955,8023,4.0832,-62.6949
rg,1624810874754517894,1,0.2666,-0.322,0.9514,794,2.5635,-14.8315,12.3901,92,0.7864,0.5663,-19.5113,-20.8041,29,0.9955,8205,4.0832,-62.0094
rg,1624810874754535727,1,0.2734,-0.3271,0.9509,795,2.0142,-14.3433,10.9253,92,0.7864,0.5673,-19.7152,-20.8625,29,0.9955,8124,4.0832,-61.3851
rg,1624810874754553023,1,0.29,-0.3318,0.9453,796,2.2583,-15.0757,10.0708,92,0.7874,0.5673,-19.9865,-20.9187,29,0.9955,8251,4.0832,-60.7784
rg,1624810874754569986,1,0.2917,-0.3267,0.9351,797,2.5024,-14.7095,11.0474,92,0.7864,0.5683,-20.242,-20.9838,29,0.9955,8139,4.0832,-60.1359
rg,1624810874754689318,1,0.2974,-0.3254,0.9434,798,2.1362,-12.4512,12.3901,92,0.7874,0.5683,-20.3781,-21.0512,29,0.9965,8297,4.0832,-59.481
rg,1624810874754738188,1,0.2817,-0.3213,0.9409,799,2.5635,-10.0098,11.9019,92,0.7874,0.5683,-20.3942,-21.0725,29,0.9965,8160,4.0832,-58.8863
rg,1624810874754760040,1,0.2817,-0.3293,0.9492,800,1.6479,-10.437,11.7188,92,0.7874,0.5683,-20.4379,-21.1627,29,0.9965,8363,4.0832,-58.2116
rg,1624810875099518488,1,0.2788,-0.3232,0.9519,801,0.2441,-10.5591,14.6484,92,0.7864,0.5693,-20.418,-21.3095,29,0.9955,24677,4.0832,-57.5017
rg,1624810875099638043,1,0.2664,-0.3262,0.9475,802,0.4883,-9.0332,13.5498,92,0.7864,0.5693,-20.3324,-21.426,29,0.9955,8786,4.0832,-56.8577
rg,1624810875099670653,1,0.2512,-0.3264,0.9548,803,0.5493,-10.2539,11.4136,92,0.7864,0.5693,-20.29,-21.5064,29,0.9965,8485,4.0832,-56.2827
rg,1624810875099738375,1,0.248,-0.3301,0.9456,804,0.9766,-10.9863,11.7798,92,0.7864,0.5703,-20.2675,-21.5904,29,0.9965,8273,4.0832,-55.6773
rg,1624810875099771412,1,0.2546,-0.3235,0.9512,805,1.3428,-13.855,12.2681,92,0.7874,0.5703,-20.3566,-21.6604,29,0.9955,7948,4.0832,-55.0145
rg,1624810875099799374,1,0.2644,-0.3271,0.9509,806,1.709,-14.0381,11.8408,92,0.7874,0.5713,-20.4744,-21.7181,29,0.9955,8401,4.0832,-54.363
rg,1624810875099826281,1,0.2671,-0.3284,0.9443,807,1.4038,-12.8174,10.437,92,0.7874,0.5713,-20.5821,-21.7518,29,0.9955,8113,4.0832,-53.79
rg,1624810875099852633,1,0.2717,-0.3259,0.95,808,0.9155,-13.855,12.6953,92,0.7874,0.5703,-20.6865,-21.8494,29,0.9965,8125,4.0832,-53.1084
rg,1624810875099877948,1,0.2795,-0.3308,0.9421,809,2.5635,-14.9536,13.9771,92,0.7874,0.5713,-20.8267,-21.9203,29,0.9965,8516,4.0832,-52.3528
rg,1624810875099903799,1,0.2854,-0.3284,0.9451,810,2.5635,-13.6108,12.0239,92,0.7884,0.5723,-20.9516,-21.9474,29,0.9955,8178,4.0832,-51.6992
rg,1624810875099929132,1,0.2852,-0.3198,0.9504,811,2.6245,-13.6108,13.4277,92,0.7884,0.5723,-21.0487,-21.9695,29,0.9955,8285,4.0832,-50.9981
rg,1624810875099954151,1,0.2874,-0.3254,0.9507,812,1.2207,-12.2681,13.1836,92,0.7874,0.5733,-21.0987,-22.0487,29,0.9955,15154,4.0832,-50.324
rg,1624810875099979095,1,0.2866,-0.3303,0.9458,813,2.5635,-12.3291,14.8315,92,0.7884,0.5733,-21.1234,-22.1101,29,0.9955,7961,4.0832,-49.5788
rg,1624810875100005058,1,0.2749,-0.325,0.9548,814,2.3804,-11.4136,13.916,92,0.7884,0.5723,-21.0985,-22.1388,29,0.9965,8073,4.0832,-48.8926
rg,1624810875100031002,1,0.2781,-0.322,0.9502,815,2.2583,-11.2305,13.855,92,0.7884,0.5723,-21.0783,-22.1662,29,0.9965,7994,4.0832,-48.2131
rg,1624810875100059427,1,0.2834,-0.3308,0.9524,816,2.1362,-12.5732,13.6719,92,0.7874,0.5733,-21.1186,-22.2206,29,0.9965,8131,4.0832,-47.5128
rg,1624810875100085446,1,0.2844,-0.3296,0.9421,817,1.0986,-11.7798,11.7798,92,0.7884,0.5723,-21.164,-22.2883,29,0.9955,11288,4.0832,-46.899
rg,1624810875100112501,1,0.2661,-0.3274,0.936,818,2.2583,-12.085,12.8174,92,0.7874,0.5723,-21.1679,-22.3234,29,0.9965,8342,4.0832,-46.24
rg,1624810875100174741,1,0.2688,-0.3284,0.9399,819,1.3428,-13.9771,13.9771,92,0.7884,0.5723,-21.2262,-22.421,29,0.9955,8577,4.0832,-45.5044
rg,1624810875100208259,1,0.2698,-0.3267,0.9546,820,1.5869,-14.1602,12.9395,92,0.7884,0.5743,-21.3046,-22.4691,29,0.9965,8681,4.0832,-44.8419
rg,1624810875100236148,1,0.2764,-0.3301,0.9514,821,2.0142,-13.6719,12.207,92,0.7884,0.5733,-21.3814,-22.5038,29,0.9955,8434,4.0832,-44.1844
rg,1624810875100261944,1,0.2778,-0.3301,0.9424,822,2.1362,-13.9771,12.8174,92,0.7884,0.5733,-21.4646,-22.5512,29,0.9965,8768,4.0832,-43.4952
rg,1624810875100290870,1,0.2827,-0.3259,0.9414,823,2.5635,-14.1602,12.5732,92,0.7884,0.5733,-21.5663,-22.5701,29,0.9955,8860,4.0832,-42.8159
rg,1624810875100316981,1,0.2883,-0.3284,0.9417,824,2.4414,-13.1836,13.3667,92,0.7884,0.5743,-21.6266,-22.6053,29,0.9965,8604,4.0832,-42.1193
rg,1624810875100342240,1,0.2905,-0.3228,0.9446,825,2.6245,-12.8174,13.916,92,0.7884,0.5733,-21.65,-22.6351,29,0.9965,8881,4.0832,-41.4486
rg,1624810875100368017,1,0.2896,-0.3232,0.9495,826,2.6855,-12.3291,13.916,92,0.7884,0.5743,-21.666,-22.6443,29,0.9965,8907,4.0832,-40.7514
rg,1624810875100393443,1,0.2908,-0.323,0.9421,827,1.709,-12.207,15.5029,92,0.7884,0.5743,-21.6586,-22.7198,29,0.9965,8804,4.0832,-39.9915
rg,1624810875100418961,1,0.282,-0.3293,0.9412,828,2.9907,-10.9863,14.2212,92,0.7894,0.5753,-21.6066,-22.7291,29,0.9965,8396,4.0832,-39.2983
rg,1624810875100444479,1,0.2717,-0.3264,0.9529,829,1.4648,-11.6577,14.2212,92,0.7884,0.5753,-21.554,-22.7862,29,0.9965,9006,4.0832,-38.6001
rg,1624810875100469275,1,0.2788,-0.3264,0.9507,830,2.1362,-11.7798,14.1602,92,0.7894,0.5763,-21.5545,-22.8471,29,0.9965,8467,4.0832,-37.8553
rg,1624810875100493960,1,0.2791,-0.3293,0.9487,831,1.709,-11.9629,12.6953,92,0.7884,0.5763,-21.5544,-22.8791,29,0.9965,8430,4.0832,-37.2101
rg,1624810875100519256,1,0.2756,-0.3252,0.9426,832,2.3193,-13.6108,12.5732,92,0.7884,0.5753,-21.6135,-22.8896,29,0.9975,9163,4.0832,-36.5439
rg,1624810875440881057,1,0.3064,-0.314,0.9285,833,3.418,-13.9771,12.6343,92,0.7894,0.5773,-21.7585,-22.8477,29,0.9975,26762,4.0832,-35.8738
rg,1624810875440942815,1,0.2854,-0.3213,0.9265,834,2.1973,-11.5356,13.4888,92,0.7894,0.5763,-21.7499,-22.8715,29,0.9955,8588,4.0832,-35.204
rg,1624810875440964204,1,0.2798,-0.3201,0.9412,835,1.8921,-11.1694,13.1836,92,0.7884,0.5773,-21.711,-22.8964,29,0.9965,8439,4.0832,-34.5539
rg,1624810875440983722,1,0.2842,-0.3208,0.9424,836,1.3428,-11.9629,14.5874,92,0.7894,0.5783,-21.6908,-22.9568,29,0.9975,7855,4.0832,-33.8391
rg,1624810875441002315,1,0.2839,-0.3235,0.9329,837,2.6855,-11.8408,13.855,92,0.7894,0.5783,-21.682,-22.963,29,0.9975,8110,4.0832,-33.1511
rg,1624810875441020463,1,0.2852,-0.3206,0.9426,838,2.8687,-11.7188,15.1367,92,0.7894,0.5783,-21.6395,-22.976,29,0.9965,7956,4.0832,-32.4158
rg,1624810875441037648,1,0.2854,-0.3223,0.9446,839,1.4648,-12.085,15.625,92,0.7894,0.5793,-21.6104,-23.0448,29,0.9975,8242,4.0832,-31.6583
rg,1624810875441054703,1,0.2849,-0.3118,0.9392,840,1.5259,-12.146,15.3198,92,0.7884,0.5793,-21.5934,-23.0849,29,0.9965,8545,4.0832,-30.9199
rg,1624810875441071999,1,0.283,-0.3181,0.9563,841,1.0986,-11.1694,14.4043,92,0.7894,0.5793,-21.5499,-23.149,29,0.9975,8136,4.0832,-30.2126
rg,1624810875441089573,1,0.2666,-0.3318,0.9604,842,-0.3052,-10.8643,12.146,92,0.7884,0.5813,-21.5112,-23.2244,29,0.9975,9045,4.0832,-29.5726
rg,1624810875441106721,1,0.2646,-0.3276,0.9524,843,1.2207,-15.625,14.3433,92,0.7894,0.5813,-21.585,-23.3004,29,0.9965,8011,4.0832,-28.8065
rg,1624810875441124036,1,0.2881,-0.3191,0.9407,844,2.8076,-15.0757,14.5874,155,0.7894,0.5823,-21.6888,-23.3028,29,0.9975,7867,4.0436,-28.0439
rg,1624810875441141165,1,0.29,-0.3157,0.9438,845,2.5024,-14.5874,14.7095,155,0.7894,0.5823,-21.7762,-23.3259,29,0.9975,8051,4.0436,-27.3317
rg,1624810875441158017,1,0.2959,-0.3286,0.9473,846,1.9531,-14.0991,14.8315,155,0.7894,0.5833,-21.8424,-23.3775,29,0.9975,8170,4.0436,-26.57
rg,1624810875441174258,1,0.2905,-0.3274,0.9326,847,2.9297,-14.5264,15.686,155,0.7894,0.5833,-21.9049,-23.4131,29,0.9975,9075,4.0436,-25.7642
rg,1624810875441190443,1,0.2922,-0.3259,0.9316,848,2.4414,-13.3057,13.916,155,0.7884,0.5823,-21.9526,-23.4311,29,0.9975,8292,4.0436,-25.0506
rg,1624810875441219387,1,0.2959,-0.3281,0.9399,849,2.8076,-14.4653,13.9771,155,0.7894,0.5823,-22.0156,-23.4412,29,0.9975,8979,4.0436,-24.3421
rg,1624810875441237683,1,0.2937,-0.3228,0.9397,850,1.9531,-14.3433,14.2212,155,0.7904,0.5833,-22.0909,-23.4771,29,0.9975,8382,4.0436,-23.6035
rg,1624810875441254349,1,0.2969,-0.3247,0.9336,851,2.1362,-14.8926,14.4653,155,0.7894,0.5833,-22.1885,-23.5221,29,0.9965,8493,4.0436,-22.8425
