name,time,activity,ax,ay,az,batch_val,gx,gy,gz,ibat,index,middle,pitch,roll,temp,thumb,ts,vbat,yaw
lg,1625794477300578413,0,0.9639,-0.2043,0.6189,1,-39.978,-38.6353,-28.4424,62,1.3487,1.1145,-73.6948,-42.499,28,0.069,19719,3.993,88.2302
lg,1625794477300624135,0,0.8979,-0.2197,0.5972,2,-33.6304,-16.0522,-27.2217,62,1.3497,1.1145,-74.1939,-40.5614,28,0.068,8071,3.993,84.9678
lg,1625794477300644783,0,0.8687,-0.1711,0.5747,3,-34.1187,-9.2163,-26.7944,62,1.3477,1.1135,-74.478,-37.7974,28,0.069,8042,3.993,80.8464
lg,1625794477300664450,0,0.0242,-0.491,0.7866,4,-21.5454,99.8535,-16.9678,124,1.3447,1.0545,-69.5318,-29.5601,29,0.069,13339,3.9688,71.2026
lg,1625794477300683394,0,-0.1926,-0.4907,0.7278,5,-35.7666,25.7568,-20.0195,124,1.3447,1.0775,-66.8387,-28.4519,29,0.067,7971,3.9688,68.379
lg,1625794477300702450,0,-0.1353,-0.5156,0.8008,6,-48.3398,-35.9497,-19.7144,124,1.3447,1.0885,-66.2876,-30.7528,29,0.066,7764,3.9688,68.7278
lg,1625794477300721357,0,0.3293,-0.7212,0.8777,7,-67.8711,-110.4126,-8.9111,124,1.3437,1.0905,-68.2891,-39.4328,29,0.065,7741,3.9688,75.1364
lg,1625794477300738839,0,0.4707,-0.4546,0.7031,8,7.0801,-50.5981,-21.5454,124,1.3437,1.0905,-68.9384,-40.1236,29,0.066,8459,3.9688,76.2914
lg,1625794477300756394,0,0.0808,-0.1064,0.5349,9,20.5688,4.5166,-15.9912,124,1.3427,1.0915,-66.2357,-35.3056,29,0.066,9252,3.9688,72.0581
lg,1625794477300775765,0,0.0452,-0.1731,0.5095,10,-12.0239,9.8877,19.3481,124,1.3427,1.0935,-63.5895,-35.1145,29,0.066,7811,3.9688,71.5767
lg,1625794477300795468,0,0.3911,-0.4692,0.7844,11,-55.6641,-76.7822,34.6069,124,1.3437,1.0945,-63.6163,-42.8898,29,0.065,8026,3.8885,77.8857
lg,1625794477300813376,0,0.605,-0.6379,0.9092,12,-59.5093,-86.3647,39.3677,124,1.3437,1.0955,-63.536,-50.6855,29,0.064,7877,3.8885,84.4843
lg,1625794477300831857,0,0.863,-0.771,0.9812,13,-32.7148,-52.3071,23.0103,124,1.3447,1.0965,-62.9945,-55.4376,29,0.063,7888,3.8885,88.5526
lg,1625794477300849042,0,0.7209,-0.7109,0.9399,14,-3.2959,12.6953,10.6812,124,1.3457,1.0965,-61.2561,-53.9347,29,0.062,7920,3.8885,86.9992
lg,1625794477300866524,0,0.5933,-0.709,0.9377,15,7.6904,30.3345,7.6904,124,1.3457,1.0965,-58.984,-51.0505,29,0.062,7923,3.8885,84.3499
lg,1625794477300884487,0,0.4268,-0.6846,0.9187,16,32.5317,46.4478,0.6104,124,1.3457,1.0935,-56.3897,-46.6247,29,0.063,7906,3.8885,80.9512
lg,1625794477300901561,0,0.2568,-0.7307,0.876,17,59.6313,54.1992,-12.146,124,1.3477,1.0855,-53.6204,-41.2191,29,0.065,7901,3.8885,77.4177
lg,1625794477300920005,0,0.1372,-0.7046,0.8472,18,70.4346,49.0723,-17.5171,124,1.3497,1.0705,-50.8921,-35.9859,29,0.067,8031,3.8885,74.4394
lg,1625794477300937394,0,0.0378,-0.6548,0.8645,19,79.7119,24.7803,-10.376,124,1.3487,1.0585,-48.5989,-31.8832,29,0.067,8029,3.8885,73.185
lg,1625794477300954802,0,0.1763,-0.5281,0.7603,20,75.9277,-23.6206,2.8687,124,1.3507,1.0485,-47.9511,-29.7055,29,0.064,8034,3.8885,74.2276
lg,1625794477300975505,0,0.3289,-0.4922,0.7539,21,61.8896,-45.7764,6.2256,124,1.3507,1.0395,-48.8858,-28.4377,29,0.065,8053,3.8885,75.8705
lg,1625794477300994209,0,0.7351,-0.2627,0.634,22,20.9961,-48.584,13.9771,124,1.3507,1.0405,-50.2239,-29.0193,29,0.066,8059,3.8885,77.8842
lg,1625794477301013579,0,0.7893,-0.4155,0.8779,23,-20.6909,-10.9253,14.7705,124,1.3527,1.0535,-49.8619,-30.5218,29,0.067,8117,3.8885,78.8705
lg,1625794477301032431,0,0.6682,-0.5435,0.9324,24,-28.6255,9.3384,12.6953,124,1.3537,1.0735,-47.6516,-31.8263,29,0.068,8083,3.8885,78.8694
lg,1625794477301052505,0,0.375,-0.5601,0.8318,25,-29.3579,45.7153,17.0288,124,1.3527,1.0885,-44.7128,-32.6735,29,0.07,8112,3.8885,78.3488
lg,1625794477301070450,0,0.1528,-0.4727,0.8015,26,-27.5269,35.4004,14.3433,124,1.3507,1.0955,-41.9046,-33.3632,29,0.069,8186,3.8885,77.8437
lg,1625794477301092042,0,0.26,-0.4736,0.7156,27,-30.3345,13.916,12.2681,124,1.3477,1.0935,-40.6848,-35.0526,29,0.069,8220,3.8885,78.5117
lg,1625794477301111913,0,0.3386,-0.5464,0.7627,28,-31.3721,4.8218,25.4517,124,1.3407,1.0975,-39.1185,-36.9039,29,0.069,8208,3.8885,79.4315
lg,1625794477301129246,0,0.207,-0.552,0.8638,29,-16.4185,55.7861,42.1143,124,1.3367,1.0985,-35.281,-37.3314,29,0.069,10258,3.8885,79.2733
lg,1625794477301148783,0,0.0149,-0.4917,0.8013,30,2.5024,44.8608,38.0859,124,1.3347,1.1005,-31.6623,-37.0349,29,0.069,8266,3.8885,79.2611
lg,1625794477301169505,0,0.1243,-0.509,0.7925,31,-3.418,-21.7896,28.2593,124,1.3337,1.1025,-30.7337,-37.8247,29,0.069,8275,3.8885,80.815
lg,1625794477301190172,0,0.2681,-0.5842,0.8174,32,-6.958,-51.2085,24.1089,124,1.3327,1.1025,-31.8693,-39.3393,29,0.069,8302,3.8885,83.5466
lg,1625794477657361413,0,0.5864,-0.7156,0.8035,33,0.2441,10.1929,15.2588,124,1.3397,1.1015,-31.0328,-39.5439,29,0.072,25786,3.8885,83.8386
lg,1625794477657438024,0,0.3345,-0.5142,0.7043,34,-6.958,40.4663,21.2402,124,1.3417,1.1085,-28.8512,-39.4487,29,0.072,16649,3.8885,83.3208
lg,1625794477657489838,0,0.2278,-0.6064,0.7751,35,-21.8506,26.7334,10.6201,124,1.3417,1.1085,-27.1392,-40.0559,29,0.072,7759,3.8885,82.8749
lg,1625794477657539283,0,0.124,-0.6426,0.7827,36,-21.6064,22.583,7.3242,124,1.3407,1.1085,-25.3816,-40.8545,29,0.074,7700,3.8885,82.6534
lg,1625794477657588987,0,-0.0085,-0.6768,0.7393,37,-20.0806,4.0283,11.1084,124,1.3397,1.1085,-23.9743,-41.8166,29,0.072,9295,3.8885,82.9211
lg,1625794477657635931,0,-0.0432,-0.6467,0.8101,38,-9.7046,-43.1519,-2.5024,124,1.3397,1.1085,-24.302,-42.5381,29,0.073,7768,3.8885,84.0478
lg,1625794477657681857,0,0.1458,-0.6462,0.6211,39,0.5493,-83.0078,-4.5776,124,1.3407,1.1085,-26.2409,-43.6674,29,0.074,8829,3.8885,86.4718
lg,1625794477657727487,0,0.3374,-0.5925,0.7332,40,-0.4883,-93.2007,5.0049,124,1.3397,1.1075,-28.8941,-45.0148,29,0.073,8338,3.8885,89.5344
lg,1625794477657770209,0,0.6951,-0.6162,0.7305,41,-0.9155,-86.9141,10.6812,124,1.3397,1.1075,-31.2758,-46.4791,29,0.073,7714,3.8885,92.676
lg,1625794477657813116,0,0.8081,-0.6641,0.7944,42,10.7422,-22.2168,10.5591,124,1.3417,1.1075,-31.8415,-46.3717,29,0.074,7866,3.8885,93.6418
lg,1625794477657854857,0,0.6978,-0.6653,0.7859,43,19.4092,18.0054,10.0098,124,1.3427,1.1075,-31.1441,-45.2031,29,0.073,7907,3.8885,93.2276
lg,1625794477657895727,0,0.4949,-0.53,0.7017,44,27.4048,66.7114,8.7891,145,1.3427,1.1075,-28.9255,-42.847,29,0.074,7886,3.8885,91.1956
lg,1625794477657938301,0,0.3982,-0.5144,0.7444,45,25.4517,72.7539,1.0376,145,1.3447,1.1085,-26.5351,-40.4853,29,0.073,7925,3.8885,88.8735
lg,1625794477657980079,0,0.4138,-0.5334,0.7324,46,27.4658,67.9321,-6.6528,145,1.3457,1.1095,-24.3545,-38.3308,29,0.074,9097,3.8885,86.6714
lg,1625794477658021876,0,0.2698,-0.6733,0.9033,47,43.5791,74.8901,-23.7427,145,1.3477,1.1105,-22.107,-35.4202,29,0.075,9658,3.8885,83.8638
lg,1625794477658064950,0,-0.0173,-0.7202,0.8635,48,82.8857,77.6978,-42.8467,145,1.3487,1.1105,-19.5765,-31.1111,29,0.074,7988,3.8885,80.609
lg,1625794477658108801,0,-0.3215,-0.6533,0.8308,49,102.9053,52.7344,-33.8745,145,1.3507,1.1055,-17.0489,-26.5721,29,0.071,7972,3.8885,78.4376
lg,1625794477658151468,0,-0.2622,-0.6042,0.7542,50,102.6611,15.0757,-17.5781,145,1.3507,1.0955,-15.6046,-22.7042,29,0.068,7991,3.8885,77.6935
lg,1625794477658193283,0,0.0583,-0.4712,0.7737,51,76.5381,-70.4346,-9.9487,145,1.3527,1.0825,-17.8967,-20.2043,29,0.064,8007,3.8885,78.4925
lg,1625794477658235838,0,0.459,-0.4363,0.7639,52,40.2222,-95.7642,2.1362,145,1.3517,1.0715,-21.8384,-19.4466,29,0.06,8000,3.8885,80.0684
lg,1625794477658277950,0,0.5742,-0.4834,0.8184,53,24.9023,-84.3506,5.7373,145,1.3527,1.0635,-25.3027,-19.4422,29,0.062,8034,3.8885,81.6855
lg,1625794477658319116,0,0.7197,-0.3982,0.7878,54,5.8594,-36.8652,7.3853,145,1.3537,1.0635,-27.1292,-19.837,29,0.064,8073,3.8885,82.6583
lg,1625794477658361616,0,0.5369,-0.4309,0.8982,55,-11.7798,18.6768,7.019,145,1.3557,1.0705,-26.3548,-20.5152,29,0.065,12744,3.8885,82.7586
lg,1625794477658403394,0,0.3545,-0.3755,0.8147,56,-32.0435,36.438,-1.0376,145,1.3557,1.0835,-24.8221,-21.688,29,0.068,8143,3.8885,82.204
lg,1625794477658444857,0,0.1633,-0.3882,0.7554,57,-60.4248,25.3296,-9.3994,145,1.3557,1.0965,-23.4892,-23.9878,29,0.069,8222,3.8885,81.477
lg,1625794477658486005,0,0.0205,-0.5093,0.8423,58,-85.022,1.77,-11.3525,145,1.3567,1.1075,-22.7622,-27.4786,29,0.069,8460,3.8885,81.0924
lg,1625794477658527376,0,-0.0859,-0.7,0.8677,59,-94.7266,-15.3809,-13.5498,145,1.3547,1.1115,-23.2606,-31.7018,29,0.07,8218,3.8885,81.6683
lg,1625794477658571524,0,-0.0371,-0.7334,0.946,60,-87.2192,-55.481,-5.188,145,1.3527,1.1085,-24.2473,-35.8853,29,0.066,8393,3.8885,82.8972
lg,1625794477658613209,0,0.0889,-0.4177,0.8286,61,-1.5869,-70.4956,-40.0391,145,1.3547,1.1085,-26.7327,-35.7094,29,0.066,8202,3.8885,83.1271
lg,1625794477658656320,0,-0.0378,-0.3416,0.6204,62,1.2817,-50.415,-20.3247,145,1.3547,1.1095,-27.7098,-35.61,29,0.068,8262,3.8885,83.5723
lg,1625794477658697820,0,0.1592,-0.3235,0.5957,63,-17.334,-73.6694,3.1128,145,1.3547,1.1095,-29.9572,-37.3114,29,0.068,8261,3.8885,85.688
lg,1625794477658739376,0,0.791,-0.5024,0.7898,64,-55.7251,-116.0278,27.832,145,1.3547,1.1115,-33.2071,-41.7066,29,0.067,8339,3.8885,90.0983
lg,1625794478004963635,0,0.418,-0.626,0.7749,65,15.0146,102.5391,10.3149,145,1.3547,1.1105,-29.4295,-39.5453,29,0.067,25968,3.8885,87.2647
lg,1625794478005079079,0,0.196,-0.7017,0.8467,66,21.6064,69.5801,-2.9907,145,1.3577,1.1145,-26.5866,-37.7091,29,0.063,16135,3.8885,85.1961
lg,1625794478005132394,0,0.165,-0.7275,0.8525,67,30.8838,56.7627,-9.4604,145,1.3577,1.1125,-24.5561,-35.2749,29,0.068,7741,3.8885,83.4133
lg,1625794478005181709,0,0.0623,-0.7903,0.8069,68,60.9741,41.3208,-25.0854,145,1.3587,1.1035,-22.9323,-32.4644,29,0.069,7671,3.8885,81.6788
lg,1625794478005229560,0,-0.0964,-0.6189,0.7024,69,84.0454,5.3711,-11.7188,145,1.3587,1.0865,-21.9058,-29.2859,29,0.067,7703,3.8885,81.3048
lg,1625794478005276098,0,-0.0535,-0.5522,0.6792,70,75.6836,-20.2026,-6.2866,145,1.3597,1.0675,-21.7718,-26.7501,29,0.065,7974,3.8885,81.6548
lg,1625794478005322431,0,0.2986,-0.4277,0.6392,71,38.8184,-75.9888,0.2441,145,1.3587,1.0505,-24.4551,-26.0578,29,0.063,8551,3.8885,83.242
lg,1625794478005373838,0,0.7769,-0.3762,0.7085,72,-18.7378,-81.4819,13.916,145,1.3587,1.0435,-27.8485,-27.8336,29,0.068,8338,3.8885,85.4804
lg,1625794478005419357,0,0.9199,-0.5054,0.78,73,-35.6445,-65.4907,11.4136,145,1.3587,1.0465,-30.5537,-30.3548,29,0.069,7821,3.8885,87.4919
lg,1625794478005466523,0,0.7949,-0.6379,0.9001,74,-38.5132,18.1885,5.127,145,1.3597,1.0565,-30.0293,-31.9502,29,0.071,7904,3.8885,87.3507
lg,1625794478005513412,0,0.3049,-0.6436,0.8616,75,-35.4004,71.4111,-10.3149,145,1.3597,1.0705,-27.287,-32.5349,29,0.069,7866,3.8885,85.3082
lg,1625794478005558246,0,0.1021,-0.6431,0.8279,76,-35.2783,68.9087,-14.8926,145,1.3607,1.0865,-24.4657,-33.1937,29,0.071,7871,3.8885,83.1837
lg,1625794478005600394,0,-0.2168,-0.5378,0.7688,77,-35.1562,33.1421,-13.9771,145,1.3617,1.1055,-23.4008,-34.8165,29,0.069,11660,3.8885,82.8483
lg,1625794478005646986,0,-0.0815,-0.5776,0.8064,78,-50.5371,-53.5889,-12.146,145,1.3607,1.1095,-24.3379,-37.232,29,0.07,8092,3.8885,83.7896
lg,1625794478005690209,0,0.3223,-0.6267,0.7017,79,-20.4468,-121.2158,-37.9639,145,1.3607,1.1095,-28.8424,-39.1289,29,0.07,7983,3.8885,85.8897
lg,1625794478005736246,0,0.5173,-0.4302,0.592,80,-9.7656,-102.1118,-32.7759,145,1.3617,1.1095,-31.4735,-39.3824,29,0.069,7979,3.8885,86.7143
lg,1625794478006416246,0,0.3982,-0.3157,0.5293,81,5.6763,-6.4087,-8.1177,145,1.3617,1.1105,-31.9336,-38.7541,29,0.07,8073,3.8885,86.4263
lg,1625794478006894264,0,0.0645,-0.3826,0.5959,82,-17.334,18.6157,15.564,145,1.3597,1.1115,-29.9479,-39.1641,29,0.068,9005,3.8885,86.2852
lg,1625794478006950838,0,0.3022,-0.5784,0.7698,83,-37.4146,-41.3208,31.5552,145,1.3617,1.1135,-29.8838,-41.7122,29,0.07,8963,3.8885,88.567
lg,1625794478007011246,0,0.6309,-0.7886,0.9099,84,-34.729,-56.2134,28.1372,145,1.3607,1.1135,-30.6526,-44.4299,29,0.071,10205,3.8885,91.2774
lg,1625794478007067653,0,0.6526,-0.8066,0.9041,85,-3.2349,-14.5264,14.0991,145,1.3627,1.1135,-30.5684,-44.9169,29,0.072,8141,3.8885,92.1563
lg,1625794478007116523,0,0.5964,-0.8159,0.895,86,12.5122,1.3428,4.9438,145,1.3617,1.1105,-30.2135,-44.3605,29,0.073,8166,3.8885,92.2158
lg,1625794478007166672,0,0.3486,-0.8611,0.8804,87,45.5933,17.334,-13.3057,145,1.3647,1.1055,-29.5048,-42.0409,29,0.073,8125,3.8885,91.2282
lg,1625794478007219523,0,0.1619,-0.8003,0.8157,88,69.7632,14.5874,-27.771,145,1.3647,1.0955,-28.9484,-38.6846,29,0.073,8126,3.8885,89.903
lg,1625794478007262375,0,0.1174,-0.731,0.7856,89,74.9512,7.6904,-20.9961,145,1.3637,1.0865,-28.3331,-35.4231,29,0.072,8186,3.8885,89.0464
lg,1625794478007315598,0,0.3582,-0.4524,0.6113,90,47.6685,-16.4185,-1.3428,145,1.3647,1.0835,-28.7712,-33.7365,29,0.071,8180,3.8885,89.4408
lg,1625794478007367283,0,0.6946,-0.3823,0.6135,91,3.1738,-20.813,6.6528,145,1.3647,1.0855,-29.8935,-33.9269,29,0.071,8186,3.8885,90.1951
lg,1625794478007419209,0,0.7461,-0.521,0.7446,92,-10.0708,-11.1694,2.9297,145,1.3657,1.0905,-30.3198,-34.6301,29,0.072,8221,3.8885,90.6496
lg,1625794478007464616,0,0.5725,-0.7341,0.842,93,-8.9722,30.3345,-14.8926,145,1.3637,1.1045,-29.5376,-34.5601,29,0.074,8284,3.8885,89.4143
lg,1625794478007508727,0,0.1504,-0.5906,0.7278,94,1.77,67.5659,-20.1416,145,1.3647,1.1115,-26.9675,-33.5106,29,0.075,8267,3.8885,87.0373
lg,1625794478007557005,0,-0.0129,-0.5227,0.7332,95,0.6104,58.5327,-20.3247,145,1.3647,1.1165,-25.1394,-33.2055,29,0.074,8273,3.8885,85.5111
lg,1625794478007602986,0,-0.1311,-0.6934,0.8149,96,-13.4277,-11.1084,-23.1323,145,1.3647,1.1175,-24.8129,-33.7961,29,0.073,8251,3.8885,85.057
lg,1625794478360456634,0,0.3577,-0.1902,0.4546,97,23.3154,-53.833,-8.5449,145,1.3657,1.1185,-27.2349,-32.9012,29,0.075,26359,3.8885,85.8867
lg,1625794478360549505,0,0.5974,-0.5066,0.7468,98,-23.3765,-48.7671,17.2119,145,1.3667,1.1205,-28.7039,-34.754,29,0.073,14372,3.8885,87.7896
lg,1625794478360603986,0,0.6855,-0.7195,0.9324,99,-18.5547,-8.1177,25.3906,145,1.3657,1.1215,-28.4312,-36.1512,29,0.071,9658,3.8885,88.997
lg,1625794478360731153,0,0.6765,-0.738,0.9214,100,-8.2397,12.5732,24.5972,145,1.3667,1.1215,-27.4931,-36.8301,29,0.071,7646,3.8885,89.5948
lg,1625794478360810283,0,0.6086,-0.751,0.9619,101,16.3574,42.9077,19.4702,145,1.3667,1.1215,-25.613,-36.0169,29,0.073,9680,3.8885,89.168
lg,1625794478360859708,0,0.4263,-0.8137,0.9355,102,47.4243,62.8052,-0.3052,145,1.3667,1.1175,-23.3067,-33.6658,29,0.073,7671,3.8885,87.6666
lg,1625794478360912801,0,0.2178,-0.875,0.9082,103,66.5283,67.3828,-13.916,145,1.3667,1.1055,-20.817,-30.6666,29,0.074,7680,3.8885,85.7893
lg,1625794478360960801,0,-0.0759,-0.6099,0.7,104,98.5107,44.0674,1.3428,145,1.3657,1.0845,-18.2921,-26.8923,29,0.072,9042,3.8885,85.1243
lg,1625794478361009894,0,0.0676,-0.4812,0.7571,105,73.6694,-28.0762,7.5073,145,1.3657,1.0675,-18.622,-24.4359,29,0.07,7728,3.8885,86.0079
lg,1625794478361056060,0,0.396,-0.3635,0.6089,106,51.0254,-59.9365,8.2397,145,1.3657,1.0575,-21.0879,-23.0859,29,0.069,7766,3.8885,87.4267
lg,1625794478361103634,0,0.8682,-0.3792,0.6924,107,-3.8452,-54.6875,15.1978,145,1.3667,1.0545,-23.8543,-23.9906,29,0.069,7763,3.8885,89.0426
lg,1625794478361162042,0,0.8081,-0.6665,0.937,108,-14.7705,-27.5879,9.5215,145,1.3657,1.0585,-23.9319,-24.943,29,0.069,7767,3.8885,89.1768
lg,1625794478361212486,0,0.5391,-0.7463,0.9451,109,-2.3193,42.4805,-8.9111,145,1.3657,1.0665,-22.5734,-25.1012,29,0.071,7818,3.8885,88.2504
lg,1625794478361257486,0,-0.0371,-0.6008,0.8264,110,18.0054,75.4395,-21.1792,145,1.3667,1.0765,-19.2611,-24.0651,29,0.071,7880,3.8885,86.2638
lg,1625794478361305597,0,-0.2122,-0.4141,0.7078,111,20.6299,61.2183,-15.5029,145,1.3667,1.0885,-15.8257,-23.007,29,0.074,7834,3.8885,84.7383
lg,1625794478361351283,0,-0.166,-0.4238,0.6667,112,-13.5498,-36.3159,-12.5732,145,1.3667,1.1015,-16.3038,-23.9516,29,0.075,7936,3.8885,84.9577
lg,1625794478361398986,0,0.3118,-0.6042,0.8516,113,-47.3633,-114.4409,-10.1318,145,1.3677,1.1105,-20.609,-26.8196,29,0.073,7976,3.8885,86.7737
lg,1625794478361443579,0,0.4966,-0.6882,0.8821,114,-45.9595,-110.7788,-5.4321,145,1.3657,1.1135,-24.7261,-29.8792,29,0.071,7974,3.8885,89.0089
lg,1625794478361493005,0,0.6028,-0.7227,0.9114,115,-27.5269,-43.5181,0.6104,145,1.3667,1.1145,-26.3071,-31.7364,29,0.075,8004,3.8885,90.1618
lg,1625794478361542060,0,0.2588,-0.3582,0.5637,116,37.7808,-1.709,-25.2075,145,1.3667,1.1155,-26.6719,-29.8369,28,0.074,7913,3.8885,89.2466
lg,1625794478361588597,0,0.0593,-0.2178,0.4836,117,30.5786,12.8784,-19.8975,145,1.3647,1.1155,-25.8175,-27.9043,28,0.074,8026,3.8885,88.0925
lg,1625794478361638820,0,0.0383,-0.2935,0.5244,118,-13.0005,-30.8228,10.498,145,1.3677,1.1175,-25.8356,-28.9328,28,0.073,8021,3.8885,89.172
lg,1625794478361684912,0,0.4072,-0.6055,0.835,119,-36.7432,-70.6787,18.2495,145,1.3677,1.1175,-28.2622,-32.5488,28,0.072,8086,3.8885,92.6037
lg,1625794478361734394,0,0.6689,-0.656,0.842,120,-40.1611,-92.5903,35.0342,145,1.3657,1.1165,-30.6552,-36.1863,29,0.07,8069,3.8885,96.4404
lg,1625794478361777560,0,0.8369,-0.7778,0.9702,121,-21.4844,-41.3208,32.3486,145,1.3677,1.1195,-31.3021,-38.3519,29,0.071,8172,3.8885,98.8599
lg,1625794478361823745,0,0.8391,-0.7617,0.9377,122,5.249,18.5547,26.3672,145,1.3657,1.1195,-30.2003,-38.3776,29,0.071,9837,3.8885,99.2918
lg,1625794478361869394,0,0.6123,-0.7449,0.9419,123,33.0811,66.5894,8.3618,145,1.3687,1.1185,-27.7601,-36.2988,29,0.071,8203,3.8885,97.7383
lg,1625794478361913042,0,0.4094,-0.7842,0.8989,124,48.584,86.3037,-2.2583,145,1.3687,1.1125,-23.7135,-32.7128,29,0.072,8282,3.8885,95.1988
lg,1625794478361957097,0,-0.0786,-0.6982,0.7429,125,88.0127,88.7451,1.5869,145,1.3677,1.1005,-19.5986,-28.9529,29,0.074,8160,3.8885,93.5108
lg,1625794478362000283,0,-0.1287,-0.5183,0.6836,126,78.3691,23.3154,11.9629,145,1.3697,1.0835,-17.4925,-26.1663,29,0.071,8162,3.8885,93.6425
lg,1625794478362046079,0,-0.0161,-0.4895,0.719,127,64.209,-19.3481,12.3291,145,1.3697,1.0665,-18.9936,-25.0068,29,0.072,8220,3.971,95.2518
lg,1625794478362115838,0,0.4714,-0.4712,0.7327,128,34.3018,-66.9556,14.4653,145,1.3687,1.0535,-21.544,-24.5266,29,0.07,8285,3.971,97.1012
lg,1625794478708635245,0,0.5039,-0.5256,0.8186,129,-23.9868,18.3105,-3.6621,145,1.3667,1.0465,-21.1774,-25.6117,29,0.072,25553,3.971,96.7381
lg,1625794478708715542,0,0.1433,-0.6104,0.8257,130,-41.4429,9.7656,-17.0898,145,1.3707,1.0785,-20.6221,-27.4071,29,0.074,16027,3.971,96.0512
lg,1625794478708767430,0,0.1067,-0.5776,0.8298,131,-41.9312,-4.5166,-15.9912,145,1.3707,1.0985,-20.5433,-29.14,29,0.073,7764,3.971,95.6201
lg,1625794478708815208,0,0.1174,-0.5989,0.8359,132,-58.8989,-26.7944,-7.1411,145,1.3697,1.1105,-21.0551,-31.8609,29,0.076,7705,3.971,96.0213
lg,1625794478708860838,0,0.0488,-1.0664,1.4312,133,-32.4097,-57.373,-25.0244,145,1.3687,1.1115,-22.7565,-33.5064,29,0.077,7685,3.971,96.5154
lg,1625794478708908579,0,0.2534,-0.6021,0.5681,134,39.2456,-78.4302,-56.2744,145,1.3687,1.1105,-26.388,-32.3928,29,0.073,7767,3.971,96.5342
lg,1625794478708953079,0,0.2092,-0.3552,0.6624,135,25.2686,-41.626,-32.4097,145,1.3687,1.1115,-28.0471,-31.0828,29,0.071,8896,3.971,96.2054
lg,1625794478708995393,0,0.394,-0.2017,0.5842,136,-10.6201,-34.3018,-5.8594,145,1.3677,1.1115,-29.5255,-31.3224,29,0.071,8359,3.971,96.5709
lg,1625794478709037079,0,0.3679,-0.5317,0.8201,137,-33.8745,-30.6396,4.2725,145,1.3677,1.1125,-30.1066,-33.1886,29,0.071,7755,3.971,97.5185
lg,1625794478709080245,0,0.4731,-0.7434,0.9126,138,-28.5034,-20.874,15.1978,145,1.3697,1.1145,-30.1253,-35.1302,29,0.069,7827,3.971,98.7616
lg,1625794478709120893,0,0.5491,-0.6079,0.7849,139,-11.8408,6.6528,20.6299,145,1.3687,1.1155,-29.3772,-35.9925,29,0.069,8721,3.971,99.4029
lg,1625794478709163449,0,0.6541,-0.6704,0.8171,140,-11.9019,18.8599,26.062,145,1.3697,1.1165,-28.2435,-36.8024,29,0.068,9575,3.971,99.9066
lg,1625794478709205412,0,0.7161,-0.7009,0.8638,141,-9.6436,28.9307,23.9868,145,1.3687,1.1165,-26.9205,-37.2977,29,0.069,7910,3.971,100.0162
lg,1625794478709246671,0,0.5664,-0.7593,0.8896,142,10.0098,75.2563,15.1367,145,1.3697,1.1175,-24.1156,-36.3829,29,0.068,7855,3.971,98.5987
lg,1625794478709289467,0,0.1799,-0.7029,0.8196,143,21.2402,93.4448,11.4746,145,1.3707,1.1165,-20.0538,-34.3633,29,0.067,7921,3.971,96.6821
lg,1625794478709331153,0,-0.0205,-0.7,0.7341,144,46.1426,87.1582,10.9253,145,1.3707,1.1115,-16.1062,-32.3961,29,0.068,7952,3.971,95.1885
lg,1625794478709374727,0,-0.1599,-0.6287,0.7031,145,53.1616,17.4561,7.6294,145,1.3707,1.0985,-14.3768,-30.623,29,0.069,7961,3.971,95.1999
lg,1625794478709417245,0,0.1643,-0.6094,0.7136,146,37.7197,-50.2319,12.7563,145,1.3717,1.0765,-15.6765,-29.8982,29,0.068,11520,3.971,96.8062
lg,1625794478709461690,0,0.5476,-0.5076,0.6348,147,23.8647,-69.0918,13.5498,145,1.3717,1.0615,-18.5052,-29.8057,29,0.068,8057,3.971,98.8188
lg,1625794478709505597,0,0.728,-0.4048,0.6379,148,8.728,-61.4624,16.1743,145,1.3717,1.0555,-21.4076,-30.0666,28,0.07,8005,3.971,100.7118
lg,1625794478709549671,0,0.8162,-0.5715,0.8376,149,-27.1606,-21.4844,10.0708,145,1.3717,1.0605,-22.6095,-31.6043,28,0.07,8277,3.971,101.6193
lg,1625794478709702449,0,0.5483,-0.6875,0.8389,150,-25.4517,32.1045,1.0986,145,1.3727,1.0735,-21.6709,-32.6425,28,0.071,7985,3.971,101.0317
lg,1625794478709767856,0,0.1313,-0.6089,0.7854,151,-18.5547,51.6968,-10.0098,145,1.3727,1.0895,-19.6037,-33.0389,29,0.071,8659,3.971,99.5462
lg,1625794478709814208,0,-0.0266,-0.5405,0.7524,152,-19.104,39.978,-8.0566,145,1.3717,1.1045,-18.1547,-34.0622,29,0.068,8517,3.971,98.8998
lg,1625794478709858912,0,-0.1135,-0.738,0.9497,153,-37.1094,-16.2964,-8.3008,145,1.3707,1.1125,-17.9676,-35.7194,29,0.069,8130,3.971,99.0415
lg,1625794478709903153,0,0.1018,-0.6663,0.5825,154,27.5269,-91.9189,-48.8892,145,1.3717,1.1155,-21.6433,-35.3537,29,0.069,8159,3.971,99.7994
lg,1625794478709945801,0,0.1411,-0.6018,0.637,155,26.123,-87.3413,-38.4521,145,1.3717,1.1165,-25.231,-34.4657,29,0.07,8176,3.971,100.9657
lg,1625794478709988782,0,0.491,-0.2119,0.4534,156,19.2871,-78.6743,-19.7754,145,1.3707,1.1185,-29.0109,-33.9596,29,0.069,8148,3.971,102.0895
lg,1625794478710368801,0,0.4731,-0.5447,0.8081,157,-12.8784,-42.5415,-0.4272,145,1.3717,1.1195,-30.2844,-35.0045,29,0.069,8206,3.971,103.1809
lg,1625794478710417856,0,0.5117,-0.6514,0.8591,158,-10.8643,-28.0151,5.127,145,1.3727,1.1175,-30.101,-35.7724,29,0.069,8239,3.971,103.9951
lg,1625794478710465597,0,0.5862,-0.6541,0.8674,159,-2.0142,4.2725,18.5547,89,1.3717,1.1215,-29.1925,-35.9419,29,0.068,8782,3.971,104.3691
lg,1625794478710760134,0,0.6375,-0.6655,0.8701,160,4.5166,20.5688,16.7236,89,1.3717,1.1205,-28.1709,-35.8415,29,0.068,8325,3.971,104.4575
lg,1625794479066031578,0,0.0627,-0.6157,0.7544,161,39.4287,86.0596,14.8315,89,1.3737,1.1165,-24.0809,-33.6927,29,0.069,26319,3.971,102.8938
lg,1625794479066138856,0,-0.0786,-0.6655,0.7485,162,48.645,1.0986,5.4321,89,1.3737,1.1025,-22.8481,-32.1611,29,0.069,14500,3.971,103.2209
lg,1625794479066196023,0,0.0481,-0.6194,0.7554,163,49.8657,-29.9683,3.54,89,1.3737,1.0915,-23.0182,-30.7926,29,0.068,7661,3.971,104.1627
lg,1625794479066249986,0,0.4563,-0.4126,0.645,164,32.959,-55.7861,7.8125,89,1.3737,1.0845,-25.0741,-30.1624,29,0.068,7608,3.971,105.7222
lg,1625794479066299208,0,0.802,-0.4412,0.7336,165,11.5356,-50.2319,13.5498,89,1.3737,1.0835,-26.7945,-31.1943,29,0.068,7694,3.971,107.2342
lg,1625794479066345875,0,0.8455,-0.5745,0.8662,166,-16.2354,-18.7988,9.5215,89,1.3737,1.0885,-27.7078,-32.2877,29,0.068,7694,3.971,108.0828
lg,1625794479066392912,0,0.4531,-0.6323,0.8518,167,-9.5825,40.9546,-4.8828,89,1.3727,1.0985,-26.2496,-32.3061,29,0.07,10273,3.971,106.9899
lg,1625794479066440523,0,0.0576,-0.5369,0.7278,168,-10.3149,49.8047,-7.3242,89,1.3737,1.1135,-24.4775,-32.6754,28,0.07,11899,3.971,106.0475
lg,1625794479066486671,0,-0.0273,-0.5452,0.7273,169,-30.2734,-2.0752,-10.3149,89,1.3737,1.1205,-23.7672,-33.9167,28,0.07,7740,3.971,105.7819
lg,1625794479066534060,0,0.1189,-0.7991,0.9861,170,-43.1519,-49.8657,-11.9019,89,1.3737,1.1215,-24.9447,-36.185,28,0.069,7790,3.971,106.6878
lg,1625794479066579819,0,0.1523,-0.7888,1.0027,171,-7.7515,-61.5845,-28.8086,89,1.3737,1.1205,-26.8871,-36.8328,28,0.07,7772,3.971,107.3244
lg,1625794479066626393,0,0.092,-0.4744,0.6011,172,29.2969,-44.6167,-41.8701,89,1.3737,1.1215,-28.5247,-35.5673,29,0.069,7847,3.971,107.0302
lg,1625794479066695893,0,0.2808,-0.1929,0.4834,173,24.9634,-43.396,-24.9023,89,1.3727,1.1225,-30.5656,-35.2537,29,0.07,7865,3.971,107.7618
lg,1625794479066738689,0,0.3743,-0.3591,0.6794,174,-20.3857,-63.4766,-1.4038,89,1.3717,1.1215,-32.4622,-36.6338,29,0.069,8042,3.971,109.2985
lg,1625794479066787004,0,0.5955,-0.6953,0.8784,175,-31.5552,-55.6641,9.5825,89,1.3727,1.1235,-33.7891,-39.0413,29,0.07,7923,3.971,111.3266
lg,1625794479066832708,0,0.7336,-0.7253,0.9255,176,-24.231,-31.3721,15.625,89,1.3737,1.1245,-33.4573,-40.046,29,0.069,7903,3.971,112.1787
lg,1625794479066875134,0,0.77,-0.7576,0.9126,177,1.3428,42.2363,18.0664,89,1.3737,1.1255,-31.6802,-39.6295,29,0.07,9772,3.971,111.5327
lg,1625794479066919430,0,0.7058,-0.7375,0.8997,178,10.8032,68.6035,14.4043,89,1.3727,1.1245,-29.1753,-38.4231,29,0.069,7992,3.971,110.0278
lg,1625794479066964023,0,0.2747,-0.6807,0.8279,179,35.4614,115.9058,17.9443,89,1.3737,1.1245,-24.4866,-35.9191,29,0.07,7942,3.971,107.5508
lg,1625794479067007967,0,-0.1235,-0.6448,0.7263,180,52.7344,97.4121,13.9771,89,1.3747,1.1185,-19.7934,-33.3445,29,0.07,7935,3.971,105.7777
lg,1625794479067051689,0,-0.2688,-0.626,0.7256,181,57.9834,66.6504,12.3291,89,1.3747,1.1035,-15.9774,-31.0071,29,0.072,7977,3.971,104.8494
lg,1625794479067118708,0,-0.092,-0.6167,0.689,182,47.0581,-22.2168,15.3198,89,1.3767,1.0865,-15.6008,-29.8435,29,0.071,8166,3.971,105.9978
lg,1625794479067164449,0,0.2893,-0.6753,0.7759,183,32.2266,-85.7544,14.6484,89,1.3767,1.0715,-18.2851,-29.6679,29,0.069,8021,3.971,108.432
lg,1625794479067727708,0,0.5549,-0.6724,0.8191,184,27.832,-95.7031,16.7236,89,1.3757,1.0615,-21.6329,-29.8122,29,0.066,8093,3.971,111.1872
lg,1625794479067787634,0,0.7712,-0.6272,0.8391,185,27.0996,-58.4106,19.2261,89,1.3767,1.0575,-23.8445,-29.7302,29,0.066,8064,3.971,113.2579
lg,1625794479067832986,0,0.6731,-0.5615,0.783,186,21.6675,-18.4937,22.1558,89,1.3767,1.0615,-23.2274,-29.7294,29,0.064,8125,3.971,113.8428
lg,1625794479067879078,0,0.5742,-0.5952,0.8557,187,6.0425,29.48,15.5029,89,1.3767,1.0725,-22.1204,-29.6524,29,0.065,8162,3.971,113.8634
lg,1625794479067925708,0,0.3652,-0.6414,0.8188,188,6.958,48.2788,7.6904,89,1.3777,1.0855,-20.1906,-29.4382,29,0.066,8161,3.971,113.2506
lg,1625794479067969004,0,0.0396,-0.5105,0.6987,189,17.6392,57.0068,4.8828,89,1.3777,1.0955,-17.429,-28.6893,29,0.068,8172,3.971,112.3575
lg,1625794479068012412,0,-0.0671,-0.4744,0.7319,190,13.0615,42.7856,4.3945,89,1.3767,1.1035,-15.002,-28.1454,29,0.069,8177,3.971,111.7237
lg,1625794479068059449,0,-0.1006,-0.5564,0.7422,191,-5.5542,-13.855,-0.7935,89,1.3767,1.1115,-14.6846,-28.7751,29,0.071,8198,3.971,112.0561
lg,1625794479068103764,0,0.1008,-0.6299,0.7869,192,-17.8833,-57.8003,4.2725,89,1.3767,1.1165,-16.2532,-30.2387,29,0.07,8224,3.971,113.4925
lg,1625794479407918004,0,0.4922,-0.6077,0.8079,193,-19.7144,-71.7163,6.2866,89,1.3667,1.1185,-18.951,-31.8065,29,0.069,25893,3.971,115.3474
lg,1625794479407998486,0,0.6003,-0.5037,0.5525,194,44.8608,-47.1191,-39.1846,89,1.3717,1.1165,-22.1387,-30.2116,29,0.071,11374,3.971,115.0524
lg,1625794479408050597,0,0.3665,-0.47,0.7307,195,39.978,-1.8311,-33.7524,89,1.3717,1.1175,-22.8855,-28.2355,29,0.073,9613,3.971,113.8509
lg,1625794479408100597,0,0.2327,-0.3838,0.6523,196,40.5884,7.2021,-28.0762,89,1.3727,1.1185,-22.2714,-26.7919,29,0.074,7706,3.971,112.9035
lg,1625794479408147708,0,0.1638,-0.3767,0.6843,197,19.4092,22.3389,-3.1738,89,1.3717,1.1185,-21.1159,-25.8939,29,0.073,7727,3.971,112.3866
lg,1625794479408193689,0,0.1421,-0.3987,0.6904,198,1.9531,5.3711,10.6201,89,1.3727,1.1195,-20.3016,-26.0886,29,0.072,7760,3.971,112.753
lg,1625794479408239189,0,0.3733,-0.4302,0.7522,199,-15.0146,-19.6533,24.9634,89,1.3727,1.1215,-20.6671,-27.2887,29,0.071,9103,3.971,114.1319
lg,1625794479408283634,0,0.5593,-0.4397,0.7834,200,-21.7896,-22.8271,30.2124,89,1.3717,1.1215,-21.3383,-28.7995,29,0.073,8403,3.971,115.7642
lg,1625794479408327430,0,0.76,-0.6528,0.9829,201,-23.7427,-6.6528,25.8789,89,1.3727,1.1235,-21.5047,-30.3171,29,0.073,7767,3.971,116.9382
lg,1625794479408372263,0,0.6587,-0.8467,1.0537,202,-10.8032,13.6108,15.7471,89,1.3737,1.1235,-20.2077,-29.7602,29,0.074,7752,3.971,116.3095
lg,1625794479408424412,0,0.4036,-0.793,0.9961,203,44.1895,72.1436,-4.7607,89,1.3737,1.1205,-17.6844,-27.8044,29,0.075,7898,3.971,114.7801
lg,1625794479408468560,0,0.0017,-0.6677,0.8599,204,73.9136,87.8906,-6.6528,89,1.3747,1.1105,-13.9896,-24.757,29,0.075,7820,3.971,113.0538
lg,1625794479408510967,0,-0.1179,-0.5933,0.8318,205,72.6318,69.1528,-7.4463,89,1.3747,1.0935,-10.7291,-21.8796,29,0.076,7835,3.971,111.7499
lg,1625794479408553245,0,0.0144,-0.4785,0.8262,206,49.2554,7.5684,6.2256,89,1.3757,1.0795,-9.9724,-20.2625,29,0.073,7939,3.971,111.9418
lg,1625794479408595374,0,0.5278,-0.3711,0.7493,207,7.1411,-31.7383,9.0942,89,1.3747,1.0735,-11.8907,-20.3307,29,0.072,7945,3.971,112.7739
lg,1625794479408639504,0,0.6721,-0.4473,0.8171,208,-14.4653,-26.7944,3.6011,89,1.3737,1.0725,-13.7573,-21.296,29,0.072,7966,3.971,113.3668
lg,1625794479408682393,0,0.5652,-0.6013,0.8572,209,-24.5972,18.0664,-5.127,89,1.3757,1.0795,-13.7468,-22.6487,29,0.073,7967,3.971,113.0142
lg,1625794479408747467,0,0.1687,-0.6011,0.8621,210,-24.5361,38.5742,-15.3198,89,1.3767,1.0905,-12.401,-23.836,29,0.076,7968,3.971,111.9233
lg,1625794479408791208,0,0.0227,-0.6418,0.8271,211,-25.8179,29.2969,-22.3999,89,1.3747,1.1015,-11.2813,-25.1453,29,0.076,8038,3.971,110.7085
lg,1625794479408832856,0,-0.123,-0.5234,0.7253,212,-23.8647,0.5493,-20.2637,89,1.3767,1.1125,-10.8747,-26.3686,29,0.079,8058,3.971,110.0308
lg,1625794479408874004,0,-0.0422,-0.5217,0.7358,213,-40.1611,-51.2085,-17.6392,89,1.3767,1.1195,-12.4792,-28.3875,29,0.083,8038,3.971,110.415
lg,1625794479408916023,0,0.0938,-0.5842,0.7842,214,-50.6592,-74.7681,-17.0288,89,1.3747,1.1215,-15.1261,-30.9522,29,0.08,8067,3.971,111.4005
lg,1625794479408959449,0,0.3757,-0.7085,0.8286,215,-59.2041,-78.6743,1.0376,89,1.3737,1.1245,-17.8966,-34.1912,29,0.075,9066,3.971,113.3089
lg,1625794479409000097,0,0.3293,-0.7329,0.958,216,-24.8413,-42.6636,-4.8218,89,1.3737,1.1245,-19.2918,-35.5778,29,0.073,12041,3.971,114.2115
lg,1625794479409040986,0,0.3225,-0.582,0.6794,217,1.4648,-43.9453,-12.8174,89,1.3727,1.1245,-21.0285,-35.933,29,0.073,8136,3.971,114.9296
lg,1625794479409083449,0,0.2947,-0.5627,0.7078,218,-4.7607,-41.9922,-1.709,89,1.3737,1.1255,-22.2933,-36.5895,29,0.076,8145,3.971,115.9763
lg,1625794479409123374,0,0.6472,-0.6448,0.7468,219,-15.3809,-46.2036,16.5405,89,1.3747,1.1266,-23.7812,-38.0481,29,0.074,8180,3.971,117.8286
lg,1625794479409163671,0,0.8186,-0.6865,0.8198,220,-16.1743,-31.1279,23.0103,89,1.3747,1.1276,-24.7009,-39.4262,29,0.072,8220,3.971,119.501
lg,1625794479409203782,0,0.9309,-0.7961,0.959,221,6.958,47.3022,27.71,89,1.3737,1.1266,-23.0112,-38.9976,29,0.073,8953,3.971,119.1232
lg,1625794479409245486,0,0.5488,-0.8667,1.0144,222,54.3213,115.5396,3.1738,89,1.3747,1.1205,-19.255,-35.8331,29,0.077,8263,3.971,116.2334
lg,1625794479409287134,0,-0.05,-0.7698,0.783,223,84.5947,130.0049,-6.897,89,1.3757,1.1045,-14.6129,-30.99,29,0.076,8321,3.971,113.0668
lg,1625794479409328319,0,-0.1987,-0.6121,0.738,224,108.7646,105.5908,-7.4463,89,1.3737,1.0775,-10.0769,-26.4965,29,0.074,8354,3.971,110.8448
lg,1625794479760497967,0,0.4519,-0.5149,0.7698,225,42.5415,-40.3442,18.1274,89,1.3747,1.0055,-11.8288,-25.3184,29,0.066,25413,3.971,112.2667
lg,1625794479760581245,0,0.4324,-0.4924,0.738,226,35.0342,11.9019,6.6528,89,1.3757,0.9755,-11.8428,-24.2266,29,0.066,14435,3.971,112.3643
lg,1625794479760634467,0,0.3142,-0.4133,0.6914,227,25.6348,20.5688,3.8452,89,1.3757,0.9705,-11.4042,-23.4078,29,0.067,7439,3.971,112.2148
lg,1625794479760685096,0,0.2097,-0.5027,0.8281,228,-11.4746,5.8594,-1.2207,89,1.3767,0.9725,-11.2431,-24.1399,29,0.067,7657,3.971,112.1331
lg,1625794479760733615,0,0.2488,-0.5042,0.8645,229,-18.7378,-3.7231,-5.3711,89,1.3767,0.9835,-11.574,-25.093,29,0.07,7444,3.971,112.044
lg,1625794479760780226,0,0.1907,-0.53,0.8262,230,-26.4893,1.6479,-5.6152,89,1.3767,0.9995,-11.5896,-26.3952,29,0.071,7660,3.971,111.8675
lg,1625794479760825671,0,0.1028,-0.4988,0.7437,231,-31.4941,-8.9111,-10.0098,89,1.3757,1.0185,-11.8887,-27.9022,29,0.071,8561,3.971,111.7273
lg,1625794479760872763,0,-0.0901,-0.511,0.7175,232,-37.2314,-12.8174,-8.9111,89,1.3777,1.0405,-11.9774,-29.8896,29,0.073,7735,3.971,112.0238
lg,1625794479760918226,0,-0.1265,-0.5159,0.7219,233,-45.5933,-33.6914,4.1504,89,1.3767,1.0645,-12.2864,-32.2006,29,0.071,9665,3.971,112.9338
lg,1625794479760962911,0,0.0005,-0.5715,0.7363,234,-68.4814,-82.6416,17.395,89,1.3767,1.0845,-14.142,-35.7172,29,0.073,7731,3.971,115.4598
lg,1625794479761016467,0,0.2607,-0.7151,0.8438,235,-82.0923,-116.8213,27.6489,89,1.3767,1.1005,-17.0866,-40.2111,29,0.069,7740,3.971,119.3945
lg,1625794479761062559,0,0.4094,-0.7678,0.8826,236,-78.3081,-120.9106,33.5693,89,1.3747,1.1075,-19.8068,-44.7781,29,0.067,7975,3.971,123.8955
lg,1625794479761105708,0,0.5627,-0.7383,0.9763,237,-4.6387,-119.0796,-3.6011,89,1.3747,1.1065,-23.4286,-45.9609,29,0.067,7808,3.971,127.3382
lg,1625794479761147948,0,0.4888,-0.7095,0.72,238,23.4985,-59.5093,-18.8599,89,1.3747,1.1125,-25.7069,-45.4962,29,0.068,11505,3.971,128.6131
lg,1625794479761191911,0,0.4624,-0.478,0.5791,239,34.729,-15.3809,-2.3804,89,1.3757,1.1145,-26.4391,-44.0528,29,0.068,7926,3.971,128.9152
lg,1625794479761237004,0,0.4629,-0.4875,0.6868,240,24.1089,-2.5024,8.1787,89,1.3757,1.1155,-26.0111,-43.2244,29,0.068,8014,3.9622,129.0867
lg,1625794479761285096,0,0.563,-0.6196,0.7378,241,19.7754,17.334,16.4185,89,1.3757,1.1165,-25.2246,-42.3072,29,0.068,7975,3.9622,129.0359
lg,1625794479761329578,0,0.4912,-0.5591,0.7883,242,24.5972,58.2886,19.5923,89,1.3767,1.1165,-23.0374,-40.616,29,0.069,8022,3.9622,127.8595
lg,1625794479761378634,0,0.3613,-0.5613,0.8315,243,29.2358,70.6787,13.7939,89,1.3777,1.1125,-20.3921,-38.6263,29,0.066,10055,3.9622,126.2639
lg,1625794479761420708,0,0.2153,-0.647,0.8528,244,33.9966,64.0259,6.7139,89,1.3767,1.1015,-18.0939,-36.4222,29,0.069,8491,3.9622,124.7231
lg,1625794479761467430,0,0.0862,-0.667,0.8428,245,52.124,56.8848,-3.8452,89,1.3767,1.0795,-15.7997,-33.9793,29,0.073,8034,3.9622,123.252
lg,1625794479761510615,0,-0.061,-0.5393,0.7708,246,67.1387,32.1655,-3.3569,89,1.3777,1.0455,-14.0323,-31.1251,29,0.071,8101,3.9622,122.4467
lg,1625794479761557819,0,-0.0093,-0.4829,0.7766,247,59.8145,9.5825,0.061,89,1.3787,1.0165,-14.046,-29.4766,29,0.071,8097,3.9622,122.9392
lg,1625794479761601726,0,0.1516,-0.5405,0.8394,248,27.3438,-49.1943,4.9438,89,1.3777,1.0015,-15.4443,-28.8102,29,0.071,8121,3.9622,124.1442
lg,1625794479761646393,0,0.687,-0.4934,0.7947,249,-9.1553,-71.5942,10.437,89,1.3787,0.9985,-18.5287,-29.8108,29,0.072,8341,3.9622,126.026
lg,1625794479761689263,0,0.8264,-0.5798,0.95,250,-21.3013,-51.3306,8.2397,89,1.3787,1.0065,-19.7526,-30.8373,29,0.073,7978,3.9622,126.515
lg,1625794479761734430,0,0.6829,-0.615,0.9277,251,-17.8833,22.4609,-4.6997,89,1.3787,1.0255,-19.5425,-31.4164,29,0.078,8200,3.9622,125.8814
lg,1625794479761778615,0,0.2998,-0.5605,0.7632,252,-17.395,63.2324,-21.2402,89,1.3787,1.0595,-17.7601,-31.6045,29,0.073,9367,3.9622,123.7807
lg,1625794479762683189,0,-0.0898,-0.5442,0.8096,253,-24.1699,53.6499,-29.7852,89,1.3777,1.0905,-15.6832,-32.01,29,0.073,9943,3.9622,121.5651
lg,1625794479762754967,0,-0.2827,-0.666,0.7883,254,-32.7759,-3.1128,-30.8838,89,1.3777,1.1075,-15.2869,-33.3601,29,0.071,8253,3.9622,120.6312
lg,1625794479762806134,0,-0.1838,-0.7681,0.9421,255,-29.7852,-36.7432,-29.4189,89,1.3767,1.1125,-17.737,-33.4484,29,0.072,8242,3.9622,120.6162
lg,1625794479762861578,0,0.0376,-0.5317,0.4709,256,17.4561,-73.2422,-49.1333,89,1.3747,1.1125,-20.694,-33.3567,29,0.072,8321,3.9622,120.7843
lg,1625794480108638596,0,0.6194,-0.5703,0.8176,257,-57.4951,-78.064,15.3198,89,1.3777,1.1165,-23.3012,-36.7619,29,0.071,26044,3.9622,123.3415
lg,1625794480108771504,0,0.8718,-0.937,1.0771,258,-22.7051,9.1553,15.1367,89,1.3777,1.1185,-22.9603,-37.9263,29,0.07,10662,3.9622,123.6834
lg,1625794480108824485,0,0.7517,-0.8599,0.9954,259,0.3052,50.7812,9.9487,89,1.3777,1.1175,-21.3838,-37.6319,29,0.07,7702,3.9622,122.7115
lg,1625794480108878133,0,0.3379,-0.7905,0.9116,260,33.8135,91.0034,-8.9111,89,1.3797,1.1135,-17.991,-35.6148,29,0.072,11395,3.9622,120.1864
lg,1625794480108926078,0,-0.0757,-0.7258,0.7576,261,65.5518,80.3223,-10.9253,89,1.3797,1.1045,-14.7435,-32.6971,29,0.075,7681,3.9622,118.0513
lg,1625794480108974133,0,-0.0935,-0.5439,0.6584,262,58.8379,10.1318,-0.5493,89,1.3807,1.0905,-13.6016,-30.5663,29,0.074,7736,3.9622,117.8985
lg,1625794480109020226,0,0.051,-0.5964,0.7722,263,41.5039,-28.8086,4.3335,89,1.3807,1.0795,-14.093,-29.3723,29,0.072,7722,3.9622,118.7197
lg,1625794480109067152,0,0.5989,-0.4814,0.6609,264,11.0474,-69.3359,8.3618,89,1.3807,1.0765,-17.184,-29.6105,29,0.072,7750,3.9622,120.4967
lg,1625794480109112911,0,0.917,-0.593,0.8213,265,-11.4136,-56.2744,15.2588,89,1.3807,1.0815,-18.9028,-31.163,29,0.074,7781,3.9622,121.6439
lg,1625794480109158744,0,0.8833,-0.6755,0.8628,266,-22.7661,1.4648,5.127,89,1.3797,1.0925,-19.5189,-32.3406,29,0.075,7982,3.9622,121.8739
lg,1625794480109207022,0,0.4343,-0.6472,0.7522,267,-13.4888,71.228,-13.7329,89,1.3807,1.1055,-17.5859,-32.5206,29,0.076,7802,3.9622,119.8734
lg,1625794480109250689,0,0.0972,-0.6145,0.7544,268,-12.0239,91.9189,-19.2871,89,1.3807,1.1165,-13.8137,-32.4049,29,0.076,7797,3.9622,117.1898
lg,1625794480109296319,0,-0.363,-0.5444,0.6909,269,-11.5967,61.5845,-8.1177,89,1.3777,1.1225,-10.582,-32.7318,29,0.075,7898,3.9622,115.5993
lg,1625794480109339670,0,-0.1477,-0.6204,0.7295,270,-31.9824,-47.7295,-7.1411,89,1.3767,1.1215,-11.5721,-34.4614,29,0.077,10828,3.9622,116.4813
lg,1625794480109404467,0,0.2148,-0.5,0.55,271,6.958,-81.543,-22.644,89,1.3777,1.1215,-14.9374,-34.74,29,0.077,7911,3.9622,117.6843
lg,1625794480109456689,0,0.1724,-0.4163,0.5581,272,7.2021,-58.0444,-12.207,91,1.3777,1.1235,-17.2689,-34.3659,29,0.075,7956,3.9622,118.5488
lg,1625794480109506022,0,0.3457,-0.3132,0.5388,273,-14.8315,-55.481,12.6953,91,1.3757,1.1235,-19.25,-35.3532,29,0.073,8161,3.9622,120.2817
lg,1625794480109552411,0,0.7024,-0.6362,0.8499,274,-46.9971,-75.8057,20.5078,91,1.3777,1.1255,-21.7266,-38.1996,29,0.074,7955,3.9622,122.9534
lg,1625794480109682226,0,0.8506,-0.8081,0.9644,275,-40.7715,-58.4106,16.4795,91,1.3787,1.1235,-23.5108,-40.7647,29,0.073,7976,3.9622,125.1659
lg,1625794480109745967,0,0.7781,-0.9045,1.0532,276,4.1504,33.9355,10.1929,91,1.3777,1.1266,-22.4426,-40.3409,29,0.073,8000,3.9622,124.5328
lg,1625794480109797319,0,0.3035,-0.7971,0.8901,277,51.3306,94.3604,-7.7515,91,1.3797,1.1215,-19.3874,-37.35,29,0.077,8091,3.9622,121.7632
lg,1625794480109841596,0,-0.1135,-0.7781,0.8647,278,69.458,96.4966,-17.9443,91,1.3797,1.1095,-15.7286,-33.8752,29,0.074,8043,3.9622,118.8831
lg,1625794480109887670,0,-0.2004,-0.5366,0.6504,279,78.0029,37.7808,0.9766,91,1.3807,1.0905,-13.3366,-30.7885,29,0.073,8097,3.9622,118.1721
lg,1625794480109933596,0,0.075,-0.6042,0.708,280,51.6357,-46.936,9.4604,91,1.3817,1.0675,-14.424,-29.4288,29,0.071,8088,3.9622,119.5763
lg,1625794480109976226,0,0.3181,-0.634,0.7517,281,43.5181,-70.7397,12.4512,91,1.3817,1.0475,-16.7899,-28.6076,29,0.068,8083,3.9622,121.5589
lg,1625794480110020281,0,0.6025,-0.665,0.7732,282,46.9971,-61.6455,13.2446,91,1.3817,1.0235,-19.253,-27.6858,29,0.066,8121,3.9622,123.3945
lg,1625794480110064263,0,0.4395,-0.6047,0.7046,283,59.3872,-5.249,11.1084,91,1.3817,1.0035,-19.4934,-25.9697,29,0.066,8174,3.9622,124.0708
lg,1625794480110107633,0,0.3118,-0.5479,0.6628,284,59.9365,8.0566,9.2163,91,1.3807,0.9855,-18.766,-24.1194,29,0.064,8217,3.9622,124.4424
lg,1625794480110150744,0,0.1338,-0.4221,0.6631,285,44.3115,-7.7515,11.8408,91,1.3797,0.9775,-18.5058,-22.8788,29,0.065,8567,3.9622,125.1454
lg,1625794480110196374,0,0.3225,-0.4368,0.7073,286,5.6152,-42.1143,17.395,91,1.3807,0.9775,-19.8835,-23.446,29,0.066,8248,3.9622,126.6352
lg,1625794480110239170,0,0.5835,-0.4888,0.8303,287,-9.8877,-53.772,15.1367,91,1.3817,0.9885,-21.9915,-24.868,29,0.068,8049,3.9622,128.1138
lg,1625794480110284059,0,0.6414,-0.5188,0.865,288,-20.874,-31.311,12.6953,91,1.3797,1.0035,-23.305,-26.3326,29,0.068,8272,3.9622,129.2842
lg,1625794480458559374,0,0.0205,-0.5076,0.8362,289,-44.0063,21.5454,-10.0098,91,1.3817,1.0705,-21.5839,-28.1359,29,0.07,27771,3.9622,128.5993
lg,1625794480458667763,0,-0.1863,-0.4773,0.7502,290,-44.6777,-31.6162,2.0142,91,1.3817,1.0915,-21.3899,-30.3524,29,0.072,10822,3.9622,129.3811
lg,1625794480458723818,0,0.0261,-0.4934,0.8083,291,-49.6826,-54.9316,10.498,91,1.3817,1.0985,-22.9127,-33.4359,29,0.074,7609,3.9622,131.8062
lg,1625794480458776615,0,0.1763,-0.5835,0.8706,292,-53.833,-99.9756,23.4375,91,1.3807,1.1025,-25.0924,-36.9516,29,0.07,7692,3.9622,135.1605
lg,1625794480458822985,0,0.623,-0.6772,0.8696,293,-40.1001,-119.0796,29.7241,91,1.3807,1.1055,-28.2073,-40.5439,29,0.07,7634,3.9622,139.5587
lg,1625794480458869392,0,0.8579,-0.7954,0.9309,294,-33.8745,-111.084,23.3154,91,1.3807,1.1075,-31.1084,-43.9847,29,0.07,7853,3.9622,143.8043
lg,1625794480458915448,0,1.0059,-0.885,0.9583,295,0.061,-27.771,8.4839,91,1.3797,1.1075,-31.9123,-44.5499,29,0.072,8730,3.9622,144.9725
lg,1625794480458964003,0,0.4299,-0.7561,0.8079,296,38.9404,85.3882,8.4839,91,1.3797,1.1075,-28.7784,-41.7048,29,0.073,7779,3.9622,142.5175
lg,1625794480459006448,0,0.2151,-0.7061,0.7229,297,46.9971,100.2197,7.6904,91,1.3807,1.1085,-24.882,-38.7495,29,0.074,7710,3.9622,139.9404
lg,1625794480459050837,0,-0.0774,-0.6592,0.71,298,42.4805,64.209,8.4229,91,1.3807,1.1085,-21.5418,-36.672,29,0.075,7780,3.9622,138.6108
lg,1625794480459095726,0,0.0562,-0.7114,0.7632,299,25.0244,-9.8877,14.8926,91,1.3807,1.1095,-20.7866,-36.2103,29,0.076,7738,3.9622,139.477
lg,1625794480459139522,0,0.2722,-0.5813,0.6785,300,15.4419,-37.7197,15.8691,91,1.3797,1.1125,-21.4665,-36.3057,29,0.078,7775,3.9622,141.0453
lg,1625794480459184133,0,0.7024,-0.5481,0.6982,301,-12.0239,-46.936,24.9634,91,1.3807,1.1115,-23.0122,-37.6288,29,0.074,7832,3.9622,143.1561
lg,1625794480459230226,0,0.8257,-0.5728,0.7537,302,-17.6392,-31.5552,19.104,91,1.3797,1.1165,-23.7673,-38.8764,29,0.074,7818,3.9622,144.6441
lg,1625794480459272096,0,0.3938,-0.7385,0.8484,303,19.5312,28.8696,-27.2827,91,1.3787,1.1195,-23.3571,-37.49,29,0.073,7867,3.9622,142.9623
lg,1625794480459315041,0,-0.1785,-0.6648,0.8369,304,45.4102,59.7534,-35.0342,91,1.3797,1.1205,-21.0267,-34.6866,29,0.074,8147,3.9622,140.2639
lg,1625794480459356855,0,-0.2024,-0.5349,0.6167,305,48.8281,34.9121,-29.48,91,1.3797,1.1225,-19.2235,-32.3536,29,0.073,7956,3.9622,138.5144
lg,1625794480459397707,0,-0.0452,-0.2649,0.5569,306,24.353,-30.7007,-13.2446,91,1.3797,1.1235,-19.641,-31.1582,29,0.072,7962,3.9622,138.6376
lg,1625794480459439355,0,0.2742,-0.4131,0.7,307,-10.1318,-64.3921,5.3101,91,1.3797,1.1245,-21.6671,-32.1069,29,0.072,7952,3.9622,140.2677
lg,1625794480459480744,0,0.7249,-0.5596,0.8699,308,-25.6348,-60.0586,16.3574,91,1.3797,1.1255,-23.8323,-33.9262,29,0.073,10238,3.9622,142.2996
lg,1625794480459521763,0,0.8059,-0.7668,0.9998,309,-11.4746,13.0615,6.1646,91,1.3797,1.1255,-23.605,-34.4657,29,0.072,9703,3.9622,142.2507
lg,1625794480459563818,0,0.6628,-0.7539,0.9634,310,4.4556,53.833,0.4883,91,1.3797,1.1225,-22.0099,-33.911,29,0.074,8159,3.9622,141.0006
lg,1625794480459778966,0,0.3162,-0.676,0.894,311,25.5737,97.6562,-10.8643,91,1.3807,1.1165,-18.7371,-32.0866,29,0.072,8028,3.9622,138.3865
lg,1625794480459829411,0,-0.0044,-0.7063,0.8579,312,41.9312,87.2803,-22.3389,91,1.3807,1.1065,-15.486,-29.9258,29,0.072,8200,3.9622,135.8114
lg,1625794480459873300,0,-0.1758,-0.7354,0.8491,313,52.7954,68.7866,-26.7334,91,1.3807,1.0885,-12.675,-27.69,29,0.073,8636,3.9622,133.6128
lg,1625794480459915670,0,-0.1792,-0.5662,0.7021,314,63.5376,3.3569,-14.1602,91,1.3807,1.0645,-11.8973,-25.4728,29,0.073,8744,3.9622,133.1492
lg,1625794480459958874,0,0.1157,-0.6201,0.7788,315,38.4521,-63.4155,-4.8828,91,1.3827,1.0435,-14.0693,-24.6623,29,0.069,8199,3.9622,134.1831
lg,1625794480460001170,0,0.3452,-0.6328,0.7993,316,29.6631,-83.5571,2.1973,91,1.3827,1.0255,-17.9269,-24.7326,29,0.07,8255,3.9622,135.9552
lg,1625794480460044429,0,0.8274,-0.4226,0.6802,317,2.5024,-63.5986,10.498,91,1.3817,1.0155,-21.107,-25.3532,29,0.071,8237,3.9622,137.5722
lg,1625794480460105133,0,0.8049,-0.6873,0.8904,318,-18.3105,1.1597,5.0659,91,1.3827,1.0195,-21.5522,-26.5646,29,0.072,8257,3.9622,137.9029
lg,1625794480460147689,0,0.3865,-0.6753,0.8147,319,-10.437,61.4624,-11.4746,91,1.3827,1.0375,-19.5287,-26.9209,29,0.074,8267,3.9622,136.4684
lg,1625794480460190818,0,0.1653,-0.5657,0.7463,320,-8.606,77.2095,-13.0615,91,1.3817,1.0585,-16.6585,-27.064,29,0.077,8359,3.9622,134.6384
lg,1625794480805028763,0,0.0271,-0.7427,0.9058,321,-49.5605,-71.5332,-6.4087,91,1.3797,1.1155,-18.7775,-29.8453,29,0.073,26049,3.9622,135.9542
lg,1625794480805109744,0,0.2407,-0.4517,0.5229,322,22.0337,-60.0586,-21.7285,91,1.3797,1.1175,-21.3091,-29.5517,29,0.072,10737,3.9622,136.5607
lg,1625794480805162170,0,0.2083,-0.2339,0.6147,323,19.104,-37.1704,-9.8877,91,1.3797,1.1185,-22.6492,-28.5807,29,0.073,7682,3.9622,136.8387
lg,1625794480805211355,0,0.3848,-0.3682,0.7153,324,-26.9165,-45.5933,13.916,91,1.3797,1.1195,-24.0672,-30.1904,29,0.074,7713,3.9622,138.3231
lg,1625794480805258744,0,0.6724,-0.782,0.95,325,-41.3208,-59.5093,18.4937,91,1.3797,1.1205,-25.7225,-32.9741,29,0.076,7617,3.9622,140.3634
lg,1625794480805305077,0,0.7346,-0.8601,1.0227,326,-27.832,-25.5737,17.395,91,1.3797,1.1215,-26.2981,-34.9098,29,0.075,7902,3.9622,141.7609
lg,1625794480805349077,0,0.5796,-0.7339,0.8962,327,11.0474,45.6543,12.3901,91,1.3787,1.1195,-24.53,-34.3325,29,0.075,7993,3.9622,141.1318
lg,1625794480805394540,0,0.3113,-0.675,0.8293,328,25.6348,67.3828,1.8921,91,1.3797,1.1185,-21.9263,-32.8879,29,0.075,7760,3.9622,139.6559
lg,1625794480805439892,0,0.0967,-0.7703,0.8496,329,33.02,60.9741,-5.4321,91,1.3807,1.1145,-19.7173,-31.1044,29,0.076,7759,3.9622,138.3666
lg,1625794480805484633,0,-0.0024,-0.6375,0.7302,330,67.1387,15.2588,-6.4087,91,1.3817,1.0985,-18.5587,-28.66,29,0.074,12133,3.9622,137.9666
lg,1625794480805528800,0,0.1382,-0.5718,0.7087,331,64.5752,-7.4463,-0.4272,91,1.3827,1.0835,-19.1139,-27.1602,29,0.074,7865,3.9622,138.8219
lg,1625794480805572077,0,0.2383,-0.606,0.7954,332,44.6167,-46.7529,7.5073,91,1.3817,1.0705,-20.4242,-26.1861,29,0.073,7779,3.9622,140.1384
lg,1625794480805613614,0,0.698,-0.3083,0.5947,333,19.9585,-52.3071,14.2212,91,1.3827,1.0625,-23.0233,-25.9895,29,0.073,7833,3.9622,141.6892
lg,1625794480805658374,0,0.8,-0.3855,0.7095,334,-9.7656,-37.3535,15.2588,91,1.3837,1.0685,-24.6329,-27.2269,29,0.074,7829,3.9622,143.1476
lg,1625794480805700096,0,0.7686,-0.7014,0.863,335,-20.9351,3.1738,-3.1128,91,1.3837,1.0835,-24.9818,-28.4009,29,0.077,7911,3.9622,143.1398
lg,1625794480805742800,0,0.2842,-0.6084,0.8132,336,-11.8408,71.8994,-14.8315,91,1.3827,1.0975,-22.3815,-28.3846,29,0.08,8010,3.9622,141.2176
lg,1625794480805785448,0,0.0359,-0.5439,0.7688,337,-7.3853,81.4209,-18.7988,91,1.3827,1.1125,-19.1008,-28.1282,29,0.077,8087,3.9622,138.9682
lg,1625794480805827411,0,-0.387,-0.5991,0.7605,338,-11.4746,37.3535,-11.5356,91,1.3817,1.1205,-16.5334,-28.6076,29,0.076,7913,3.9622,137.916
lg,1625794480805871985,0,-0.0798,-0.667,0.863,339,-26.062,-69.8242,-9.2163,91,1.3807,1.1215,-18.3342,-30.3419,29,0.075,7945,3.9622,139.119
lg,1625794480805915763,0,0.0845,-0.5955,0.8474,340,-0.4272,-101.1963,-24.4141,91,1.3787,1.1205,-21.757,-30.9966,29,0.075,7938,3.9622,140.4888
lg,1625794480805958855,0,0.2744,-0.3613,0.6416,341,8.728,-65.6738,-10.6812,91,1.3797,1.1215,-24.1595,-30.9934,29,0.075,7941,3.9622,141.5383
lg,1625794480806000374,0,0.415,-0.283,0.615,342,4.0894,-48.9502,3.54,91,1.3807,1.1235,-25.602,-32.0203,29,0.075,8029,3.9622,142.8595
lg,1625794480806042374,0,0.4634,-0.4919,0.8254,343,-36.6211,-45.2881,18.4937,91,1.3797,1.1245,-26.7068,-34.2135,29,0.075,8060,3.9622,144.6308
lg,1625794480806085818,0,0.6453,-0.8181,1.0237,344,-32.959,-39.3677,18.0664,91,1.3807,1.1255,-27.5414,-36.4636,29,0.075,8073,3.9622,146.3949
lg,1625794480806128188,0,0.6187,-0.7957,0.9939,345,-17.5171,-12.0239,17.2729,91,1.3807,1.1255,-26.4384,-36.5172,29,0.075,8184,3.9622,146.4816
lg,1625794480806168911,0,0.5579,-0.7156,0.9336,346,16.4185,44.3726,13.9771,91,1.3797,1.1255,-24.6348,-35.6067,29,0.075,8441,3.9622,145.8327
lg,1625794480806211263,0,0.2861,-0.7507,0.873,347,36.1938,56.8237,-3.3569,91,1.3807,1.1185,-22.4312,-33.7578,29,0.075,9974,3.9622,144.3907
lg,1625794480806252837,0,0.0325,-0.7441,0.7854,348,62.8052,44.0674,-9.3384,91,1.3827,1.1095,-20.3603,-31.1683,29,0.077,8175,3.9622,143.2086
lg,1625794480806292892,0,0.0142,-0.564,0.7256,349,61.1572,3.479,7.6294,91,1.3827,1.0945,-19.3332,-29.0783,28,0.078,8167,3.9622,143.5264
lg,1625794480806334985,0,0.136,-0.5713,0.772,350,49.5605,-26.062,9.7656,91,1.3817,1.0795,-19.62,-27.7012,28,0.077,8166,3.9622,144.5248
lg,1625794480806375818,0,0.6228,-0.3523,0.5925,351,16.6626,-55.2979,13.9771,91,1.3837,1.0705,-22.1723,-27.707,28,0.077,8259,3.9622,146.1875
lg,1625794480806417744,0,0.8066,-0.6365,0.8792,352,-26.6113,-28.0762,13.0615,91,1.3837,1.0755,-23.4689,-29.4654,28,0.075,8277,3.9622,147.3833
lg,1625794481148856503,0,0.0371,-0.5884,0.7998,353,-7.2021,83.5571,-17.8223,91,1.3827,1.1195,-20.0952,-29.1351,28,0.077,26074,3.9622,145.0655
lg,1625794481148941022,0,-0.3762,-0.5405,0.7688,354,-16.7236,-10.437,-7.0801,91,1.3817,1.1245,-19.0818,-30.0103,28,0.078,12025,3.9721,145.0922
lg,1625794481148992948,0,0.1196,-0.5344,0.5894,355,4.6997,-118.5303,-33.2031,91,1.3817,1.1245,-23.4167,-30.8098,29,0.078,7612,3.9721,146.6098
lg,1625794481149047299,0,0.4241,-0.3545,0.6858,356,0.5493,-108.4595,-21.5454,91,1.3807,1.1245,-26.6625,-31.2943,29,0.077,7611,3.9721,148.1814
lg,1625794481149096040,0,0.542,-0.2971,0.5701,357,-5.7373,-58.6548,2.9297,91,1.3807,1.1266,-29.1092,-32.093,29,0.077,7639,3.9721,149.6353
lg,1625794481149142503,0,0.543,-0.5984,0.8284,358,-26.123,-25.1465,10.9863,91,1.3807,1.1276,-29.6588,-33.7916,29,0.077,7637,3.9721,150.7573
lg,1625794481149187614,0,0.5347,-0.8088,0.989,359,-24.1089,-11.7188,10.9863,91,1.3797,1.1276,-28.9589,-34.6785,28,0.076,9098,3.9721,151.1299
lg,1625794481149231948,0,0.4575,-0.7578,0.9529,360,-0.1221,26.1841,10.2539,91,1.3797,1.1296,-27.535,-34.6948,28,0.076,7947,3.9721,150.9072
lg,1625794481149276151,0,0.3123,-0.6765,0.8291,361,16.4795,44.0674,8.9111,91,1.3807,1.1286,-25.44,-33.8732,28,0.076,7756,3.9721,150.2117
lg,1625794481149320466,0,0.2671,-0.6562,0.8081,362,20.6299,39.4897,5.7983,91,1.3817,1.1266,-23.5645,-32.954,28,0.078,7715,3.9721,149.5606
lg,1625794481149364633,0,0.124,-0.7913,0.8508,363,33.9355,20.9961,-2.9907,91,1.3827,1.1215,-22.2516,-31.7865,29,0.078,7866,3.9721,149.1373
lg,1625794481149409966,0,0.1008,-0.6848,0.8108,364,50.6592,-3.418,-0.3662,91,1.3827,1.1105,-21.7245,-30.1417,29,0.078,8350,3.9721,149.344
lg,1625794481149453540,0,0.3794,-0.3884,0.5923,365,45.5322,-16.4795,4.7607,91,1.3837,1.1005,-22.8871,-29.6164,29,0.078,9347,3.9721,150.5613
lg,1625794481149496207,0,0.6321,-0.4082,0.6565,366,-4.8828,-41.748,20.813,91,1.3827,1.1035,-24.5409,-30.5657,29,0.08,7866,3.9721,152.2968
lg,1625794481149540577,0,0.8945,-0.6992,0.9092,367,-27.6489,-31.7993,11.9629,91,1.3837,1.1125,-25.8936,-32.4102,29,0.08,7835,3.9721,153.5909
lg,1625794481149586836,0,0.7935,-0.7756,0.8716,368,-19.165,13.1836,2.9297,91,1.3837,1.1266,-25.336,-33.4381,29,0.081,7864,3.9721,153.5365
lg,1625794481149719299,0,0.144,-0.5818,0.7927,369,7.2632,98.5718,-15.625,91,1.3837,1.1316,-21.7103,-32.1051,29,0.081,7900,3.9721,150.6872
lg,1625794481149767336,0,-0.4189,-0.6858,0.8628,370,42.9077,57.251,-35.8276,91,1.3837,1.1326,-18.9629,-29.758,29,0.079,7953,3.9721,148.2459
lg,1625794481149814522,0,-0.3728,-0.6797,0.5898,371,46.6919,-11.7188,-52.6123,91,1.3817,1.1306,-18.9262,-28.0749,29,0.079,7949,3.9721,146.8032
lg,1625794481149860873,0,0.1914,-0.4941,0.6226,372,30.2124,-115.7837,-52.002,91,1.3827,1.1286,-23.7648,-27.4117,29,0.078,8052,3.9721,147.2889
lg,1625794481149905540,0,0.5994,-0.3838,0.6216,373,22.3999,-69.8242,-36.9873,91,1.3817,1.1266,-27.5167,-26.6309,29,0.078,7960,3.9721,147.2911
lg,1625794481149950022,0,0.4993,-0.4536,0.6389,374,22.2778,-11.7798,-27.9541,91,1.3807,1.1266,-28.6309,-25.6393,29,0.078,7999,3.9721,146.5377
lg,1625794481149993448,0,0.2058,-0.3591,0.6235,375,15.9302,44.0674,-8.8501,91,1.3827,1.1286,-26.6928,-24.6231,29,0.077,8066,3.9721,145.4185
lg,1625794481150038577,0,0.1843,-0.5415,0.7717,376,3.418,35.2783,-4.6997,91,1.3827,1.1296,-25.7454,-25.1125,29,0.077,8090,3.9721,145.2624
lg,1625794481150083559,0,0.2942,-0.6033,0.8396,377,-9.2773,-5.0049,-3.6621,91,1.3807,1.1296,-25.6078,-25.8973,29,0.077,8044,3.9721,145.4014
lg,1625794481150128225,0,0.5632,-0.7161,0.884,378,-1.4648,-14.5874,-5.0049,91,1.3817,1.1306,-26.3277,-26.5162,29,0.076,11360,3.9721,145.7179
lg,1625794481150174336,0,0.5911,-0.7466,0.9224,379,15.564,14.2822,-13.2446,91,1.3817,1.1316,-26.0731,-26.0185,29,0.076,8112,3.9721,145.1208
lg,1625794481150267651,0,0.2861,-0.7395,0.8872,380,43.6401,51.0864,-14.5264,91,1.3827,1.1316,-24.0259,-24.2031,29,0.077,8149,3.9721,143.8418
lg,1625794481150319355,0,0.1848,-0.7163,0.8369,381,56.0913,49.2554,-16.6626,91,1.3837,1.1326,-22.4251,-21.638,29,0.078,8247,3.9721,142.7146
lg,1625794481150363762,0,0.1748,-0.6526,0.75,382,71.5332,15.9302,-19.5312,91,1.3837,1.1336,-21.6632,-19.1983,29,0.079,8138,3.9721,142.0007
lg,1625794481150410040,0,0.355,-0.6121,0.7263,383,70.3125,-8.9722,-14.0991,91,1.3847,1.1346,-22.183,-17.0375,29,0.077,8657,3.9721,141.8465
lg,1625794481150454077,0,0.5208,-0.6699,0.762,384,71.7773,-11.2305,-16.8457,91,1.3827,1.1356,-23.0626,-14.8511,29,0.073,9134,3.9721,141.6144
lg,1625794481510316762,0,0.251,-0.5354,0.7683,385,81.2988,28.1372,-36.6211,91,1.3827,1.1376,-22.0449,-11.7221,29,0.07,27692,3.9721,140.117
lg,1625794481510403503,0,0.3398,-0.5586,0.7261,386,73.1201,4.5166,-34.1187,91,1.3827,1.1386,-22.2632,-9.2102,29,0.071,10695,3.9721,138.9938
lg,1625794481510459484,0,0.4817,-0.6018,0.8025,387,75.1343,-20.9961,-47.2412,85,1.3807,1.1366,-23.575,-6.4994,29,0.072,7556,3.9721,137.4738
lg,1625794481510510892,0,0.4968,-0.666,0.8367,388,82.2754,-15.564,-49.4385,85,1.3797,1.1336,-24.0799,-3.1081,29,0.074,7616,3.9721,135.6609
lg,1625794481510558207,0,0.4531,-0.6794,0.814,389,101.7456,6.897,-59.1431,85,1.3777,1.1306,-23.9991,0.6398,29,0.074,7710,3.9721,133.6218
lg,1625794481510606484,0,0.3936,-0.5723,0.8672,390,121.8872,11.4746,-65.1245,85,1.3757,1.1276,-23.4409,5.3301,29,0.076,7631,3.9721,131.3387
lg,1625794481510654799,0,0.9746,-0.5671,0.5605,391,136.5356,-44.9219,-161.8042,85,1.3737,1.1235,-25.4676,12.6202,29,0.076,9457,3.9721,124.4172
lg,1625794481510701929,0,0.4856,-0.5925,1.1001,392,133.3008,-12.4512,-184.9365,85,1.3707,1.1215,-23.9713,19.7408,29,0.078,7801,3.9721,117.1106
lg,1625794481510749170,0,0.0691,-0.6692,0.8672,393,182.8003,137.146,-130.7983,85,1.3707,1.1215,-16.603,25.9797,29,0.079,7766,3.9721,115.1146
lg,1625794481511100929,0,0.1025,-0.2068,0.5261,394,199.585,152.8931,-117.0044,85,1.3707,1.1215,-9.5838,32.8241,29,0.08,7744,3.9721,113.5165
lg,1625794481511732725,0,-0.175,-0.0002,0.6108,395,167.6025,102.1729,-119.3848,85,1.3707,1.1215,-2.6021,38.4663,29,0.081,7742,3.9721,112.2694
lg,1625794481512602651,0,-0.2913,0.1489,0.6094,396,141.1133,82.3975,-74.585,85,1.3707,1.1215,2.8566,43.2214,29,0.08,7816,3.9721,112.2587
lg,1625794481512678040,0,-0.3438,0.1309,0.6272,397,122.2534,57.8613,-57.373,85,1.3697,1.1215,7.0878,47.0463,29,0.081,7830,3.9721,112.266
lg,1625794481512732021,0,-0.385,0.1348,0.7192,398,84.8389,-11.9629,-24.292,85,1.3707,1.1215,8.3419,49.0851,29,0.082,8016,3.9721,111.1152
lg,1625794481512784966,0,-0.1704,0.0845,0.8384,399,46.3867,-115.0513,-9.0942,85,1.3717,1.1225,5.8262,48.9264,29,0.083,7887,3.9721,107.1425
lg,1625794481512837910,0,-0.019,0.0093,0.9014,400,31.9824,-158.3252,-1.709,85,1.3697,1.1215,1.6067,48.1827,29,0.084,7907,3.9721,102.162
lg,1625794481512885521,0,0.3005,-0.1042,1.0178,401,17.0288,-217.1021,7.2021,85,1.3697,1.1215,-5.3701,47.3311,29,0.083,11414,3.9721,95.8873
lg,1625794481512932336,0,0.5923,-0.1794,1.0718,402,20.2026,-224.6094,4.8218,85,1.3697,1.1215,-12.527,47.4676,29,0.082,8145,3.9721,89.4892
lg,1625794481513037707,0,0.7561,-0.1887,1.0789,403,31.7993,-190.6738,-0.1831,85,1.3697,1.1215,-18.6217,48.6815,29,0.082,8024,3.9721,83.9397
lg,1625794481513091614,0,0.7207,-0.1682,0.9998,404,45.0439,-144.165,-3.7842,85,1.3687,1.1205,-23.1556,50.5057,29,0.082,7980,3.9721,79.6573
lg,1625794481513138781,0,0.6411,-0.1382,0.9612,405,48.0957,-128.7231,-2.9907,85,1.3677,1.1195,-27.0114,52.5594,29,0.081,7980,3.9721,75.8128
lg,1625794481513184262,0,0.5728,-0.0935,0.9094,406,47.3633,-124.5117,-0.6104,85,1.3657,1.1185,-30.5452,54.7891,29,0.08,9497,3.9721,72.0555
lg,1625794481513238077,0,0.5862,-0.0891,0.8762,407,44.4336,-129.5166,3.8452,85,1.3657,1.1185,-34.1664,57.2811,29,0.081,8083,3.9721,68.046
lg,1625794481513283929,0,0.6147,-0.0703,0.853,408,42.9077,-128.0518,9.8267,85,1.3657,1.1185,-37.7657,60.0102,29,0.081,8096,3.9721,64.0053
lg,1625794481513328447,0,0.6152,-0.0688,0.8335,409,41.0767,-128.1738,13.1836,85,1.3647,1.1185,-41.2512,63.0208,29,0.083,8076,3.9721,59.7805
lg,1625794481513372262,0,0.6235,-0.0876,0.8777,410,36.6821,-132.0801,19.8975,85,1.3657,1.1195,-44.7682,66.2672,29,0.083,8123,3.9721,55.2485
lg,1625794481513416966,0,0.6731,-0.1155,0.8992,411,34.729,-135.437,24.231,85,1.3657,1.1185,-48.279,70.0562,29,0.084,8176,3.9721,50.213
lg,1625794481513459281,0,0.7183,-0.126,0.9072,412,35.2173,-135.0708,25.4517,85,1.3647,1.1185,-51.5508,74.5342,29,0.084,8185,3.9721,44.6669
lg,1625794481513502244,0,0.7747,-0.1257,0.8994,413,38.269,-130.188,27.6489,85,1.3647,1.1195,-54.5411,79.695,29,0.084,8251,3.9721,38.7802
lg,1625794481513545095,0,0.7734,-0.0901,0.8643,414,44.6167,-115.6006,28.4424,85,1.3657,1.1195,-57.07,85.065,29,0.084,8237,3.9721,33.2501
lg,1625794481513589558,0,0.7271,-0.0715,0.8508,415,48.0957,-105.7739,31.0669,85,1.3657,1.1195,-59.3491,89.8738,29,0.085,8278,3.9721,28.7562
lg,1625794481513636095,0,0.6277,-0.0273,0.8503,416,48.2178,-93.9331,36.8042,85,1.3647,1.1195,-61.4209,94.8993,29,0.086,8282,3.9721,24.1167
lg,1625794481865208595,0,0.7749,-0.0046,0.8027,417,31.6772,-119.3848,51.4526,85,1.3667,1.1165,-63.6498,102.526,29,0.085,25285,3.9721,16.0823
lg,1625794481865319058,0,0.9104,-0.0425,0.8113,418,24.7803,-112.1216,51.1475,85,1.3667,1.1205,-65.4735,110.6959,29,0.084,13114,3.9721,7.4458
lg,1625794481865371354,0,0.9297,-0.0991,0.8179,419,25.3296,-90.3931,43.2129,85,1.3667,1.1215,-66.9291,117.861,29,0.085,10235,3.9721,0.1608
lg,1625794481865420577,0,0.9104,-0.1191,0.8003,420,29.1748,-57.0679,37.6587,85,1.3677,1.1205,-68.5603,122.736,29,0.085,8606,3.9721,-4.3442
lg,1625794481865468021,0,0.8286,-0.1394,0.7859,421,34.1797,-35.0342,31.25,85,1.3667,1.1215,-70.3691,125.941,29,0.086,7756,3.9721,-6.7629
lg,1625794481865515429,0,0.7688,-0.1443,0.7791,422,37.7197,-23.9868,29.8462,85,1.3667,1.1205,-72.5899,127.712,29,0.086,8075,3.9721,-7.3523
lg,1625794481865560799,0,0.6226,-0.1523,0.7273,423,44.8608,-8.3008,30.3345,85,1.3667,1.1215,-74.9376,128.9716,29,0.087,11325,3.9721,-7.2131
lg,1625794481865606003,0,0.6033,-0.1643,0.71,424,46.3867,-9.7046,30.3345,85,1.3667,1.1215,-77.1861,130.7764,29,0.087,8315,3.9721,-7.5349
lg,1625794481865653947,0,0.6096,-0.1331,0.6785,425,48.9502,-15.9302,32.7759,85,1.3667,1.1205,-79.1949,134.4858,29,0.087,8172,3.9721,-9.6456
lg,1625794481865696577,0,0.6711,-0.1597,0.6682,426,51.9409,-16.8457,33.1421,85,1.3677,1.1205,-81.008,140.8694,29,0.089,8344,3.9721,-14.2447
lg,1625794481865740743,0,0.6968,-0.1672,0.6687,427,53.6499,-15.564,32.5317,85,1.3657,1.1205,-82.6421,149.3991,29,0.089,8352,3.9721,-20.7932
lg,1625794481865784910,0,0.7146,-0.1472,0.6743,428,56.3965,-9.6436,29.6631,85,1.3647,1.1195,-83.8959,163.6096,29,0.088,9287,3.9721,-32.6376
lg,1625794481865827336,0,0.7498,-0.0999,0.6477,429,57.312,-2.6245,24.7803,85,1.3657,1.1205,-84.765,-171.1111,29,0.088,8408,3.9721,-54.1077
lg,1625794481865869206,0,0.7808,-0.095,0.6226,430,54.5044,8.1177,19.4092,85,1.3667,1.1195,-85.0824,-99.4941,29,0.088,8445,3.9721,-116.5652
lg,1625794481865913817,0,0.771,-0.1074,0.6475,431,52.3071,24.231,15.625,85,1.3667,1.1165,-84.4188,-43.3077,29,0.088,8461,3.9721,-175.8478
lg,1625794481865958540,0,0.7449,-0.1199,0.6943,432,53.5889,35.5225,14.7095,85,1.3677,1.1205,-82.5222,-27.9849,29,0.088,8455,3.9721,169.3378
lg,1625794481866043503,0,0.6396,-0.1133,0.6868,433,57.7393,53.4058,14.5264,85,1.3657,1.1205,-79.438,-20.0161,29,0.087,8485,3.9721,163.1901
lg,1625794481866093429,0,0.5691,-0.0769,0.6799,434,59.2651,53.7109,17.1509,85,1.3667,1.1205,-76.0197,-15.8238,29,0.088,8512,3.9721,161.2294
lg,1625794481866139040,0,0.5725,-0.084,0.6875,435,58.0444,40.8325,17.4561,85,1.3667,1.1205,-73.0463,-13.5506,29,0.09,8546,3.9721,161.2729
lg,1625794481866184243,0,0.5925,-0.0894,0.6724,436,58.5938,36.499,17.8833,85,1.3667,1.1205,-70.3363,-11.8631,29,0.09,8566,3.9721,161.9741
lg,1625794481866227706,0,0.6318,-0.0803,0.709,437,57.5562,29.1138,16.1133,85,1.3657,1.1215,-68.0159,-10.254,29,0.089,8823,3.9721,162.7413
lg,1625794481866270225,0,0.3538,-0.0317,0.6597,438,60.2417,39.6729,6.6528,85,1.3677,1.1215,-65.005,-7.3307,29,0.09,8669,3.9721,162.2515
lg,1625794481866315243,0,0.366,0.0474,0.6492,439,51.1475,-8.4229,13.5498,85,1.3667,1.1195,-63.9817,-5.6336,29,0.09,11682,3.9721,162.8017
lg,1625794481866363021,0,0.6025,-0.0449,0.7119,440,36.0107,-54.1382,17.9443,85,1.3677,1.1215,-65.1016,-6.0334,29,0.09,8649,3.9721,164.8689
lg,1625794481866408206,0,0.4495,0.0872,0.9348,441,28.1372,-27.2827,9.8267,85,1.3677,1.1215,-64.7216,-5.0504,29,0.088,8732,3.9721,165.2012
lg,1625794481866453595,0,0.1167,0.2268,1.0461,442,9.8267,-29.3579,-3.3569,85,1.3687,1.1205,-64.0412,-3.0512,29,0.089,8703,3.9721,163.7199
lg,1625794481866497447,0,-0.0874,0.2324,1.0593,443,-2.9907,-44.0674,-6.2866,85,1.3677,1.1205,-63.752,-1.4698,29,0.089,8780,3.9721,162.1068
lg,1625794481866756077,0,0.146,0.1016,0.9717,444,-40.1001,-143.2495,20.874,85,1.3657,1.1205,-67.4908,-4.7879,29,0.09,8764,3.9721,164.1547
lg,1625794481866812262,0,0.7344,-0.1533,0.9175,445,-69.8853,-225.769,25.7568,85,1.3667,1.1195,-74.8221,-15.5222,28,0.09,8782,3.9721,-187.3941
lg,1625794481866860151,0,1.4062,-0.3694,0.9543,446,-65.0024,-197.998,36.1328,85,1.3667,1.1205,-79.8763,-42.0821,28,0.09,8980,3.9721,-162.3684
lg,1625794481867053743,0,1.5554,-0.4373,0.9126,447,-52.1851,-142.6392,32.2266,85,1.3657,1.1165,-80.1675,-59.5297,28,0.09,8403,3.9721,-145.6909
lg,1625794481867103429,0,1.3516,-0.3713,0.8235,448,-14.5264,-18.1274,19.4702,85,1.3647,1.1185,-79.2312,-61.6265,28,0.091,8359,3.9721,-144.1407
lg,1625794482235447965,0,0.7126,-0.1782,0.6765,449,-2.5024,8.667,22.0337,85,1.3647,1.1185,-77.61,-56.4113,29,0.091,26073,3.9721,-149.5469
lg,1625794482235528206,0,0.823,-0.1951,0.6924,450,-8.1177,-12.2681,34.3018,85,1.3637,1.1185,-76.068,-57.3729,29,0.092,14580,3.9721,-148.7863
lg,1625794482235580502,0,0.8345,-0.1724,0.7012,451,-7.3853,-10.0098,35.7666,85,1.3627,1.1185,-74.5014,-57.7882,29,0.091,7646,3.9721,-148.4958
lg,1625794482235629614,0,0.8086,-0.1724,0.6868,452,-7.6294,2.1362,38.4521,85,1.3617,1.1185,-72.6235,-56.934,29,0.09,7655,3.9721,-149.5022
lg,1625794482235679391,0,0.7407,-0.1792,0.7078,453,-7.9346,10.9863,41.1987,85,1.3617,1.1185,-70.4169,-55.4255,29,0.088,7751,3.9721,-151.1644
lg,1625794482235771595,0,0.7048,-0.1626,0.6997,454,-8.667,12.5732,40.7104,85,1.3607,1.1175,-68.2305,-54.033,29,0.09,7739,3.9721,-152.6919
lg,1625794482235823465,0,0.6819,-0.1733,0.6921,455,-9.7046,10.0098,42.4805,85,1.3587,1.1175,-66.0622,-53.2902,29,0.09,9153,3.9721,-153.5401
lg,1625794482235870706,0,0.7166,-0.1919,0.6758,456,-9.2163,1.0986,41.626,85,1.3567,1.1175,-64.2205,-53.3973,29,0.091,8337,3.9721,-153.4263
lg,1625794482235917336,0,0.759,-0.1887,0.6892,457,-8.2397,-6.4697,38.147,85,1.3557,1.1165,-62.7689,-53.7787,29,0.09,7802,3.9721,-152.9214
lg,1625794482235961373,0,0.7722,-0.2097,0.6931,458,-5.7983,-7.5073,34.79,85,1.3567,1.1155,-61.5071,-54.0413,29,0.09,7899,3.9721,-152.4299
lg,1625794482236003465,0,0.7539,-0.2041,0.6973,459,-2.8076,-4.4556,28.7476,85,1.3547,1.1165,-60.3646,-53.6198,29,0.091,7814,3.9721,-152.5274
lg,1625794482236045373,0,0.7168,-0.2041,0.6882,460,0.6104,-5.9204,24.1089,85,1.3557,1.1165,-59.4042,-52.9594,29,0.089,7845,3.9721,-152.7191
lg,1625794482236090521,0,0.7212,-0.2004,0.6877,461,0.7935,-7.2021,22.0337,85,1.3537,1.1155,-58.5842,-52.317,29,0.088,7837,3.9721,-152.8716
lg,1625794482236133817,0,0.7175,-0.1992,0.6992,462,1.5259,-11.4746,20.2637,85,1.3547,1.1135,-57.9366,-51.8,29,0.088,7845,3.9721,-152.8254
lg,1625794482236175799,0,0.7241,-0.2012,0.6973,463,2.3193,-15.5029,19.3481,85,1.3547,1.1165,-57.4469,-51.4586,29,0.088,7875,3.9721,-152.5338
lg,1625794482236225632,0,0.7305,-0.1956,0.6965,464,2.0752,-15.9912,18.7988,85,1.3517,1.1155,-57.0217,-51.1339,29,0.087,7956,3.9721,-152.2261
lg,1625794482236268743,0,0.741,-0.1929,0.678,465,1.9531,-16.6626,17.334,85,1.3527,1.1165,-56.7113,-50.8437,29,0.088,7925,3.9721,-151.8934
lg,1625794482236313317,0,0.7671,-0.2192,0.6978,466,2.3804,-16.7236,17.334,85,1.3517,1.1155,-56.4512,-50.5528,28,0.087,8003,3.9721,-151.5344
lg,1625794482236357910,0,0.7551,-0.2192,0.7224,467,2.8076,-16.9678,15.8691,85,1.3497,1.1145,-56.1537,-50.2054,28,0.088,7998,3.9721,-151.226
lg,1625794482236400725,0,0.7966,-0.2217,0.7124,468,4.3335,-14.6484,15.0146,85,1.3507,1.1165,-55.9211,-49.6271,28,0.089,8028,3.9721,-151.1848
lg,1625794482236490169,0,0.8032,-0.2195,0.7239,469,3.2349,-9.8877,14.4043,85,1.3497,1.1165,-55.608,-48.9574,29,0.089,8730,3.9743,-151.2633
lg,1625794482236546206,0,0.8115,-0.2043,0.6909,470,1.709,-4.2114,13.3057,85,1.3487,1.1155,-55.2156,-48.1325,29,0.09,8686,3.9743,-151.6278
lg,1625794482236619002,0,0.792,-0.2188,0.6897,471,0.3662,1.8921,14.2212,85,1.3477,1.1155,-54.6045,-47.2055,29,0.09,8684,3.9743,-152.2022
lg,1625794482236680095,0,0.771,-0.2407,0.6968,472,-0.1221,8.4839,15.9302,85,1.3467,1.1155,-53.7207,-46.186,29,0.09,8885,3.9743,-152.94
lg,1625794482236724928,0,0.7546,-0.2368,0.6982,473,-0.4272,11.2305,18.4326,85,1.3437,1.1155,-52.6967,-45.2183,29,0.09,8979,3.9743,-153.6326
lg,1625794482236768188,0,0.7349,-0.2251,0.6919,474,-1.1597,11.6577,19.4092,85,1.3427,1.1145,-51.6723,-44.4338,29,0.09,8879,3.9743,-154.1557
lg,1625794482236814447,0,0.7571,-0.2097,0.7073,475,-2.5635,7.5684,20.1416,85,1.3437,1.1155,-50.8892,-43.889,29,0.091,8757,3.9743,-154.4656
lg,1625794482236858002,0,0.7896,-0.2551,0.7227,476,-2.6245,5.4321,18.0664,85,1.3427,1.1145,-50.0685,-43.2731,28,0.091,10634,3.9743,-154.7855
lg,1625794482236900780,0,0.7771,-0.2805,0.7158,477,-0.6714,9.5215,17.4561,85,1.3407,1.1155,-49.2262,-42.6074,28,0.091,8977,3.9743,-155.1648
lg,1625794482236941299,0,0.7754,-0.2651,0.7341,478,2.3193,13.916,14.5264,85,1.3387,1.1135,-48.3348,-41.6169,28,0.092,8804,3.9743,-155.8172
lg,1625794482236987836,0,0.7402,-0.2605,0.7295,479,3.418,18.4326,13.2446,85,1.3387,1.1115,-47.3282,-40.4548,28,0.09,8885,3.9743,-156.65
lg,1625794482237032558,0,0.7341,-0.272,0.7231,480,3.54,16.9678,14.0381,85,1.3387,1.1145,-46.3613,-39.4741,29,0.089,8867,3.9743,-157.2802
lg,1625794482610344706,0,0.7505,-0.282,0.7046,481,6.4697,23.4375,14.8926,85,1.3387,1.1145,-45.2397,-38.368,29,0.09,26651,3.9743,-157.9906
lg,1625794482610441669,0,0.7183,-0.2622,0.7205,482,5.7983,26.4282,15.7471,85,1.3387,1.1145,-43.9892,-37.2394,29,0.091,13669,3.9743,-158.7436
lg,1625794482610550354,0,0.7161,-0.2749,0.7273,483,5.5542,27.2827,17.4561,85,1.3377,1.1145,-42.6869,-36.2617,29,0.093,9104,3.9743,-159.3456
lg,1625794482610603502,0,0.6973,-0.2837,0.7278,484,6.5308,30.5176,18.3716,85,1.3377,1.1145,-41.2652,-35.2936,29,0.093,8442,3.9743,-159.9209
lg,1625794482610652039,0,0.6616,-0.2954,0.7556,485,8.9722,31.8604,20.0806,85,1.3377,1.1155,-39.7093,-34.3083,29,0.093,8251,3.9743,-160.3941
lg,1625794482610699187,0,0.6479,-0.2703,0.7529,486,8.606,31.7383,20.813,85,1.3367,1.1155,-38.1963,-33.3704,29,0.093,8239,3.9743,-160.7942
lg,1625794482610744280,0,0.6362,-0.2737,0.7417,487,6.5308,28.7476,21.4233,85,1.3347,1.1135,-36.8152,-32.6636,29,0.093,9870,3.9743,-161.0053
lg,1625794482610790780,0,0.6436,-0.2671,0.7231,488,7.1411,23.8037,21.7896,85,1.3337,1.1145,-35.6847,-32.0706,29,0.094,8274,3.9743,-161.0153
lg,1625794482610835039,0,0.6455,-0.2744,0.7205,489,5.3101,21.0571,22.3999,85,1.3357,1.1155,-34.6795,-31.6575,29,0.094,12155,3.9743,-160.8817
lg,1625794482610878336,0,0.6172,-0.259,0.7244,490,5.249,19.5312,22.2168,85,1.3357,1.1155,-33.7272,-31.2324,29,0.093,8317,3.9743,-160.7217
lg,1625794482610925910,0,0.5911,-0.2397,0.7061,491,5.188,14.0381,22.1558,85,1.3357,1.1155,-32.9918,-30.8648,29,0.094,8567,3.9743,-160.4253
lg,1625794482610969613,0,0.562,-0.2644,0.7341,492,1.4648,2.2583,22.8882,85,1.3357,1.1155,-32.5657,-30.8537,29,0.094,10127,3.9743,-159.7821
lg,1625794482611013910,0,0.5938,-0.2668,0.7476,493,-0.8545,-9.2163,25.5737,85,1.3357,1.1155,-32.5319,-31.1414,29,0.093,8573,3.9743,-158.7478
lg,1625794482611059058,0,0.6873,-0.2798,0.7444,494,-3.3569,-13.2446,29.7241,85,1.3337,1.1155,-32.698,-31.7205,29,0.094,9877,3.9743,-157.4198
lg,1625794482611105354,0,0.7051,-0.303,0.7705,495,-3.3569,-9.8267,31.6772,85,1.3347,1.1155,-32.671,-32.3038,29,0.094,8455,3.9743,-156.0977
lg,1625794482611148798,0,0.7659,-0.3325,0.771,496,-1.2817,3.1738,33.9966,85,1.3337,1.1155,-32.2202,-32.7224,29,0.094,8473,3.9743,-154.9932
lg,1625794482611190428,0,0.7339,-0.3127,0.7617,497,3.6621,19.5312,33.8745,85,1.3347,1.1155,-31.2167,-32.6511,29,0.094,8494,3.9743,-154.3507
lg,1625794482611231354,0,0.6426,-0.3181,0.7546,498,7.6294,30.8228,31.3721,85,1.3347,1.1135,-29.788,-32.2186,29,0.095,8674,3.9743,-154.0837
lg,1625794482611312891,0,0.6064,-0.302,0.7332,499,8.1177,32.1045,30.3345,81,1.3347,1.1155,-28.3687,-31.7273,29,0.096,8489,3.9743,-153.8708
lg,1625794482611357132,0,0.5315,-0.2969,0.7341,500,8.1177,26.001,27.832,81,1.3327,1.1165,-27.1285,-31.2488,29,0.096,8505,3.9743,-153.5928
lg,1625794482611397836,0,0.4951,-0.3003,0.7537,501,6.8359,12.6953,24.7192,81,1.3347,1.1155,-26.3599,-30.9029,29,0.096,8551,3.9743,-153.1097
lg,1625794482611440150,0,0.501,-0.3276,0.7634,502,4.6387,-2.9297,20.5688,81,1.3337,1.1155,-26.2264,-30.7987,29,0.099,8559,3.9743,-152.3889
lg,1625794482611485169,0,0.5208,-0.3298,0.7463,503,4.3335,-10.0708,18.5547,81,1.3337,1.1155,-26.4401,-30.7768,28,0.097,8609,3.9743,-151.5663
lg,1625794482611531169,0,0.573,-0.345,0.7715,504,4.2114,-19.6533,15.0757,81,1.3327,1.1145,-27.1061,-30.8201,28,0.096,8609,3.9743,-150.6479
lg,1625794482611577873,0,0.606,-0.353,0.7693,505,6.1035,-18.7988,11.9019,81,1.3337,1.1145,-27.8382,-30.7573,28,0.096,8644,3.9743,-149.859
lg,1625794482611619558,0,0.626,-0.3418,0.7607,506,8.606,-14.9536,9.2773,81,1.3337,1.1145,-28.5164,-30.504,28,0.096,8665,3.9743,-149.2662
lg,1625794482611661965,0,0.6204,-0.3379,0.7502,507,9.0332,-13.6719,8.3008,81,1.3327,1.1135,-29.1347,-30.1999,28,0.096,8699,3.9743,-148.746
lg,1625794482611703002,0,0.6184,-0.3191,0.7642,508,8.728,-11.8408,5.4932,81,1.3317,1.1135,-29.7333,-29.8097,28,0.097,8717,3.9743,-148.3949
lg,1625794482611745632,0,0.5854,-0.3333,0.7507,509,6.5918,-9.9487,4.0283,81,1.3327,1.1135,-30.2214,-29.5141,28,0.097,8733,3.9743,-148.1195
lg,1625794482611791002,0,0.5979,-0.3379,0.7742,510,5.0049,-13.1226,4.0283,81,1.3327,1.1125,-30.7946,-29.3179,29,0.098,8806,3.9743,-147.7741
lg,1625794482611831317,0,0.6121,-0.3506,0.7571,511,4.3335,-14.8926,3.54,81,1.3317,1.1125,-31.4531,-29.2202,29,0.098,9396,3.9743,-147.3792
lg,1625794482611874261,0,0.6265,-0.3616,0.7517,512,4.1504,-13.916,4.1504,81,1.3317,1.1125,-32.0646,-29.1724,29,0.097,8314,3.9743,-146.9622
lg,1625794482970966372,0,0.6206,-0.3462,0.7581,513,4.6997,-6.6528,6.3477,81,1.3317,1.1075,-32.3495,-29.0238,29,0.097,25413,3.9743,-146.6445
lg,1625794482971236502,0,0.6401,-0.3623,0.7427,514,5.4321,-2.3193,8.728,81,1.3317,1.1075,-32.4682,-28.909,29,0.096,12909,3.9743,-146.2949
lg,1625794482971304983,0,0.6147,-0.3508,0.7332,515,5.9204,2.4414,9.3384,81,1.3306,1.1105,-32.3795,-28.7173,29,0.095,10514,3.9743,-146.036
lg,1625794482971357706,0,0.5818,-0.3669,0.7393,516,6.5308,8.1787,10.8643,81,1.3306,1.1095,-31.9892,-28.5011,29,0.097,7749,3.9743,-145.8241
lg,1625794482971408687,0,0.5591,-0.3555,0.7483,517,6.2256,9.0332,11.4746,81,1.3306,1.1095,-31.5282,-28.2687,29,0.096,7690,3.9743,-145.6208
lg,1625794482971458743,0,0.5269,-0.3542,0.7173,518,5.4932,6.1035,12.9395,81,1.3296,1.1085,-31.1349,-28.1719,29,0.097,7788,3.9743,-145.2677
lg,1625794482971508576,0,0.5244,-0.3711,0.7297,519,5.3101,0.9766,13.1226,81,1.3296,1.1085,-30.9048,-28.1718,29,0.096,8652,3.9743,-144.7785
lg,1625794482971557687,0,0.5227,-0.3806,0.7275,520,5.6763,-0.7935,13.7939,81,1.3276,1.1075,-30.7705,-28.1684,29,0.095,9593,3.9743,-144.2632
lg,1625794482971605798,0,0.5168,-0.3652,0.7246,521,6.3477,-3.1738,11.0474,81,1.3276,1.1085,-30.7341,-28.1195,29,0.095,7756,3.9743,-143.7727
lg,1625794482971655465,0,0.522,-0.3684,0.73,522,7.8735,-5.0049,9.5215,81,1.3286,1.1085,-30.7949,-28.0015,29,0.095,7832,3.9743,-143.3027
lg,1625794482971702446,0,0.5195,-0.3572,0.7402,523,7.8735,-7.3242,8.606,81,1.3286,1.1065,-30.9617,-27.8922,29,0.095,7829,3.9743,-142.8186
lg,1625794482971749539,0,0.5168,-0.353,0.7231,524,7.9346,-10.498,6.2256,81,1.3266,1.1075,-31.2765,-27.7461,29,0.094,7871,3.9743,-142.3736
lg,1625794482971797946,0,0.5337,-0.366,0.7192,525,8.1177,-12.8784,5.127,81,1.3286,1.1035,-31.7137,-27.6422,29,0.095,7924,3.9743,-141.8988
lg,1625794482971844650,0,0.5442,-0.3652,0.7183,526,7.6904,-14.4043,4.5166,81,1.3286,1.1075,-32.2212,-27.5674,29,0.095,7846,3.9743,-141.4126
lg,1625794482971893632,0,0.551,-0.3538,0.7087,527,7.6904,-13.9771,3.7231,81,1.3286,1.1075,-32.74,-27.461,29,0.095,7873,3.9743,-140.9746
lg,1625794482971944798,0,0.5618,-0.3657,0.7231,528,8.2397,-13.855,3.7842,81,1.3286,1.1075,-33.2297,-27.3526,29,0.096,7952,3.9743,-140.5269
lg,1625794482972270576,0,0.5447,-0.3606,0.7271,529,8.1787,-13.3057,2.8687,81,1.3276,1.1065,-33.664,-27.2086,29,0.096,10178,3.9743,-140.1367
lg,1625794482972384095,0,0.5586,-0.3379,0.729,530,7.8125,-13.6108,2.8687,81,1.3286,1.1075,-34.1306,-27.0327,29,0.096,7991,3.9743,-139.7692
lg,1625794482972447576,0,0.5554,-0.3293,0.7195,531,6.8359,-14.9536,1.5869,81,1.3276,1.1075,-34.6607,-26.8807,29,0.096,8037,3.9743,-139.4294
lg,1625794482972503132,0,0.593,-0.3325,0.7219,532,4.6387,-17.8833,0,81,1.3286,1.1075,-35.3683,-26.8307,29,0.096,8046,3.9743,-139.0855
lg,1625794482972554483,0,0.594,-0.355,0.7202,533,4.6997,-19.4702,-0.3052,81,1.3286,1.1075,-36.0995,-26.8571,29,0.097,8002,3.9743,-138.682
lg,1625794482972607335,0,0.6138,-0.3438,0.7209,534,4.1504,-18.3716,-1.5869,81,1.3286,1.1075,-36.8274,-26.8334,29,0.096,8062,3.9743,-138.3744
lg,1625794482972660002,0,0.5859,-0.3513,0.7461,535,5.6152,-16.9678,-1.1597,81,1.3296,1.1075,-37.3668,-26.7687,29,0.096,12635,3.9743,-138.1033
lg,1625794482972711446,0,0.5989,-0.3369,0.7568,536,3.6621,-18.4326,-0.6714,81,1.3286,1.1075,-37.965,-26.7396,29,0.096,8088,3.9743,-137.7861
lg,1625794482972761243,0,0.6013,-0.3259,0.7703,537,3.1738,-20.813,0.4272,81,1.3296,1.1075,-38.5994,-26.7566,29,0.097,8116,3.9743,-137.3888
lg,1625794482974342965,0,0.6489,-0.3494,0.7532,538,1.8921,-21.5454,1.0376,81,1.3296,1.1075,-39.3792,-27.0418,29,0.096,8122,3.9743,-136.8059
lg,1625794482974555391,0,0.6868,-0.3711,0.7742,539,0.4883,-23.3154,2.1973,81,1.3286,1.1075,-40.0343,-27.3637,29,0.096,9795,3.9743,-136.2038
lg,1625794482974610613,0,0.709,-0.3848,0.7751,540,0.7935,-17.9443,3.6011,81,1.3276,1.1065,-40.5718,-27.6939,29,0.096,9229,3.9743,-135.617
lg,1625794482974661632,0,0.697,-0.3801,0.7646,541,2.9297,-6.1035,4.3335,81,1.3276,1.1065,-40.642,-27.7459,29,0.097,8167,3.9743,-135.3038
lg,1625794482974715113,0,0.6497,-0.3899,0.7397,542,5.127,-0.3662,2.6855,81,1.3286,1.1065,-40.4835,-27.6217,28,0.097,8249,3.9743,-135.1741
lg,1625794482974768909,0,0.6165,-0.3994,0.7209,543,5.6763,-0.1221,2.1362,81,1.3286,1.1065,-40.3928,-27.5273,28,0.097,8193,3.9743,-135.0316
lg,1625794482974817835,0,0.645,-0.3799,0.7107,544,5.6152,-5.0049,0.4272,81,1.3276,1.1065,-40.4825,-27.4104,28,0.097,8368,3.9743,-134.8796
lg,1625794483315973372,0,0.6521,-0.3833,0.7173,545,5.6763,-9.0332,0.6104,81,1.3286,1.1035,-40.7095,-27.3652,29,0.097,25426,3.9743,-134.6178
lg,1625794483316051409,0,0.675,-0.3713,0.7422,546,4.0894,-7.019,1.5259,81,1.3286,1.1065,-40.8556,-27.3193,29,0.097,15526,3.9743,-134.4018
lg,1625794483316103817,0,0.6616,-0.3921,0.7534,547,3.6011,-4.0283,1.77,81,1.3286,1.1075,-40.8382,-27.2922,29,0.099,10372,3.9743,-134.2215
lg,1625794483316153705,0,0.6602,-0.3977,0.761,548,2.9297,-3.418,2.0142,81,1.3276,1.1075,-40.7562,-27.2857,29,0.099,7655,3.9743,-134.0403
lg,1625794483316201872,0,0.6748,-0.3875,0.7588,549,3.6011,-2.3804,2.1362,81,1.3266,1.1075,-40.6962,-27.2264,29,0.099,7726,3.9743,-133.8945
lg,1625794483316247539,0,0.6421,-0.3828,0.7356,550,4.0894,-0.2441,0.6714,81,1.3266,1.1075,-40.5652,-27.0897,29,0.099,7845,3.9743,-133.8556
lg,1625794483316291928,0,0.6362,-0.3726,0.7305,551,4.1504,-0.2441,0.3052,81,1.3266,1.1075,-40.4452,-26.9102,29,0.099,7611,3.9743,-133.8531
lg,1625794483316335909,0,0.6277,-0.3743,0.741,552,5.3101,-3.1128,-1.8921,81,1.3256,1.1065,-40.4462,-26.6753,29,0.099,7839,3.9743,-133.8764
lg,1625794483316381391,0,0.6372,-0.3743,0.7292,553,6.7139,-3.54,-2.8687,81,1.3256,1.1065,-40.5101,-26.3856,29,0.099,7720,3.9743,-133.9201
lg,1625794483316425483,0,0.6353,-0.3684,0.752,554,7.8125,-2.3193,-3.418,81,1.3256,1.1075,-40.3999,-25.9573,29,0.099,7735,3.9743,-134.0483
lg,1625794483316468243,0,0.6191,-0.3679,0.7646,555,9.0332,2.9907,-1.2207,81,1.3236,1.1075,-40.1338,-25.4968,29,0.099,7789,3.9743,-134.1864
lg,1625794483316511650,0,0.5911,-0.332,0.7502,556,8.9722,5.0659,1.0376,81,1.3246,1.1075,-39.7514,-25.0221,29,0.099,7818,3.9743,-134.2998
lg,1625794483316555205,0,0.5857,-0.3484,0.7676,557,6.0425,0.2441,2.6245,81,1.3236,1.1075,-39.4919,-24.823,29,0.099,7991,3.9743,-134.203
lg,1625794483316598557,0,0.6396,-0.3633,0.8171,558,4.1504,-2.2583,4.1504,81,1.3236,1.1075,-39.3386,-24.7689,29,0.099,7783,3.9743,-133.9864
lg,1625794483316642057,0,0.6375,-0.3777,0.7961,559,5.0659,0.6104,4.0894,81,1.3236,1.1075,-39.0805,-24.6285,29,0.1,7842,3.9743,-133.8404
lg,1625794483316723131,0,0.6135,-0.3594,0.8237,560,7.3853,9.4604,4.3335,81,1.3226,1.1075,-38.4681,-24.2829,29,0.099,7840,3.9743,-133.8726
lg,1625794483316794280,0,0.5591,-0.3445,0.8027,561,9.3384,14.1602,2.9907,81,1.3226,1.1075,-37.6643,-23.7637,29,0.099,7917,3.9743,-134.06
lg,1625794483316837668,0,0.5518,-0.3416,0.79,562,9.5215,14.8926,2.9297,81,1.3216,1.1065,-36.8742,-23.267,28,0.099,8541,3.9743,-134.2812
lg,1625794483316879280,0,0.53,-0.3354,0.7778,563,8.2397,13.6719,1.3428,81,1.3206,1.1065,-36.1521,-22.8123,28,0.1,7948,3.9743,-134.4893
lg,1625794483316921298,0,0.51,-0.3442,0.7737,564,7.6904,8.8501,-0.3052,81,1.3226,1.1075,-35.6216,-22.4413,28,0.1,7941,3.9743,-134.6464
lg,1625794483316963168,0,0.5061,-0.3352,0.7654,565,6.4697,6.1035,-0.5493,81,1.3226,1.1075,-35.3454,-22.2289,28,0.1,7990,3.9743,-134.7136
lg,1625794483317005798,0,0.522,-0.3503,0.7705,566,5.6152,-0.3052,-1.2817,81,1.3216,1.1065,-35.2219,-22.0596,29,0.099,8936,3.9743,-134.7163
lg,1625794483317048705,0,0.5017,-0.373,0.7495,567,5.6152,-2.8687,-0.6714,81,1.3216,1.1065,-35.1621,-22.0245,29,0.1,8025,3.9743,-134.5913
lg,1625794483317090872,0,0.5559,-0.3862,0.7393,568,4.3335,-9.9487,1.4038,81,1.3226,1.1075,-35.4445,-22.212,29,0.1,8037,3.9743,-134.2166
lg,1625794483317132650,0,0.5911,-0.3704,0.7378,569,4.7607,-9.5825,0.9155,81,1.3226,1.1075,-35.7361,-22.2738,29,0.1,8096,3.9743,-133.9233
lg,1625794483317174372,0,0.5784,-0.3416,0.759,570,7.019,-5.5542,1.0376,81,1.3196,1.1075,-35.8786,-22.1538,29,0.1,8066,3.9743,-133.7297
lg,1625794483317214983,0,0.5168,-0.333,0.7319,571,6.0425,-6.4697,-0.4272,81,1.3226,1.1075,-35.9902,-22.0602,29,0.099,8215,3.9743,-133.576
lg,1625794483317257168,0,0.5217,-0.3416,0.7407,572,4.5776,-10.2539,-0.7324,81,1.3216,1.1075,-36.3713,-22.242,29,0.099,8159,3.9743,-133.2715
lg,1625794483317300094,0,0.5791,-0.3606,0.7571,573,2.3804,-14.0381,0,81,1.3216,1.1065,-36.8105,-22.4295,29,0.099,8122,3.9743,-132.9302
lg,1625794483317342187,0,0.5879,-0.3545,0.7571,574,3.0518,-11.8408,1.0986,81,1.3226,1.1075,-37.1528,-22.5758,29,0.099,8192,3.9743,-132.5902
lg,1625794483317411020,0,0.5732,-0.3564,0.7471,575,3.9062,-12.5122,0.9155,81,1.3226,1.1065,-37.4767,-22.6981,29,0.099,8284,3.9743,-132.2437
lg,1625794483317454854,0,0.5896,-0.3574,0.7681,576,3.2959,-13.1226,0.4272,81,1.3216,1.1065,-37.8375,-22.8211,29,0.099,8391,3.9743,-131.9135
lg,1625794483658073927,0,0.5884,-0.3679,0.7478,577,3.1738,-13.7939,0.1221,81,1.3186,1.1035,-38.2288,-22.9975,28,0.099,25612,3.9743,-131.5523
lg,1625794483658162946,0,0.5874,-0.3647,0.7542,578,3.6011,-13.1226,-0.4272,81,1.3226,1.1075,-38.5803,-23.1135,28,0.1,11284,3.9743,-131.2405
lg,1625794483658218557,0,0.5864,-0.3552,0.7446,579,3.1738,-12.207,-0.3052,81,1.3226,1.1075,-38.9045,-23.2205,29,0.099,10711,3.9721,-130.9517
lg,1625794483658271816,0,0.5933,-0.3508,0.7427,580,3.54,-12.3291,0.061,81,1.3226,1.1075,-39.2228,-23.3173,29,0.099,7600,3.9721,-130.6471
lg,1625794483658320687,0,0.5894,-0.3408,0.7585,581,2.5635,-13.916,-0.4272,81,1.3226,1.1075,-39.5728,-23.4126,29,0.099,7644,3.9721,-130.3617
lg,1625794483658369113,0,0.6064,-0.3669,0.7502,582,2.6245,-14.4043,-0.6714,81,1.3216,1.1075,-39.957,-23.5815,29,0.099,7644,3.9721,-130.0271
lg,1625794483658416724,0,0.5916,-0.3442,0.7598,583,1.77,-14.0991,-0.3662,81,1.3226,1.1075,-40.2832,-23.716,29,0.098,7919,3.9721,-129.7306
lg,1625794483658464353,0,0.5708,-0.3552,0.7485,584,2.4414,-16.3574,-0.5493,81,1.3226,1.1075,-40.6507,-23.8905,29,0.099,9981,3.9721,-129.3666
lg,1625794483658512446,0,0.5706,-0.3635,0.7427,585,1.8921,-16.2964,-0.7935,81,1.3216,1.1075,-41.0554,-24.1537,29,0.098,8259,3.9721,-128.9594
lg,1625794483658558631,0,0.5793,-0.3486,0.7371,586,1.5259,-19.2261,-0.6714,81,1.3206,1.1075,-41.5286,-24.3907,29,0.099,7678,3.9721,-128.5414
lg,1625794483658604372,0,0.5642,-0.3679,0.741,587,1.5259,-21.1792,-1.0986,81,1.3216,1.1075,-42.0166,-24.6884,29,0.098,7737,3.9721,-128.0675
lg,1625794483658651446,0,0.584,-0.375,0.7432,588,1.0986,-22.1558,-1.77,81,1.3226,1.1075,-42.5704,-25.0006,29,0.098,7828,3.9721,-127.5973
lg,1625794483658697020,0,0.5774,-0.3694,0.7466,589,1.0986,-26.9775,-2.5024,81,1.3216,1.1075,-43.2624,-25.3494,29,0.097,7803,3.9721,-127.0571
lg,1625794483658742724,0,0.5757,-0.3745,0.7407,590,0.7935,-27.8931,-3.6011,81,1.3226,1.1065,-43.9771,-25.7092,29,0.098,7824,3.9721,-126.5297
lg,1625794483658788372,0,0.5759,-0.3774,0.7556,591,1.4038,-30.3345,-3.418,81,1.3226,1.1075,-44.7272,-26.0798,29,0.098,7846,3.9721,-125.9369
lg,1625794483658881224,0,0.6143,-0.3799,0.7532,592,0.9155,-33.6304,-4.5166,81,1.3226,1.1075,-45.6504,-26.5016,29,0.098,7887,3.9721,-125.3018
lg,1625794483658935168,0,0.6426,-0.3923,0.7329,593,1.5869,-33.8135,-5.0049,81,1.3226,1.1045,-46.6132,-26.9504,29,0.098,7892,3.9721,-124.6303
lg,1625794483658980316,0,0.647,-0.3953,0.7544,594,2.8687,-32.1045,-5.5542,81,1.3206,1.1065,-47.4655,-27.2748,29,0.098,7951,3.9721,-124.0405
lg,1625794483659025798,0,0.6587,-0.3701,0.7283,595,3.1738,-28.1982,-5.0659,81,1.3226,1.1075,-48.2004,-27.4972,29,0.098,7956,3.9721,-123.5502
lg,1625794483659070039,0,0.6504,-0.3811,0.7295,596,2.9907,-27.4658,-3.8452,81,1.3236,1.1075,-48.8344,-27.7942,29,0.099,7979,3.9721,-122.9867
lg,1625794483659123020,0,0.6729,-0.3792,0.7324,597,3.7231,-27.3438,-3.418,81,1.3216,1.1065,-49.464,-28.0683,29,0.099,8038,3.9721,-122.4067
lg,1625794483659171427,0,0.6731,-0.385,0.7581,598,4.1504,-24.292,-2.4414,81,1.3226,1.1085,-49.9098,-28.2767,29,0.099,8274,3.9721,-121.8768
lg,1625794483659214816,0,0.6702,-0.3733,0.7605,599,4.3945,-21.7285,-1.4648,81,1.3236,1.1075,-50.229,-28.4192,29,0.099,8060,3.9721,-121.3983
lg,1625794483659275353,0,0.6882,-0.3857,0.7483,600,3.6621,-20.874,-0.9766,81,1.3236,1.1075,-50.5304,-28.6474,29,0.098,8061,3.9721,-120.8745
lg,1625794483659330650,0,0.7339,-0.4082,0.7495,601,4.3335,-17.9443,0.5493,81,1.3216,1.1085,-50.7423,-28.9051,29,0.098,8084,3.9721,-120.3073
lg,1625794483659380761,0,0.7566,-0.415,0.749,602,5.9204,-8.4839,2.3804,81,1.3236,1.1075,-50.6117,-28.9649,29,0.099,8274,3.9721,-119.9203
lg,1625794483659428650,0,0.7458,-0.3999,0.7522,603,7.0801,-3.2959,3.1128,81,1.3236,1.1075,-50.079,-28.7361,29,0.098,8124,3.9721,-119.7487
lg,1625794483659481187,0,0.6953,-0.3992,0.7344,604,10.5591,7.019,5.0049,81,1.3226,1.1075,-49.32,-28.3455,29,0.099,10883,3.9721,-119.6997
lg,1625794483659525168,0,0.6743,-0.3792,0.7388,605,11.2915,8.3618,5.5542,81,1.3226,1.1075,-48.5077,-27.8757,29,0.099,8207,3.9721,-119.6909
lg,1625794483659568613,0,0.6543,-0.3792,0.7271,606,11.5356,11.4136,5.4932,81,1.3226,1.1075,-47.602,-27.3731,29,0.098,8212,3.9721,-119.7355
lg,1625794483660033039,0,0.6423,-0.3767,0.7087,607,12.146,11.5967,5.8594,81,1.3236,1.1075,-46.7218,-26.9057,29,0.099,8263,3.9721,-119.7263
lg,1625794483660096353,0,0.6089,-0.3752,0.7249,608,11.7798,11.7798,5.5542,81,1.3236,1.1075,-45.9564,-26.4854,29,0.099,8266,3.9721,-119.6799
lg,1625794484024360353,0,0.6182,-0.3784,0.7078,609,7.3853,-0.8545,3.418,81,1.3226,1.1075,-45.5854,-26.3977,29,0.099,26134,3.9721,-119.4348
lg,1625794484024461724,0,0.6584,-0.3845,0.7122,610,6.4087,-1.9531,3.8452,81,1.3226,1.1075,-45.3202,-26.395,29,0.099,15204,3.9721,-119.1326
lg,1625794484024514705,0,0.6555,-0.3843,0.7219,611,7.2632,0,3.9062,80,1.3236,1.1075,-44.9785,-26.309,29,0.1,7604,3.9721,-118.8888
lg,1625794484024565983,0,0.6504,-0.3711,0.7341,612,6.7139,-1.0986,3.7231,80,1.3236,1.1075,-44.6775,-26.207,29,0.1,7791,3.9721,-118.663
lg,1625794484024614038,0,0.6521,-0.3774,0.752,613,6.2866,-2.0752,3.9062,80,1.3226,1.1075,-44.3984,-26.1414,29,0.1,7638,3.9721,-118.4066
lg,1625794484024658983,0,0.6489,-0.3948,0.7476,614,4.5166,-2.2583,5.0049,80,1.3226,1.1075,-44.1073,-26.2409,29,0.099,7765,3.9721,-118.0534
lg,1625794484024702020,0,0.6863,-0.3867,0.7412,615,4.1504,-3.0518,6.4087,80,1.3216,1.1065,-43.904,-26.3967,29,0.099,9289,3.9721,-117.6251
lg,1625794484024743761,0,0.6729,-0.396,0.752,616,3.8452,-1.709,6.7139,80,1.3206,1.1055,-43.6151,-26.5531,29,0.099,7696,3.9721,-117.2146
lg,1625794484024784872,0,0.6733,-0.3987,0.7397,617,4.8828,3.1128,7.5073,80,1.3216,1.1065,-43.1651,-26.6261,29,0.098,7735,3.9721,-116.8757
lg,1625794484024828279,0,0.6777,-0.387,0.7383,618,6.3477,8.9111,7.4463,80,1.3216,1.1055,-42.544,-26.507,29,0.098,7752,3.9721,-116.7068
lg,1625794484024871094,0,0.6763,-0.3811,0.7495,619,7.019,11.4746,7.6294,80,1.3196,1.1055,-41.8412,-26.2998,29,0.098,7757,3.9721,-116.6078
lg,1625794484024913668,0,0.6582,-0.3689,0.7358,620,8.3008,17.334,7.3853,80,1.3216,1.1055,-40.9556,-25.9386,29,0.098,7819,3.9721,-116.6597
lg,1625794484024956131,0,0.6162,-0.3635,0.7454,621,8.728,19.9585,7.2632,80,1.3196,1.1065,-39.9328,-25.5127,29,0.098,9132,3.9721,-116.7767
lg,1625794484025110520,0,0.5896,-0.373,0.7637,622,10.1929,19.8975,8.9111,80,1.3206,1.1065,-38.8505,-25.1059,29,0.099,9468,3.9721,-116.7924
lg,1625794484025170983,0,0.5955,-0.3621,0.7505,623,10.0098,19.8975,9.0942,80,1.3186,1.1045,-37.8395,-24.7215,29,0.099,7837,3.9721,-116.789
lg,1625794484025217150,0,0.604,-0.3687,0.7612,624,9.9487,18.0664,9.0942,80,1.3196,1.1055,-36.9341,-24.3861,29,0.098,7920,3.9721,-116.7287
lg,1625794484025260168,0,0.6042,-0.3765,0.7581,625,10.8643,19.165,8.8501,80,1.3196,1.1055,-35.9474,-23.9736,29,0.098,7971,3.9721,-116.7507
lg,1625794484025303816,0,0.5815,-0.373,0.7529,626,12.9395,26.062,7.1411,80,1.3186,1.1055,-34.8253,-23.4337,29,0.098,12031,3.9721,-116.8942
lg,1625794484025349594,0,0.5459,-0.3533,0.7454,627,13.5498,27.4658,6.0425,80,1.3186,1.1055,-33.6759,-22.8018,29,0.097,7976,3.9721,-117.1258
lg,1625794484025392631,0,0.5308,-0.3618,0.7466,628,12.6953,27.1606,5.127,80,1.3176,1.1055,-32.5499,-22.2624,29,0.097,7916,3.9721,-117.3346
lg,1625794484025433853,0,0.5264,-0.3401,0.7278,629,12.146,22.583,3.7231,80,1.3176,1.1045,-31.6808,-21.7543,29,0.096,7937,3.9721,-117.5179
lg,1625794484025475224,0,0.5146,-0.3333,0.7271,630,11.3525,19.5923,3.418,80,1.3176,1.1045,-31.019,-21.4089,29,0.096,7977,3.9721,-117.5951
lg,1625794484025515075,0,0.5149,-0.3525,0.7542,631,10.0708,14.6484,3.1128,80,1.3166,1.1045,-30.503,-21.0327,29,0.096,8399,3.9721,-117.6725
lg,1625794484025556224,0,0.5129,-0.3447,0.7617,632,10.1318,12.2681,2.8076,80,1.3156,1.1045,-30.041,-20.7112,29,0.096,8011,3.9721,-117.6913
lg,1625794484025596446,0,0.4993,-0.3652,0.749,633,9.2163,8.3008,2.0752,80,1.3166,1.1045,-29.7337,-20.5217,29,0.096,8051,3.9721,-117.6359
lg,1625794484025639538,0,0.4995,-0.3391,0.7617,634,8.606,6.3477,1.4648,80,1.3166,1.1045,-29.6312,-20.3497,28,0.097,8011,3.9721,-117.5853
lg,1625794484025681335,0,0.5122,-0.3511,0.7632,635,6.0425,0.9155,0.6714,80,1.3156,1.1045,-29.6513,-20.279,28,0.096,8137,3.9721,-117.4897
lg,1625794484025722390,0,0.5151,-0.3765,0.772,636,5.9204,-1.5869,0.6714,80,1.3166,1.1045,-29.7494,-20.287,28,0.096,7992,3.9721,-117.3269
lg,1625794484025793131,0,0.5322,-0.3606,0.7756,637,4.8828,-2.3804,0.5493,80,1.3166,1.1045,-29.9474,-20.2823,28,0.095,8067,3.9721,-117.1852
lg,1625794484025837557,0,0.5364,-0.3621,0.7812,638,3.9673,-4.2114,0.6104,80,1.3146,1.1045,-30.169,-20.343,29,0.095,8095,3.9721,-117.0044
lg,1625794484025878687,0,0.5576,-0.3816,0.7783,639,3.7842,-3.54,1.2817,80,1.3176,1.1045,-30.3819,-20.4655,29,0.096,8331,3.9721,-116.7814
lg,1625794484025918927,0,0.5579,-0.3889,0.7751,640,3.9062,-2.2583,1.3428,80,1.3166,1.1025,-30.4899,-20.5692,29,0.096,8249,3.9721,-116.5948
lg,1625794484370377020,0,0.5613,-0.3821,0.7617,641,4.3335,-1.0986,0.4883,80,1.3156,1.1005,-30.6349,-20.643,29,0.094,26179,3.9721,-116.4394
lg,1625794484370479983,0,0.5437,-0.3943,0.769,642,3.418,-2.6245,-0.5493,80,1.3156,1.1045,-30.799,-20.7635,29,0.094,13200,3.9721,-116.2929
lg,1625794484370534520,0,0.5776,-0.3794,0.7898,643,2.6245,-4.5166,-0.3052,80,1.3156,1.1035,-31.0692,-20.8729,29,0.094,10095,3.9721,-116.1367
lg,1625794484370586446,0,0.5823,-0.3904,0.7678,644,0.7935,-4.1504,-0.4272,80,1.3156,1.1035,-31.3185,-21.1175,28,0.094,7645,3.9721,-115.9552
lg,1625794484370636001,0,0.5933,-0.3921,0.7834,645,1.1597,-4.2725,0.3662,80,1.3146,1.1035,-31.5776,-21.3213,28,0.093,7601,3.9721,-115.7593
lg,1625794484370683872,0,0.6221,-0.3965,0.7974,646,1.4038,-0.8545,1.3428,80,1.3146,1.1035,-31.7178,-21.4927,28,0.094,7672,3.9721,-115.5859
lg,1625794484370858742,0,0.6079,-0.3945,0.7839,647,2.3193,2.0142,2.2583,80,1.3146,1.1035,-31.7238,-21.6273,29,0.093,7670,3.9721,-115.4193
lg,1625794484370924186,0,0.5979,-0.4006,0.7751,648,2.8076,7.1411,2.0142,80,1.3136,1.1035,-31.4502,-21.6843,29,0.093,11693,3.9721,-115.3388
lg,1625794484370973538,0,0.6006,-0.3992,0.7822,649,3.6011,10.6201,2.5024,80,1.3136,1.1035,-31.159,-21.6916,29,0.095,9658,3.9721,-115.3322
lg,1625794484371019742,0,0.636,-0.3987,0.7837,650,3.7231,13.0005,3.0518,80,1.3126,1.1035,-30.8154,-21.6866,29,0.094,7790,3.9721,-115.3256
lg,1625794484371066760,0,0.5908,-0.4053,0.7979,651,6.5918,26.3672,4.2725,80,1.3126,1.1035,-29.8764,-21.4837,29,0.093,7760,3.9721,-115.493
lg,1625794484371196316,0,0.5725,-0.3806,0.7852,652,8.4839,30.8838,5.4932,80,1.3116,1.1035,-28.7806,-21.1677,29,0.092,7800,3.9721,-115.6959
lg,1625794484371249001,0,0.5266,-0.3772,0.7849,653,9.0332,32.5317,6.2256,80,1.3106,1.1035,-27.5721,-20.8486,29,0.093,8810,3.9721,-115.8831
lg,1625794484371297872,0,0.5186,-0.3628,0.791,654,8.7891,30.7617,5.5542,80,1.3096,1.1035,-26.4699,-20.5208,29,0.093,8486,3.9721,-116.0755
lg,1625794484371346297,0,0.5059,-0.3696,0.7961,655,8.9722,31.25,4.5776,80,1.3096,1.1025,-25.3518,-20.1297,29,0.092,7935,3.9721,-116.2725
lg,1625794484371394297,0,0.4646,-0.356,0.8125,656,11.0474,31.9214,5.188,80,1.3086,1.1035,-24.1718,-19.7088,29,0.092,7932,3.9721,-116.4827
lg,1625794484371440149,0,0.4355,-0.3369,0.8142,657,10.9863,32.5928,5.3101,80,1.3096,1.1035,-22.9563,-19.2698,29,0.091,7940,3.9721,-116.6991
lg,1625794484371484390,0,0.4153,-0.3408,0.8201,658,10.9863,30.6396,5.3101,80,1.3086,1.1035,-21.7791,-18.8629,29,0.091,8005,3.9721,-116.8722
lg,1625794484371533001,0,0.3967,-0.3335,0.8308,659,9.5215,23.1323,4.3335,80,1.3086,1.1025,-20.9209,-18.5343,28,0.091,8705,3.9721,-116.9775
lg,1625794484371581723,0,0.3889,-0.3413,0.8479,660,9.0942,14.3433,3.3569,80,1.3076,1.1025,-20.4164,-18.2781,28,0.09,8023,3.9721,-116.9902
lg,1625794484371625575,0,0.4126,-0.3406,0.8298,661,7.8735,9.1553,1.709,80,1.3076,1.1035,-20.2142,-18.0953,28,0.091,8087,3.9721,-116.9911
lg,1625794484371671705,0,0.4094,-0.3438,0.811,662,6.6528,7.019,1.2207,80,1.3076,1.1035,-20.1068,-17.9873,28,0.091,8181,3.9721,-116.9749
lg,1625794484371716149,0,0.3904,-0.3435,0.8186,663,4.8828,3.1128,-0.3052,80,1.3056,1.1005,-20.1332,-17.9533,28,0.091,8299,3.9721,-116.9664
lg,1625794484371763149,0,0.4031,-0.3591,0.8074,664,4.0894,-1.8311,-1.0376,80,1.3076,1.1035,-20.3871,-18.0099,28,0.091,8042,3.9721,-116.9059
lg,1625794484371807668,0,0.3826,-0.3669,0.8083,665,3.9062,-4.9438,-1.5259,80,1.3066,1.1035,-20.7247,-18.0912,28,0.091,8127,3.9721,-116.8192
lg,1625794484371854649,0,0.3984,-0.3611,0.811,666,1.5869,-13.0005,-1.8921,80,1.3046,1.0995,-21.3745,-18.2859,28,0.091,8203,3.9721,-116.6418
lg,1625794484371959872,0,0.4272,-0.3914,0.8279,667,0.4272,-21.5454,-2.6855,80,1.3066,1.1025,-22.3659,-18.6029,29,0.092,8219,3.9721,-116.3587
lg,1625794484372013427,0,0.4495,-0.3989,0.8386,668,-0.3662,-23.6206,-2.9907,80,1.3066,1.1025,-23.5253,-18.9889,29,0.092,8154,3.9721,-116.0189
lg,1625794484372061779,0,0.4924,-0.4043,0.8442,669,-0.4272,-25.3296,-2.9907,80,1.3046,1.1035,-24.6829,-19.3521,29,0.092,8178,3.9721,-115.6765
lg,1625794484372141760,0,0.5166,-0.406,0.8528,670,0.6714,-25.2686,-3.9062,80,1.3056,1.1025,-25.8392,-19.644,29,0.093,8251,3.9721,-115.368
lg,1625794484372187372,0,0.5435,-0.4067,0.842,671,1.0986,-23.4375,-3.7842,80,1.3056,1.0995,-26.9178,-19.8896,29,0.092,8327,3.9721,-115.0584
lg,1625794484372230612,0,0.5554,-0.4155,0.8433,672,1.8311,-21.0571,-2.1973,80,1.3036,1.1025,-27.878,-20.161,29,0.092,8307,3.9721,-114.7163
lg,1625794484714801964,0,0.6023,-0.4163,0.8396,673,5.9204,-8.728,1.5259,80,1.3046,1.0995,-28.3724,-20.2487,29,0.092,25663,3.9721,-114.4061
lg,1625794484714838464,0,0.5952,-0.4155,0.8267,674,7.3853,0.3052,2.3193,80,1.3046,1.1035,-28.308,-20.1364,29,0.092,13189,3.9721,-114.2198
lg,1625794484714859168,0,0.5679,-0.4192,0.8491,675,9.7046,7.3853,4.1504,80,1.3046,1.1025,-28.1051,-20.0091,29,0.091,9824,3.9721,-114.0484
lg,1625794484714879038,0,0.5364,-0.4062,0.8276,676,11.5356,11.1694,4.7607,80,1.3046,1.1035,-27.7026,-19.7951,29,0.092,8001,3.9721,-113.9087
lg,1625794484714898334,0,0.5239,-0.4011,0.8325,677,12.8174,11.8408,5.0659,80,1.3036,1.1035,-27.2613,-19.5248,29,0.092,9442,3.9721,-113.7689
lg,1625794484714916501,0,0.5098,-0.408,0.833,678,12.8784,14.2212,5.3711,80,1.3046,1.1035,-26.7154,-19.2681,29,0.091,7731,3.9721,-113.639
lg,1625794484714933890,0,0.4988,-0.4219,0.8196,679,12.3291,14.7095,5.4321,80,1.3036,1.1035,-26.1599,-19.0862,29,0.092,7770,3.9721,-113.4888
lg,1625794484714950816,0,0.4863,-0.3889,0.812,680,12.0239,13.9771,5.3101,80,1.3026,1.1025,-25.651,-18.8621,29,0.092,7986,3.9721,-113.3592
lg,1625794484714969464,0,0.4792,-0.3845,0.8191,681,12.6343,12.3291,5.7373,80,1.3026,1.1025,-25.2308,-18.6667,29,0.093,7762,3.9721,-113.1825
lg,1625794484714987019,0,0.4587,-0.4055,0.8267,682,10.5591,10.1318,5.3101,80,1.3026,1.1025,-24.8309,-18.5652,29,0.093,7746,3.9721,-112.9807
lg,1625794484715004056,0,0.457,-0.4163,0.8191,683,9.7046,6.3477,4.1504,80,1.3036,1.1035,-24.6048,-18.5341,29,0.093,7920,3.9721,-112.7608
lg,1625794484715042890,0,0.4827,-0.4146,0.8445,684,9.3384,3.6621,3.479,80,1.3036,1.1025,-24.5709,-18.4865,29,0.093,7783,3.9721,-112.5472
lg,1625794484715061242,0,0.5334,-0.416,0.8674,685,11.0474,5.0659,4.0894,80,1.3036,1.1025,-24.5033,-18.3535,29,0.093,7792,3.9721,-112.336
lg,1625794484715078723,0,0.5015,-0.4119,0.8491,686,15.2588,14.2822,5.7373,80,1.3026,1.1025,-24.0299,-18.0457,29,0.093,7825,3.9721,-112.1754
lg,1625794484715095686,0,0.4895,-0.3938,0.8511,687,14.9536,14.8315,5.0659,80,1.3006,1.1015,-23.5449,-17.7089,29,0.093,7808,3.9721,-112.0603
lg,1625794484715112445,0,0.4883,-0.4221,0.8506,688,14.9536,12.8784,5.4321,80,1.3026,1.1025,-23.1386,-17.462,29,0.092,7874,3.9721,-111.8734
lg,1625794484715128797,0,0.5183,-0.4187,0.8474,689,14.3433,13.1226,5.3101,80,1.3026,1.1025,-22.7752,-17.1919,29,0.093,7942,3.9721,-111.7285
lg,1625794484715144797,0,0.5127,-0.418,0.8679,690,15.8081,15.8081,4.9438,80,1.2996,1.1025,-22.3255,-16.8799,29,0.092,7957,3.9721,-111.6021
lg,1625794484715161223,0,0.5144,-0.4021,0.8674,691,17.4561,19.104,5.0659,80,1.3016,1.1025,-21.7756,-16.4687,29,0.093,7956,3.9721,-111.518
lg,1625794484715178223,0,0.5095,-0.3894,0.8555,692,18.3716,21.1182,5.3711,80,1.3016,1.1025,-21.1061,-16.0033,29,0.093,7963,3.9721,-111.4638
lg,1625794484715194594,0,0.4548,-0.3635,0.8315,693,17.5781,22.0947,4.3945,80,1.2986,1.1025,-20.4302,-15.5579,29,0.092,8114,3.9721,-111.4392
lg,1625794484715211223,0,0.4333,-0.377,0.8284,694,17.2729,15.9302,3.2959,80,1.3006,1.1025,-19.9856,-15.1873,29,0.093,7981,3.9721,-111.3677
lg,1625794484715227408,0,0.4231,-0.3748,0.8372,695,15.686,13.4277,2.8076,80,1.2996,1.1035,-19.6115,-14.8723,29,0.093,8030,3.9754,-111.2906
lg,1625794484715244149,0,0.4463,-0.3494,0.8076,696,15.0757,6.7139,1.1597,80,1.2996,1.1025,-19.6306,-14.5766,29,0.092,12679,3.9754,-111.2104
lg,1625794484715260908,0,0.4521,-0.3125,0.7996,697,10.376,8.8501,-0.4883,80,1.2996,1.1025,-19.6145,-14.3714,29,0.093,8867,3.9754,-111.2418
lg,1625794484715276927,0,0.4287,-0.3191,0.7944,698,9.1553,7.5073,-1.0376,80,1.2986,1.1025,-19.6112,-14.2429,29,0.094,8115,3.9754,-111.2701
lg,1625794484715305186,0,0.4377,-0.2876,0.7993,699,4.2725,7.4463,-2.0752,80,1.2976,1.1025,-19.6437,-14.2207,29,0.093,8217,3.9754,-111.3651
lg,1625794484715323038,0,0.459,-0.259,0.7964,700,-2.5635,15.2588,0.3052,80,1.2966,1.1025,-19.4056,-14.4095,29,0.093,8159,3.9754,-111.4668
lg,1625794484715339297,0,0.4109,-0.2571,0.8086,701,-6.0425,23.1934,2.6855,80,1.2946,1.1015,-18.3957,-14.8539,29,0.093,9065,3.9754,-111.5688
lg,1625794484715367223,0,0.3501,-0.2783,0.834,702,-11.9629,39.917,6.6528,80,1.2916,1.1005,-16.9185,-15.4149,29,0.092,8190,3.9754,-111.6947
lg,1625794484715384871,0,0.2366,-0.355,0.9028,703,-16.8457,36.6821,4.2725,80,1.2906,1.1025,-15.3376,-16.2551,29,0.09,8256,3.9754,-111.873
lg,1625794484715402371,0,0.2002,-0.4102,0.9651,704,-18.4326,12.146,-3.2349,80,1.2896,1.1025,-14.7317,-17.1864,29,0.09,8257,3.9754,-112.0764
lg,1625794485066071760,0,0.3298,-0.3857,0.844,705,-9.3384,-8.667,-19.7144,80,1.2816,1.1025,-15.4884,-17.663,29,0.088,24641,3.9754,-112.6754
lg,1625794485066184927,0,0.2195,-0.3135,0.7976,706,-9.2773,-12.0239,-29.9683,80,1.2846,1.1045,-16.2631,-17.8962,29,0.09,12708,3.9754,-113.6693
lg,1625794485066240056,0,0.2339,-0.2952,0.8433,707,-15.1978,-33.8745,-34.9121,80,1.2826,1.1045,-17.9119,-18.2741,29,0.09,7842,3.9754,-114.602
lg,1625794485066294667,0,0.2607,-0.2749,0.8391,708,-19.4092,-42.8467,-36.7432,80,1.2816,1.1055,-19.934,-18.7459,29,0.09,7704,3.9754,-115.5013
lg,1625794485066346130,0,0.2959,-0.2939,0.8259,709,-33.1421,-54.9927,-37.6587,80,1.2786,1.1055,-22.4419,-19.8258,29,0.089,7754,3.9754,-116.2345
lg,1625794485066395871,0,0.3511,-0.3496,0.8357,710,-41.1377,-62.439,-36.7432,80,1.2756,1.1055,-25.4765,-21.6413,29,0.089,7762,3.9754,-116.5112
lg,1625794485066447667,0,0.4324,-0.3755,0.8367,711,-50.415,-74.4629,-28.8086,80,1.2716,1.1065,-28.6381,-23.7903,29,0.088,7781,3.9754,-116.3669
lg,1625794485066491964,0,0.5681,-0.4429,0.7983,712,-54.5044,-77.4536,-27.771,80,1.2666,1.1055,-32.021,-26.3398,29,0.087,8017,3.9754,-115.9074
lg,1625794485066537130,0,0.5933,-0.491,0.8159,713,-50.415,-68.7866,-31.6772,80,1.2606,1.1065,-35.0199,-28.6266,29,0.088,7858,3.9754,-115.6289
lg,1625794485066580538,0,0.575,-0.5156,0.8162,714,-44.6777,-58.4106,-30.6396,80,1.2536,1.1065,-37.4989,-30.6619,29,0.087,7830,3.9754,-115.4026
lg,1625794485066626630,0,0.5403,-0.5259,0.7725,715,-30.7617,-42.6636,-32.2876,80,1.2426,1.1055,-39.2814,-31.8785,29,0.085,9902,3.9754,-115.5773
lg,1625794485066668112,0,0.4739,-0.5105,0.7478,716,-19.8364,-39.4287,-32.4707,80,1.2336,1.1055,-40.8301,-32.5509,29,0.085,7886,3.9754,-115.8474
lg,1625794485066709741,0,0.467,-0.4885,0.7476,717,-12.8784,-44.1284,-27.3438,80,1.2266,1.1055,-42.3656,-33.1137,29,0.085,7869,3.9754,-115.781
lg,1625794485066929241,0,0.4949,-0.4998,0.7603,718,-8.9722,-55.1758,-24.292,80,1.2216,1.1045,-44.1742,-33.8507,29,0.085,12014,3.9754,-115.2175
lg,1625794485066992501,0,0.5454,-0.5093,0.7678,719,-2.6245,-56.7017,-18.4326,80,1.2186,1.1035,-45.905,-34.5943,29,0.086,7977,3.9754,-114.2866
lg,1625794485067112260,0,0.5493,-0.4902,0.7615,720,0.7324,-57.6782,-18.5547,80,1.2176,1.1025,-47.6191,-35.2182,29,0.085,7978,3.9754,-113.3137
lg,1625794485067167982,0,0.6047,-0.4849,0.7546,721,9.8877,-55.542,-16.2964,80,1.2186,1.1015,-49.2446,-35.5396,29,0.085,7951,3.9754,-112.2663
lg,1625794485067218649,0,0.6279,-0.4729,0.7471,722,14.0991,-56.0303,-14.2822,80,1.2196,1.1005,-50.8257,-35.8109,29,0.084,8019,3.9754,-111.074
lg,1625794485067266204,0,0.6643,-0.4841,0.7739,723,14.7705,-57.9834,-14.3433,80,1.2226,1.0995,-52.4534,-36.1177,28,0.084,9071,3.9754,-109.7393
lg,1625794485067310093,0,0.7073,-0.4622,0.7817,724,18.8599,-53.894,-11.2305,80,1.2266,1.0995,-53.8624,-36.2833,28,0.084,8043,3.9754,-108.4456
lg,1625794485067353890,0,0.7236,-0.4653,0.7717,725,23.1323,-40.4663,-11.3525,80,1.2326,1.1005,-54.8234,-35.8954,28,0.086,8047,3.9754,-107.6589
lg,1625794485067396667,0,0.6621,-0.4343,0.7744,726,26.8555,-30.2124,-11.5356,80,1.2366,1.1015,-54.9541,-34.4367,28,0.085,8076,3.9754,-107.7393
lg,1625794485067440464,0,0.5811,-0.4006,0.78,727,34.8511,-9.9487,-7.1411,83,1.2376,1.0995,-54.6092,-32.6116,29,0.084,8140,3.9754,-108.1031
lg,1625794485067609371,0,0.5137,-0.3723,0.7422,728,33.02,-15.0757,-5.188,83,1.2436,1.1005,-54.3407,-31.1534,29,0.084,8088,3.9754,-108.1318
lg,1625794485067656260,0,0.6028,-0.373,0.7505,729,26.6724,-31.7383,-3.7231,83,1.2456,1.0995,-54.763,-30.5599,29,0.085,8173,3.9754,-107.4386
lg,1625794485067700260,0,0.636,-0.3762,0.7747,730,25.3296,-35.0342,-2.1973,83,1.2486,1.0985,-55.2819,-30.1913,29,0.085,8182,3.9754,-106.5431
lg,1625794485067746612,0,0.6807,-0.4014,0.7869,731,24.9023,-32.1655,-0.061,83,1.2516,1.0975,-55.6849,-29.9526,29,0.084,8214,3.9754,-105.551
lg,1625794485067836630,0,0.6689,-0.4023,0.7654,732,26.6724,-23.2544,1.6479,83,1.2556,1.0965,-55.7397,-29.5226,29,0.084,8181,3.9754,-104.7308
lg,1625794485067884260,0,0.6609,-0.3835,0.7556,733,29.1138,-19.9585,2.3804,83,1.2576,1.0965,-55.4957,-28.7829,29,0.084,8224,3.9754,-104.0701
lg,1625794485067928816,0,0.6042,-0.3772,0.7412,734,32.5317,-13.916,3.0518,83,1.2616,1.0965,-55.0928,-27.919,29,0.085,8573,3.9754,-103.4991
lg,1625794485067999927,0,0.5933,-0.3738,0.7373,735,35.9497,-15.4419,3.54,83,1.2626,1.0955,-54.8041,-27.0153,29,0.084,8354,3.9754,-102.8258
lg,1625794485068061279,0,0.6331,-0.3755,0.7341,736,37.2314,-20.5078,2.3193,83,1.2676,1.0965,-54.8017,-26.1749,29,0.085,8297,3.9754,-102.0347
lg,1625794485414661278,0,0.6521,-0.3496,0.7434,737,48.7671,-6.958,-1.2207,83,1.2766,1.0995,-54.4198,-24.2909,29,0.084,26073,3.9754,-101.9395
lg,1625794485414741315,0,0.5862,-0.3237,0.7563,738,51.7578,-0.1831,-2.0752,83,1.2796,1.1005,-53.6652,-22.0259,29,0.084,10506,3.9754,-102.1426
lg,1625794485414792352,0,0.5657,-0.2827,0.7656,739,52.7344,-1.6479,-2.5024,83,1.2816,1.1005,-53.0148,-19.7483,29,0.082,7656,3.9754,-102.3214
lg,1625794485414841649,0,0.5488,-0.2715,0.7639,740,50.354,-5.9814,-2.0142,83,1.2826,1.1015,-52.5189,-17.745,29,0.082,9997,3.9754,-102.313
lg,1625794485414887167,0,0.6047,-0.2615,0.772,741,43.457,-9.8267,1.4038,83,1.2846,1.1015,-52.2402,-16.2896,29,0.081,7671,3.9754,-101.9865
lg,1625794485414933519,0,0.6277,-0.2581,0.7935,742,38.6963,-9.8267,2.8687,83,1.2866,1.1015,-51.9789,-15.1233,29,0.082,8602,3.9754,-101.5523
lg,1625794485414980334,0,0.637,-0.2539,0.8101,743,32.5317,-7.5684,3.8452,83,1.2886,1.1025,-51.6282,-14.2336,29,0.082,7925,3.9754,-101.0893
lg,1625794485415071852,0,0.6113,-0.2378,0.8213,744,26.7334,-0.8545,4.1504,83,1.2896,1.1025,-50.9825,-13.4806,29,0.084,7766,3.9754,-100.7366
lg,1625794485415129889,0,0.5415,-0.2219,0.7734,745,24.1089,0.9766,3.2959,83,1.2896,1.1025,-50.282,-12.9296,29,0.083,9278,3.9754,-100.4042
lg,1625794485415180945,0,0.5574,-0.2246,0.7681,746,17.334,-3.479,4.3335,83,1.2896,1.1035,-49.7663,-12.6464,29,0.084,7753,3.9754,-99.9605
lg,1625794485415227204,0,0.5879,-0.2546,0.7825,747,10.5591,-8.2397,2.9297,83,1.2926,1.1045,-49.4964,-12.7091,29,0.085,7853,3.9754,-99.4682
lg,1625794485415274130,0,0.5764,-0.2329,0.7856,748,8.4839,-10.6201,2.0752,83,1.2926,1.1045,-49.288,-12.8512,29,0.085,7887,3.9754,-99.084
lg,1625794485415316630,0,0.5488,-0.2793,0.7766,749,4.3945,-14.0381,0.6104,83,1.2926,1.1015,-49.2113,-13.1941,29,0.085,7918,3.9754,-98.5904
lg,1625794485415361389,0,0.6174,-0.3176,0.7866,750,2.5024,-18.6157,-0.6714,83,1.2936,1.1045,-49.4221,-13.69,29,0.087,7836,3.9754,-98.0397
lg,1625794485415405982,0,0.6375,-0.3325,0.7922,751,2.2583,-15.2588,-0.6104,83,1.2946,1.1035,-49.5491,-14.1412,29,0.086,7877,3.9754,-97.5452
lg,1625794485415733223,0,0.5938,-0.3142,0.7766,752,5.7373,-8.9722,-1.2207,83,1.2946,1.1055,-49.3495,-14.3461,29,0.086,9849,3.9754,-97.1857
lg,1625794485415801075,0,0.5906,-0.2996,0.7817,753,6.4697,-11.2915,-1.6479,83,1.2946,1.1055,-49.2423,-14.4677,29,0.086,8163,3.9754,-96.8633
lg,1625794485415847038,0,0.6023,-0.3188,0.7788,754,7.6904,-12.3291,-1.8921,83,1.2966,1.1065,-49.1996,-14.5985,29,0.086,8014,3.9754,-96.4957
lg,1625794485415893149,0,0.5852,-0.3044,0.7786,755,7.3242,-11.4136,-2.0142,83,1.2966,1.1035,-49.1089,-14.6684,29,0.086,8041,3.9754,-96.1945
lg,1625794485415937501,0,0.5854,-0.2952,0.782,756,6.4697,-12.6953,-2.8687,83,1.2946,1.1075,-49.0681,-14.7236,29,0.087,8067,3.9754,-95.9433
lg,1625794485415982538,0,0.6133,-0.3037,0.7808,757,4.8828,-15.686,-4.0283,83,1.2976,1.1075,-49.2022,-14.8473,29,0.087,8073,3.9754,-95.6969
lg,1625794485416024797,0,0.6191,-0.3103,0.7871,758,4.3335,-15.8081,-3.6011,83,1.2986,1.1075,-49.386,-14.9886,29,0.087,8074,3.9754,-95.4407
lg,1625794485416149778,0,0.6599,-0.311,0.792,759,3.8452,-14.0991,-3.8452,83,1.2966,1.1065,-49.5056,-15.1377,29,0.087,8085,3.9754,-95.2095
lg,1625794485416206278,0,0.6597,-0.3037,0.7729,760,4.0894,-9.7656,-4.7607,83,1.2986,1.1085,-49.4896,-15.1749,29,0.088,8153,3.9754,-95.1079
lg,1625794485416250556,0,0.6406,-0.3105,0.7708,761,3.418,-7.9346,-5.0659,83,1.2996,1.1095,-49.3691,-15.1435,29,0.088,8130,3.9754,-95.1366
lg,1625794485416482815,0,0.6353,-0.3013,0.7791,762,3.2349,-6.5918,-6.7749,83,1.2986,1.1105,-49.2107,-15.0747,29,0.087,8193,3.9754,-95.2145
lg,1625794485416529982,0,0.6384,-0.3181,0.7634,763,2.6245,-6.3477,-8.4839,83,1.2996,1.1085,-49.0867,-15.0228,29,0.087,8198,3.9754,-95.3433
lg,1625794485416573001,0,0.5964,-0.314,0.7766,764,1.709,-7.2632,-9.6436,83,1.3006,1.1105,-48.928,-14.95,29,0.088,8228,3.9754,-95.5395
lg,1625794485416621056,0,0.5989,-0.3191,0.7686,765,2.1973,-9.3384,-10.376,83,1.2996,1.1095,-48.8751,-14.8781,29,0.088,8181,3.9754,-95.7255
lg,1625794485416665889,0,0.605,-0.3042,0.7649,766,0.9155,-11.3525,-10.9253,83,1.3016,1.1115,-48.9263,-14.8151,29,0.088,8225,3.9754,-95.9445
lg,1625794485417019760,0,0.6157,-0.3025,0.7498,767,-0.5493,-13.9771,-12.8174,83,1.3016,1.1115,-49.1338,-14.7677,29,0.088,8230,3.9754,-96.2261
lg,1625794485417107612,0,0.6169,-0.3188,0.7668,768,-1.8921,-15.9302,-13.6108,83,1.3026,1.1125,-49.3915,-14.7939,29,0.089,8238,3.9754,-96.4986
lg,1625794485777097111,0,0.6482,-0.3186,0.7517,769,-1.8311,-22.3389,-19.165,83,1.3016,1.1125,-50.0129,-14.6452,29,0.089,25252,3.9754,-96.9985
lg,1625794485777245537,0,0.6565,-0.3203,0.7715,770,2.6245,-13.9771,-19.043,83,1.3026,1.1135,-50.2737,-14.2023,29,0.089,17075,3.9754,-97.6396
lg,1625794485777298926,0,0.6077,-0.3113,0.7332,771,3.9673,-12.146,-17.7612,83,1.3036,1.1135,-50.4096,-13.7826,29,0.089,7655,3.9754,-98.2034
lg,1625794485777348074,0,0.6021,-0.2932,0.772,772,3.9062,-13.9771,-17.5781,83,1.3036,1.1135,-50.5798,-13.335,29,0.089,7692,3.9754,-98.7777
lg,1625794485777428908,0,0.6191,-0.2827,0.7439,773,3.3569,-17.395,-15.3809,83,1.3036,1.1145,-50.8924,-13.0263,29,0.089,7910,3.9754,-99.1895
lg,1625794485777477297,0,0.5999,-0.2791,0.7458,774,1.8921,-21.6675,-14.5874,83,1.3036,1.1135,-51.3151,-12.858,29,0.09,7779,3.9754,-99.4946
lg,1625794485777521167,0,0.6501,-0.2791,0.71,775,1.77,-23.2544,-13.4888,83,1.3026,1.1135,-52.0566,-12.8571,29,0.089,7927,3.9754,-99.6328
lg,1625794485777565630,0,0.7043,-0.3047,0.6934,776,-0.1831,-31.311,-14.4653,83,1.3026,1.1145,-53.0438,-13.0039,29,0.09,7794,3.9754,-99.6921
lg,1625794485777610648,0,0.7031,-0.3706,0.8801,777,-5.0659,-33.9966,-20.0195,83,1.3046,1.1145,-53.8936,-13.0843,29,0.09,7793,3.9754,-100.0691
lg,1625794485777657685,0,0.7007,-0.3635,0.7998,778,2.5024,-19.5312,-14.4043,83,1.3036,1.1145,-54.297,-12.892,29,0.09,7803,3.9754,-100.3679
lg,1625794485777708704,0,0.6555,-0.2659,0.7705,779,9.6436,-4.8828,-11.7798,83,1.3036,1.1125,-53.978,-12.2525,29,0.089,8002,3.9754,-100.8168
lg,1625794485777756426,0,0.6494,-0.2183,0.7253,780,7.3242,-9.8877,-13.916,83,1.3056,1.1145,-53.943,-11.5515,29,0.09,8003,3.9754,-101.4188
lg,1625794485777807167,0,0.6392,-0.2617,0.71,781,3.6621,-14.2822,-13.7939,83,1.3046,1.1155,-54.1641,-11.151,29,0.09,7912,3.9754,-101.8748
lg,1625794485777855223,0,0.6719,-0.2876,0.7476,782,1.4038,-16.6016,-13.7939,83,1.3036,1.1155,-54.3671,-11.0276,29,0.09,7870,3.9754,-102.1684
lg,1625794485777900741,0,0.8137,-0.2205,0.6379,783,-0.3052,-26.2451,-20.6909,83,1.3056,1.1155,-55.3778,-10.5089,29,0.09,8252,3.9754,-102.9578
lg,1625794485777948852,0,0.7058,-0.3606,0.9365,784,-4.5166,-23.4375,-22.2168,83,1.3066,1.1115,-55.7568,-10.4386,29,0.089,7876,3.9754,-103.5591
lg,1625794485778003334,0,0.6287,-0.3186,0.7854,785,13.855,17.2119,-7.9346,83,1.3056,1.1155,-54.4161,-9.9094,29,0.09,7935,3.9754,-103.782
lg,1625794485778051574,0,0.5471,-0.179,0.7109,786,13.1836,11.1084,-9.4604,83,1.3066,1.1155,-53.3472,-9.0025,29,0.09,7978,3.9754,-104.3512
lg,1625794485778096648,0,0.5515,-0.2302,0.678,787,5.249,-8.5449,-8.1787,83,1.3066,1.1155,-53.1249,-8.9391,29,0.09,12431,3.9754,-104.3923
lg,1625794485778141334,0,0.645,-0.2351,0.7268,788,-0.3052,-25.6958,-10.9863,83,1.3076,1.1165,-53.6944,-9.0328,28,0.09,7998,3.9754,-104.4877
lg,1625794485778187815,0,0.677,-0.2969,0.7114,789,-1.2207,-27.4658,-12.8784,83,1.3076,1.1165,-55.0929,-8.8766,28,0.091,8254,3.9754,-105.1271
lg,1625794485778232185,0,0.6943,-0.3892,0.9529,790,-4.5166,-26.001,-19.043,83,1.3076,1.1165,-54.4724,-8.7531,28,0.09,9813,3.9754,-105.1945
lg,1625794485778281593,0,0.5962,-0.2683,0.7542,791,17.4561,15.686,-5.0659,83,1.3086,1.1165,-53.2104,-8.2382,29,0.09,8062,3.9754,-105.2148
lg,1625794485778334371,0,0.5464,-0.1899,0.6963,792,11.9629,0.3052,-11.2305,83,1.3076,1.1165,-52.6304,-7.5393,29,0.09,8326,3.9754,-105.6581
lg,1625794485778383834,0,0.5693,-0.2354,0.7361,793,6.4087,-18.1885,-12.8174,83,1.3076,1.1165,-52.7878,-7.2721,29,0.09,8159,3.9754,-105.9157
lg,1625794485778436797,0,0.6038,-0.2363,0.7126,794,5.127,-20.3857,-12.5122,83,1.3086,1.1155,-53.1175,-7.1072,29,0.091,8150,3.9754,-106.1193
lg,1625794485778488241,0,0.6245,-0.2385,0.7219,795,3.54,-25.3296,-13.4888,83,1.3076,1.1165,-53.6556,-6.9803,29,0.091,8197,3.9754,-106.351
lg,1625794485778921019,0,0.6738,-0.2483,0.7324,796,3.6621,-25.9399,-14.0991,83,1.3096,1.1165,-54.2642,-6.8266,29,0.09,8217,3.9754,-106.6114
lg,1625794485779013519,0,0.6638,-0.2686,0.7417,797,4.2114,-25.2686,-13.6108,83,1.3086,1.1145,-55.0353,-6.5438,29,0.09,8247,3.9754,-106.9957
lg,1625794485779062982,0,0.73,-0.2495,0.8047,798,2.5635,-30.2124,-18.7378,83,1.3076,1.1155,-55.7639,-6.1141,29,0.09,8275,3.9754,-107.6116
lg,1625794485779107704,0,0.6643,-0.2673,0.7886,799,9.3384,-9.5825,-13.2446,83,1.3096,1.1165,-55.5487,-5.7173,29,0.089,8321,3.9754,-107.9026
lg,1625794485779159630,0,0.6357,-0.1956,0.7205,800,9.8877,-5.4321,-11.2305,83,1.3106,1.1165,-55.2209,-5.207,29,0.09,8274,3.9754,-108.2372
lg,1625794486134010537,0,0.6809,-0.2192,0.7134,801,2.5024,-20.5078,-13.1836,83,1.3096,1.1135,-55.5882,-5.0584,29,0.09,25423,3.9754,-108.5319
lg,1625794486134112445,0,0.6858,-0.2053,0.7046,802,0.9766,-23.9868,-13.1836,83,1.3096,1.1175,-56.1,-4.9394,29,0.09,13516,3.9754,-108.8446
lg,1625794486134165259,0,0.6865,-0.2373,0.7002,803,-1.4038,-28.3203,-14.0381,83,1.3096,1.1175,-56.7715,-5.014,29,0.09,7831,3.9754,-109.0821
lg,1625794486134283408,0,0.677,-0.2256,0.6987,804,-2.0142,-28.7476,-13.4277,83,1.3096,1.1175,-57.4486,-5.1998,29,0.09,7701,3.9754,-109.2263
lg,1625794486134332685,0,0.7097,-0.249,0.7229,805,-2.1973,-29.9683,-13.5498,83,1.3096,1.1175,-58.1326,-5.3475,29,0.09,7667,3.9754,-109.4022
lg,1625794486134378963,0,0.7212,-0.2368,0.7292,806,-0.2441,-27.6489,-13.6108,83,1.3096,1.1175,-58.7077,-5.3319,29,0.09,7718,3.9754,-109.6516
lg,1625794486134425704,0,0.7415,-0.2192,0.6919,807,-0.2441,-26.2451,-13.7329,83,1.3096,1.1175,-59.4769,-5.0385,29,0.09,8082,3.9754,-110.1995
lg,1625794486134469648,0,0.7493,-0.2529,0.749,808,-2.3804,-32.1045,-19.7144,83,1.3096,1.1165,-60.1803,-4.8281,29,0.089,8024,3.9699,-110.8013
lg,1625794486134511796,0,0.7065,-0.2214,0.6853,809,5.9814,-12.5732,-15.9302,83,1.3106,1.1175,-60.1346,-4.2901,29,0.089,11975,3.9699,-111.3548
lg,1625794486134555870,0,0.7029,-0.2004,0.6826,810,4.3945,-15.1367,-17.0288,83,1.3096,1.1175,-60.191,-3.683,29,0.09,7639,3.9699,-112.0449
lg,1625794486134600889,0,0.6853,-0.1914,0.6709,811,1.5869,-20.0806,-18.7378,83,1.3106,1.1175,-60.4321,-3.0835,29,0.09,7674,3.9699,-112.857
lg,1625794486134695815,0,0.6433,-0.2061,0.6846,812,1.4648,-23.2544,-20.2637,83,1.3106,1.1175,-60.8625,-2.5506,29,0.09,7683,3.9699,-113.7139
lg,1625794486134747296,0,0.667,-0.1799,0.6689,813,-1.77,-32.2876,-21.3623,83,1.3096,1.1175,-61.5289,-1.8936,29,0.089,7740,3.9699,-114.7395
lg,1625794486134791537,0,0.6946,-0.2178,0.6858,814,-3.7842,-37.7808,-23.1323,83,1.3086,1.1165,-62.4019,-1.327,29,0.088,8047,3.9699,-115.7888
lg,1625794486134835352,0,0.7419,-0.2217,0.678,815,-4.6997,-38.6963,-22.9492,83,1.3086,1.1165,-63.3797,-0.7164,29,0.089,7786,3.9699,-116.9279
lg,1625794486134880259,0,0.738,-0.2358,0.6936,816,-4.5166,-39.7339,-24.7192,83,1.3086,1.1175,-64.3008,-0.0286,29,0.089,7770,3.9699,-118.1407
lg,1625794486134923482,0,0.7808,-0.2739,0.7649,817,-6.4697,-42.2974,-29.1138,83,1.3086,1.1175,-65.2388,0.92,29,0.089,7811,3.9699,-119.7383
lg,1625794486134969019,0,0.7983,-0.252,0.7205,818,-2.3193,-30.7007,-26.062,83,1.3096,1.1175,-65.7721,1.8666,29,0.089,7806,3.9699,-121.1307
lg,1625794486135015333,0,0.7,-0.1829,0.6467,819,2.1973,-16.5405,-24.0479,83,1.3086,1.1175,-65.6795,2.9831,29,0.089,7855,3.9699,-122.4752
lg,1625794486135062556,0,0.6853,-0.1973,0.646,820,-2.3804,-26.8555,-26.9165,83,1.3096,1.1175,-65.9603,4.0987,29,0.088,7876,3.9699,-124.049
lg,1625794486135107074,0,0.6973,-0.187,0.6357,821,-4.5776,-31.8604,-28.5034,83,1.3086,1.1175,-66.4389,5.3738,29,0.087,7913,3.9699,-125.8886
lg,1625794486135150093,0,0.7205,-0.1846,0.6455,822,-6.7749,-36.8652,-31.4331,83,1.3086,1.1175,-67.0795,6.9581,29,0.087,7939,3.9699,-128.1571
lg,1625794486135195074,0,0.7273,-0.189,0.6602,823,-7.0801,-37.4756,-34.1187,83,1.3086,1.1175,-67.6666,8.8359,29,0.086,7940,3.9699,-130.7609
lg,1625794486135239370,0,0.759,-0.1807,0.6436,824,-6.6528,-38.8794,-35.7666,83,1.3066,1.1165,-68.3037,11.0628,29,0.086,7957,3.9699,-133.715
lg,1625794486135283537,0,0.7954,-0.1941,0.6743,825,-8.5449,-42.4805,-38.7573,83,1.3096,1.1175,-68.9863,13.6498,29,0.086,8019,3.9699,-137.1446
lg,1625794486135328185,0,0.812,-0.2371,0.7358,826,-8.667,-40.7715,-41.5039,83,1.3086,1.1175,-69.451,16.3391,29,0.085,8069,3.9699,-140.7179
lg,1625794486135370537,0,0.8105,-0.2097,0.6648,827,-3.418,-31.25,-38.9404,83,1.3086,1.1165,-69.6067,18.8371,29,0.085,8373,3.9699,-143.849
lg,1625794486135414722,0,0.7522,-0.1221,0.5818,828,-2.3193,-25.0854,-36.9873,83,1.3076,1.1175,-69.5134,21.3454,29,0.083,8090,3.9699,-146.9006
lg,1625794486135519019,0,0.7659,-0.1421,0.5923,829,-9.6436,-33.1421,-36.5601,83,1.3086,1.1175,-69.6935,23.6564,29,0.084,8119,3.9699,-150.0872
lg,1625794486135578111,0,0.7717,-0.1648,0.6165,830,-10.1929,-33.9966,-32.8979,83,1.3076,1.1185,-69.908,25.4333,29,0.084,8188,3.9699,-152.7533
lg,1625794486135631037,0,0.7568,-0.1606,0.6396,831,-10.6201,-32.3486,-30.8838,83,1.3076,1.1155,-70.0113,26.8478,29,0.084,8196,3.9699,-155.0586
lg,1625794486135683593,0,0.8203,-0.155,0.6526,832,-12.2681,-33.5083,-27.5269,83,1.3066,1.1185,-70.2348,28.0435,29,0.083,8203,3.9699,-157.1905
lg,1625794486486761241,0,0.8459,-0.1626,0.6172,833,-8.2397,-19.043,-19.7144,83,1.3076,1.1145,-70.1792,27.8823,29,0.083,25901,3.9699,-157.6927
lg,1625794486486854130,0,0.8142,-0.1416,0.6172,834,-6.2866,-13.3667,-19.2871,83,1.3076,1.1185,-69.8878,27.5093,29,0.083,12968,3.9699,-157.8772
lg,1625794486486908667,0,0.7966,-0.1389,0.6013,835,-7.6904,-16.4185,-21.6064,83,1.3076,1.1185,-69.6746,27.4819,29,0.083,12128,3.9699,-158.4952
lg,1625794486486959185,0,0.8003,-0.1396,0.6255,836,-6.8359,-16.9067,-20.752,83,1.3076,1.1185,-69.4675,27.3921,29,0.081,7801,3.9699,-159.0182
lg,1625794486487006481,0,0.7871,-0.1394,0.6082,837,-5.0049,-13.3667,-18.1885,83,1.3076,1.1195,-69.2058,26.9534,29,0.082,7842,3.9699,-159.0912
lg,1625794486487051204,0,0.7961,-0.1355,0.6084,838,-5.3711,-13.9771,-17.5781,83,1.3076,1.1185,-69.0765,26.5994,29,0.082,7735,3.9699,-159.2822
lg,1625794486487095167,0,0.8225,-0.1384,0.6008,839,-6.1035,-17.395,-16.4795,83,1.3076,1.1185,-69.0466,26.2631,29,0.082,7781,3.9699,-159.5055
lg,1625794486487139259,0,0.8118,-0.1685,0.5999,840,-4.6997,-14.5264,-14.6484,89,1.3086,1.1185,-68.9687,25.5087,28,0.082,8702,3.9699,-159.2395
lg,1625794486487183315,0,0.8137,-0.1541,0.604,841,-3.9673,-13.1226,-13.3667,89,1.3076,1.1185,-68.8463,24.7038,28,0.082,8317,3.9699,-158.8735
lg,1625794486487227037,0,0.8208,-0.1548,0.5925,842,-3.418,-10.9863,-12.3291,89,1.3076,1.1175,-68.6944,23.7888,28,0.082,7833,3.9699,-158.3577
lg,1625794486487271037,0,0.8062,-0.1606,0.5674,843,-0.4272,-10.0098,-9.9487,89,1.3096,1.1185,-68.5799,22.74,28,0.082,7976,3.9699,-157.5689
lg,1625794486487315963,0,0.7942,-0.1599,0.5854,844,-2.5635,-11.7188,-8.9722,89,1.3096,1.1175,-68.4963,21.5906,29,0.082,7874,3.9699,-156.7625
lg,1625794486487361537,0,0.8311,-0.1455,0.5833,845,-2.0142,-13.3057,-7.8125,89,1.3096,1.1185,-68.5161,20.6003,29,0.082,10108,3.9699,-156.0781
lg,1625794486487458759,0,0.8303,-0.1353,0.6111,846,-2.9297,-13.6719,-8.0566,89,1.3086,1.1175,-68.4864,19.6743,29,0.081,7960,3.9699,-155.4908
lg,1625794486487512870,0,0.8464,-0.1599,0.5938,847,-2.3804,-10.2539,-6.5308,89,1.3106,1.1195,-68.4113,18.4495,29,0.081,8028,3.9699,-154.5622
lg,1625794486487558018,0,0.8345,-0.1621,0.6062,848,-2.4414,-4.8828,-4.2114,89,1.3116,1.1185,-68.1273,16.8501,29,0.081,8092,3.9699,-153.2253
lg,1625794486487606130,0,0.8359,-0.1504,0.5981,849,-2.0752,-3.418,-4.3335,89,1.3106,1.1185,-67.7934,15.4037,29,0.082,8056,3.9699,-152.0167
lg,1625794486487651648,0,0.8198,-0.1389,0.5813,850,-2.2583,-1.4038,-3.479,89,1.3116,1.1185,-67.3981,13.9644,29,0.081,8017,3.9699,-150.8051
lg,1625794486487726648,0,0.8044,-0.1433,0.5986,851,-2.5635,-1.9531,-3.7842,89,1.3116,1.1185,-66.9797,12.6023,29,0.081,8043,3.9699,-149.6884
lg,1625794486487775574,0,0.7988,-0.1475,0.5864,852,-2.9297,-2.6855,-4.1504,89,1.3116,1.1185,-66.6092,11.3418,29,0.081,8026,3.9699,-148.6922
lg,1625794486487818889,0,0.8052,-0.1648,0.5991,853,-3.9062,-4.8828,-5.0049,89,1.3116,1.1185,-66.3161,10.1498,29,0.081,8067,3.9699,-147.8192
lg,1625794486487863296,0,0.7942,-0.1492,0.6096,854,-4.2725,-1.4648,-4.2114,89,1.3116,1.1195,-65.8625,8.9621,29,0.081,8140,3.9699,-146.9443
lg,1625794486487908092,0,0.7751,-0.1602,0.6167,855,-3.2349,-0.6714,-4.4556,89,1.3126,1.1195,-65.3542,7.8527,29,0.081,8106,3.9699,-146.1104
lg,1625794486487954296,0,0.7749,-0.1545,0.5972,856,-4.2725,-8.4839,-4.6997,89,1.3126,1.1185,-65.1941,6.8918,29,0.081,12330,3.9699,-145.4771
lg,1625794486487999000,0,0.8081,-0.1643,0.5913,857,-5.7983,-10.5591,-5.0659,89,1.3126,1.1195,-65.2039,6.0456,29,0.08,8193,3.9699,-145.0275
lg,1625794486488041889,0,0.8245,-0.1736,0.6123,858,-5.127,-11.0474,-6.5918,89,1.3126,1.1185,-65.1756,5.2674,29,0.081,8171,3.9699,-144.6258
lg,1625794486488086685,0,0.8328,-0.1765,0.5955,859,-4.3335,-6.8359,-6.4697,89,1.3126,1.1185,-65.0217,4.5,29,0.081,8209,3.9699,-144.1948
lg,1625794486488129981,0,0.8059,-0.1709,0.5989,860,-1.8311,-1.4038,-5.5542,89,1.3136,1.1185,-64.6217,3.7643,29,0.081,8204,3.9699,-143.68
