name,time,activity,ax,ay,az,batch_val,gx,gy,gz,ibat,index,middle,pitch,roll,temp,thumb,ts,vbat,yaw
rg,1625794494710229050,1,0.0808,-0.3489,1.2129,1,-11.4746,-2.3804,-34.2407,67,1.1616,0,3.2136,-12.0756,24,0.8174,19332,4.0711,22.5914
rg,1625794494710528005,1,0.0505,-0.3462,1.241,2,-10.9863,0.1831,-33.8135,67,1.1616,0,2.7142,-12.7176,25,0.8174,8450,4.0711,21.2607
rg,1625794494710647631,1,0,-0.291,1.1775,3,-9.5215,2.1973,-33.4473,67,1.1626,0,2.3916,-13.199,25,0.8164,7937,4.0711,19.9344
rg,1625794494710803182,1,-0.022,-0.2849,1.1799,4,-11.5356,-3.2349,-32.7759,67,1.1636,-0.001,1.9069,-13.717,25,0.8174,9467,4.0711,18.6887
rg,1625794494710864977,1,0.0063,-0.2896,1.1724,5,-10.9253,-8.1787,-32.2876,67,1.1626,0,1.098,-14.1579,25,0.8164,7777,4.0711,17.5156
rg,1625794494710983233,1,0.1052,-0.2515,1.1694,6,-13.7329,-13.7329,-31.7993,67,1.1586,0,0.0096,-14.6326,24,0.8144,7906,4.0711,16.4233
rg,1625794494711083304,1,0.1025,-0.2847,1.1726,7,-18.1885,-8.8501,-38.5132,67,1.1616,0,-0.9212,-15.3039,24,0.8134,7906,4.0711,15.0282
rg,1625794494711141488,1,0.0701,-0.3196,1.1877,8,-18.1274,-6.7749,-42.3584,67,1.1596,0,-1.7301,-15.9768,24,0.8104,7923,4.0711,13.4703
rg,1625794494711192616,1,0.0662,-0.3901,1.2583,9,-18.0664,-13.5498,-44.8608,67,1.1606,0,-2.7976,-16.6802,24,0.8084,8158,4.0711,11.9022
rg,1625794494711244244,1,0.1543,-0.4473,1.2866,10,-17.395,-18.5547,-43.457,67,1.1586,0,-4.1578,-17.3796,25,0.8074,7990,4.0711,10.4616
rg,1625794494711351963,1,0.1868,-0.4255,1.2622,11,-13.916,-15.1367,-44.0063,67,1.1576,0,-5.4154,-17.8539,25,0.8064,8044,4.0711,8.967
rg,1625794494711405851,1,0.134,-0.4172,1.2373,12,-14.3433,-4.8218,-47.9126,67,1.1566,0,-6.2083,-18.2725,25,0.8034,8044,4.0711,7.1991
rg,1625794494711522662,1,0.0515,-0.3933,1.2144,13,-14.3433,-4.1504,-46.5698,67,1.1556,0,-6.7991,-18.6311,25,0.8014,8107,4.0711,5.4722
rg,1625794494711578438,1,0.0479,-0.3757,1.2163,14,-13.916,-10.498,-45.105,67,1.1536,0,-7.5906,-18.924,25,0.7974,8103,4.0711,3.88
rg,1625794494711628826,1,0.1636,-0.3347,1.1697,15,-14.5264,-26.3062,-41.9922,67,1.1546,0,-9.1308,-19.1982,25,0.7924,8128,4.0711,2.6082
rg,1625794494711750434,1,0.259,-0.283,1.1401,16,-20.6909,-20.0195,-39.6118,67,1.1536,0,-10.5391,-19.5991,25,0.7904,8157,4.0711,1.3294
rg,1625794494711824172,1,0.2661,-0.2974,1.123,17,-27.6489,-13.4888,-37.9639,67,1.1536,0,-11.6542,-20.2652,25,0.7864,8182,4.0711,0.0281
rg,1625794494711880800,1,0.2227,-0.313,1.1033,18,-37.2925,3.9062,-35.1562,67,1.1536,0,-11.9796,-21.2842,25,0.7834,8121,4.0711,-1.4085
rg,1625794494711934373,1,0.1912,-0.2852,1.0718,19,-42.0532,5.5542,-31.189,67,1.1546,0,-12.1518,-22.4354,25,0.7814,8346,4.0711,-2.7321
rg,1625794494711981612,1,0.2339,-0.2664,1.0522,20,-44.6777,4.2114,-29.7241,67,1.1546,0,-12.5735,-23.6394,25,0.7784,8193,4.0711,-3.9869
rg,1625794494712034833,1,0.3335,-0.2715,1.0518,21,-52.6733,5.6152,-26.123,67,1.1536,0,-12.9828,-25.1426,25,0.7774,8294,4.0711,-5.1346
rg,1625794494712087554,1,0.3975,-0.2869,1.0483,22,-62.1338,19.5312,-24.9634,67,1.1556,0,-13.0078,-26.9543,25,0.7774,8218,4.0711,-6.4897
rg,1625794494712141793,1,0.3799,-0.3103,1.0308,23,-66.3452,29.4189,-25.0854,67,1.1556,0,-12.4138,-28.9626,25,0.7754,8406,4.0711,-8.2202
rg,1625794494712188384,1,-0.1526,-0.5156,0.9126,24,-6.1646,-74.4629,11.2305,102,1.1516,0,-13.9746,-29.6544,25,0.8064,14617,4.0392,-6.3171
rg,1625794494712240753,1,0.1162,-0.5845,0.9207,25,-17.0898,-104.187,19.6533,102,1.1536,0,-16.8378,-31.2083,25,0.8074,8240,4.0392,-3.3978
rg,1625794494712290585,1,0.4104,-0.4626,0.8479,26,-32.959,-101.6846,20.4468,102,1.1526,0,-20.0629,-33.3725,25,0.8064,8077,4.0392,-0.4002
rg,1625794494712344343,1,0.4988,-0.407,0.7688,27,-45.5322,-90.9424,15.9302,102,1.1526,0,-23.0589,-36.0068,25,0.7994,8071,4.0392,2.3309
rg,1625794494712394693,1,0.4758,-0.2278,0.6941,28,-79.7729,-52.2461,2.0142,102,1.1426,0,-25.0874,-39.1436,25,0.7874,8128,4.0392,3.5572
rg,1625794494712573781,1,0.2539,-0.1526,0.9663,29,-112.5488,-22.3999,-11.9629,102,1.1406,0,-25.7947,-42.5016,25,0.7834,10520,4.0392,3.2718
rg,1625794494712626002,1,0.6052,-0.9705,0.5444,30,-25.8179,-21.4233,1.2817,102,1.1436,0,-26.5173,-44.5244,25,0.7904,8208,4.0392,4.2751
rg,1625794494712672408,1,0.3494,-0.8228,0.9868,31,-21.6064,-6.1035,-4.3335,102,1.1436,0,-25.0966,-45.209,25,0.7924,8318,4.0392,2.7978
rg,1625794494712797460,1,0.3323,-1.1252,1.0974,32,-13.0005,46.5088,-1.0376,102,1.1406,0,-23.3018,-45.1308,25,0.7934,8267,4.0392,1.3204
rg,1625794495057947963,1,0.0889,-0.5623,0.7695,33,11.8408,101.6846,5.3101,102,1.1406,0,-19.5605,-43.2186,25,0.7974,25767,4.0392,-1.7101
rg,1625794495058075441,1,0.0403,-0.5862,0.7498,34,10.9863,97.168,-10.6812,102,1.1406,0,-16.3261,-41.6046,25,0.7994,11344,4.0392,-4.8679
rg,1625794495058134495,1,-0.0469,-0.5518,0.7537,35,9.8877,99.1211,-18.4937,102,1.1406,0,-13.112,-40.2313,25,0.8004,7557,4.0392,-8.2678
rg,1625794495058186272,1,-0.2683,-0.5408,0.7651,36,4.6387,91.4917,-30.1514,102,1.1406,0,-9.979,-39.1785,25,0.8014,7612,4.0392,-11.6374
rg,1625794495058234233,1,-0.4331,-0.5989,0.8325,37,1.5869,66.4673,-29.1748,102,1.1406,0,-7.4189,-38.5858,25,0.8024,9248,4.0392,-14.2614
rg,1625794495058285862,1,-0.4697,-0.6123,0.8855,38,5.0049,48.2178,-25.0244,102,1.1426,0,-5.8145,-37.94,25,0.8044,7607,4.0392,-15.6519
rg,1625794495058328194,1,-0.4399,-0.6541,0.9653,39,13.7939,13.7939,-14.4653,102,1.1426,0,-4.72,-37.1664,25,0.8044,7750,4.0392,-16.4568
rg,1625794495058378378,1,-0.1108,-0.9946,1.0923,40,50.1099,-19.9585,-2.1973,102,1.1446,0,-5.057,-35.3974,25,0.8034,7627,4.0392,-16.03
rg,1625794495058424839,1,0.4224,-0.9282,1.0007,41,73.0591,-28.3813,1.5259,102,1.1476,0,-6.5432,-32.1153,25,0.8064,7716,4.0392,-15.837
rg,1625794495058473764,1,0.4705,-0.7402,0.939,42,97.5952,-2.1973,-25.8179,102,1.1456,0,-7.7221,-28.335,25,0.8044,7657,4.0392,-16.6856
rg,1625794495058521207,1,0.2322,-0.4385,0.8081,43,89.9658,68.1152,-41.5039,102,1.1476,0,-6.282,-24.4145,25,0.8044,7684,4.0392,-19.4137
rg,1625794495058569650,1,0.0054,-0.4211,0.8193,44,76.355,92.1631,-48.4619,106,1.1476,0,-3.4139,-21.2027,25,0.8024,7701,3.9743,-22.6233
rg,1625794495058617908,1,-0.4033,-0.522,0.897,45,56.8237,97.4121,-50.5981,106,1.1456,0,0.4738,-19.1798,25,0.8004,7716,3.9743,-25.8316
rg,1625794495058665685,1,-0.5596,-0.4226,0.8848,46,54.5654,76.416,-49.1333,106,1.1456,0,2.6788,-17.3911,25,0.8004,7715,3.9743,-28.0549
rg,1625794495058716906,1,-0.3955,-0.3379,0.8408,47,32.8979,-20.5688,-28.7476,106,1.1466,0,2.369,-16.2761,25,0.8004,10181,3.9743,-28.9157
rg,1625794495058773960,1,-0.2236,-0.3953,0.8843,48,19.7144,-43.7622,-20.6299,106,1.1456,0,0.8831,-15.7946,25,0.7984,7811,3.9743,-29.2337
rg,1625794495058920660,1,-0.0398,-0.3364,0.9285,49,4.0894,-59.3872,-10.3149,106,1.1486,0,-1.4502,-15.7913,25,0.8024,7753,3.9743,-28.9845
rg,1625794495058980492,1,-0.0515,-0.2869,0.8857,50,-7.3242,-52.4292,-3.7231,106,1.1496,0,-2.9214,-16.9792,25,0.8044,7829,3.9743,-28.3079
rg,1625794495059026787,1,-0.1423,-0.5044,0.9634,51,-31.6162,-53.6499,11.0474,106,1.1476,0,-4.413,-18.7209,25,0.8054,7880,3.9743,-27.2101
rg,1625794495059079656,1,0.074,-0.5403,0.9351,52,-36.3159,-85.4492,18.1885,106,1.1526,0,-7.3524,-20.7992,25,0.8084,7899,3.9743,-25.3237
rg,1625794495059123691,1,0.2429,-0.5188,0.9377,53,-41.1987,-95.459,18.5547,106,1.1526,0,-10.8155,-23.093,25,0.8094,7913,3.9743,-23.134
rg,1625794495059180671,1,0.4331,-0.4512,0.8342,54,-51.3306,-75.6226,17.334,106,1.1526,0,-13.8068,-25.7426,25,0.8044,7953,3.9743,-21.1572
rg,1625794495059225837,1,0.3672,-0.2854,0.699,55,-77.0264,-37.5366,13.7329,106,1.1486,0,-15.3557,-28.9869,25,0.7944,11644,3.9743,-19.9581
rg,1625794495059274928,1,0.1995,-0.303,0.7205,56,-120.7275,-20.9351,1.4648,106,1.1436,0,-15.9978,-33.6815,25,0.7854,8044,3.9743,-19.5221
rg,1625794495059318205,1,0.3801,-0.8916,0.9817,57,-85.2051,-6.0425,3.6011,106,1.1446,0,-16.1092,-37.4824,25,0.7914,8604,3.9743,-19.1621
rg,1625794495059361278,1,0.5618,-0.7429,0.7014,58,-37.8418,-11.5967,4.2114,106,1.1446,0,-16.6092,-38.8831,25,0.7934,8115,3.9743,-18.7871
rg,1625794495059406314,1,0.0989,-1.0022,1.0767,59,-39.917,73.1812,3.0518,106,1.1446,0,-13.7827,-40.1495,25,0.7954,8118,3.9743,-20.5842
rg,1625794495059455516,1,0.249,-0.5378,0.7334,60,3.2349,38.0859,1.1597,106,1.1446,-0.001,-12.6489,-39.6362,25,0.7944,8573,3.9743,-21.5937
rg,1625794495059505496,1,0.1023,-0.509,0.7478,61,-1.3428,54.5044,-0.6104,106,1.1456,0,-10.0831,-39.3812,25,0.7984,8449,3.9743,-23.6935
rg,1625794495059551939,1,-0.0408,-0.4915,0.7283,62,-15.3198,83.4351,-4.7607,106,1.1436,0,-7.1383,-39.4247,25,0.7994,8164,3.9743,-26.0282
rg,1625794495059734212,1,-0.1824,-0.5544,0.7671,63,-28.1372,68.8477,-12.6953,106,1.1476,0,-4.6558,-40.1756,25,0.8024,8175,3.9743,-28.2176
rg,1625794495059835154,1,-0.1682,-0.803,0.9131,64,-29.0527,44.4336,-18.2495,106,1.1476,0,-3.2986,-41.2508,25,0.8044,8260,3.9743,-29.9366
rg,1625794495400970487,1,-0.1716,-0.9053,0.9961,65,25.0244,15.9912,-21.1182,106,1.1506,0,-3.2822,-39.4668,25,0.8064,24370,3.9743,-30.7366
rg,1625794495401085206,1,0.2305,-0.8354,0.8325,66,86.9141,3.2959,-12.2681,106,1.1516,0,-3.7859,-36.1802,25,0.8064,14652,3.9743,-31.2028
rg,1625794495401138204,1,0.3359,-0.6958,0.7397,67,92.5293,31.9214,-38.4521,106,1.1506,0,-4.1748,-32.6078,25,0.8064,7689,3.9743,-33.1993
rg,1625794495401190073,1,0.0015,-0.5039,0.6755,68,89.6606,59.6924,-45.6543,106,1.1516,0,-2.0485,-29.168,25,0.8054,7666,3.9743,-36.5909
rg,1625794495401238220,1,-0.2231,-0.4861,0.6724,69,74.5239,100.4028,-48.5229,106,1.1506,0,1.2491,-26.4196,25,0.8044,7689,3.9743,-40.1551
rg,1625794495401286052,1,-0.6104,-0.3845,0.6868,70,53.894,84.5337,-38.147,106,1.1506,0,4.9804,-24.5063,25,0.8044,7714,3.9743,-42.9687
rg,1625794495401333810,1,-0.8296,-0.2158,0.6704,71,39.5508,58.96,-28.3813,106,1.1516,0,7.0611,-23.78,25,0.8064,8747,3.9743,-43.9227
rg,1625794495401770058,1,-0.7678,-0.425,0.8254,72,-8.8501,-26.062,-6.1035,106,1.1526,0,7.2309,-24.2095,25,0.8084,8247,3.9743,-43.7343
rg,1625794495401866148,1,-0.3892,-0.5732,0.8655,73,-18.4937,-107.1777,14.3433,106,1.1566,0,4.1138,-25.0572,25,0.8124,7695,3.9743,-41.4568
rg,1625794495401934239,1,-0.1199,-0.5129,0.814,74,-24.1699,-129.0894,22.3389,106,1.1566,0,-0.6713,-26.2144,25,0.8134,7764,3.9743,-38.4291
rg,1625794495401985145,1,0.4363,-0.5562,0.8552,75,-47.6074,-135.3149,28.9917,106,1.1516,0,-5.7872,-28.554,25,0.8084,7745,3.9743,-34.8834
rg,1625794495402040403,1,0.666,-0.4644,0.7939,76,-73.0591,-76.1108,16.9067,106,1.1556,0,-9.2022,-31.8004,25,0.8044,7770,3.9743,-32.712
rg,1625794495402088865,1,0.6238,-0.3977,0.8179,77,-86.853,-39.917,7.8125,106,1.1506,0,-11.3212,-35.2739,25,0.7974,7825,3.9743,-31.5535
rg,1625794495402136641,1,0.6619,-0.8513,0.5791,78,-72.0825,18.0054,-7.3853,106,1.1516,0,-11.64,-36.3352,25,0.8014,11348,3.9743,-32.021
rg,1625794495402188584,1,0.4531,-0.3413,0.9463,79,-18.4326,45.7764,-16.7847,106,1.1506,0,-11.0771,-36.135,25,0.8024,7844,3.9743,-33.8055
rg,1625794495402238639,1,-0.1487,-0.835,0.9434,80,-6.1646,85.5103,-24.9023,106,1.1516,0,-8.2213,-36.1061,25,0.8034,7868,3.9743,-36.6289
rg,1625794495402288508,1,-0.1814,-0.4639,0.7451,81,10.498,54.2603,-24.1699,106,1.1516,0,-6.3962,-35.2981,25,0.8054,7915,3.9743,-38.319
rg,1625794495402335395,1,-0.0911,-0.5881,0.8381,82,-3.8452,34.668,-14.7095,106,1.1516,0,-5.1568,-35.3035,25,0.8064,7943,3.9743,-39.6097
rg,1625794495402381376,1,0.1543,-0.5935,0.8135,83,-6.1035,22.3389,-17.2119,106,1.1526,0,-4.9696,-35.4743,25,0.8084,8996,3.9743,-40.6913
rg,1625794495402429689,1,0.2017,-0.6489,0.8086,84,-5.7373,40.2832,-29.48,106,1.1526,0,-4.5885,-35.6634,25,0.8104,8072,3.9743,-42.5852
rg,1625794495402476688,1,-0.0085,-0.626,0.7815,85,-4.7607,59.3872,-41.4429,106,1.1546,0,-3.4348,-35.7727,25,0.8124,10100,3.9743,-45.3167
rg,1625794495402524094,1,-0.113,-0.6311,0.7949,86,-3.1738,59.8755,-46.3867,106,1.1526,0,-2.2007,-35.8526,25,0.8124,7989,3.9743,-48.2209
rg,1625794495402568741,1,-0.3171,-0.6597,0.8069,87,0.2441,50.7812,-45.166,106,1.1546,0,-0.8765,-35.8925,25,0.8144,8019,3.9743,-50.8707
rg,1625794495402836549,1,-0.3289,-0.6785,0.8645,88,10.8032,20.0195,-35.2783,106,1.1566,0,-0.3686,-35.5202,25,0.8174,8204,3.9743,-52.4787
rg,1625794495402901380,1,-0.2449,-0.7747,0.9126,89,20.752,5.127,-30.5176,106,1.1576,0,-0.4362,-34.8621,25,0.8184,8067,3.9743,-53.5887
rg,1625794495402956879,1,0.1582,-0.8616,0.9062,90,55.4199,-4.4556,-17.0288,106,1.1576,0,-1.2306,-32.9761,25,0.8164,8066,3.9743,-54.0558
rg,1625794495403002933,1,0.4185,-0.7898,0.8445,91,74.4019,23.6816,-30.0293,106,1.1556,0,-1.7836,-30.3351,25,0.8174,8227,3.9743,-55.586
rg,1625794495403079561,1,0.3362,-0.697,0.7908,92,79.1626,53.1616,-37.8418,106,1.1546,0.001,-0.9863,-27.4047,25,0.8144,8124,3.9743,-57.9397
rg,1625794495403209446,1,-0.0107,-0.5762,0.7864,93,73.3032,99.7925,-42.7246,106,1.1526,0,1.8928,-24.8484,25,0.8124,7980,3.9743,-61.226
rg,1625794495403261852,1,-0.2961,-0.584,0.8188,94,65.3076,96.4355,-44.6167,106,1.1546,0,5.2535,-22.8398,25,0.8114,8171,3.9743,-64.4273
rg,1625794495403308370,1,-0.3979,-0.5286,0.8357,95,60.3638,79.5898,-43.5181,106,1.1536,0,7.5964,-21.0908,25,0.8104,8221,3.9743,-66.7428
rg,1625794495403355202,1,-0.4961,-0.3516,0.7927,96,46.5088,33.2031,-32.3486,106,1.1526,0,9.2407,-19.5756,25,0.8094,8235,3.9743,-68.4363
rg,1625794495748887289,1,-0.1768,-0.5479,0.9526,97,-11.1694,-87.7075,12.207,106,1.1576,0,5.8513,-20.1492,25,0.8184,25528,3.9743,-66.823
rg,1625794495748968972,1,0.126,-0.5332,0.9734,98,-27.2827,-112.915,26.7334,106,1.1576,0,1.4405,-21.8644,25,0.8164,10395,3.9743,-64.181
rg,1625794495749022434,1,0.3645,-0.5303,0.8828,99,-50.6592,-98.6328,28.9307,106,1.1556,0,-2.5303,-24.243,25,0.8094,7583,3.9743,-61.562
rg,1625794495749071099,1,0.4824,-0.3804,0.7756,100,-75.1953,-74.1577,17.5171,106,1.1476,0,-5.8967,-27.4441,25,0.7954,8886,3.9743,-59.6015
rg,1625794495749120024,1,0.5071,-0.2556,0.8008,101,-87.7686,-60.6689,10.1929,106,1.1446,0,-7.7175,-30.1237,25,0.7944,7646,3.9743,-58.7659
rg,1625794495749166060,1,0.8271,-0.9741,0.4617,102,-16.9067,-22.8271,6.4087,106,1.1456,0,-9.5288,-31.9312,25,0.7984,7832,3.9743,-57.9109
rg,1625794495749210003,1,0.4067,-0.667,0.9392,103,-29.2358,56.3354,-10.6812,106,1.1456,0,-8.2538,-32.9742,25,0.7994,9316,3.9743,-59.4794
rg,1625794495749255335,1,0.1113,-0.5671,0.76,104,11.0474,58.1665,-10.1318,106,1.1456,0,-6.4615,-32.4675,24,0.8014,7707,3.9743,-61.0735
rg,1625794495749300037,1,0.0312,-0.3564,0.7019,105,11.3525,63.5986,-5.7373,106,1.1446,0,-4.2712,-31.6416,24,0.8014,8151,3.9743,-62.6527
rg,1625794495749344759,1,0.0122,-0.6067,0.7798,106,-7.4463,65.7349,4.5166,106,1.1456,0,-1.8125,-32.1116,24,0.8034,8604,3.9743,-63.8758
rg,1625794495749389350,1,0.1738,-0.5457,0.7544,107,-15.0757,64.6973,2.3804,106,1.1466,0,0.0665,-32.8315,24,0.8054,7780,3.9743,-65.1828
rg,1625794495749437793,1,0.1853,-0.6116,0.7844,108,-18.1885,73.1201,-4.2725,106,1.1456,0,1.9879,-33.7788,25,0.8064,7739,3.9743,-66.9334
rg,1625794495749483755,1,-0.0061,-0.5969,0.7573,109,-19.7144,94.1772,-19.6533,106,1.1486,0,4.5757,-34.8925,25,0.8084,7865,3.9743,-69.7211
rg,1625794495749531457,1,-0.2751,-0.6746,0.8059,110,-20.874,94.0552,-29.1748,106,1.1476,0,7.3396,-36.2384,25,0.8124,7879,3.9743,-72.8975
rg,1625794495749730859,1,-0.3975,-0.7312,0.8589,111,-18.7378,87.0361,-29.7241,106,1.1476,0,9.8679,-37.5956,25,0.8124,7850,3.9743,-76.0007
rg,1625794495749790728,1,-0.4731,-0.8108,0.9368,112,-3.418,51.5747,-21.7285,106,1.1506,0,11.3857,-38.2133,25,0.8134,7891,3.9743,-78.0114
rg,1625794495749837042,1,-0.2261,-0.9482,0.98,113,11.5356,29.6631,-19.3481,106,1.1496,0,11.3188,-37.2884,25,0.8164,7947,3.9743,-78.8165
rg,1625794495749978501,1,0.0361,-0.9587,0.9558,114,55.2979,3.1738,-7.6294,106,1.1506,0,10.7379,-35.4514,25,0.8154,7960,3.9743,-79.2129
rg,1625794495750130460,1,0.3259,-0.8752,0.8691,115,80.8716,23.3154,-22.7051,106,1.1506,0,10.0251,-32.8335,25,0.8174,7967,3.9743,-80.6034
rg,1625794495750189922,1,0.1143,-0.6277,0.7605,116,88.4399,48.1567,-34.729,106,1.1526,0,11.0505,-30.108,25,0.8154,8056,3.9743,-83.719
rg,1625794495750239735,1,-0.0676,-0.573,0.7498,117,84.9609,94.1162,-45.5933,106,1.1506,0,13.1756,-27.7409,25,0.8134,8048,3.9743,-87.277
rg,1625794495750397583,1,-0.4312,-0.5344,0.7678,118,69.2139,97.7173,-48.9502,106,1.1516,0,16.2119,-26.1581,25,0.8124,8050,3.9743,-90.9662
rg,1625794495750527876,1,-0.7026,-0.3142,0.7598,119,61.7065,78.4302,-45.105,106,1.1516,0,18.3842,-24.586,25,0.8124,8095,3.9743,-93.2176
rg,1625794495750584115,1,-0.7937,-0.1438,0.7244,120,37.1704,18.7988,-22.9492,106,1.1506,0,19.7942,-23.1113,25,0.8124,8121,3.9743,-94.2898
rg,1625794495750634058,1,-0.804,-0.3835,0.8892,121,-17.8833,-63.3545,0,106,1.1546,0,18.2434,-23.4806,25,0.8154,8120,3.9743,-93.2281
rg,1625794495750679409,1,-0.5054,-0.5901,0.8838,122,-30.4565,-102.6611,11.4746,106,1.1546,0,13.6263,-24.3823,25,0.8184,8038,3.9743,-90.076
rg,1625794495750726019,1,0.1836,-0.5605,0.8579,123,-49.5605,-204.7119,35.5835,106,1.1566,0,5.9488,-25.8768,25,0.8164,10148,3.9743,-85.3136
rg,1625794495750773202,1,0.5405,-0.5215,0.8235,124,-61.7676,-203.8574,34.9731,106,1.1526,0,-1.9279,-28.3833,25,0.8104,8203,3.9743,-80.3497
rg,1625794495750822331,1,0.9463,-0.4072,0.8291,125,-86.853,-135.498,20.3857,106,1.1476,0,-7.7399,-32.0706,25,0.8014,8337,3.9743,-76.858
rg,1625794495750870737,1,0.9897,-0.8528,0.8452,126,-39.6118,-31.0669,2.7466,106,1.1506,0,-9.9111,-34.1691,25,0.8064,8165,3.9743,-76.0019
rg,1625794495751116323,1,0.9841,-0.4219,0.6875,127,5.3711,-8.606,-4.3945,106,1.1506,0,-11.3188,-33.6523,25,0.8064,8231,3.9743,-76.0147
rg,1625794495751197821,1,0.2131,-0.7502,0.9385,128,-19.6533,99.1211,-20.2637,106,1.1496,0,-8.4443,-34.1218,25,0.8064,8243,3.9743,-78.9087
rg,1625794496103916578,1,0.0281,-0.5408,0.7434,129,-19.7754,54.8706,-2.9297,106,1.1496,0,-6.4432,-34.8031,25,0.8094,25707,3.9743,-80.2529
rg,1625794496104035075,1,0.2048,-0.6182,0.7891,130,-27.771,60.9131,-11.2305,106,1.1496,0,-4.7845,-35.9118,25,0.8114,13867,3.9743,-82.0205
rg,1625794496104091833,1,0.0161,-0.6875,0.8086,131,-25.6348,85.022,-24.7803,106,1.1496,0,-2.4939,-36.9229,25,0.8134,9123,3.9743,-84.8328
rg,1625794496104192275,1,-0.2429,-0.7148,0.8047,132,-18.7988,85.8154,-29.3579,106,1.1506,0,0.1047,-37.7821,25,0.8154,7621,3.9743,-87.8478
rg,1625794496104246922,1,-0.3555,-0.7251,0.8223,133,-15.9302,80.3223,-31.311,106,1.1506,0,2.308,-38.3417,25,0.8174,7655,3.9743,-90.3948
rg,1625794496104510748,1,-0.4136,-0.7737,0.9043,134,0.5493,46.875,-23.3154,106,1.1506,0,3.8472,-38.4953,25,0.8184,7681,3.9743,-92.2974
rg,1625794496104573877,1,-0.1228,-0.9626,0.9463,135,39.1846,12.6953,-13.1226,106,1.1536,0,3.9779,-37.2482,25,0.8174,9023,3.9743,-93.0426
rg,1625794496104627190,1,0.2908,-0.918,0.8672,136,61.8286,9.1553,-10.0098,106,1.1536,0,3.4299,-34.6843,25,0.8194,7651,3.9743,-94.1269
rg,1625794496104679004,1,0.304,-0.8252,0.8308,137,83.8013,37.1704,-29.6631,106,1.1526,0,3.3194,-31.8283,25,0.8174,7679,3.9743,-95.9796
rg,1625794496104730688,1,0.0383,-0.5833,0.7183,138,87.0972,84.2285,-42.6025,106,1.1536,0,5.1282,-28.8692,25,0.8174,7682,3.9743,-99.1848
rg,1625794496104779242,1,-0.1343,-0.5266,0.717,139,78.0029,98.938,-44.8608,106,1.1506,0,7.9225,-26.4351,25,0.8134,7688,3.9743,-102.6571
rg,1625794496104827278,1,-0.4688,-0.5073,0.759,140,57.6782,92.1631,-44.6777,106,1.1506,0,11.2039,-24.9285,25,0.8124,7860,3.9743,-105.9361
rg,1625794496105001422,1,-0.6313,-0.4404,0.7993,141,42.8467,42.9688,-34.9121,106,1.1506,0,13.0894,-23.7693,25,0.8094,10427,3.9743,-107.9773
rg,1625794496105063587,1,-0.5471,-0.3511,0.8108,142,21.9727,-21.7285,-18.7988,106,1.1506,0,12.72,-22.953,25,0.8124,7925,3.9743,-108.32
rg,1625794496105111993,1,-0.426,-0.4138,0.8745,143,6.4697,-51.5747,-10.1929,106,1.1506,0,11.1001,-22.6871,25,0.8124,7983,3.9743,-107.9001
rg,1625794496105161121,1,-0.3083,-0.3918,0.8879,144,-15.3198,-82.0312,6.2866,106,1.1546,0,8.4423,-23.0754,25,0.8164,7889,3.9743,-106.3746
rg,1625794496105206750,1,-0.1597,-0.5247,0.8945,145,-44.1284,-111.3892,20.0806,106,1.1566,0,4.7267,-24.8226,25,0.8194,8023,3.9743,-103.8537
rg,1625794496105252989,1,-0.031,-0.5383,0.8782,146,-56.7627,-123.5962,24.9634,106,1.1546,0,0.6232,-27.2001,25,0.8154,7873,3.9743,-100.8014
rg,1625794496105298840,1,0.4924,-0.4778,0.8538,147,-87.3413,-134.3384,20.6909,106,1.1516,0,-4.3474,-31.4106,25,0.8044,8059,3.9743,-97.8548
rg,1625794496105347987,1,0.575,-0.4265,0.8555,148,-109.0088,-98.877,10.6201,106,1.1476,0,-8.4034,-35.8701,25,0.7994,8063,3.9743,-95.2672
rg,1625794496105395208,1,1.0342,-1.1853,0.5886,149,-27.71,-46.2036,8.3008,106,1.1486,0,-10.818,-38.0483,25,0.8024,8045,3.9743,-93.7256
rg,1625794496105453559,1,0.5142,-0.6785,0.937,150,0.3052,-18.5547,-7.2632,106,1.1486,0,-9.9267,-38.5456,25,0.8044,8123,3.9743,-95.565
rg,1625794496105502817,1,0.134,-1.0417,1.012,151,-2.0752,88.2568,-18.6157,106,1.1486,0,-8.258,-37.3736,25,0.8054,9506,3.9743,-97.811
rg,1625794496105551908,1,-0.0591,-0.3479,0.6279,152,23.9258,65.2466,-20.1416,106,1.1486,0,-6.145,-35.7999,25,0.8054,9191,3.9743,-100.075
rg,1625794496105596981,1,-0.1458,-0.6873,0.8066,153,1.9531,59.6924,-7.3242,106,1.1466,0,-3.8397,-35.7528,25,0.8074,8715,3.9743,-101.6979
rg,1625794496105641128,1,0.1301,-0.5334,0.7192,154,2.0752,37.1704,-7.9346,106,1.1486,0,-2.9973,-35.6256,25,0.8104,8123,3.9743,-102.826
rg,1625794496105685090,1,0.2061,-0.6099,0.7419,155,-1.77,43.335,-12.207,106,1.1496,0,-1.8836,-35.833,25,0.8124,8120,3.9743,-104.7498
rg,1625794496105773828,1,0.0847,-0.6038,0.717,156,-4.0894,68.4814,-23.8037,106,1.1466,0,-0.3659,-36.1086,25,0.8124,8156,3.9743,-107.1272
rg,1625794496105824272,1,-0.1157,-0.6392,0.7253,157,-5.9204,77.4536,-34.1187,106,1.1476,0,1.5928,-36.5743,25,0.8144,8217,3.9743,-110.0642
rg,1625794496105869900,1,-0.2795,-0.6257,0.7375,158,-6.2866,77.7588,-35.2783,106,1.1506,0,3.7501,-37.113,25,0.8174,8261,3.9743,-112.9671
rg,1625794496105914307,1,-0.3643,-0.6475,0.7834,159,-6.1646,70.0073,-30.5176,106,1.1496,0,5.8467,-37.6665,25,0.8174,8274,3.9743,-115.6562
rg,1625794496105959657,1,-0.3977,-0.7571,0.8655,160,2.5635,44.2505,-22.4609,106,1.1486,0,7.2065,-37.8928,25,0.8174,8774,3.9743,-117.4766
rg,1625794496445215485,1,0.2729,-0.8916,0.8865,161,84.1064,32.5317,-9.2773,106,1.1526,0,7.275,-34.9511,25,0.8184,26824,3.9743,-118.6135
rg,1625794496445321501,1,-0.0349,-0.5208,0.769,162,88.7451,93.3228,-33.5083,106,1.1526,0,9.434,-31.8366,25,0.8164,14072,3.9743,-121.8236
rg,1625794496445377203,1,-0.2371,-0.4648,0.7756,163,80.8105,102.6001,-35.4614,84,1.1516,0,12.4368,-29.2091,25,0.8154,7644,4.0447,-125.1806
rg,1625794496445428387,1,-0.626,-0.3586,0.7869,164,57.8613,79.5288,-35.0342,84,1.1506,0,15.4605,-27.4174,25,0.8134,7625,4.0447,-127.9571
rg,1625794496445476793,1,-0.7329,-0.2937,0.7668,165,43.457,45.4712,-28.9917,84,1.1516,0,17.4217,-26.0728,25,0.8134,7637,4.0447,-129.838
rg,1625794496445524977,1,-0.6013,-0.4514,0.9373,166,13.4888,-43.9453,-16.8457,84,1.1516,0,16.0433,-25.4672,25,0.8144,7640,4.0447,-129.6613
rg,1625794496445570532,1,-0.3613,-0.3569,0.9014,167,-0.9155,-95.8862,0.4883,84,1.1536,0,12.7678,-24.9246,25,0.8164,9127,4.0447,-127.9081
rg,1625794496445618734,1,-0.2429,-0.4209,0.8926,168,-14.2212,-110.1074,9.0332,84,1.1556,0,8.2303,-25.5834,25,0.8214,7616,4.0447,-125.1791
rg,1625794496445663918,1,0.0811,-0.5371,0.9163,169,-37.1704,-131.4697,20.2637,84,1.1566,0,3.3997,-26.9373,25,0.8184,7702,4.0447,-122.1281
rg,1625794496445708880,1,0.387,-0.5522,0.8523,170,-60.3638,-126.5259,18.4937,84,1.1546,0,-1.619,-29.5118,25,0.8124,7718,4.0447,-119.0735
rg,1625794496445754453,1,0.5854,-0.4351,0.8591,171,-87.8296,-87.9517,9.9487,84,1.1496,0,-5.5251,-33.0546,25,0.8054,7697,4.0447,-116.8696
rg,1625794496445798860,1,0.8896,-0.9692,0.5051,172,-79.9561,-55.8472,4.6387,84,1.1506,0,-7.5435,-34.6436,25,0.8094,7699,4.0447,-115.8739
rg,1625794496445886209,1,0.8042,-0.3528,0.8655,173,-2.9907,-6.6528,-4.0894,84,1.1516,0,-9.0981,-34.3825,25,0.8094,7743,4.0447,-115.9131
rg,1625794496445936208,1,0.1169,-0.8337,0.9106,174,-2.9907,95.3369,-11.2305,84,1.1516,0,-6.0775,-34.4768,25,0.8104,7724,4.0447,-118.4166
rg,1625794496445989633,1,-0.095,-0.3638,0.6523,175,12.7563,78.186,-13.6719,84,1.1526,0,-3.6725,-33.4783,25,0.8124,8879,4.0447,-120.459
rg,1625794496446036057,1,-0.1392,-0.5251,0.7419,176,3.6011,67.0166,-10.0098,84,1.1506,0,-1.1782,-33.3207,25,0.8124,7863,4.0447,-122.2681
rg,1625794496446081704,1,0.0027,-0.5583,0.7427,177,-2.0142,46.6309,-10.0098,84,1.1536,0,0.1913,-33.5241,25,0.8154,7853,4.0447,-123.6292
rg,1625794496446126018,1,0.0483,-0.531,0.7305,178,-5.5542,48.2178,-14.7095,84,1.1536,0,1.4647,-34.0315,25,0.8174,8031,4.0447,-125.4683
rg,1625794496446169554,1,-0.0449,-0.5969,0.7915,179,-11.1084,58.4717,-23.7427,84,1.1546,-0.001,3.0291,-34.7871,25,0.8204,7847,4.0447,-127.5841
rg,1625794496446216405,1,-0.1794,-0.781,0.8867,180,-4.5166,55.6641,-31.189,84,1.1516,0,4.3476,-35.3648,25,0.8214,7771,4.0447,-129.9051
rg,1625794496446261182,1,-0.2419,-0.8281,0.918,181,14.0991,38.208,-29.6631,84,1.1556,0,5.1697,-35.208,25,0.8244,7938,4.0447,-131.7821
rg,1625794496446490472,1,-0.2146,-0.7881,0.9099,182,26.4893,27.71,-27.0996,84,1.1556,0,5.6506,-34.5091,25,0.8244,7955,4.0447,-133.3302
rg,1625794496446543434,1,-0.126,-0.772,0.8901,183,53.5278,20.9351,-23.8037,84,1.1576,0,5.8359,-32.7456,25,0.8234,7996,4.0447,-134.6173
rg,1625794496446592859,1,0.1753,-0.8125,0.8586,184,76.9653,28.3203,-19.165,84,1.1566,0,5.8422,-30.2148,25,0.8224,7990,4.0447,-135.9253
rg,1625794496446636654,1,0.1882,-0.7585,0.8335,185,82.0923,37.1094,-31.9824,84,1.1536,0,5.9231,-27.5962,25,0.8194,8041,4.0447,-137.8353
rg,1625794496446680560,1,-0.0193,-0.5085,0.7429,186,81.4819,73.9136,-40.5273,84,1.1546,0,7.6604,-24.9403,25,0.8174,8082,4.0447,-140.6503
rg,1625794496446724115,1,-0.4214,-0.363,0.7144,187,59.3262,95.8252,-35.4004,84,1.1526,0,11.3459,-23.1155,25,0.8164,8112,4.0447,-143.5408
rg,1625794496446826890,1,-0.6165,-0.3003,0.7437,188,42.4805,83.5571,-27.71,84,1.1546,-0.001,14.9927,-21.9167,25,0.8174,8122,4.0447,-145.8887
rg,1625794496446884129,1,-0.9246,-0.2358,0.7659,189,-5.127,15.1367,-10.6812,84,1.1556,0,16.6594,-22.1646,25,0.8184,7958,4.0447,-146.5035
rg,1625794496446927573,1,-0.7432,-0.5408,0.9531,190,-36.0718,-89.4165,10.8032,84,1.1576,0,14.2231,-23.3573,25,0.8234,8197,4.0447,-144.7279
rg,1625794496446972497,1,-0.4167,-0.5396,0.897,191,-40.4053,-140.1367,20.3247,84,1.1586,0,8.966,-24.7309,25,0.8234,8164,4.0447,-141.7257
rg,1625794496447122734,1,0.3616,-0.6035,0.95,192,-53.833,-186.2183,30.4565,84,1.1576,0,1.8031,-26.754,25,0.8194,8216,4.0447,-137.4043
rg,1625794496796793454,1,0.9287,-0.9697,0.6365,193,-14.8926,17.6392,1.2207,84,1.1566,0,0.9833,-28.232,25,0.8174,25850,4.0447,-137.6988
rg,1625794496796880452,1,0.3169,-0.5046,0.8496,194,-14.0381,103.2715,-14.8926,84,1.1556,0,4.5397,-29.3574,25,0.8174,10373,4.0447,-140.2269
rg,1625794496796935154,1,-0.2849,-0.5303,0.7517,195,9.8267,103.6377,-19.8364,84,1.1556,0,8.2406,-29.4854,25,0.8174,7718,4.0447,-142.9919
rg,1625794496796989338,1,-0.2769,-0.4546,0.7366,196,-2.7466,55.6641,-13.5498,84,1.1556,0,10.2699,-29.9283,25,0.8194,7873,4.0447,-144.6014
rg,1625794496797038929,1,-0.0005,-0.5305,0.7478,197,-11.3525,25.7568,-12.3291,84,1.1566,0,10.5015,-30.7646,25,0.8214,7795,4.0447,-145.6001
rg,1625794496797090113,1,0.0889,-0.4917,0.7368,198,-16.5405,26.5503,-17.4561,84,1.1566,0,10.4068,-31.7458,25,0.8234,7803,4.0447,-146.7843
rg,1625794496797581823,1,0.0493,-0.5938,0.7859,199,-25.5127,44.5557,-30.3345,84,1.1586,0,10.7284,-33.3377,25,0.8244,7909,4.0447,-148.8325
rg,1625794496797645692,1,-0.1155,-0.7107,0.8445,200,-24.5972,55.8472,-37.9028,84,1.1586,0,11.5264,-35.0739,25,0.8274,7902,4.0447,-151.4386
rg,1625794496797701635,1,-0.1909,-0.7522,0.877,201,-19.9585,54.1382,-36.9873,84,1.1566,0,12.3214,-36.6034,25,0.8274,7703,4.0447,-154.0037
rg,1625794496797755430,1,-0.23,-0.8091,0.937,202,-1.8311,42.9688,-33.0811,84,1.1596,0,12.82,-37.3012,25,0.8294,7765,4.0447,-156.1808
rg,1625794496797813040,1,-0.1973,-0.8625,0.9497,203,14.1602,35.3394,-28.6255,84,1.1596,0,12.9223,-36.5536,25,0.8304,7878,4.0447,-157.676
rg,1625794496797861298,1,0.0825,-0.825,0.8845,204,48.3398,33.9355,-15.9302,84,1.1576,0,12.9883,-35.1813,25,0.8284,7825,4.0447,-159.0897
rg,1625794496797957388,1,0.1638,-0.7175,0.8062,205,61.2793,53.2227,-32.5317,84,1.1616,0,13.1683,-33.5213,25,0.8284,7791,4.0447,-161.4989
rg,1625794496798009202,1,0.0537,-0.6248,0.7805,206,60.6689,71.4111,-38.147,84,1.1586,0,14.0995,-31.9914,25,0.8254,7813,4.0447,-164.4682
rg,1625794496798055349,1,-0.2786,-0.5044,0.7688,207,51.0254,90.1489,-37.5977,84,1.1586,0,16.4832,-30.8634,25,0.8254,7849,4.0447,-167.7599
rg,1625794496798136643,1,-0.6079,-0.4045,0.7717,208,34.3628,66.1621,-30.1514,84,1.1596,0,18.8541,-30.134,25,0.8264,7864,4.0447,-170.2237
rg,1625794496798190271,1,-0.7305,-0.2576,0.7625,209,21.5454,37.4146,-22.8271,84,1.1576,0,20.5992,-29.4615,25,0.8264,7892,4.0447,-171.7321
rg,1625794496798236715,1,-0.7603,-0.4038,0.8452,210,-23.8647,-44.7998,-5.6152,84,1.1616,0,19.6541,-30.0239,25,0.8284,7939,4.0447,-170.9439
rg,1625794496798285547,1,-0.3599,-0.6089,0.9146,211,-38.8794,-87.4023,3.8452,84,1.1626,0,15.3785,-30.9358,25,0.8304,7938,4.0447,-167.8588
rg,1625794496798333249,1,-0.0764,-0.5967,0.8975,212,-49.7437,-155.7617,16.1133,84,1.1616,0,9.9865,-32.1616,25,0.8284,7913,4.0447,-163.9735
rg,1625794496798379767,1,0.4275,-0.6675,0.9172,213,-67.9932,-149.5972,20.5078,84,1.1616,0,4.3107,-34.5098,25,0.8234,7946,4.0447,-159.9698
rg,1625794496798427191,1,0.5601,-0.6277,0.8916,214,-74.1577,-126.2817,17.9443,84,1.1566,0,0.3296,-37.3472,25,0.8174,8009,4.0447,-157.2236
rg,1625794496798473875,1,0.6829,-0.7361,1.4172,215,-50.7202,-60.4248,10.9253,84,1.1556,0,-2.1934,-39.0334,25,0.8184,8008,4.0447,-155.3693
rg,1625794496798519634,1,0.8816,-0.3589,0.8618,216,9.3994,2.1362,4.0283,84,1.1566,0,-3.5206,-38.1875,25,0.8194,8054,4.0447,-155.3296
rg,1625794496798772035,1,0.1157,-0.7354,0.7898,217,17.7612,95.6421,-6.2256,84,1.1566,0,-1.0995,-36.7824,25,0.8194,13891,4.0447,-157.5999
rg,1625794496798840163,1,-0.1497,-0.3257,0.6084,218,21.3623,74.4629,-10.2539,84,1.1566,0,1.5733,-35.5973,25,0.8214,8041,4.0447,-159.6932
rg,1625794496798892773,1,-0.1335,-0.5537,0.7434,219,0.7935,49.6216,-6.1035,84,1.1566,0,3.2982,-35.6569,25,0.8224,8060,4.0447,-161.0523
rg,1625794496798947271,1,-0.0032,-0.5117,0.7102,220,-1.9531,38.147,-5.4321,84,1.1576,0,3.9618,-35.9749,25,0.8244,8024,4.0447,-162.2099
rg,1625794496798996881,1,0.1064,-0.5505,0.7434,221,-9.2773,46.0205,-12.207,84,1.1576,0,4.7357,-36.4703,24,0.8264,8398,4.0447,-163.6981
rg,1625794496799051120,1,-0.0083,-0.6428,0.8,222,-14.2822,64.0869,-20.752,84,1.1586,0,6.1073,-37.3319,24,0.8274,8574,4.0447,-165.9197
rg,1625794496799103878,1,-0.209,-0.7021,0.8496,223,-9.7656,69.2139,-26.7334,84,1.1596,0,7.8141,-38.1103,24,0.8314,8697,4.0447,-168.4902
rg,1625794496799152470,1,-0.2842,-0.7544,0.8916,224,-5.249,64.1479,-26.4893,84,1.1606,0,9.4186,-38.777,24,0.8334,8191,4.0447,-170.9588
rg,1625794497148797034,1,0.1497,-0.8518,0.8784,225,57.373,31.25,-15.0757,84,1.1606,0,9.2871,-36.8359,25,0.8314,25208,4.0447,-172.257
rg,1625794497148977937,1,-0.0547,-0.6086,0.7781,226,65.918,81.2988,-34.668,84,1.1596,0,10.8564,-34.7844,25,0.8294,10440,4.0447,-175.3452
rg,1625794497149034954,1,-0.2893,-0.4707,0.7437,227,61.0352,93.3228,-33.0811,84,1.1596,-0.001,13.4909,-32.932,25,0.8294,7597,4.0447,-178.5747
rg,1625794497149090934,1,-0.8323,-0.1274,0.6523,228,26.7334,78.3081,-21.1792,84,1.1596,0,17.0801,-31.9638,25,0.8314,7404,4.0447,-180.9159
rg,1625794497149233246,1,-1.0227,-0.292,0.7307,229,-6.5918,40.4053,-15.1367,84,1.1616,0,17.1036,-33.1585,25,0.8324,7619,4.0447,-180.8865
rg,1625794497149300096,1,-0.8708,-0.6704,0.9028,230,-30.2734,-86.2427,-3.1738,84,1.1626,0,14.9701,-33.9532,25,0.8334,7621,4.0447,-179.0419
rg,1625794497149349429,1,-0.1033,-0.699,0.9165,231,-40.1001,-180.4199,12.6953,84,1.1636,0,8.9419,-34.7293,25,0.8294,9107,4.0447,-174.4803
rg,1625794497149399687,1,0.2996,-0.8579,1.0076,232,-42.9077,-189.6973,14.1602,84,1.1606,0,2.6693,-36.0737,25,0.8294,7687,4.0447,-170.2265
rg,1625794497149481092,1,0.7158,-0.7878,0.9387,233,-29.7241,-126.6479,10.498,84,1.1556,0,-2.3521,-37.3747,25,0.8234,7732,4.0447,-166.8518
rg,1625794497149528961,1,0.875,-0.9116,0.6584,234,35.5225,-42.1753,2.9907,84,1.1556,0,-4.9429,-36.5391,25,0.8234,8847,4.0447,-165.7287
rg,1625794497149589293,1,0.4402,-0.4067,0.7588,235,33.3862,47.1802,-10.437,84,1.1586,0,-4.5145,-34.7848,25,0.8254,9763,4.0447,-167.2166
rg,1625794497150021839,1,0.0916,-0.5022,0.7024,236,40.2222,72.4487,-18.1885,84,1.1576,0,-2.3074,-32.7631,25,0.8244,7728,4.0447,-169.3708
rg,1625794497150074319,1,-0.157,-0.2751,0.6323,237,32.1655,55.542,-18.8599,84,1.1526,0,-0.2374,-31.0764,25,0.8244,7694,4.0447,-171.1932
rg,1625794497150122003,1,0.0105,-0.4473,0.7224,238,13.6108,33.3252,-12.207,84,1.1586,0,0.6338,-30.5566,25,0.8274,7708,4.0447,-172.297
rg,1625794497150167817,1,0.0859,-0.4233,0.7236,239,7.5073,34.3018,-12.2681,84,1.1566,0,1.3075,-30.2594,25,0.8294,7697,4.0447,-173.4173
rg,1625794497150254704,1,0.0281,-0.4832,0.7761,240,-17.9443,66.9556,-18.8599,84,1.1576,0,3.0938,-31.1099,25,0.8314,12274,4.0447,-175.4377
rg,1625794497150302610,1,-0.0513,-0.5356,0.8074,241,-20.0195,73.6084,-21.3013,84,1.1586,0,5.1392,-32.1609,25,0.8334,7847,4.0447,-177.7212
rg,1625794497150468625,1,-0.1958,-0.6694,0.9067,242,-20.2637,73.0591,-23.7427,84,1.1586,0,7.2565,-33.3875,25,0.8364,7877,4.0447,-180.1346
rg,1625794497150522605,1,-0.2434,-0.8223,1.0215,243,-16.4795,68.0542,-23.1934,84,1.1596,0,8.9482,-34.1005,25,0.8374,7938,4.0447,-182.296
rg,1625794497150567586,1,-0.2026,-0.8997,1.0291,244,13.7939,52.5513,-19.7754,84,1.1606,0,10.2167,-34.1314,25,0.8374,7993,4.0447,-184.2008
rg,1625794497150615918,1,0.0996,-0.8655,0.9268,245,51.7578,44.3115,-15.0146,84,1.1616,0,10.7864,-32.6902,25,0.8354,9313,4.0447,-185.7761
rg,1625794497150669657,1,-0.0044,-0.646,0.844,246,62.0117,67.4438,-31.25,84,1.1606,0,11.994,-30.9023,25,0.8324,7925,4.0447,-188.3542
rg,1625794497150720656,1,-0.4197,-0.3899,0.7449,247,50.0488,84.8389,-29.3579,84,1.1616,-0.001,14.8904,-29.4282,25,0.8334,7956,4.0447,168.8809
rg,1625794497150769636,1,-0.6475,-0.2603,0.7542,248,35.2173,75.4395,-24.9634,84,1.1596,0,17.9686,-28.3711,25,0.8324,7866,4.0447,166.5442
rg,1625794497150816358,1,-0.9624,-0.4111,0.7964,249,-13.3057,3.7842,-13.0615,84,1.1626,0,18.947,-29.0442,25,0.8354,8056,4.0447,165.9908
rg,1625794497150862060,1,-0.5625,-0.6768,0.947,250,-30.2734,-113.1592,1.6479,84,1.1636,0,15.3252,-29.7826,25,0.8374,8086,4.0447,168.3051
rg,1625794497150911652,1,-0.231,-0.6072,0.8887,251,-30.3345,-153.1982,7.6904,84,1.1626,0,10.0762,-30.4119,25,0.8354,8088,4.0447,-188.3126
rg,1625794497150962688,1,0.3374,-0.6819,0.9216,252,-40.9546,-157.4707,12.4512,84,1.1626,0,3.9604,-31.8162,25,0.8324,8091,4.0447,-184.6302
rg,1625794497151122980,1,0.4497,-0.5598,0.8672,253,-48.8892,-94.7876,10.437,84,1.1576,0,-0.0342,-33.7121,25,0.8264,8110,4.0447,-182.2091
rg,1625794497151208145,1,0.4009,-0.4565,1.3755,254,-49.7437,-68.8477,7.3853,84,1.1576,0,-2.9944,-36.2279,25,0.8274,8463,4.0447,-180.367
rg,1625794497151255533,1,0.6064,-0.4788,0.7334,255,23.8647,-42.1753,7.3853,84,1.1556,0,-5.3766,-35.2562,25,0.8254,8205,4.0447,-179.1548
rg,1625794497151307624,1,0.1479,-0.5806,0.8345,256,10.437,42.6025,0.7935,84,1.1556,0,-4.0827,-34.7353,25,0.8254,8243,4.0447,-180.1152
rg,1625794497495460398,1,0.0938,-0.5049,0.7756,257,-17.395,37.5366,1.77,84,1.1556,0,-2.8849,-35.3053,25,0.8284,25355,4.0447,-180.928
rg,1625794497495535082,1,0.1013,-0.5469,0.7825,258,-26.7944,49.8657,-1.1597,84,1.1556,0,-1.4305,-36.3674,25,0.8304,14723,4.0447,-182.1343
rg,1625794497495587803,1,0.0896,-0.5972,0.7944,259,-32.4707,65.7349,-8.728,84,1.1556,0,0.3018,-37.6575,25,0.8314,7678,4.0447,-183.9977
rg,1625794497495636339,1,-0.0508,-0.6953,0.8301,260,-34.668,80.2612,-20.4468,84,1.1566,0,2.3905,-39.1838,25,0.8334,7691,4.0447,-186.6388
rg,1625794497495684337,1,-0.1526,-0.7563,0.8638,261,-33.02,86.6699,-24.8413,84,1.1566,0,4.5996,-40.7538,25,0.8354,7690,4.0447,170.3588
rg,1625794497495730614,1,-0.301,-0.78,0.8857,262,-19.7754,78.7354,-28.1372,84,1.1576,0,6.5919,-41.8436,25,0.8374,10516,4.0447,167.4142
rg,1625794497495775039,1,-0.355,-0.9299,1,263,3.9062,61.2793,-27.8931,84,1.1586,0,7.9738,-42.035,25,0.8364,7694,4.0447,164.9204
rg,1625794497495820742,1,-0.2368,-0.9036,0.9409,264,26.123,49.9268,-22.7661,84,1.1596,0,8.7411,-40.3977,25,0.8364,7836,4.0447,163.3263
rg,1625794497495865648,1,-0.061,-0.8818,0.8984,265,65.0024,29.48,-18.1274,84,1.1586,0,8.954,-38.1619,25,0.8344,7736,4.0447,161.9734
rg,1625794497495911147,1,0.0789,-0.7065,0.7783,266,80.1392,31.0669,-36.6821,84,1.1576,0,8.5458,-35.4166,25,0.8324,7774,4.0447,159.9942
rg,1625794497495955257,1,-0.0164,-0.5608,0.7375,267,76.355,47.6685,-43.5791,84,1.1566,0,9.6571,-33.0416,25,0.8294,8044,4.0447,157.0882
rg,1625794497496033626,1,-0.3328,-0.4153,0.7197,268,57.6782,67.5049,-42.3584,84,1.1536,0,11.5097,-31.1538,25,0.8264,7953,4.0447,154.1967
rg,1625794497496082550,1,-0.6201,-0.3848,0.7246,269,28.5034,42.8467,-34.668,84,1.1566,0,13.2436,-30.3593,25,0.8264,7786,4.0447,152.1091
rg,1625794497496124827,1,-0.6628,-0.4275,0.7959,270,15.0757,9.5825,-28.6255,84,1.1556,0,13.8831,-29.9658,25,0.8274,7861,4.0447,150.9153
rg,1625794497496175104,1,-0.4045,-0.6206,0.9031,271,1.2207,-58.6548,-18.4326,84,1.1566,0,11.7421,-29.9605,25,0.8284,7835,4.0447,151.4267
rg,1625794497496219547,1,-0.0156,-0.6003,0.9229,272,-0.1831,-82.8857,-8.7891,84,1.1586,0,8.2742,-29.8461,25,0.8304,8400,4.0447,152.7754
rg,1625794497496262694,1,0.2173,-0.6104,0.927,273,-1.4038,-67.0776,-2.9297,84,1.1576,0,5.1469,-29.8869,25,0.8334,7828,4.0447,154.0021
rg,1625794497496307397,1,0.2346,-0.5051,0.8506,274,-2.5635,-50.5371,0,84,1.1586,0,2.6825,-29.9443,25,0.8334,7917,4.0447,155.0123
rg,1625794497496352285,1,0.0898,-0.4734,0.8271,275,-21.9116,-16.4185,0.3052,84,1.1616,0,1.8057,-30.7908,25,0.8344,7870,4.0447,155.3586
rg,1625794497496395617,1,-0.1052,-0.3628,0.7449,276,-32.2876,-10.376,1.8311,84,1.1606,0,1.694,-32.416,25,0.8284,7937,4.0447,155.6361
rg,1625794497496439505,1,-0.1277,-0.3279,0.7556,277,-60.9131,-21.4844,4.4556,84,1.1526,0,1.3599,-34.4718,25,0.8194,7991,4.0447,156.2658
rg,1625794497496481856,1,0.0815,-0.6179,1.0823,278,-44.0063,-32.7759,9.0942,84,1.1556,0,0.3025,-36.0158,25,0.8234,8121,4.0447,157.3281
rg,1625794497496525300,1,0.377,-0.4902,0.4949,279,0.1831,-43.7622,11.6577,84,1.1556,0,-1.0115,-36.0512,25,0.8244,8013,4.0447,157.997
rg,1625794497496568465,1,0.0566,-0.7249,1.0269,280,-33.3252,19.043,6.1035,84,1.1536,0,-0.3197,-37.3355,25,0.8234,8026,4.0447,157.7359
rg,1625794497496610668,1,0.3071,-0.4907,0.793,281,-2.0142,-18.1274,-0.1221,84,1.1556,0,-1.5938,-37.2046,25,0.8264,8111,4.0447,158.1689
rg,1625794497496653648,1,0.3313,-0.4392,0.7905,282,-5.3101,4.0894,-1.709,84,1.1556,0,-0.7763,-37.7668,25,0.8264,8085,4.0447,157.2249
rg,1625794497496729887,1,0.0332,-0.6399,0.8835,283,-17.9443,51.6357,-3.7842,84,1.1526,0,0.7098,-38.3989,25,0.8254,8102,4.0447,155.8278
rg,1625794497496776646,1,-0.1426,-0.502,0.7588,284,-18.9819,46.4478,-6.2866,84,1.1546,0,2.3189,-38.9904,25,0.8274,8117,4.0447,154.4686
rg,1625794497496819570,1,-0.1301,-0.5671,0.7832,285,-23.5596,36.7432,-9.9487,80,1.1546,0,2.991,-40.0273,25,0.8274,8204,4.0447,153.3461
rg,1625794497496862347,1,-0.1272,-0.6165,0.7896,286,-29.7241,17.395,-19.104,80,1.1526,0,3.1869,-41.1787,25,0.8274,8179,4.0447,152.315
rg,1625794497496905513,1,-0.0671,-0.7935,0.8926,287,-28.9917,3.2349,-27.4658,80,1.1516,0,2.5519,-42.3888,25,0.8294,8883,4.0447,151.4095
rg,1625794497496947790,1,-0.0283,-0.8442,0.9053,288,-14.7095,6.897,-31.1279,80,1.1566,0,1.86,-43.0321,25,0.8324,8380,4.0447,150.3078
rg,1625794497835992478,1,-0.01,-0.9302,0.8977,289,49.1943,2.7466,-28.8696,80,1.1576,0,1.1111,-41.2013,25,0.8334,24850,4.0447,149.3743
rg,1625794497836076754,1,0.3516,-0.803,0.7544,290,89.4165,33.02,-30.7007,80,1.1566,0,0.6125,-37.8631,25,0.8304,13060,4.0447,147.5597
rg,1625794497836130753,1,0.1272,-0.6047,0.6987,291,88.501,83.6792,-47.6074,80,1.1546,0,1.843,-34.5181,25,0.8274,7681,4.0447,144.0337
rg,1625794497836181733,1,-0.0691,-0.5232,0.6741,292,83.1909,104.4922,-49.1943,80,1.1526,0,4.3679,-31.5352,25,0.8234,7676,4.0447,140.0987
rg,1625794497836231010,1,-0.3965,-0.5466,0.708,293,64.6362,106.2622,-47.5464,80,1.1506,0,7.8016,-29.5763,25,0.8204,7709,4.0447,136.2756
rg,1625794497836277231,1,-0.5139,-0.5396,0.7358,294,54.3213,62.8662,-41.3208,80,1.1486,0,10.0335,-28.0515,25,0.8184,7699,4.0447,133.5635
rg,1625794497836321934,1,-0.4756,-0.4832,0.7349,295,49.9878,37.9639,-36.8042,80,1.1486,0,11.4141,-26.616,25,0.8174,8704,4.0447,131.5008
rg,1625794497836364951,1,-0.3809,-0.314,0.7393,296,36.5601,1.2817,-21.9727,80,1.1446,0,11.621,-25.1841,25,0.8164,8260,4.0447,130.707
rg,1625794497836409913,1,-0.3845,-0.3599,0.9092,297,-1.0376,-21.0571,-2.3193,80,1.1506,0,11.208,-25.0287,25,0.8204,7795,4.0447,131.017
rg,1625794497836493855,1,-0.4692,-0.4153,0.8982,298,-16.3574,-32.0435,6.2866,80,1.1506,0,10.7136,-25.517,25,0.8224,7685,4.0447,131.8088
rg,1625794497836541447,1,-0.4285,-0.5652,0.9333,299,-39.0015,-78.186,25.2686,80,1.1556,0,8.7865,-26.8852,25,0.8234,7708,4.0447,134.0899
rg,1625794497836586187,1,-0.0417,-0.4956,0.8235,300,-47.9126,-112.6099,30.3345,80,1.1566,0,4.634,-29.0991,25,0.8234,7758,4.0447,137.6533
rg,1625794497836632463,1,0.1926,-0.5188,0.8594,301,-79.1016,-136.7798,31.9824,80,1.1536,0,-0.0039,-32.1667,25,0.8164,7753,4.0447,141.5553
rg,1625794497836678166,1,0.5896,-0.4033,0.9019,302,-95.7642,-118.4692,23.0103,80,1.1496,0,-4.5569,-35.8418,25,0.8094,7764,4.0447,145.0077
rg,1625794497836721313,1,0.6187,-0.3376,1.6182,303,-79.5288,-83.4961,13.6719,80,1.1516,0,-7.515,-38.3955,25,0.8144,7821,4.0447,147.4188
rg,1625794497836765145,1,0.9221,0.0044,0.8013,304,7.2632,-30.6396,-2.0142,80,1.1506,0,-10.0696,-37.2624,25,0.8134,7927,4.0447,147.9732
rg,1625794497836809274,1,0.1348,-0.9902,1.0588,305,-15.1978,80.5664,-20.813,80,1.1506,0,-7.8424,-37.6778,25,0.8164,7883,4.0447,145.3551
rg,1625794497836852384,1,-0.0293,-0.5027,0.7539,306,9.7046,60.9131,-22.8271,80,1.1496,0,-6.0822,-36.8537,25,0.8154,7932,4.0447,143.1147
rg,1625794497836896291,1,-0.1848,-0.6191,0.8206,307,-9.0332,56.2134,-5.9814,80,1.1516,0,-3.8011,-37.0786,24,0.8154,7924,4.0447,141.5625
rg,1625794497836938456,1,0.1294,-0.5,0.7429,308,-10.2539,27.5269,-1.77,80,1.1506,0,-3.1455,-37.3113,24,0.8184,7904,4.0447,140.8285
rg,1625794497836981252,1,0.2444,-0.5391,0.7715,309,-15.9912,35.3394,-2.6855,80,1.1496,-0.001,-2.5437,-37.8023,24,0.8184,7939,4.0447,139.8739
rg,1625794497837023714,1,0.0642,-0.5967,0.7485,310,-18.0054,64.7583,-15.8081,80,1.1496,0,-0.5805,-38.4744,24,0.8214,11957,4.0447,137.1621
rg,1625794497837072231,1,-0.0967,-0.6797,0.7981,311,-19.7144,89.0503,-27.5879,80,1.1506,0,1.8513,-39.4135,25,0.8244,9564,4.0447,134.009
rg,1625794497837116286,1,-0.3538,-0.8259,0.854,312,-12.146,78.3691,-29.541,80,1.1506,0,4.0666,-40.2153,25,0.8264,7988,4.0447,131.0797
rg,1625794497837157507,1,-0.3701,-0.8008,0.8755,313,6.958,45.8984,-22.8882,80,1.1506,0,5.3904,-40.1686,25,0.8274,8031,4.0447,129.1836
rg,1625794497837198969,1,-0.3015,-0.8445,0.8967,314,19.2871,32.1045,-17.8833,80,1.1516,0,5.8523,-39.0428,25,0.8294,8052,4.0447,128.0517
rg,1625794497837243727,1,-0.0386,-0.9119,0.8933,315,53.7109,20.3857,-13.3057,80,1.1516,0,5.9995,-37.2466,25,0.8274,8562,4.0447,127.0954
rg,1625794497837284319,1,0.217,-0.8591,0.8013,316,81.3599,37.2925,-20.0806,80,1.1546,0,6.0917,-34.536,25,0.8274,8513,4.0447,125.5049
rg,1625794497837362650,1,0.0554,-0.6638,0.7283,317,86.9141,77.8809,-39.6118,80,1.1546,0,7.4571,-31.7325,25,0.8274,8084,4.0447,122.4107
rg,1625794497837407705,1,-0.0942,-0.5757,0.7095,318,82.9468,95.0317,-42.1143,80,1.1516,0,9.8025,-29.2214,25,0.8244,8102,4.0447,118.9521
rg,1625794497837451019,1,-0.4299,-0.5383,0.7397,319,65.3687,101.4404,-42.8467,80,1.1536,0,13.1417,-27.5521,25,0.8224,8199,4.0447,115.4118
rg,1625794497837495073,1,-0.7422,-0.3528,0.7288,320,46.5088,65.979,-34.668,80,1.1526,0,15.9664,-26.2675,25,0.8214,8179,4.0447,112.9263
rg,1625794498188563761,1,-0.7124,-0.4875,0.876,321,-20.9961,-91.8579,2.5635,80,1.1566,0,13.4894,-26.738,25,0.8274,25451,4.0447,114.695
rg,1625794498188647648,1,0.0598,-0.5579,0.8926,322,-55.603,-175.8423,21.3623,80,1.1576,0,7.0309,-28.4324,25,0.8274,10487,4.0447,118.7363
rg,1625794498188699628,1,0.5718,-0.6079,0.9182,323,-73.5474,-157.6538,15.1367,80,1.1566,0,0.6123,-31.2902,25,0.8234,7759,4.0447,122.4185
rg,1625794498188748794,1,0.7227,-0.5327,0.8953,324,-80.5664,-126.77,11.5356,80,1.1546,0,-4.6786,-34.5902,25,0.8194,7585,4.0447,125.603
rg,1625794498188796256,1,0.9446,-1.0247,0.9341,325,-31.0059,-37.6587,2.9297,80,1.1556,0,-6.9525,-36.3453,25,0.8214,7685,4.0447,126.6291
rg,1625794498188844903,1,0.9121,-0.5217,0.7993,326,17.0288,-13.4277,-6.5308,80,1.1556,0,-6.6234,-36.0507,25,0.8204,7743,4.0447,125.0297
rg,1625794498188892883,1,0.1741,-0.7578,0.9392,327,6.0425,105.7129,-15.5029,80,1.1536,0,-3.6375,-35.6448,25,0.8194,9012,4.0447,122.0458
rg,1625794498188939401,1,-0.1841,-0.2617,0.6165,328,28.0151,83.4351,-21.0571,80,1.1536,0,-0.6543,-33.9429,25,0.8204,8900,4.0447,119.4264
rg,1625794498188987548,1,-0.2019,-0.5095,0.7585,329,2.5635,56.5796,-14.0991,80,1.1556,0,1.4161,-33.8418,25,0.8214,9636,4.0447,117.6949
rg,1625794498189033380,1,0.0549,-0.4622,0.7183,330,-4.4556,30.3955,-20.0806,80,1.1556,0,1.7706,-34.0056,25,0.8244,7686,4.0447,116.3496
rg,1625794498189078712,1,0.124,-0.4734,0.7356,331,-10.498,32.4097,-25.0244,80,1.1536,0,1.887,-34.4168,25,0.8254,7704,4.0447,114.7937
rg,1625794498189123656,1,-0.0432,-0.7256,0.8547,332,-18.1885,51.4526,-34.3628,80,1.1556,0,3.0035,-35.4443,25,0.8304,7764,4.0447,112.1289
rg,1625794498189169433,1,-0.1675,-0.8123,0.915,333,-11.9629,64.5752,-39.0015,80,1.1566,0,4.3611,-36.3329,25,0.8324,7946,4.0447,109.3301
rg,1625794498189212580,1,-0.3037,-0.8313,0.9333,334,10.9253,48.7671,-35.1562,80,1.1566,0,5.4589,-36.2913,25,0.8344,7865,4.0447,107.018
rg,1625794498189257023,1,-0.1892,-0.843,0.9712,335,24.5361,32.4707,-31.25,80,1.1576,0,5.6262,-35.0247,25,0.8344,8083,4.0447,105.4863
rg,1625794498189346596,1,-0.0645,-0.866,0.9563,336,58.4106,19.4092,-24.5972,80,1.1586,0,5.6071,-33.0922,25,0.8334,7925,4.0447,104.2012
rg,1625794498189396687,1,0.2166,-0.8318,0.8547,337,91.6748,30.0903,-21.4233,80,1.1596,0,5.5633,-29.9961,25,0.8314,7897,4.0447,102.7744
rg,1625794498189442112,1,0.1348,-0.614,0.7502,338,96.9849,43.5791,-32.8979,80,1.1586,0,6.5281,-26.7672,25,0.8304,8069,4.0447,100.0299
rg,1625794498189485259,1,-0.0225,-0.4878,0.7222,339,93.0786,85.8154,-42.8467,80,1.1556,0,8.6892,-23.7425,25,0.8264,7962,4.0447,96.9495
rg,1625794498189527184,1,-0.3606,-0.46,0.7351,340,70.8008,98.3276,-42.7856,80,1.1556,0,12.1836,-21.7902,25,0.8264,7935,4.0447,93.7602
rg,1625794498189568535,1,-0.6301,-0.3418,0.7522,341,60.9131,85.144,-39.917,80,1.1546,0,14.9835,-20.3891,25,0.8244,8018,4.0447,91.5247
rg,1625794498189894176,1,-0.7083,-0.2375,0.7576,342,36.8042,31.9824,-23.7427,80,1.1526,0,16.8784,-19.2011,25,0.8234,7970,4.0447,90.1811
rg,1625794498189953101,1,-0.6658,-0.4006,0.9155,343,-6.1035,-43.1519,-1.1597,80,1.1566,0,15.8929,-19.4368,25,0.8274,8056,4.0447,90.689
rg,1625794498190005618,1,-0.4399,-0.4395,0.8557,344,-16.3574,-75.9888,7.6904,80,1.1566,0,12.6973,-19.9942,25,0.8314,8064,4.0447,92.878
rg,1625794498190049043,1,-0.251,-0.3987,0.8298,345,-33.9966,-126.709,30.2124,80,1.1586,0,8.4938,-21.0201,25,0.8294,8100,4.0447,95.7904
rg,1625794498190097098,1,0.2551,-0.52,0.9109,346,-65.0024,-154.9072,37.2314,80,1.1616,0,2.5007,-23.5812,25,0.8294,8128,4.0447,99.505
rg,1625794498190146912,1,0.6802,-0.5217,0.939,347,-75.5005,-145.874,33.9355,80,1.1586,0,-2.7492,-27.0935,25,0.8224,8176,4.0447,102.638
rg,1625794498190196151,1,0.7607,-0.436,0.9343,348,-88.3789,-85.8765,20.6299,80,1.1566,0,-6.5961,-30.7425,25,0.8214,8910,4.0447,105.0657
rg,1625794498190241447,1,1.002,-0.9968,0.6228,349,-13.6719,-3.9673,15.4419,80,1.1586,0,-7.6905,-32.1569,25,0.8224,10093,4.0447,105.7853
rg,1625794498190284816,1,0.4426,-0.5168,0.8848,350,-13.7939,92.5903,-5.5542,80,1.1546,0,-5.3036,-32.3843,25,0.8214,8266,4.0447,103.5911
rg,1625794498190327019,1,-0.1758,-0.5344,0.7749,351,12.7563,104.0039,-17.0898,80,1.1586,0,-1.5376,-31.7868,25,0.8234,8257,4.0447,100.8051
rg,1625794498190375536,1,-0.2847,-0.321,0.6543,352,12.5732,81.9092,-18.4937,80,1.1556,0,1.3785,-31.8796,25,0.8254,8308,4.0447,98.7871
rg,1625794498537316062,1,-0.0508,-0.5891,0.8418,353,-24.9634,24.353,-27.771,80,1.1576,0,1.6819,-33.1748,25,0.8314,25378,4.0447,97.3188
rg,1625794498537454596,1,-0.1575,-0.8992,1.0059,354,-4.5166,20.2026,-33.8135,80,1.1576,0,1.8048,-33.7326,25,0.8344,10553,4.0447,95.734
rg,1625794498537512780,1,-0.1301,-0.8379,0.9666,355,31.25,6.4697,-31.4941,80,1.1586,0,1.488,-32.7944,25,0.8354,9411,4.0447,94.5321
rg,1625794498537579500,1,-0.0442,-0.855,0.9092,356,51.2695,1.5259,-28.2593,80,1.1596,0,0.7985,-30.4126,25,0.8354,8690,4.0447,93.7968
rg,1625794498537629962,1,0.2969,-0.7344,0.813,357,79.895,12.146,-19.165,80,1.1606,0,0.2265,-27.6712,25,0.8344,7551,4.0447,92.8687
rg,1625794498537680887,1,0.2549,-0.646,0.7561,358,78.9185,52.2461,-42.9688,80,1.1596,0,0.7574,-25.0274,25,0.8324,7619,4.0447,90.3842
rg,1625794498537727497,1,0.0864,-0.52,0.7126,359,75.2563,79.5288,-44.9829,80,1.1586,0,2.6802,-22.5431,25,0.8304,7777,4.0447,87.4407
rg,1625794498537773459,1,-0.4575,-0.2163,0.6323,360,52.6123,113.8306,-35.7666,80,1.1576,0,7.5587,-20.588,25,0.8294,8859,4.0447,84.4518
rg,1625794498537822217,1,-1.0393,-0.2051,0.6206,361,-1.9531,73.2422,-12.5122,80,1.1596,0,11.8504,-20.8713,25,0.8334,7673,4.0447,82.9273
rg,1625794498537867087,1,-1.1467,-0.3855,0.7981,362,-27.2217,11.8408,0.3662,80,1.1596,0,13.7639,-22.1141,25,0.8334,7714,4.0447,82.7237
rg,1625794498537914215,1,-0.6975,-0.5027,0.8098,363,-50.7812,-129.0894,26.001,80,1.1636,0,10.3032,-23.8179,25,0.8344,7754,4.0447,85.6799
rg,1625794498537961103,1,0.188,-0.7407,0.9343,364,-67.1387,-207.9468,36.377,80,1.1636,0,2.6989,-26.5041,25,0.8354,7912,4.0447,90.4746
rg,1625794498538007917,1,0.5903,-0.7219,0.9187,365,-65.4907,-201.5381,38.208,80,1.1596,0,-4.77,-29.6117,25,0.8294,7770,4.0447,95.619
rg,1625794498538053583,1,0.9832,-0.5657,0.9099,366,-71.167,-111.0229,28.5645,80,1.1566,0,-9.3399,-32.916,25,0.8254,8209,4.0447,98.9701
rg,1625794498538101045,1,1.1472,-0.8994,0.635,367,16.5405,-7.9346,18.3105,80,1.1596,0,-10.5817,-32.9821,25,0.8284,7796,4.0447,99.8636
rg,1625794498538147840,1,0.8625,-0.3931,0.739,368,24.231,38.6963,4.8218,80,1.1596,0,-9.5213,-31.97,25,0.8284,7890,4.0447,99.192
rg,1625794498538288855,1,0.0105,-0.7329,0.7737,369,39.2456,134.3384,-3.479,80,1.1566,0,-4.675,-30.4903,25,0.8264,7820,4.0447,96.3394
rg,1625794498538356743,1,-0.3181,-0.3135,0.614,370,44.6167,95.7642,-4.0283,80,1.1576,0,-0.3223,-28.4928,25,0.8284,7967,4.0447,94.3187
rg,1625794498538408001,1,-0.3052,-0.4932,0.7288,371,34.0576,69.2749,-0.5493,80,1.1546,0,2.86,-27.3658,25,0.8274,7853,4.0447,93.0077
rg,1625794498538453611,1,-0.051,-0.4978,0.7292,372,31.7383,27.6489,1.709,80,1.1556,0,3.8911,-26.3937,25,0.8274,7835,4.0447,92.5531
rg,1625794498538499388,1,0.1235,-0.4937,0.7249,373,27.4048,23.6816,-3.7842,80,1.1556,0,4.2049,-25.6417,25,0.8314,7982,4.0447,91.9746
rg,1625794498538553035,1,0.1101,-0.5154,0.7363,374,25.6958,32.0435,-8.728,80,1.1516,0,4.7701,-25.0457,25,0.8304,7949,4.0447,91.0767
rg,1625794498538604441,1,0.0034,-0.5637,0.7473,375,26.062,43.396,-17.4561,80,1.1526,0,5.8522,-24.6,25,0.8334,7940,4.0447,89.6663
rg,1625794498538655977,1,-0.0515,-0.5569,0.7317,376,26.9165,43.7012,-19.5923,80,1.1536,-0.001,7.0078,-24.1924,25,0.8354,7940,4.0447,87.9957
rg,1625794498538705402,1,-0.0657,-0.5376,0.7261,377,28.7476,44.9219,-24.7192,80,1.1516,0,8.1334,-23.7445,25,0.8354,7852,4.0447,86.2864
rg,1625794498538755197,1,-0.1055,-0.4578,0.6873,378,29.0527,48.2788,-28.3203,80,1.1536,0,9.4147,-23.2512,25,0.8374,8026,4.0447,84.3992
rg,1625794498538800233,1,-0.1433,-0.4028,0.6526,379,26.9775,47.4854,-28.1372,80,1.1536,0,10.9139,-22.8151,25,0.8384,8064,4.0447,82.4953
rg,1625794498538848177,1,-0.2869,-0.2769,0.5916,380,18.7378,42.2363,-33.3862,80,1.1526,-0.001,12.4517,-22.5352,25,0.8384,8788,4.0447,80.5576
rg,1625794498538895046,1,-0.4075,-0.2954,0.6094,381,4.8828,15.625,-33.0811,80,1.1546,0,13.2359,-22.7842,25,0.8394,8014,4.0447,79.0334
rg,1625794498538936767,1,-0.3564,-0.3909,0.6794,382,0.061,-26.8555,-28.3813,80,1.1566,0,12.249,-23.1803,25,0.8414,8156,4.0447,78.3334
rg,1625794498538983600,1,-0.269,-0.4346,0.7183,383,3.1128,-46.2646,-25.9399,80,1.1546,0,10.3655,-23.4009,25,0.8414,8187,4.0447,78.0461
rg,1625794498539092430,1,-0.0076,-0.5962,0.8054,384,21.9727,-72.998,-17.2729,80,1.1576,0,7.0387,-22.96,25,0.8424,8225,4.0447,78.4748
rg,1625794498885876848,1,0.3406,-0.4963,0.7407,385,80.1392,-54.1382,-18.9819,80,1.1586,0,4.1203,-19.8075,25,0.8414,23085,4.0447,78.1843
rg,1625794498885962939,1,0.2324,-0.4258,0.718,386,100.769,-25.4517,-25.6348,80,1.1596,0,2.2382,-16.1807,25,0.8394,14489,4.0447,77.4789
rg,1625794498886016086,1,0.1116,-0.365,0.7136,387,109.7412,-23.5596,-24.353,80,1.1586,0,0.692,-12.246,25,0.8384,7777,4.0447,76.7365
rg,1625794498886066974,1,0.0747,-0.3213,0.6931,388,116.4551,-31.3721,-19.4702,80,1.1586,0,-0.9221,-8.0936,25,0.8364,7706,4.0447,76.1776
rg,1625794498886113732,1,0.0769,-0.2893,0.6877,389,120.7886,-35.9497,-14.7095,80,1.1586,0,-2.6044,-3.8375,25,0.8364,7720,4.0447,75.7443
rg,1625794498886160046,1,0.1099,-0.239,0.6663,390,125.3662,-43.2129,-5.6152,80,1.1586,0,-4.5809,0.5556,25,0.8354,7771,4.0447,75.5878
rg,1625794498886204193,1,0.1506,-0.2212,0.6755,391,127.6245,-44.4946,-2.0752,80,1.1606,-0.001,-6.7409,4.9756,25,0.8354,8205,4.0447,75.6704
rg,1625794498886250488,1,0.1709,-0.2295,0.6936,392,131.2866,-47.9736,7.6904,80,1.1576,0,-8.9514,9.3178,25,0.8344,8121,4.0447,75.8306
rg,1625794498886295765,1,0.2603,-0.2646,0.7178,393,133.1787,-48.5229,16.4795,80,1.1606,0,-11.4095,13.5042,25,0.8374,7841,4.0447,76.2485
rg,1625794498886341023,1,0.3044,-0.2546,0.7058,394,134.5215,-46.1426,20.1416,80,1.1586,0,-13.7583,17.937,25,0.8374,7796,4.0447,76.889
rg,1625794498886384096,1,0.3386,-0.218,0.6882,395,149.4751,-32.1045,21.3623,80,1.1596,0,-15.7976,22.5689,25,0.8364,7811,4.0447,77.5307
rg,1625794498886427207,1,0.3252,-0.2163,0.6946,396,161.499,-23.5596,20.752,80,1.1606,0,-17.467,27.5162,25,0.8394,7895,4.0447,78.258
rg,1625794498886471724,1,0.3257,-0.2244,0.7231,397,168.396,-20.3247,21.1792,80,1.1606,-0.001,-19.0152,32.5666,25,0.8384,7901,4.0447,79.0524
rg,1625794498886565352,1,0.3374,-0.2458,0.7681,398,180.1758,-9.2163,25.0854,80,1.1606,0,-20.305,37.8199,25,0.8384,7748,4.0447,80.24
rg,1625794498886615165,1,0.3206,-0.1853,0.7349,399,205.9326,5.9814,29.2358,80,1.1616,0,-21.2972,43.8726,25,0.8414,7900,4.0447,81.9468
rg,1625794498886660146,1,0.3096,-0.1396,0.7253,400,215.8203,12.5732,32.7759,80,1.1606,0,-22.3229,50.1308,25,0.8404,7916,4.0447,83.9557
rg,1625794498886702627,1,0.3289,-0.092,0.7417,401,221.6187,28.2593,42.4194,80,1.1626,0,-23.4573,56.2617,25,0.8424,7950,4.0447,86.7393
rg,1625794498886743477,1,0.3354,-0.0483,0.7749,402,238.7085,49.3774,53.3447,80,1.1626,0,-24.7402,62.5628,25,0.8424,7998,4.0447,90.5511
rg,1625794498886784717,1,0.2886,0.0676,0.7356,403,252.8076,69.8853,66.5283,80,1.1616,0,-26.3354,68.9315,25,0.8434,11938,4.0447,95.3885
rg,1625794498886828235,1,0.2622,0.198,0.7175,404,255.6763,80.2002,75.1343,88,1.1616,0,-28.3577,75.1252,25,0.8444,8348,4.0414,100.7096
rg,1625794498886870678,1,0.2478,0.2869,0.7361,405,251.8311,81.9702,75.1953,88,1.1616,0,-30.653,80.9792,25,0.8464,9810,4.0414,106.0548
rg,1625794498886913326,1,0.2292,0.3328,0.7407,406,247.7417,80.7495,71.0449,88,1.1616,0,-33.0878,86.5033,25,0.8464,8159,4.0414,111.2933
rg,1625794498886963676,1,0.1719,0.4592,0.7295,407,236.084,74.2798,62.0117,88,1.1626,0,-35.223,91.6646,25,0.8464,8081,4.0414,116.1389
rg,1625794498887008583,1,0.1882,0.5969,0.7251,408,216.98,62.1338,54.7485,88,1.1636,0,-37.1952,96.4073,25,0.8464,8224,4.0414,120.3004
rg,1625794498887050267,1,0.1914,0.6746,0.7908,409,197.937,61.6455,51.3306,88,1.1636,0,-39.0736,99.3394,25,0.8484,8175,4.0414,124.749
rg,1625794498887091600,1,0.1536,0.6707,0.8418,410,165.7104,75.0732,44.9219,88,1.1616,0,-40.9518,101.1431,25,0.8464,8201,4.0414,129.8263
rg,1625794498887135599,1,0.0391,0.6663,0.9373,411,133.9722,83.1909,41.9312,88,1.1636,0,-42.6873,101.047,25,0.8474,8250,4.0414,135.6104
rg,1625794498887178338,1,-0.0657,0.6638,1.022,412,117.6758,80.0781,39.3677,88,1.1626,0,-44.1528,100.1116,25,0.8484,8210,4.0414,141.5217
rg,1625794498887249226,1,-0.1096,0.668,1.0615,413,109.314,76.5381,37.9639,88,1.1636,0,-45.3874,98.7342,25,0.8494,8288,4.0414,147.4979
rg,1625794498887294743,1,-0.1809,0.6577,1.1179,414,93.8721,68.9087,37.2314,88,1.1626,0,-46.4065,96.8436,25,0.8484,8328,4.0414,153.2741
rg,1625794498887336576,1,-0.262,0.6133,1.177,415,78.7354,60.8521,35.2783,88,1.1646,0,-47.1556,94.491,25,0.8474,8339,4.0414,158.8135
rg,1625794498887378390,1,-0.3511,0.5786,1.2393,416,68.6035,52.7344,35.7666,88,1.1646,0,-47.7276,91.9588,25,0.8504,8384,4.0414,164.0396
rg,1625794499243216446,1,-0.5437,0.5186,1.3057,417,54.5654,13.7939,32.4097,88,1.1636,0,-47.9425,90.579,25,0.8494,25696,4.0414,167.0167
rg,1625794499243294092,1,-0.5466,0.4849,1.2986,418,54.7485,-33.3862,29.2358,88,1.1636,0,-48.003,91.2831,25,0.8494,14763,4.0414,167.2168
rg,1625794499243346888,1,-0.5103,0.4966,1.2822,419,55.4199,-62.3779,21.4844,88,1.1646,0,-47.7137,93.2834,25,0.8504,7661,4.0414,165.7018
rg,1625794499243395664,1,-0.4587,0.51,1.2686,420,56.0303,-76.9653,18.6157,88,1.1636,0,-47.2683,95.8697,25,0.8504,7728,4.0414,163.3613
rg,1625794499243440515,1,-0.3691,0.5271,1.2698,421,54.8706,-94.9707,9.3994,88,1.1646,0,-46.3205,99.0352,25,0.8504,7682,4.0414,160.0852
rg,1625794499243486163,1,-0.2312,0.5491,1.2527,422,53.2227,-109.0698,2.6855,88,1.1646,0,-44.9815,102.4547,25,0.8504,8160,4.0414,156.2057
rg,1625794499243531069,1,-0.0845,0.6057,1.2083,423,51.1475,-110.1685,-4.3335,88,1.1636,0,-43.2926,105.5368,25,0.8514,9027,4.0414,152.5045
rg,1625794499243577309,1,0.0139,0.6538,1.1572,424,47.7295,-105.1636,-7.6294,88,1.1646,0,-41.4103,107.5859,25,0.8504,7826,4.0414,149.7193
rg,1625794499243622901,1,0.0315,0.6809,1.1167,425,31.9824,-77.9419,-17.8833,88,1.1646,0,-39.4651,108.296,25,0.8504,8514,4.0414,148.0528
rg,1625794499243667196,1,0.0305,0.6826,1.0974,426,25.5737,-69.3359,-21.3623,88,1.1646,0,-37.4898,108.3657,25,0.8504,7824,4.0414,146.8472
rg,1625794499243710695,1,0.0186,0.6619,1.075,427,12.6343,-58.0444,-24.8413,88,1.1646,0,-35.5349,107.5156,25,0.8504,7880,4.0414,146.1723
rg,1625794499243753565,1,0.0364,0.6357,1.072,428,0.8545,-49.0112,-27.71,88,1.1646,0,-33.6518,105.9244,25,0.8504,7834,4.0414,145.8562
rg,1625794499243797953,1,0.0532,0.6165,1.0801,429,-3.2349,-46.3257,-28.0151,88,1.1646,0,-31.8569,104.1242,25,0.8504,7948,4.0414,145.541
rg,1625794499243840267,1,0.0789,0.5806,1.0674,430,-9.3994,-39.6118,-28.4424,88,1.1636,0,-30.2019,101.9447,25,0.8484,8418,4.0414,145.4059
rg,1625794499243882136,1,0.0479,0.5308,1.072,431,-11.7798,-30.6396,-29.7241,88,1.1656,0,-28.5828,99.4885,25,0.8504,7936,4.0414,145.5593
rg,1625794499243924617,1,0.0195,0.521,1.0654,432,-10.6812,-27.8931,-28.7476,88,1.1656,0,-26.9632,97.0713,25,0.8504,7949,4.0414,145.6893
rg,1625794499243965653,1,-0.0261,0.4893,1.0586,433,-7.2021,-27.2217,-24.9634,88,1.1626,0,-25.4828,94.8407,25,0.8494,7919,4.0414,145.6976
rg,1625794499244006930,1,-0.0381,0.449,1.0732,434,-2.5024,-30.1514,-20.1416,88,1.1656,0,-24.217,92.8781,25,0.8504,7927,4.0414,145.4617
rg,1625794499244049022,1,-0.053,0.4275,1.0862,435,0.9766,-30.1514,-16.2354,88,1.1666,0,-23.1222,91.0747,25,0.8514,7958,4.0414,145.1378
rg,1625794499244091576,1,-0.0964,0.4219,1.0933,436,11.2305,-31.6772,-9.7046,88,1.1656,0,-22.2384,89.7346,25,0.8494,7942,4.0414,144.6759
rg,1625794499244133946,1,-0.0791,0.386,1.1206,437,21.1792,-40.1611,-0.3662,88,1.1666,0,-21.8098,88.9113,25,0.8514,7990,4.0414,143.8201
rg,1625794499244176112,1,-0.0396,0.3779,1.1174,438,27.2827,-43.7622,1.2817,88,1.1646,0,-21.5377,88.3854,25,0.8494,8016,4.0414,142.7975
rg,1625794499244219926,1,0.0464,0.4136,1.0933,439,40.7104,-48.9502,4.6387,88,1.1666,0,-21.5376,88.5123,25,0.8494,8032,4.0414,141.5343
rg,1625794499244264425,1,0.1086,0.429,1.0852,440,47.6074,-50.1099,0.7935,88,1.1666,0,-21.4813,88.9539,25,0.8514,8073,4.0414,140.2107
rg,1625794499244307257,1,0.1394,0.4531,1.073,441,52.1851,-52.002,0.3662,88,1.1646,0,-21.4359,89.6284,25,0.8504,8068,4.0414,138.7957
rg,1625794499244348997,1,0.1758,0.5024,1.0486,442,55.7861,-49.3774,-4.3945,88,1.1646,0,-21.266,90.4831,25,0.8514,10570,4.0414,137.4639
rg,1625794499244391700,1,0.2666,0.5481,1.0435,443,56.7017,-49.4995,-5.4932,88,1.1636,0,-21.114,91.3893,25,0.8504,8140,4.0414,136.1195
rg,1625794499244629862,1,0.3784,0.562,1.0718,444,50.4761,-37.1704,-8.667,88,1.1666,0,-21.012,91.8789,25,0.8514,8190,4.0414,135.297
rg,1625794499244720082,1,0.4316,0.5574,1.0847,445,46.3257,-28.1982,-9.3384,88,1.1666,0,-20.8941,91.8325,25,0.8524,8192,4.0414,135.3498
rg,1625794499244771933,1,0.4314,0.5703,1.0969,446,42.2974,-5.9204,-14.5874,88,1.1646,0,-20.6729,91.5217,25,0.8514,8209,4.0414,135.8655
rg,1625794499244817580,1,0.405,0.5996,1.0803,447,36.0718,7.8125,-16.8457,88,1.1666,0,-20.3159,90.7798,25,0.8524,8271,4.0414,136.9495
rg,1625794499244865283,1,0.3904,0.6265,1.0432,448,27.4048,12.8784,-17.7002,88,1.1656,0,-19.8819,89.6764,25,0.8524,8300,4.0414,138.2072
rg,1625794499584874770,1,0.2795,0.6304,0.9531,449,8.8501,16.5405,-15.3809,88,1.1646,0,-19.3379,87.8324,25,0.8534,24711,4.0414,139.5703
rg,1625794499584916751,1,0.2725,0.595,0.8677,450,-5.0659,8.1177,-9.2773,88,1.1646,0,-19.0438,85.6336,25,0.8534,16748,4.0414,140.523
rg,1625794499584937324,1,0.2742,0.5562,0.8342,451,-11.9019,4.3945,-7.9346,88,1.1656,0,-18.8269,83.264,25,0.8534,7772,4.0414,141.2836
rg,1625794499584958472,1,0.2715,0.532,0.821,452,-14.8926,3.6621,-8.1177,88,1.1656,0,-18.5962,80.7473,25,0.8534,7605,4.0414,141.9411
rg,1625794499584977898,1,0.2559,0.5168,0.7959,453,-17.395,3.54,-10.437,88,1.1656,0,-18.2406,78.303,25,0.8544,7666,4.0414,142.5649
rg,1625794499584997564,1,0.2478,0.4861,0.7913,454,-18.0664,0.9155,-11.7798,88,1.1656,0,-17.8491,75.906,25,0.8534,7693,4.0414,143.0293
rg,1625794499585016878,1,0.2512,0.4634,0.7886,455,-17.8223,0.2441,-14.4043,88,1.1656,0,-17.3263,73.652,25,0.8574,8964,4.0414,143.3786
rg,1625794499585038582,1,0.252,0.4529,0.7883,456,-13.2446,-0.3662,-16.6016,88,1.1646,0,-16.7981,71.5867,25,0.8524,8180,4.0414,143.6403
rg,1625794499585114265,1,0.2676,0.4297,0.8035,457,-6.4697,-0.1831,-20.4468,88,1.1666,0,-16.1785,69.8307,25,0.8534,7721,4.0414,143.8157
rg,1625794499585138783,1,0.2751,0.4355,0.8242,458,-2.6245,2.0142,-22.522,88,1.1666,0,-15.486,68.2802,25,0.8544,7725,4.0414,143.9897
rg,1625794499585159764,1,0.2739,0.4441,0.8274,459,6.8359,4.4556,-24.1089,88,1.1656,0,-14.6914,67.1399,25,0.8534,7735,4.0414,144.1811
rg,1625794499585178134,1,0.2559,0.4744,0.8323,460,15.625,8.606,-26.7334,88,1.1666,0,-13.6984,66.4001,25,0.8524,9469,4.0414,144.432
rg,1625794499585199060,1,0.2351,0.5076,0.834,461,23.5596,9.7046,-28.9307,88,1.1666,0,-12.5734,66.0501,25,0.8554,8042,4.0414,144.636
rg,1625794499585218689,1,0.2346,0.55,0.833,462,26.3062,9.5825,-28.0762,88,1.1646,0,-11.4957,65.8904,25,0.8534,7830,4.0414,144.8008
rg,1625794499585267707,1,0.2383,0.5764,0.8418,463,27.3438,9.4604,-26.2451,88,1.1666,0,-10.5157,65.8065,25,0.8534,7811,4.0414,144.9581
rg,1625794499585297039,1,0.2236,0.5933,0.8484,464,28.1372,9.8267,-27.3438,88,1.1666,0,-9.5607,65.8109,25,0.8534,8054,4.0414,145.0616
rg,1625794499585319446,1,0.2114,0.6201,0.8477,465,28.1372,8.667,-24.1699,88,1.1646,0,-8.6596,65.8173,25,0.8534,8000,4.0414,145.1732
rg,1625794499585337724,1,0.23,0.6462,0.853,466,26.7944,2.9297,-21.7896,88,1.1666,0,-7.9963,65.8319,25,0.8544,7864,4.0414,145.0892
rg,1625794499585355890,1,0.2537,0.6553,0.8604,467,25.0854,1.5259,-21.4233,88,1.1666,0,-7.4291,65.7001,25,0.8544,7894,4.0414,145.0104
rg,1625794499585373519,1,0.2688,0.6614,0.8774,468,21.4844,2.0752,-21.4233,88,1.1646,0,-6.9004,65.5105,25,0.8534,7905,4.0414,144.8746
rg,1625794499585393074,1,0.2805,0.6663,0.8591,469,18.4326,3.7842,-20.5078,88,1.1666,0,-6.4223,65.2256,25,0.8544,7977,4.0414,144.7996
rg,1625794499585411148,1,0.2664,0.6736,0.8555,470,16.6626,5.249,-21.0571,88,1.1666,0,-5.9279,64.785,25,0.8554,7997,4.0414,144.8207
rg,1625794499585430148,1,0.2439,0.6707,0.8528,471,12.3901,6.897,-19.8975,88,1.1656,0,-5.3832,64.2768,25,0.8544,8019,4.0414,144.837
rg,1625794499585467980,1,0.2439,0.6411,0.8347,472,8.4839,7.2021,-18.8599,88,1.1656,0,-4.9284,63.5536,25,0.8544,12622,4.0414,144.8627
rg,1625794499585492424,1,0.2405,0.6387,0.8276,473,5.9814,7.6904,-18.3716,88,1.1656,0,-4.4717,62.8121,25,0.8544,8107,4.0414,144.8962
rg,1625794499585512276,1,0.2085,0.6228,0.8218,474,3.9673,9.0332,-18.2495,88,1.1656,0,-3.9514,61.9907,25,0.8544,8138,4.0414,144.9606
rg,1625794499585534053,1,0.1907,0.5916,0.8345,475,3.7842,6.6528,-16.6016,88,1.1656,0,-3.5197,61.129,25,0.8544,8116,4.0414,144.9539
rg,1625794499585556219,1,0.1897,0.5876,0.8296,476,4.2114,4.9438,-16.7236,88,1.1656,0,-3.141,60.3406,25,0.8544,8242,4.0414,144.8638
rg,1625794499585574812,1,0.2151,0.6138,0.8162,477,5.127,0.4272,-14.4043,88,1.1646,0,-2.9894,59.6622,25,0.8534,8310,4.0414,144.6443
rg,1625794499585593163,1,0.2351,0.6028,0.813,478,3.54,0.6714,-14.0991,88,1.1656,0,-2.8981,58.9341,25,0.8554,8159,4.0414,144.4307
rg,1625794499585611477,1,0.2383,0.5989,0.8206,479,3.2959,1.2817,-15.2588,88,1.1656,0,-2.76,58.2112,25,0.8544,8217,4.0414,144.2249
rg,1625794499585631292,1,0.2476,0.593,0.823,480,3.1128,0.6104,-14.2822,88,1.1666,0,-2.6362,57.501,25,0.8554,9345,4.0414,143.9578
rg,1625794499934214642,1,0.2747,0.5996,0.8127,481,1.709,1.8921,-13.4888,88,1.1656,0,-2.6317,56.7652,25,0.8554,25719,4.0414,143.772
rg,1625794499934297548,1,0.2537,0.5869,0.8232,482,-0.061,5.188,-14.3433,88,1.1656,0,-2.4979,55.9558,25,0.8554,8508,4.0414,143.6706
rg,1625794499934350102,1,0.2588,0.5845,0.8218,483,-0.3052,5.3711,-14.3433,88,1.1656,0,-2.3945,55.166,25,0.8554,7615,4.0414,143.5576
rg,1625794499934399250,1,0.2559,0.5818,0.8252,484,-0.7324,6.1646,-15.4419,88,1.1656,0,-2.2198,54.3772,25,0.8544,7599,4.0414,143.4412
rg,1625794499934446100,1,0.2556,0.5706,0.8281,485,-0.3662,5.7373,-14.5874,88,1.1656,0,-2.0927,53.6094,25,0.8554,7617,4.0414,143.3196
rg,1625794499934490970,1,0.2515,0.5669,0.8262,486,-0.061,5.9814,-15.3198,88,1.1656,0,-1.9361,52.8776,25,0.8554,7617,4.0414,143.1776
rg,1625794499934534876,1,0.2493,0.5803,0.8159,487,0.1221,5.7373,-14.9536,88,1.1666,0,-1.8,52.2147,25,0.8544,7846,4.0414,143.0246
rg,1625794499934633634,1,0.2512,0.5798,0.8176,488,-0.1831,6.4697,-14.5874,88,1.1666,0,-1.6679,51.5604,25,0.8554,7641,4.0414,142.8943
rg,1625794499934685559,1,0.2512,0.5747,0.8252,489,-0.5493,7.1411,-15.8081,88,1.1636,0,-1.4861,50.8976,25,0.8534,7686,4.0414,142.7459
rg,1625794499934732206,1,0.2507,0.5767,0.8213,490,0,6.5308,-14.3433,88,1.1666,0,-1.3735,50.2888,25,0.8554,7700,4.0414,142.605
rg,1625794499934778649,1,0.25,0.5698,0.8262,491,0.3662,6.897,-15.2588,88,1.1666,0,-1.226,49.6897,25,0.8554,7714,4.0414,142.4444
rg,1625794499934824611,1,0.2554,0.5688,0.8347,492,0.8545,7.2632,-15.8691,88,1.1646,0,-1.0674,49.1306,25,0.8544,7750,4.0414,142.2704
rg,1625794499934871425,1,0.2556,0.5642,0.8286,493,1.709,7.3242,-15.9302,88,1.1666,0,-0.9174,48.6256,25,0.8564,7711,4.0414,142.0882
rg,1625794499934916609,1,0.2458,0.5759,0.8225,494,2.5024,7.8125,-15.0757,88,1.1656,0,-0.7661,48.1968,25,0.8554,11287,4.0414,141.935
rg,1625794499934960794,1,0.2454,0.5691,0.8213,495,2.0142,8.2397,-15.5029,88,1.1656,0,-0.6568,47.749,25,0.8554,8033,4.0414,141.7927
rg,1625794499935005497,1,0.241,0.5701,0.8247,496,1.77,8.2397,-14.4043,88,1.1656,0,-0.5167,47.3097,25,0.8554,7804,4.0414,141.6575
rg,1625794499935048144,1,0.2456,0.5669,0.8245,497,2.4414,7.1411,-13.4888,88,1.1656,0,-0.4502,46.9089,25,0.8554,7810,4.0414,141.5087
rg,1625794499935090791,1,0.2437,0.571,0.8281,498,2.7466,6.4697,-13.6108,88,1.1656,0,-0.4069,46.5574,25,0.8554,8607,4.0414,141.3231
rg,1625794499935134772,1,0.252,0.5684,0.8276,499,3.479,5.8594,-13.7329,88,1.1656,0,-0.386,46.2259,25,0.8544,8927,4.0414,141.1215
rg,1625794499935178660,1,0.2654,0.5735,0.8232,500,2.2583,5.8594,-12.8784,88,1.1656,0,-0.4197,45.8738,25,0.8544,8264,4.0414,140.9402
rg,1625794499935223251,1,0.2666,0.5801,0.8203,501,2.4414,6.897,-13.4277,88,1.1666,0,-0.4104,45.5577,25,0.8564,7938,4.0414,140.7701
rg,1625794499935268399,1,0.2664,0.5781,0.8225,502,2.1362,7.0801,-12.3901,88,1.1646,0,-0.426,45.2349,25,0.8544,7894,4.0414,140.631
rg,1625794499935339527,1,0.2644,0.5754,0.8245,503,1.9531,7.9956,-12.5122,88,1.1666,0,-0.4086,44.9095,25,0.8544,7916,4.0414,140.5113
rg,1625794499935385526,1,0.2649,0.572,0.825,504,1.9531,8.9111,-13.1226,88,1.1656,0,-0.3514,44.5899,25,0.8554,7912,4.0414,140.3968
rg,1625794499935428673,1,0.2693,0.5764,0.8262,505,1.8311,9.9487,-13.3667,88,1.1656,0,-0.2678,44.2838,25,0.8544,7931,4.0414,140.3004
rg,1625794499935470543,1,0.269,0.5806,0.8162,506,1.1597,10.3149,-13.0005,88,1.1666,0,-0.1902,43.9823,25,0.8524,8018,4.0414,140.2206
rg,1625794499935514931,1,0.2695,0.5806,0.823,507,0.7324,10.7422,-12.207,88,1.1666,0,-0.1283,43.6711,25,0.8564,8010,4.0414,140.2079
rg,1625794499935560374,1,0.2698,0.5791,0.8281,508,0.8545,11.6577,-11.3525,88,1.1646,0,-0.0603,43.3627,25,0.8544,8025,4.0414,140.2049
rg,1625794499935603744,1,0.2744,0.5796,0.8235,509,0.7324,11.6577,-10.5591,88,1.1666,0,-0.0279,43.0682,25,0.8544,8019,4.0414,140.2211
rg,1625794499935647595,1,0.2742,0.575,0.8276,510,1.0376,13.2446,-11.7798,88,1.1666,0,0.093,42.7668,25,0.8564,8063,4.0414,140.2637
rg,1625794499935694446,1,0.2708,0.5759,0.8308,511,1.5259,14.5264,-11.5967,88,1.1646,0,0.2411,42.511,25,0.8544,8138,4.0414,140.3199
rg,1625794499935737296,1,0.2698,0.5764,0.8264,512,1.6479,15.686,-11.4136,88,1.1646,0,0.4133,42.2764,25,0.8534,8144,4.0414,140.4089
rg,1625794500281669694,1,0.2468,0.5784,0.8188,513,1.3428,17.5781,-11.1084,88,1.1656,0,0.681,42.0666,25,0.8544,25247,4.0414,140.5295
rg,1625794500281767137,1,0.2366,0.5754,0.8311,514,1.8921,17.395,-11.4136,88,1.1656,0,0.9572,41.8503,25,0.8554,10505,4.0414,140.6558
rg,1625794500281821673,1,0.2324,0.5745,0.8296,515,0.9155,16.6016,-11.4136,88,1.1656,0,1.2076,41.6034,25,0.8554,7558,4.0414,140.7565
rg,1625794500281871079,1,0.2288,0.5708,0.8347,516,1.3428,16.0522,-11.4136,88,1.1656,0,1.4621,41.3913,25,0.8554,8380,4.0414,140.8176
rg,1625794500281973614,1,0.2239,0.5645,0.8403,517,2.3804,14.6484,-12.207,88,1.1646,0,1.6757,41.1874,25,0.8554,10309,4.0414,140.8336
rg,1625794500282023261,1,0.2136,0.5632,0.8459,518,2.0752,15.0146,-12.5732,88,1.1656,0,1.9248,40.9694,25,0.8554,7678,4.0414,140.8442
rg,1625794500282069131,1,0.2041,0.5664,0.833,519,2.5024,12.085,-11.7798,88,1.1656,0,2.0715,40.7961,25,0.8554,7698,4.0414,140.7986
rg,1625794500282114149,1,0.2119,0.5693,0.8345,520,2.9907,11.1694,-12.6343,88,1.1656,0,2.1087,40.6485,25,0.8554,7768,4.0414,140.6436
rg,1625794500282158111,1,0.2173,0.5676,0.8433,521,2.8076,10.0708,-13.4888,88,1.1656,0,2.208,40.4858,25,0.8554,7745,4.0414,140.4891
rg,1625794500282205147,1,0.2166,0.5703,0.842,522,2.5635,7.6294,-12.3291,88,1.1666,0,2.2007,40.3247,25,0.8564,8103,4.0414,140.3045
rg,1625794500282252442,1,0.2175,0.5723,0.8396,523,2.8076,7.6294,-14.4043,94,1.1666,0,2.2532,40.1861,25,0.8574,7866,4.0381,140.0557
rg,1625794500282298478,1,0.2197,0.5789,0.8386,524,2.9297,7.1411,-15.1978,94,1.1646,0,2.2965,40.0665,25,0.8544,7793,4.0381,139.769
rg,1625794500282342274,1,0.2141,0.5872,0.8313,525,2.1973,5.188,-13.5498,94,1.1666,0,2.2468,39.946,25,0.8564,7824,4.0381,139.4819
rg,1625794500282500086,1,0.2139,0.5789,0.8323,526,1.9531,4.4556,-14.7095,94,1.1646,0,2.2044,39.8025,25,0.8554,8039,4.0381,139.1392
rg,1625794500282549029,1,0.2183,0.5806,0.8335,527,0.9766,3.1128,-14.7095,94,1.1666,0,2.1134,39.6264,25,0.8554,7925,4.0381,138.7612
rg,1625794500282603232,1,0.2166,0.5791,0.8345,528,0.7324,1.5259,-13.855,94,1.1666,0,1.9578,39.4438,25,0.8564,7885,4.0381,138.368
rg,1625794500282649823,1,0.218,0.5798,0.8347,529,0.7935,1.77,-14.7095,94,1.1646,0,1.8334,39.272,25,0.8564,7900,4.0381,137.9541
rg,1625794500282693323,1,0.2234,0.5762,0.8342,530,-0.3052,0.061,-14.4043,94,1.1666,0,1.6397,39.0574,25,0.8544,7892,4.0381,137.5057
rg,1625794500282768192,1,0.2246,0.5745,0.8311,531,-1.2207,-0.1831,-15.0146,94,1.1666,0,1.4289,38.8479,25,0.8574,7919,4.0381,137.0258
rg,1625794500282872023,1,0.2236,0.5742,0.8347,532,-0.4272,-0.9766,-14.2822,94,1.1636,0,1.2115,38.6434,25,0.8554,7967,4.0381,136.554
rg,1625794500282922318,1,0.2229,0.5706,0.8303,533,0.1831,-1.5869,-14.7705,94,1.1666,0,0.993,38.4714,25,0.8554,7923,4.0381,136.0514
rg,1625794500282967521,1,0.2397,0.5618,0.8416,534,-0.1221,-2.0752,-15.7471,94,1.1646,0,0.6974,38.2832,25,0.8564,7996,4.0381,135.4949
rg,1625794500283010946,1,0.239,0.564,0.843,535,0.5493,-3.0518,-15.1978,94,1.1646,0,0.4301,38.1169,25,0.8554,7974,4.0381,134.942
rg,1625794500283054112,1,0.2395,0.5579,0.8369,536,0.7935,-2.5024,-15.3809,94,1.1636,0,0.1883,37.9658,25,0.8554,8534,4.0381,134.3969
rg,1625794500283098389,1,0.2378,0.5535,0.835,537,0.9766,-3.54,-17.0288,94,1.1656,0,-0.0361,37.8242,25,0.8534,8055,4.0381,133.7742
rg,1625794500283143166,1,0.2444,0.5522,0.8335,538,0.9155,-3.8452,-16.0522,94,1.1656,0,-0.3015,37.6881,25,0.8564,8077,4.0381,133.1749
rg,1625794500283186924,1,0.2424,0.5532,0.8396,539,0.8545,-3.1128,-16.8457,94,1.1646,0,-0.5088,37.5515,25,0.8554,8145,4.0381,132.5684
rg,1625794500283232368,1,0.2476,0.5491,0.8369,540,1.0376,-3.1128,-17.0288,94,1.1666,0,-0.718,37.4258,25,0.8564,8102,4.0381,131.956
rg,1625794500283281478,1,0.2412,0.5396,0.8384,541,1.0376,-3.9673,-16.5405,94,1.1666,0,-0.9481,37.2877,25,0.8574,8230,4.0381,131.3384
rg,1625794500283330903,1,0.2441,0.5403,0.8381,542,0.9766,-4.5166,-17.395,94,1.1646,0,-1.1735,37.1576,25,0.8554,8215,4.0381,130.6801
rg,1625794500283377365,1,0.2488,0.5413,0.8306,543,0.7935,-5.4321,-17.334,94,1.1656,0,-1.4348,37.0396,25,0.8564,8177,4.0381,130.0013
rg,1625794500283422679,1,0.2554,0.5461,0.8313,544,0.7935,-6.4087,-17.5781,94,1.1656,0,-1.7245,36.9387,25,0.8574,8286,4.0381,129.291
rg,1625794500632248856,1,0.2805,0.5381,0.821,545,0.9155,-9.6436,-16.9678,94,1.1646,0,-2.1813,36.8517,25,0.8564,24953,4.0381,128.5225
rg,1625794500632583239,1,0.2917,0.5391,0.8176,546,0.9155,-9.6436,-16.3574,94,1.1646,0,-2.6609,36.78,25,0.8574,13653,4.0381,127.774
rg,1625794500632667385,1,0.2954,0.5432,0.8115,547,1.1597,-9.5825,-15.3198,94,1.1646,0,-3.1109,36.7453,25,0.8574,7601,4.0381,127.0134
rg,1625794500632771439,1,0.2971,0.54,0.8193,548,2.0142,-10.0098,-16.3574,94,1.1646,0,-3.5771,36.7339,25,0.8574,7633,4.0381,126.2571
rg,1625794500632828438,1,0.3027,0.543,0.8047,549,3.2959,-10.1318,-15.9302,94,1.1646,0,-4.0571,36.8035,25,0.8574,7660,4.0381,125.5103
rg,1625794500632882140,1,0.3091,0.5447,0.7974,550,3.479,-10.1929,-14.5874,94,1.1646,0,-4.5681,36.8938,25,0.8584,7630,4.0381,124.8049
rg,1625794500632933010,1,0.3213,0.5422,0.8042,551,4.3335,-10.1929,-15.0146,94,1.1646,0,-5.0702,37.0093,25,0.8564,8416,4.0381,124.0874
rg,1625794500632981824,1,0.3264,0.5425,0.7935,552,5.7983,-7.6294,-15.0146,94,1.1646,0,-5.486,37.1932,25,0.8584,8352,4.0381,123.4316
rg,1625794500633028582,1,0.3291,0.5369,0.7969,553,6.6528,-7.3853,-14.3433,94,1.1666,0,-5.9063,37.3858,25,0.8594,7843,4.0381,122.8066
rg,1625794500633078896,1,0.3401,0.542,0.803,554,7.9956,-5.4321,-14.0991,94,1.1636,0,-6.2609,37.6311,25,0.8574,8208,4.0381,122.238
rg,1625794500633124228,1,0.3484,0.5525,0.7974,555,9.7656,-2.9907,-14.0991,94,1.1636,0,-6.5379,37.9606,25,0.8584,7692,4.0381,121.7289
rg,1625794500633169524,1,0.3474,0.5444,0.8057,556,10.6201,0.9766,-14.7095,94,1.1666,0,-6.6587,38.2791,25,0.8594,7706,4.0381,121.3056
rg,1625794500633215615,1,0.3428,0.5549,0.8125,557,10.9863,2.0142,-13.3667,94,1.1646,0,-6.7559,38.6029,25,0.8574,7719,4.0381,120.9532
rg,1625794500633259800,1,0.3254,0.5574,0.8105,558,12.0239,4.0894,-12.4512,94,1.1646,0,-6.7709,38.9524,25,0.8594,7717,4.0381,120.6854
rg,1625794500633304021,1,0.3196,0.5569,0.8057,559,12.3291,3.6621,-12.0239,94,1.1666,0,-6.8142,39.3371,25,0.8594,7785,4.0381,120.4331
rg,1625794500633347113,1,0.3171,0.5649,0.8125,560,13.4888,4.4556,-12.5122,94,1.1656,0,-6.7897,39.7264,25,0.8584,7817,4.0381,120.1808
rg,1625794500633389168,1,0.3142,0.5647,0.804,561,13.5498,4.2725,-12.9395,94,1.1666,0,-6.7577,40.1153,25,0.8594,7814,4.0381,119.9141
rg,1625794500633432093,1,0.3118,0.5686,0.8071,562,13.7329,2.9907,-11.9019,94,1.1656,0,-6.7827,40.4993,25,0.8604,7820,4.0381,119.6503
rg,1625794500633509869,1,0.3169,0.5688,0.8125,563,13.855,2.1973,-12.2681,94,1.1666,0,-6.8271,40.871,25,0.8594,7907,4.0381,119.3597
rg,1625794500633556553,1,0.302,0.5664,0.8069,564,13.916,1.8311,-12.146,94,1.1646,0,-6.8553,41.2334,25,0.8594,7913,4.0381,119.0673
rg,1625794500633601590,1,0.3052,0.5688,0.8022,565,14.0991,-0.6714,-11.7798,94,1.1646,0,-6.9728,41.6068,25,0.8594,12672,4.0381,118.7219
rg,1625794500633647607,1,0.3225,0.5698,0.8018,566,14.5874,-2.9297,-10.8032,94,1.1656,0,-7.2121,41.9937,25,0.8604,7921,4.0381,118.3485
rg,1625794500633693625,1,0.3262,0.5723,0.8059,567,15.4419,-2.0142,-10.6812,94,1.1656,0,-7.4199,42.4054,25,0.8604,7970,4.0381,118.0066
rg,1625794500633737902,1,0.3301,0.5815,0.7979,568,15.9912,-0.9766,-11.2915,94,1.1656,0,-7.5788,42.8415,25,0.8604,8080,4.0381,117.6772
rg,1625794500633780105,1,0.3357,0.5852,0.7881,569,15.9912,-1.0376,-11.9019,94,1.1656,0,-7.7291,43.2842,25,0.8604,7984,4.0381,117.3303
rg,1625794500634376686,1,0.3391,0.5876,0.7761,570,15.8081,0.1831,-11.2305,94,1.1666,0,-7.8665,43.7167,25,0.8614,9215,4.0381,117.0394
rg,1625794500634434648,1,0.3411,0.5962,0.7808,571,15.1978,-0.1831,-10.1318,94,1.1636,0,-8.0351,44.1146,25,0.8594,8028,4.0381,116.7742
rg,1625794500634480814,1,0.3486,0.5908,0.7756,572,14.2212,1.6479,-10.1929,94,1.1666,0,-8.1623,44.4502,25,0.8574,8048,4.0381,116.5639
rg,1625794500634527535,1,0.3521,0.594,0.7761,573,12.6343,4.1504,-10.0098,94,1.1666,0,-8.2228,44.7041,25,0.8624,8161,4.0381,116.4338
rg,1625794500634576812,1,0.3452,0.5947,0.7715,574,12.4512,5.0049,-10.8032,94,1.1636,0,-8.2224,44.9478,25,0.8604,8446,4.0381,116.3079
rg,1625794500634625274,1,0.3494,0.5962,0.7605,575,11.0474,6.4697,-10.6812,94,1.1646,0,-8.1975,45.1376,25,0.8604,9648,4.0381,116.2281
rg,1625794500634673791,1,0.3411,0.5999,0.752,576,9.6436,8.0566,-9.7656,94,1.1666,0,-8.1407,45.2715,25,0.8614,8202,4.0381,116.2199
rg,1625794500978209532,1,0.3379,0.5938,0.7407,577,7.5684,9.3384,-8.5449,94,1.1656,0,-8.0347,45.2846,25,0.8614,25221,4.0381,116.2851
rg,1625794500978412898,1,0.3208,0.5959,0.7478,578,6.4087,11.4746,-9.6436,94,1.1656,0,-7.854,45.2671,25,0.8624,14396,4.0381,116.3803
rg,1625794500978473860,1,0.3296,0.5933,0.7454,579,5.7373,11.6577,-10.0098,94,1.1656,0,-7.6856,45.2241,25,0.8624,7653,4.0381,116.4692
rg,1625794500978526859,1,0.3328,0.5959,0.7529,580,5.9814,13.1226,-9.4604,94,1.1656,0,-7.4995,45.1792,25,0.8624,7881,4.0381,116.6151
rg,1625794500978575654,1,0.3286,0.6001,0.7546,581,6.2256,14.2212,-9.8267,94,1.1656,0,-7.268,45.1481,25,0.8624,7667,4.0381,116.7799
rg,1625794500978622468,1,0.3223,0.6052,0.7556,582,7.3242,15.3809,-12.085,94,1.1656,0,-6.933,45.1736,25,0.8624,7876,4.0381,116.9114
rg,1625794500978675004,1,0.3228,0.6123,0.7583,583,7.8735,16.0522,-11.3525,94,1.1656,0,-6.6095,45.2244,25,0.8634,8906,4.0381,117.0808
rg,1625794500978725189,1,0.3225,0.6238,0.7605,584,8.0566,16.3574,-12.207,94,1.1666,0,-6.2704,45.3075,25,0.8634,7726,4.0381,117.2394
rg,1625794500978776706,1,0.3257,0.6284,0.7654,585,8.3008,17.7002,-13.0615,94,1.1616,0,-5.8738,45.3896,25,0.8614,7697,4.0381,117.4054
rg,1625794500978825353,1,0.3196,0.636,0.7629,586,7.8125,18.1885,-12.5122,94,1.1666,0,-5.4804,45.4629,25,0.8634,7714,4.0381,117.5991
rg,1625794500978871130,1,0.3201,0.6531,0.7639,587,7.4463,19.2261,-13.4888,94,1.1656,0,-5.0389,45.5465,25,0.8634,11072,4.0381,117.7923
rg,1625794500978913648,1,0.3267,0.6572,0.7629,588,6.2866,19.5312,-13.2446,94,1.1656,0,-4.581,45.6124,25,0.8624,7804,4.0381,118.01
rg,1625794500978957758,1,0.3125,0.6624,0.761,589,4.6997,21.6064,-14.1602,94,1.1656,0,-4.0716,45.5987,25,0.8634,8098,4.0381,118.2505
rg,1625794500979001443,1,0.3003,0.6697,0.7617,590,3.6621,22.3389,-14.8315,94,1.1656,0,-3.5146,45.5564,25,0.8634,7876,4.0381,118.4903
rg,1625794500979045516,1,0.2856,0.665,0.7615,591,2.9297,23.7427,-16.4185,94,1.1656,0.001,-2.865,45.4787,25,0.8634,7889,4.0381,118.7235
rg,1625794500979094904,1,0.2744,0.658,0.7634,592,2.5024,23.4985,-17.4561,94,1.1656,0,-2.2429,45.3257,25,0.8634,10729,4.0381,118.9131
rg,1625794500979175847,1,0.269,0.6545,0.7644,593,0.9766,22.4609,-16.9067,94,1.1646,0,-1.6341,45.1665,25,0.8624,8446,4.0381,119.0873
rg,1625794500979224364,1,0.269,0.6533,0.7605,594,0.9766,21.7896,-17.4561,94,1.1666,0,-1.0537,45.0197,25,0.8604,7909,4.0381,119.2216
rg,1625794500979267604,1,0.2634,0.644,0.7639,595,0.9155,21.1182,-16.5405,94,1.1666,0,-0.5184,44.8422,25,0.8634,7959,4.0381,119.3564
rg,1625794500979313696,1,0.2693,0.646,0.7739,596,-0.8545,19.8364,-17.4561,94,1.1646,0,-0.0329,44.6063,25,0.8624,7908,4.0381,119.4255
rg,1625794500979363195,1,0.2725,0.6372,0.7737,597,-0.8545,18.1274,-16.7847,94,1.1676,0,0.3572,44.3658,25,0.8644,7912,4.0381,119.4598
rg,1625794500979407472,1,0.2756,0.6299,0.7781,598,-0.7935,17.2729,-17.2729,94,1.1676,0,0.7032,44.0928,25,0.8644,7910,4.0381,119.4746
rg,1625794500979450527,1,0.291,0.6265,0.7832,599,-1.3428,18.1274,-17.8223,94,1.1646,0,1.0573,43.8221,25,0.8634,7973,4.0381,119.4676
rg,1625794500979504729,1,0.2981,0.6208,0.7891,600,-1.77,18.4326,-16.9067,94,1.1666,0,1.3679,43.5282,25,0.8634,8152,4.0381,119.4892
rg,1625794500979553266,1,0.304,0.6194,0.7896,601,-2.1362,19.2871,-16.7847,94,1.1666,0,1.6611,43.1907,25,0.8644,8068,4.0381,119.5626
rg,1625794500979820742,1,0.3074,0.6162,0.8052,602,-3.479,22.2168,-17.2119,94,1.1656,0,2.0551,42.8268,25,0.8624,8094,4.0381,119.6653
rg,1625794500979903370,1,0.3015,0.6025,0.8066,603,-3.9673,26.1841,-18.7988,94,1.1666,0,2.6014,42.4348,25,0.8634,8233,4.0381,119.82
rg,1625794500980119458,1,0.2874,0.5981,0.8137,604,-3.6011,27.0386,-18.6768,94,1.1676,0,3.2397,42.0394,25,0.8644,8170,4.0381,120.0219
rg,1625794500980171457,1,0.2842,0.592,0.8225,605,-4.3335,29.7241,-19.9585,94,1.1646,0,3.9173,41.629,25,0.8624,8214,4.0381,120.2138
rg,1625794500980223771,1,0.2629,0.5908,0.8267,606,-4.3335,30.4565,-20.2026,94,1.1666,0,4.6425,41.2282,25,0.8614,8212,4.0381,120.4052
rg,1625794500980275733,1,0.2393,0.5747,0.8252,607,-4.4556,29.7241,-19.7754,94,1.1666,0,5.3513,40.8109,25,0.8644,8250,4.0381,120.5759
rg,1625794500980519377,1,0.2307,0.5759,0.8369,608,-3.54,28.5034,-20.5078,94,1.1646,0,6.0389,40.4289,25,0.8634,8278,4.0381,120.6794
rg,1625794501328803184,1,0.2039,0.5613,0.8325,609,-3.2959,15.2588,-18.8599,94,1.1666,0,6.3065,40.0174,25,0.8634,25638,4.0381,120.4749
rg,1625794501328895386,1,0.2241,0.5566,0.8247,610,-1.709,4.4556,-17.2119,94,1.1666,0,6.1447,39.662,25,0.8634,15688,4.0381,120.0363
rg,1625794501328950756,1,0.2627,0.5686,0.8118,611,-0.8545,-0.1221,-15.8691,94,1.1666,0,5.7314,39.3886,25,0.8634,7691,4.0381,119.5252
rg,1625794501329005181,1,0.2793,0.574,0.8154,612,-0.9155,-1.8311,-15.9302,94,1.1656,0,5.25,39.1285,25,0.8634,7702,4.0381,118.97
rg,1625794501329055828,1,0.3105,0.575,0.812,613,-1.0376,-1.2207,-15.564,94,1.1666,0,4.7315,38.888,25,0.8634,7636,4.0381,118.4438
rg,1625794501329103475,1,0.3159,0.5764,0.7986,614,-0.9766,0.1221,-15.7471,94,1.1666,0,4.2316,38.691,25,0.8644,7661,4.0381,117.9488
rg,1625794501329151067,1,0.3242,0.5745,0.8,615,-1.0376,1.8921,-15.9912,94,1.1646,0,3.8218,38.4953,25,0.8624,9334,4.0381,117.4901
rg,1625794501329199659,1,0.3274,0.5793,0.7954,616,-1.0986,3.8452,-14.1602,94,1.1676,0,3.4343,38.3291,25,0.8634,7687,4.0381,117.1385
rg,1625794501329247769,1,0.3384,0.573,0.791,617,-0.7324,5.3101,-15.3198,94,1.1656,0,3.1039,38.1525,25,0.8644,7847,4.0381,116.8044
rg,1625794501329294546,1,0.3357,0.5725,0.7939,618,-0.4272,5.7983,-14.0991,94,1.1646,0,2.7813,38.0228,25,0.8634,7706,4.0381,116.5017
rg,1625794501329341564,1,0.3323,0.5713,0.7886,619,1.709,8.0566,-12.9395,94,1.1676,0,2.5159,37.9936,25,0.8644,7695,4.0381,116.291
rg,1625794501329388211,1,0.3342,0.5701,0.791,620,2.1362,9.3994,-13.1836,94,1.1676,0,2.3053,37.9791,25,0.8644,7731,4.0381,116.1057
rg,1625794501329433618,1,0.3279,0.5769,0.7935,621,3.3569,11.8408,-13.4277,94,1.1666,0,2.2014,38.0253,25,0.8634,7799,4.0381,115.9735
rg,1625794501329556726,1,0.3279,0.5825,0.7861,622,5.127,11.9629,-9.5215,94,1.1666,0,2.0074,38.1648,25,0.8654,7776,4.0381,115.9684
rg,1625794501329865628,1,0.3237,0.5833,0.7886,623,5.5542,14.7705,-10.6201,94,1.1656,0,1.9452,38.3154,25,0.8634,7780,4.0381,116.0001
rg,1625794501329926146,1,0.3135,0.5886,0.7896,624,5.7373,16.8457,-10.9863,94,1.1676,0,1.9817,38.477,25,0.8654,7858,4.0381,116.074
rg,1625794501329974571,1,0.304,0.5901,0.7876,625,5.3711,17.0288,-9.7656,94,1.1666,0,2.0829,38.6592,25,0.8644,7902,4.0381,116.2185
rg,1625794501330027107,1,0.2896,0.5945,0.7957,626,6.2866,19.5923,-11.0474,94,1.1646,0,2.2531,38.8343,25,0.8634,7893,4.0381,116.3638
rg,1625794501330072476,1,0.2698,0.5938,0.7976,627,5.9204,19.8975,-10.0098,94,1.1676,0,2.4403,38.9859,25,0.8644,7905,4.0381,116.551
rg,1625794501330118587,1,0.2649,0.5955,0.803,628,5.3711,20.5078,-11.2305,94,1.1676,0,2.6946,39.1116,25,0.8654,8068,4.0381,116.7202
rg,1625794501330165216,1,0.2485,0.5989,0.8101,629,5.6763,19.9585,-11.9629,94,1.1646,0,2.9653,39.2337,25,0.8634,7971,4.0381,116.851
rg,1625794501330211641,1,0.2375,0.595,0.8069,630,5.127,18.1274,-11.3525,94,1.1646,0,3.1738,39.3254,25,0.8634,9198,4.0381,116.9552
rg,1625794501330253584,1,0.2344,0.6016,0.8074,631,5.3711,17.395,-13.0005,94,1.1676,0,3.4019,39.4307,25,0.8634,9605,4.0381,116.9912
rg,1625794501330532450,1,0.2344,0.5984,0.8091,632,4.6997,14.6484,-12.3291,94,1.1676,0,3.5195,39.4945,25,0.8654,8035,4.0381,116.9782
rg,1625794501330608467,1,0.2327,0.6062,0.8105,633,4.9438,13.1226,-13.1226,94,1.1656,0,3.6123,39.5733,25,0.8634,8044,4.0381,116.9028
rg,1625794501330661262,1,0.2402,0.6074,0.8069,634,3.8452,11.3525,-11.5356,94,1.1666,0,3.6125,39.6005,25,0.8644,8068,4.0381,116.7707
rg,1625794501330710798,1,0.2454,0.6101,0.8127,635,4.2114,10.0708,-12.5732,94,1.1666,0,3.5704,39.6465,25,0.8644,8046,4.0381,116.6352
rg,1625794501331498821,1,0.2524,0.6123,0.8093,636,3.7842,9.4604,-13.7329,94,1.1666,0,3.5258,39.6791,25,0.8644,8069,4.0381,116.4495
rg,1625794501331613153,1,0.2551,0.6072,0.8066,637,4.0894,9.3994,-14.3433,94,1.1666,0,3.4598,39.697,25,0.8644,8054,4.0381,116.2479
rg,1625794501331666115,1,0.2612,0.6113,0.8027,638,3.2959,8.4839,-13.7939,94,1.1666,0,3.3707,39.7143,25,0.8644,8071,4.0381,116.0364
rg,1625794501331712614,1,0.2651,0.6094,0.804,639,3.7842,8.1177,-13.0005,94,1.1666,0,3.2456,39.7467,25,0.8644,8094,4.0381,115.8399
rg,1625794501331757372,1,0.2681,0.6069,0.8054,640,3.1738,8.606,-14.2822,94,1.1656,0,3.167,39.7463,25,0.8654,8206,4.0381,115.6167
rg,1625794501678794607,1,0.2729,0.6086,0.7991,641,2.3804,9.1553,-13.4277,94,1.1666,0,3.0744,39.7283,25,0.8654,24672,4.0381,115.4348
rg,1625794501678882013,1,0.2646,0.6057,0.7957,642,2.1973,10.6812,-14.7705,86,1.1666,0,3.0806,39.703,25,0.8644,13817,4.0403,115.2507
rg,1625794501678936123,1,0.2693,0.6003,0.7981,643,1.5869,9.2773,-13.0615,86,1.1666,0,3.053,39.6728,25,0.8654,7705,4.0403,115.0937
rg,1625794501678987122,1,0.2637,0.6013,0.8074,644,1.709,10.0708,-12.9395,86,1.1666,0,2.9999,39.6092,25,0.8644,7652,4.0403,114.9486
rg,1625794501679036344,1,0.2654,0.6018,0.8071,645,1.8921,9.6436,-12.085,86,1.1666,0,2.9103,39.5575,25,0.8644,7635,4.0403,114.8184
rg,1625794501679086546,1,0.2661,0.6025,0.8091,646,1.9531,10.5591,-13.1836,86,1.1666,0,2.8797,39.5085,25,0.8644,7620,4.0403,114.6774
rg,1625794501679136416,1,0.2656,0.5925,0.7998,647,1.77,10.3149,-13.6108,86,1.1696,0,2.8475,39.4479,25,0.8644,8154,4.0403,114.5163
rg,1625794501679182748,1,0.2649,0.5947,0.8062,648,1.709,9.7656,-12.6953,86,1.1646,0,2.781,39.3834,25,0.8634,11460,4.0403,114.3688
rg,1625794501679228525,1,0.2651,0.5881,0.7969,649,2.4414,10.1318,-13.7939,86,1.1666,0,2.7496,39.3502,25,0.8654,7700,4.0403,114.1963
rg,1625794501679273765,1,0.269,0.5891,0.8057,650,1.8921,10.3149,-13.4277,86,1.1686,0,2.7224,39.2869,25,0.8664,7699,4.0403,114.0389
rg,1625794501679374393,1,0.2646,0.5876,0.8101,651,2.6855,9.7656,-12.9395,86,1.1676,0,2.6665,39.2499,25,0.8634,7775,4.0403,113.8818
rg,1625794501679427892,1,0.2678,0.5886,0.8079,652,2.6245,9.5215,-12.4512,86,1.1686,0,2.5857,39.2171,25,0.8664,7783,4.0403,113.7336
rg,1625794501679476576,1,0.2727,0.5854,0.8098,653,2.8687,10.1318,-13.0615,86,1.1656,0,2.5321,39.1874,25,0.8644,7798,4.0403,113.5815
rg,1625794501679524409,1,0.2766,0.5854,0.8081,654,2.9297,10.437,-14.2212,86,1.1676,0,2.5105,39.1625,25,0.8624,7773,4.0403,113.4012
rg,1625794501679571408,1,0.2732,0.5862,0.8074,655,3.418,10.8032,-13.3057,86,1.1676,0,2.4672,39.1642,25,0.8664,7837,4.0403,113.2568
rg,1625794501679898476,1,0.2764,0.5891,0.8032,656,3.9673,10.9253,-13.1836,86,1.1656,0,2.4365,39.1965,25,0.8644,7888,4.0403,113.1215
rg,1625794501679967568,1,0.2759,0.5869,0.8042,657,3.9062,11.2915,-12.4512,86,1.1666,0,2.3969,39.236,25,0.8654,11562,4.0403,113.019
rg,1625794501680025696,1,0.2686,0.5886,0.8032,658,4.2725,11.4746,-13.4888,86,1.1666,0,2.4093,39.2769,25,0.8654,9207,4.0403,112.889
rg,1625794501680074529,1,0.2722,0.5925,0.7944,659,3.6621,11.7188,-12.3901,86,1.1666,0,2.391,39.3122,25,0.8654,7960,4.0403,112.8004
rg,1625794501680120139,1,0.2698,0.5925,0.801,660,4.0283,11.6577,-13.0005,86,1.1666,0,2.3948,39.3512,25,0.8644,8074,4.0403,112.6914
rg,1625794501680166101,1,0.2705,0.5986,0.7998,661,4.0894,11.4746,-11.9629,86,1.1666,0,2.3666,39.4046,25,0.8654,7973,4.0403,112.6108
rg,1625794501680210619,1,0.2668,0.5977,0.7961,662,4.0894,11.9019,-11.8408,86,1.1666,0,2.3551,39.4597,25,0.8644,8564,4.0403,112.5455
rg,1625794501680255988,1,0.2642,0.593,0.7988,663,3.9062,12.085,-12.085,86,1.1676,0,2.361,39.4934,25,0.8664,8569,4.0403,112.4774
rg,1625794501680301025,1,0.2676,0.5986,0.8035,664,3.2349,11.9629,-12.207,86,1.1666,0,2.362,39.5139,25,0.8654,8192,4.0403,112.3896
rg,1625794501680345098,1,0.2615,0.5994,0.8032,665,4.0894,11.2305,-12.5732,86,1.1656,0,2.3632,39.5567,25,0.8644,8062,4.0403,112.2854
rg,1625794501680471188,1,0.2622,0.6018,0.8057,666,4.3335,12.0239,-12.3901,86,1.1676,0,2.3844,39.6096,25,0.8654,8074,4.0403,112.2076
rg,1625794501680541520,1,0.2588,0.5969,0.8015,667,4.0283,11.4746,-12.8784,86,1.1666,0,2.4382,39.6388,25,0.8654,8114,4.0403,112.0944
rg,1625794501680856330,1,0.2617,0.6003,0.8049,668,4.2114,11.6577,-12.5122,86,1.1666,0,2.4438,39.6721,25,0.8664,9859,4.0403,111.9878
rg,1625794501680923754,1,0.2573,0.5986,0.8047,669,3.9062,11.3525,-13.7939,86,1.1656,0,2.4859,39.6965,25,0.8644,8212,4.0403,111.8504
rg,1625794501680990253,1,0.262,0.6011,0.8052,670,3.6011,11.2915,-13.1226,86,1.1676,0,2.499,39.7123,25,0.8634,8279,4.0403,111.7324
rg,1625794501681047993,1,0.2595,0.5957,0.8047,671,3.7231,10.9863,-13.9771,86,1.1676,0,2.5272,39.7221,25,0.8664,8257,4.0403,111.5801
rg,1625794501681106214,1,0.2598,0.5952,0.8066,672,3.479,10.6812,-13.9771,86,1.1656,0,2.5452,39.7179,25,0.8644,8255,4.0403,111.4199
rg,1625794502023876356,1,0.2585,0.5996,0.7952,673,3.3569,10.498,-13.7939,86,1.1676,0,2.5512,39.7318,25,0.8644,25303,4.0403,111.2615
rg,1625794502024013631,1,0.2634,0.5942,0.7993,674,2.6245,9.7656,-13.6719,86,1.1666,0,2.5216,39.7006,25,0.8654,14240,4.0403,111.0876
rg,1625794502024068723,1,0.2642,0.603,0.8076,675,2.3804,9.2773,-13.5498,86,1.1666,0,2.4797,39.665,25,0.8654,7714,4.0403,110.9048
rg,1625794502024118926,1,0.2651,0.595,0.802,676,2.5024,9.7656,-14.0381,86,1.1666,0,2.4598,39.6289,25,0.8654,9126,4.0403,110.7191
rg,1625794502024166054,1,0.2615,0.5957,0.8022,677,2.5635,9.0942,-12.8174,86,1.1666,0,2.3967,39.5986,25,0.8654,7592,4.0403,110.5534
rg,1625794502024211313,1,0.2642,0.5972,0.8047,678,3.2349,9.3384,-12.8174,86,1.1666,0,2.3394,39.596,25,0.8654,7608,4.0403,110.3938
rg,1625794502024258164,1,0.2625,0.5925,0.8015,679,3.2349,9.7046,-13.4277,86,1.1666,0,2.307,39.5919,25,0.8654,10692,4.0403,110.2249
rg,1625794502024305700,1,0.2666,0.5972,0.8044,680,3.7842,9.5215,-13.2446,86,1.1666,0,2.2646,39.6118,25,0.8654,7725,4.0403,110.057
rg,1625794502024455124,1,0.2683,0.5945,0.8052,681,3.6011,10.2539,-14.2212,86,1.1666,0,2.2672,39.6176,25,0.8654,7710,4.0403,109.8778
rg,1625794502024510326,1,0.2637,0.5933,0.8091,682,3.479,10.1318,-14.0991,86,1.1666,0,2.2736,39.6109,25,0.8654,7686,4.0403,109.6991
rg,1625794502024556826,1,0.2654,0.5891,0.8008,683,2.9907,9.8267,-13.1226,86,1.1666,0,2.2371,39.5896,25,0.8654,7685,4.0403,109.5426
rg,1625794502024610473,1,0.2654,0.5933,0.7996,684,3.54,9.8877,-13.4888,86,1.1666,0,2.2551,39.6068,25,0.8654,7738,4.0403,109.364
rg,1625794502024656231,1,0.2668,0.592,0.8083,685,4.0894,9.8877,-12.7563,86,1.1666,0,2.2131,39.6253,25,0.8684,8141,4.0403,109.2202
rg,1625794502024699046,1,0.2656,0.5947,0.8049,686,3.7842,9.9487,-12.7563,86,1.1656,0,2.1764,39.6402,25,0.8644,9703,4.0403,109.0786
rg,1625794502024742045,1,0.2668,0.5942,0.7993,687,4.0894,10.1318,-13.2446,86,1.1676,0.001,2.1542,39.673,25,0.8644,7798,4.0403,108.9272
rg,1625794502024785896,1,0.269,0.5947,0.7949,688,3.8452,10.3149,-12.8174,86,1.1676,0,2.1511,39.6852,25,0.8654,7669,4.0403,108.7967
rg,1625794502024827914,1,0.2688,0.5925,0.8005,689,4.1504,10.6812,-13.6108,86,1.1656,0,2.1522,39.7143,25,0.8644,7854,4.0403,108.6484
rg,1625794502024869913,1,0.2725,0.5938,0.7964,690,4.1504,11.1084,-12.5122,86,1.1676,0,2.1295,39.7518,25,0.8674,7843,4.0403,108.5455
rg,1625794502024911357,1,0.2703,0.5989,0.8005,691,4.1504,11.2915,-13.0615,86,1.1676,0,2.1266,39.806,25,0.8664,8129,4.0403,108.4457
rg,1625794502024952467,1,0.2717,0.5957,0.804,692,4.3335,12.5122,-14.8926,86,1.1656,0,2.2143,39.8392,25,0.8654,7928,4.0403,108.3065
rg,1625794502024995985,1,0.2659,0.594,0.7991,693,4.0283,12.3291,-12.6343,86,1.1676,0,2.2445,39.8646,25,0.8664,7916,4.0403,108.2322
rg,1625794502025037503,1,0.2651,0.6018,0.7979,694,4.7607,13.1836,-13.0615,86,1.1666,0,2.3202,39.9357,25,0.8664,7906,4.0403,108.1676
rg,1625794502025080317,1,0.2634,0.5964,0.8091,695,4.2114,13.4277,-13.6719,86,1.1666,0,2.4166,39.9555,25,0.8654,7990,4.0403,108.0902
rg,1625794502025156371,1,0.2563,0.6028,0.8018,696,4.6997,12.146,-12.207,86,1.1676,0,2.4459,40.0149,25,0.8654,8000,4.0403,108.0255
rg,1625794502025205667,1,0.2639,0.6067,0.8035,697,4.6387,12.2681,-13.1836,86,1.1676,0,2.497,40.0634,25,0.8674,8050,4.0403,107.9343
rg,1625794502025248277,1,0.261,0.6042,0.8081,698,4.5166,12.2681,-11.7798,86,1.1666,0,2.5097,40.1064,25,0.8654,8075,4.0403,107.8865
rg,1625794502025289554,1,0.2642,0.5986,0.7976,699,4.5776,12.3901,-13.4888,86,1.1676,0,2.5572,40.1521,25,0.8664,8087,4.0403,107.7903
rg,1625794502025333979,1,0.2622,0.5989,0.7979,700,4.5776,12.146,-12.6343,86,1.1676,0,2.6073,40.1831,25,0.8664,8088,4.0403,107.6961
rg,1625794502025377053,1,0.2637,0.6064,0.8,701,4.5166,11.7188,-12.085,86,1.1656,0,2.599,40.2349,25,0.8654,8101,4.0403,107.6264
rg,1625794502025421700,1,0.262,0.6028,0.8003,702,3.7231,11.7188,-12.2681,86,1.1666,0,2.5983,40.2461,25,0.8674,8253,4.0403,107.5513
rg,1625794502025463070,1,0.2573,0.6047,0.8003,703,3.7231,12.2681,-13.3057,86,1.1676,0,2.605,40.2776,25,0.8674,8302,4.0403,107.487
rg,1625794502025508810,1,0.2629,0.6077,0.8037,704,4.4556,12.3901,-12.8174,86,1.1666,0,2.6396,40.3203,25,0.8654,8700,4.0403,107.4132
rg,1625794502378040025,1,0.262,0.6033,0.7996,705,4.3945,12.7563,-14.0991,86,1.1676,0,2.7161,40.3554,25,0.8664,25260,4.0403,107.3102
rg,1625794502378175967,1,0.2549,0.5977,0.7964,706,3.9062,11.9019,-13.4277,86,1.1676,0,2.7579,40.3636,25,0.8664,10722,4.0403,107.2052
rg,1625794502378232633,1,0.2566,0.6045,0.8071,707,3.9673,12.2681,-13.4277,86,1.1676,0,2.816,40.3721,25,0.8664,7778,4.0403,107.1097
rg,1625794502378285095,1,0.2554,0.6077,0.8052,708,3.54,11.9019,-12.5732,86,1.1676,0,2.8375,40.372,25,0.8664,7677,4.0403,107.031
rg,1625794502378333353,1,0.2524,0.6057,0.8035,709,3.3569,11.4136,-12.085,86,1.1676,0,2.8353,40.3635,25,0.8664,7649,4.0403,106.9543
rg,1625794502378381686,1,0.2515,0.604,0.8088,710,3.418,11.5967,-12.8174,86,1.1676,0,2.8614,40.3468,25,0.8664,7639,4.0403,106.8595
rg,1625794502378429444,1,0.2576,0.605,0.8003,711,3.479,10.437,-12.9395,86,1.1656,0,2.8389,40.3446,25,0.8654,9141,4.0403,106.7313
rg,1625794502378509924,1,0.2546,0.6021,0.8,712,2.3804,10.5591,-12.5122,86,1.1676,0,2.8148,40.2947,25,0.8664,7783,4.0403,106.6191
rg,1625794502378556738,1,0.2559,0.6035,0.8086,713,2.8076,10.437,-12.207,86,1.1656,0,2.7814,40.2554,25,0.8654,7712,4.0403,106.5121
rg,1625794502378601719,1,0.2583,0.5977,0.8042,714,2.8076,9.6436,-11.7188,86,1.1666,0,2.704,40.2131,25,0.8644,7717,4.0403,106.3991
rg,1625794502378648218,1,0.2568,0.6008,0.8049,715,2.8687,10.2539,-12.9395,86,1.1686,0,2.6524,40.1744,25,0.8674,7920,4.0403,106.2828
rg,1625794502378692866,1,0.2593,0.6047,0.8035,716,3.1738,9.5215,-12.6343,86,1.1666,0,2.5995,40.1619,25,0.8664,7810,4.0403,106.1388
rg,1625794502378739254,1,0.2595,0.5986,0.8025,717,2.3804,10.2539,-13.3057,86,1.1676,0,2.5853,40.1089,25,0.8674,7822,4.0403,105.9929
rg,1625794502378785735,1,0.2622,0.6072,0.8018,718,3.0518,9.7046,-12.085,86,1.1676,0,2.5196,40.1011,25,0.8674,7817,4.0403,105.8703
rg,1625794502378975176,1,0.2561,0.5986,0.804,719,2.8076,9.5215,-13.2446,86,1.1646,0,2.492,40.0649,25,0.8654,7920,4.0403,105.7068
rg,1625794502379173561,1,0.2622,0.6025,0.8027,720,2.3193,10.437,-13.6719,86,1.1686,0,2.4926,40.0197,25,0.8674,7868,4.0403,105.554
rg,1625794502379228709,1,0.2617,0.5964,0.8015,721,2.8687,10.3149,-12.3901,86,1.1666,0,2.455,39.9906,25,0.8664,7867,4.0403,105.4364
rg,1625794502379279411,1,0.2605,0.5942,0.8052,722,3.2349,10.9863,-13.2446,86,1.1686,0,2.4645,39.9682,25,0.8654,7926,4.0403,105.3095
rg,1625794502379326985,1,0.2622,0.5967,0.8025,723,2.4414,11.2915,-13.1226,86,1.1676,0,2.4759,39.9234,25,0.8674,7972,4.0403,105.1942
rg,1625794502379371669,1,0.2595,0.5933,0.8047,724,2.9297,11.4136,-12.8784,86,1.1666,0,2.4904,39.8943,25,0.8684,8353,4.0403,105.066
rg,1625794502379719256,1,0.2634,0.6011,0.7998,725,3.3569,11.1694,-13.1836,86,1.1686,0,2.4963,39.8998,25,0.8674,8007,4.0403,104.9454
rg,1625794502379804810,1,0.2617,0.5974,0.8076,726,4.2114,11.2305,-12.4512,86,1.1666,0,2.4907,39.9235,25,0.8654,7994,4.0403,104.8481
rg,1625794502379933363,1,0.2561,0.5989,0.804,727,3.7842,10.6201,-12.3901,86,1.1676,0,2.4755,39.9358,25,0.8664,12080,4.0403,104.7375
rg,1625794502379990437,1,0.2583,0.6001,0.8081,728,3.7842,11.3525,-13.5498,86,1.1676,0,2.5106,39.9437,25,0.8664,8006,4.0403,104.6103
rg,1625794502380043065,1,0.2551,0.5925,0.8044,729,3.6621,11.0474,-13.3057,86,1.1676,0,2.5315,39.9377,25,0.8664,8079,4.0403,104.4822
rg,1625794502380089194,1,0.2549,0.6016,0.8037,730,3.2959,11.2915,-12.6343,86,1.1676,0,2.5477,39.9396,25,0.8664,8093,4.0403,104.3819
rg,1625794502380309913,1,0.2549,0.606,0.8042,731,3.1128,11.2915,-12.3291,86,1.1676,0,2.5539,39.9373,25,0.8664,8103,4.0403,104.291
rg,1625794502380359412,1,0.2573,0.5959,0.804,732,2.8687,10.6812,-12.6343,86,1.1686,0,2.5411,39.9071,25,0.8664,9250,4.0403,104.1743
rg,1625794502380407726,1,0.2612,0.5974,0.8037,733,3.54,10.5591,-12.085,86,1.1686,0,2.5033,39.9085,25,0.8684,8134,4.0403,104.0712
rg,1625794502380455392,1,0.2654,0.5928,0.8054,734,3.2349,9.8267,-12.207,86,1.1656,0,2.4385,39.8866,25,0.8664,8169,4.0403,103.9451
rg,1625794502380504187,1,0.2705,0.5894,0.8062,735,3.8452,11.0474,-12.8174,86,1.1686,0,2.418,39.8837,25,0.8664,8150,4.0403,103.8314
rg,1625794502380561946,1,0.2622,0.5962,0.8059,736,3.8452,12.6953,-13.4277,86,1.1686,0,2.483,39.8939,25,0.8664,8200,4.0403,103.7419
rg,1625794502726335014,1,0.2593,0.605,0.7996,737,3.9062,12.8784,-12.4512,86,1.1686,0,2.5321,39.9312,25,0.8664,24626,4.0403,103.6881
rg,1625794502726487234,1,0.2549,0.6047,0.7961,738,3.3569,12.2681,-13.0005,86,1.1676,0,2.5824,39.9477,25,0.8664,14186,4.0403,103.6021
rg,1625794502726552566,1,0.2532,0.6042,0.7986,739,3.3569,12.085,-12.146,86,1.1676,0,2.5939,39.9084,25,0.8664,7593,4.0403,103.5196
rg,1625794502726612010,1,0.2571,0.6001,0.8071,740,3.2349,12.0239,-13.0005,86,1.1676,0,2.6329,39.8979,25,0.8664,7610,4.0403,103.426
rg,1625794502726767674,1,0.2461,0.5986,0.8047,741,3.1128,11.9629,-13.4277,86,1.1676,0,2.7005,39.8825,25,0.8674,7547,4.0403,103.3175
rg,1625794502726828376,1,0.248,0.5977,0.8071,742,2.3804,11.6577,-13.3057,86,1.1676,0,2.7121,39.8828,25,0.8674,8288,4.0403,103.2409
rg,1625794502726876450,1,0.248,0.5984,0.8032,743,3.1738,11.8408,-13.0005,86,1.1676,0,2.7573,39.8723,25,0.8654,8183,4.0403,103.1421
rg,1625794502726931486,1,0.249,0.5977,0.801,744,3.6011,11.2305,-13.0005,86,1.1676,0,2.7791,39.8801,25,0.8674,8142,4.0403,103.0274
rg,1625794502726980041,1,0.2573,0.605,0.8049,745,3.3569,10.498,-12.2681,86,1.1686,0,2.7477,39.8843,25,0.8674,7661,4.0403,102.9167
rg,1625794502727024521,1,0.2559,0.6016,0.8054,746,3.8452,10.9863,-12.0239,86,1.1636,0,2.7263,39.9038,25,0.8654,7756,4.0403,102.8259
rg,1625794502727069965,1,0.2549,0.5972,0.8052,747,3.54,11.4746,-13.4277,86,1.1686,0,2.7572,39.9015,25,0.8684,7698,4.0403,102.7045
rg,1625794502727114038,1,0.2607,0.6035,0.8052,748,3.8452,10.7422,-12.9395,86,1.1666,0,2.7421,39.9226,25,0.8664,7728,4.0403,102.5797
rg,1625794502727156630,1,0.2588,0.5974,0.8005,749,2.9907,11.2915,-13.4277,86,1.1676,0,2.7634,39.9163,25,0.8674,7780,4.0403,102.4547
rg,1625794502727203278,1,0.2512,0.6013,0.8098,750,3.479,11.1084,-13.0005,86,1.1676,0,2.7814,39.9123,25,0.8664,7899,4.0403,102.3371
rg,1625794502727246943,1,0.2546,0.6057,0.8015,751,3.3569,11.5967,-13.855,86,1.1676,0,2.8265,39.9215,25,0.8664,8025,4.0403,102.2067
rg,1625794502727296369,1,0.2554,0.6001,0.7991,752,2.8687,10.6812,-12.6343,86,1.1676,0,2.8064,39.9051,25,0.8674,8431,4.0403,102.0898
rg,1625794502727340812,1,0.2571,0.6021,0.8098,753,3.1128,11.2915,-13.3667,86,1.1676,0,2.826,39.8879,25,0.8674,7879,4.0403,101.9655
rg,1625794502727385978,1,0.2563,0.5969,0.8003,754,3.0518,11.4746,-13.3057,86,1.1676,0,2.845,39.8729,25,0.8674,7915,4.0403,101.8478
rg,1625794502727430829,1,0.2512,0.6006,0.8064,755,3.2349,11.0474,-12.7563,86,1.1676,0,2.85,39.8641,25,0.8674,8128,4.0403,101.7356
rg,1625794502727540605,1,0.2529,0.6035,0.8025,756,2.9907,10.8643,-12.6343,86,1.1686,0,2.842,39.8562,25,0.8664,8036,4.0403,101.6229
rg,1625794502727607826,1,0.2556,0.6021,0.8115,757,3.1738,10.7422,-12.4512,86,1.1656,0,2.8235,39.8418,25,0.8654,8001,4.0403,101.5118
rg,1625794502727657288,1,0.2524,0.5957,0.8037,758,2.9907,11.0474,-12.8174,86,1.1686,0,2.8259,39.8195,25,0.8664,8004,4.0403,101.3973
rg,1625794502727707436,1,0.2559,0.6042,0.8037,759,3.2349,11.0474,-14.0381,86,1.1686,0,2.855,39.8209,25,0.8684,8057,4.0403,101.2458
rg,1625794502727751268,1,0.2576,0.6003,0.8115,760,3.2959,10.6201,-13.6108,86,1.1646,0,2.8575,39.8077,25,0.8664,8096,4.0403,101.0955
rg,1625794502727795101,1,0.2544,0.5955,0.8103,761,4.4556,11.4136,-13.2446,86,1.1676,0,2.8793,39.8358,25,0.8674,8140,4.0403,100.9764
rg,1625794502727844545,1,0.259,0.5955,0.8059,762,3.8452,11.5967,-13.4277,86,1.1686,-0.001,2.8994,39.8443,25,0.8684,9965,4.0403,100.8569
rg,1625794502727891785,1,0.2561,0.6006,0.8057,763,4.5166,12.0239,-13.855,82,1.1676,-0.001,2.9584,39.8865,25,0.8674,8049,4.0403,100.7357
rg,1625794502727938599,1,0.2568,0.6086,0.8062,764,5.0049,11.3525,-13.1836,82,1.1676,0,2.9704,39.9619,25,0.8664,8231,4.0403,100.6189
rg,1625794502727985542,1,0.2512,0.6021,0.8037,765,3.9673,11.2305,-12.5122,82,1.1686,0,2.9695,39.9855,25,0.8684,8232,4.0403,100.5198
rg,1625794502728035041,1,0.2524,0.6035,0.7988,766,3.7231,11.3525,-13.3057,82,1.1686,-0.001,2.9675,40.0234,25,0.8684,8240,4.0403,100.3932
rg,1625794502728090522,1,0.2473,0.6042,0.8035,767,3.3569,10.7422,-13.0615,82,1.1666,-0.001,2.9746,40.0228,25,0.8664,8113,4.0403,100.2655
rg,1625794502728136299,1,0.249,0.6033,0.7988,768,4.4556,10.498,-13.2446,82,1.1676,0,2.9732,40.07,25,0.8644,8254,4.0403,100.1261
rg,1625794503069435098,1,0.25,0.5986,0.7979,769,4.0894,11.5967,-14.2822,82,1.1666,0,2.9813,40.0908,25,0.8674,25565,4.0403,100.0203
rg,1625794503069537929,1,0.2512,0.6001,0.8049,770,4.8218,10.376,-12.8784,82,1.1676,0,2.9636,40.1368,25,0.8674,14891,4.0403,99.8889
rg,1625794503070026811,1,0.2532,0.6025,0.803,771,4.2725,10.8643,-13.7329,82,1.1676,0,2.9795,40.1654,25,0.8664,7623,4.0403,99.7448
rg,1625794503070483692,1,0.2542,0.6033,0.8049,772,3.9062,11.1084,-13.2446,82,1.1676,0,2.9887,40.1781,25,0.8664,9736,4.0403,99.6222
rg,1625794503070561876,1,0.2532,0.6084,0.7979,773,4.2725,10.6201,-13.5498,82,1.1676,0,2.9983,40.2256,25,0.8674,7775,4.0403,99.5006
rg,1625794503070617227,1,0.2544,0.6113,0.8044,774,4.2114,9.8877,-12.5732,82,1.1676,0,2.9542,40.2622,25,0.8674,7633,4.0403,99.3681
rg,1625794503070670486,1,0.2539,0.6072,0.8062,775,3.54,11.1694,-14.0381,82,1.1676,0,2.9891,40.2607,25,0.8674,7634,4.0403,99.2241
rg,1625794503070721596,1,0.2539,0.6067,0.8047,776,4.2114,10.2539,-12.146,82,1.1676,0,2.9452,40.2888,25,0.8674,7631,4.0403,99.1141
rg,1625794503070770910,1,0.2542,0.6038,0.8013,777,3.479,11.4136,-13.7939,82,1.1666,0,2.9781,40.285,25,0.8654,8087,4.0403,98.9842
rg,1625794503070819039,1,0.2566,0.6055,0.8025,778,3.7842,10.6201,-12.8174,82,1.1686,0,2.9564,40.2955,25,0.8664,8003,4.0403,98.8635
rg,1625794503070864020,1,0.2537,0.6042,0.8049,779,3.2959,10.5591,-12.6953,82,1.1676,0,2.9701,40.28,25,0.8674,7746,4.0403,98.7001
rg,1625794503070909167,1,0.2534,0.6038,0.8025,780,4.2114,10.8032,-13.0005,82,1.1656,0,2.965,40.3046,25,0.8664,7763,4.0403,98.5784
rg,1625794503070953815,1,0.2544,0.6079,0.7998,781,2.8687,10.8032,-12.4512,82,1.1686,0,2.944,40.2863,25,0.8664,9680,4.0403,98.4742
rg,1625794503070999147,1,0.2527,0.6035,0.7927,782,2.7466,10.5591,-12.6343,82,1.1696,0,2.9205,40.2651,25,0.8664,7776,4.0403,98.3581
rg,1625794503071044091,1,0.2495,0.6045,0.8042,783,2.9297,10.0708,-12.8174,82,1.1666,0,2.8991,40.2375,25,0.8664,7868,4.0403,98.2228
rg,1625794503071089738,1,0.259,0.6038,0.8,784,2.9297,10.2539,-12.146,82,1.1696,0,2.8454,40.2167,25,0.8664,7883,4.0403,98.1129
rg,1625794503071136664,1,0.2524,0.6055,0.7991,785,2.9907,10.498,-13.1836,82,1.1686,0,2.8061,40.1954,25,0.8684,7902,4.0403,97.9893
rg,1625794503071460381,1,0.2546,0.6021,0.8054,786,3.1128,10.9253,-13.7329,82,1.1666,0,2.8278,40.1719,25,0.8664,7923,4.0403,97.8476
rg,1625794503071572175,1,0.252,0.5986,0.8035,787,3.1128,11.2915,-13.0005,82,1.1676,0,2.8446,40.1474,25,0.8674,7931,4.0403,97.7372
rg,1625794503071623600,1,0.2463,0.5979,0.802,788,2.8076,10.437,-13.0005,82,1.1696,0,2.8486,40.1017,25,0.8684,7908,4.0403,97.6132
rg,1625794503071674729,1,0.2471,0.6008,0.8074,789,3.479,10.9863,-13.3057,82,1.1666,0,2.8752,40.0921,25,0.8664,7966,4.0403,97.4848
rg,1625794503071719562,1,0.2517,0.5989,0.7993,790,3.0518,10.5591,-13.0615,82,1.1686,0,2.8681,40.073,25,0.8684,7971,4.0403,97.3531
rg,1625794503071775135,1,0.252,0.6023,0.7976,791,2.5635,9.9487,-11.9629,82,1.1686,0,2.8503,40.022,25,0.8684,8018,4.0403,97.2128
rg,1625794503071830745,1,0.2537,0.593,0.8044,792,2.6855,10.2539,-12.9395,82,1.1666,0,2.828,39.9737,25,0.8664,8015,4.0403,97.0754
rg,1625794503071880708,1,0.2524,0.5955,0.8032,793,3.1738,10.9863,-13.7939,82,1.1686,0,2.8534,39.9523,25,0.8684,8063,4.0403,96.9307
rg,1625794503071925818,1,0.2583,0.604,0.8047,794,3.1738,10.0098,-13.1836,82,1.1686,0,2.8572,39.9447,25,0.8684,8082,4.0403,96.7926
rg,1625794503072162777,1,0.2583,0.5972,0.8105,795,3.1128,10.1318,-12.5122,82,1.1666,0,2.814,39.9164,25,0.8664,8121,4.0403,96.6644
rg,1625794503072217517,1,0.2559,0.6001,0.8062,796,3.1128,10.6201,-12.7563,82,1.1686,0,2.7976,39.9003,25,0.8684,8091,4.0403,96.5417
rg,1625794503072266220,1,0.2537,0.6028,0.804,797,3.6011,10.498,-13.3057,82,1.1686,0,2.7965,39.9108,25,0.8674,8759,4.0403,96.3993
rg,1625794503072311516,1,0.2485,0.6001,0.8076,798,2.3804,10.9253,-13.5498,82,1.1666,0,2.8259,39.8627,25,0.8664,8188,4.0403,96.26
rg,1625794503072360756,1,0.2515,0.6011,0.8062,799,3.2959,10.437,-13.0615,82,1.1686,0,2.8204,39.8568,25,0.8674,8232,4.0403,96.1227
rg,1625794503072408792,1,0.2532,0.5977,0.8027,800,2.9297,10.8643,-13.0615,82,1.1636,0,2.8223,39.8356,25,0.8664,10309,4.0403,95.9964
rg,1625794503416878242,1,0.2478,0.605,0.7964,801,3.418,10.6812,-13.4888,82,1.1676,0,2.84,39.8549,25,0.8674,25744,4.0403,95.853
rg,1625794503417028203,1,0.2524,0.6074,0.7976,802,2.5024,10.437,-13.1226,82,1.1676,0,2.8374,39.8268,25,0.8674,10371,4.0403,95.7142
rg,1625794503417080610,1,0.2483,0.6072,0.803,803,2.6245,10.6812,-14.0381,82,1.1676,-0.001,2.8708,39.809,25,0.8674,7588,4.0403,95.5536
rg,1625794503417133146,1,0.2512,0.6028,0.8083,804,2.6245,10.7422,-13.9771,82,1.1676,0,2.898,39.7773,25,0.8674,7433,4.0403,95.3955
rg,1625794503417181182,1,0.2534,0.6025,0.8093,805,2.3804,10.437,-13.4888,82,1.1686,0,2.8982,39.7356,25,0.8674,7644,4.0403,95.244
rg,1625794503417227237,1,0.2527,0.6042,0.8057,806,3.2349,10.498,-13.0615,82,1.1676,0,2.8897,39.7383,25,0.8674,7635,4.0403,95.1073
rg,1625794503417276347,1,0.2532,0.6084,0.793,807,3.2959,10.3149,-13.3667,82,1.1696,0,2.879,39.7667,25,0.8684,9129,4.0403,94.9577
rg,1625794503417327587,1,0.2483,0.6008,0.8064,808,3.479,10.3149,-12.3291,82,1.1666,0,2.8553,39.7718,25,0.8664,7677,4.0403,94.8387
rg,1625794503417428882,1,0.2507,0.6018,0.8005,809,2.8076,10.498,-14.0991,82,1.1686,0,2.8763,39.7569,25,0.8684,7630,4.0403,94.6707
rg,1625794503417481659,1,0.2507,0.6072,0.8052,810,3.1738,11.4136,-14.2212,82,1.1686,0,2.914,39.7563,25,0.8684,7694,4.0403,94.5221
rg,1625794503417528695,1,0.2512,0.6042,0.8088,811,3.3569,9.6436,-12.6343,82,1.1686,0,2.8722,39.7584,25,0.8664,7696,4.0403,94.3765
rg,1625794503417574750,1,0.2446,0.5991,0.8025,812,2.3193,10.0098,-13.2446,82,1.1686,0,2.8682,39.7177,25,0.8684,7696,4.0403,94.2216
rg,1625794503417620879,1,0.2454,0.6028,0.8079,813,3.0518,9.6436,-13.4888,82,1.1666,0,2.8609,39.7064,25,0.8664,7765,4.0403,94.0493
rg,1625794503417671971,1,0.2512,0.5991,0.8027,814,2.0142,9.0942,-13.3667,82,1.1696,0,2.8189,39.6541,25,0.8684,7745,4.0403,93.8667
rg,1625794503417721118,1,0.2551,0.6038,0.8079,815,2.1973,9.2773,-13.6719,82,1.1696,0,2.7875,39.6119,25,0.8684,7772,4.0403,93.6711
rg,1625794503417857783,1,0.2593,0.606,0.8086,816,2.6245,8.8501,-12.6343,82,1.1656,0,2.7099,39.5931,25,0.8664,7841,4.0403,93.5044
rg,1625794503417922522,1,0.2615,0.6016,0.8037,817,2.1362,9.4604,-13.2446,82,1.1686,0,2.6616,39.5544,25,0.8684,7839,4.0403,93.3344
rg,1625794503417968188,1,0.259,0.5959,0.8047,818,2.7466,9.5215,-13.0615,82,1.1686,0,2.6213,39.5383,25,0.8684,8305,4.0403,93.1712
rg,1625794503418011373,1,0.2578,0.603,0.8074,819,2.9297,10.5591,-13.916,82,1.1676,0,2.5803,39.527,25,0.8674,9339,4.0403,93.0131
rg,1625794503418057372,1,0.2566,0.6042,0.8032,820,3.479,10.1929,-13.4277,82,1.1676,0,2.5745,39.5506,25,0.8674,7880,4.0403,92.8561
rg,1625794503418102316,1,0.2544,0.6057,0.8057,821,3.479,10.437,-12.8174,82,1.1676,0,2.5668,39.5736,25,0.8674,7917,4.0403,92.7243
rg,1625794503418148630,1,0.2578,0.5942,0.8003,822,3.1738,10.437,-13.3667,82,1.1676,0,2.5609,39.5699,25,0.8674,7924,4.0403,92.5753
rg,1625794503418197666,1,0.2473,0.5938,0.8071,823,3.1128,10.6812,-12.8174,82,1.1676,0,2.5728,39.5548,25,0.8674,7974,4.0403,92.4489
rg,1625794503418242203,1,0.2527,0.6035,0.8027,824,2.9907,10.8032,-14.3433,82,1.1676,0,2.6169,39.5564,25,0.8674,8215,4.0403,92.2795
rg,1625794503418290831,1,0.2473,0.6016,0.7998,825,3.2349,10.3149,-13.4888,82,1.1666,0,2.6319,39.5686,25,0.8664,8436,4.0403,92.1239
rg,1625794503418336812,1,0.2512,0.603,0.8015,826,3.2959,10.0708,-13.2446,82,1.1696,0,2.6257,39.5833,25,0.8684,8033,4.0403,91.9697
rg,1625794503418381682,1,0.2527,0.6055,0.8052,827,3.1738,9.0942,-12.207,82,1.1696,0,2.5627,39.5923,25,0.8684,8085,4.0403,91.8226
rg,1625794503418425866,1,0.2539,0.6003,0.8076,828,3.479,9.0942,-12.085,82,1.1646,0,2.4959,39.6014,25,0.8674,8086,4.0403,91.6789
rg,1625794503418467366,1,0.2527,0.6016,0.8088,829,3.418,11.1694,-13.855,82,1.1686,0,2.5438,39.6081,25,0.8684,8144,4.0403,91.534
rg,1625794503418743713,1,0.2568,0.6086,0.8022,830,3.54,9.5825,-13.6719,82,1.1696,0,2.5315,39.6189,25,0.8694,8163,4.0403,91.3542
rg,1625794503418844286,1,0.2551,0.6064,0.804,831,3.2959,9.4604,-13.0005,82,1.1676,0,2.4984,39.6344,25,0.8674,8215,4.0403,91.1927
rg,1625794503418936488,1,0.2578,0.6033,0.8037,832,3.6011,10.2539,-13.7939,82,1.1686,0,2.5047,39.6561,25,0.8684,8211,4.0403,91.0271
rg,1625794503766447298,1,0.2607,0.6006,0.7891,833,3.8452,10.7422,-14.3433,82,1.1676,0,2.5269,39.7015,25,0.8674,24530,4.0403,90.858
rg,1625794503766541501,1,0.2542,0.5959,0.7966,834,4.0894,10.5591,-13.5498,82,1.1676,0,2.5378,39.7372,25,0.8684,14066,4.0403,90.7081
rg,1625794503766593833,1,0.2488,0.6018,0.7966,835,4.2725,10.2539,-12.4512,82,1.1686,0,2.5238,39.7902,25,0.8684,7612,4.0403,90.585
rg,1625794503766644388,1,0.2549,0.6033,0.8008,836,5.127,11.0474,-13.916,82,1.1676,0,2.5461,39.83,25,0.8684,9299,4.0403,90.4373
rg,1625794503766693480,1,0.2593,0.6094,0.8042,837,3.6621,10.9253,-13.7329,82,1.1676,0,2.5691,39.8574,25,0.8684,7619,4.0403,90.2932
rg,1625794503766739831,1,0.2537,0.6067,0.8062,838,4.0283,10.5591,-12.9395,82,1.1676,0,2.5712,39.8917,25,0.8684,7731,4.0403,90.1638
rg,1625794503766784663,1,0.2527,0.6038,0.803,839,4.1504,10.7422,-14.0991,82,1.1706,0,2.6035,39.9193,25,0.8674,8217,4.0403,90.0035
rg,1625794503766828774,1,0.2576,0.6033,0.8076,840,3.6621,10.2539,-13.4888,82,1.1676,0,2.6008,39.9277,25,0.8674,8192,4.0403,89.8497
rg,1625794503766871847,1,0.2566,0.6003,0.8083,841,3.54,10.1318,-13.4277,82,1.1696,0,2.5944,39.9247,25,0.8684,7703,4.0403,89.6943
rg,1625794503766913143,1,0.2449,0.6038,0.8093,842,3.7842,10.6201,-13.0615,82,1.1676,0,2.6189,39.9369,25,0.8684,11630,4.0403,89.5629
rg,1625794503766954531,1,0.2505,0.6006,0.8049,843,3.9673,9.7046,-12.5122,82,1.1676,0,2.5864,39.9561,25,0.8684,7688,4.0403,89.4248
rg,1625794503766997086,1,0.2488,0.6028,0.8066,844,3.54,11.1084,-13.4277,82,1.1676,0,2.6263,39.9594,25,0.8684,7732,4.0403,89.2952
rg,1625794503767037400,1,0.2522,0.594,0.8025,845,3.3569,9.9487,-13.4277,82,1.1686,0,2.6181,39.9441,25,0.8684,7737,4.0403,89.1352
rg,1625794503767122510,1,0.2571,0.6038,0.8003,846,3.479,9.7656,-13.6108,82,1.1676,0,2.6013,39.9539,25,0.8684,8883,4.0403,88.9657
rg,1625794503767172176,1,0.2524,0.6011,0.8044,847,3.3569,9.9487,-12.5732,82,1.1676,0,2.5673,39.9563,25,0.8684,8954,4.0403,88.8327
rg,1625794503767215879,1,0.2551,0.6016,0.8037,848,3.6621,10.7422,-14.0381,82,1.1666,0,2.5979,39.9652,25,0.8674,8375,4.0403,88.6751
rg,1625794503767258767,1,0.2603,0.6033,0.8005,849,4.1504,10.0708,-12.7563,82,1.1686,0,2.5629,40.0015,25,0.8694,7885,4.0403,88.5398
rg,1625794503767300896,1,0.2573,0.6003,0.8049,850,3.1128,10.6201,-13.7329,82,1.1696,0,2.5666,39.9939,25,0.8694,7902,4.0403,88.3893
rg,1625794503767342636,1,0.2593,0.6013,0.8069,851,3.418,10.5591,-13.1226,82,1.1666,0,2.5611,39.9883,25,0.8684,7960,4.0403,88.2552
rg,1625794503767385691,1,0.2568,0.5994,0.8035,852,4.4556,11.5356,-13.3057,82,1.1686,0,2.5932,40.0261,25,0.8694,7993,4.0403,88.1407
rg,1625794503767427079,1,0.2522,0.6008,0.7971,853,3.9062,11.2305,-14.1602,82,1.1696,0,2.6369,40.0561,25,0.8684,7958,4.0403,87.9933
rg,1625794503767657594,1,0.2561,0.6033,0.8027,854,4.1504,11.6577,-13.3667,82,1.1656,0,2.6739,40.0868,25,0.8674,8164,4.0403,87.881
rg,1625794503767710538,1,0.2502,0.5947,0.7993,855,4.6387,11.1694,-13.6719,82,1.1696,0,2.7107,40.1241,25,0.8684,8023,4.0403,87.7465
rg,1625794503767761648,1,0.2539,0.6006,0.8037,856,3.7231,11.4136,-13.855,82,1.1696,0,2.7543,40.128,25,0.8694,10442,4.0403,87.6132
rg,1625794503767944349,1,0.2581,0.6057,0.8,857,3.9673,12.2681,-14.7095,82,1.1696,0,2.7966,40.1924,25,0.8694,8169,4.0403,87.4847
rg,1625794503768010033,1,0.2546,0.6028,0.8066,858,4.3335,11.0474,-13.9771,82,1.1666,0,2.8294,40.2172,25,0.8684,8110,4.0403,87.3387
rg,1625794503768055940,1,0.2563,0.6074,0.7959,859,4.6387,10.6812,-13.4277,82,1.1696,0,2.8293,40.276,25,0.8694,8148,4.0403,87.2013
rg,1625794503768102124,1,0.2507,0.6084,0.7996,860,4.6387,11.2915,-14.3433,82,1.1696,0,2.8815,40.3466,25,0.8694,8110,4.0403,87.075
rg,1625794503768380935,1,0.251,0.6099,0.8018,861,4.6387,10.8643,-14.1602,82,1.1666,0,2.9182,40.3957,25,0.8684,8160,4.0403,86.9209
rg,1625794503768435119,1,0.2502,0.6021,0.8044,862,4.8828,11.2305,-14.0991,82,1.1696,0,2.9635,40.4359,25,0.8674,8189,4.0403,86.7778
rg,1625794503768480266,1,0.2522,0.6042,0.7927,863,4.5776,10.7422,-13.6108,82,1.1686,0,2.9717,40.4819,25,0.8694,8208,4.0403,86.6382
rg,1625794503768525303,1,0.2507,0.6089,0.804,864,3.9673,10.6812,-14.2212,82,1.1696,0,3.0025,40.4938,25,0.8704,8641,4.0403,86.4784
rg,1625794504115900053,1,0.2495,0.6018,0.7927,865,3.2349,11.4136,-13.5498,82,1.1676,0,3.0328,40.4807,25,0.8684,25502,4.0403,86.3584
rg,1625794504115986329,1,0.2556,0.6023,0.8008,866,3.6621,10.7422,-12.085,82,1.1686,0,2.9945,40.4768,25,0.8694,14781,4.0403,86.2646
rg,1625794504116041329,1,0.2532,0.603,0.8,867,2.6855,10.437,-12.2681,82,1.1686,0,2.9821,40.4305,25,0.8694,7570,4.0403,86.1757
rg,1625794504116092976,1,0.2495,0.6023,0.8059,868,3.2349,11.1694,-13.3057,82,1.1686,0,3.0047,40.4031,25,0.8694,7628,4.0403,86.0552
rg,1625794504116140216,1,0.2524,0.605,0.8008,869,2.4414,11.4746,-13.2446,82,1.1676,0,3.0268,40.3572,25,0.8694,7565,4.0403,85.9449
rg,1625794504116186419,1,0.25,0.6055,0.8022,870,3.479,11.2305,-13.4888,82,1.1676,0,3.0526,40.3524,25,0.8694,7649,4.0403,85.8201
rg,1625794504116232529,1,0.2483,0.6047,0.7991,871,3.2959,10.498,-12.3901,82,1.1656,0,3.0288,40.3442,25,0.8684,8796,4.0403,85.7098
rg,1625794504116276825,1,0.249,0.604,0.7947,872,3.3569,11.2915,-13.0615,82,1.1696,0,3.0439,40.3434,25,0.8704,7652,4.0403,85.6
rg,1625794504116521618,1,0.2493,0.6096,0.8018,873,3.2959,11.4136,-14.3433,82,1.1686,0,3.0992,40.3385,25,0.8694,7661,4.0403,85.4542
rg,1625794504116574135,1,0.2512,0.6016,0.8022,874,3.54,10.498,-12.9395,82,1.1666,0,3.0822,40.3299,25,0.8684,9416,4.0403,85.3264
rg,1625794504116624227,1,0.2559,0.6023,0.7959,875,3.6621,10.437,-13.7939,82,1.1696,0,3.0743,40.3349,25,0.8704,7804,4.0403,85.1715
rg,1625794504116742855,1,0.2544,0.6064,0.7979,876,3.1128,11.2915,-13.855,82,1.1686,0,3.0958,40.3238,25,0.8704,7732,4.0403,85.0373
rg,1625794504116791336,1,0.2534,0.6057,0.8098,877,3.3569,11.2305,-13.916,82,1.1686,0,3.1261,40.3051,25,0.8684,7738,4.0403,84.8985
rg,1625794504116837539,1,0.2502,0.6025,0.8052,878,3.54,10.9863,-12.8784,82,1.1696,0,3.1247,40.2963,25,0.8704,7730,4.0403,84.7848
rg,1625794504116890853,1,0.2498,0.6084,0.8042,879,3.2959,11.9629,-14.0991,82,1.1676,0,3.1868,40.2888,25,0.8684,7771,4.0403,84.6597
rg,1625794504116937204,1,0.2498,0.6062,0.7996,880,2.9297,11.4746,-14.1602,82,1.1686,0,3.2308,40.2684,25,0.8704,7789,4.0403,84.52
rg,1625794504116984481,1,0.2532,0.6099,0.7974,881,3.9673,11.1084,-14.1602,82,1.1696,0,3.2393,40.2555,25,0.8704,7804,4.0403,84.4083
rg,1625794504117033555,1,0.2493,0.6055,0.8022,882,3.2959,11.2305,-13.0615,82,1.1676,0,3.2473,40.2476,25,0.8684,7875,4.0403,84.295
rg,1625794504117079258,1,0.2454,0.5999,0.804,883,4.6387,11.1694,-13.916,77,1.1696,0,3.2823,40.2797,25,0.8704,7871,4.0425,84.1533
rg,1625794504117124016,1,0.2532,0.6033,0.8052,884,3.9673,11.3525,-14.3433,77,1.1686,0,3.3292,40.298,25,0.8714,7855,4.0425,84.0044
rg,1625794504117172997,1,0.2556,0.6077,0.8049,885,4.0894,10.8032,-14.1602,77,1.1686,0,3.3382,40.3178,25,0.8684,7899,4.0425,83.8468
rg,1625794504117395531,1,0.2537,0.6067,0.8057,886,4.2114,11.3525,-13.7329,77,1.1696,0,3.3564,40.3406,25,0.8704,7904,4.0425,83.7165
rg,1625794504117444771,1,0.2527,0.6072,0.8062,887,3.9673,11.0474,-13.0005,77,1.1676,0,3.3481,40.3537,25,0.8694,7955,4.0425,83.6008
rg,1625794504117490659,1,0.2507,0.6099,0.8018,888,4.6387,11.5356,-12.8174,77,1.1696,0,3.3532,40.4047,25,0.8684,8013,4.0425,83.5041
rg,1625794504117532788,1,0.2512,0.6094,0.7966,889,4.0894,11.4136,-13.7329,77,1.1696,0,3.3751,40.436,25,0.8694,8378,4.0425,83.3772
rg,1625794504117580084,1,0.2517,0.6096,0.8037,890,3.1738,11.5356,-14.0381,77,1.1686,0,3.4096,40.4201,25,0.8694,10941,4.0425,83.2439
rg,1625794504117857783,1,0.2454,0.6018,0.8005,891,4.0894,11.3525,-13.3667,77,1.1686,0,3.4172,40.4301,25,0.8694,8064,4.0425,83.1247
rg,1625794504117913875,1,0.2476,0.6089,0.8022,892,3.9062,11.5967,-13.5498,77,1.1686,0,3.447,40.4451,25,0.8694,8079,4.0425,83.0078
rg,1625794504117960300,1,0.2439,0.6006,0.8003,893,3.7842,10.9253,-13.1226,77,1.1686,0,3.4486,40.4424,25,0.8694,8221,4.0425,82.8856
rg,1625794504118006374,1,0.2473,0.6082,0.7961,894,3.6011,10.437,-14.0991,77,1.1686,0,3.4543,40.4487,25,0.8704,8207,4.0425,82.7222
rg,1625794504118053466,1,0.2524,0.6101,0.802,895,3.3569,10.9863,-13.916,77,1.1686,0,3.464,40.442,25,0.8704,8479,4.0425,82.5784
rg,1625794504118096206,1,0.2527,0.6111,0.8032,896,3.54,10.1929,-12.7563,77,1.1666,0,3.4196,40.4439,25,0.8694,8426,4.0425,82.4492
rg,1625794504472566402,1,0.2522,0.6045,0.7957,897,3.9062,11.0474,-13.7939,77,1.1686,0,3.4257,40.4584,25,0.8694,25008,4.0425,82.3108
rg,1625794504472708289,1,0.2559,0.6045,0.793,898,4.5166,11.2915,-13.5498,77,1.1686,0,3.4241,40.5012,25,0.8704,13945,4.0425,82.1865
rg,1625794504472765566,1,0.2534,0.6125,0.801,899,4.3335,11.4746,-13.6108,77,1.1686,0,3.4404,40.5384,25,0.8704,7671,4.0425,82.0657
