name,time,activity,ax,ay,az,batch_val,gx,gy,gz,ibat,index,middle,pitch,roll,temp,thumb,ts,vbat,yaw
lg,1624619695414067507,0,-0.418,-0.2195,0.9314,1,-0.061,-3.418,14.2212,61,1.3387,1.3487,21.1684,-6.6395,27,0.094,20058,3.7235,-12.1957
lg,1624619695414113039,0,-0.418,-0.229,0.9329,2,0.061,-3.418,15.3198,61,1.3387,1.3487,21.1971,-6.671,27,0.093,8433,3.7235,-11.6262
lg,1624619695414133277,0,-0.4263,-0.2319,0.9385,3,0.061,-3.418,14.5264,61,1.3387,1.3487,21.2817,-6.6876,27,0.093,8182,3.7235,-11.0565
lg,1624619695414152460,0,-0.4441,-0.2148,0.9604,4,0.6714,-2.0142,13.916,61,1.3387,1.3487,21.3838,-6.6685,27,0.094,8199,3.7235,-10.5358
lg,1624619695414171254,0,-0.4492,-0.2217,0.9417,5,0.5493,-2.9907,14.3433,61,1.3387,1.3487,21.4706,-6.6689,27,0.094,7870,3.7235,-10.001
lg,1624619695414190178,0,-0.4438,-0.2173,0.9619,6,0.1221,-2.6245,13.0005,61,1.3387,1.3487,21.5314,-6.6844,27,0.094,8187,3.7235,-9.5169
lg,1624619695414208250,0,-0.429,-0.2114,0.959,7,0.1221,-2.1362,15.4419,61,1.3387,1.3487,21.5983,-6.6552,26,0.094,8558,3.7235,-8.9285
lg,1624619695414225674,0,-0.4182,-0.2056,0.9583,8,-0.4272,1.0986,13.916,61,1.3387,1.3487,21.7637,-6.6659,26,0.094,8886,3.7235,-8.4174
lg,1624619695414243190,0,-0.4387,-0.2173,0.9707,9,-0.6104,1.77,14.7095,61,1.3387,1.3487,21.9809,-6.689,26,0.094,10036,3.7235,-7.8825
lg,1624619695414260484,0,-0.4194,-0.2378,0.967,10,-0.3052,2.5024,14.7095,61,1.3387,1.3487,22.1828,-6.747,26,0.094,8229,3.7235,-7.3695
lg,1624619695414294092,0,-0.429,-0.2322,0.9607,11,-0.7324,2.1362,13.9771,61,1.3387,1.3487,22.3834,-6.8188,26,0.094,8626,3.7235,-6.8816
lg,1624619695414312867,0,-0.428,-0.2397,0.9619,12,-0.1831,2.7466,13.916,61,1.3387,1.3487,22.5968,-6.8825,26,0.094,8666,3.7235,-6.4051
lg,1624619695414330328,0,-0.4202,-0.2258,0.9539,13,0.1221,4.2725,15.2588,61,1.3387,1.3487,22.8617,-6.8839,26,0.094,8665,3.7235,-5.8677
lg,1624619695414348011,0,-0.4263,-0.2275,0.9548,14,0.1221,5.4932,14.4043,61,1.3387,1.3487,23.1691,-6.8925,27,0.094,8489,3.7235,-5.3503
lg,1624619695414364954,0,-0.4243,-0.228,0.9619,15,-0.1221,5.4932,15.9912,61,1.3387,1.3487,23.4644,-6.8879,27,0.093,8339,3.7235,-4.7878
lg,1624619695414382785,0,-0.4175,-0.2217,0.9631,16,-0.1221,7.5073,15.9302,61,1.3387,1.3487,23.8135,-6.871,27,0.094,7973,3.7235,-4.2326
lg,1624619695414399524,0,-0.4075,-0.218,0.9622,17,0.2441,9.8877,16.6626,61,1.3387,1.3487,24.3014,-6.8489,27,0.094,8351,3.7235,-3.6997
lg,1624619695414418040,0,-0.394,-0.2373,0.9646,18,0.1831,15.8691,15.9912,61,1.3387,1.3487,24.8997,-6.8651,27,0.094,8785,3.7235,-3.2008
lg,1624619695414436020,0,-0.4202,-0.2336,0.9458,19,-0.1831,23.8037,15.3198,61,1.3387,1.3497,25.852,-6.9175,27,0.094,8828,3.7235,-2.7729
lg,1624619695414454388,0,-0.4475,-0.2246,0.9592,20,-0.2441,30.2734,13.9771,61,1.3387,1.3497,27.0585,-6.9736,27,0.094,8815,3.7235,-2.4269
lg,1624619695414472460,0,-0.4873,-0.2202,0.9824,21,-0.9766,30.3955,14.2822,61,1.3387,1.3497,28.2778,-7.0182,27,0.094,8478,3.7235,-2.0577
lg,1624619695414489977,0,-0.4954,-0.2197,0.9636,22,-0.9155,27.5879,13.4888,61,1.3387,1.3497,29.3658,-7.0675,26,0.094,8843,3.7235,-1.7127
lg,1624619695414507419,0,-0.4978,-0.2295,0.9377,23,-1.8921,20.2637,14.4043,61,1.3387,1.3497,30.1536,-7.1415,26,0.095,9503,3.7235,-1.3024
lg,1624619695414524861,0,-0.5288,-0.2222,0.9604,24,-3.1128,15.8081,12.8174,61,1.3387,1.3497,30.7622,-7.2485,26,0.095,8633,3.7235,-0.9236
lg,1624619695414541989,0,-0.5601,-0.2258,0.9629,25,-4.3945,7.2632,12.2681,61,1.3387,1.3497,31.0593,-7.3906,26,0.095,8995,3.7235,-0.5211
lg,1624619695414559339,0,-0.5413,-0.2495,0.9712,26,-5.7373,-3.3569,11.9019,61,1.3397,1.3497,30.881,-7.6075,26,0.095,9089,3.7235,-0.0965
lg,1624619695414576855,0,-0.4917,-0.2424,0.978,27,-5.9814,-6.958,12.207,61,1.3397,1.3497,30.4171,-7.7744,26,0.095,9031,3.7235,0.3887
lg,1624619695414594316,0,-0.5854,-0.6353,0.7705,28,-28.9307,-67.0166,40.6494,141,1.2516,1.1255,28.1477,-8.9843,26,0.086,14541,3.6498,2.0798
lg,1624619695414612277,0,-0.4941,-0.7644,0.886,29,-46.0815,-106.9946,58.4717,141,1.1976,1.1486,24.2732,-10.5508,26,0.083,8959,3.6498,4.8785
lg,1624619695414722357,0,-0.3645,-0.6594,0.7461,30,-55.6641,-132.9956,68.0542,141,1.1205,1.1766,19.574,-12.4447,26,0.084,9101,3.6498,8.4094
lg,1624619695414746706,0,-0.3411,-0.6152,0.6941,31,-60.5469,-120.9106,71.9604,141,1.0525,1.1996,15.6716,-14.6906,26,0.081,9123,3.6498,12.1672
lg,1624619695414766685,0,-0.1409,-0.5063,0.7371,32,-40.8936,-109.314,23.5596,141,1.0395,1.2066,11.4968,-16.5923,27,0.073,9470,3.6498,14.1078
lg,1624619695791040613,0,-0.0562,-0.7234,0.5764,33,-3.1128,4.1504,-7.9346,141,1.0375,1.2146,12.6008,-17.8206,27,0.076,30629,3.6498,13.1044
lg,1624619695791074942,0,-0.2329,-0.7219,0.6807,34,8.728,69.5801,-9.5215,141,1.0385,1.2186,15.1903,-18.8723,27,0.078,15099,3.6498,11.5853
lg,1624619695791094718,0,-0.5061,-0.7192,0.6208,35,14.7705,76.0498,-5.3101,141,1.0375,1.2186,18.5495,-19.7026,27,0.081,7852,3.6498,10.0404
lg,1624619695791113660,0,-0.6292,-0.5906,0.5947,36,16.6016,44.0063,10.1929,141,1.0375,1.2206,21.0994,-19.9317,27,0.082,7870,3.6498,9.5493
lg,1624619695791132843,0,-0.5513,-0.5474,0.6343,37,11.5356,9.3384,22.8882,141,1.0395,1.2236,22.2804,-19.9005,26,0.085,7860,3.6498,10.0769
lg,1624619695791150897,0,-0.2148,-0.6907,0.7627,38,2.5024,-55.1758,38.208,141,1.0485,1.2276,20.3775,-19.8447,26,0.084,7869,3.6498,12.0835
lg,1624619695791169024,0,0.1011,-0.8225,0.7864,39,7.6904,-73.9136,34.6069,141,1.0655,1.2346,17.1811,-19.8124,26,0.084,8113,3.6498,14.1476
lg,1624619695791187374,0,0.2114,-0.8184,0.7827,40,16.9067,-61.4014,26.6724,141,1.0885,1.2396,14.2488,-19.6505,26,0.084,7869,3.6498,15.7454
lg,1624619695791205224,0,0.1812,-0.8127,0.8826,41,31.9824,-6.2866,2.3804,141,1.1195,1.2416,13.2062,-19.2306,26,0.084,8729,3.6498,15.6972
lg,1624619695791223333,0,0.105,-0.6506,0.9399,42,50.7202,35.5835,-35.8276,141,1.1546,1.2306,13.3871,-18.2529,26,0.079,8631,3.6498,13.6832
lg,1624619695791241460,0,0.033,-0.6829,0.9207,43,48.645,57.9834,-53.2227,141,1.1886,1.2036,14.6759,-18.1329,26,0.077,7930,3.6498,10.5854
lg,1624619695791259069,0,-0.1956,-0.8687,0.636,44,40.4663,92.3462,-71.7163,141,1.2156,1.1736,17.1774,-18.9808,26,0.075,8327,3.6498,6.1888
lg,1624619695791276863,0,-0.4402,-0.8687,0.5403,45,38.7573,114.502,-75.5005,141,1.2396,1.1486,20.8265,-20.335,26,0.078,7981,3.6498,1.1324
lg,1624619695791294621,0,-0.5312,-0.7539,0.5576,46,37.7808,107.4219,-62.8052,141,1.2566,1.1235,24.3988,-21.2559,26,0.079,8342,3.6498,-3.362
lg,1624619695791311748,0,-0.4163,-0.4172,0.644,47,29.1138,59.2651,-10.9253,141,1.2666,1.0945,26.6124,-21.1406,26,0.079,8989,3.6498,-4.9507
lg,1624619695791330043,0,-0.2603,-0.5649,0.7483,48,6.4697,29.6021,17.1509,141,1.2706,1.0725,27.5531,-21.4421,26,0.081,8792,3.6498,-5.0184
lg,1624619695791347337,0,-0.3218,-0.6023,0.6277,49,6.958,10.498,27.771,141,1.2746,1.0615,28.129,-21.6111,27,0.085,8968,3.6498,-4.4499
lg,1624619695791364094,0,-0.4165,-0.5659,0.9109,50,-8.4229,3.479,47.1191,141,1.2776,1.0625,28.685,-21.4472,27,0.081,8908,3.6498,-2.7156
lg,1624619695791380592,0,-0.6675,-0.6665,0.8186,51,-16.9678,-31.189,55.3589,141,1.2736,1.0685,28.5165,-21.4078,27,0.079,8471,3.6498,-0.1643
lg,1624619695791397905,0,-0.6694,-0.5901,0.7456,52,-19.3481,-70.9839,59.2041,141,1.2536,1.0905,27.0335,-21.0784,26,0.076,8875,3.6498,3.2075
lg,1624619695791415107,0,-0.7126,-0.5813,0.8291,53,-41.748,-118.5303,70.8008,141,1.2206,1.1215,23.9884,-21.1548,26,0.078,8891,3.6498,7.8074
lg,1624619695791431957,0,-0.5486,-0.822,0.8975,54,-75.9888,-196.167,100.4028,141,1.1546,1.1476,18.2919,-22.4181,26,0.075,8169,3.6498,14.5921
lg,1624619695791449103,0,-0.1523,-0.647,0.6536,55,-83.4351,-247.0093,119.6289,141,1.0575,1.1816,10.874,-24.4533,26,0.074,13190,3.6498,22.8932
lg,1624619695791519687,0,0.4363,-0.439,1.2925,56,-69.7021,-161.6211,88.1958,141,1.0385,1.1896,5.4764,-26.1483,27,0.07,8607,3.6498,28.9565
lg,1624619695791540852,0,0.2473,-1.0178,1.1238,57,-56.3354,-89.0503,48.8892,141,1.0335,1.1936,2.66,-28.7632,27,0.072,8685,3.6498,32.2965
lg,1624619695791558275,0,0.1975,-0.8232,0.6257,58,-14.3433,-35.7056,-6.8359,141,1.0315,1.1946,0.7671,-30.2218,27,0.068,9108,3.6498,32.7276
lg,1624619695791575755,0,0.0178,-0.7625,0.625,59,9.2163,59.2651,-4.5776,141,1.0315,1.1996,2.6392,-30.679,26,0.07,10891,3.6498,31.3542
lg,1624619695791681835,0,-0.134,-0.7332,0.6814,60,13.6719,89.5386,2.3193,141,1.0325,1.2026,5.9495,-30.8947,26,0.074,9511,3.6498,29.5619
lg,1624619695791702296,0,-0.4043,-0.6965,0.6497,61,16.4185,102.7222,1.8921,141,1.0315,1.2046,10.2259,-31.0204,26,0.075,9095,3.6498,27.4662
lg,1624619695791722386,0,-0.5063,-0.6387,0.6184,62,19.4702,87.3413,5.7983,141,1.0315,1.2076,14.0869,-31.1007,26,0.077,9113,3.6498,25.7299
lg,1624619695791741680,0,-0.4846,-0.6003,0.7207,63,12.8174,22.3389,18.1274,141,1.0365,1.2106,15.7441,-30.8539,27,0.079,8773,3.6498,25.8216
lg,1624619695791761215,0,-0.2239,-0.7222,0.7708,64,7.6904,-32.4707,28.0762,141,1.0495,1.2176,15.0665,-30.5804,27,0.08,9187,3.6498,27.3799
lg,1624619696161044509,0,0.0488,-0.7559,0.9338,65,30.1514,-14.1602,-20.5078,122,1.1276,1.2256,13.4925,-29.8214,27,0.081,25811,3.6333,26.8505
lg,1624619696161083171,0,-0.147,-0.7817,0.741,66,35.5225,37.1094,-72.6929,122,1.1746,1.1936,13.2467,-30.0339,27,0.078,17020,3.6333,23.2989
lg,1624619696161103410,0,-0.2681,-0.8911,0.5576,67,30.3345,44.9829,-74.646,122,1.2176,1.1636,13.3792,-30.7018,27,0.082,8314,3.6333,19.4736
lg,1624619696161123204,0,-0.2534,-0.6208,0.5706,68,36.1328,42.4194,-46.6919,122,1.2446,1.1336,14.0333,-30.4997,26,0.085,8256,3.6333,16.781
lg,1624619696161141813,0,-0.1902,-0.4692,0.6133,69,31.0059,49.1943,-17.8223,122,1.2586,1.1135,15.1709,-29.7965,26,0.086,7904,3.6333,15.0905
lg,1624619696161160108,0,-0.1235,-0.5735,0.7717,70,13.7329,52.4902,20.0806,122,1.2676,1.1035,17.0747,-29.6183,26,0.087,8241,3.6333,14.6572
lg,1624619696161178513,0,-0.2437,-0.6804,0.6985,71,10.6812,48.7061,22.3389,122,1.2736,1.0985,19.0969,-29.8313,26,0.089,10501,3.6333,14.2824
lg,1624619696161196733,0,-0.4583,-0.6387,0.8977,72,-2.1362,38.3911,28.5034,122,1.2736,1.1015,21.1256,-30.0449,26,0.088,8644,3.6333,14.4456
lg,1624619696161214102,0,-0.6008,-0.5818,0.7483,73,-12.4512,-10.3149,48.584,122,1.2636,1.1135,22.1861,-30.0636,26,0.083,8280,3.6333,16.3787
lg,1624619696161232933,0,-0.6091,-0.5405,0.7346,74,-19.7144,-42.2974,58.0444,122,1.2286,1.1386,22.3402,-29.8943,26,0.084,8650,3.6333,19.3863
lg,1624619696161251450,0,-0.5117,-0.7734,0.9683,75,-58.6548,-109.4971,95.8862,122,1.1536,1.1726,20.5031,-30.4005,27,0.077,13057,3.6333,25.1846
lg,1624619696161269892,0,-0.2734,-0.7424,0.812,76,-67.627,-140.4419,104.0039,122,1.0885,1.1906,16.9416,-31.3512,27,0.076,8757,3.6333,32.4322
lg,1624619696161287501,0,-0.0527,-0.5723,0.7791,77,-71.0449,-161.0718,113.8916,122,1.0485,1.2006,13.3592,-32.4082,27,0.076,8788,3.6333,39.9042
lg,1624619696161304555,0,0.1179,-0.6609,0.2817,78,-24.4751,-115.4785,39.917,122,1.0385,1.2026,9.5925,-33.8823,27,0.075,8512,3.6333,43.5565
lg,1624619696161322701,0,0.2524,-0.9058,0.9731,79,-27.3438,-53.772,21.6675,122,1.0355,1.2016,7.5313,-35.0279,27,0.072,8057,3.6333,45.46
lg,1624619696161340607,0,0.0208,-0.7805,0.6973,80,-13.3057,-29.2358,-10.1929,122,1.0365,1.2016,7.599,-35.9081,27,0.074,9002,3.6333,44.3321
lg,1624619696161357827,0,-0.0598,-0.7891,0.6987,81,6.4697,58.3496,-11.2915,122,1.0405,1.2036,9.0408,-36.3945,27,0.076,8986,3.6333,42.5039
lg,1624619696161375362,0,-0.1189,-0.7261,0.6855,82,13.6719,73.2422,-8.7891,122,1.0425,1.2066,11.0891,-36.6067,27,0.077,8860,3.6333,40.3798
lg,1624619696161392545,0,-0.3274,-0.7102,0.5764,83,17.5781,93.0176,-12.3901,122,1.0465,1.2086,14.1037,-37.0255,27,0.081,8514,3.6333,37.58
lg,1624619696161409636,0,-0.5532,-0.6384,0.6355,84,21.3013,86.853,-5.127,122,1.0475,1.2116,17.4192,-37.0879,27,0.083,10652,3.6333,35.1629
lg,1624619696161426320,0,-0.5232,-0.5627,0.6587,85,17.334,21.5454,9.2773,122,1.0545,1.2166,18.8618,-36.5803,27,0.083,8540,3.6333,34.8992
lg,1624619696161443318,0,-0.3157,-0.6938,0.7573,86,10.437,-32.959,18.6157,122,1.0695,1.2226,18.1732,-35.9279,27,0.084,8950,3.6333,36.2821
lg,1624619696161497738,0,-0.2129,-0.7034,0.7268,87,12.5122,-52.9785,18.3716,122,1.0925,1.2296,16.6396,-35.1753,27,0.083,8628,3.6333,38.1002
lg,1624619696161523902,0,0.0464,-0.7566,0.936,88,16.3574,-63.5986,9.2163,122,1.1155,1.2336,14.0337,-34.19,27,0.083,9025,3.6333,39.8692
lg,1624619696161543103,0,0.1721,-0.7607,0.9253,89,29.3579,-44.9219,-21.4233,122,1.1426,1.2306,11.2139,-33.1591,27,0.084,9082,3.6333,40.1044
lg,1624619696161562583,0,0.1421,-0.7966,0.8674,90,42.1753,3.2959,-67.5049,122,1.1796,1.2086,9.1658,-32.2653,27,0.08,9088,3.6333,37.6482
lg,1624619696161581395,0,-0.0317,-0.948,0.5276,91,33.8135,47.1802,-80.5664,122,1.2276,1.1716,8.7694,-32.6,27,0.079,9096,3.6333,33.6958
lg,1624619696161599208,0,-0.1177,-0.9077,0.4353,92,38.0859,61.0962,-76.1108,122,1.2566,1.1366,9.2458,-32.5536,27,0.082,9108,3.6333,29.635
lg,1624619696161616984,0,-0.1123,-0.4407,0.5662,93,40.8325,100.0366,-19.8364,122,1.2696,1.1165,12.1829,-31.6589,27,0.085,9126,3.6333,26.7491
lg,1624619696161635038,0,-0.1462,-0.5786,0.8232,94,18.9209,120.7886,20.6909,122,1.2766,1.1035,16.5534,-31.503,27,0.087,9195,3.6333,24.8292
lg,1624619696161652758,0,-0.3477,-0.7214,0.8359,95,16.9067,115.1123,15.7471,122,1.2806,1.0865,20.8217,-31.826,27,0.09,9161,3.6333,22.7322
lg,1624619696161670386,0,-0.5137,-0.5911,0.8391,96,15.8691,84.7778,12.4512,122,1.2846,1.0745,24.1727,-31.8788,27,0.094,9193,3.6333,21.2038
lg,1624619696543962802,0,-0.4746,-0.6606,0.9624,97,-18.9209,-56.5796,34.1797,122,1.2896,1.0705,22.8023,-31.8419,27,0.094,27390,3.6333,23.6795
lg,1624619696543995742,0,-0.3506,-0.6731,0.8,98,-27.3438,-93.5669,39.5508,122,1.2786,1.0855,19.9364,-32.0587,27,0.093,8717,3.6333,27.3392
lg,1624619696544015574,0,-0.3286,-0.6433,0.7891,99,-36.1938,-108.5815,45.2271,122,1.2606,1.1135,17.1672,-32.4838,26,0.089,8037,3.6333,31.3086
lg,1624619696544034979,0,-0.2388,-0.8354,0.8193,100,-50.7812,-128.6011,59.4482,122,1.2156,1.1436,13.9652,-33.6836,26,0.086,8387,3.6333,36.1423
lg,1624619696544053847,0,-0.1428,-0.7473,0.7002,101,-54.5044,-132.8125,60.4248,122,1.1396,1.1696,10.7472,-35.2768,26,0.083,8064,3.6333,41.1385
lg,1624619696544072253,0,-0.1548,-0.6785,0.5632,102,-57.1289,-122.3145,61.7065,122,1.0665,1.1906,9.0056,-37.0923,26,0.079,8695,3.6333,45.4678
lg,1624619696544090195,0,0.2178,-0.252,1.1499,103,-48.8281,-67.0166,62.1948,122,1.0475,1.1906,7.6668,-37.5596,26,0.076,8793,3.6333,49.2616
lg,1624619696544108452,0,-0.429,-0.6838,0.4846,104,-21.5454,-16.7847,23.0713,122,1.0415,1.1896,8.4765,-38.8509,26,0.076,8718,3.6333,50.3263
lg,1624619696544126099,0,-0.3657,-0.8477,0.8193,105,-20.874,-43.335,0.4272,122,1.0405,1.1896,7.4986,-39.7897,26,0.079,8669,3.6333,51.4106
lg,1624619696544143671,0,-0.3171,-0.7629,0.6685,106,-18.9819,-51.6357,-2.0752,122,1.0405,1.1916,5.8546,-40.5653,26,0.079,8263,3.6333,52.6699
lg,1624619696544161058,0,0.0405,-0.7126,0.6863,107,-15.4419,-61.5845,24.1699,122,1.0405,1.1956,4.3103,-41.1814,26,0.079,8678,3.6333,55.004
lg,1624619696544179889,0,0.3142,-0.8337,0.7334,108,-10.7422,-24.292,32.1655,122,1.0395,1.1986,3.6577,-41.7734,26,0.079,8718,3.6333,56.5965
lg,1624619696544198443,0,0.0979,-0.7937,0.6323,109,5.9814,49.9268,16.2354,122,1.0385,1.2006,5.2094,-41.9719,26,0.077,8745,3.6333,55.7161
lg,1624619696544216626,0,-0.0718,-0.6936,0.6067,110,14.1602,71.3501,12.085,122,1.0375,1.2026,7.6143,-41.8425,27,0.077,8088,3.6333,54.1306
lg,1624619696544234957,0,-0.3203,-0.6196,0.6738,111,18.4937,76.0498,18.8599,122,1.0395,1.2066,10.8329,-41.3593,27,0.081,8044,3.6333,52.6506
lg,1624619696544253029,0,-0.2336,-0.6797,0.7976,112,16.2964,39.917,28.3813,122,1.0465,1.2106,12.8413,-40.7025,27,0.083,8062,3.6333,52.4596
lg,1624619696544269991,0,-0.1533,-0.7534,0.824,113,16.8457,27.2217,30.7617,122,1.0625,1.2166,13.9041,-39.911,27,0.082,8853,3.6333,52.748
lg,1624619696544287063,0,-0.021,-0.8013,0.7617,114,26.2451,23.8037,23.2544,122,1.0895,1.2236,14.723,-39.0935,26,0.08,8868,3.6333,52.7935
lg,1624619696544303746,0,-0.0151,-0.7134,0.8284,115,40.2222,48.4619,1.4038,122,1.1185,1.2256,15.7176,-37.8648,26,0.081,8511,3.6333,51.5634
lg,1624619696544321281,0,-0.0459,-0.6782,0.8799,116,45.0439,69.519,-22.3389,122,1.1466,1.2186,16.8486,-36.7507,26,0.083,8908,3.6333,49.0624
lg,1624619696544338409,0,-0.2222,-0.8049,0.6458,117,40.0391,80.5664,-35.5835,122,1.1746,1.1996,18.4127,-36.8503,26,0.081,8925,3.6333,45.3337
lg,1624619696544355185,0,-0.2258,-0.7725,0.6599,118,37.7197,89.6606,-42.8467,122,1.2006,1.1806,20.0126,-37.08,26,0.079,8970,3.6333,41.4351
lg,1624619696544372109,0,-0.3606,-0.6865,0.5652,119,27.4048,83.1299,-30.6396,122,1.2386,1.1566,21.9928,-37.6517,26,0.085,12512,3.6333,38.0473
lg,1624619696544389274,0,-0.3208,-0.4802,0.7046,120,15.625,60.9131,-1.5259,122,1.2476,1.1496,23.8167,-37.5316,26,0.089,9232,3.6333,36.431
lg,1624619696544406291,0,-0.3745,-0.6423,0.7312,121,-2.2583,39.2456,36.8652,122,1.2456,1.1526,25.8378,-37.6673,27,0.087,8667,3.6333,36.5993
lg,1624619696544422807,0,-0.5369,-0.5735,0.8628,122,-5.3711,35.5225,46.1426,122,1.2356,1.1636,28.138,-37.4059,27,0.084,9104,3.6333,37.3401
lg,1624619696544439657,0,-0.6624,-0.5811,0.8611,123,-11.4136,11.5356,46.3867,122,1.2176,1.1776,28.8358,-36.9681,27,0.086,9104,3.6333,39.7668
lg,1624619696544456526,0,-0.7778,-0.6055,0.8635,124,-29.4189,-61.0962,52.063,122,1.1746,1.1966,28.4208,-36.3491,27,0.082,9445,3.6333,43.3784
lg,1624619696544473709,0,-0.6882,-0.7063,0.9131,125,-58.4106,-136.7188,66.6504,122,1.1215,1.2146,25.6901,-35.9695,27,0.079,9503,3.6333,49.4045
lg,1624619696544490633,0,-0.2849,-0.5217,0.8613,126,-67.688,-200.9888,85.8154,122,1.0875,1.2286,20.7992,-35.2555,27,0.074,9295,3.6333,57.6191
lg,1624619696544507557,0,-0.0833,-0.8242,0.4175,127,-52.3682,-196.7773,34.5459,122,1.0785,1.2336,14.7459,-36.6028,27,0.074,8831,3.6333,63.2544
lg,1624619696544601640,0,0.366,-0.8779,0.8489,128,-43.9453,-166.5649,23.9868,122,1.0755,1.2306,8.8678,-37.7028,26,0.077,8880,3.6333,68.0659
lg,1624619696920782420,0,0.0312,-0.7837,0.5381,129,3.3569,28.1982,-8.4839,122,1.0815,1.2266,9.1326,-38.4136,26,0.079,25169,3.6333,66.9837
lg,1624619696920855838,0,-0.2507,-0.6741,0.5334,130,26.9165,88.8672,5.6763,122,1.0875,1.2296,12.8129,-38.1683,26,0.081,16905,3.6333,64.5401
lg,1624619696920876188,0,-0.3608,-0.6489,0.5557,131,33.5693,107.3608,6.1035,122,1.0975,1.2346,16.7298,-37.8892,26,0.084,7901,3.6333,61.906
lg,1624619696920896519,0,-0.4299,-0.6248,0.7598,132,36.5601,72.6318,13.1836,122,1.1135,1.2406,19.6126,-36.9215,26,0.087,7901,3.6333,60.4722
lg,1624619696920914776,0,-0.4072,-0.6614,0.8188,133,34.0576,49.1333,16.7847,122,1.1296,1.2466,21.5134,-35.8542,26,0.082,7954,3.6333,59.7797
lg,1624619696920933459,0,-0.2832,-0.7219,0.8545,134,30.3345,-4.8218,17.2729,122,1.1476,1.2496,21.4637,-34.549,26,0.082,7948,3.6333,60.439
lg,1624619696920950976,0,-0.0017,-0.6099,0.885,135,30.7007,-34.668,5.4932,122,1.1696,1.2456,19.607,-32.9638,26,0.078,9582,3.6333,61.4485
lg,1624619696920968233,0,0.0007,-0.7671,0.8025,136,22.4609,-18.3716,-15.8081,122,1.1916,1.2306,17.8966,-32.5535,26,0.074,10210,3.6333,61.156
lg,1624619696920987157,0,-0.0444,-0.8306,0.6812,137,29.48,17.8833,-29.9072,122,1.2146,1.2086,17.2757,-32.5512,27,0.073,8684,3.6333,59.4664
lg,1624619696921004989,0,-0.1533,-0.7468,0.6865,138,28.5645,38.8794,-32.7148,122,1.2416,1.1776,18.1134,-32.7661,27,0.081,9052,3.6333,57.2558
lg,1624619696921022302,0,-0.1694,-0.6519,0.7061,139,22.7051,56.0303,-11.1694,122,1.2586,1.1476,19.4324,-32.8002,27,0.084,8334,3.6333,55.448
lg,1624619696921040078,0,-0.1597,-0.6016,0.7747,140,7.2632,54.8706,31.4331,122,1.2696,1.1255,21.5456,-32.7605,27,0.085,13219,3.6333,55.2344
lg,1624619696921059150,0,-0.2305,-0.6562,0.7312,141,4.0283,52.4292,33.5693,122,1.2726,1.1175,23.8597,-32.9993,26,0.086,8732,3.6333,55.1866
lg,1624619696921077981,0,-0.4141,-0.6345,0.8521,142,-0.7935,50.1099,38.208,122,1.2736,1.1125,26.257,-33.0833,26,0.084,8577,3.6333,55.3315
lg,1624619696921096312,0,-0.5701,-0.6113,0.9712,143,-12.3901,15.9302,46.3867,122,1.2656,1.1125,27.7975,-32.9148,26,0.083,8715,3.6333,56.7063
lg,1624619696921115792,0,-0.4998,-0.6829,0.8953,144,-30.0903,-50.5371,60.3638,122,1.2456,1.1245,27.2568,-32.6554,26,0.08,8836,3.6333,60.1519
lg,1624619696921136345,0,-0.4626,-0.7502,0.8792,145,-42.9688,-81.4819,60.1807,122,1.2136,1.1506,25.617,-32.7945,26,0.082,11126,3.6333,64.2422
lg,1624619696921155102,0,-0.3257,-0.6521,0.8079,146,-56.0303,-126.1597,65.1245,122,1.1626,1.1756,22.4947,-33.0693,26,0.08,9330,3.6333,69.5387
lg,1624619696921172952,0,-0.1287,-0.687,0.71,147,-64.27,-140.686,75.5615,122,1.1075,1.1986,18.9014,-34.1443,26,0.077,8515,3.6333,75.5394
lg,1624619696921191246,0,-0.0344,-0.6426,0.687,148,-68.1763,-127.3804,79.9561,122,1.0705,1.2106,15.912,-35.4846,27,0.073,8899,3.6333,81.2275
lg,1624619696921209170,0,-0.0007,-0.6326,0.2852,149,-24.353,-71.5942,11.2915,122,1.0625,1.2116,13.3401,-37.0901,27,0.071,8921,3.6333,83.0414
lg,1624619696921230446,0,0.0432,-0.7991,1.0872,150,-23.8037,-4.4556,4.6997,122,1.0585,1.2066,12.7174,-37.9384,27,0.073,8933,3.6333,83.3188
lg,1624619696921249981,0,-0.2349,-0.7439,0.6345,151,-6.4087,22.3389,-13.6719,122,1.0595,1.2056,13.1117,-38.8654,27,0.073,8983,3.6333,82.2095
lg,1624619696921269090,0,-0.3655,-0.6743,0.677,152,3.3569,50.2319,-14.5264,122,1.0615,1.2076,14.885,-39.2203,27,0.076,8989,3.6333,80.4502
lg,1624619696921286255,0,-0.2937,-0.665,0.7583,153,4.5166,43.2129,-0.9155,122,1.0635,1.2116,16.2095,-39.5823,27,0.076,9366,3.6333,79.2195
lg,1624619696921303475,0,-0.2766,-0.7397,0.6719,154,2.5024,30.8838,2.5635,122,1.0645,1.2156,17.1916,-40.0109,27,0.079,9912,3.6333,78.3851
lg,1624619696921321029,0,-0.3547,-0.675,0.6599,155,8.1177,28.6865,6.1646,122,1.0655,1.2186,18.3569,-40.0723,26,0.08,9055,3.6333,77.7434
lg,1624619696921338990,0,-0.2493,-0.6348,0.6328,156,8.667,-2.9297,16.9067,122,1.0695,1.2226,18.5876,-39.7195,26,0.08,9438,3.6333,78.3076
lg,1624619696921356414,0,-0.1504,-0.7312,0.6985,157,9.8877,-16.1743,15.9302,122,1.0795,1.2296,18.0978,-39.2874,26,0.082,9089,3.6333,79.1733
lg,1624619696921373671,0,-0.061,-0.7739,0.7332,158,21.9116,-9.2773,5.4321,122,1.1005,1.2356,17.3683,-38.577,26,0.082,9111,3.6333,79.4999
lg,1624619696921390984,0,-0.0923,-0.7327,0.8066,159,27.771,1.2207,0.7935,122,1.1255,1.2416,17.1166,-37.6337,27,0.084,9132,3.6333,78.8631
lg,1624619696921408427,0,-0.0762,-0.7129,0.8677,160,34.5459,21.7896,-19.6533,122,1.1526,1.2396,16.8101,-36.6728,27,0.081,9147,3.6333,77.6325
lg,1624619697291549717,0,-0.2793,-0.8179,0.6648,161,31.6772,46.7529,-54.6875,122,1.2196,1.1776,16.9297,-36.8354,27,0.082,26814,3.6333,74.4692
lg,1624619697291597286,0,-0.1963,-0.5537,0.6726,162,19.8975,4.1504,-11.7798,122,1.2536,1.1426,16.6111,-36.2825,27,0.085,15477,3.6333,73.9413
lg,1624619697291619265,0,-0.0886,-0.5417,0.6982,163,13.5498,-0.061,3.479,122,1.2636,1.1276,16.2587,-35.7624,27,0.088,7825,3.6333,74.0418
lg,1624619697291639874,0,-0.0154,-0.6675,0.7268,164,7.8735,18.6157,22.522,122,1.2696,1.1195,16.7857,-35.6315,27,0.089,7833,3.6333,74.271
lg,1624619697291659798,0,-0.2368,-0.6941,0.8066,165,7.9956,33.0811,22.8271,122,1.2716,1.1135,18.5175,-35.6884,27,0.091,7918,3.6333,74.0522
lg,1624619697291738271,0,-0.3701,-0.6689,0.9006,166,-0.7935,40.0391,26.7334,122,1.2666,1.1095,20.4197,-35.7708,27,0.089,8282,3.6333,73.968
lg,1624619697291762843,0,-0.5676,-0.6594,0.7007,167,-12.8174,-9.5825,46.814,122,1.2496,1.1185,21.6047,-35.876,27,0.084,9889,3.6333,75.741
lg,1624619697291783026,0,-0.5681,-0.6587,0.8567,168,-31.1279,-63.5986,54.5044,122,1.2256,1.1436,21.0684,-35.8973,26,0.084,8290,3.6333,79.2212
lg,1624619697291802302,0,-0.5454,-0.6667,0.947,169,-41.9922,-90.5762,62.3169,122,1.1766,1.1696,18.7411,-36.1345,26,0.083,7962,3.6333,84.7536
lg,1624619697291822004,0,-0.3635,-0.7024,0.7749,170,-63.3545,-156.6162,77.0264,122,1.1065,1.1986,15.5858,-36.9717,26,0.079,8898,3.6333,91.1741
lg,1624619697291839946,0,-0.2031,-0.666,0.6814,171,-68.8477,-162.9639,91.1255,122,1.0695,1.2116,12.535,-38.2817,26,0.072,8319,3.6333,98.172
lg,1624619697291858370,0,0.0684,-0.6162,0.4658,172,-30.0293,-128.3569,30.1514,122,1.0615,1.2166,8.6356,-39.2704,26,0.073,8331,3.6333,102.2821
lg,1624619697291876831,0,0.2168,-0.9167,0.97,173,-31.0669,-87.3413,22.3999,122,1.0615,1.2186,5.8414,-40.29,26,0.074,8753,3.6333,105.2144
lg,1624619697291895755,0,0.0413,-0.7625,0.626,174,-16.5405,-69.7632,-8.728,122,1.0645,1.2226,4.2513,-40.9707,26,0.076,8780,3.6333,105.4501
lg,1624619697291917161,0,0.0549,-0.738,0.6399,175,1.3428,2.4414,-8.9111,79,1.0665,1.2266,3.7962,-41.2507,27,0.074,8783,3.6905,105.0938
lg,1624619697291936677,0,0.1433,-0.7151,0.6953,176,6.4087,30.6396,7.2632,79,1.0675,1.2296,4.4335,-41.2063,27,0.073,8409,3.6905,104.488
lg,1624619697291955009,0,-0.0764,-0.75,0.6606,177,14.1602,79.5898,2.1973,79,1.0685,1.2316,6.8727,-41.1257,27,0.075,8794,3.6905,102.4217
lg,1624619697291990061,0,-0.2185,-0.7192,0.6875,178,18.3716,96.9849,2.3193,79,1.0675,1.2336,10.5298,-40.7966,27,0.079,8069,3.6905,99.808
lg,1624619697292009077,0,-0.4131,-0.6409,0.6987,179,21.3623,88.8062,5.7373,79,1.0695,1.2366,13.868,-40.4611,27,0.083,8876,3.6905,97.6066
lg,1624619697292026724,0,-0.3877,-0.6692,0.7444,180,16.4185,32.7759,17.7612,79,1.0735,1.2406,15.6074,-39.9326,27,0.083,8129,3.6905,97.28
lg,1624619697292044055,0,-0.1855,-0.7412,0.7539,181,16.4795,-2.2583,24.6582,79,1.0855,1.2456,15.9407,-39.22,27,0.083,8147,3.6905,98.0791
lg,1624619697292061739,0,-0.1082,-0.7483,0.7649,182,19.165,-4.2725,25.5127,79,1.1065,1.2506,16.0455,-38.3987,27,0.082,8912,3.6905,98.9573
lg,1624619697292079681,0,-0.0303,-0.7495,0.7842,183,25.2075,5.7983,15.5029,79,1.1366,1.2536,16.0414,-37.5038,26,0.082,8941,3.6905,99.2525
lg,1624619697292098476,0,-0.01,-0.6626,0.8508,184,37.4756,30.3345,-17.334,79,1.1556,1.2456,15.979,-36.3867,26,0.084,13416,3.6905,97.9064
lg,1624619697292116733,0,-0.0637,-0.6931,0.7722,185,37.5977,43.9453,-32.5928,79,1.1746,1.2256,16.4637,-36.0856,26,0.083,8637,3.6905,94.9349
lg,1624619697292156062,0,-0.2075,-0.8132,0.7529,186,32.4097,70.8008,-51.1475,79,1.2026,1.1976,17.3078,-36.2431,26,0.083,8628,3.6905,91.3339
lg,1624619697292176023,0,-0.3384,-0.8196,0.5808,187,28.3203,67.3828,-45.6543,79,1.2336,1.1626,18.4554,-36.8118,26,0.083,9009,3.6905,87.8916
lg,1624619697292193651,0,-0.2378,-0.4976,0.6311,188,25.7568,50.4761,-4.5776,79,1.2526,1.1366,19.8772,-36.3024,26,0.087,8957,3.6905,86.443
lg,1624619697292211168,0,-0.1572,-0.5762,0.7856,189,8.9111,50.415,31.6162,79,1.2646,1.1245,21.816,-36.0001,26,0.09,8763,3.6905,86.2593
lg,1624619697292357727,0,-0.293,-0.7256,0.73,190,6.1035,54.3823,32.2876,79,1.2716,1.1165,24.015,-36.3083,27,0.092,9573,3.6905,85.708
lg,1624619697292382040,0,-0.3958,-0.7021,0.7439,191,2.9297,49.8047,30.9448,79,1.2726,1.1105,26.3958,-36.3489,27,0.092,9246,3.6905,85.4707
lg,1624619697292402445,0,-0.5901,-0.6426,0.9233,192,-12.3901,18.6157,44.1895,79,1.2596,1.1115,28.0821,-36.266,27,0.085,8851,3.6905,86.605
lg,1624619697677956114,0,-0.5876,-0.6599,0.864,193,-57.1289,-154.6021,85.8154,79,1.1536,1.1806,25.1094,-35.3689,26,0.077,24411,3.6905,93.7526
lg,1624619697678016108,0,-0.1736,-0.6572,0.7947,194,-78.5522,-216.6138,107.666,79,1.0635,1.2116,19.5204,-35.0675,26,0.072,13884,3.6905,102.9139
lg,1624619697678046772,0,0.5234,-0.4775,1.3823,195,-69.519,-175.1709,97.1069,79,1.0495,1.2166,14.6314,-35.0008,26,0.068,8696,3.6905,110.6463
lg,1624619697678076509,0,0.2441,-1.0867,1.0869,196,-50.8423,-76.5991,38.5742,79,1.0455,1.2176,12.156,-36.6867,26,0.066,7926,3.6905,113.6906
lg,1624619697678105377,0,0.106,-0.8147,0.6306,197,-24.6582,-58.7769,7.8735,79,1.0475,1.2186,10.5753,-37.6899,26,0.066,8322,3.6905,113.2098
lg,1624619697678133004,0,0.0081,-0.7832,0.6648,198,1.77,39.3066,-21.3623,79,1.0495,1.2216,10.853,-38.4004,26,0.068,8628,3.6905,111.4519
lg,1624619697678161260,0,0.0542,-0.7175,0.6194,199,7.5073,65.1855,-3.479,79,1.0505,1.2246,12.243,-38.8798,27,0.068,9715,3.6905,109.5956
lg,1624619697678190479,0,-0.0823,-0.7776,0.666,200,12.7563,107.4829,-7.9346,79,1.0515,1.2256,15.0588,-39.507,27,0.072,8572,3.6905,106.4525
lg,1624619697678218384,0,-0.4155,-0.6577,0.5239,201,21.4844,123.23,-11.2915,79,1.0515,1.2276,18.9819,-40.1554,27,0.074,8561,3.6905,102.6671
lg,1624619697678246011,0,-0.4775,-0.5681,0.6306,202,23.4985,107.2388,-6.6528,79,1.0525,1.2296,21.625,-40.0403,27,0.077,8660,3.6905,100.483
lg,1624619697678276545,0,-0.4585,-0.6492,0.8413,203,10.8032,38.208,5.3101,79,1.0565,1.2336,22.9893,-39.841,26,0.076,8330,3.6905,99.6339
lg,1624619697678303449,0,-0.2705,-0.772,0.7278,204,8.667,-20.6909,8.2397,79,1.0675,1.2376,22.2239,-39.4438,26,0.073,8972,3.6905,100.3725
lg,1624619697678330687,0,-0.1526,-0.7556,0.676,205,18.0054,-21.6064,6.4697,79,1.0905,1.2436,21.1896,-38.7867,26,0.079,12057,3.6905,101.0366
lg,1624619697678357333,0,-0.0859,-0.7263,0.7583,206,24.5361,-7.2632,5.8594,79,1.1145,1.2446,20.4619,-37.8718,26,0.076,9664,3.6905,101.3466
lg,1624619697678384256,0,-0.0295,-0.6785,0.8147,207,31.8604,11.7188,-5.188,79,1.1366,1.2426,19.9687,-36.8405,26,0.077,8492,3.6905,100.8334
lg,1624619697678410383,0,-0.0435,-0.6814,0.7625,208,39.0625,49.3164,-26.123,79,1.1616,1.2336,20.239,-36.2207,26,0.079,9089,3.6905,98.6123
lg,1624619697678437769,0,-0.1204,-0.7595,0.6819,209,35.5835,62.8052,-37.3535,79,1.1896,1.2146,21.2652,-36.5128,26,0.079,8233,3.6905,95.0891
lg,1624619697678463063,0,-0.2671,-0.7771,0.7124,210,34.9121,94.2383,-46.5698,79,1.2156,1.1926,23.363,-37.2056,27,0.078,9054,3.6905,90.8535
lg,1624619697678490060,0,-0.4026,-0.7258,0.6689,211,27.0996,89.7827,-35.7666,79,1.2396,1.1686,25.2784,-38.0254,27,0.083,9121,3.6905,87.0404
lg,1624619697678515391,0,-0.3884,-0.5332,0.6936,212,16.1133,51.6968,-4.8828,79,1.2536,1.1526,26.718,-38.0505,27,0.085,8500,3.6905,85.4593
lg,1624619697678542370,0,-0.2761,-0.5847,0.7429,213,2.9297,20.0195,31.7993,79,1.2586,1.1466,27.7092,-37.6665,27,0.086,8693,3.6905,86.0323
lg,1624619697678567682,0,-0.4553,-0.7102,0.8733,214,-11.8408,16.1133,29.7241,79,1.2566,1.1446,28.7118,-37.8957,27,0.084,9304,3.6905,86.6245
lg,1624619697678593957,0,-0.6145,-0.6184,0.8044,215,-16.1133,-31.1279,41.9922,79,1.2456,1.1506,28.8473,-37.3641,27,0.08,9415,3.6905,89.024
lg,1624619697678620510,0,-0.6147,-0.6116,0.7207,216,-21.9116,-69.9463,46.0815,79,1.2266,1.1686,27.1074,-36.6595,27,0.082,9303,3.6905,93.284
lg,1624619697678646452,0,-0.6421,-0.6873,0.7847,217,-39.0015,-115.1123,52.3071,79,1.1906,1.1886,24.8405,-36.2201,27,0.078,9159,3.6905,98.1323
lg,1624619697678672690,0,-0.4932,-0.7087,0.7793,218,-57.373,-173.9502,75.3174,79,1.1426,1.2066,21.0332,-35.9688,27,0.076,8823,3.6905,105.1319
lg,1624619697678698687,0,-0.1389,-0.6267,0.6907,219,-70.4346,-214.1113,91.1255,79,1.0935,1.2226,15.816,-36.3646,27,0.077,8849,3.6905,113.4608
lg,1624619697678724833,0,0.5015,-0.6099,1.3203,220,-70.5566,-171.5698,84.2285,79,1.0665,1.2306,11.0729,-37.0973,27,0.069,8882,3.6905,120.5793
lg,1624619697678751552,0,0.3467,-0.8894,0.489,221,-43.8232,-159.1187,41.2598,79,1.0575,1.2346,6.0076,-38.5112,27,0.067,8567,3.6905,125.766
lg,1624619697678777920,0,0.5388,-0.9309,0.769,222,-25.5737,-60.9741,16.6626,79,1.0545,1.2346,3.414,-39.7807,27,0.068,9274,3.6905,127.7976
lg,1624619697678804473,0,0.189,-0.8191,0.6289,223,0.8545,59.4482,-15.0757,79,1.0545,1.2356,4.2977,-40.364,27,0.072,9298,3.6905,125.7706
lg,1624619697678886890,0,-0.1328,-0.7083,0.5261,224,19.4702,123.291,-8.3618,79,1.0545,1.2376,7.9868,-40.4581,27,0.072,8583,3.6905,122.2564
lg,1624619698155271762,0,-0.4502,-0.6375,0.6399,225,20.2637,108.4595,4.2114,79,1.0605,1.2446,12.1005,-40.2745,26,0.081,24485,3.6905,119.5092
lg,1624619698155310203,0,-0.4238,-0.655,0.8015,226,18.9819,51.8799,3.479,79,1.0725,1.2496,14.1682,-39.7552,26,0.077,9216,3.6905,118.2576
lg,1624619698155330479,0,-0.2581,-0.7656,0.7393,227,20.874,-7.6294,2.9297,79,1.1085,1.2586,13.9868,-39.089,27,0.083,13429,3.6905,118.4923
lg,1624619698155349866,0,-0.1343,-0.7261,0.7581,228,25.5127,-15.0146,-4.4556,79,1.1306,1.2596,13.143,-38.1939,27,0.083,8091,3.6905,118.6899
lg,1624619698155368530,0,-0.0818,-0.6714,0.8323,229,29.0527,-12.085,-13.0615,79,1.1506,1.2536,12.0944,-37.081,27,0.084,7960,3.6905,118.5614
lg,1624619698155387195,0,-0.0876,-0.6929,0.6863,230,33.2031,5.9204,-27.4048,79,1.1696,1.2386,11.3567,-36.2884,27,0.078,8143,3.6905,117.4501
lg,1624619698155405231,0,-0.1638,-0.8079,0.678,231,25.1465,26.9775,-35.6445,79,1.1876,1.2186,11.2903,-36.1771,27,0.078,7906,3.6905,115.5203
lg,1624619698155423784,0,-0.2493,-0.7634,0.5208,232,26.062,35.0952,-34.8511,79,1.2116,1.1926,11.8795,-36.2222,27,0.076,9533,3.6905,113.6162
lg,1624619698155442635,0,-0.2014,-0.5769,0.7136,233,14.9536,32.7148,2.3193,79,1.2276,1.1756,13.0042,-35.8781,27,0.08,9347,3.6905,112.8815
lg,1624619698155460262,0,-0.2002,-0.6069,0.7539,234,5.9204,29.9072,23.9258,79,1.2306,1.1726,14.8121,-35.9464,26,0.083,8647,3.6905,113.6185
lg,1624619698155497814,0,-0.3364,-0.6614,0.8184,235,-3.7842,29.6021,48.584,79,1.2216,1.1766,17.0181,-35.9551,26,0.079,8706,3.6905,114.4994
lg,1624619698155517516,0,-0.6082,-0.616,0.8701,236,-15.686,11.4746,52.9175,79,1.2066,1.1876,19.1244,-36.0767,26,0.084,8307,3.6905,116.0232
lg,1624619698155535144,0,-0.6948,-0.615,0.7146,237,-30.1514,-64.4531,67.8101,79,1.1796,1.2056,19.3197,-36.1317,26,0.085,8738,3.6905,119.9062
lg,1624619698155617099,0,-0.7346,-0.5945,0.7974,238,-39.7339,-81.9702,76.7212,79,1.1456,1.2216,18.4827,-36.3479,26,0.08,8759,3.6905,125.8273
lg,1624619698155636394,0,-0.572,-0.6611,0.8384,239,-64.5752,-153.3813,104.0039,79,1.1085,1.2356,16.4361,-36.784,26,0.078,8785,3.6905,133.1376
lg,1624619698155654226,0,0.136,-0.5151,1.2363,240,-70.8008,-196.0449,111.8164,79,1.0815,1.2416,12.0362,-36.9314,26,0.077,8423,3.6905,141.833
lg,1624619698155672483,0,0.3403,-1.0312,0.7783,241,-62.9272,-202.1484,57.7393,79,1.0725,1.2456,6.1073,-38.9578,26,0.075,8867,3.6905,148.5928
lg,1624619698155689944,0,0.584,-0.9395,0.6606,242,-60.1196,-164.3677,43.5181,79,1.0705,1.2476,1.5189,-40.5916,26,0.077,9042,3.6905,151.5618
lg,1624619698155707980,0,0.4856,-0.9131,0.667,243,-19.104,-39.0015,-16.6016,79,1.0715,1.2486,-1.0336,-41.8209,26,0.079,8139,3.6905,152.0889
lg,1624619698155727867,0,0.1282,-0.8601,0.5007,244,8.2397,67.9321,-30.8228,79,1.0745,1.2506,-0.0994,-42.1498,26,0.081,8893,3.6905,149.3651
lg,1624619698155771400,0,-0.2078,-0.6858,0.4224,245,31.4941,139.5874,-31.1279,79,1.0755,1.2516,3.7717,-41.6463,26,0.082,8489,3.6905,144.7099
lg,1624619698155790472,0,-0.5056,-0.5742,0.5149,246,36.3159,157.4707,-23.8647,79,1.0775,1.2536,9.264,-40.8772,26,0.089,8912,3.6905,140.0662
lg,1624619698155809729,0,-0.5649,-0.5591,0.5925,247,35.8887,140.3809,-4.6387,79,1.0845,1.2566,14.3533,-40.3096,26,0.088,8597,3.6905,136.1803
lg,1624619698155832431,0,-0.4248,-0.6367,0.8767,248,28.5034,57.8613,1.77,79,1.1025,1.2616,16.442,-39.3906,26,0.091,8617,3.6905,134.7409
lg,1624619698155850929,0,-0.2603,-0.7678,0.8198,249,27.8931,-0.4883,-8.3008,79,1.1336,1.2696,15.5667,-38.4741,27,0.085,12960,3.6905,134.4093
lg,1624619698155869038,0,-0.21,-0.7463,0.7847,250,33.2642,-9.2773,-25.2686,79,1.1546,1.2656,14.3998,-37.2971,27,0.085,9465,3.6905,133.8191
lg,1624619698155887185,0,-0.1279,-0.6396,0.8577,251,39.7949,-3.54,-40.3442,79,1.1766,1.2476,13.0218,-35.9731,27,0.083,8987,3.6905,132.5795
lg,1624619698155905535,0,-0.2214,-0.7002,0.6711,252,31.3721,11.8408,-54.9927,79,1.1956,1.2146,12.1178,-35.5754,26,0.077,8864,3.6905,130.3797
lg,1624619698155924126,0,-0.3303,-0.8218,0.5754,253,24.4751,17.5171,-57.251,79,1.2186,1.1836,11.6129,-35.8008,26,0.078,9144,3.6905,127.9096
lg,1624619698155941957,0,-0.2981,-0.7034,0.6145,254,18.1274,-6.897,-30.6396,79,1.2386,1.1566,10.923,-35.7327,26,0.084,8727,3.6905,126.9632
lg,1624619698155958789,0,-0.002,-0.5801,0.7285,255,6.958,-18.3105,16.3574,79,1.2566,1.1306,10.2828,-35.3796,26,0.087,10231,3.6905,127.9166
lg,1624619698155979917,0,0.0784,-0.6702,0.7249,256,4.3945,-9.2163,29.48,79,1.2656,1.1165,10.9548,-35.445,27,0.087,9210,3.6905,128.6855
lg,1624619698504974560,0,-0.4058,-0.6655,0.8784,257,-8.1177,12.4512,55.6641,79,1.2646,1.1105,13.0117,-35.5007,27,0.086,23349,3.6905,130.23
lg,1624619698505009353,0,-0.561,-0.6814,0.7451,258,-15.3198,-10.9253,59.7534,79,1.2426,1.1205,13.6762,-35.8245,27,0.082,8653,3.6905,133.5461
lg,1624619698505029907,0,-0.563,-0.6665,0.6465,259,-29.7241,-85.4492,76.5991,79,1.2136,1.1436,13.4162,-36.2683,27,0.08,7968,3.6905,138.0809
lg,1624619698505049423,0,-0.5254,-0.6404,0.7876,260,-52.124,-128.9673,101.4404,79,1.1686,1.1706,12.2611,-36.9971,27,0.078,7967,3.6905,144.55
lg,1624619698505068125,0,-0.1489,-0.6162,0.8108,261,-59.021,-168.0298,118.1641,79,1.1235,1.1926,9.1948,-38.2954,27,0.077,8484,3.6905,153.5174
lg,1624619698505086383,0,0.0564,-0.7061,0.7866,262,-81.1157,-193.6035,136.7188,79,1.0755,1.2086,6.2211,-40.4289,26,0.075,8175,3.6905,162.7061
lg,1624619698505104288,0,0.6714,-0.678,1.4028,263,-65.4297,-132.5684,103.3325,79,1.0575,1.2096,3.8574,-41.9124,26,0.067,9366,3.6905,169.3977
lg,1624619698505121768,0,0.3335,-1.1401,1.0796,264,-39.978,-34.5459,40.2222,79,1.0555,1.2116,3.3189,-43.5429,26,0.066,8220,3.6905,-188.4834
lg,1624619698505139248,0,0.1243,-0.7686,0.6414,265,-11.4746,-21.3013,1.77,79,1.0565,1.2126,2.841,-43.8519,26,0.071,8661,3.6905,170.484
lg,1624619698505176930,0,-0.0049,-0.7737,0.6758,266,8.667,55.4199,-25.2075,79,1.0585,1.2156,3.6313,-43.8222,27,0.073,8522,3.6905,168.2063
lg,1624619698505196057,0,-0.2,-0.7383,0.5684,267,18.6157,93.75,-22.4609,79,1.0615,1.2176,6.0392,-43.676,27,0.075,8156,3.6905,164.9299
lg,1624619698505213982,0,-0.2712,-0.6382,0.6089,268,22.9492,107.3608,-14.2822,79,1.0645,1.2236,9.1778,-43.3021,27,0.077,8630,3.6905,161.5184
lg,1624619698505232035,0,-0.4612,-0.6353,0.606,269,23.2544,111.3892,-6.8359,79,1.0705,1.2276,12.6614,-43.061,26,0.078,8558,3.6905,158.3332
lg,1624619698505249830,0,-0.4104,-0.6763,0.8569,270,15.564,14.4043,-3.2959,79,1.0865,1.2346,13.3051,-42.3598,26,0.08,13270,3.6905,157.877
lg,1624619698505269421,0,-0.2888,-0.7505,0.8323,271,14.7705,-18.3105,5.188,79,1.1065,1.2426,12.1995,-41.602,26,0.082,8863,3.6905,158.9091
lg,1624619698505286827,0,-0.0745,-0.7812,0.6846,272,22.1558,-37.3535,0.3052,79,1.1286,1.2456,10.771,-40.7949,26,0.082,8508,3.6905,159.863
lg,1624619698505303529,0,0.0103,-0.7085,0.8384,273,31.0059,-13.2446,-20.874,79,1.1526,1.2406,9.3827,-39.5775,27,0.082,8419,3.6905,159.5651
lg,1624619698505320897,0,0.0186,-0.7234,0.8584,274,35.4614,8.667,-47.1802,79,1.1776,1.2196,8.0548,-38.434,27,0.077,8972,3.6905,157.8559
lg,1624619698505338248,0,-0.0518,-0.813,0.6514,275,31.8604,34.3628,-59.6313,79,1.2026,1.1896,7.454,-38.0347,27,0.074,10074,3.6905,155.0361
lg,1624619698505355598,0,-0.1111,-0.8201,0.5842,276,29.7241,48.4619,-56.7627,79,1.2176,1.1766,8.2257,-37.8663,27,0.076,8701,3.6905,151.8073
lg,1624619698505372522,0,-0.2114,-0.6951,0.5933,277,28.0762,72.0825,-42.5415,79,1.2296,1.1686,9.6461,-37.6788,27,0.079,8647,3.6905,148.5929
lg,1624619698505389650,0,-0.2415,-0.5828,0.6982,278,13.0005,60.1196,-5.3711,79,1.2376,1.1636,11.6147,-37.5429,27,0.083,8812,3.6905,146.9108
lg,1624619698505406593,0,-0.2146,-0.6782,0.7271,279,-2.3804,33.8745,27.4048,79,1.2376,1.1636,13.3723,-37.8362,27,0.086,9337,3.6905,146.905
lg,1624619698505423480,0,-0.3274,-0.7012,0.8469,280,-13.6108,27.8931,47.4243,79,1.2296,1.1726,15.5379,-38.2313,27,0.081,8932,3.6905,147.7193
lg,1624619698505453107,0,-0.5061,-0.6001,0.7327,281,-17.5171,-5.0049,54.0771,79,1.2116,1.1906,17.2126,-38.4246,27,0.085,9189,3.6905,149.6067
lg,1624619698505471253,0,-0.6021,-0.5859,0.8433,282,-27.4658,-19.6533,55.2368,79,1.1796,1.2086,18.4905,-38.6654,27,0.083,8647,3.6905,151.977
lg,1624619698505488789,0,-0.6426,-0.6614,0.8557,283,-49.9268,-92.5903,87.4023,79,1.1426,1.2276,18.2842,-38.9338,27,0.081,8716,3.6905,157.3073
lg,1624619698505505898,0,-0.3352,-0.6399,0.8989,284,-67.1997,-165.2222,105.835,79,1.1065,1.2386,15.7895,-39.1836,27,0.077,8998,3.6905,165.1416
lg,1624619698505522952,0,0.2861,-0.7053,0.7595,285,-55.2979,-204.4678,65.0635,79,1.0965,1.2416,9.9963,-39.8748,27,0.071,8640,3.6905,-187.5004
lg,1624619698505540099,0,0.6282,-1.0942,0.9324,286,-60.3027,-190.6128,52.4292,79,1.0945,1.2416,4.9708,-41.5943,27,0.074,9160,3.6905,-182.4147
lg,1624619698505652162,0,0.447,-0.8921,0.4873,287,-6.5918,-17.8833,-19.2261,144,1.0975,1.2406,2.8463,-42.5577,26,0.074,10890,3.6223,-182.5581
lg,1624619698505680789,0,0.199,-0.8303,0.3965,288,17.334,63.5986,-30.2124,144,1.0995,1.2426,5.6168,-42.4846,26,0.075,8993,3.6223,-186.8797
lg,1624619698847827731,0,-0.4561,-0.623,0.6682,289,36.377,132.9346,-7.7515,144,1.1205,1.2576,10.1434,-41.5657,27,0.082,26644,3.6223,169.2975
lg,1624619698847877801,0,-0.5073,-0.6792,0.8035,290,34.1797,86.2427,-8.667,144,1.1366,1.2636,13.1074,-40.6626,27,0.084,9007,3.6223,166.7273
lg,1624619698847908298,0,-0.4058,-0.655,0.8953,291,27.8931,22.583,-1.4648,144,1.1546,1.2666,14.0308,-39.5194,27,0.083,9536,3.6223,166.1261
lg,1624619698847936258,0,-0.2327,-0.666,0.8794,292,19.5312,-16.4795,-1.0376,144,1.1696,1.2596,13.4083,-38.5418,27,0.084,8615,3.6223,166.5462
lg,1624619698847964181,0,-0.1426,-0.6741,0.9666,293,18.0054,-23.0713,-6.7749,144,1.1846,1.2446,12.005,-37.6712,27,0.087,8307,3.6223,166.511
lg,1624619698847991679,0,-0.0872,-0.7148,0.7288,294,23.7427,-8.4839,-28.0151,144,1.2016,1.2136,10.776,-37.1251,27,0.086,9312,3.6223,165.7581
lg,1624619698848017880,0,-0.1777,-0.7842,0.7778,295,19.4702,22.2168,-38.9404,144,1.2156,1.1816,10.4804,-36.9949,27,0.08,8439,3.6223,163.8898
lg,1624619698848044525,0,-0.2739,-0.7866,0.6438,296,15.0146,31.7993,-31.189,144,1.2326,1.1546,10.9277,-37.2492,27,0.082,8545,3.6223,162.0002
lg,1624619698848070079,0,-0.2378,-0.6538,0.6526,297,10.376,18.8599,-23.6206,144,1.2456,1.1356,11.012,-37.4273,26,0.086,8554,3.6223,161.3545
lg,1624619698848095558,0,-0.1653,-0.6216,0.6804,298,1.2817,-1.5869,5.7373,144,1.2556,1.1286,11.0668,-37.5216,26,0.087,8183,3.6223,161.5429
lg,1624619698848122129,0,-0.2083,-0.7412,0.8496,299,-14.7095,26.4282,40.6494,144,1.2536,1.1225,12.8676,-38.1063,26,0.089,13559,3.6223,162.1638
lg,1624619698848149312,0,-0.4751,-0.7734,0.8518,300,-22.2168,5.9814,54.2603,144,1.2416,1.1175,14.7764,-38.7569,27,0.084,8299,3.6223,163.7238
lg,1624619698848175883,0,-0.6365,-0.6418,0.6045,301,-33.9966,-61.9507,66.7725,144,1.2156,1.1366,15.361,-39.3895,27,0.084,8145,3.6223,167.4199
lg,1624619698848202177,0,-0.7341,-0.5212,0.6367,302,-45.2881,-85.4492,76.8433,144,1.1716,1.1706,15.7088,-39.9203,27,0.077,8145,3.6223,-187.8599
lg,1624619698848228397,0,-0.7129,-0.5791,0.7903,303,-77.8809,-162.2314,123.5962,144,1.1286,1.1966,14.7719,-40.7275,27,0.079,8139,3.6223,-179.5791
lg,1624619698848254598,0,-0.0479,-0.6106,0.9954,304,-93.1396,-241.1499,150.3906,144,1.0875,1.2116,11.0238,-41.5778,27,0.073,9114,3.6223,-168.3545
lg,1624619698848279818,0,0.3398,-0.6589,1.1355,305,-82.6416,-248.3521,118.8354,144,1.0735,1.2156,4.7233,-43.5713,27,0.07,8356,3.6223,-158.9255
lg,1624619698848306260,0,0.7722,-1.1343,1.0413,306,-71.8384,-210.8765,78.4912,144,1.0705,1.2206,-0.1828,-46.236,27,0.068,9459,3.6223,-150.7423
lg,1624619698848356885,0,0.718,-0.9509,0.679,307,-21.0571,-67.749,-2.1973,144,1.0735,1.2246,-3.2717,-47.3945,27,0.071,8556,3.6223,-148.8118
lg,1624619698848384808,0,0.3955,-0.9004,0.5884,308,13.1226,67.1997,-19.5312,144,1.0785,1.2276,-2.6922,-47.0799,26,0.075,8669,3.6223,-151.3057
lg,1624619698848411694,0,0.1907,-0.7407,0.4841,309,29.541,148.4375,-26.001,144,1.0835,1.2316,0.2312,-46.158,26,0.077,9215,3.6223,-156.3264
lg,1624619698848437118,0,-0.2239,-0.7019,0.4749,310,35.8887,185.1807,-29.48,144,1.0885,1.2366,5.7318,-45.3003,26,0.08,8994,3.6223,-163.2577
lg,1624619698848471059,0,-0.459,-0.6885,0.5215,311,41.2598,219.6045,-33.1421,144,1.0975,1.2406,11.8057,-45.0176,27,0.08,8671,3.6223,-170.5202
lg,1624619698848499056,0,-0.782,-0.593,0.6172,312,39.4897,164.3677,-26.2451,144,1.1095,1.2436,16.8445,-44.7682,27,0.082,8827,3.6223,-176.0638
lg,1624619698848525702,0,-0.7695,-0.541,0.6885,313,23.6816,47.3022,0.8545,144,1.1245,1.2476,19.15,-44.0254,27,0.082,8831,3.6223,-177.3619
lg,1624619698848552718,0,-0.3623,-0.6917,0.7405,314,11.9629,-43.2129,25.5737,144,1.1436,1.2506,18.6211,-42.8367,27,0.08,11297,3.6223,-175.3021
lg,1624619698848678965,0,0.054,-0.7917,0.8984,315,14.8315,-56.7017,19.043,144,1.1626,1.2476,16.6371,-41.5135,26,0.08,8498,3.6223,-173.0979
lg,1624619698848720795,0,0.1799,-0.8081,0.7456,316,35.2173,-26.3672,-15.686,144,1.1826,1.2306,14.4421,-40.2767,26,0.077,8468,3.6223,-172.9489
lg,1624619698848748422,0,0.136,-0.8135,0.7297,317,39.1235,-1.77,-35.2783,144,1.2026,1.1976,12.6555,-39.2748,26,0.072,8544,3.6223,-174.1021
lg,1624619698848775012,0,0.0042,-0.8352,0.6995,318,38.8184,67.0166,-51.3916,144,1.2176,1.1656,12.9303,-38.8996,26,0.071,8526,3.6223,-177.5695
lg,1624619698848803176,0,-0.1335,-0.738,0.5339,319,35.8276,90.332,-40.7104,144,1.2366,1.1426,14.5371,-38.9333,27,0.078,9010,3.6223,-181.3487
lg,1624619698848829247,0,-0.1116,-0.5769,0.7039,320,26.1841,98.5107,-9.3994,144,1.2536,1.1215,17.0537,-38.6778,27,0.084,8801,3.6223,-184.2284
lg,1624619699188766545,0,-0.3743,-0.6465,0.7405,321,6.2866,110.9009,42.4194,144,1.2556,1.0955,21.696,-39.0273,27,0.082,25344,3.6223,-185.8132
lg,1624619699188815504,0,-0.7212,-0.6196,0.8472,322,-7.9346,80.9937,50.4761,144,1.2376,1.0985,25.9618,-39.4475,27,0.08,9125,3.6223,-186.313
lg,1624619699188866666,0,-0.9243,-0.5972,0.7373,323,-22.8882,-20.1416,50.2319,144,1.2206,1.1175,27.3209,-39.2985,27,0.077,8141,3.6223,-183.9907
lg,1624619699188887553,0,-0.9753,-0.5532,0.7512,324,-32.2266,-69.1528,50.7202,144,1.1876,1.1416,25.5155,-38.4366,27,0.075,8150,3.6223,-178.2012
lg,1624619699188907014,0,-0.7817,-0.6384,0.78,325,-58.6548,-185.1807,75.6836,144,1.1516,1.1666,22.0622,-37.7289,27,0.077,8352,3.6223,-170.6071
lg,1624619699188926827,0,-0.3369,-0.7073,0.7034,326,-74.2188,-255.9814,94.0552,144,1.1155,1.1896,16.1859,-37.7742,27,0.076,8252,3.6223,-160.951
lg,1624619699188946381,0,0.418,-0.6101,1.1013,327,-72.5098,-243.2861,88.6841,144,1.0935,1.2056,9.4701,-38.3186,27,0.071,8877,3.6223,-151.8573
lg,1624619699188966009,0,0.6777,-1.115,0.8784,328,-58.2275,-170.8374,51.3306,144,1.0875,1.2166,4.2223,-40.3919,27,0.066,9421,3.6223,-145.9556
lg,1624619699188985026,0,0.7212,-0.9583,0.6406,329,-9.5215,-20.3857,-1.4648,144,1.0875,1.2186,4.9516,-40.7623,27,0.071,15359,3.6223,-148.3531
lg,1624619699189003580,0,0.2747,-0.8459,0.5146,330,27.8931,138.4888,-22.4609,144,1.0905,1.2196,7.7521,-40.7966,27,0.072,9618,3.6223,-152.7426
lg,1624619699189021467,0,-0.2266,-0.6929,0.3264,331,48.584,212.5854,-31.5552,144,1.0935,1.2216,13.6834,-40.9875,27,0.072,8436,3.6223,-159.4967
lg,1624619699189040039,0,-0.5796,-0.5442,0.4773,332,51.6968,215.8813,-20.9351,144,1.1005,1.2246,20.5635,-41.1114,27,0.075,8069,3.6223,-166.1447
lg,1624619699189057668,0,-0.6697,-0.5667,0.6775,333,47.3633,186.2183,-13.6108,144,1.1135,1.2296,26.318,-41.414,27,0.075,8103,3.6223,-171.9101
lg,1624619699189075536,0,-0.6699,-0.6655,0.7593,334,35.6445,81.7871,-4.3945,144,1.1316,1.2386,28.9214,-41.1713,27,0.08,9781,3.6223,-174.4944
lg,1624619699189093461,0,-0.3774,-0.646,0.8223,335,26.9775,-15.0146,4.5776,144,1.1536,1.2426,28.2218,-39.6701,27,0.076,11664,3.6223,-173.8287
lg,1624619699189111403,0,-0.2759,-0.6702,0.916,336,22.7051,-33.2031,2.5024,144,1.1726,1.2346,26.591,-38.2556,27,0.077,8861,3.6223,-172.7885
lg,1624619699189128143,0,-0.1616,-0.699,0.771,337,28.0762,-45.2881,-22.0947,144,1.1906,1.2116,23.9312,-37.107,27,0.076,8580,3.6223,-172.4137
lg,1624619699189160269,0,-0.1809,-0.7146,0.7075,338,28.8086,-20.813,-40.6494,144,1.2096,1.1806,21.7602,-36.6321,27,0.07,8659,3.6223,-173.4201
lg,1624619699189178953,0,-0.2468,-0.7603,0.6558,339,22.7661,11.0474,-39.4897,144,1.2226,1.1526,20.8688,-36.8281,27,0.076,8628,3.6223,-175.2514
lg,1624619699189196563,0,-0.3394,-0.6768,0.6753,340,19.8975,12.7563,-34.4849,144,1.2376,1.1346,20.3997,-36.8912,27,0.079,8627,3.6223,-176.3272
lg,1624619699189214061,0,-0.3276,-0.625,0.7476,341,7.2632,-6.4697,-10.5591,144,1.2476,1.1245,19.8649,-36.779,27,0.083,8751,3.6223,-176.5601
lg,1624619699189231541,0,-0.3547,-0.689,0.7161,342,-10.437,-34.2407,20.9961,144,1.2446,1.1266,19.27,-36.9356,27,0.085,8644,3.6223,-175.0662
lg,1624619699189249687,0,-0.2932,-0.5535,0.877,343,-18.4326,-43.335,57.0679,144,1.2306,1.1406,19.1106,-36.4738,27,0.081,9583,3.6223,-171.9655
lg,1624619699189267797,0,-0.4124,-0.7249,0.8013,344,-35.8887,-59.7534,75.6836,144,1.2106,1.1596,19.076,-36.7812,27,0.082,8481,3.6223,-167.9555
lg,1624619699189284888,0,-0.4961,-0.7627,0.7153,345,-42.0532,-83.374,74.4629,144,1.1756,1.1836,18.5671,-37.2952,27,0.079,8473,3.6223,-163.0381
lg,1624619699189302201,0,-0.6426,-0.5898,0.7922,346,-58.96,-109.1919,93.8721,144,1.1386,1.2026,17.9696,-37.7531,27,0.075,8501,3.6223,-157.0928
lg,1624619699189319940,0,-0.3311,-0.7439,0.877,347,-84.2285,-173.3398,129.8828,144,1.0985,1.2166,15.6855,-38.6758,27,0.078,8556,3.6223,-148.3879
lg,1624619699189337013,0,0.5078,-0.8,1.0916,348,-72.5708,-194.8242,105.1025,144,1.0765,1.2196,10.9778,-39.5301,27,0.07,8923,3.6223,-139.9635
lg,1624619699189354789,0,0.7122,-1.1487,0.8633,349,-69.397,-181.3354,77.8198,144,1.0725,1.2236,6.5239,-41.5919,27,0.07,8785,3.6223,-134.3373
lg,1624619699189371806,0,0.6038,-1,0.5586,350,-30.8838,-99.1211,9.8877,144,1.0735,1.2246,2.9344,-43.1492,27,0.071,9256,3.6223,-131.4142
lg,1624619699189389971,0,0.2368,-0.9319,0.5776,351,3.2959,29.541,-22.0947,144,1.0775,1.2276,2.5922,-43.6558,27,0.073,8974,3.6223,-132.8984
lg,1624619699189505128,0,0.0378,-0.7256,0.3318,352,25.6348,70.3125,-31.189,144,1.0825,1.2316,3.5531,-43.6177,27,0.077,9001,3.6223,-135.7868
lg,1624619699531219271,0,-0.5063,-0.6267,0.7104,353,39.856,78.6743,-28.3203,144,1.1005,1.2406,6.0178,-42.1884,26,0.08,25190,3.6223,-138.7518
lg,1624619699531257934,0,-0.4976,-0.6292,0.7246,354,37.5977,45.6543,-23.6816,144,1.1165,1.2466,6.9662,-40.8985,26,0.08,9055,3.6223,-139.8282
lg,1624619699531278488,0,-0.3972,-0.6726,0.7275,355,31.311,0.3052,-11.4746,144,1.1326,1.2526,7.2602,-39.7523,26,0.083,8153,3.6223,-140.1882
lg,1624619699531300264,0,-0.2344,-0.6816,0.7336,356,27.0386,-23.9258,-6.897,144,1.1466,1.2536,6.581,-38.738,27,0.082,8577,3.6223,-139.8032
lg,1624619699531333798,0,-0.085,-0.6418,0.7708,357,27.5269,-22.4609,-4.3945,144,1.1626,1.2496,5.6995,-37.627,27,0.083,8789,3.6223,-139.3864
lg,1624619699531353722,0,0.0215,-0.6855,0.833,358,27.2827,-8.728,-23.3154,144,1.1876,1.2186,4.5965,-36.6828,27,0.084,13387,3.6223,-140.4275
lg,1624619699531373146,0,0.0342,-0.7314,0.783,359,26.001,9.1553,-39.0625,144,1.1986,1.1856,3.7109,-35.9963,27,0.081,8105,3.6223,-141.9273
lg,1624619699531391700,0,-0.0312,-0.8601,0.6895,360,24.1699,45.8984,-48.8892,144,1.2156,1.1516,3.9667,-35.8021,27,0.083,8683,3.6223,-144.633
lg,1624619699531410828,0,-0.1057,-0.76,0.6099,361,27.3438,69.3359,-34.3018,144,1.2356,1.1195,5.5021,-35.5317,27,0.088,8838,3.6223,-147.4174
lg,1624619699531428771,0,-0.1321,-0.5229,0.5781,362,26.4282,76.8433,-16.7236,144,1.2496,1.0955,8.2292,-35.1072,27,0.092,8819,3.6223,-149.1156
lg,1624619699531447436,0,-0.1008,-0.5271,0.6389,363,15.3198,74.4019,19.8975,144,1.2596,1.0835,11.0593,-34.8422,27,0.094,8964,3.6223,-150.2143
lg,1624619699531497505,0,-0.1875,-0.6465,0.7385,364,4.8218,78.6133,32.5928,144,1.2636,1.0815,14.3595,-35.059,27,0.095,8206,3.6223,-151.0193
lg,1624619699531516929,0,-0.3799,-0.707,0.8477,365,-6.2866,75.0732,41.1377,144,1.2616,1.0865,17.9277,-35.6008,27,0.092,8891,3.6223,-151.4814
lg,1624619699531536854,0,-0.4688,-0.6724,0.9258,366,-18.7988,22.7661,66.9556,144,1.2456,1.0955,20.3917,-35.7846,27,0.09,8528,3.6223,-149.7479
lg,1624619699531557537,0,-0.5244,-0.6204,0.7852,367,-24.7803,-8.4229,73.0591,144,1.2166,1.1175,22.1111,-35.8595,27,0.088,8478,3.6223,-147.0264
lg,1624619699531577794,0,-0.6946,-0.675,0.7651,368,-42.1753,-55.0537,76.7822,144,1.1786,1.1486,22.6178,-36.1726,27,0.086,9036,3.6223,-143.0112
lg,1624619699531597570,0,-0.6846,-0.5947,0.7734,369,-63.1714,-132.0801,103.0273,144,1.1386,1.1736,21.2873,-36.1312,27,0.078,8524,3.6223,-136.078
lg,1624619699531618106,0,-0.3577,-0.6614,0.7703,370,-78.6133,-182.251,133.9111,144,1.0955,1.1926,18.5257,-36.3145,27,0.073,8386,3.6223,-126.9751
lg,1624619699531637067,0,0.0662,-0.5562,1.0032,371,-79.2236,-188.8428,139.4043,144,1.0655,1.1996,14.1782,-36.6696,27,0.075,9077,3.6223,-118.845
lg,1624619699531657380,0,0.2393,-1.0127,0.634,372,-52.9175,-165.8936,76.0498,144,1.0565,1.2026,9.8414,-38.2196,27,0.075,9061,3.6223,-112.4465
lg,1624619699531676526,0,0.4614,-0.8982,0.677,373,-28.2593,-86.4868,25.3296,144,1.0565,1.2076,6.5979,-39.4475,27,0.076,8539,3.6223,-109.5359
lg,1624619699531731318,0,0.3142,-0.8669,0.7178,374,-3.6621,31.311,4.6387,144,1.0585,1.2116,6.8199,-40.0793,27,0.077,8768,3.6223,-110.2457
lg,1624619699531753705,0,0.0964,-0.8398,0.6113,375,14.6484,94.4214,0.1221,144,1.0615,1.2146,9.2203,-40.3761,27,0.082,9146,3.6223,-112.7751
lg,1624619699531796090,0,-0.0422,-0.7676,0.5554,376,22.644,120.1172,-5.7983,144,1.0635,1.2166,13.4271,-40.5598,27,0.081,9006,3.6223,-116.9023
lg,1624619699531814736,0,-0.3899,-0.6584,0.5708,377,29.3579,148.0713,-12.3291,144,1.0675,1.2196,17.9888,-40.8904,27,0.08,8718,3.6223,-121.3828
lg,1624619699531836382,0,-0.5801,-0.6284,0.6262,378,25.9399,97.229,-10.9863,144,1.0745,1.2226,21.2123,-41.021,27,0.083,8573,3.6223,-124.4896
lg,1624619699531856769,0,-0.5105,-0.7,0.7432,379,21.9727,27.5879,-6.5918,144,1.0965,1.2286,22.0778,-40.5856,27,0.079,9160,3.6223,-125.5086
lg,1624619699531875268,0,-0.2979,-0.7585,0.7053,380,22.7661,-19.8364,-1.3428,144,1.1155,1.2356,21.2023,-39.7465,27,0.081,12472,3.6223,-125.0994
lg,1624619699531892748,0,-0.167,-0.7576,0.686,381,24.4141,-27.71,-10.1929,144,1.1376,1.2346,19.6269,-38.956,27,0.083,8739,3.6223,-124.8065
lg,1624619699531911116,0,-0.0742,-0.7031,0.7859,382,32.1045,-18.7988,-22.583,144,1.1596,1.2246,17.8668,-37.8688,27,0.082,8869,3.6223,-125.1024
lg,1624619699531928411,0,-0.0688,-0.7224,0.7317,383,32.5928,-7.019,-36.2549,144,1.1846,1.2046,16.2141,-37.1399,27,0.082,9273,3.6223,-126.2127
lg,1624619699531946391,0,-0.0696,-0.7476,0.6047,384,29.4189,3.6621,-38.208,144,1.2006,1.1846,15.5361,-36.9129,27,0.078,8970,3.6223,-127.9753
lg,1624619699888740172,0,-0.2214,-0.6577,0.6631,385,26.9165,89.8438,-16.4185,144,1.2246,1.1516,17.9136,-36.9519,27,0.083,24506,3.6223,-130.8661
lg,1624619699888785798,0,-0.3955,-0.6348,0.6956,386,14.4043,76.5381,5.7373,144,1.2286,1.1476,20.6721,-37.1599,27,0.086,8808,3.6223,-132.6948
lg,1624619699888806962,0,-0.4717,-0.6345,0.7688,387,8.1787,52.9175,23.9258,144,1.2246,1.1516,23.0367,-37.385,27,0.088,8907,3.6223,-132.8195
lg,1624619699888827275,0,-0.7151,-0.6521,0.7927,388,-17.0288,15.686,50.6592,144,1.2046,1.1746,25.4016,-37.6412,27,0.091,15290,3.6223,-131.5309
lg,1624619699888845996,0,-0.7341,-0.5422,0.6436,389,-33.6914,-74.9512,76.5381,144,1.1786,1.1956,25.495,-37.0291,27,0.084,8664,3.6223,-126.8452
lg,1624619699888865068,0,-0.7275,-0.5549,0.7847,390,-63.7207,-121.6431,105.7129,144,1.1486,1.2116,24.6014,-36.5504,27,0.081,8289,3.6223,-119.8567
lg,1624619699888883418,0,-0.4917,-0.7654,0.7998,391,-77.2705,-154.9683,118.2861,144,1.1145,1.2226,21.4918,-36.3504,26,0.079,8263,3.6223,-110.3996
lg,1624619699888902028,0,-0.0557,-0.6074,0.9194,392,-80.7495,-213.623,134.2773,144,1.0895,1.2246,17.0847,-36.1574,26,0.076,7924,3.6223,-100.4319
lg,1624619699888950135,0,0.3887,-1.0664,0.8416,393,-66.3452,-214.2944,71.2891,144,1.0825,1.2236,10.755,-37.5536,26,0.076,8589,3.6223,-92.9601
lg,1624619699888971707,0,0.73,-0.9973,0.7339,394,-35.7666,-136.2305,22.644,144,1.0845,1.2266,5.5726,-38.9255,27,0.078,8893,3.6223,-88.9191
lg,1624619699888990890,0,0.4497,-1.0127,0.676,395,1.4648,11.0474,-16.2354,144,1.0895,1.2316,4.5222,-39.5642,27,0.08,8307,3.6223,-89.7625
lg,1624619699889008685,0,0.2979,-0.9072,0.4353,396,17.8223,49.6216,-23.9258,144,1.0935,1.2346,4.6297,-39.9219,27,0.081,8635,3.6223,-91.8471
lg,1624619699889026813,0,0.0103,-0.7085,0.3809,397,39.1235,136.1084,-34.5459,144,1.0975,1.2376,7.7058,-39.691,27,0.081,8831,3.6223,-96.4928
lg,1624619699889045386,0,-0.3972,-0.6194,0.4148,398,46.6309,177.063,-35.6445,192,1.1025,1.2396,13.0245,-39.428,27,0.08,8535,3.5915,-102.2686
lg,1624619699889064662,0,-0.6758,-0.564,0.5938,399,43.335,140.4419,-28.0762,192,1.1125,1.2446,17.6507,-39.0308,27,0.081,8799,3.5915,-106.8795
lg,1624619699889083234,0,-0.7014,-0.5723,0.7871,400,40.2832,96.7407,-23.3765,192,1.1276,1.2496,20.7699,-38.4092,27,0.085,8757,3.5915,-110.1803
lg,1624619699889101325,0,-0.5098,-0.6614,0.7483,401,24.4751,-6.2256,-7.6294,192,1.1436,1.2546,20.4288,-37.7398,27,0.085,10202,3.5915,-110.3697
lg,1624619699889119360,0,-0.2761,-0.7065,0.7065,402,22.0337,-44.9219,-0.7935,192,1.1606,1.2536,18.7921,-36.7664,26,0.085,8781,3.5915,-109.3402
lg,1624619699889137748,0,-0.1411,-0.6697,0.8245,403,25.5737,-43.0908,-7.019,192,1.1776,1.2466,16.7972,-35.5801,26,0.086,8784,3.5915,-108.5399
lg,1624619699889168449,0,-0.073,-0.6812,0.8069,404,30.3955,-25.4517,-21.6064,192,1.1906,1.2306,14.9662,-34.5833,26,0.086,8239,3.5915,-108.722
lg,1624619699889193724,0,-0.1008,-0.7078,0.7947,405,28.0762,-12.8784,-27.71,192,1.2016,1.2066,13.5438,-33.9031,26,0.082,8273,3.5915,-109.4421
lg,1624619699889211852,0,-0.0811,-0.7341,0.7461,406,26.4893,12.0239,-24.4141,192,1.2106,1.1786,13.0467,-33.5229,26,0.075,9056,3.5915,-110.6523
lg,1624619699889241313,0,-0.1084,-0.7388,0.7668,407,22.7661,47.8516,-20.0806,192,1.2166,1.1596,13.912,-33.4402,26,0.079,8663,3.5915,-112.5238
lg,1624619699889261200,0,-0.2029,-0.6909,0.7217,408,11.9019,58.4106,-4.9438,192,1.2266,1.1426,15.6476,-33.7534,26,0.083,9457,3.5915,-114.1327
lg,1624619699889279716,0,-0.3335,-0.6216,0.6558,409,1.4038,43.8232,18.0664,192,1.2286,1.1366,17.6834,-34.1774,27,0.087,9118,3.5915,-114.6333
lg,1624619699889298233,0,-0.3438,-0.5771,0.7764,410,-10.6201,36.8042,37.0483,192,1.2186,1.1426,19.8435,-34.5082,27,0.085,8942,3.5915,-114.2351
lg,1624619699889316806,0,-0.4753,-0.637,0.854,411,-25.0854,26.5503,68.4204,192,1.2006,1.1586,22.4305,-34.9489,27,0.087,9249,3.5915,-112.5039
lg,1624619699889357598,0,-0.6941,-0.6409,0.73,412,-41.9312,-31.9214,82.2754,192,1.1746,1.1806,23.7982,-35.3703,27,0.087,9321,3.5915,-108.8633
lg,1624619699889379004,0,-0.8323,-0.5266,0.7544,413,-65.4907,-95.6421,103.9429,192,1.1476,1.2006,23.8128,-35.4828,26,0.082,8751,3.5915,-102.7268
lg,1624619699889397317,0,-0.6663,-0.6511,0.7642,414,-89.9048,-180.1147,129.6387,192,1.1145,1.2136,21.3885,-35.7372,26,0.078,8969,3.5915,-93.6945
lg,1624619699889415334,0,0.2498,-0.6531,1.2944,415,-94.1772,-219.9097,138.1226,192,1.0845,1.2196,15.8243,-35.929,26,0.076,9162,3.5915,-83.1973
lg,1624619699889433295,0,0.4126,-1.0325,0.9534,416,-88.1958,-243.5303,92.041,192,1.0705,1.2186,8.9046,-38.0017,26,0.076,9360,3.5915,-74.3266
lg,1624619700243113199,0,0.3247,-1.0256,0.6035,417,-0.6714,37.1704,-18.1885,192,1.0725,1.2206,8.6982,-39.0527,27,0.08,24924,3.5915,-75.96
lg,1624619700243149122,0,-0.1487,-0.6821,0.2971,418,39.5508,151.062,-37.6587,192,1.0775,1.2246,12.5371,-39.4438,26,0.085,14377,3.5915,-81.1966
lg,1624619700243169917,0,-0.623,-0.615,0.3958,419,46.1426,183.4717,-33.5083,192,1.0805,1.2276,18.3809,-39.7258,26,0.084,10584,3.5915,-87.2382
lg,1624619700243189063,0,-0.8032,-0.5085,0.6572,420,45.2881,161.5601,-26.9775,192,1.0885,1.2326,22.4985,-39.4499,26,0.086,7887,3.5915,-91.2088
lg,1624619700243207062,0,-0.7832,-0.5371,0.7446,421,31.5552,61.7065,-16.2354,192,1.0995,1.2386,24.6848,-38.9623,26,0.089,7913,3.5915,-93.4102
lg,1624619700243225579,0,-0.4734,-0.6709,0.7532,422,15.564,-46.2036,3.2349,192,1.1215,1.2446,23.3391,-37.8809,27,0.09,11177,3.5915,-92.0783
lg,1624619700243243300,0,-0.1116,-0.7375,0.8086,423,11.7188,-91.6748,6.1646,192,1.1396,1.2456,19.9016,-36.6381,27,0.086,8074,3.5915,-89.5541
lg,1624619700243260872,0,0.095,-0.7717,0.8472,424,12.8784,-91.5527,-9.1553,192,1.1586,1.2416,15.8014,-35.7519,27,0.089,8233,3.5915,-87.6737
lg,1624619700243278112,0,0.0999,-0.7832,0.8157,425,18.9209,-78.5522,-26.5503,192,1.1726,1.2306,11.8356,-35.082,27,0.088,8041,3.5915,-86.7775
lg,1624619700243297851,0,0.0583,-0.7864,0.7231,426,29.1748,-35.0952,-57.9834,192,1.1856,1.2126,8.7878,-34.6024,27,0.086,8380,3.5915,-87.9954
lg,1624619700243315257,0,-0.0349,-0.6626,0.5972,427,30.0293,15.5029,-60.8521,192,1.1906,1.1946,7.67,-34.2676,27,0.079,8225,3.5915,-90.4577
lg,1624619700243332626,0,-0.1362,-0.707,0.6558,428,24.5361,37.1094,-57.6172,192,1.1926,1.1836,8.6323,-34.3029,27,0.084,8448,3.5915,-93.4644
lg,1624619700243349643,0,-0.1494,-0.7085,0.6689,429,21.3623,79.1626,-29.9072,192,1.2016,1.1716,10.5682,-34.3977,27,0.089,8263,3.5915,-96.3535
lg,1624619700243367845,0,-0.2981,-0.7163,0.7314,430,15.0757,98.2666,-11.0474,192,1.2096,1.1626,13.7651,-34.7347,27,0.091,8402,3.5915,-99.0823
lg,1624619700243384566,0,-0.4229,-0.6379,0.7156,431,3.1128,69.397,19.4092,192,1.2096,1.1656,16.8684,-35.1251,27,0.094,8551,3.5915,-100.1372
lg,1624619700243403471,0,-0.4985,-0.7253,0.8145,432,-9.5215,56.9458,36.438,192,1.2026,1.1766,19.9547,-35.7032,27,0.092,8347,3.5915,-100.3288
lg,1624619700243421674,0,-0.6721,-0.7334,0.7725,433,-24.9634,3.6621,52.6123,192,1.1876,1.1946,21.7921,-36.3528,27,0.092,9281,3.5915,-98.6972
lg,1624619700243439265,0,-0.7373,-0.5657,0.5762,434,-40.1001,-67.1387,68.8477,192,1.1626,1.2116,22.0817,-36.6628,27,0.086,8180,3.5915,-94.68
lg,1624619700243510740,0,-0.7371,-0.554,0.7412,435,-65.5518,-138.6719,98.6328,192,1.1316,1.2256,20.6518,-36.7353,27,0.082,8941,3.5915,-87.7216
lg,1624619700243533961,0,-0.5295,-0.645,0.7625,436,-79.4678,-197.8149,117.6758,192,1.1005,1.2316,15.2053,-36.5591,27,0.082,8230,3.5915,-77.2972
lg,1624619700243554014,0,0.3364,-0.7241,0.8076,437,-78.3691,-263.6719,101.1963,192,1.0815,1.2316,7.9538,-38.4303,27,0.077,9003,3.5915,-67.6695
lg,1624619700243572494,0,0.8708,-1.1033,0.8826,438,-70.0073,-208.9844,70.0684,192,1.0765,1.2296,1.9081,-40.993,27,0.082,8773,3.5915,-60.1888
lg,1624619700243590715,0,0.6294,-1.0166,0.7988,439,-16.8457,-31.6772,1.8921,192,1.0745,1.2286,-0.0462,-42.0186,27,0.084,8681,3.5915,-59.2958
lg,1624619700243618102,0,0.1777,-0.7805,0.6633,440,14.0991,93.3228,-10.8643,192,1.0775,1.2326,2.0406,-41.7919,27,0.085,9066,3.5915,-62.1188
lg,1624619700243635989,0,-0.0994,-0.79,0.7061,441,21.4233,137.3901,-13.7329,192,1.0815,1.2346,5.8916,-41.462,26,0.084,8526,3.5915,-66.2023
lg,1624619700243653821,0,-0.2402,-0.7947,0.6653,442,23.5596,144.4702,-15.0757,192,1.0845,1.2366,10.4723,-41.4892,26,0.086,8753,3.5915,-70.5642
lg,1624619700243671245,0,-0.5146,-0.6497,0.5181,443,24.7803,132.8735,-14.8315,192,1.0905,1.2376,14.8544,-41.7258,26,0.086,8742,3.5915,-74.7012
lg,1624619700243688892,0,-0.5486,-0.5903,0.6521,444,15.7471,66.5283,-2.2583,192,1.1015,1.2406,17.4339,-41.6347,26,0.087,8942,3.5915,-76.6175
lg,1624619700243705854,0,-0.2056,-0.7112,0.7649,445,10.0098,-6.5918,6.7139,192,1.1195,1.2446,17.1617,-41.1601,26,0.09,8874,3.5915,-76.2379
lg,1624619700243724056,0,0.1614,-0.7903,0.9277,446,14.0991,-28.6865,-10.376,192,1.1476,1.2506,15.0761,-40.4337,26,0.089,8871,3.5915,-75.7782
lg,1624619700243741517,0,0.199,-0.8972,1.0046,447,20.5078,-24.4141,-36.3159,192,1.1716,1.2266,11.8322,-39.7379,26,0.089,8860,3.5915,-77.5239
lg,1624619700243759108,0,0.1526,-0.9707,0.7683,448,41.8091,3.0518,-101.0132,192,1.1936,1.1496,8.638,-39.111,27,0.079,9132,3.5915,-80.868
lg,1624619700740732185,0,-0.5044,-0.6387,0.2996,449,39.917,54.3213,-93.811,192,1.2506,1.0065,9.0076,-38.988,27,0.088,24352,3.5915,-85.3173
lg,1624619700740776218,0,0.0115,-0.479,0.5598,450,4.7607,4.2725,9.2163,192,1.2576,0.9985,8.9793,-38.823,27,0.093,10814,3.5915,-85.1461
lg,1624619700740797235,0,0.0449,-0.644,0.7124,451,-2.1362,17.7002,21.7285,192,1.2586,1.0005,9.847,-39.1293,27,0.096,8426,3.5915,-84.9557
lg,1624619700740816492,0,-0.2429,-0.6953,0.7903,452,2.9297,51.9409,28.0762,192,1.2556,1.0125,12.2803,-39.1759,27,0.099,7891,3.5915,-85.4232
lg,1624619700740835528,0,-0.5735,-0.5513,0.9353,453,-1.0376,32.5317,32.8979,192,1.2466,1.0235,14.7235,-38.8477,27,0.097,7921,3.5915,-85.1464
lg,1624619700740854286,0,-0.6392,-0.5554,0.9456,454,-8.8501,-15.4419,35.0952,192,1.2366,1.0355,15.7297,-38.6769,26,0.094,8405,3.5915,-83.5789
lg,1624619700740873265,0,-0.5623,-0.6648,0.8254,455,-24.0479,-110.8398,39.6729,192,1.2276,1.0585,13.7506,-38.5771,26,0.092,8631,3.5915,-79.4287
lg,1624619700740891875,0,-0.2529,-0.7263,0.7922,456,-38.6353,-165.2832,64.0869,192,1.2166,1.0885,10.206,-38.9611,26,0.09,8728,3.5915,-73.1889
lg,1624619700740909318,0,0.0693,-0.8066,0.7664,457,-48.0957,-167.1753,83.4961,192,1.2036,1.1165,6.6646,-40.1561,26,0.091,8235,3.5915,-66.3332
lg,1624619700740958610,0,0.2007,-0.8408,0.7571,458,-49.4385,-148.1934,90.0269,192,1.1836,1.1386,3.9213,-41.8112,26,0.093,8163,3.5915,-59.731
lg,1624619700740978720,0,0.2698,-0.9856,0.738,459,-54.2603,-91.7358,102.7222,192,1.1536,1.1586,3.4114,-44.0482,26,0.089,8448,3.5915,-54.2363
lg,1624619700740997014,0,0.1858,-0.9478,0.677,460,-52.3071,-33.2642,113.0981,192,1.1125,1.1746,5.1917,-46.2194,26,0.082,8322,3.5915,-50.1144
lg,1624619700741015161,0,0.2493,-0.5334,0.9302,461,-44.7998,13.7939,106.8115,192,1.0705,1.1836,7.9663,-47.0756,27,0.08,9318,3.5915,-47.5139
lg,1624619700741033808,0,0.2227,-0.5337,0.9309,462,-36.0718,-4.6387,63.4766,192,1.0615,1.1766,8.9534,-47.5605,27,0.08,8564,3.5915,-45.5443
lg,1624619700741051565,0,0.1477,-0.9832,0.95,463,-38.3911,-35.8887,29.0527,192,1.0615,1.1726,8.2727,-48.738,27,0.082,8434,3.5915,-43.6622
lg,1624619700741075397,0,-0.158,-0.9124,0.5344,464,-8.9111,-10.376,-11.5356,192,1.0635,1.1726,7.6667,-49.51,27,0.082,10465,3.5915,-43.7093
lg,1624619700741093673,0,-0.165,-0.7444,0.5754,465,13.6108,4.1504,-14.3433,192,1.0675,1.1756,7.4287,-49.1309,27,0.083,8578,3.5915,-44.2253
lg,1624619700741112283,0,-0.1216,-0.7158,0.4683,466,17.7612,7.2632,-5.0049,192,1.0735,1.1816,7.4947,-48.7595,27,0.082,8548,3.5915,-44.6168
lg,1624619700741130207,0,-0.2087,-0.7341,0.574,467,24.7192,31.189,-9.8267,192,1.0775,1.1886,8.2258,-48.0519,27,0.08,8621,3.5915,-45.8366
lg,1624619700741147928,0,-0.1665,-0.6953,0.7388,468,27.4658,18.0664,-11.4746,192,1.0885,1.1966,8.4159,-46.8785,27,0.08,8697,3.5915,-46.6593
lg,1624619700741178592,0,-0.0769,-0.7563,0.7249,469,27.9541,-11.5967,-21.1792,192,1.1045,1.2066,7.3166,-45.76,27,0.082,9084,3.5915,-46.9055
lg,1624619700741198424,0,-0.0747,-0.7681,0.6394,470,32.4707,-13.5498,-31.9214,192,1.1225,1.2126,5.9108,-44.6904,27,0.085,9144,3.5915,-47.4431
lg,1624619700741215996,0,-0.0483,-0.7471,0.6465,471,32.4097,-14.2822,-28.2593,192,1.1376,1.2176,4.7465,-43.6147,27,0.088,8944,3.5915,-47.6794
lg,1624619700741234439,0,-0.0295,-0.6785,0.6414,472,28.9307,-10.5591,-12.8174,192,1.1516,1.2136,3.9729,-42.5754,27,0.089,8955,3.5915,-47.7743
lg,1624619700741251252,0,0.0403,-0.675,0.7048,473,27.832,11.3525,-0.3052,192,1.1696,1.2046,4.049,-41.5238,27,0.09,8925,3.5915,-48.0945
lg,1624619700741269399,0,0.1091,-0.6689,0.7937,474,36.6821,36.8652,-2.6245,192,1.1886,1.1806,4.6937,-40.0752,27,0.087,8544,3.5915,-49.1441
lg,1624619700741286638,0,0.1389,-0.7542,0.8711,475,29.9683,66.2842,-8.9111,192,1.2096,1.1386,6.0435,-39.0869,27,0.086,9172,3.5915,-51.1272
lg,1624619700741303952,0,0.1118,-0.7859,0.7827,476,30.4565,78.6743,-12.7563,192,1.2246,1.0945,8.075,-38.5166,27,0.082,9123,3.5915,-54.2543
lg,1624619700741321210,0,0.0649,-0.7991,0.7974,477,30.5786,120.8496,-23.1323,192,1.2336,1.0575,11.0133,-38.1938,27,0.084,9165,3.5915,-58.076
lg,1624619700741339041,0,-0.1287,-0.7942,0.7092,478,29.1748,154.6021,-26.6724,192,1.2406,1.0365,15.015,-38.5047,27,0.089,9108,3.5915,-62.953
lg,1624619700741356818,0,-0.333,-0.6672,0.605,479,25.8179,156.311,-24.5972,192,1.2496,1.0315,19.4468,-39.2816,26,0.09,8537,3.5915,-67.9624
lg,1624619700741375798,0,-0.4099,-0.5222,0.647,480,7.9956,117.4316,7.0801,192,1.2536,1.0335,23.4851,-40.0331,26,0.094,9325,3.5915,-70.9511
lg,1624619701006856379,0,-0.6316,-0.613,0.8977,481,-17.0288,35.5225,37.9639,192,1.2486,1.0515,25.8044,-40.376,26,0.09,24606,3.5915,-70.5993
lg,1624619701006896931,0,-0.7905,-0.6755,0.7976,482,-32.3486,-44.3115,39.7339,192,1.2356,1.0705,25.9312,-40.5061,27,0.091,8830,3.5915,-67.9681
lg,1624619701006917466,0,-0.8669,-0.6624,0.6824,483,-42.1143,-128.9673,42.0532,192,1.2096,1.1035,23.746,-40.15,27,0.087,8009,3.5915,-62.9127
lg,1624619701006936854,0,-0.803,-0.6848,0.6455,484,-51.1475,-171.2646,56.5186,192,1.1806,1.1416,20.4738,-39.969,27,0.083,8024,3.5915,-56.3924
lg,1624619701006955556,0,-0.5293,-0.6663,0.6035,485,-64.9414,-245.7275,84.8389,192,1.1546,1.1706,15.5601,-39.937,27,0.082,7976,3.5915,-47.1275
lg,1624619701006991590,0,-0.0195,-0.72,0.5854,486,-74.707,-276.1841,112.854,192,1.1326,1.1936,9.5762,-40.9897,27,0.075,8407,3.5915,-36.4118
lg,1624619701007011644,0,0.6262,-0.8979,0.9075,487,-76.5381,-266.6016,119.9341,192,1.1205,1.2046,4.0126,-42.8914,27,0.073,8516,3.5915,-26.5785
lg,1624619701007029902,0,0.7849,-1.1108,0.6243,488,-63.7817,-227.2949,83.9844,192,1.1145,1.2136,-1.4199,-45.8168,27,0.073,8160,3.5915,-17.8493
lg,1624619701007048233,0,1.0601,-1.1179,0.5798,489,-29.6631,-92.041,43.5791,192,1.1115,1.2226,-4.0772,-47.671,27,0.074,8707,3.5915,-13.9366
lg,1624619701007066139,0,0.5554,-0.9548,0.5288,490,9.4604,68.0542,0.3662,192,1.1115,1.2256,-3.1291,-47.6254,27,0.076,8765,3.5915,-15.9166
lg,1624619701007084008,0,0.3274,-0.8391,0.4626,491,24.5972,111.6943,-6.2256,192,1.1145,1.2296,0.2067,-46.3503,27,0.078,8324,3.5915,-20.4331
lg,1624619701007102155,0,0.0422,-0.7407,0.6174,492,44.0674,163.147,-15.0146,192,1.1225,1.2336,4.2043,-44.9285,27,0.081,8531,3.5915,-25.5276
lg,1624619701007119376,0,-0.2065,-0.6912,0.5469,493,53.0396,168.6401,-25.2686,192,1.1416,1.2366,8.6513,-43.6754,27,0.082,8481,3.5915,-31.0115
lg,1624619701007137022,0,-0.4255,-0.6553,0.8286,494,58.2886,130.4321,-40.8325,192,1.1756,1.2396,11.8651,-41.9972,27,0.085,14737,3.5915,-35.794
lg,1624619701007154854,0,-0.4175,-0.7078,0.9648,495,50.1709,97.4731,-42.9688,192,1.1926,1.2236,13.9321,-40.651,27,0.085,8161,3.5915,-39.7096
lg,1624619701007172538,0,-0.3074,-0.6462,0.6611,496,44.8608,36.499,-45.166,192,1.2086,1.2006,14.0538,-39.5732,27,0.083,8346,3.5915,-42.1329
lg,1624619701007189666,0,-0.2734,-0.5852,0.6648,497,22.4609,8.3008,-32.8979,192,1.2176,1.1916,13.5964,-39.0391,26,0.084,8195,3.5915,-43.4108
lg,1624619701007207146,0,-0.2183,-0.6299,0.6594,498,13.3057,-3.9673,-15.564,192,1.2216,1.1896,12.9007,-39.0571,26,0.085,8210,3.5915,-43.27
lg,1624619701007224756,0,-0.0186,-0.7461,0.6997,499,1.5259,2.4414,8.1177,192,1.2246,1.1886,12.7161,-39.2583,26,0.089,9679,3.5915,-43.1446
lg,1624619701007241810,0,-0.1875,-0.7761,0.7734,500,-3.9673,44.1895,22.3999,192,1.2246,1.1916,14.522,-39.746,27,0.092,8638,3.5915,-43.6441
lg,1624619701007258808,0,-0.4844,-0.6938,0.9075,501,-10.1929,52.7954,36.2549,192,1.2266,1.2036,17.3922,-40.1235,27,0.098,8589,3.5915,-43.8789
lg,1624619701007276548,0,-0.6643,-0.7751,0.8535,502,-28.5034,-9.5825,51.7578,192,1.2126,1.2216,18.9321,-40.7287,27,0.095,8977,3.5915,-41.9828
lg,1624619701007293731,0,-0.6553,-0.7195,0.7244,503,-34.0576,-61.3403,61.2793,192,1.1886,1.2396,18.2292,-40.8799,27,0.087,8612,3.5915,-37.0504
lg,1624619701007311767,0,-0.5569,-0.6431,0.6589,504,-49.9268,-127.9907,80.3833,192,1.1596,1.2516,17.001,-41.1444,27,0.078,8681,3.5915,-31.0152
lg,1624619701007329025,0,-0.1931,-0.689,0.6819,505,-66.04,-190.8569,105.2856,192,1.1416,1.2546,13.8641,-41.6727,27,0.08,8969,3.5915,-22.556
lg,1624619701007346449,0,0.2891,-0.9329,0.5037,506,-57.0679,-221.4966,85.6934,192,1.1326,1.2526,8.5847,-43.016,27,0.079,8634,3.5915,-14.0766
lg,1624619701007376817,0,0.7927,-0.9705,0.5139,507,-59.1431,-195.1904,88.1958,192,1.1326,1.2486,4.4983,-44.119,27,0.078,8473,3.5915,-8.0831
lg,1624619701007395630,0,0.772,-0.9678,0.5583,508,-11.5967,-61.0352,38.3911,192,1.1376,1.2496,2.4155,-44.9144,26,0.076,8443,3.5915,-5.304
lg,1624619701007413573,0,0.5188,-0.9539,0.6104,509,29.8462,70.1904,12.3901,192,1.1496,1.2536,3.7225,-44.2474,26,0.082,9415,3.5915,-6.9565
lg,1624619701007432664,0,0.1682,-0.8645,0.5339,510,52.2461,141.9067,-21.4844,192,1.1666,1.2606,6.6991,-43.1137,26,0.081,8683,3.5915,-11.5625
lg,1624619701007465698,0,-0.2986,-0.8157,0.5481,511,65.7959,186.1572,-45.7764,168,1.1916,1.2566,11.6863,-41.7923,27,0.082,12754,3.5893,-18.0397
lg,1624619701007483993,0,-0.5686,-0.657,0.7312,512,65.0635,142.2729,-48.2788,168,1.2066,1.2316,15.3907,-40.4394,27,0.08,8799,3.5893,-23.3746
lg,1624619701509629701,0,-0.2219,-0.6245,0.6646,513,21.4844,-10.1929,0.9155,168,1.2296,1.1586,15.033,-39.604,27,0.081,24788,3.5893,-23.1007
lg,1624619701509685586,0,-0.0869,-0.6526,0.6919,514,11.7188,-4.5776,12.0239,168,1.2316,1.1416,14.8083,-39.1487,27,0.082,9126,3.5893,-22.6355
lg,1624619701509707140,0,-0.0439,-0.6631,0.7227,515,10.498,12.6343,17.2729,168,1.2296,1.1336,15.1503,-38.8005,27,0.078,8310,3.5893,-22.4461
lg,1624619701509727509,0,-0.2905,-0.8335,1.0315,516,-4.1504,67.3218,29.0527,168,1.2256,1.1396,18.2812,-39.6458,27,0.085,17201,3.5893,-22.9935
lg,1624619701509746970,0,-0.6111,-0.7317,0.676,517,-14.1602,38.208,45.2271,168,1.2196,1.1666,21.1262,-40.3294,26,0.088,8075,3.5893,-22.6555
lg,1624619701509780208,0,-0.5811,-0.4492,0.7021,518,-30.8228,-19.7754,77.3315,168,1.2006,1.1946,23.061,-40.1105,26,0.083,8020,3.5893,-19.4541
lg,1624619701509799670,0,-0.7129,-0.5037,0.6658,519,-47.9126,-38.0859,88.501,168,1.1676,1.2116,25.0184,-40.5922,26,0.082,7975,3.5893,-15.5098
lg,1624619701509823612,0,-0.7849,-0.6147,0.7195,520,-72.2046,-101.0132,118.4692,168,1.1386,1.2166,25.6117,-40.5091,27,0.079,8362,3.5893,-8.6167
lg,1624619701509855462,0,-0.3855,-0.946,0.687,521,-66.8335,-198.9746,95.8252,168,1.1175,1.2146,21.7933,-40.1712,27,0.083,9438,3.5893,-0.041
lg,1624619701509874793,0,0.5498,-0.8113,0.8313,522,-59.3872,-249.0845,74.0967,168,1.1125,1.2136,14.4563,-39.854,27,0.078,8188,3.5893,9.0035
lg,1624619701509894329,0,0.4792,-1.0061,0.6533,523,-51.3916,-180.6641,35.0342,168,1.1135,1.2146,9.8704,-40.9012,27,0.08,8639,3.5893,12.6146
lg,1624619701509912902,0,0.6206,-0.9172,0.698,524,-15.0146,-64.209,10.9863,168,1.1185,1.2176,6.8443,-41.6074,27,0.08,8204,3.5893,14.5987
lg,1624619701509931789,0,0.4739,-0.9902,0.6292,525,11.7798,36.6821,-7.5073,168,1.1286,1.2206,6.6482,-41.8534,27,0.084,9459,3.5893,13.3185
lg,1624619701509950436,0,-0.0618,-0.8804,0.5181,526,38.8794,132.8125,-46.5088,168,1.1376,1.2236,9.2352,-41.6744,27,0.081,8050,3.5893,8.2624
lg,1624619701509979526,0,-0.5081,-0.7271,0.605,527,45.9595,161.8042,-54.9316,168,1.1486,1.2276,13.1869,-41.2364,27,0.08,8798,3.5893,2.1742
lg,1624619701510006005,0,-0.6257,-0.6941,0.6057,528,46.0205,129.8828,-54.0161,168,1.1616,1.2326,16.473,-40.9846,27,0.08,8437,3.5893,-3.0984
lg,1624619701510031226,0,-0.6392,-0.668,0.626,529,36.377,46.4478,-37.5977,168,1.1746,1.2376,17.6108,-40.4437,27,0.079,8507,3.5893,-5.6085
lg,1624619701510049909,0,-0.467,-0.6958,0.583,530,24.9634,-24.5972,-17.8833,168,1.1856,1.2426,16.7858,-39.7626,27,0.079,8874,3.5893,-5.6162
lg,1624619701510068537,0,-0.2139,-0.6917,0.6111,531,20.4468,-49.0112,-8.9111,168,1.1956,1.2466,14.6687,-38.9412,27,0.078,8864,3.5893,-4.0218
lg,1624619701510087536,0,0.0322,-0.7056,0.7664,532,16.2354,-70.1294,4.6997,168,1.2076,1.2446,12.0299,-37.8988,27,0.081,8557,3.5893,-2.0539
lg,1624619701510106146,0,0.1279,-0.7056,0.8198,533,20.6909,-61.4624,3.7842,168,1.2166,1.2316,9.5701,-36.9386,27,0.077,8797,3.5893,-0.9359
lg,1624619701510125366,0,0.2253,-0.7617,0.8115,534,22.0947,-32.2266,-11.8408,168,1.2246,1.1976,7.4448,-36.2361,27,0.079,9634,3.5893,-0.5872
lg,1624619701510143920,0,0.3477,-0.7971,0.8157,535,26.123,26.001,-20.9961,168,1.2246,1.1506,6.8546,-35.6568,27,0.076,9240,3.5893,-1.9343
lg,1624619701510226562,0,0.2673,-0.8589,0.864,536,28.9307,112.6709,-37.7197,168,1.2336,1.1025,8.884,-35.383,27,0.076,9205,3.5893,-5.8662
lg,1624619701510251782,0,0.0693,-0.8774,0.6331,537,33.8135,160.9497,-37.7808,168,1.2486,1.0685,12.7394,-35.7195,27,0.08,10461,3.5893,-11.0461
lg,1624619701510271244,0,-0.1245,-0.6777,0.5537,538,41.9922,186.4624,-32.8369,168,1.2586,1.0525,17.8057,-36.1274,27,0.086,9452,3.5893,-16.8192
lg,1624619701510292113,0,-0.2644,-0.4282,0.5994,539,30.7617,194.458,-4.3945,168,1.2646,1.0475,23.9952,-36.6872,27,0.088,9133,3.5893,-21.9085
lg,1624619701510311130,0,-0.5046,-0.5769,0.6682,540,9.5215,171.9971,20.5078,168,1.2686,1.0535,30.1375,-38.2648,27,0.091,9134,3.5893,-25.9543
lg,1624619701510329647,0,-0.6855,-0.6238,0.7998,541,-3.6011,119.9341,35.7056,168,1.2676,1.0665,34.8842,-39.6004,27,0.089,9313,3.5893,-28.2166
lg,1624619701510377013,0,-0.8149,-0.6028,0.9409,542,-8.728,91.2476,36.438,168,1.2556,1.0835,38.8514,-40.7106,27,0.085,9043,3.5893,-29.685
lg,1624619701510397827,0,-0.9783,-0.6223,0.6873,543,-21.2402,-22.4609,46.2036,168,1.2346,1.1065,39.6592,-39.9639,27,0.078,9099,3.5893,-27.1325
lg,1624619701510415936,0,-1.1292,-0.6257,0.6882,544,-41.8701,-118.9575,50.354,168,1.2016,1.1386,37.6717,-38.0326,27,0.08,9756,3.5893,-21.3058
lg,1624619701775406109,0,0.1118,-0.6123,0.6536,545,-101.0742,-335.7544,170.7153,168,1.0985,1.1976,29.2538,-33.4975,27,0.068,25460,3.5893,-5.5445
lg,1624619701775441754,0,0.7539,-1.009,0.6594,546,-78.3081,-278.3813,103.5156,168,1.0855,1.1976,20.3467,-33.0277,27,0.07,8832,3.5893,4.5378
lg,1624619701775461605,0,0.8914,-1.2825,0.9397,547,-76.2939,-211.0596,73.4863,168,1.0845,1.1986,13.3144,-34.6223,27,0.07,8135,3.5893,11.7519
lg,1624619701775480511,0,0.644,-1.0503,0.5906,548,-17.0288,-48.8892,-4.6387,168,1.0845,1.2006,10.1572,-35.9779,27,0.073,7990,3.5893,12.5626
lg,1624619701775499231,0,0.3899,-0.8867,0.5842,549,11.4746,59.8755,-8.4839,168,1.0865,1.2026,10.7532,-36.5883,27,0.074,7978,3.5893,10.7089
lg,1624619701775517248,0,0.2988,-0.8547,0.5728,550,17.334,85.3882,-9.2773,168,1.0905,1.2046,12.2417,-37.1118,27,0.081,7961,3.5893,8.1743
lg,1624619701775535451,0,-0.0549,-0.8196,0.512,551,31.25,144.043,-22.3999,168,1.0935,1.2066,15.9215,-37.746,27,0.08,7965,3.5893,3.6501
lg,1624619701775553505,0,-0.3489,-0.7085,0.594,552,38.147,147.2168,-31.189,168,1.0985,1.2086,19.967,-38.1821,27,0.082,8386,3.5893,-1.3251
lg,1624619701775570985,0,-0.4485,-0.696,0.6477,553,37.8418,131.2866,-30.7007,168,1.1065,1.2126,23.5054,-38.6912,27,0.084,7970,3.5893,-5.996
lg,1624619701775587928,0,-0.5005,-0.6663,0.6904,554,36.0718,71.4722,-20.5078,168,1.1225,1.2166,25.3719,-38.5496,27,0.084,9482,3.5893,-8.7427
lg,1624619701775605927,0,-0.426,-0.6636,0.6777,555,29.4189,11.2305,-11.1084,168,1.1366,1.2226,25.4,-37.8975,27,0.083,7950,3.5893,-9.5342
lg,1624619701775623888,0,-0.2214,-0.7053,0.7117,556,25.5127,-9.3994,-5.7373,168,1.1546,1.2276,24.2508,-37.0466,27,0.085,8756,3.5893,-9.191
lg,1624619701775641757,0,-0.1389,-0.7397,0.8376,557,21.5454,-22.2168,1.4038,168,1.1706,1.2306,22.9026,-36.1178,27,0.083,8519,3.5893,-8.6433
lg,1624619701775659274,0,-0.0017,-0.7317,0.7942,558,30.0293,-21.9116,-17.8833,168,1.1866,1.2276,20.8993,-35.2209,27,0.087,8074,3.5893,-8.8311
lg,1624619701775676588,0,0.0061,-0.7466,0.7798,559,27.8931,-0.9155,-38.6353,168,1.1986,1.2156,19.1652,-34.9133,27,0.081,8114,3.5893,-10.2831
lg,1624619701775694327,0,-0.0325,-0.7607,0.6648,560,28.9307,10.6201,-43.2129,168,1.2106,1.1976,17.8659,-34.8836,27,0.084,8710,3.5893,-12.2227
lg,1624619701775711752,0,-0.0718,-0.7437,0.7002,561,29.1748,49.7437,-32.1045,168,1.2206,1.1656,18.2589,-34.976,27,0.085,15170,3.5893,-14.6986
lg,1624619701775728935,0,-0.1165,-0.7004,0.6279,562,24.4751,62.9883,-10.1929,168,1.2336,1.1486,19.6495,-35.145,27,0.089,8170,3.5893,-16.7548
lg,1624619701775745916,0,-0.2273,-0.5864,0.5786,563,24.0479,72.3267,11.0474,168,1.2396,1.1406,22.0966,-35.0901,27,0.091,8949,3.5893,-18.2936
lg,1624619701775762896,0,-0.3176,-0.47,0.5547,564,17.8223,64.4531,25.5737,168,1.2376,1.1476,24.8622,-35.0826,27,0.091,8221,3.5893,-18.0428
lg,1624619701775779728,0,-0.4143,-0.604,0.8838,565,-15.686,55.1758,63.9038,168,1.2276,1.1666,28.3545,-35.5258,27,0.089,9490,3.5893,-16.6735
lg,1624619701775796726,0,-0.6482,-0.7627,0.8652,566,-26.6113,17.5781,83.374,168,1.2036,1.1876,30.894,-35.4964,27,0.088,8448,3.5893,-14.1318
lg,1624619701775814114,0,-0.8528,-0.5059,0.6865,567,-38.4521,-48.4619,91.1865,168,1.1636,1.2126,31.9511,-34.5374,27,0.08,8910,3.5893,-9.329
lg,1624619701775831076,0,-0.895,-0.5085,0.8748,568,-74.5239,-123.0469,130.9204,168,1.1215,1.2266,31.1613,-32.9854,27,0.074,8667,3.5893,-0.9151
lg,1624619701775870702,0,-0.0212,-0.5361,1.3672,569,-88.0737,-186.8286,148.2544,168,1.0895,1.2306,25.5107,-30.6493,27,0.073,8803,3.5893,10.5308
lg,1624619701775888497,0,0.1724,-0.8501,0.738,570,-70.1294,-255.6763,115.9668,168,1.0765,1.2306,17.6212,-30.4757,27,0.077,9142,3.5893,20.0956
lg,1624619701775906607,0,0.677,-1.0559,0.7554,571,-56.0913,-211.3647,59.9365,168,1.0775,1.2316,10.1102,-31.9501,26,0.076,9029,3.5893,26.4729
lg,1624619701775923717,0,0.3977,-1.0771,0.5903,572,-16.5405,-42.7856,5.6763,168,1.0785,1.2336,7.7758,-33.489,26,0.078,8884,3.5893,27.4288
lg,1624619701775941234,0,0.2388,-0.7776,0.5229,573,10.5591,34.668,-7.8125,168,1.0815,1.2346,7.9185,-34.0541,26,0.079,8879,3.5893,26.2738
lg,1624619701775969676,0,-0.1458,-0.7939,0.5908,574,18.6157,87.8296,-23.6816,168,1.0845,1.2356,10.3073,-34.497,27,0.082,8803,3.5893,23.3703
lg,1624619701775987934,0,-0.2593,-0.7827,0.5898,575,20.813,90.1489,-24.1699,168,1.0905,1.2376,12.7507,-34.7523,27,0.081,9242,3.5893,20.6047
lg,1624619701776005506,0,-0.3447,-0.7046,0.5869,576,25.2686,62.1338,-22.2168,168,1.0995,1.2396,14.5996,-34.6884,27,0.082,9281,3.5893,18.3001
lg,1624619702169958355,0,-0.2595,-0.6833,0.6841,577,21.4844,-34.3628,-18.6768,168,1.1316,1.2496,13.0719,-34.1856,27,0.084,24539,3.5893,18.3692
lg,1624619702170017665,0,-0.1335,-0.6997,0.8213,578,21.8506,-50.5981,-19.7754,168,1.1506,1.2526,10.7211,-33.4572,27,0.082,9170,3.5893,18.7959
lg,1624619702170037868,0,0.1316,-0.7578,1.0889,579,19.165,-63.2324,-28.7476,168,1.1676,1.2476,7.3435,-32.6739,27,0.087,8295,3.5893,19.208
lg,1624619702170058200,0,0.1963,-0.7668,0.8982,580,23.7427,-52.8564,-45.0439,168,1.1846,1.2316,3.9493,-32.0635,27,0.086,8332,3.5893,18.7783
lg,1624619702170077383,0,0.0911,-0.8301,0.7786,581,25.6348,6.0425,-82.0923,168,1.2006,1.2036,2.0867,-31.7647,27,0.086,8262,3.5893,15.8219
lg,1624619702170095826,0,0.0249,-0.7693,0.7158,582,30.6396,63.7817,-72.998,168,1.2126,1.1706,2.5917,-31.2904,27,0.084,7896,3.5893,11.9735
lg,1624619702170113807,0,-0.043,-0.8113,0.718,583,23.5596,106.3843,-63.2935,168,1.2356,1.1095,4.8881,-31.3013,27,0.088,14579,3.5893,7.5589
lg,1624619702170131990,0,-0.0559,-0.7932,0.4958,584,28.8696,97.5952,-45.166,168,1.2476,1.0895,7.2236,-31.5459,27,0.091,8031,3.5893,3.8721
lg,1624619702170159785,0,-0.0068,-0.4097,0.3679,585,33.7524,106.7505,-5.5542,168,1.2546,1.0855,10.4885,-31.2218,27,0.092,7987,3.5893,1.3414
lg,1624619702170180283,0,-0.0737,-0.354,0.3257,586,19.5923,130.0659,21.8506,168,1.2546,1.0945,15.3047,-31.5215,27,0.094,8002,3.5893,-0.795
lg,1624619702170198486,0,-0.3254,-0.5762,0.8618,587,-17.6392,158.6914,61.4014,168,1.2466,1.1135,22.0314,-32.7447,27,0.091,8732,3.5893,-2.1972
lg,1624619702170216373,0,-0.7205,-0.7937,0.9443,588,-18.4937,114.9292,75.3174,168,1.2336,1.1326,27.8249,-33.749,27,0.088,9326,3.5893,-2.3137
lg,1624619702170233576,0,-1.0181,-0.6284,0.7861,589,-29.9072,-5.7373,71.4722,168,1.2086,1.1576,29.8984,-33.7052,27,0.087,8893,3.5893,0.4776
lg,1624619702170253926,0,-1.0681,-0.4517,0.7261,590,-61.4014,-139.5874,106.2622,168,1.1686,1.1816,28.3821,-32.3995,27,0.081,8691,3.5893,8.0896
lg,1624619702170271536,0,-0.9424,-0.5403,0.7366,591,-81.8481,-200.4395,136.8408,168,1.1366,1.2016,23.5155,-31.3676,26,0.076,9316,3.5893,19.8607
lg,1624619702170289868,0,-0.4036,-0.7686,0.6404,592,-98.7549,-292.5415,173.4009,168,1.1055,1.2126,17.1844,-31.5671,26,0.072,8744,3.5893,32.3431
lg,1624619702170307440,0,0.522,-0.7539,0.8445,593,-83.6182,-303.7109,143.6157,168,1.0885,1.2176,8.4989,-32.6865,26,0.073,9074,3.5893,43.8008
lg,1624619702170325328,0,0.9417,-1.2314,0.8599,594,-75.6836,-228.2715,97.0459,168,1.0825,1.2206,1.7053,-35.6783,26,0.074,8896,3.5893,52.0784
lg,1624619702170344753,0,0.8025,-1.0906,0.7163,595,-21.3623,-43.0298,18.2495,168,1.0825,1.2236,-0.4816,-37.1897,27,0.075,9021,3.5893,53.683
lg,1624619702170361696,0,0.5806,-0.9941,0.7126,596,2.8687,31.7993,1.0986,168,1.0865,1.2276,1.0251,-37.1232,27,0.079,8701,3.5893,51.3539
lg,1624619702170419729,0,-0.0437,-0.8115,0.5203,597,33.2031,134.8267,-40.4663,168,1.0955,1.2316,4.4044,-36.7883,27,0.083,11428,3.5893,46.7969
lg,1624619702170442060,0,-0.4731,-0.7043,0.5203,598,40.1611,156.4941,-55.9692,168,1.1045,1.2326,8.9957,-36.4074,27,0.086,13589,3.5893,41.1916
lg,1624619702170460726,0,-0.7295,-0.4431,0.5085,599,36.438,110.4736,-43.8843,168,1.1085,1.2336,12.9129,-35.8508,27,0.085,9537,3.5893,37.0831
lg,1624619702170484113,0,-0.6626,-0.5298,0.6658,600,11.2915,13.2446,-17.2729,168,1.1135,1.2356,13.8938,-35.6849,27,0.086,8699,3.5893,36.1742
lg,1624619702170505852,0,-0.3352,-0.6328,0.7163,601,-5.9204,-55.9082,6.8359,168,1.1165,1.2366,12.4609,-35.7752,27,0.088,8922,3.5893,37.6958
lg,1624619702170526924,0,-0.1616,-0.7366,0.7708,602,-9.3994,-64.27,16.3574,168,1.1185,1.2376,10.7268,-36.0346,26,0.089,8719,3.5893,39.8899
lg,1624619702170546830,0,-0.1313,-0.7561,0.8062,603,-9.0332,-61.2793,27.0996,168,1.1235,1.2386,9.2405,-36.2612,26,0.09,9028,3.5893,42.1976
lg,1624619702170564273,0,0.0054,-0.7524,0.9155,604,-5.4321,-47.4243,32.2876,168,1.1346,1.2376,8.1059,-36.2649,26,0.089,9494,3.5893,44.3676
lg,1624619702170583068,0,0.3228,-0.7942,0.978,605,-3.1738,-36.1938,23.4985,168,1.1536,1.2396,6.6323,-36.2827,27,0.091,8937,3.5893,45.9807
lg,1624619702170602567,0,0.4648,-0.8977,0.9231,606,11.6577,5.9814,-5.7983,168,1.1726,1.2326,5.6769,-36.141,27,0.093,10165,3.5893,45.6134
lg,1624619702170621806,0,0.2834,-0.9028,0.7598,607,28.1982,83.8623,-51.3916,168,1.1846,1.2096,6.428,-35.9219,27,0.092,9321,3.5893,41.9008
lg,1624619702170639638,0,0.0688,-0.9946,0.6462,608,37.4756,153.9917,-79.834,168,1.2026,1.1766,9.1413,-36.0892,27,0.09,8961,3.5893,35.5483
lg,1624619702574728173,0,-0.323,-0.4314,0.5779,609,23.5596,162.5977,-17.2729,168,1.2376,1.1506,14.5441,-36.0857,27,0.098,24221,3.5893,31.0588
lg,1624619702574781317,0,-0.5105,-0.8276,0.7649,610,-3.2959,127.3193,31.9214,168,1.2356,1.1576,19.7575,-37.2503,27,0.095,8735,3.5893,28.8317
lg,1624619702574802482,0,-0.7104,-0.7571,0.5071,611,-4.5776,83.8623,38.147,168,1.2266,1.1766,23.1551,-38.1207,27,0.094,7984,3.5893,28.658
lg,1624619702574821888,0,-0.8154,-0.6414,0.6133,612,-8.728,26.3062,43.7012,168,1.2076,1.1976,25.8118,-38.3918,27,0.087,7917,3.5893,29.3457
lg,1624619702574840943,0,-1.0132,-0.5037,0.7295,613,-25.5127,-75.6226,52.4902,168,1.1826,1.2126,25.614,-37.5918,27,0.08,7877,3.5893,33.314
lg,1624619702574859645,0,-0.7588,-0.6245,0.6252,614,-56.7627,-230.0415,77.8198,168,1.1566,1.2266,20.7886,-36.6429,27,0.078,9481,3.5893,41.9574
lg,1624619702574877810,0,-0.1599,-0.7244,0.6335,615,-66.2231,-276.3672,91.98,168,1.1356,1.2356,13.3076,-36.7197,27,0.077,8349,3.5893,52.6869
lg,1624619702574896420,0,0.2366,-0.7285,0.666,616,-70.9839,-296.2646,111.8774,168,1.1205,1.2406,5.6552,-38.167,27,0.069,8210,3.5893,63.463
lg,1624619702574914604,0,1.0303,-1.1687,0.7349,617,-44.0674,-152.4048,78.6743,168,1.1055,1.2406,1.4144,-40.1282,27,0.07,13947,3.5893,69.7211
lg,1624619702574933010,0,0.7625,-0.9827,0.5852,618,13.2446,60.3027,22.7661,168,1.1045,1.2406,2.532,-40.2376,27,0.069,8486,3.5893,68.838
lg,1624619702574951379,0,0.1509,-0.7705,0.6626,619,47.8516,190.0635,6.5308,168,1.1075,1.2426,8.084,-39.1082,27,0.072,10861,3.5893,64.1403
lg,1624619702574968804,0,-0.01,-0.6704,0.6421,620,51.6968,197.937,-2.3193,168,1.1135,1.2456,14.1375,-38.3088,27,0.072,8429,3.5893,58.9788
lg,1624619702575000949,0,-0.2568,-0.7063,0.6362,621,44.3726,170.4712,-13.1836,168,1.1245,1.2476,19.172,-38.3006,27,0.072,8560,3.5893,54.0379
lg,1624619702575020689,0,-0.5894,-0.699,0.5737,622,43.7622,153.3203,-29.1748,148,1.1366,1.2506,23.7651,-38.8467,26,0.073,8469,3.5959,48.8002
lg,1624619702575037984,0,-0.8159,-0.5,0.6465,623,44.1284,134.8877,-29.9072,148,1.1466,1.2536,26.9868,-38.7776,26,0.076,8118,3.5959,45.2325
lg,1624619702575055575,0,-0.8406,-0.4631,0.7024,624,26.7334,44.6167,-10.2539,148,1.1566,1.2546,28.5536,-38.3412,26,0.075,9480,3.5959,43.6684
lg,1624619702575073166,0,-0.4875,-0.6167,0.7681,625,2.1362,-57.251,21.3623,148,1.1656,1.2576,27.1816,-37.1626,26,0.077,8596,3.5959,46.0197
lg,1624619702575090406,0,-0.1023,-0.7385,0.7717,626,-5.249,-91.6138,23.9258,148,1.1756,1.2586,23.9942,-36.235,27,0.076,8440,3.5959,49.1683
lg,1624619702575108719,0,0.0603,-0.8064,0.7319,627,-1.9531,-65.2466,20.5688,148,1.1826,1.2586,21.3578,-35.8767,27,0.079,9171,3.5959,51.3549
lg,1624619702575126533,0,0.0566,-0.8137,0.7336,628,2.3804,-42.5415,16.3574,148,1.1886,1.2586,19.545,-35.6302,27,0.079,8475,3.5959,52.829
lg,1624619702575145180,0,-0.0447,-0.7517,0.792,629,9.2773,-4.6387,9.3384,148,1.1946,1.2556,18.943,-35.4372,27,0.078,8503,3.5959,53.1546
lg,1624619702575163141,0,-0.0845,-0.7654,0.8076,630,14.2822,11.4136,2.7466,148,1.1996,1.2526,18.8076,-35.2528,27,0.08,8377,3.5959,52.8607
lg,1624619702575181195,0,-0.0901,-0.7671,0.8306,631,19.104,15.4419,-11.5967,148,1.2056,1.2456,18.4864,-35.0412,27,0.083,8699,3.5959,51.9841
lg,1624619702575199546,0,-0.0942,-0.7747,0.7874,632,20.5688,19.8364,-20.2026,148,1.2166,1.2346,18.0634,-35.1925,27,0.074,9148,3.5959,50.0542
lg,1624619702575217415,0,-0.1506,-0.8618,0.6843,633,22.3999,33.0811,-38.6353,148,1.2306,1.2196,18.1257,-35.7179,27,0.079,10630,3.5959,47.3127
lg,1624619702575234266,0,-0.2222,-0.8269,0.6157,634,23.1323,51.8188,-44.5557,148,1.2436,1.2066,18.6948,-36.3475,27,0.08,9143,3.5959,44.298
lg,1624619702575251968,0,-0.304,-0.6089,0.6167,635,20.2026,42.1143,-29.4189,148,1.2516,1.1966,19.3718,-36.5315,27,0.082,8433,3.5959,42.1335
lg,1624619702575269596,0,-0.2964,-0.5703,0.7134,636,5.6763,21.8506,6.1646,148,1.2546,1.1906,20.1576,-36.4956,27,0.088,8462,3.5959,41.7643
lg,1624619702575288299,0,-0.3667,-0.7236,0.8894,637,-13.3057,-6.7139,24.292,148,1.2496,1.1886,20.4224,-36.7746,27,0.086,8871,3.5959,42.7326
lg,1624619702575307057,0,-0.405,-0.6973,0.8213,638,-16.0522,-22.4609,38.0859,148,1.2346,1.1956,20.623,-36.8871,27,0.086,8597,3.5959,44.5639
lg,1624619702575324777,0,-0.4929,-0.718,0.7366,639,-24.9634,-38.4521,54.7485,148,1.2136,1.2136,20.9162,-37.1393,27,0.086,8520,3.5959,47.3282
lg,1624619702575342721,0,-0.5701,-0.6731,0.855,640,-38.3301,-68.5425,69.6411,148,1.1886,1.2276,20.6864,-37.2245,27,0.082,8509,3.5959,51.4655
lg,1624619702915972100,0,0.4297,-0.6392,1.1423,641,-66.7725,-162.8418,110.7788,148,1.1115,1.2386,16.7771,-37.0346,27,0.074,26829,3.5959,59.4495
lg,1624619702916013578,0,0.3274,-0.9683,0.314,642,-50.0488,-165.3442,63.9038,148,1.1045,1.2396,12.8954,-38.4565,27,0.076,9025,3.5959,64.66
lg,1624619702916034466,0,0.7026,-0.9858,0.7668,643,-32.4707,-101.3794,29.2358,148,1.1045,1.2396,8.9808,-39.5479,27,0.076,8673,3.5959,68.0935
lg,1624619702916054686,0,0.3726,-1.0413,0.697,644,3.3569,34.729,0.5493,148,1.1085,1.2426,9.0899,-40.1749,27,0.077,8271,3.5959,67.1119
lg,1624619702916096183,0,0.2312,-0.8054,0.3557,645,29.8462,74.9512,-10.9863,148,1.1125,1.2436,10.1984,-40.3394,27,0.08,8447,3.5959,64.6473
lg,1624619702916118182,0,0.1155,-0.7542,0.428,646,39.0625,113.8916,-14.2822,148,1.1165,1.2466,13.0695,-40.0799,27,0.083,8424,3.5959,61.0852
lg,1624619702916136995,0,-0.2368,-0.7227,0.5088,647,49.8657,157.5317,-28.5645,148,1.1225,1.2506,17.2207,-39.9952,27,0.088,8395,3.5959,55.8461
lg,1624619702916167993,0,-0.489,-0.6516,0.5566,648,52.4292,137.0239,-32.8369,148,1.1306,1.2526,21.052,-39.8087,27,0.088,8367,3.5959,50.9557
lg,1624619702916186140,0,-0.6877,-0.613,0.6528,649,48.2788,86.4258,-25.2075,148,1.1416,1.2556,23.7018,-39.214,27,0.084,8514,3.5959,47.6976
lg,1624619702916203787,0,-0.6814,-0.5803,0.6912,650,41.3818,45.2271,-14.1602,148,1.1516,1.2606,25.1501,-38.2986,27,0.087,8711,3.5959,45.9611
lg,1624619702916220767,0,-0.467,-0.5979,0.7112,651,26.7944,-34.1797,7.1411,148,1.1616,1.2646,24.3017,-36.7992,27,0.086,8504,3.5959,47.1067
lg,1624619702916239025,0,-0.1758,-0.6641,0.7388,652,18.1274,-67.2607,17.8833,148,1.1806,1.2696,22.0008,-35.3621,27,0.085,9164,3.5959,49.3684
lg,1624619702916256116,0,0.0706,-0.6521,0.8916,653,27.8931,-45.5933,-1.2207,148,1.1926,1.2666,19.4937,-33.9028,27,0.085,15396,3.5959,50.4123
lg,1624619702916273967,0,0.0564,-0.728,0.8494,654,28.3813,-19.9585,-32.959,148,1.2026,1.2526,17.2408,-33.2612,27,0.086,8255,3.5959,49.6254
lg,1624619702916291243,0,0.0483,-0.749,0.7864,655,28.3813,3.9673,-40.2832,148,1.2156,1.2286,15.7321,-32.972,27,0.081,8324,3.5959,48.0009
lg,1624619702916309797,0,0.0088,-0.7734,0.7444,656,30.0903,62.3779,-45.0439,148,1.2256,1.2036,16.2102,-33.1223,27,0.081,8328,3.5959,44.8677
lg,1624619702916327389,0,-0.0947,-0.7788,0.6887,657,30.0293,106.1401,-37.2925,148,1.2386,1.1786,18.5012,-33.6649,27,0.083,9456,3.5959,40.9366
lg,1624619702916345128,0,-0.1987,-0.6521,0.6113,658,26.9775,117.6147,-16.7847,148,1.2516,1.1606,21.7836,-34.2879,26,0.086,8481,3.5959,37.3677
lg,1624619702916362330,0,-0.1763,-0.5505,0.5913,659,25.5127,113.4033,0.8545,148,1.2566,1.1546,25.6139,-34.7344,26,0.09,9107,3.5959,34.8959
lg,1624619702916379311,0,-0.3528,-0.5698,0.6626,660,7.9346,116.1499,21.4844,148,1.2556,1.1566,29.7347,-35.6925,26,0.09,8970,3.5959,32.5503
lg,1624619702916396550,0,-0.624,-0.71,0.823,661,-14.0381,84.8389,38.9404,148,1.2486,1.1666,33.3721,-36.9102,27,0.087,8674,3.5959,31.5577
lg,1624619702916414104,0,-0.7024,-0.6387,0.8459,662,-20.2637,9.2773,58.2275,148,1.2296,1.1836,35.0565,-36.5929,27,0.088,9030,3.5959,33.5466
lg,1624619702916431492,0,-0.8643,-0.5967,0.7007,663,-40.7715,-58.2886,64.3921,148,1.1876,1.2096,35.0238,-35.9131,27,0.081,10737,3.5959,37.7051
lg,1624619702916448713,0,-0.9534,-0.5408,0.6938,664,-62.2559,-139.8926,97.3511,148,1.1546,1.2266,33.1745,-34.1053,27,0.079,8863,3.5959,45.4211
lg,1624619702916466878,0,-0.5972,-0.6562,0.7166,665,-86.4868,-237.6099,135.3149,148,1.1185,1.2376,28.1621,-32.1074,27,0.079,8917,3.5959,56.538
lg,1624619702916484636,0,0.29,-0.8799,0.9343,666,-85.6934,-292.2363,115.4785,148,1.0975,1.2396,19.2642,-31.5609,27,0.073,9289,3.5959,67.2867
lg,1624619702916502209,0,1.0339,-1.1421,0.8557,667,-86.2427,-294.5557,103.8208,148,1.0915,1.2436,10.5195,-33.0305,27,0.076,9178,3.5959,75.7398
lg,1624619702916593406,0,1.0378,-1.1509,0.6064,668,-49.6216,-169.8608,39.3677,148,1.0915,1.2476,7.6742,-34.6735,27,0.08,9664,3.5959,77.1353
lg,1624619702916653272,0,0.553,-1.0125,0.5664,669,3.1738,43.6401,6.2256,148,1.0925,1.2486,8.0241,-35.5588,27,0.083,8799,3.5959,76.2097
lg,1624619702916673400,0,0.1719,-0.7795,0.6011,670,29.2358,134.4604,-5.7983,148,1.0965,1.2506,11.5543,-35.6124,27,0.085,8747,3.5959,72.7439
lg,1624619702916691880,0,-0.0842,-0.783,0.571,671,33.4473,149.5972,-11.9019,148,1.1025,1.2536,15.8637,-35.9468,27,0.086,8717,3.5959,68.594
lg,1624619702916710138,0,-0.334,-0.7502,0.4741,672,41.748,148.6816,-20.0806,148,1.1115,1.2556,20.3855,-36.4648,27,0.086,9918,3.5959,63.9835
lg,1624619703265514954,0,-0.5627,-0.5823,0.679,673,30.5786,21.8506,-0.5493,148,1.1486,1.2636,21.5364,-35.5877,27,0.085,26728,3.5959,63.3677
lg,1624619703265549655,0,-0.429,-0.6204,0.7524,674,26.001,-6.7139,3.0518,148,1.1636,1.2676,20.4654,-34.5993,27,0.086,8916,3.5959,64.013
lg,1624619703265569802,0,-0.1758,-0.7214,0.8887,675,20.9961,-33.2642,-3.2349,148,1.1786,1.2656,18.8341,-33.7112,27,0.086,8676,3.5959,64.6283
lg,1624619703265589337,0,-0.0186,-0.7207,0.8379,676,24.8413,-27.5269,-20.813,148,1.1896,1.2606,16.7667,-33.0323,27,0.088,8320,3.5959,64.4397
lg,1624619703265608540,0,-0.0225,-0.7471,0.7598,677,27.3438,6.6528,-36.377,148,1.1996,1.2516,15.5994,-32.8014,27,0.081,8065,3.5959,62.8812
lg,1624619703265627131,0,-0.03,-0.7202,0.7258,678,30.3955,29.6021,-38.6963,148,1.2086,1.2356,15.2193,-32.6053,27,0.08,8608,3.5959,60.7339
lg,1624619703265645241,0,-0.1567,-0.7212,0.7637,679,31.0669,82.3975,-42.9688,148,1.2186,1.2186,16.7937,-32.7199,27,0.083,8165,3.5959,57.2613
lg,1624619703265662869,0,-0.4097,-0.6877,0.553,680,23.4375,92.1631,-34.729,148,1.2286,1.2046,19.452,-33.5042,27,0.087,8855,3.5959,53.7145
lg,1624619703265682516,0,-0.4502,-0.5938,0.6533,681,17.395,67.9932,-17.5781,148,1.2316,1.2006,21.4805,-33.8327,27,0.089,8357,3.5959,52.9385
lg,1624619703265700441,0,-0.5322,-0.5708,0.8447,682,-22.0947,-1.1597,51.1475,148,1.2226,1.2196,22.818,-34.0107,27,0.092,15919,3.5959,54.7981
lg,1624619703265718143,0,-0.5842,-0.5974,0.7996,683,-31.0669,-25.0244,64.6973,148,1.2006,1.2336,23.9901,-34.399,27,0.088,8848,3.5959,57.6167
lg,1624619703265736142,0,-0.8315,-0.5349,0.7646,684,-52.9785,-83.4961,89.5996,148,1.1606,1.2496,23.9543,-34.365,27,0.084,11889,3.5959,62.9167
lg,1624619703265753770,0,-0.7429,-0.6892,0.8369,685,-74.5239,-174.0723,118.6523,148,1.1296,1.2566,21.3167,-34.2379,27,0.082,8449,3.5959,71.3414
lg,1624619703265791490,0,-0.3179,-0.6814,1.0249,686,-79.9561,-218.811,132.2632,148,1.1075,1.2586,16.0678,-34.4143,27,0.073,8875,3.5959,81.0933
lg,1624619703265811063,0,0.416,-1.0278,0.8276,687,-77.2705,-253.1738,108.0933,148,1.0955,1.2606,9.1013,-36.0336,27,0.072,8521,3.5959,90.5064
lg,1624619703265829210,0,0.9084,-1.0491,0.6787,688,-49.8047,-143.9819,68.6646,148,1.0915,1.2606,4.5863,-37.9857,27,0.071,8908,3.5959,96.1224
lg,1624619703265847190,0,0.5298,-1.0068,0.6711,689,-7.4463,33.8745,22.7051,148,1.0905,1.2616,5.1405,-38.9394,27,0.072,8976,3.5959,95.9414
lg,1624619703265864448,0,0.1619,-0.8684,0.6333,690,20.0195,120.6665,1.2817,148,1.0945,1.2616,8.3709,-39.0706,27,0.074,8690,3.5959,92.8636
lg,1624619703265881595,0,-0.1787,-0.7939,0.4414,691,28.9917,139.3433,-5.9204,148,1.1035,1.2636,12.7256,-39.2568,27,0.073,8829,3.5959,88.3404
lg,1624619703265899538,0,-0.2773,-0.7439,0.4985,692,42.4805,154.9072,-25.8179,148,1.1165,1.2676,17.0286,-39.4626,27,0.077,8577,3.5959,83.3013
lg,1624619703265916685,0,-0.4412,-0.6985,0.6235,693,46.814,126.2817,-43.6401,148,1.1366,1.2726,20.1242,-39.4493,27,0.083,8862,3.5959,78.3952
lg,1624619703265934221,0,-0.5183,-0.7178,0.6113,694,46.5088,59.6924,-60.9741,148,1.1556,1.2786,20.7642,-39.2265,27,0.081,8954,3.5959,74.641
lg,1624619703265962682,0,-0.5449,-0.7073,0.6658,695,40.7715,13.1226,-62.439,148,1.1726,1.2786,19.9389,-38.7093,27,0.081,9007,3.5959,72.1272
lg,1624619703265981366,0,-0.5093,-0.6646,0.7153,696,40.6494,-11.9019,-57.1899,148,1.1886,1.2746,17.6356,-37.5115,27,0.08,8918,3.5959,71.4548
lg,1624619703265999439,0,-0.2964,-0.6221,0.582,697,34.3628,-62.8052,-45.5322,148,1.1986,1.2676,14.4762,-36.5355,27,0.083,9820,3.5959,71.3962
lg,1624619703266017012,0,-0.1133,-0.6033,0.5435,698,23.6816,-84.8999,-37.9639,148,1.2036,1.2646,10.6052,-35.8649,27,0.081,8409,3.5959,72.088
lg,1624619703266112838,0,-0.0461,-0.6636,0.6023,699,4.6997,-55.2979,-12.6953,148,1.2076,1.2666,8.2293,-35.9956,27,0.087,9170,3.5959,72.9044
lg,1624619703266134800,0,-0.1819,-0.6355,0.7139,700,3.1128,1.0376,28.9307,148,1.2126,1.2746,9.0421,-35.9468,27,0.088,8461,3.5959,73.7949
lg,1624619703266153169,0,-0.3071,-0.5833,0.876,701,1.0986,25.8179,44.6167,148,1.2006,1.2846,11.3323,-35.5321,27,0.095,8505,3.5959,74.6869
lg,1624619703266171019,0,-0.5261,-0.6196,0.9773,702,-10.7422,7.019,58.7769,148,1.1796,1.2906,13.4357,-35.4504,27,0.089,8906,3.5959,76.5026
lg,1624619703266188592,0,-0.4849,-0.4688,1.0142,703,-23.9258,-51.3916,59.1431,148,1.1616,1.2946,13.5349,-35.2518,27,0.089,10168,3.5959,79.8065
lg,1624619703266206869,0,-0.2678,-0.8538,0.8303,704,-37.8418,-115.7837,55.4199,148,1.1486,1.2976,11.0578,-36.1841,27,0.083,9175,3.5959,84.3222
lg,1624619703607241376,0,0.1855,-0.843,0.7417,705,-6.958,-9.5825,21.6675,148,1.1396,1.2946,10.4806,-36.7693,27,0.086,25178,3.5959,85.1721
lg,1624619703607278670,0,0.0671,-0.7876,0.6863,706,1.8921,18.0054,9.5825,148,1.1406,1.2946,10.9915,-37.1439,27,0.084,8918,3.5959,84.9636
lg,1624619703607299205,0,-0.1238,-0.7502,0.657,707,9.0942,36.6821,1.3428,148,1.1456,1.2966,12.0366,-37.4081,27,0.086,8855,3.5959,84.0103
lg,1624619703607318908,0,-0.1511,-0.769,0.6484,708,11.0474,25.1465,2.5024,148,1.1526,1.2966,12.7611,-37.571,27,0.088,8512,3.5959,83.3605
lg,1624619703607337795,0,-0.1555,-0.7927,0.6279,709,14.7095,19.4702,1.77,148,1.1586,1.2986,13.2707,-37.6308,27,0.088,8123,3.5959,82.8062
lg,1624619703607355461,0,-0.1521,-0.7988,0.5896,710,17.2119,15.3809,1.0986,148,1.1666,1.3006,13.6166,-37.622,27,0.089,8540,3.5959,82.3162
lg,1624619703607372274,0,-0.1108,-0.7334,0.533,711,29.0527,-0.5493,6.8359,148,1.1786,1.3036,13.3983,-36.7928,27,0.093,16635,3.5959,82.6535
lg,1624619703607389477,0,-0.0396,-0.6938,0.6111,712,33.3862,-2.9907,12.9395,148,1.1846,1.3046,13.1863,-35.8159,27,0.092,8032,3.5959,83.0403
lg,1624619703607407253,0,-0.0552,-0.6663,0.6453,713,37.4756,6.0425,14.0381,148,1.1906,1.3066,13.3264,-34.6464,27,0.094,8041,3.5959,83.2705
lg,1624619703607424308,0,-0.0706,-0.6301,0.6399,714,40.7715,11.7798,14.0991,148,1.1956,1.3066,13.8566,-33.2079,27,0.09,8084,3.5959,83.2062
lg,1624619703607462398,0,-0.063,-0.5996,0.7869,715,44.9219,23.8037,8.3008,148,1.2006,1.3066,14.431,-31.6343,27,0.096,8088,3.5959,82.9221
lg,1624619703607480360,0,-0.0793,-0.6472,0.7622,716,48.2178,31.9214,1.77,148,1.2016,1.3056,15.172,-30.2158,27,0.092,9153,3.5959,82.2115
lg,1624619703607497081,0,-0.1482,-0.6584,0.7729,717,50.415,43.2129,-2.8076,148,1.2016,1.3016,16.3487,-28.8804,27,0.088,8237,3.5959,81.1108
lg,1624619703607514154,0,-0.165,-0.6321,0.7737,718,51.2085,49.4995,-3.3569,148,1.2006,1.2966,17.7736,-27.4993,27,0.09,8796,3.5959,79.9064
lg,1624619703607530615,0,-0.2083,-0.6121,0.7839,719,49.1333,59.7534,-2.9297,148,1.1996,1.2916,19.6144,-26.362,27,0.095,8522,3.5959,78.5178
lg,1624619703607547836,0,-0.2537,-0.5769,0.7349,720,45.3491,60.2417,0.9155,148,1.1986,1.2866,21.6248,-25.4079,27,0.094,8699,3.5959,77.2642
lg,1624619703607564502,0,-0.3125,-0.5583,0.7236,721,39.6729,51.7578,8.9111,148,1.2026,1.2816,23.5477,-24.5418,27,0.095,8725,3.5959,76.4822
lg,1624619703607581167,0,-0.3105,-0.5701,0.7363,722,37.2925,46.7529,12.6953,148,1.2056,1.2776,25.1755,-23.7001,27,0.096,8914,3.5959,76.2218
lg,1624619703607597889,0,-0.3037,-0.5706,0.7339,723,31.7383,36.9263,22.8882,148,1.2086,1.2766,26.6308,-22.8907,27,0.098,8567,3.5959,76.2533
lg,1624619703607614332,0,-0.3113,-0.5706,0.7449,724,30.0903,29.9072,31.189,148,1.2096,1.2746,27.9065,-21.9354,27,0.099,8910,3.5959,76.76
lg,1624619703607630775,0,-0.3162,-0.582,0.7537,725,30.3345,20.6909,31.6162,148,1.2106,1.2736,28.7921,-20.913,27,0.099,8922,3.5959,77.4386
lg,1624619703607647441,0,-0.3206,-0.5825,0.7275,726,31.7383,3.3569,28.6865,148,1.2106,1.2746,28.9752,-19.8234,27,0.101,8904,3.5959,78.2494
lg,1624619703607664421,0,-0.3103,-0.5857,0.7134,727,32.4097,-8.0566,28.1372,148,1.2106,1.2736,28.2245,-18.6163,27,0.102,9196,3.5959,79.3586
lg,1624619703607681105,0,-0.2319,-0.6011,0.7122,728,35.1562,-40.2222,30.2734,148,1.2116,1.2736,26.5863,-17.2689,27,0.1031,12503,3.5959,80.7781
lg,1624619703607698863,0,-0.1685,-0.5969,0.6523,729,37.8418,-52.4902,31.6772,148,1.2106,1.2726,24.421,-15.9448,27,0.1051,10585,3.5959,82.3108
lg,1624619703607716047,0,-0.1082,-0.6033,0.6628,730,41.1377,-49.1333,35.1562,148,1.2086,1.2716,22.3156,-14.5842,27,0.1071,8760,3.5959,83.8931
lg,1624619703607818484,0,-0.1025,-0.6228,0.7109,731,42.7856,-44.3115,37.3535,148,1.2046,1.2706,20.7025,-13.138,27,0.1071,8958,3.5959,85.4933
lg,1624619703607864444,0,-0.1008,-0.5906,0.7192,732,47.1191,-28.6865,40.7104,148,1.1996,1.2696,19.4983,-11.5887,27,0.1061,9189,3.5959,87.0867
lg,1624619703607883424,0,-0.1655,-0.5962,0.8247,733,50.9033,-13.6719,41.1987,154,1.1906,1.2686,18.9496,-9.8706,27,0.1071,10333,3.597,88.5981
lg,1624619703607902571,0,-0.2051,-0.5757,0.8545,734,51.5747,-11.0474,40.1611,154,1.1826,1.2676,18.5262,-8.2113,27,0.1041,9373,3.597,90.0295
lg,1624619703607921144,0,-0.2151,-0.5491,0.8704,735,51.8188,-18.2495,37.5366,154,1.1766,1.2676,17.7934,-6.5775,27,0.1041,9050,3.597,91.388
lg,1624619703607939958,0,-0.1897,-0.54,0.8792,736,52.1851,-30.2734,34.3018,154,1.1696,1.2676,16.5041,-5.024,27,0.101,9141,3.597,92.638
lg,1624619703953897885,0,-0.2078,-0.5906,0.8403,737,65.3076,-23.8647,15.3809,154,1.1636,1.2616,15.4861,-3.3835,27,0.102,26061,3.597,93.0154
lg,1624619703953944549,0,-0.2385,-0.5347,0.8611,738,69.2139,-20.5078,13.6108,154,1.1626,1.2616,14.5631,-1.4255,27,0.101,8844,3.597,93.3749
lg,1624619703953965177,0,-0.2278,-0.4956,0.8281,739,70.1904,-22.644,18.9209,154,1.1626,1.2636,13.6892,0.4464,27,0.101,8506,3.597,93.8797
lg,1624619703953985009,0,-0.126,-0.5288,0.8955,740,71.4722,-10.2539,27.2827,154,1.1636,1.2646,13.0638,2.3589,27,0.101,15423,3.597,94.7024
lg,1624619703954004600,0,-0.0928,-0.5288,0.9663,741,71.6553,-0.1221,27.3438,154,1.1636,1.2656,12.745,4.2674,27,0.102,8002,3.597,95.5448
lg,1624619703954024154,0,-0.0876,-0.5115,0.9978,742,71.0449,1.0376,25.2686,154,1.1626,1.2646,12.4812,6.1008,27,0.102,8167,3.597,96.304
lg,1624619703954043042,0,-0.1311,-0.5,1,743,70.0073,-0.7935,20.874,154,1.1626,1.2656,12.198,7.8251,27,0.1031,7990,3.597,96.874
lg,1624619703954061540,0,-0.1389,-0.4819,1.0076,744,67.8101,-8.1177,15.8691,154,1.1636,1.2656,11.6607,9.3821,27,0.1031,8020,3.597,97.1934
lg,1624619703954079224,0,-0.1379,-0.4861,1.0093,745,66.6504,-13.3667,15.9302,154,1.1636,1.2646,10.791,10.7893,27,0.1041,8637,3.597,97.3994
lg,1624619703954098760,0,-0.1379,-0.4905,1.0161,746,65.3687,-17.2729,14.0991,154,1.1636,1.2656,9.937,12.1054,27,0.1051,8613,3.597,97.5623
lg,1624619703954152682,0,-0.1292,-0.4541,0.9927,747,65.979,-12.3901,15.3809,154,1.1636,1.2646,9.271,13.4505,27,0.1051,8650,3.597,97.8202
lg,1624619703954173903,0,-0.1572,-0.4202,0.9487,748,65.7349,7.4463,19.8364,154,1.1636,1.2646,9.4139,14.8281,27,0.1051,9092,3.597,98.4495
lg,1624619703954193180,0,-0.2466,-0.3286,0.9275,749,64.7583,28.3813,24.5972,154,1.1636,1.2656,10.4861,16.3676,27,0.1051,9207,3.597,99.5169
lg,1624619703954211752,0,-0.2983,-0.3333,0.9773,750,62.561,32.7759,26.7334,154,1.1626,1.2656,11.6335,17.824,27,0.1051,9138,3.597,100.772
lg,1624619703954230288,0,-0.3728,-0.3098,1.0791,751,55.9082,18.1885,31.0059,154,1.1616,1.2646,12.2677,19.1225,27,0.1041,8727,3.597,101.9637
lg,1624619703954248879,0,-0.3955,-0.3318,1.147,752,45.8374,-18.9209,32.5317,154,1.1596,1.2646,11.4452,19.8819,27,0.1051,8458,3.597,102.6864
lg,1624619703954267026,0,-0.2922,-0.3574,1.1863,753,38.0859,-52.6123,32.7759,154,1.1586,1.2656,9.1845,20.1513,27,0.1041,8934,3.597,102.9345
lg,1624619703954285821,0,-0.1641,-0.3467,1.1841,754,34.4849,-61.8286,32.5317,154,1.1586,1.2656,6.3009,20.1278,27,0.1051,8633,3.597,102.9972
lg,1624619703954303857,0,-0.0935,-0.3564,1.1812,755,30.2124,-62.561,30.1514,154,1.1576,1.2666,3.5169,19.9898,27,0.1041,8574,3.597,103.1181
lg,1624619703954321652,0,0.0044,-0.3801,1.1501,756,29.48,-36.0718,27.0386,154,1.1576,1.2666,2.4205,19.8146,27,0.1051,11197,3.597,103.7576
lg,1624619703954340225,0,0.0044,-0.3823,1.1199,757,31.7993,4.5166,22.3389,154,1.1586,1.2666,2.2043,19.6971,27,0.1041,9089,3.597,104.5998
lg,1624619703954359353,0,-0.0935,-0.3857,1.1045,758,34.1797,37.5366,18.6157,154,1.1596,1.2666,3.4741,19.6931,27,0.1051,9283,3.597,105.754
lg,1624619703954379037,0,-0.2053,-0.3713,1.1018,759,33.4473,48.645,13.6719,154,1.1606,1.2666,5.4012,19.725,27,0.1041,8404,3.597,106.8449
lg,1624619703954397980,0,-0.2351,-0.3762,1.0723,760,31.5552,42.2974,11.1084,154,1.1616,1.2656,7.1321,19.6799,27,0.1041,9508,3.597,107.7064
lg,1624619703954416405,0,-0.2751,-0.3433,0.9985,761,30.5176,37.3535,8.667,154,1.1626,1.2656,8.534,19.5799,27,0.1051,8787,3.597,108.2573
lg,1624619703954456180,0,-0.3018,-0.3328,1.0076,762,28.8086,22.3389,5.4321,154,1.1646,1.2656,9.6567,19.4482,27,0.1051,9042,3.597,108.5632
lg,1624619703954478827,0,-0.3066,-0.3083,0.9944,763,26.3672,1.5869,4.9438,154,1.1666,1.2646,9.9878,19.2113,27,0.1041,8927,3.597,108.5485
lg,1624619703954497103,0,-0.269,-0.2751,0.9683,764,24.1089,-21.1182,7.019,154,1.1676,1.2656,9.3641,18.8886,27,0.1041,8665,3.597,108.3115
lg,1624619703954515917,0,-0.1865,-0.29,0.9678,765,22.0947,-29.9683,12.0239,154,1.1666,1.2656,8.1874,18.4636,27,0.1031,9032,3.597,108.1657
lg,1624619703954533841,0,-0.1367,-0.2505,0.9683,766,22.4609,-24.353,12.8784,154,1.1676,1.2666,7.1378,18.1466,27,0.1041,8990,3.597,108.1713
lg,1624619703954552507,0,-0.1353,-0.2358,0.9666,767,22.644,-16.0522,13.4277,154,1.1676,1.2656,6.4275,17.8889,27,0.1031,8824,3.597,108.3343
lg,1624619703954570283,0,-0.1648,-0.2351,0.9929,768,23.2544,0.5493,14.5264,154,1.1666,1.2656,6.4142,17.7073,27,0.1041,9153,3.597,108.7648
lg,1624619704333467181,0,-0.2026,-0.2327,1.0183,769,21.4844,12.2681,16.4795,154,1.1666,1.2666,6.8944,17.5095,27,0.1041,26045,3.597,109.4174
lg,1624619704333550935,0,-0.2078,-0.2437,0.9592,770,20.752,6.6528,17.2729,154,1.1666,1.2666,7.1753,17.2474,27,0.1031,14162,3.597,110.018
lg,1624619704333582914,0,-0.2278,-0.2429,0.9749,771,21.0571,5.127,17.0898,154,1.1666,1.2666,7.4287,17.0179,27,0.1031,7855,3.597,110.5904
lg,1624619704333611838,0,-0.2234,-0.2449,0.9741,772,20.4468,0.6104,20.6909,154,1.1666,1.2666,7.4528,16.7793,27,0.1051,9997,3.597,111.244
lg,1624619704333702388,0,-0.1899,-0.2266,0.946,773,20.813,-5.4932,23.3154,154,1.1656,1.2666,7.1549,16.5823,27,0.1041,8204,3.597,111.9317
lg,1624619704333743607,0,-0.1504,-0.2256,0.9402,774,21.0571,-3.7231,27.0386,154,1.1656,1.2676,6.8081,16.4096,27,0.1031,8628,3.597,112.7906
lg,1624619704333771791,0,-0.1333,-0.2139,0.9172,775,21.9727,1.3428,27.771,154,1.1646,1.2676,6.9061,16.3619,27,0.1031,8617,3.597,113.8986
lg,1624619704333798419,0,-0.1399,-0.2251,0.9316,776,25.3296,19.043,28.0762,154,1.1636,1.2676,7.4073,16.4025,27,0.1031,8240,3.597,115.064
lg,1624619704333891431,0,-0.2488,-0.2463,0.9819,777,26.4282,32.7759,24.6582,154,1.1626,1.2666,8.6712,16.5098,27,0.1031,9274,3.597,116.2478
lg,1624619704333921596,0,-0.4744,-0.1831,1.1021,778,26.001,30.0903,14.8315,154,1.1606,1.2646,10.2413,16.7696,27,0.1051,8962,3.597,117.0338
lg,1624619704333949631,0,-0.6265,-0.1248,1.207,779,18.1885,-4.3945,12.9395,154,1.1586,1.2626,10.6149,16.783,27,0.1051,9234,3.597,117.3427
lg,1624619704333975629,0,-0.4929,-0.1333,1.2224,780,11.2915,-37.9028,15.7471,154,1.1556,1.2616,8.0455,16.0862,27,0.1051,9328,3.597,117.2236
lg,1624619704334002368,0,-0.3599,-0.1921,1.2073,781,-2.4414,-96.3135,25.7568,154,1.1536,1.2606,4.4278,15.0522,27,0.1061,8343,3.597,117.0428
lg,1624619704334028570,0,-0.114,-0.2688,1.2136,782,-7.4463,-106.6284,26.4282,154,1.1546,1.2606,0.101,13.7071,27,0.1051,8442,3.597,116.9216
lg,1624619704334055606,0,0.0139,-0.3108,1.1448,783,-6.4087,-83.252,18.7988,154,1.1546,1.2616,-3.3302,12.3537,27,0.1051,8515,3.597,116.8992
lg,1624619704334081863,0,0.0093,-0.2952,1.1404,784,-5.0049,-66.5894,13.7329,154,1.1546,1.2626,-5.9415,11.1025,27,0.1051,8405,3.597,116.9543
lg,1624619704334109213,0,-0.0215,-0.2869,1.0737,785,-1.8311,-38.5132,10.1318,154,1.1556,1.2626,-7.2679,10.0106,27,0.1051,8843,3.597,117.1728
lg,1624619704334136434,0,-0.0852,-0.2654,1.0552,786,-0.4883,-21.6064,8.1177,154,1.1566,1.2626,-7.7314,9.0332,27,0.1051,9685,3.597,117.4665
lg,1624619704334163617,0,-0.1091,-0.2419,1.0269,787,0.4272,-15.564,9.2163,154,1.1566,1.2636,-7.885,8.1474,27,0.1071,8589,3.597,117.8536
lg,1624619704334191134,0,-0.1189,-0.22,1.0039,788,0,-14.2212,10.0098,154,1.1576,1.2636,-7.9218,7.2985,27,0.1061,8234,3.597,118.3815
lg,1624619704334217540,0,-0.1121,-0.1938,1.0112,789,0.5493,-11.2915,15.0757,154,1.1576,1.2636,-7.9005,6.5344,27,0.1061,8325,3.597,119.0258
lg,1624619704334244390,0,-0.1077,-0.1794,1.0088,790,0.6104,-4.1504,15.7471,154,1.1586,1.2636,-7.5986,5.8238,27,0.1071,8684,3.597,119.7268
lg,1624619704334272425,0,-0.1292,-0.1775,1.04,791,0.6104,0.4272,16.2354,154,1.1586,1.2636,-7.0813,5.1565,27,0.1071,10326,3.597,120.458
lg,1624619704334426248,0,-0.1414,-0.2017,1.0435,792,-0.061,1.2817,17.8223,154,1.1586,1.2636,-6.5246,4.44,27,0.1071,8308,3.597,121.2523
lg,1624619704334469968,0,-0.1445,-0.197,1.0327,793,0.3052,1.77,15.4419,154,1.1586,1.2626,-5.9433,3.7893,27,0.1061,11337,3.597,121.9422
lg,1624619704334498207,0,-0.1809,-0.2031,1.0391,794,0.4272,-0.5493,16.4795,154,1.1586,1.2636,-5.3995,3.1645,27,0.1061,8602,3.597,122.6589
lg,1624619704334529964,0,-0.1777,-0.2273,1.0237,795,0.4272,-3.6621,12.8174,154,1.1596,1.2636,-4.989,2.528,27,0.1051,9470,3.597,123.2202
lg,1624619704334559777,0,-0.1934,-0.2275,0.9968,796,0.6104,-5.5542,13.1226,154,1.1586,1.2626,-4.631,1.9563,27,0.1061,8746,3.597,123.7832
lg,1624619704334588368,0,-0.1814,-0.2117,0.9941,797,0.9766,-11.0474,12.4512,154,1.1596,1.2626,-4.5126,1.4154,27,0.1061,9059,3.597,124.3109
lg,1624619704334621180,0,-0.1982,-0.2234,0.9934,798,1.2817,-13.7329,12.207,154,1.1606,1.2626,-4.4665,0.8854,27,0.1061,9302,3.597,124.8298
lg,1624619704334651771,0,-0.1868,-0.2231,0.9954,799,1.2207,-17.5171,11.5967,154,1.1596,1.2626,-4.5925,0.3747,27,0.1061,8823,3.597,125.3259
lg,1624619704334680343,0,-0.1819,-0.2307,1.019,800,0.9766,-21.8506,12.0239,154,1.1606,1.2636,-4.9012,-0.1355,27,0.1061,9645,3.597,125.8454
lg,1624619704821166543,0,-0.1775,-0.2273,1.0107,801,1.77,-29.8462,7.6904,154,1.1616,1.2636,-5.6474,-0.5829,27,0.1061,25124,3.597,126.1746
lg,1624619704821199855,0,-0.1499,-0.2368,1.0239,802,0.7935,-38.3911,6.5308,154,1.1636,1.2636,-6.6377,-1.0679,27,0.1071,13284,3.597,126.5057
lg,1624619704821219891,0,-0.1223,-0.2532,1.033,803,1.0376,-41.687,4.2114,154,1.1636,1.2636,-7.7816,-1.5517,27,0.1071,8034,3.597,126.7701
lg,1624619704821238908,0,-0.0906,-0.2385,1.04,804,0.7935,-43.0908,3.7231,154,1.1646,1.2636,-9.0246,-1.9832,27,0.1071,7909,3.597,127.072
lg,1624619704821256759,0,-0.0535,-0.2363,1.061,805,0.9155,-42.1753,0.7324,154,1.1656,1.2646,-10.2413,-2.3835,27,0.1061,7900,3.597,127.2322
lg,1624619704821274610,0,-0.0073,-0.2549,1.0774,806,1.1597,-38.4521,5.7983,154,1.1666,1.2646,-11.3481,-2.8316,27,0.1061,8645,3.597,127.6165
lg,1624619704821291905,0,0.0044,-0.249,1.0693,807,1.709,-24.292,1.0376,154,1.1666,1.2646,-11.8794,-3.1948,27,0.1051,8532,3.597,127.7918
lg,1624619704821309663,0,0.0103,-0.2231,1.0562,808,2.0752,-18.3105,6.3477,154,1.1686,1.2656,-12.113,-3.5624,27,0.1051,8885,3.597,128.1743
lg,1624619704821327588,0,-0.021,-0.2236,1.0391,809,1.709,-8.1787,7.6294,154,1.1706,1.2656,-11.9007,-3.9084,27,0.1041,8562,3.597,128.5793
lg,1624619704821345068,0,-0.0239,-0.2197,1.0498,810,0.8545,-1.4038,12.0239,154,1.1706,1.2656,-11.4061,-4.2916,27,0.1031,8634,3.597,129.1378
lg,1624619704821362345,0,-0.0574,-0.231,1.0366,811,0.9155,2.3804,17.5171,154,1.1706,1.2656,-10.69,-4.7205,27,0.1031,8524,3.597,129.906
lg,1624619704821379325,0,-0.0728,-0.2314,1.0098,812,1.3428,4.9438,17.2729,154,1.1716,1.2646,-9.8341,-5.0757,27,0.1041,8718,3.597,130.6405
lg,1624619704821396417,0,-0.0991,-0.2288,1.0322,813,1.4038,5.249,18.5547,154,1.1726,1.2646,-8.964,-5.433,27,0.1031,8312,3.597,131.4192
lg,1624619704821413545,0,-0.1216,-0.2053,1.0095,814,1.3428,2.5635,19.043,154,1.1746,1.2656,-8.1744,-5.7311,27,0.1031,9061,3.597,132.2119
lg,1624619704821430340,0,-0.1333,-0.2134,1.0027,815,0.3052,-1.1597,16.2354,154,1.1756,1.2656,-7.5443,-6.0555,27,0.1031,8457,3.597,132.9028
lg,1624619704821447413,0,-0.1448,-0.2136,1.0112,816,0.3052,-4.8828,16.1133,154,1.1766,1.2656,-7.123,-6.3949,27,0.1041,8515,3.597,133.5774
lg,1624619704821507521,0,-0.1477,-0.2104,1.0134,817,0.6104,-9.2163,14.8315,154,1.1786,1.2656,-6.9656,-6.6717,27,0.1051,8563,3.597,134.2378
lg,1624619704821526575,0,-0.1294,-0.209,1.0168,818,0.3052,-19.2871,11.5356,154,1.1786,1.2656,-7.1222,-6.9209,27,0.1041,8365,3.597,134.8145
lg,1624619704821544444,0,-0.1167,-0.2146,1.0103,819,0,-22.3389,12.0239,154,1.1796,1.2656,-7.4347,-7.222,27,0.1031,8224,3.597,135.4341
lg,1624619704821561962,0,-0.0989,-0.2256,1.0071,820,0.7324,-24.4141,11.5356,154,1.1796,1.2656,-7.8335,-7.4834,27,0.1031,8234,3.597,136.0492
lg,1624619704821579220,0,-0.1025,-0.2195,1.0203,821,0.9155,-26.001,11.3525,154,1.1796,1.2656,-8.2723,-7.713,27,0.1031,8670,3.597,136.6675
lg,1624619704821596700,0,-0.0862,-0.2256,1.0127,822,0.9766,-29.1748,12.7563,154,1.1806,1.2646,-8.8427,-7.965,27,0.102,9040,3.597,137.3671
lg,1624619704821613680,0,-0.0818,-0.2117,1.0127,823,1.1597,-29.4189,12.3901,154,1.1816,1.2646,-9.4742,-8.1835,27,0.102,8577,3.597,138.0361
lg,1624619704821631364,0,-0.0708,-0.2314,1.0278,824,1.77,-32.3486,13.0615,154,1.1816,1.2636,-10.1507,-8.4128,27,0.102,8985,3.597,138.7798
lg,1624619704821648993,0,-0.0686,-0.2249,1.0337,825,0.6714,-34.5459,14.1602,154,1.1816,1.2646,-10.8829,-8.6807,27,0.102,8805,3.597,139.5852
lg,1624619704821667103,0,-0.041,-0.2136,1.0737,826,0.4272,-34.9121,14.5874,154,1.1816,1.2656,-11.6548,-8.9224,27,0.1,8705,3.597,140.4103
lg,1624619704821685602,0,0.0139,-0.2261,1.062,827,-0.6714,-31.6162,16.6016,154,1.1836,1.2646,-12.3619,-9.2537,27,0.1,9310,3.597,141.3097
lg,1624619704821703693,0,0.051,-0.2241,1.0583,828,-1.8311,-28.5034,17.4561,154,1.1836,1.2646,-12.8175,-9.5981,27,0.101,8888,3.597,142.1655
lg,1624619704821722581,0,0.062,-0.2026,1.0598,829,-1.5869,-19.2261,16.7236,154,1.1836,1.2646,-13.0807,-9.8898,27,0.102,8852,3.597,142.9858
lg,1624619704821741117,0,0.0315,-0.2351,1.0518,830,-1.0986,-7.4463,16.3574,154,1.1846,1.2646,-12.8072,-10.2008,27,0.101,9193,3.597,143.724
lg,1624619704821758949,0,0.0085,-0.2397,1.0376,831,0.061,-0.9155,15.9302,154,1.1856,1.2646,-12.241,-10.45,27,0.101,8590,3.597,144.397
lg,1624619704821777207,0,-0.0283,-0.231,1.0225,832,0.1831,-0.061,16.8457,154,1.1856,1.2646,-11.5765,-10.6717,27,0.101,8888,3.597,145.0928
lg,1624619706469674352,0,-0.054,-0.2229,1.019,833,1.1597,-1.9531,16.2964,154,1.1856,1.2646,-10.9593,-10.8202,27,0.101,24537,3.597,145.7734
lg,1624619706469719220,0,-0.0569,-0.2361,1.0427,834,0.9766,-4.2725,16.4795,154,1.1866,1.2646,-10.4502,-10.9847,27,0.101,8954,3.597,146.479
lg,1624619706469740515,0,-0.0413,-0.2366,1.0383,835,0.9155,-6.0425,15.9912,154,1.1866,1.2646,-10.0638,-11.1416,27,0.1,8554,3.597,147.177
lg,1624619706469759847,0,-0.0242,-0.2302,1.0439,836,0.7935,-6.2866,17.0898,154,1.1866,1.2646,-9.6562,-11.2873,27,0.1,8737,3.597,147.9493
lg,1624619706469778494,0,-0.022,-0.2229,1.0518,837,0.9155,-2.1973,16.6016,154,1.1876,1.2646,-9.1829,-11.3859,27,0.1,8272,3.597,148.6309
lg,1624619706469797771,0,-0.0344,-0.2319,1.0425,838,1.0986,0.3662,17.6392,154,1.1886,1.2646,-8.5923,-11.493,27,0.1,8431,3.597,149.3347
lg,1624619706469817603,0,-0.0522,-0.2424,1.061,839,1.3428,2.1362,17.0288,154,1.1866,1.2636,-7.9243,-11.5858,27,0.1,8126,3.597,149.9995
lg,1624619706469836676,0,-0.0339,-0.2173,1.043,840,1.1597,1.6479,17.2729,154,1.1876,1.2646,-7.3209,-11.6423,27,0.1,8536,3.597,150.6708
lg,1624619706469854768,0,-0.053,-0.2388,1.0442,841,1.6479,1.709,17.6392,154,1.1876,1.2646,-6.7097,-11.7062,27,0.101,8393,3.597,151.3589
lg,1624619706469873007,0,-0.0518,-0.2268,1.0212,842,1.5259,0.1221,16.9678,154,1.1886,1.2636,-6.1893,-11.7497,27,0.101,8654,3.597,152.0301
lg,1624619706469890747,0,-0.061,-0.2122,1.0071,843,1.2207,-0.4883,15.9302,154,1.1886,1.2636,-5.6994,-11.7691,27,0.101,8181,3.597,152.6618
lg,1624619706469908987,0,-0.0522,-0.2192,0.9978,844,1.1597,-1.4648,17.5781,154,1.1896,1.2646,-5.2713,-11.8117,27,0.101,8670,3.597,153.3675
lg,1624619706469926597,0,-0.0874,-0.2124,1.0017,845,1.4038,-3.2959,16.6626,167,1.1906,1.2656,-4.8625,-11.8192,27,0.101,8639,3.5827,154.0501
lg,1624619706469943985,0,-0.0505,-0.2117,1.0156,846,1.0376,-12.0239,16.4185,167,1.1916,1.2646,-4.8938,-11.8361,27,0.1,20696,3.5827,154.7941
lg,1624619706469961836,0,-0.032,-0.2236,1.0388,847,0.9155,-13.7329,16.8457,167,1.1926,1.2656,-5.0578,-11.8867,27,0.101,8075,3.5827,155.5242
lg,1624619706469980723,0,-0.0166,-0.2312,1.0393,848,0.5493,-13.4277,15.8081,167,1.1926,1.2646,-5.2143,-11.9533,27,0.1,8457,3.5827,156.2592
lg,1624619706469998037,0,-0.0176,-0.2317,1.0466,849,0.9766,-11.5356,14.3433,167,1.1926,1.2656,-5.3005,-11.9926,27,0.1,8823,3.5827,156.9209
lg,1624619706470015073,0,-0.0183,-0.2283,1.0383,850,1.4648,-8.9722,14.2822,167,1.1936,1.2646,-5.2817,-12.0059,27,0.1,8857,3.5827,157.5585
lg,1624619706470032758,0,-0.0295,-0.2415,1.0408,851,1.2817,-8.1177,14.5264,167,1.1926,1.2646,-5.2045,-12.0519,27,0.1,9121,3.5827,158.201
lg,1624619706470050979,0,-0.0376,-0.2278,1.0559,852,1.3428,-7.0801,14.2822,167,1.1946,1.2646,-5.0755,-12.0556,27,0.1,9663,3.5827,158.8218
lg,1624619706470068867,0,-0.0369,-0.2288,1.0315,853,0.9155,-6.4697,15.2588,167,1.1936,1.2646,-4.9194,-12.0906,27,0.1,9659,3.5827,159.4768
lg,1624619706470087903,0,-0.0457,-0.2146,1.0286,854,1.0986,-6.7139,15.1978,167,1.1946,1.2646,-4.7669,-12.0878,27,0.1,9270,3.5827,160.1428
lg,1624619706470105735,0,-0.0515,-0.2385,1.0352,855,0.9766,-7.4463,14.9536,167,1.1946,1.2646,-4.6457,-12.0989,27,0.1,9821,3.5827,160.8382
lg,1624619706470123752,0,-0.05,-0.2153,1.0249,856,0.4883,-9.3384,15.5029,167,1.1946,1.2646,-4.5869,-12.1222,27,0.099,9347,3.5827,161.5244
lg,1624619706470141029,0,-0.052,-0.2471,1.04,857,0.8545,-11.5967,16.1743,167,1.1956,1.2646,-4.6102,-12.1929,27,0.099,9378,3.5827,162.2609
lg,1624619706470158861,0,-0.0205,-0.2168,1.0461,858,0.1221,-13.0615,15.5029,167,1.1966,1.2656,-4.8124,-12.2576,27,0.1,11242,3.5827,162.9811
