name,time,activity,ax,ay,az,batch_val,gx,gy,gz,ibat,index,middle,pitch,roll,temp,thumb,ts,vbat,yaw
lg,1624655946352280340,0,-0.4363,-0.3059,0.99,1,-4.2725,8.9722,17.395,69,1.4277,1.2386,22.1343,-12.0417,33,0.1721,20527,3.9611,-144.9703
lg,1624655946352327006,0,-0.4358,-0.3242,1.0046,2,-5.0659,5.6763,18.3105,69,1.4267,1.2386,22.5189,-12.1965,33,0.1721,8478,3.9611,-144.3341
lg,1624655946352348357,0,-0.4011,-0.3118,0.9983,3,-5.6763,4.8218,18.7378,69,1.4267,1.2366,22.8021,-12.3364,33,0.1721,7972,3.9611,-143.663
lg,1624655946352368468,0,-0.3828,-0.2979,1.0125,4,-6.5308,6.958,16.9678,69,1.4267,1.2386,23.1011,-12.5016,33,0.1721,7886,3.9611,-143.0708
lg,1624655946352387116,0,-0.3894,-0.323,1.0083,5,-7.7515,8.8501,16.3574,69,1.4267,1.2386,23.562,-12.7783,33,0.1721,7935,3.9611,-142.5974
lg,1624655946352405671,0,-0.3806,-0.3093,1.0254,6,-10.376,16.1743,14.3433,69,1.4257,1.2356,24.156,-13.1683,33,0.1721,8765,3.9611,-142.2093
lg,1624655946352424356,0,-0.4072,-0.3445,1.0312,7,-12.8784,23.9258,12.8174,69,1.4257,1.2396,25.0555,-13.7671,33,0.1731,9381,3.9611,-141.9938
lg,1624655946352442485,0,-0.4368,-0.3396,1.0378,8,-13.6108,25.0854,9.5825,69,1.4267,1.2396,25.9845,-14.4214,33,0.1721,10473,3.9611,-141.9269
lg,1624655946352460207,0,-0.4592,-0.3208,0.9956,9,-15.8691,21.9727,10.437,69,1.4267,1.2396,26.8409,-15.0991,33,0.1721,8851,3.9611,-141.7861
lg,1624655946352478022,0,-0.4592,-0.3635,1.0337,10,-18.3105,20.5688,10.437,69,1.4267,1.2396,27.5744,-15.9054,33,0.1731,8431,3.9611,-141.6586
lg,1624655946352496558,0,-0.4778,-0.334,1.0176,11,-19.4092,18.9819,11.6577,69,1.4277,1.2396,28.2196,-16.644,33,0.1731,8509,3.9611,-141.4345
lg,1624655946352514891,0,-0.4636,-0.3481,1.05,12,-20.9961,14.0991,12.5122,69,1.4317,1.2406,28.6789,-17.3755,33,0.1721,8539,3.9611,-141.1082
lg,1624655946352532706,0,-0.4561,-0.3562,1.0483,13,-23.8647,10.2539,12.6343,69,1.4297,1.2396,28.966,-18.1825,33,0.1731,8568,3.9611,-140.7259
lg,1624655946352549428,0,-0.4539,-0.3696,1.0693,14,-26.3062,6.2256,10.498,69,1.4287,1.2396,29.0469,-19.0847,33,0.1741,8140,3.9611,-140.3752
lg,1624655946352566946,0,-0.4353,-0.3704,1.0674,15,-28.0151,4.6387,9.5215,69,1.4307,1.2396,29.0263,-20.0313,33,0.1761,8904,3.9611,-140.0313
lg,1624655946352584779,0,-0.4353,-0.364,1.0811,16,-30.5176,-1.9531,6.5308,69,1.4287,1.2386,28.7174,-21.0298,33,0.1751,8952,3.9611,-139.6851
lg,1624655946352601797,0,-0.395,-0.3674,1.0566,17,-33.4473,-6.1035,4.3335,69,1.4307,1.2386,28.1837,-22.1398,33,0.1741,8596,3.9611,-139.354
lg,1624655946352619815,0,-0.3601,-0.4031,1.0369,18,-34.6069,0.6104,0,69,1.4297,1.2376,27.796,-23.4769,33,0.1741,8237,3.9611,-139.3383
lg,1624655946352637778,0,-0.3521,-0.4199,1.0166,19,-34.5459,7.8735,-0.9155,69,1.4327,1.2366,27.6647,-24.8858,33,0.1711,8175,3.9611,-139.4933
lg,1624655946352654981,0,-0.3662,-0.4429,1.0049,20,-34.8511,23.9258,-4.5166,69,1.4327,1.2366,28.0744,-26.5239,33,0.1681,8605,3.9611,-140.118
lg,1624655946352672203,0,-0.4258,-0.4385,0.9919,21,-35.9497,32.959,-6.7139,69,1.4327,1.2366,28.8477,-28.2933,33,0.1661,8319,3.9611,-141.021
lg,1624655946352689166,0,-0.4817,-0.4294,0.9751,22,-37.8418,34.5459,-8.8501,69,1.4337,1.2356,29.6271,-30.1906,33,0.1651,9017,3.9611,-142.0046
lg,1624655946352706480,0,-0.49,-0.4275,0.9688,23,-41.2598,29.9683,-9.1553,69,1.4337,1.2366,30.2694,-32.0987,33,0.1641,8316,3.9611,-142.9452
lg,1624655946352723646,0,-0.5195,-0.4438,0.9431,24,-43.2129,18.6768,-6.8359,69,1.4347,1.2356,30.5962,-33.9017,33,0.1641,8936,3.9611,-143.5336
lg,1624655946352740831,0,-0.551,-0.439,0.9146,25,-44.3726,5.0049,-8.0566,69,1.4367,1.2356,30.4992,-35.5509,33,0.1641,8798,3.9611,-143.7966
lg,1624655946352757813,0,-0.5286,-0.4695,0.9224,26,-46.3257,-12.3291,-9.1553,69,1.4347,1.2336,29.7578,-37.0397,33,0.1631,9152,3.9611,-143.613
lg,1624655946352776368,0,-0.5635,-0.8647,0.8618,27,-28.4424,-45.3491,51.2695,106,1.3927,1.2036,28.6972,-36.8292,33,0.1721,14633,3.9226,-139.3176
lg,1624655946352794219,0,-0.4302,-0.9119,0.7524,28,-38.269,-96.1304,73.9746,106,1.3927,1.2166,26.9663,-36.3,33,0.1681,9364,3.9226,-134.2368
lg,1624655946352823830,0,-0.3306,-0.7505,0.7334,29,-37.1704,-129.8828,73.3032,106,1.3857,1.2276,24.1363,-35.5685,33,0.1631,8441,3.9226,-128.3988
lg,1624655946352843200,0,-0.0134,-0.6748,1.1475,30,-48.645,-144.9585,65.918,106,1.3797,1.2336,20.0467,-35.0483,33,0.1661,8866,3.9226,-122.3704
lg,1624655946352860588,0,-0.1221,-0.7583,0.3398,31,-36.1328,-174.6216,5.3711,106,1.3727,1.2326,14.176,-36.3725,33,0.1641,9666,3.9226,-118.3261
lg,1624655946352878236,0,-0.0242,-0.9062,0.4614,32,-41.1377,-129.8218,11.8408,106,1.3767,1.2276,9.9059,-38.2893,33,0.1641,10518,3.9226,-114.9647
lg,1624655946727109102,0,-0.1924,-0.7056,0.7739,33,25.0244,-54.3823,33.6914,106,1.3797,1.2446,8.6279,-36.9427,33,0.1681,29484,3.9226,-112.5489
lg,1624655946727157323,0,0.29,-0.918,0.8127,34,-6.7139,-75.1343,14.8926,106,1.3847,1.2436,5.7211,-37.5373,33,0.1651,15413,3.9226,-110.325
lg,1624655946727179489,0,0.313,-1.0432,0.7676,35,5.249,-3.1128,-25.0244,106,1.3887,1.2326,4.2681,-37.9963,33,0.1631,7876,3.9226,-111.1007
lg,1624655946727199804,0,0.1348,-0.9312,0.4453,36,55.6641,53.3447,-53.4058,106,1.3917,1.2196,4.2098,-36.9953,33,0.1631,7926,3.9226,-114.1823
lg,1624655946727219526,0,0.0518,-0.7444,0.354,37,64.6973,71.167,-49.6216,106,1.3927,1.2176,5.0261,-35.7233,33,0.1651,7859,3.9226,-117.5611
lg,1624655946727238599,0,-0.3494,-0.6401,0.4697,38,16.7236,139.5874,5.3711,106,1.3957,1.2296,10.4687,-35.8251,33,0.1711,7907,3.9226,-120.7145
lg,1624655946727257914,0,-0.7256,-0.8977,0.8372,39,-33.1421,125.1221,85.2051,106,1.3917,1.2406,17.2711,-37.5955,33,0.1671,8144,3.9226,-121.0752
lg,1624655946727276543,0,-0.8091,-0.6465,0.7869,40,-13.916,27.8931,101.0132,106,1.3827,1.2476,21.4204,-37.3106,33,0.1641,7974,3.9226,-118.415
lg,1624655946727296191,0,-0.7578,-0.4814,0.8245,41,-13.1836,-26.7334,96.0693,106,1.3767,1.2486,23.5231,-36.0478,33,0.1661,7977,3.9226,-114.2924
lg,1624655946727315320,0,-0.5786,-0.5125,0.5381,42,-24.8413,-149.7803,46.936,106,1.3737,1.2426,20.3397,-35.2591,33,0.1651,8013,3.9226,-108.9704
lg,1624655946727333709,0,-0.2598,-0.9185,0.6357,43,-57.7393,-220.3979,43.9453,106,1.3707,1.2396,14.0148,-36.3146,33,0.1621,8868,3.9226,-102.3589
lg,1624655946727351819,0,-0.0979,-0.9536,0.5376,44,-43.8843,-217.5293,23.5596,106,1.3667,1.2406,8.5265,-37.7587,33,0.1611,8429,3.9226,-97.7535
lg,1624655946727370301,0,0.1987,-0.709,0.6499,45,-1.0986,-103.3325,28.2593,106,1.3657,1.2446,5.1874,-37.7581,33,0.1621,8440,3.9226,-94.3579
lg,1624655946727388300,0,0.2515,-0.7476,0.7124,46,-8.7891,-23.7427,13.0615,106,1.3667,1.2496,4.0318,-38.3512,33,0.1651,8047,3.9226,-93.3842
lg,1624655946727407318,0,0.2305,-0.9106,0.8523,47,-4.3335,12.6343,2.9297,106,1.3707,1.2536,3.9904,-39.0281,33,0.1661,8422,3.9226,-93.6429
lg,1624655946727427374,0,0.1277,-0.9934,0.6519,48,9.0332,74.4019,-25.0244,106,1.3767,1.2556,5.2558,-39.562,33,0.1661,9754,3.9226,-96.3606
lg,1624655946727445966,0,-0.0835,-0.978,0.5942,49,27.0996,142.7612,-57.0679,106,1.3837,1.2486,8.1352,-39.8543,33,0.1631,9863,3.9226,-101.8711
lg,1624655946727463502,0,-0.1365,-0.8145,0.6855,50,55.1758,164.978,-75.7446,106,1.3857,1.2266,11.2437,-39.1608,33,0.1601,9113,3.9226,-108.5544
lg,1624655946727480984,0,-0.3264,-0.7261,0.3088,51,52.2461,133.2397,-91.4917,106,1.3857,1.1976,13.5155,-39.432,33,0.1591,8210,3.9226,-115.102
lg,1624655946727498409,0,-0.3164,-0.5161,0.2495,52,39.4897,85.2051,-34.3018,106,1.3877,1.1836,15.8994,-39.5556,33,0.1551,9049,3.9226,-118.6408
lg,1624655946727515779,0,-0.3184,-0.5144,0.3687,53,19.7144,110.2905,7.9956,106,1.3897,1.1886,19.8645,-40.0931,33,0.1651,8977,3.9226,-121.4956
lg,1624655946727533557,0,-0.5256,-0.9658,0.8284,54,-34.8511,108.6426,61.8286,151,1.3947,1.1986,24.8426,-42.2508,33,0.1661,8229,3.8929,-122.712
lg,1624655946727551297,0,-0.6748,-0.9336,0.5923,55,-22.8271,31.7993,85.5713,151,1.3937,1.2116,28.3643,-42.8922,33,0.1681,8255,3.8929,-121.1037
lg,1624655946727568889,0,-0.6035,-0.5176,0.5564,56,-15.2588,-63.7817,102.6001,151,1.3907,1.2246,29.6024,-40.8459,33,0.1681,9097,3.8929,-115.6496
lg,1624655946727586630,0,-0.5732,-0.4563,0.6543,57,-24.4751,-82.9468,112.3047,151,1.3797,1.2326,30.1596,-38.3776,33,0.1641,8368,3.8929,-109.095
lg,1624655946727604352,0,-0.2097,-0.5994,1.2139,58,-58.2275,-163.3301,109.9243,151,1.3757,1.2376,26.839,-36.1139,33,0.1691,8767,3.8929,-100.3569
lg,1624655946727623333,0,-0.166,-0.9397,0.46,59,-54.5044,-223.0835,52.5513,151,1.3727,1.2356,20.3466,-36.3751,33,0.1681,8421,3.8929,-93.2686
lg,1624655946727642110,0,0.2402,-1.0063,0.6172,60,-64.6362,-199.3408,60.5469,151,1.3717,1.2366,14.4497,-36.5964,33,0.1701,8393,3.8929,-87.8349
lg,1624655946727660091,0,0.248,-0.9343,0.5732,61,-12.5732,-120.5444,8.5449,151,1.3697,1.2416,9.8537,-37.0014,33,0.1701,9198,3.8929,-84.7421
lg,1624655946727678072,0,0.2156,-0.8467,0.6453,62,14.2822,-6.7139,3.6621,151,1.3717,1.2476,8.9156,-36.9876,33,0.1721,9195,3.8929,-84.5651
lg,1624655946727696794,0,-0.0115,-0.8816,0.6294,63,19.4092,73.3643,-19.8975,151,1.3727,1.2526,10.4482,-37.3077,33,0.1711,8812,3.8929,-87.1165
lg,1624655946727714812,0,-0.2314,-0.8914,0.6477,64,31.25,120.1172,-30.3955,151,1.3797,1.2546,13.5756,-37.5316,33,0.1721,8534,3.8929,-91.2104
lg,1624655947112818939,0,-0.4421,-0.6702,0.4197,65,27.832,36.0718,-43.0298,151,1.3937,1.2506,13.8803,-37.6528,34,0.1771,29820,3.8929,-92.4703
lg,1624655947112856420,0,-0.3711,-0.7749,0.6384,66,-26.6113,-15.686,30.8838,151,1.3947,1.2576,14.4156,-38.852,33,0.1821,11448,3.8929,-91.1882
lg,1624655947112876938,0,-0.417,-0.8875,0.7593,67,-38.8184,-1.4038,69.458,151,1.3937,1.2656,16.3496,-40.1989,33,0.1791,8003,3.8929,-89.0348
lg,1624655947112896567,0,-0.5823,-0.8684,0.6704,68,-33.3252,-34.2407,90.1489,151,1.3897,1.2696,18.1182,-40.8326,33,0.1741,7988,3.8929,-85.361
lg,1624655947112915530,0,-0.3132,-0.7007,1.1062,69,-16.2354,-61.3403,88.9282,151,1.3877,1.2686,18.3717,-39.7084,33,0.1711,7967,3.8929,-80.7262
lg,1624655947112933992,0,-0.387,-0.7329,0.7351,70,-27.4658,-115.4175,42.6025,151,1.3857,1.2666,16.007,-39.6768,33,0.1661,8068,3.8929,-76.3239
lg,1624655947112952899,0,0.0315,-0.8215,0.613,71,-29.48,-195.6787,39.856,151,1.3847,1.2656,10.3728,-39.9311,33,0.1651,9590,3.8929,-70.0708
lg,1624655947112971732,0,0.0652,-0.9497,0.5239,72,-31.4331,-113.6475,6.4087,151,1.3847,1.2676,6.5954,-41.5283,33,0.1671,8550,3.8929,-67.0133
lg,1624655947112989510,0,0.165,-0.9268,0.5356,73,-12.3291,-79.3457,12.146,151,1.3847,1.2666,3.985,-42.4936,33,0.1671,8568,3.8929,-64.5918
lg,1624655947113008176,0,0.2366,-0.8191,0.5911,74,12.146,-1.1597,4.4556,151,1.3887,1.2646,3.4036,-42.4379,33,0.1611,8560,3.8929,-64.4615
lg,1624655947113025861,0,0.0759,-0.8564,0.6743,75,18.5547,74.2798,-8.1787,151,1.3907,1.2536,5.0769,-42.223,33,0.1571,8572,3.8929,-66.7371
lg,1624655947113043157,0,-0.0972,-0.9067,0.7139,76,31.0059,128.1738,-14.6484,151,1.3937,1.2376,8.4632,-41.8135,33,0.1591,8631,3.8929,-70.669
lg,1624655947113060471,0,-0.1108,-0.8137,0.7505,77,41.626,127.3804,-23.0713,151,1.3947,1.2176,11.5412,-41.08,33,0.1611,8615,3.8929,-74.8324
lg,1624655947113077916,0,-0.2739,-0.6426,0.4148,78,41.9312,99.8535,-38.0859,151,1.3997,1.2166,13.8781,-40.8542,33,0.1641,8699,3.8929,-78.8179
lg,1624655947113094971,0,-0.6082,-0.8081,0.6484,79,-22.583,102.478,22.583,151,1.3987,1.2256,18.1645,-42.7071,33,0.1671,8683,3.8929,-81.0624
lg,1624655947113111730,0,-0.7764,-0.8159,0.6365,80,-27.832,60.791,84.5947,151,1.3937,1.2416,22.9669,-43.8243,33,0.1621,8705,3.8929,-80.3236
lg,1624655947113128692,0,-0.7417,-0.6326,0.7087,81,-21.3623,19.104,90.21,151,1.3877,1.2516,26.0805,-42.7908,33,0.1681,8748,3.8929,-77.6566
lg,1624655947113145673,0,-0.6121,-0.3904,0.5679,82,-8.3008,-81.4819,48.5229,151,1.3807,1.2516,25.5747,-41.0786,33,0.1691,8737,3.8929,-73.4908
lg,1624655947113162840,0,-0.4146,-0.8933,0.8547,83,-60.5469,-180.0537,56.8848,151,1.3777,1.2446,19.9241,-40.8433,33,0.1721,11877,3.8929,-66.4244
lg,1624655947113181043,0,-0.1265,-0.9587,0.6082,84,-45.9595,-193.1763,21.4233,151,1.3727,1.2466,14.2065,-41.5833,33,0.1731,8799,3.8929,-60.6515
lg,1624655947113198802,0,0.259,-0.8374,0.6611,85,-22.7051,-155.8228,8.0566,151,1.3757,1.2496,8.7463,-41.9798,33,0.1721,8827,3.8929,-56.2594
lg,1624655947113216357,0,0.5273,-0.9365,0.6787,86,-16.1743,-65.1245,3.1738,151,1.3747,1.2546,5.6809,-42.816,33,0.1721,8833,3.8929,-54.45
lg,1624655947113235135,0,0.3562,-1.0417,0.6553,87,7.4463,72.6318,-24.9023,151,1.3787,1.2596,6.274,-43.3611,33,0.1711,8957,3.8929,-57.2335
lg,1624655947113254023,0,0.0518,-0.9553,0.6079,88,28.6865,178.5889,-50.5371,151,1.3877,1.2636,9.6891,-43.664,33,0.1671,13681,3.8929,-63.7406
lg,1624655947113271116,0,-0.2056,-0.8616,0.5513,89,49.1333,214.1113,-82.2144,151,1.3907,1.2586,13.6349,-43.9525,33,0.1671,8628,3.8929,-72.297
lg,1624655947113289523,0,-0.3628,-0.8982,0.4746,90,48.7671,193.3594,-91.98,151,1.3897,1.2436,16.8133,-44.8795,33,0.1601,8914,3.8929,-80.7858
lg,1624655947113306763,0,-0.4468,-0.7998,0.2229,91,54.0161,116.9434,-71.9604,151,1.3897,1.2316,18.5712,-45.4539,33,0.1571,8950,3.8929,-86.6986
lg,1624655947113323800,0,-0.3606,-0.5105,0.2241,92,43.396,75.2563,-14.2822,151,1.3907,1.2256,20.8611,-45.3454,34,0.1571,9701,3.8929,-89.6322
lg,1624655947113340744,0,-0.4661,-0.7161,0.5322,93,-17.334,82.5195,60.73,151,1.3927,1.2296,25.1476,-46.6234,34,0.1641,10740,3.8929,-90.497
lg,1624655947113358040,0,-0.7773,-1.0256,0.6067,94,-37.6587,79.2236,87.5244,151,1.3957,1.2406,30.046,-47.799,34,0.1621,9005,3.8929,-88.9774
lg,1624655947113375299,0,-0.8516,-0.9009,0.5713,95,-31.4331,-13.7329,122.1313,151,1.3917,1.2506,33.8171,-46.7138,34,0.1611,9188,3.8929,-84.5905
lg,1624655947113392539,0,-0.8271,-0.4412,0.6592,96,-18.7378,-108.5815,143.9209,151,1.3787,1.2576,35.2523,-42.0749,33,0.1611,9128,3.8929,-75.6355
lg,1624655947490934768,0,0.4631,-1.1504,0.4597,97,-84.3506,-323.1812,55.1758,151,1.3707,1.2556,25.852,-40.9961,33,0.1681,28964,3.8929,-67.5631
lg,1624655947490971785,0,0.4944,-0.8855,0.6292,98,-0.1831,-83.1909,-14.3433,151,1.3707,1.2636,23.9916,-40.725,33,0.1691,14833,3.8929,-68.4661
lg,1624655947490992433,0,0.3298,-0.7949,0.6382,99,33.1421,93.75,-28.8086,151,1.3727,1.2676,26.4967,-42.6542,33,0.1701,9508,3.8929,-75.0321
lg,1624655947491012118,0,-0.175,-0.8181,0.6296,100,33.9355,208.5571,-55.0537,151,1.3757,1.2706,30.2544,-45.717,33,0.1701,8394,3.8929,-83.6118
lg,1624655947491031562,0,-0.5356,-0.8486,0.6614,101,41.687,237.1216,-60.1807,151,1.3817,1.2716,34.6534,-49.8169,33,0.1701,8485,3.8929,-93.9792
lg,1624655947491051025,0,-0.708,-0.6973,0.5261,102,50.6592,143.6768,-62.1338,151,1.3877,1.2696,36.4686,-52.2165,33,0.1711,8525,3.8929,-101.4692
lg,1624655947491069691,0,-0.6436,-0.5886,0.5642,103,33.9355,43.7012,-49.4385,151,1.3897,1.2626,36.0336,-52.5213,33,0.1691,8728,3.8929,-104.5385
lg,1624655947491087802,0,-0.6067,-0.6279,0.5474,104,19.165,-2.5024,-36.8652,151,1.3917,1.2556,34.5387,-52.2492,33,0.1671,8579,3.8929,-105.4883
lg,1624655947491105912,0,-0.4082,-0.7537,0.5024,105,0.6104,-70.4346,-2.1973,151,1.3907,1.2536,32.3273,-50.9641,33,0.1721,8543,3.8929,-102.996
lg,1624655947491125079,0,-0.2993,-0.9719,0.6914,106,-37.1094,-93.4448,38.147,151,1.3947,1.2596,30.4374,-50.2389,33,0.1771,8517,3.8929,-98.5575
lg,1624655947491145319,0,-0.2549,-0.9126,0.6255,107,-33.8745,-89.3555,92.6514,151,1.3957,1.2676,30.2679,-48.8142,33,0.1771,8574,3.8929,-92.7439
lg,1624655947491165893,0,-0.2786,-0.6863,0.5745,108,-29.6631,-101.2573,92.8955,151,1.3907,1.2766,29.2504,-46.7156,34,0.1751,8661,3.8929,-86.4067
lg,1624655947491185522,0,-0.0078,-0.5955,1.0417,109,-33.9355,-133.9111,88.0127,151,1.3867,1.2786,26.9524,-43.9594,34,0.1781,8562,3.8929,-78.9356
lg,1624655947491204892,0,0.0332,-0.9343,0.5396,110,-52.6123,-176.8799,53.4058,151,1.3847,1.2786,22.3112,-43.7835,34,0.1791,8171,3.8929,-72.1602
lg,1624655947491272669,0,0.2373,-1.073,0.8164,111,-58.6548,-174.8657,55.481,151,1.3837,1.2776,17.4766,-44.5267,33,0.1791,8926,3.8929,-65.5669
lg,1624655947491296872,0,0.3672,-1.0208,0.5161,112,-13.4277,-87.8296,15.0757,151,1.3827,1.2796,14.1393,-44.945,33,0.1781,8918,3.8929,-62.7604
lg,1624655947491316871,0,0.3586,-0.9011,0.6301,113,16.2964,9.6436,4.2725,151,1.3847,1.2816,13.3277,-44.7127,33,0.1771,8714,3.8929,-63.0156
lg,1624655947491335464,0,0.2693,-0.8943,0.6814,114,27.4048,75.8667,-23.0103,151,1.3887,1.2806,13.8063,-44.5986,33,0.1731,8735,3.8929,-65.9613
lg,1624655947491354019,0,0.042,-0.968,0.6626,115,27.4048,112.2437,-39.5508,151,1.3937,1.2686,15.8338,-45.2342,33,0.1751,8954,3.8929,-72.0072
lg,1624655947491371889,0,-0.0588,-0.9753,0.675,116,49.0723,171.875,-63.4155,151,1.3957,1.2396,18.3128,-45.7357,33,0.1741,8242,3.8929,-79.1059
lg,1624655947491390074,0,-0.2454,-0.6978,0.3962,117,82.5195,149.1699,-81.9092,151,1.3967,1.2056,20.7157,-45.2023,33,0.1721,11299,3.8929,-86.1865
lg,1624655947491407981,0,-0.5266,-0.449,0.3984,118,51.8188,147.583,-44.9219,151,1.3957,1.1936,24.3505,-45.4958,33,0.1701,8299,3.8929,-92.1375
lg,1624655947491425814,0,-0.6401,-0.6409,0.6973,119,-3.54,120.6665,40.5884,151,1.3977,1.1976,29.2169,-46.7087,33,0.1771,8710,3.8929,-94.7401
lg,1624655947491443832,0,-0.8101,-1.0698,0.948,120,-44.0674,51.8799,96.9849,151,1.3997,1.2066,33.4619,-47.8484,33,0.1751,8906,3.8929,-93.486
lg,1624655947491461091,0,-0.7705,-0.918,0.7356,121,-32.1655,-5.6763,116.5161,151,1.3987,1.2246,36.7419,-46.5435,33,0.1731,8458,3.8929,-89.2862
lg,1624655947491478628,0,-0.5647,-0.4407,0.7317,122,-8.5449,-101.1353,109.9243,151,1.3927,1.2366,36.81,-41.7654,33,0.1711,9151,3.8929,-81.4373
lg,1624655947491496387,0,-0.3452,-0.4822,1.0483,123,-49.9878,-163.3911,88.562,151,1.3927,1.2456,33.3639,-38.1205,33,0.1711,9168,3.8929,-72.532
lg,1624655947491611125,0,-0.1211,-0.99,0.7271,124,-79.7729,-241.2109,66.9556,151,1.3877,1.2476,26.4175,-37.3841,33,0.1711,9270,3.8929,-63.6746
lg,1624655947491635551,0,0.3828,-1.0017,0.5002,125,-42.6025,-208.252,44.9829,151,1.3857,1.2486,19.4103,-37.3541,33,0.1731,8442,3.8929,-57.0964
lg,1624655947491712605,0,0.4858,-0.9409,0.6255,126,-13.9771,-41.687,11.3525,151,1.3857,1.2526,16.8697,-38.1582,33,0.1741,9242,3.8929,-55.8708
lg,1624655947491737993,0,0.3726,-0.8884,0.6396,127,1.6479,25.2075,4.5166,151,1.3857,1.2566,16.6382,-38.9489,33,0.1741,8893,3.8929,-56.5841
lg,1624655947491768030,0,0.0815,-0.9038,0.5911,128,11.5967,115.4175,-21.5454,151,1.3867,1.2586,18.8361,-40.3598,33,0.1741,8535,3.8929,-60.5798
lg,1624655947873066964,0,-0.3269,-0.7607,0.4326,129,45.8984,124.3286,-60.9131,151,1.3997,1.2466,21.0926,-41.146,33,0.1731,26224,3.8929,-66.25
lg,1624655947873153648,0,-0.4412,-0.7236,0.3547,130,28.0762,68.3594,-33.8135,151,1.3997,1.2346,22.5786,-41.9813,33,0.1711,15438,3.8929,-69.598
lg,1624655947873177258,0,-0.4736,-0.8376,0.5876,131,15.7471,57.6782,2.8076,151,1.4017,1.2366,24.8332,-42.8608,33,0.1791,7974,3.8929,-69.5538
lg,1624655947873201980,0,-0.5088,-0.9797,0.8032,132,-30.9448,21.5454,69.2749,151,1.4037,1.2426,27.2373,-43.7035,33,0.1781,7990,3.8929,-68.1019
lg,1624655947873224480,0,-0.4856,-0.7148,0.5408,133,-21.2402,-38.9404,98.938,151,1.3997,1.2526,28.8716,-42.7918,33,0.1741,8016,3.8929,-63.7894
lg,1624655947873245591,0,-0.418,-0.4924,0.6804,134,-19.3481,-89.5996,97.4731,151,1.3917,1.2606,28.694,-40.3599,33,0.1711,8801,3.8929,-57.6063
lg,1624655947873266572,0,-0.1553,-0.5139,1.2114,135,-30.0903,-112.915,85.5103,151,1.3877,1.2626,26.9637,-39.1235,33,0.1701,8681,3.8929,-51.6003
lg,1624655947873288145,0,-0.2073,-1.0325,0.812,136,-62.8662,-179.8706,46.3257,151,1.3867,1.2546,21.9223,-39.4383,33,0.1701,9096,3.8929,-45.2604
lg,1624655947873308645,0,0.241,-0.9958,0.6414,137,-26.9165,-182.4951,23.7427,151,1.3827,1.2566,15.7084,-39.3898,33,0.1701,8362,3.8929,-39.8568
lg,1624655947873328052,0,0.1519,-0.9016,0.4829,138,-5.3101,-46.4478,6.4697,151,1.3797,1.2576,13.5646,-40.1126,33,0.1711,8359,3.8929,-38.656
lg,1624655947873365736,0,0.0664,-0.8479,0.5159,139,10.5591,9.2163,11.4136,151,1.3797,1.2616,13.5759,-40.2756,33,0.1741,8789,3.8929,-38.6882
lg,1624655947873385310,0,-0.0503,-0.7432,0.5518,140,21.1792,59.5093,5.6763,151,1.3807,1.2616,15.1263,-40.3028,33,0.1751,8786,3.8929,-40.2273
lg,1624655947873403532,0,-0.1177,-0.8242,0.6409,141,21.4844,83.1299,6.2866,151,1.3837,1.2656,17.4724,-40.4924,33,0.1761,8402,3.8929,-42.4038
lg,1624655947873421754,0,-0.2661,-0.8879,0.6504,142,22.3999,95.9473,-6.6528,151,1.3867,1.2646,20.0473,-41.0449,33,0.1741,8047,3.8929,-45.4286
lg,1624655947873440513,0,-0.3083,-0.8652,0.6355,143,25.0854,89.8438,-10.437,151,1.3887,1.2586,22.3079,-41.5887,33,0.1751,8461,3.8929,-48.4893
lg,1624655947873460586,0,-0.2532,-0.748,0.6992,144,29.2969,54.0161,-17.0898,151,1.3917,1.2556,23.1292,-41.4472,33,0.1731,9115,3.8929,-50.683
lg,1624655947873478753,0,-0.1343,-0.7932,0.6836,145,24.1699,26.123,-24.9634,151,1.3957,1.2446,22.6319,-41.4131,33,0.1721,8506,3.8929,-52.3759
lg,1624655947873497938,0,-0.1079,-0.9055,0.5984,146,18.1274,17.5781,-33.8135,151,1.3957,1.2326,21.6176,-41.9177,33,0.1671,8941,3.8929,-54.2125
lg,1624655947873517085,0,-0.0479,-0.9014,0.5698,147,22.0337,18.0664,-28.2593,151,1.3947,1.2226,21.2493,-41.9747,33,0.1671,8926,3.8929,-55.8409
lg,1624655947873534529,0,-0.0024,-0.8042,0.4956,148,28.2593,51.8799,-3.9673,151,1.3947,1.2156,21.8859,-42.1229,33,0.1691,8588,3.8929,-57.7153
lg,1624655947873553085,0,-0.1467,-0.8062,0.6731,149,3.54,93.1396,29.6631,151,1.3987,1.2206,24.8688,-43.0238,33,0.1751,8926,3.8929,-59.6401
lg,1624655947873578047,0,-0.3567,-0.7466,0.6431,150,1.5869,95.8252,63.6597,151,1.4007,1.2286,29.1832,-43.6056,33,0.1741,8224,3.8929,-60.6303
lg,1624655947873636657,0,-0.5408,-0.646,0.6401,151,0.9155,81.7871,68.2373,151,1.4007,1.2386,33.0632,-43.7624,33,0.1741,8984,3.8929,-60.6989
lg,1624655947873658620,0,-0.6218,-0.6567,0.7061,152,-9.6436,47.7295,76.9653,151,1.3967,1.2456,36.4092,-43.4664,33,0.1701,9122,3.8929,-59.5747
lg,1624655947873678916,0,-0.3384,-0.7639,0.9746,153,-32.2876,-63.2324,92.4683,151,1.3937,1.2546,35.7921,-40.9023,33,0.1741,15958,3.8929,-53.7357
lg,1624655947873698619,0,-0.2336,-0.7617,0.3569,154,-14.1602,-90.8203,33.2031,151,1.3937,1.2556,33.2336,-40.2176,33,0.1751,9046,3.8929,-50.2705
lg,1624655947873718304,0,-0.2502,-0.9978,0.7881,155,-17.334,-36.1328,20.0195,151,1.3927,1.2586,31.8207,-40.4357,33,0.1741,9020,3.8929,-48.7171
lg,1624655947873753729,0,-0.3745,-0.7874,0.5752,156,2.0142,-12.6343,-12.6953,151,1.3947,1.2616,30.7054,-40.953,33,0.1721,9025,3.8929,-49.0788
lg,1624655947873772877,0,-0.4031,-0.7178,0.5996,157,10.498,-8.667,-5.7983,151,1.3967,1.2646,30.0078,-40.8781,33,0.1731,9871,3.8929,-49.2108
lg,1624655947873791284,0,-0.2959,-0.7371,0.6414,158,9.9487,-40.7715,-5.0049,151,1.3987,1.2656,28.1357,-40.3156,33,0.1761,9660,3.8929,-48.3403
lg,1624655947873810209,0,-0.2336,-0.6638,0.3718,159,-0.5493,-111.2671,-12.3901,151,1.3997,1.2676,24.0599,-39.9493,33,0.1781,9065,3.8929,-45.9555
lg,1624655947873829672,0,-0.2578,-0.7271,0.4507,160,-24.353,-109.314,-0.9766,151,1.3967,1.2726,22.1212,-41.1426,33,0.1751,9061,3.8929,-43.1332
lg,1624655948255088203,0,-0.5457,-0.8838,0.97,161,-31.6772,-47.7905,20.9351,151,1.3897,1.2586,21.2626,-41.6888,33,0.1681,26149,3.8929,-41.1072
lg,1624655948255123092,0,-0.4497,-0.748,0.4189,162,-40.1611,-147.583,-3.0518,90,1.3877,1.2566,17.1187,-42.6266,33,0.1701,13820,3.9424,-37.2515
lg,1624655948255144314,0,-0.0876,-0.8625,0.6145,163,-21.9116,-142.0288,32.1045,90,1.3867,1.2596,13.3578,-42.6673,33,0.1701,10835,3.9424,-32.421
lg,1624655948255163906,0,0.4246,-0.8796,0.7795,164,-22.4609,-140.564,27.0386,90,1.3877,1.2656,8.7478,-42.8711,33,0.1711,8470,3.9424,-27.769
lg,1624655948255183072,0,0.6084,-1.002,0.7585,165,-20.2637,-102.9053,21.7285,90,1.3887,1.2696,4.9803,-43.8028,33,0.1721,8439,3.9424,-24.359
lg,1624655948255202442,0,0.623,-1.1292,0.592,166,-2.2583,28.8086,-10.498,90,1.3927,1.2716,4.3467,-44.6248,33,0.1721,8487,3.9424,-25.519
lg,1624655948255221405,0,0.2454,-1.0994,0.562,167,25.0244,169.3726,-47.8516,90,1.3967,1.2656,7.1784,-44.9377,33,0.1701,9656,3.9424,-31.7343
lg,1624655948255239867,0,0.0222,-0.937,0.7102,168,50.1099,225.2197,-80.6274,90,1.3957,1.2536,10.9416,-44.6283,33,0.1691,10283,3.9424,-40.5069
lg,1624655948255258200,0,-0.2688,-0.7253,0.1604,169,73.4253,184.8755,-103.8818,90,1.3977,1.2366,13.6708,-44.655,33,0.1621,10580,3.9424,-49.0645
lg,1624655948255276070,0,-0.3372,-0.4929,0.2471,170,54.9316,144.8364,-51.2085,90,1.3957,1.2266,17.0419,-44.6124,33,0.1611,8660,3.9424,-54.947
lg,1624655948255293607,0,-0.5007,-0.6047,0.481,171,12.9395,165.8325,32.3486,90,1.3967,1.2246,23.2215,-45.7235,33,0.1661,8587,3.9424,-59.0691
lg,1624655948255311088,0,-0.6208,-0.8364,0.7019,172,-14.3433,137.8174,54.0771,90,1.4007,1.2286,28.7271,-47.557,33,0.1681,8674,3.9424,-61.9053
lg,1624655948255426216,0,-0.7322,-0.856,0.6118,173,-26.062,-45.7764,111.2061,90,1.3987,1.2426,30.9724,-46.3249,33,0.1611,13291,3.9424,-56.9806
lg,1624655948255447456,0,-0.5796,-0.4937,0.6853,174,-27.0996,-120.8496,107.9712,90,1.3907,1.2536,30.7383,-43.1171,33,0.1641,8672,3.9424,-49.2213
lg,1624655948255472456,0,-0.2974,-0.4414,0.4106,175,-31.311,-152.4658,89.3555,90,1.3867,1.2586,25.2521,-40.6069,33,0.1651,8704,3.9424,-41.5533
lg,1624655948255492474,0,-0.3123,-0.907,0.7949,176,-75.5005,-228.6987,29.7852,90,1.3837,1.2586,18.7448,-41.1611,33,0.1661,8674,3.9424,-34.2665
lg,1624655948255547547,0,0.1858,-1.0513,0.614,177,-43.1519,-249.5117,22.2168,90,1.3817,1.2596,10.89,-41.6877,33,0.1681,9617,3.9424,-26.9909
lg,1624655948255568343,0,0.1724,-0.9875,0.5203,178,-20.5688,-93.2007,-19.7754,90,1.3777,1.2656,6.8748,-42.9842,33,0.1671,10730,3.9424,-25.1786
lg,1624655948255585972,0,0.0789,-0.802,0.4163,179,17.0288,18.4326,-4.6997,90,1.3767,1.2666,6.8295,-43.1367,33,0.1691,8966,3.9424,-25.9164
lg,1624655948255606805,0,-0.1655,-0.739,0.5447,180,18.4326,100.8301,-1.4038,90,1.3777,1.2706,9.8521,-43.2123,33,0.1711,8782,3.9424,-28.8002
lg,1624655948255625379,0,-0.2864,-0.7581,0.6719,181,17.9443,97.4121,5.8594,90,1.3787,1.2726,13.0694,-43.1959,33,0.1711,8763,3.9424,-31.3865
lg,1624655948255645008,0,-0.3049,-0.781,0.6685,182,13.0615,70.7397,1.3428,90,1.3817,1.2736,15.2507,-43.4547,33,0.1721,8775,3.9424,-33.4219
lg,1624655948255665415,0,-0.2686,-0.835,0.6267,183,8.5449,32.0435,-6.7749,90,1.3847,1.2716,15.9578,-43.7884,33,0.1731,8831,3.9424,-34.6445
lg,1624655948255706859,0,-0.1692,-0.8606,0.6262,184,6.1035,0.4272,-7.4463,90,1.3877,1.2696,15.4956,-44.0096,33,0.1731,8870,3.9424,-34.9906
lg,1624655948255729136,0,0.001,-0.8472,0.6409,185,18.9209,-7.0801,-12.0239,90,1.3937,1.2666,14.3552,-43.6482,33,0.1711,8845,3.9424,-35.2437
lg,1624655948255749080,0,-0.0044,-0.9189,0.6055,186,16.4185,7.0801,-21.1792,90,1.3977,1.2606,13.4311,-43.7084,33,0.1721,8931,3.9424,-36.2052
lg,1624655948255768728,0,-0.0769,-0.8879,0.4524,187,22.522,23.4375,-7.8125,90,1.3977,1.2576,13.5593,-43.7784,33,0.1731,9571,3.9424,-37.2835
lg,1624655948255786302,0,-0.1106,-0.823,0.4255,188,16.0522,25.9399,6.2866,90,1.3997,1.2626,14.8507,-44.298,33,0.1831,9054,3.9424,-37.5273
lg,1624655948255804486,0,-0.2412,-0.8594,0.7307,189,-17.9443,36.8042,44.6167,90,1.3987,1.2696,17.0328,-45.1508,33,0.1831,8986,3.9424,-37.3439
lg,1624655948255822893,0,-0.3716,-0.8069,0.5964,190,-24.4141,19.104,81.1157,90,1.3947,1.2786,20.0079,-45.8614,33,0.1781,9022,3.9424,-35.6224
lg,1624655948255841597,0,-0.3965,-0.6482,0.6804,191,-12.085,-5.9204,77.2705,90,1.3887,1.2826,22.1578,-45.3433,33,0.1781,9041,3.9424,-33.0934
lg,1624655948255859578,0,-0.2051,-0.584,0.8533,192,-5.7373,-55.7251,59.7534,90,1.3857,1.2826,21.8326,-43.7845,33,0.1751,9067,3.9424,-29.3982
lg,1624655948644833923,0,-0.1467,-0.8635,0.55,193,-10.2539,-79.7729,13.6719,90,1.3827,1.2836,20.5855,-44.08,33,0.1741,26511,3.9424,-28.261
lg,1624655948644873366,0,-0.073,-0.7544,0.627,194,11.1084,2.1973,24.5361,90,1.3827,1.2876,20.6906,-43.6438,33,0.1721,9323,3.9424,-27.6642
lg,1624655948644894255,0,0.0168,-0.9187,0.7312,195,11.7188,35.5835,8.9722,90,1.3867,1.2896,21.1316,-43.7742,33,0.1701,10804,3.9424,-28.5582
lg,1624655948644914829,0,0.0151,-0.9634,0.709,196,14.8926,51.6968,-2.5024,90,1.3907,1.2896,21.7034,-44.1791,33,0.1731,8712,3.9424,-30.3293
lg,1624655948644934180,0,-0.0461,-0.8625,0.6448,197,37.0483,74.4629,-25.8789,90,1.3957,1.2866,22.3613,-44.2175,33,0.1751,8587,3.9424,-33.5154
lg,1624655948644953031,0,-0.2036,-0.6814,0.3672,198,43.5181,75.5005,-49.1333,90,1.3987,1.2836,22.861,-44.6506,33,0.1751,8515,3.9424,-37.5978
lg,1624655948644971383,0,-0.6562,-0.8237,0.5168,199,21.1182,83.8013,-42.1753,90,1.3997,1.2896,25.632,-46.7511,33,0.1811,8494,3.9424,-40.787
lg,1624655948644989605,0,-0.7402,-0.7693,0.5474,200,-29.1748,70.1904,46.0205,90,1.3957,1.2956,29.0466,-47.3934,33,0.1791,8852,3.9424,-39.5613
lg,1624655948645007660,0,-0.6931,-0.6113,0.8103,201,-16.1133,-7.1411,75.4395,90,1.3917,1.2966,31.2657,-46.3092,33,0.1761,8585,3.9424,-36.7379
lg,1624655948645025086,0,-0.7344,-0.5049,0.5586,202,-1.6479,-91.6748,26.4893,90,1.3857,1.2916,29.9602,-44.2319,33,0.1771,8622,3.9424,-32.7444
lg,1624655948645045678,0,-0.2925,-0.8694,0.6035,203,-54.1992,-232.7271,31.9824,90,1.3837,1.2846,23.6112,-43.1423,33,0.1751,9518,3.9424,-24.742
lg,1624655948645064455,0,-0.0168,-1.0342,0.5254,204,-51.4526,-205.3833,10.376,90,1.3807,1.2806,17.1445,-43.7932,33,0.1741,10726,3.9424,-18.7167
lg,1624655948645082196,0,0.249,-0.9055,0.4624,205,-7.5684,-101.0132,34.1797,90,1.3787,1.2796,14.0543,-43.7758,33,0.1741,8728,3.9424,-15.0094
lg,1624655948645099751,0,0.3516,-0.7737,0.6726,206,1.5259,-46.6919,31.7383,90,1.3777,1.2806,13.4419,-43.5685,33,0.1751,8429,3.9424,-14.0152
lg,1624655948645116899,0,0.3623,-0.8333,0.6658,207,0.5493,23.4985,26.5503,90,1.3787,1.2826,13.6424,-43.8089,33,0.1791,8687,3.9424,-13.9649
lg,1624655948645134528,0,0.2454,-0.9993,0.6687,208,8.0566,76.7212,3.8452,90,1.3817,1.2906,14.9822,-44.487,33,0.1771,8671,3.9424,-16.174
lg,1624655948645151213,0,0.072,-0.9731,0.5984,209,25.1465,136.1084,-21.6675,90,1.3847,1.2926,17.4917,-45.3398,33,0.1771,8747,3.9424,-20.9645
lg,1624655948645168120,0,-0.0464,-0.8901,0.5962,210,38.8184,176.8799,-48.645,90,1.3897,1.2936,20.4083,-46.4433,33,0.1741,8766,3.9424,-27.8992
lg,1624655948645185768,0,-0.1243,-0.8381,0.6128,211,45.4712,186.0962,-64.0259,90,1.3937,1.2856,23.1703,-47.86,33,0.1711,8788,3.9424,-35.771
lg,1624655948645203379,0,-0.2285,-0.7856,0.4558,212,58.8379,178.4668,-83.1299,90,1.3907,1.2656,25.0193,-49.3862,33,0.1661,8810,3.9424,-44.2355
lg,1624655948645220434,0,-0.4016,-0.8118,0.3813,213,49.9878,157.1655,-83.8623,90,1.3917,1.2426,26.4052,-51.3584,33,0.1601,8863,3.9424,-52.2399
lg,1624655948645238211,0,-0.4375,-0.6418,0.3938,214,40.6494,139.1602,-25.7568,90,1.3927,1.2226,29.1404,-52.6461,33,0.1591,8844,3.9424,-58.0421
lg,1624655948645255989,0,-0.6243,-0.6453,0.4958,215,4.2725,114.2578,33.5083,90,1.3937,1.2126,33.2353,-54.1995,33,0.1661,8892,3.9424,-61.4085
lg,1624655948645274025,0,-0.8149,-0.9338,0.8674,216,-30.4565,58.3496,76.7822,90,1.3977,1.2136,37.046,-55.2022,33,0.1711,13642,3.9424,-61.4156
lg,1624655948645291210,0,-0.9146,-0.7837,0.5664,217,-31.1279,-78.4302,93.3228,90,1.3977,1.2286,38.4709,-52.7082,33,0.1681,8924,3.9424,-55.3848
lg,1624655948645308729,0,-0.7983,-0.5044,0.5046,218,-43.5791,-185.9131,118.1641,90,1.3917,1.2426,37.7276,-47.294,33,0.1731,8960,3.9424,-44.0787
lg,1624655948645326969,0,-0.6162,-0.696,0.5742,219,-75.0122,-268.5547,134.5825,90,1.3777,1.2496,33.8009,-42.196,33,0.1681,9011,3.9424,-30.1371
lg,1624655948645344654,0,0.1963,-0.7344,0.6689,220,-87.2803,-333.8013,122.6196,90,1.3727,1.2486,22.0944,-38.5051,33,0.1701,9001,3.9424,-16.5717
lg,1624655948645363135,0,0.4363,-1.0547,0.6409,221,-73.1201,-356.0791,48.584,90,1.3687,1.2486,12.2817,-39.7661,33,0.1701,9279,3.9424,-7.5448
lg,1624655948645380820,0,0.5894,-1.1599,0.3291,222,-21.6675,-96.0083,-28.7476,90,1.3657,1.2536,7.2944,-41.49,33,0.1721,9043,3.9424,-6.1179
lg,1624655948645414967,0,0.3789,-1.0662,0.3596,223,2.2583,17.6392,-39.5508,90,1.3647,1.2586,8.1098,-41.7799,33,0.1741,9064,3.9424,-9.4128
lg,1624655948645434356,0,0.1321,-0.7537,0.3894,224,46.5088,127.3804,-22.3389,90,1.3637,1.2656,10.6643,-41.3963,33,0.1761,9086,3.9424,-13.6406
lg,1624655949013777034,0,-0.623,-0.7244,0.5527,225,38.8794,137.207,-6.4087,90,1.3707,1.2676,15.5127,-41.0975,33,0.1801,27813,3.9424,-17.6221
lg,1624655949013895568,0,-0.5652,-0.5522,0.6614,226,26.7334,39.7339,10.8643,90,1.3727,1.2686,17.6825,-40.1873,33,0.1791,8625,3.9424,-18.3405
lg,1624655949013917994,0,-0.3865,-0.6777,0.7532,227,2.0752,-27.4658,39.5508,90,1.3767,1.2686,17.9798,-39.5461,33,0.1821,11081,3.9424,-16.3423
lg,1624655949013938419,0,-0.1108,-0.8748,0.7988,228,-9.2773,-70.5566,45.0439,90,1.3817,1.2686,15.9653,-39.4318,33,0.1841,10287,3.9424,-13.2774
lg,1624655949013959975,0,0.1267,-0.9248,0.7627,229,-8.4839,-62.1338,32.4707,90,1.3847,1.2666,14.0407,-39.5161,33,0.1821,8459,3.9424,-10.7241
lg,1624655949013980271,0,0.2568,-0.9563,0.8464,230,-0.9155,-7.2632,17.8223,90,1.3887,1.2646,13.3029,-39.7215,33,0.1821,8487,3.9424,-10.0541
lg,1624655949013999566,0,0.2056,-0.9248,0.6897,231,8.9722,42.1143,-9.7046,90,1.3907,1.2616,13.4474,-40.2209,33,0.1821,8460,3.9424,-11.5956
lg,1624655949014020103,0,0.1807,-0.9004,0.6387,232,14.2822,68.6646,-15.5029,90,1.3927,1.2606,14.3506,-40.8696,33,0.1791,8497,3.9424,-14.0763
lg,1624655949014039084,0,0.0588,-0.9087,0.5398,233,24.231,138.0005,-24.6582,90,1.3937,1.2606,17.4884,-42.1587,33,0.1811,8731,3.9424,-18.9016
lg,1624655949014056362,0,-0.2927,-0.896,0.3186,234,25.0854,162.5977,-33.8745,90,1.3947,1.2646,21.3304,-44.1556,33,0.1881,8868,3.9424,-24.9985
lg,1624655949014099509,0,-0.6541,-0.8513,0.4993,235,-7.019,160.2173,0.7324,90,1.3977,1.2686,26.2989,-46.9951,33,0.1871,8793,3.9424,-30.1984
lg,1624655949014119583,0,-1.1682,-0.7021,0.7119,236,-19.104,106.9946,37.7197,90,1.3917,1.2756,30.5376,-47.7182,33,0.1781,13253,3.9424,-30.742
lg,1624655949014138268,0,-1.1877,-0.6123,0.8474,237,-6.897,-1.0376,68.0542,90,1.3877,1.2766,33.2108,-46.4382,33,0.1761,8394,3.9424,-28.3247
lg,1624655949014155878,0,-0.6484,-0.2764,0.5984,238,-10.437,-235.5957,29.541,90,1.3867,1.2746,27.8047,-41.7704,33,0.1741,9933,3.9424,-19.3057
lg,1624655949014175674,0,-0.2803,-0.8542,0.7456,239,-92.1631,-330.5054,19.5923,90,1.3847,1.2686,18.0101,-41.7749,33,0.1741,8119,3.9424,-9.2803
lg,1624655949014195341,0,0.1382,-1.0256,0.2,240,-61.9507,-301.2695,11.9019,90,1.3827,1.2636,8.6935,-43.6066,33,0.1721,8186,3.9424,-0.971
lg,1624655949014213951,0,0.1956,-1.061,0.301,241,-50.4761,-218.4448,11.1084,90,1.3797,1.2626,2.1026,-45.8523,33,0.1731,8966,3.9424,5.3995
lg,1624655949014232081,0,0.3147,-1.0007,0.6094,242,17.9443,-44.9829,48.3398,90,1.3807,1.2656,1.5677,-45.5211,33,0.1741,8900,3.9424,8.0173
lg,1624655949014249340,0,0.3049,-0.6997,0.5432,243,25.0854,26.062,36.9873,90,1.3767,1.2706,2.549,-44.7484,33,0.1761,8292,3.9424,8.304
lg,1624655949014266580,0,0.2061,-0.8542,0.6716,244,17.0288,90.21,31.9214,90,1.3777,1.2766,5.4769,-44.4482,33,0.1771,8642,3.9424,6.6535
lg,1624655949014283876,0,0.1094,-0.9573,0.666,245,17.5781,111.2061,21.6675,90,1.3797,1.2796,8.8148,-44.4736,33,0.1781,8291,3.9424,4.0884
lg,1624655949014301524,0,-0.0286,-0.9937,0.6484,246,34.1797,141.7236,-7.019,90,1.3837,1.2846,12.3547,-44.3746,33,0.1751,8296,3.9424,-0.234
lg,1624655949014319375,0,-0.0981,-0.8601,0.6448,247,49.1943,160.2173,-40.1001,90,1.3877,1.2806,15.5183,-44.153,33,0.1741,8347,3.9424,-6.1041
lg,1624655949014339468,0,-0.1292,-0.7717,0.5957,248,54.5654,151.9775,-53.772,90,1.3917,1.2706,17.8466,-43.8967,33,0.1711,8376,3.9424,-12.2827
lg,1624655949014357560,0,-0.208,-0.7837,0.5171,249,58.8379,148.3154,-65.1245,90,1.3887,1.2506,20.0799,-44.1155,33,0.1671,8423,3.9424,-18.7787
lg,1624655949014375578,0,-0.418,-0.8318,0.4895,250,49.8047,142.0898,-68.5425,90,1.3897,1.2276,22.3328,-45.0206,33,0.1631,8457,3.9424,-25.3564
lg,1624655949014394041,0,-0.4949,-0.614,0.5293,251,37.5366,106.3843,-20.752,90,1.3887,1.2066,25.0809,-45.2513,33,0.1631,8469,3.9424,-29.3521
lg,1624655949014412466,0,-0.572,-0.5759,0.5686,252,19.104,92.2852,7.8735,90,1.3897,1.1926,28.2692,-45.6952,33,0.1701,8485,3.9424,-32.0571
lg,1624655949014430744,0,-0.8389,-0.833,0.8157,253,-29.3579,32.2876,60.6689,90,1.3957,1.1856,31.1905,-46.4199,33,0.1751,8468,3.9424,-31.1906
lg,1624655949014449725,0,-0.9253,-0.9033,0.7737,254,-43.8843,-69.0918,108.7646,90,1.3957,1.1936,32.6479,-45.136,33,0.1741,8598,3.9424,-25.33
lg,1624655949014466873,0,-0.7825,-0.5432,0.5374,255,-43.396,-209.0454,114.0137,90,1.3927,1.2146,30.2228,-41.3141,33,0.1711,8561,3.9424,-14.6982
lg,1624655949014485132,0,-0.4924,-0.6082,0.6196,256,-51.4526,-246.0327,121.6431,90,1.3827,1.2296,24.8863,-38.435,33,0.1661,8606,3.9424,-2.2666
lg,1624655949381693063,0,0.6716,-1.2468,0.7078,257,-84.9609,-316.8945,38.8794,90,1.3727,1.2376,14.3992,-39.3588,33,0.1681,26638,3.9424,7.0963
lg,1624655949381733747,0,0.5391,-1.1309,0.3413,258,-14.9536,-79.1626,-10.1929,90,1.3707,1.2436,10.6342,-40.5627,33,0.1681,9306,3.9424,8.6204
lg,1624655949381755210,0,0.0432,-0.7314,0.4592,259,42.7246,123.9014,-8.2397,90,1.3697,1.2496,13.6594,-40.2856,33,0.1691,12444,3.9424,4.9412
lg,1624655949381775746,0,-0.0857,-0.7429,0.592,260,40.1611,136.9019,-6.7749,90,1.3727,1.2546,17.3124,-40.1658,33,0.1711,9686,3.9424,0.9433
lg,1624655949381795931,0,-0.1399,-0.8181,0.5532,261,33.1421,129.4556,-9.0942,90,1.3757,1.2586,20.6494,-40.7306,33,0.1691,7976,3.9424,-3.0992
lg,1624655949381815727,0,-0.2356,-0.8806,0.5452,262,36.377,111.5723,-22.3999,90,1.3797,1.2606,23.1248,-41.4385,33,0.1691,7940,3.9424,-7.2451
lg,1624655949381837430,0,-0.1694,-0.7776,0.7444,263,56.4575,87.8296,-20.6909,90,1.3847,1.2596,24.6564,-40.6837,33,0.1721,8784,3.9424,-10.5402
lg,1624655949381856708,0,-0.0767,-0.6328,0.6458,264,57.0679,74.9512,-31.189,90,1.3897,1.2536,25.3506,-39.9123,33,0.1701,9898,3.9424,-13.806
lg,1624655949381874763,0,-0.1938,-0.813,0.5742,265,35.5225,80.4443,-34.3628,90,1.3927,1.2496,26.3658,-40.6372,33,0.1701,8430,3.9424,-17.5556
lg,1624655949381892837,0,-0.3176,-0.8284,0.4583,266,31.8604,82.7637,-29.7852,90,1.3937,1.2536,28.3978,-42.2832,33,0.1761,8808,3.9424,-20.7241
lg,1624655949381910633,0,-0.5774,-0.8477,0.7031,267,-20.5688,72.2656,19.4092,90,1.3957,1.2626,30.9902,-44.2237,33,0.1831,8107,3.9424,-22.5118
lg,1624655949381927984,0,-0.8318,-0.7642,0.6504,268,-23.1934,43.0908,76.5381,90,1.3927,1.2696,34.6872,-44.6996,33,0.1831,8161,3.9424,-21.4543
lg,1624655949381946076,0,-0.8567,-0.6418,0.6833,269,-15.7471,-3.6011,84.4727,90,1.3867,1.2736,35.5558,-41.7066,33,0.1791,8213,3.9424,-16.1443
lg,1624655949381965039,0,-0.4944,-0.3669,1.1396,270,-14.5874,-122.4976,87.0361,90,1.3837,1.2736,33.5729,-37.2508,33,0.1811,8586,3.9424,-8.4978
lg,1624655949381989520,0,-0.1567,-0.7983,0.7939,271,-69.8853,-247.0093,51.9409,90,1.3827,1.2706,25.9746,-36.066,33,0.1821,9023,3.9424,0.0069
lg,1624655949382041538,0,0.2881,-1.105,0.4697,272,-67.5659,-250.2441,35.2173,90,1.3817,1.2696,17.5231,-37.1345,33,0.1861,8168,3.9424,7.1135
lg,1624655949382063870,0,0.3538,-1.1433,0.4543,273,-20.3857,-63.2324,13.7329,92,1.3807,1.2716,14.7018,-38.5283,33,0.1871,9615,3.938,8.8409
lg,1624655949382082944,0,0.1523,-0.8469,0.5437,274,27.6489,79.1626,19.5923,92,1.3807,1.2726,16.7823,-38.5509,33,0.1881,10303,3.938,7.2298
lg,1624655949382102166,0,-0.0481,-0.7068,0.6462,275,31.5552,106.8115,14.1602,92,1.3827,1.2736,20.2271,-38.6482,33,0.1901,9119,3.938,4.3534
lg,1624655949382120629,0,-0.116,-0.7617,0.6755,276,22.0947,120.9717,10.6812,92,1.3817,1.2676,23.703,-39.2635,33,0.1891,8333,3.938,1.283
lg,1624655949382139536,0,-0.2839,-0.9199,0.6445,277,13.6719,105.5298,2.1973,92,1.3807,1.2666,26.625,-40.6083,33,0.1871,9090,3.938,-1.9049
lg,1624655949382158165,0,-0.2039,-0.8704,0.7378,278,26.3672,67.9932,-6.4697,92,1.3907,1.2566,27.864,-40.9603,33,0.1851,9072,3.938,-4.3044
lg,1624655949382176813,0,-0.0789,-0.7698,0.551,279,31.189,36.3159,-14.4043,92,1.3947,1.2466,27.7083,-41.0334,33,0.1791,9108,3.938,-6.153
lg,1624655949382195442,0,-0.0938,-0.7939,0.4844,280,25.8179,26.4282,-15.564,92,1.3947,1.2396,27.7265,-41.5507,33,0.1791,8748,3.938,-7.8441
lg,1624655949382212979,0,-0.2534,-0.7947,0.4153,281,15.4419,65.2466,24.9023,92,1.3967,1.2406,29.9063,-42.365,33,0.1871,13907,3.938,-9.4083
lg,1624655949382231071,0,-0.6113,-0.8792,0.8589,282,-24.4751,78.6133,68.6035,92,1.3967,1.2506,33.9127,-43.5499,33,0.1911,8470,3.938,-9.6421
lg,1624655949382248923,0,-0.7249,-0.5779,0.5886,283,-12.5122,4.2725,106.0181,92,1.3867,1.2626,37.1925,-41.919,33,0.1891,10478,3.938,-5.9687
lg,1624655949382266144,0,-0.4631,-0.394,1.1636,284,-24.292,-76.9043,83.9844,92,1.3807,1.2676,36.4589,-38.4257,33,0.1871,8508,3.938,0.3493
lg,1624655949382283811,0,-0.3538,-0.8865,0.8723,285,-68.0542,-180.0537,55.8472,92,1.3757,1.2676,31.3913,-37.2931,33,0.1851,9405,3.938,7.614
lg,1624655949382302051,0,0.0115,-1.011,0.8665,286,-69.0918,-216.7969,55.1147,92,1.3737,1.2656,24.2321,-36.9099,33,0.1841,9428,3.938,13.8545
lg,1624655949382336328,0,0.3418,-1.0481,0.6758,287,-34.9731,-140.1367,12.5122,92,1.3727,1.2606,18.7047,-37.6107,33,0.1841,8593,3.938,17.6073
lg,1624655949382358180,0,0.2368,-0.9565,0.5576,288,1.4648,31.8604,-0.1221,92,1.3707,1.2686,18.583,-38.6918,33,0.1861,8969,3.938,16.4955
lg,1624655949751366966,0,-0.4021,-0.8445,0.5576,289,31.1279,152.3438,-40.2222,92,1.3807,1.2776,22.3939,-40.0434,33,0.1891,27160,3.938,10.816
lg,1624655949751427261,0,-0.4392,-0.7329,0.5945,290,45.4102,68.6035,-55.6641,92,1.3887,1.2766,23.1596,-40.1036,33,0.1841,14910,3.938,6.8914
lg,1624655949751449113,0,-0.4116,-0.6365,0.3354,291,32.8979,-13.6719,-59.5703,92,1.3907,1.2706,21.5215,-40.1874,33,0.1801,9885,3.938,4.9941
lg,1624655949751469927,0,-0.4146,-0.6831,0.3091,292,18.3716,-32.5928,-45.5322,92,1.3917,1.2686,19.7127,-40.5628,33,0.1821,7963,3.938,4.0844
lg,1624655949751488853,0,-0.4263,-0.8423,0.5151,293,-20.6909,-31.25,12.8174,92,1.3937,1.2746,19.2843,-41.634,33,0.1901,7981,3.938,5.1374
lg,1624655949751507093,0,-0.5095,-0.7898,0.5505,294,-31.1279,-52.9785,70.4956,92,1.3937,1.2836,19.9481,-42.1094,33,0.1931,7964,3.938,8.7045
lg,1624655949751525315,0,-0.5273,-0.7793,0.6914,295,-27.771,-48.9502,99.1821,92,1.3887,1.2896,21.4231,-41.8341,33,0.1961,8005,3.938,13.1766
lg,1624655949751543389,0,-0.281,-0.5447,1.0664,296,-9.9487,-114.502,82.1533,92,1.3797,1.2866,19.8052,-39.5573,33,0.1961,8492,3.938,19.2489
lg,1624655949751560796,0,-0.1338,-0.7651,0.7874,297,-62.3779,-201.7212,50.415,92,1.3827,1.2776,14.4354,-40.1578,33,0.1951,9422,3.938,26.2164
lg,1624655949751578870,0,0.2852,-0.9988,0.5637,298,-54.3823,-224.3042,53.833,92,1.3797,1.2716,8.7446,-41.3551,33,0.1961,8353,3.938,32.3422
lg,1624655949751596573,0,0.2761,-1.1152,0.6565,299,-37.2925,-109.9854,29.1748,92,1.3767,1.2726,5.4955,-43.0479,33,0.1941,8748,3.938,36.0986
lg,1624655949751614054,0,0.3967,-0.9771,0.6755,300,11.2915,14.5874,30.8838,92,1.3757,1.2726,5.8445,-42.9985,33,0.1951,8535,3.938,36.5571
lg,1624655949751632147,0,0.1807,-0.8369,0.6067,301,16.0522,108.7646,5.8594,92,1.3807,1.2776,8.5507,-43.1346,33,0.1971,8063,3.938,33.6846
lg,1624655949751650572,0,-0.1584,-0.8628,0.6047,302,19.3481,149.0479,-10.6201,92,1.3827,1.2846,12.57,-43.6425,33,0.1951,12973,3.938,29.1306
lg,1624655949751667905,0,-0.3484,-0.8621,0.6064,303,23.8037,141.7847,-20.2026,92,1.3857,1.2876,16.2982,-44.2805,33,0.1961,8826,3.938,24.3662
lg,1624655949751685071,0,-0.4016,-0.813,0.5769,304,20.752,110.7788,-27.9541,92,1.3877,1.2886,18.8721,-45.0808,33,0.1961,8470,3.938,20.1482
lg,1624655949751714015,0,-0.3716,-0.8257,0.6104,305,17.7612,90.3931,-29.2358,92,1.3897,1.2866,20.447,-45.8102,33,0.1911,8509,3.938,16.464
lg,1624655949751733571,0,-0.2437,-0.7913,0.5691,306,29.6021,49.1333,-29.2358,92,1.3887,1.2766,20.7211,-45.8005,33,0.1871,8860,3.938,13.9673
lg,1624655949751751663,0,-0.1104,-0.8958,0.5425,307,24.4751,25.9399,-41.9922,92,1.3877,1.2626,19.6717,-46.0593,33,0.1811,9078,3.938,11.7397
lg,1624655949751769274,0,-0.0986,-0.8799,0.3784,308,37.7197,28.8696,-36.6211,92,1.3867,1.2496,18.9185,-46.0362,33,0.1791,9316,3.938,9.4977
lg,1624655949751786977,0,-0.0669,-0.6575,0.3215,309,34.6069,60.0586,9.3384,92,1.3877,1.2436,20.3394,-45.9074,33,0.1831,9804,3.938,7.6942
lg,1624655949751804180,0,-0.2886,-0.7593,0.7375,310,-0.1831,104.7974,53.0396,92,1.3907,1.2426,24.5418,-46.5439,33,0.1861,8959,3.938,6.001
lg,1624655949751829032,0,-0.4753,-0.9243,0.8975,311,-21.1182,104.3701,72.6318,92,1.3937,1.2436,29.1723,-47.9179,33,0.1891,8216,3.938,5.9095
lg,1624655949751848735,0,-0.8044,-0.8098,0.5742,312,-25.0244,25.8179,81.3599,92,1.3887,1.2556,32.6593,-48.3029,33,0.1891,9008,3.938,7.4235
lg,1624655949751879957,0,-0.9753,-0.5002,0.7161,313,-8.3618,-31.6772,93.5059,92,1.3847,1.2656,35.1526,-45.851,33,0.1841,8762,3.938,11.8619
lg,1624655949751898938,0,-0.5586,-0.3391,1.1292,314,-37.3535,-179.8096,80.2002,92,1.3787,1.2676,31.9237,-41.303,33,0.1771,8404,3.938,21.2966
lg,1624655949751917067,0,-0.2583,-0.9155,0.9963,315,-92.3462,-301.4526,53.833,92,1.3757,1.2656,23.4351,-40.065,33,0.1801,8815,3.938,31.9546
lg,1624655949751935456,0,0.0032,-1.022,0.6978,316,-72.0825,-320.1904,43.6401,92,1.3757,1.2686,14.1236,-40.4703,33,0.1801,9149,3.938,39.9529
lg,1624655949751953548,0,0.312,-1.0696,0.5229,317,-42.1143,-194.0918,6.3477,92,1.3737,1.2706,7.4339,-42.0084,33,0.1791,9207,3.938,45.1516
lg,1624655949751971603,0,0.4446,-0.9343,0.6355,318,3.1128,-29.1138,9.8877,92,1.3767,1.2736,5.7488,-42.2524,33,0.1791,9257,3.938,46.1696
lg,1624655949751989603,0,0.27,-0.8337,0.6299,319,17.1509,87.1582,-8.4839,92,1.3757,1.2776,7.3038,-42.266,33,0.1791,9162,3.938,43.5101
lg,1624655949752007121,0,-0.144,-0.9172,0.532,320,19.7144,173.5229,-26.001,92,1.3777,1.2776,11.7005,-43.077,33,0.1811,8486,3.938,37.875
lg,1624655950125886695,0,-0.4995,-0.6919,0.6196,321,38.0859,68.2373,-26.8555,92,1.3887,1.2796,13.6134,-42.3207,33,0.1791,28604,3.938,35.1371
lg,1624655950125968249,0,-0.2397,-0.7771,0.5212,322,20.9961,-24.1089,-25.2686,92,1.3927,1.2736,11.8972,-42.4158,33,0.1771,11280,3.938,35.6983
lg,1624655950126002138,0,-0.1763,-0.8652,0.47,323,3.9062,-54.3213,-8.5449,92,1.3937,1.2726,10.0213,-42.8364,33,0.1801,8153,3.938,36.9606
lg,1624655950126032637,0,-0.1096,-0.894,0.4614,324,0.9766,-48.2788,8.9722,92,1.3947,1.2766,8.7334,-43.3033,33,0.1841,8143,3.938,38.4313
lg,1624655950126061914,0,-0.2375,-0.9041,0.6895,325,-25.5737,-18.4937,55.2979,92,1.3967,1.2846,9.8558,-44.3346,33,0.1871,9731,3.938,40.5094
lg,1624655950126090562,0,-0.4834,-0.7939,0.6353,326,-17.2729,-7.2632,89.5386,92,1.3937,1.2906,12.7676,-44.7165,33,0.1901,7944,3.938,43.2715
lg,1624655950126118321,0,-0.583,-0.5645,0.7561,327,-14.3433,-31.4941,88.562,92,1.3857,1.2926,14.581,-44.1874,33,0.1881,8914,3.938,47.3111
lg,1624655950126146487,0,-0.3105,-0.3887,1.0979,328,-10.6201,-88.1958,77.4536,92,1.3807,1.2866,14.2109,-42.4533,33,0.1881,8669,3.938,52.3799
lg,1624655950126174357,0,-0.0933,-0.8215,0.9824,329,-68.4814,-179.8096,59.7534,92,1.3817,1.2846,10.2194,-43.6319,33,0.1871,8121,3.938,59.2176
lg,1624655950126202375,0,0.1965,-1.1055,0.6597,330,-50.7202,-175.4761,22.7661,92,1.3817,1.2826,5.1658,-45.4962,33,0.1861,8084,3.938,64.7455
lg,1624655950126230522,0,0.2705,-1.1526,0.6565,331,-40.2832,-115.4785,18.5547,92,1.3787,1.2816,1.8943,-47.4226,33,0.1861,8084,3.938,68.5739
lg,1624655950126257670,0,0.3164,-0.9512,0.5813,332,8.667,21.6064,10.6812,92,1.3817,1.2856,2.0988,-47.5014,33,0.1881,8234,3.938,68.2085
lg,1624655950126284855,0,0.0098,-0.7876,0.5359,333,21.4844,117.981,-7.1411,92,1.3827,1.2896,4.9607,-47.186,33,0.1891,8512,3.938,64.52
lg,1624655950126312965,0,-0.1355,-0.7832,0.6467,334,20.752,143.1885,-14.4653,92,1.3857,1.2926,8.5146,-47.0182,33,0.1891,8119,3.938,59.8844
lg,1624655950126340113,0,-0.2693,-0.8198,0.645,335,22.8271,138.1836,-28.8086,92,1.3867,1.2956,11.6465,-47.1425,33,0.1901,8905,3.938,54.9472
lg,1624655950126368446,0,-0.3394,-0.8181,0.571,336,14.3433,116.6992,-48.7061,92,1.3927,1.2936,13.6254,-47.9322,33,0.1871,8189,3.938,50.0074
lg,1624655950126395390,0,-0.3516,-0.8813,0.6304,337,30.2124,90.6982,-58.2886,92,1.3937,1.2846,14.4803,-48.0336,33,0.1821,8583,3.938,45.5629
lg,1624655950126423908,0,-0.3145,-0.8992,0.5789,338,38.8794,70.6177,-59.021,92,1.3917,1.2646,14.6908,-47.789,33,0.1781,8581,3.938,41.6746
lg,1624655950126492999,0,-0.2898,-0.9353,0.4214,339,38.8184,19.8975,-68.7866,92,1.3877,1.2466,13.259,-47.5323,33,0.1721,8292,3.938,38.9883
lg,1624655950126531758,0,-0.241,-0.7017,0.3176,340,49.8047,-8.2397,-26.1841,92,1.3887,1.2386,12.4567,-46.3327,33,0.1741,8651,3.938,38.3495
lg,1624655950126560331,0,-0.2307,-0.5933,0.4878,341,-8.728,10.498,41.1987,92,1.3917,1.2406,14.1044,-46.6386,33,0.1801,9014,3.938,39.1652
lg,1624655950126589368,0,-0.3794,-0.804,0.7942,342,-44.6777,26.6113,72.3267,92,1.3917,1.2466,17.118,-48.0304,33,0.1811,8308,3.938,40.3937
lg,1624655950126619089,0,-0.7014,-0.9165,0.5361,343,-47.9736,-20.3247,116.4551,92,1.3897,1.2626,20.7122,-49.0718,33,0.1791,9077,3.938,44.1655
lg,1624655950126651922,0,-0.6963,-0.6646,0.6072,344,-16.4185,-111.6943,120.9717,92,1.3877,1.2716,20.9371,-46.3459,33,0.1781,12086,3.938,52.3102
lg,1624655950126681662,0,-0.0894,-0.3308,1.1802,345,-25.5737,-203.3691,101.4404,92,1.3817,1.2706,17.494,-43.1392,33,0.1781,8407,3.938,61.8417
lg,1624655950126710588,0,0.144,-0.97,0.9109,346,-95.3979,-264.8926,58.8989,92,1.3747,1.2706,10.6451,-44.8173,33,0.1791,9296,3.938,71.1193
lg,1624655950126739032,0,0.4065,-1.2075,0.5486,347,-48.645,-207.5806,17.0898,92,1.3787,1.2726,4.3445,-46.67,33,0.1781,8441,3.938,77.4652
lg,1624655950126993620,0,0.2034,-1.0686,0.5381,348,3.7231,-9.4604,-7.9956,92,1.3777,1.2746,3.3109,-47.1422,33,0.1781,8868,3.938,77.4772
lg,1624655950127037619,0,0.1277,-0.8655,0.521,349,24.5972,45.105,-5.3711,92,1.3777,1.2776,3.967,-46.7052,33,0.1791,8878,3.938,75.9782
lg,1624655950127070544,0,-0.054,-0.6621,0.5842,350,26.5503,101.2573,-9.8267,92,1.3777,1.2816,6.4418,-46.0006,33,0.1811,8462,3.938,72.7537
lg,1624655950127103988,0,-0.2488,-0.7781,0.5837,351,13.855,107.8491,-13.1226,92,1.3807,1.2826,9.349,-46.1939,33,0.1821,8910,3.938,69.214
lg,1624655950127134284,0,-0.3281,-0.8679,0.6006,352,16.0522,92.1631,-19.2261,92,1.3827,1.2836,11.6376,-46.4855,33,0.1811,8499,3.938,65.9022
lg,1624655950536488377,0,-0.2437,-0.7878,0.6201,353,21.4233,11.3525,-15.3809,92,1.3927,1.2786,11.5854,-45.9828,33,0.1801,26122,3.938,65.0937
lg,1624655950536534487,0,0.0186,-0.8452,0.5979,354,27.9541,-10.9253,-15.5029,92,1.3947,1.2646,10.1887,-45.4941,33,0.1761,10347,3.938,64.6206
lg,1624655950536555690,0,0.022,-0.96,0.532,355,29.6021,15.686,-37.7197,92,1.3937,1.2536,9.1213,-45.1757,33,0.1761,9806,3.938,62.9834
lg,1624655950536591338,0,-0.0657,-0.7598,0.364,356,34.9121,47.1191,-7.6904,92,1.3947,1.2546,10.0631,-44.7904,33,0.1821,8704,3.938,61.2887
lg,1624655950536664614,0,-0.2878,-0.7654,0.7271,357,14.0381,71.8994,26.062,92,1.3977,1.2596,14.5339,-45.5329,33,0.1881,8229,3.938,60.019
lg,1624655950536684669,0,-0.5132,-0.8096,0.7419,358,-23.0713,112.6099,80.0781,92,1.3977,1.2696,20.3461,-46.842,33,0.1831,8329,3.938,58.9031
lg,1624655950536703595,0,-0.8406,-0.7395,0.5989,359,-28.1982,41.8091,108.0322,92,1.3927,1.2766,25.4472,-47.365,33,0.1801,7918,3.938,60.7073
lg,1624655950536723521,0,-0.6377,-0.5046,1.2119,360,-13.3057,-33.5083,112.6099,92,1.3847,1.2806,27.8523,-44.8698,33,0.1771,9342,3.938,65.6978
lg,1624655950536743520,0,-0.4182,-0.7207,0.8843,361,-57.6782,-191.7114,61.7676,92,1.3797,1.2766,23.8041,-43.4806,33,0.1761,9771,3.938,73.7162
lg,1624655950536762816,0,0.2058,-1.05,0.7566,362,-70.3125,-262.146,38.4521,92,1.3787,1.2736,16.1101,-43.6957,33,0.1781,8730,3.938,82.399
lg,1624655950536781445,0,0.3462,-1.1921,0.7268,363,-65.4297,-220.7642,12.5122,92,1.3787,1.2746,10.8351,-45.6245,33,0.1791,8806,3.938,86.4967
lg,1624655950536798630,0,0.3767,-1.0798,0.291,364,-29.48,-71.106,-4.4556,92,1.3767,1.2766,7.6943,-47.5374,33,0.1801,8443,3.938,88.2851
lg,1624655950536816278,0,0.2241,-0.8633,0.2891,365,14.4653,70.3125,-14.5264,92,1.3777,1.2806,8.3286,-48.2035,33,0.1831,8486,3.938,85.6637
lg,1624655950536833741,0,-0.0991,-0.8049,0.4541,366,32.1045,173.3398,-14.2212,92,1.3807,1.2866,12.4028,-48.4207,33,0.1831,8826,3.938,79.9418
lg,1624655950536851314,0,-0.3547,-0.8269,0.5586,367,35.5225,173.9502,-19.3481,92,1.3857,1.2916,16.6773,-48.7707,33,0.1821,12709,3.938,73.9581
lg,1624655950536869907,0,-0.3716,-0.834,0.5928,368,35.0342,108.7646,-28.8086,92,1.3907,1.2906,18.7846,-48.8786,33,0.1791,8923,3.938,69.657
lg,1624655950536886777,0,-0.249,-0.8511,0.6553,369,28.4424,60.791,-41.3208,92,1.3937,1.2846,18.8999,-48.873,33,0.1801,8206,3.938,66.5282
lg,1624655950536904388,0,-0.1692,-0.9209,0.5154,370,32.3486,45.5322,-45.6543,92,1.3947,1.2726,17.9949,-48.7958,33,0.1771,9629,3.938,63.9531
lg,1624655950536921572,0,-0.1355,-0.9529,0.5029,371,35.3394,27.9541,-52.5513,92,1.3937,1.2626,16.739,-48.6188,33,0.1731,8610,3.938,61.4532
lg,1624655950536938961,0,-0.1174,-0.8328,0.3806,372,61.9507,19.4702,-27.6489,92,1.3937,1.2596,16.0919,-47.2062,33,0.1751,8911,3.938,59.8791
lg,1624655950536955590,0,-0.1995,-0.5557,0.4448,373,26.001,77.1484,26.001,92,1.3957,1.2626,18.9222,-46.8104,33,0.1831,9199,3.938,58.2054
lg,1624655950536973275,0,-0.637,-0.8167,0.7671,374,-35.5225,101.9897,83.7402,92,1.3987,1.2736,24.5346,-48.5206,33,0.1821,8344,3.938,57.3711
lg,1624655950537024811,0,-0.8054,-0.8101,0.6963,375,-32.8979,67.1387,108.0322,92,1.3947,1.2826,30.1458,-49.1857,33,0.1771,8686,3.938,58.3696
lg,1624655950537045904,0,-0.8877,-0.5632,0.8171,376,-9.5215,-27.5269,100.9521,92,1.3867,1.2866,32.887,-46.8831,33,0.1781,9315,3.938,62.7649
lg,1624655950537063292,0,-0.5344,-0.3362,0.7224,377,-16.2964,-167.9688,59.082,92,1.3857,1.2876,29.9115,-42.772,33,0.1791,8809,3.938,70.7504
lg,1624655950537080310,0,-0.083,-0.9536,0.8918,378,-89.2944,-259.1553,55.2368,92,1.3817,1.2826,22.8169,-42.2362,33,0.1801,9029,3.938,80.277
lg,1624655950537097551,0,0.2908,-1.1548,0.5969,379,-61.8896,-205.3833,12.4512,92,1.3807,1.2816,15.902,-43.4132,33,0.1801,9283,3.938,86.2757
lg,1624655950537114587,0,0.2871,-1.0859,0.4976,380,-11.1084,-24.1089,4.1504,92,1.3787,1.2826,14.2489,-44.4812,33,0.1801,8898,3.938,86.8684
lg,1624655950537131883,0,0.0383,-0.8032,0.405,381,18.7378,93.9331,-3.54,92,1.3787,1.2856,16.1695,-45.2277,33,0.1821,8861,3.938,83.8295
lg,1624655950537148994,0,-0.1289,-0.7305,0.4414,382,18.3105,121.2158,-7.9346,92,1.3797,1.2906,19.5971,-46.2353,33,0.1831,8867,3.938,79.49
lg,1624655950537166031,0,-0.3179,-0.7954,0.5698,383,14.5874,118.2861,-4.9438,92,1.3807,1.2926,22.6085,-47.3548,33,0.1831,8544,3.938,75.5335
lg,1624655950537183568,0,-0.3088,-0.8628,0.5081,384,6.4697,51.2695,-10.1318,92,1.3837,1.2966,23.4706,-48.3447,33,0.1781,8967,3.938,73.3951
lg,1624655950881324374,0,0.0671,-0.873,0.5706,385,33.2642,-15.0146,-10.3149,87,1.3957,1.2866,21.7353,-47.3031,33,0.1801,26233,3.9446,73.4257
lg,1624655950881358707,0,0.1221,-0.8472,0.4458,386,32.5928,-5.0049,-26.1841,87,1.3967,1.2746,19.7597,-46.8301,33,0.1761,9250,3.9446,72.5869
lg,1624655950881380243,0,0.0798,-0.8115,0.4902,387,37.8418,63.9038,-13.7329,87,1.3977,1.2646,20.17,-46.6265,33,0.1761,9326,3.9446,70.0304
lg,1624655950881400502,0,-0.0845,-0.7488,0.4385,388,29.3579,97.3511,1.3428,87,1.3987,1.2626,22.2963,-47.0807,33,0.1831,7992,3.9446,66.8289
lg,1624655950881420113,0,-0.4614,-0.7844,0.813,389,-10.1929,127.9907,49.9878,87,1.4007,1.2696,27.1812,-48.4792,33,0.1871,8345,3.9446,64.1724
lg,1624655950881439113,0,-0.8586,-0.5605,0.688,390,-9.1553,25.8789,89.5996,87,1.3977,1.2836,31.188,-47.6168,33,0.1901,14897,3.9446,66.1764
lg,1624655950881457538,0,-0.886,-0.5222,0.7432,391,-33.8135,-62.6831,93.5669,87,1.3917,1.2886,32.7244,-45.7866,33,0.1881,8800,3.9446,71.5873
lg,1624655950881498149,0,-0.5798,-0.5437,1.147,392,-45.166,-118.8965,97.9004,87,1.3877,1.2916,31.8086,-42.8511,33,0.1871,8433,3.9446,79.2987
lg,1624655950881528537,0,-0.2412,-0.937,0.8879,393,-70.3125,-224.7925,60.791,87,1.3857,1.2926,26.0029,-41.4876,33,0.1881,8880,3.9446,88.1568
lg,1624655950881547944,0,0.343,-1.0405,0.5383,394,-58.8989,-243.1641,30.0903,87,1.3837,1.2956,18.1141,-41.6945,33,0.1891,8067,3.9446,95.7135
lg,1624655950881567425,0,0.4165,-1.136,0.5728,395,-32.1655,-74.3408,-2.0752,87,1.3837,1.2986,14.5724,-43.2091,33,0.1911,10286,3.9446,97.505
lg,1624655950881586054,0,0.1018,-0.9524,0.325,396,8.4229,66.3452,-23.9258,87,1.3857,1.3006,15.0805,-44.6277,33,0.1931,9788,3.9446,94.6168
lg,1624655950881603980,0,-0.2217,-0.8455,0.4072,397,29.7241,136.7798,-37.7808,87,1.3897,1.3036,17.8021,-45.6661,33,0.1921,8867,3.9446,89.2576
lg,1624655950881622220,0,-0.3828,-0.8389,0.5381,398,33.02,144.2261,-40.0391,87,1.3947,1.3026,20.4356,-46.389,33,0.1891,8883,3.9446,83.9993
lg,1624655950881640109,0,-0.3501,-0.8127,0.6133,399,41.8091,106.5063,-39.856,87,1.3977,1.2966,22.1359,-46.607,33,0.1831,8554,3.9446,79.4118
lg,1624655950881657775,0,-0.2427,-0.8264,0.5298,400,44.0063,48.9502,-51.7578,87,1.3997,1.2846,21.6583,-46.4276,33,0.1831,8939,3.9446,76.18
lg,1624655950881676275,0,-0.196,-0.9514,0.3608,401,36.377,13.9771,-59.5703,87,1.3967,1.2726,19.9477,-46.6682,33,0.1771,8231,3.9446,73.656
lg,1624655950881694349,0,-0.175,-0.738,0.1926,402,49.4385,-13.7939,-45.0439,87,1.3967,1.2696,18.0794,-46.1006,33,0.1771,8940,3.9446,72.3839
lg,1624655950881711756,0,-0.1218,-0.5635,0.218,403,34.1797,-0.3052,-9.1553,87,1.3967,1.2706,17.5947,-45.7098,33,0.1841,8293,3.9446,71.8453
lg,1624655950881729329,0,-0.217,-0.7734,0.835,404,-30.8838,62.8052,66.7725,87,1.4007,1.2806,20.9749,-46.7986,33,0.1871,8605,3.9446,71.9113
lg,1624655950881746977,0,-0.7783,-0.9133,0.6638,405,-28.4424,89.9048,92.041,87,1.4017,1.2886,26.6252,-48.2535,33,0.1881,8284,3.9446,71.6198
lg,1624655950881764736,0,-0.9304,-0.8152,0.7109,406,-11.7798,39.7949,85.3882,87,1.3967,1.2946,30.9198,-47.7184,33,0.1831,8320,3.9446,73.0512
lg,1624655950881788291,0,-0.896,-0.4167,0.8647,407,-7.9346,-82.5195,86.731,87,1.3907,1.2926,31.6606,-44.3714,33,0.1861,8755,3.9446,79.0551
lg,1624655950881808272,0,-0.3513,-0.4055,0.5283,408,-41.626,-245.3003,58.7158,87,1.3887,1.2976,25.9474,-41.1388,33,0.1871,9195,3.9446,88.7688
lg,1624655950881826735,0,0.0444,-1.1538,0.8501,409,-99.0601,-274.6582,56.1523,87,1.3877,1.2966,18.2378,-41.9704,33,0.1861,8419,3.9446,98.2002
lg,1624655950881856605,0,0.4946,-1.2625,0.667,410,-71.3501,-259.6436,43.2129,87,1.3867,1.2966,11.8045,-43.0916,33,0.1861,8461,3.9446,103.926
lg,1624655950881875512,0,0.4985,-1.0486,0.5781,411,-3.2959,-14.7705,0.9155,87,1.3857,1.2976,10.1382,-43.7853,33,0.1891,12297,3.9446,104.2384
lg,1624655950881893326,0,0.2217,-0.8518,0.4858,412,16.1743,111.6333,-13.0005,87,1.3857,1.3006,12.0949,-44.4556,33,0.1911,8717,3.9446,100.5753
lg,1624655950881910585,0,-0.2134,-0.8591,0.4307,413,14.3433,148.2544,-23.7427,87,1.3877,1.3026,16.125,-45.9454,33,0.1941,8899,3.9446,94.8399
lg,1624655950882010250,0,-0.3528,-0.8735,0.48,414,21.0571,172.0581,-20.2026,87,1.3907,1.3046,20.5414,-47.4453,33,0.1961,9374,3.9446,88.834
lg,1624655950882031768,0,-0.4836,-0.8291,0.5146,415,27.5879,133.1787,-19.6533,87,1.3937,1.3036,23.7308,-48.4619,33,0.1911,10165,3.9446,83.883
lg,1624655950882050990,0,-0.4236,-0.7644,0.5706,416,25.2686,49.1333,-20.2637,87,1.3987,1.2966,24.4237,-48.531,33,0.1911,9126,3.9446,81.6071
lg,1624655951246939783,0,-0.0464,-0.9688,0.4551,417,13.5498,-34.4238,-37.8418,87,1.3967,1.2466,21.5699,-48.6583,33,0.1791,27183,3.9446,81.3628
lg,1624655951246972264,0,0.1077,-0.8535,0.3169,418,45.5933,-18.0664,-2.5024,87,1.3987,1.2406,19.9924,-47.5185,33,0.1791,9649,3.9446,81.5384
lg,1624655951246993504,0,-0.0959,-0.7014,0.6152,419,23.4375,62.3169,26.2451,87,1.3997,1.2406,23.1517,-48.1431,33,0.1861,13092,3.9446,79.8988
lg,1624655951247013337,0,-0.5183,-0.8718,0.8093,420,-14.9536,107.7271,76.9043,87,1.4027,1.2456,28.2887,-49.2687,33,0.1921,8150,3.9446,78.5638
lg,1624655951247032541,0,-0.6619,-0.8335,0.7346,421,-15.2588,72.4487,84.6558,87,1.4027,1.2556,32.8152,-49.8433,33,0.1901,7929,3.9446,78.5566
lg,1624655951247051003,0,-0.7375,-0.604,0.6689,422,-22.0947,-0.5493,99.3042,87,1.3957,1.2666,36.058,-48.6264,33,0.1851,9623,3.9446,81.8824
lg,1624655951247068984,0,-0.7134,-0.6233,0.9258,423,-39.4897,-63.3545,112.1216,87,1.3887,1.2736,37.525,-45.9053,33,0.1841,7942,3.9446,88.3733
lg,1624655951247087225,0,-0.3796,-0.7292,0.5488,424,-49.1943,-194.1528,52.8564,87,1.3847,1.2766,32.9416,-43.2619,33,0.1831,8843,3.9446,96.6989
lg,1624655951247105113,0,-0.1477,-1.0586,1.0076,425,-81.665,-203.7964,55.542,87,1.3817,1.2746,27.1432,-42.828,33,0.1821,9019,3.9446,104.7382
lg,1624655951247122687,0,0.2351,-1.0078,0.5107,426,-43.457,-176.8188,19.4092,87,1.3787,1.2756,21.1574,-42.9769,33,0.1811,8392,3.9446,110.2566
lg,1624655951247140372,0,0.0535,-1.0066,0.4683,427,-16.2354,-24.9023,-9.3994,87,1.3797,1.2786,19.3118,-44.3642,33,0.1821,8107,3.9446,110.3845
lg,1624655951247158501,0,-0.0701,-0.9346,0.4495,428,3.8452,37.3535,-4.9438,87,1.3797,1.2826,20.8229,-45.2613,33,0.1841,8044,3.9446,107.7962
lg,1624655951247176612,0,-0.3037,-0.8135,0.4624,429,17.8223,76.7822,-14.7095,87,1.3827,1.2866,22.4397,-46.181,33,0.1861,8025,3.9446,104.7709
lg,1624655951247195038,0,-0.4041,-0.7559,0.4275,430,17.4561,55.2368,-11.7798,87,1.3837,1.2906,23.7256,-46.8499,33,0.1831,8427,3.9446,102.4622
lg,1624655951247212500,0,-0.3567,-0.8281,0.5649,431,12.8174,20.6299,-13.3057,87,1.3857,1.2926,23.7365,-47.1118,33,0.1821,11775,3.9446,101.2643
lg,1624655951247230018,0,-0.0779,-0.8384,0.6062,432,3.1128,-45.2881,-23.6206,87,1.3947,1.2896,21.0671,-46.9943,33,0.1831,13991,3.9446,101.8888
lg,1624655951247246926,0,-0.0029,-0.8662,0.5896,433,8.4229,-47.3022,-28.7476,87,1.3987,1.2866,18.0219,-46.8577,33,0.1831,8500,3.9446,102.1371
lg,1624655951247283869,0,0.0872,-0.9451,0.3552,434,20.4468,-48.3398,-31.0059,87,1.3997,1.2896,14.9694,-46.7702,33,0.1841,8903,3.9446,102.4467
lg,1624655951247303221,0,0.1465,-0.8279,0.4045,435,7.6294,-21.5454,-3.418,87,1.4017,1.2976,13.3831,-47.004,33,0.1891,8939,3.9446,102.8253
lg,1624655951247321221,0,-0.1125,-0.8022,0.5239,436,-9.2773,62.7441,41.748,87,1.4017,1.3046,16.0371,-47.9504,33,0.1901,8909,3.9446,101.9834
lg,1624655951247338739,0,-0.5203,-0.7964,0.6482,437,12.8174,112.6709,66.4062,87,1.3967,1.3086,21.423,-48.0693,33,0.1941,8918,3.9446,100.2836
lg,1624655951247356109,0,-0.5325,-0.4851,1.0842,438,19.165,101.4404,63.7207,87,1.3947,1.3086,24.3444,-46.1469,33,0.1921,9213,3.9446,100.5331
lg,1624655951247373571,0,-0.6299,-0.4722,0.7131,439,10.437,-14.7095,35.5225,87,1.3927,1.3046,24.9374,-44.5897,33,0.1911,9030,3.9446,102.2949
lg,1624655951247391182,0,-0.446,-0.8801,0.9441,440,-30.4565,-101.2573,38.7573,87,1.3897,1.3036,22.9001,-43.9788,33,0.1911,9008,3.9446,106.6392
lg,1624655951247409256,0,-0.1143,-0.9426,0.6936,441,-32.7148,-145.6299,9.3384,87,1.3937,1.3066,18.3304,-44.0526,33,0.1931,9037,3.9446,111.1018
lg,1624655951247427552,0,0.1943,-0.9426,0.5767,442,-15.1367,-84.9609,3.7842,87,1.3937,1.3086,14.9597,-44.4879,33,0.1961,9048,3.9446,113.5158
lg,1624655951247445811,0,0.1843,-0.936,0.6199,443,-1.4648,9.2773,-14.7705,87,1.3957,1.3106,13.8803,-45.1916,33,0.1971,9083,3.9446,112.6945
lg,1624655951247463385,0,0.0122,-0.8821,0.5769,444,5.9814,45.6543,-24.9634,87,1.3977,1.3116,14.4914,-46.1143,33,0.1961,9119,3.9446,109.4584
lg,1624655951247480755,0,-0.0938,-0.8796,0.5527,445,6.958,96.0693,-39.3677,87,1.3987,1.3096,15.6025,-47.3452,33,0.1951,8757,3.9446,105.326
lg,1624655951247498069,0,-0.2129,-0.8965,0.5139,446,22.4609,93.1396,-47.7295,87,1.4007,1.3056,16.5345,-48.1173,33,0.1901,9338,3.9446,100.9827
lg,1624655951247515661,0,-0.2454,-0.8489,0.3357,447,32.1655,36.3159,-49.5605,87,1.4007,1.2926,15.995,-48.3185,33,0.1871,8801,3.9446,98.2552
lg,1624655951247601938,0,-0.1838,-0.8193,0.4202,448,36.3159,40.7715,-23.0713,87,1.4007,1.2796,16.2196,-47.9695,33,0.1821,9227,3.9446,96.1891
lg,1624655951606408331,0,-0.3389,-0.9636,0.6858,449,-24.1699,13.855,73.9136,87,1.4047,1.2846,19.3189,-48.4569,33,0.1911,30442,3.9446,98.6157
lg,1624655951606441719,0,-0.5229,-0.6257,0.5132,450,-14.6484,-53.772,108.0933,87,1.3977,1.2966,21.6208,-47.4254,33,0.1901,11370,3.9446,103.3902
lg,1624655951606462608,0,-0.2163,-0.3655,1.2271,451,-14.0991,-100.5859,93.75,87,1.3937,1.2996,21.1691,-44.5905,33,0.1861,7951,3.9446,109.7457
lg,1624655951606501403,0,-0.0537,-0.8418,0.9175,452,-75.9277,-211.6699,56.8237,87,1.3887,1.2986,16.0716,-44.9734,33,0.1831,10459,3.9446,117.7706
lg,1624655951606520959,0,0.1978,-1.0317,0.8123,453,-71.3501,-232.0557,50.293,87,1.3877,1.2976,10.3711,-45.961,33,0.1831,7951,3.9446,124.1845
lg,1624655951606540273,0,0.3625,-1.1658,0.7012,454,-32.6538,-115.3564,15.1978,87,1.3857,1.2966,6.6964,-47.1816,33,0.1821,8032,3.9446,127.9182
lg,1624655951606569606,0,0.2686,-0.9438,0.5625,455,11.8408,39.6729,3.9062,87,1.3847,1.2976,7.0934,-47.2903,33,0.1831,8008,3.9446,126.7941
lg,1624655951606589272,0,0.0256,-0.7625,0.5232,456,21.0571,89.3555,-0.3052,87,1.3847,1.2996,10.0615,-47.24,33,0.1861,8177,3.9446,122.8717
lg,1624655951606607235,0,-0.2627,-0.8237,0.5337,457,20.9961,158.5693,-7.8125,87,1.3867,1.3026,14.7335,-48.0702,33,0.1881,8946,3.9446,117.3638
lg,1624655951606625086,0,-0.3691,-0.8513,0.6013,458,18.2495,169.4946,-7.5073,87,1.3887,1.3046,19.1452,-49.2038,33,0.1901,8676,3.9446,111.7662
lg,1624655951606642623,0,-0.4097,-0.8367,0.584,459,19.7144,120.2393,-21.4844,87,1.3917,1.3076,21.6853,-50.21,33,0.1861,8087,3.9446,107.1798
lg,1624655951606660549,0,-0.3662,-0.8154,0.4941,460,10.5591,67.1387,-28.1372,87,1.3947,1.3086,22.4787,-51.2519,33,0.1871,8094,3.9446,104.0415
lg,1624655951606678030,0,-0.3569,-0.8223,0.4858,461,8.8501,53.7109,-28.3813,87,1.3967,1.3066,22.8328,-52.2128,33,0.1841,8175,3.9446,101.3285
lg,1624655951606696215,0,-0.2876,-0.8647,0.5835,462,15.1367,28.1372,-27.5269,87,1.3997,1.3056,22.3492,-52.4038,33,0.1821,8207,3.9446,99.5782
lg,1624655951606713529,0,-0.1497,-0.8835,0.5344,463,24.292,2.7466,-33.7524,87,1.4007,1.2966,20.7982,-52.0552,33,0.1801,8195,3.9446,98.4962
lg,1624655951606733825,0,-0.0881,-0.9407,0.5818,464,19.165,0.061,-41.3818,87,1.3977,1.2796,18.863,-51.9079,33,0.1761,8169,3.9446,97.3229
lg,1624655951606753140,0,-0.0769,-0.9653,0.4199,465,32.1045,1.5869,-43.457,87,1.3967,1.2686,16.9833,-51.5801,33,0.1751,8188,3.9446,95.9483
lg,1624655951606771787,0,-0.064,-0.7983,0.22,466,55.9082,11.0474,2.9297,87,1.3977,1.2676,16.9085,-50.3469,33,0.1801,11048,3.9446,95.3904
lg,1624655951606790083,0,-0.114,-0.6123,0.5266,467,10.0708,65.918,63.5376,87,1.3987,1.2716,20.18,-50.0234,33,0.1831,8260,3.9446,94.9745
lg,1624655951606807676,0,-0.2671,-0.677,0.6953,468,-13.2446,85.7544,83.8013,87,1.4017,1.2796,25.8446,-51.1726,33,0.1841,8244,3.9446,94.3165
lg,1624655951606825286,0,-0.7678,-0.7859,0.634,469,-26.001,81.3599,100.2197,87,1.3997,1.2886,31.4224,-52.2345,33,0.1831,8290,3.9446,94.2224
lg,1624655951606842990,0,-1.0913,-0.6777,0.8254,470,-11.1084,17.4561,106.2622,87,1.3927,1.2946,35.7393,-50.8391,33,0.1831,8408,3.9446,96.9664
lg,1624655951606873860,0,-0.687,-0.3547,0.8311,471,-14.3433,-168.1519,66.1011,87,1.3857,1.2946,33.4193,-45.6861,33,0.1821,8633,3.9446,105.8318
lg,1624655951606892804,0,-0.5215,-0.6716,0.9814,472,-71.3501,-250.4883,50.4761,87,1.3847,1.2906,26.7053,-43.4642,33,0.1801,8416,3.9446,115.686
lg,1624655951606910840,0,0.1555,-1.0789,0.7375,473,-86.6089,-348.6938,32.0435,87,1.3857,1.2906,16.304,-43.2904,33,0.1811,8403,3.9446,126.699
lg,1624655951606928785,0,0.5298,-1.175,0.4236,474,-65.4297,-226.1963,-9.9487,87,1.3817,1.2926,8.225,-45.5248,33,0.1801,8526,3.9446,132.6334
lg,1624655951606946210,0,0.5208,-1.0273,0.1809,475,-37.9028,-126.4648,-16.9067,87,1.3807,1.2946,5.8211,-47.0004,33,0.1821,8476,3.9446,132.8694
lg,1624655951606963710,0,0.429,-0.9358,0.3169,476,13.7939,68.4204,-13.4888,87,1.3797,1.2946,6.1765,-47.5531,33,0.1841,8527,3.9446,130.3916
lg,1624655951606980950,0,0.0007,-0.8235,0.4524,477,31.6162,203.064,-24.1089,87,1.3837,1.3026,10.6566,-47.8114,33,0.1841,8496,3.9446,123.6067
lg,1624655951606998246,0,-0.406,-0.8528,0.5081,478,28.1982,206.7261,-20.3857,87,1.3857,1.3046,15.978,-48.6954,33,0.1851,8551,3.9446,116.6302
lg,1624655951607015968,0,-0.532,-0.8564,0.5256,479,28.5034,176.6357,-18.1885,87,1.3887,1.3066,19.4504,-49.4585,33,0.1841,8575,3.9446,111.905
lg,1624655951607033783,0,-0.5879,-0.8152,0.4834,480,21.3623,72.3267,-11.7798,87,1.3927,1.3066,21.4413,-49.8858,33,0.1831,8653,3.9446,109.1054
lg,1624655951983057975,0,0.0967,-0.8738,0.5105,481,14.4653,-76.7212,7.5684,87,1.3997,1.2896,18.668,-48.7884,33,0.1781,25809,3.9446,111.6389
lg,1624655951983106752,0,0.2295,-1.0054,0.5029,482,32.4707,2.9297,-15.8691,87,1.3987,1.2756,17.1485,-48.2402,33,0.1771,11130,3.9446,110.91
lg,1624655951983128400,0,0.1423,-0.792,0.3728,483,56.0913,82.7637,10.0708,87,1.3997,1.2736,18.6714,-47.372,33,0.1811,9979,3.9446,108.403
lg,1624655951983148844,0,0.001,-0.6777,0.4351,484,40.6494,121.7651,23.3154,87,1.4007,1.2776,23.7909,-48.2046,33,0.1841,7895,3.9446,104.8046
lg,1624655951983168659,0,-0.4805,-0.783,0.7754,485,-10.0098,174.0723,66.04,87,1.4027,1.2846,30.2816,-50.2885,33,0.1871,7913,3.9446,100.8558
lg,1624655951983189399,0,-0.9231,-0.6887,0.5527,486,-17.9443,93.3838,90.3931,87,1.4007,1.2936,36.028,-51.4269,33,0.1851,9635,3.9446,100.0866
lg,1624655951983209787,0,-1.1252,-0.4622,0.7048,487,-12.146,10.376,105.3467,87,1.3917,1.2986,40.2257,-49.4869,33,0.1841,8798,3.9446,103.4244
lg,1624655951983230269,0,-1.1055,-0.47,0.928,488,-29.7241,-42.3584,113.8306,87,1.3877,1.2976,39.2893,-44.1341,33,0.1841,8084,3.9446,113.4302
lg,1624655951983249601,0,-0.7046,-0.7498,0.8428,489,-59.5093,-247.9248,86.1206,87,1.3827,1.2916,33.9567,-39.5667,33,0.1821,8831,3.9446,124.9359
lg,1624655951983268101,0,0.1665,-1.009,0.7529,490,-79.1016,-347.4731,69.6411,87,1.3757,1.2946,23.4362,-37.4137,33,0.1831,8765,3.9446,136.8596
lg,1624655951983288545,0,0.5981,-1.106,0.4724,491,-68.6035,-248.7183,24.231,87,1.3797,1.2966,14.6169,-38.8014,33,0.1851,8019,3.9446,143.7435
lg,1624655951983341081,0,0.7212,-1.134,0.3789,492,-43.5791,-150.2686,18.6768,87,1.3797,1.3006,11.6901,-40.0922,33,0.1861,8847,3.9446,145.055
lg,1624655951983365896,0,0.5994,-1.0767,0.3965,493,5.9204,36.5601,-9.0332,87,1.3787,1.3036,11.1741,-41.1114,33,0.1861,8076,3.9446,143.6054
lg,1624655951983384358,0,0.0969,-0.9617,0.3945,494,37.0483,196.5942,-40.5273,87,1.3847,1.3066,15.3376,-42.1825,33,0.1871,8103,3.9446,136.7945
lg,1624655951983405191,0,-0.1968,-0.9282,0.4172,495,44.3726,245.2393,-45.7153,89,1.3877,1.3086,21.7064,-43.9184,33,0.1871,8117,3.9424,127.6987
lg,1624655951983425024,0,-0.5273,-0.8433,0.5046,496,49.9268,232.5439,-54.0161,89,1.3917,1.3116,26.9827,-46.166,33,0.1831,8888,3.9424,118.5875
lg,1624655951983443802,0,-0.5151,-0.7695,0.47,497,50.9644,142.9443,-54.3213,89,1.3977,1.3056,28.2501,-47.0536,33,0.1821,9036,3.9424,113.6372
lg,1624655951983462042,0,-0.3801,-0.8218,0.3713,498,36.1328,13.6719,-42.5415,89,1.3987,1.3006,27.2063,-47.1762,33,0.1801,8663,3.9424,111.5229
lg,1624655951983570855,0,-0.3108,-0.8066,0.4011,499,39.3677,-3.1738,-34.0576,89,1.3987,1.2966,26.3819,-46.458,33,0.1831,9003,3.9424,110.5536
lg,1624655951983596706,0,-0.2153,-0.6929,0.4001,500,27.2217,19.9585,0.6714,89,1.3997,1.2976,26.5248,-46.2125,33,0.1881,8941,3.9424,109.6736
lg,1624655951983616150,0,-0.3699,-0.8079,0.7539,501,-12.8174,40.2832,47.9736,89,1.4017,1.3046,28.6926,-46.6622,33,0.1891,8213,3.9424,109.8325
lg,1624655951983656427,0,-0.6719,-0.8745,0.6389,502,-17.5171,32.2266,78.9795,89,1.4017,1.3116,31.9891,-46.9104,34,0.1861,10290,3.9424,111.1115
lg,1624655951983676335,0,-0.7629,-0.6406,0.7361,503,3.418,-40.3442,65.4297,89,1.3997,1.3156,32.9777,-44.6382,34,0.1861,9688,3.9424,114.7769
lg,1624655951983695408,0,-0.4282,-0.4385,1.0046,504,-19.4092,-143.6157,60.6689,89,1.3977,1.3176,30.0409,-41.0238,34,0.1861,8376,3.9424,121.9352
lg,1624655951983714500,0,-0.4121,-0.5645,0.553,505,-29.7241,-206.0547,37.4146,89,1.3977,1.3176,23.667,-40.238,34,0.1861,8806,3.9424,129.4151
lg,1624655951983733185,0,-0.1182,-1.0251,0.7605,506,-59.021,-233.8257,34.5459,89,1.3967,1.3186,16.7878,-40.5101,33,0.1861,8761,3.9424,136.7699
lg,1624655951983752037,0,0.2087,-0.9937,0.3914,507,-41.5039,-204.5288,6.958,89,1.3967,1.3196,9.8645,-41.8999,33,0.1881,8458,3.9424,142.222
lg,1624655951983770611,0,0.3928,-0.9961,0.4612,508,-0.5493,-69.7021,1.9531,89,1.3977,1.3216,6.7694,-42.4783,33,0.1901,8816,3.9424,144.034
lg,1624655951983788684,0,0.3853,-0.9683,0.5032,509,10.0098,-6.2866,-3.1738,89,1.3987,1.3226,6.8721,-42.7745,33,0.1911,8376,3.9424,142.2593
lg,1624655951983806277,0,0.1426,-0.9592,0.5513,510,21.3013,90.4541,-23.7427,89,1.4017,1.3226,8.315,-43.0137,33,0.1921,8817,3.9424,138.9885
lg,1624655951983824461,0,-0.1584,-0.9482,0.5728,511,29.0527,135.5591,-28.0151,89,1.3987,1.3196,11.4863,-43.2583,33,0.1901,8884,3.9424,134.3017
lg,1624655951983855535,0,-0.2983,-0.8032,0.4502,512,51.5747,86.3647,-26.7334,89,1.4067,1.3146,13.5477,-42.5505,33,0.1901,8862,3.9424,130.9581
lg,1624655952352125403,0,-0.3943,-0.7366,0.5112,513,-10.9253,17.334,33.3862,89,1.4077,1.3236,15.5325,-43.6943,33,0.1951,25716,3.9424,132.5564
lg,1624655952352167606,0,-0.2515,-0.5894,0.7517,514,16.9678,-60.791,71.9604,89,1.4027,1.3286,15.674,-41.7318,33,0.1961,15625,3.9424,136.5263
lg,1624655952352188736,0,-0.3809,-0.5706,0.5068,515,11.2915,-73.4863,40.6494,89,1.3987,1.3266,14.9714,-40.6474,33,0.1951,7892,3.9424,139.7463
lg,1624655952352209069,0,-0.2927,-0.7935,0.6165,516,-29.7852,-122.0703,56.3965,89,1.3957,1.3226,12.8306,-41.0597,33,0.1941,7926,3.9424,144.6823
lg,1624655952352228772,0,-0.0657,-0.9817,0.697,517,-23.5596,-129.8828,45.6543,89,1.3927,1.3166,9.7833,-41.5704,33,0.1931,8322,3.9424,149.4628
lg,1624655952352248123,0,0.0874,-0.9746,0.698,518,-9.4604,-117.5537,45.166,89,1.3907,1.3126,6.7062,-41.8439,33,0.1941,7940,3.9424,153.8951
lg,1624655952352267123,0,0.2463,-0.9155,0.5999,519,15.9302,1.0376,26.3062,89,1.3897,1.3136,6.6908,-41.685,33,0.1941,11319,3.9424,154.5866
lg,1624655952352286160,0,0.1956,-0.8938,0.5535,520,24.9634,35.8887,18.6157,89,1.3907,1.3166,7.9191,-41.2693,33,0.1961,8741,3.9424,153.2622
lg,1624655952352305159,0,0.0784,-0.8293,0.498,521,39.5508,78.4302,-0.7935,89,1.3927,1.3206,9.7743,-40.7038,33,0.1971,8369,3.9424,151.0516
lg,1624655952352323363,0,-0.144,-0.8369,0.5396,522,45.5933,129.0283,-10.437,89,1.3947,1.3236,13.3584,-40.2768,33,0.1961,8082,3.9424,147.1914
lg,1624655952352341770,0,-0.252,-0.8345,0.5215,523,47.7295,136.1084,-13.3667,89,1.3977,1.3246,17.1637,-39.9136,33,0.1961,8099,3.9424,142.996
lg,1624655952352384065,0,-0.3862,-0.7568,0.5518,524,53.9551,118.5303,-17.7612,89,1.3987,1.3256,20.5905,-39.4172,33,0.1931,9489,3.9424,139.0867
lg,1624655952352403787,0,-0.3396,-0.6726,0.6147,525,60.4858,77.7588,-11.2915,89,1.4017,1.3256,22.7138,-38.2338,33,0.1931,8865,3.9424,136.4932
lg,1624655952352423028,0,-0.231,-0.6372,0.5679,526,59.2651,44.7388,-8.0566,89,1.4037,1.3236,23.6384,-36.8552,33,0.1901,8100,3.9424,134.8628
lg,1624655952352441731,0,-0.1768,-0.7214,0.5564,527,52.9175,36.5601,-7.2632,89,1.4037,1.3206,24.218,-36.0021,33,0.1891,8116,3.9424,133.3078
lg,1624655952352464397,0,-0.1885,-0.7334,0.5347,528,54.4434,51.2085,-6.0425,89,1.4017,1.3126,25.2825,-35.2176,33,0.1871,8889,3.9424,131.4616
lg,1624655952352494563,0,-0.1521,-0.6975,0.499,529,64.5752,83.374,5.6152,89,1.4017,1.3116,27.5875,-34.3117,33,0.1861,8203,3.9424,129.1806
lg,1624655952352514896,0,-0.2104,-0.6167,0.449,530,64.6362,115.6616,11.3525,89,1.4007,1.3086,31.2257,-33.82,33,0.1861,8930,3.9424,126.2343
lg,1624655952352608747,0,-0.3723,-0.6213,0.5752,531,49.0723,133.606,28.1372,89,1.4007,1.3076,35.9859,-33.7885,33,0.1921,9049,3.9424,123.4747
lg,1624655952352629931,0,-0.4446,-0.6626,0.6106,532,44.6777,130.3101,38.4521,89,1.4027,1.3096,40.7776,-33.8955,33,0.1931,8326,3.9424,121.0285
lg,1624655952352648838,0,-0.5525,-0.6685,0.5857,533,51.0254,101.4404,41.3818,89,1.3987,1.3116,44.7238,-33.3325,33,0.1951,8710,3.9424,119.3889
lg,1624655952352667468,0,-0.655,-0.6592,0.5669,534,59.5703,59.5703,40.2222,89,1.4037,1.3116,47.3145,-31.5915,33,0.1951,8662,3.9424,118.9819
lg,1624655952352686412,0,-0.6816,-0.6248,0.5388,535,52.8564,-3.3569,49.6826,89,1.4047,1.3136,47.9408,-28.3056,33,0.1931,8340,3.9424,121.0554
lg,1624655952352705393,0,-0.6365,-0.5986,0.5469,536,46.4478,-41.5039,57.6782,89,1.4057,1.3166,47.0657,-24.2796,33,0.1941,8730,3.9424,124.5442
lg,1624655952352723448,0,-0.4741,-0.5493,0.5444,537,46.6309,-98.3887,67.8101,89,1.4057,1.3196,43.9406,-19.3663,33,0.1881,8416,3.9424,129.4893
lg,1624655952352741652,0,-0.3188,-0.5642,0.554,538,50.354,-124.6338,58.7769,89,1.4077,1.3206,39.2275,-15.3027,33,0.1901,9151,3.9424,133.592
lg,1624655952352760522,0,-0.0833,-0.5989,0.6506,539,60.8521,-136.3525,41.3208,89,1.4047,1.3226,33.2603,-12.0583,33,0.1921,9217,3.9424,136.3314
lg,1624655952352779058,0,-0.1331,-0.759,0.5288,540,60.8521,-118.7744,4.1504,89,1.4087,1.3206,28.0358,-10.7642,33,0.1931,8456,3.9424,136.6227
lg,1624655952352814539,0,-0.1243,-0.8274,0.6982,541,63.6597,-102.417,-0.4272,89,1.4087,1.3196,23.3694,-8.9845,33,0.1941,8447,3.9424,136.1916
lg,1624655952352834205,0,-0.1387,-0.8059,0.6719,542,91.0034,-104.9194,-23.7427,89,1.4087,1.3176,18.739,-7.0183,33,0.1931,9315,3.9424,135.1961
lg,1624655952352856335,0,-0.1907,-0.7344,0.6775,543,101.8066,-103.6377,-39.3066,89,1.4067,1.3146,14.3342,-4.7987,33,0.1941,8907,3.9424,133.523
lg,1624655952352876760,0,-0.1885,-0.636,0.6216,544,114.4409,-96.0083,-35.0952,89,1.4097,1.3136,10.4801,-1.9806,33,0.1961,8871,3.9424,131.9523
lg,1624655952722836937,0,-0.1921,-0.5432,0.7266,545,124.939,-51.8188,-1.2817,89,1.4097,1.3126,8.5515,1.7076,33,0.1971,27457,3.9424,131.674
lg,1624655952722872344,0,-0.1287,-0.5293,0.9531,546,109.6191,-65.8569,18.6157,89,1.4097,1.3136,5.8668,4.9898,33,0.1961,17079,3.9424,132.0921
lg,1624655952722892751,0,-0.071,-0.584,1.0312,547,94.7266,-85.3882,24.5972,89,1.4097,1.3126,2.3241,7.5233,33,0.1951,7883,3.9424,132.5638
lg,1624655952722912787,0,-0.032,-0.5923,1.0459,548,90.6372,-91.6748,25.5127,89,1.4107,1.3126,-1.4525,9.7742,33,0.1961,8073,3.9424,132.9629
lg,1624655952722950861,0,0.0352,-0.6257,1.1025,549,87.1582,-92.8955,23.4375,89,1.4097,1.3116,-5.282,11.796,33,0.1951,8723,3.9424,133.2228
lg,1624655952722970860,0,0.0725,-0.6128,1.093,550,84.3506,-82.1533,20.5688,89,1.4107,1.3116,-8.6303,13.6502,33,0.1961,8077,3.9424,133.4394
lg,1624655952722989416,0,0.093,-0.5857,1.1057,551,82.8857,-72.7539,21.7285,89,1.4117,1.3106,-11.1183,15.2987,33,0.1961,8212,3.9424,133.883
lg,1624655952723007712,0,0.0979,-0.5652,1.1018,552,78.9795,-49.2554,20.5688,89,1.4087,1.3036,-13.0876,16.8319,33,0.1961,8418,3.9424,134.438
lg,1624655952723025600,0,0.0898,-0.5408,1.071,553,77.2095,-25.2686,18.3716,89,1.4107,1.3086,-14.0653,18.2058,33,0.1961,8819,3.9424,135.2146
lg,1624655952723042785,0,0.0669,-0.5254,1.0557,554,76.9043,-6.7139,14.5874,89,1.4107,1.3066,-14.2426,19.5086,33,0.1971,8859,3.9424,136.1007
lg,1624655952723060285,0,0.0442,-0.4846,1.0967,555,76.416,16.8457,12.6953,89,1.4107,1.3066,-13.4652,20.7737,33,0.1961,10197,3.9424,137.2336
lg,1624655952723087247,0,0.0049,-0.4429,1.1531,556,73.3643,42.4194,10.8032,89,1.4107,1.3056,-11.6655,21.9191,33,0.1961,8821,3.9424,138.6487
lg,1624655952723104469,0,-0.0212,-0.4436,1.1746,557,69.7632,53.5889,8.7891,89,1.4107,1.3056,-9.4003,22.9077,33,0.1961,9101,3.9424,140.1386
lg,1624655952723122080,0,-0.1067,-0.447,1.1594,558,64.0869,71.0449,6.1035,89,1.4107,1.3046,-6.4419,23.6878,33,0.1961,8935,3.9424,141.767
lg,1624655952723139654,0,-0.1855,-0.4382,1.1658,559,59.7534,79.4678,7.6294,89,1.4107,1.3066,-3.1639,24.3635,33,0.1971,8468,3.9424,143.5292
lg,1624655952723156690,0,-0.2314,-0.4497,1.1482,560,54.4434,75.3174,7.2021,89,1.4107,1.3066,-0.054,24.8918,33,0.1961,8911,3.9424,145.1409
lg,1624655952723174005,0,-0.2502,-0.4343,1.1558,561,52.7954,67.688,6.7139,89,1.4117,1.3076,2.2811,25.3579,33,0.1971,8889,3.9424,146.287
lg,1624655952723191319,0,-0.248,-0.4211,1.1301,562,49.3164,37.3535,5.249,89,1.4107,1.3096,3.9273,25.7714,33,0.1971,8519,3.9424,147.0608
lg,1624655952723209486,0,-0.241,-0.2759,0.9614,563,46.5698,-10.376,0.2441,89,1.4107,1.3066,3.9684,26.1386,33,0.1971,12398,3.9424,146.7855
lg,1624655952723239837,0,-0.2454,-0.196,0.991,564,43.2739,-14.2212,4.7607,89,1.4107,1.3066,3.7637,26.2531,33,0.1981,9611,3.9424,146.9034
lg,1624655952723258115,0,-0.2434,-0.2249,1.0593,565,27.5879,-8.606,18.5547,89,1.4117,1.3056,3.5108,26.0071,33,0.1971,8183,3.9424,147.3254
lg,1624655952723275281,0,-0.2473,-0.3442,1.1438,566,13.855,-13.0615,30.2124,89,1.4107,1.3036,2.8779,25.0933,33,0.1971,8765,3.9424,148.0932
lg,1624655952723294521,0,-0.1914,-0.4021,1.1177,567,14.4653,-29.0527,32.7759,89,1.4107,1.3036,1.5594,24.1122,33,0.1971,9669,3.9424,148.7164
lg,1624655952723313058,0,-0.0989,-0.3574,1.063,568,17.4561,-34.2407,35.0952,89,1.4117,1.3026,-0.1002,23.2801,33,0.1971,8814,3.9424,149.4053
lg,1624655952723331132,0,-0.0608,-0.3445,1.0476,569,17.4561,-29.48,34.4849,89,1.4117,1.3016,-1.6635,22.4366,33,0.1971,8719,3.9424,150.2184
lg,1624655952723348502,0,-0.0164,-0.3689,1.0273,570,15.564,-11.5967,34.8511,89,1.4127,1.3016,-2.5298,21.4868,33,0.1971,8747,3.9424,151.3813
lg,1624655952723366242,0,-0.0271,-0.3867,1.0137,571,15.9912,8.9111,27.5879,89,1.4117,1.3016,-2.4624,20.5393,33,0.1971,9142,3.9424,152.6073
lg,1624655952723383872,0,-0.0847,-0.3723,1.0266,572,18.7378,25.7568,23.3154,89,1.4107,1.3006,-1.5701,19.7694,33,0.1951,9127,3.9424,153.9012
lg,1624655952723401390,0,-0.1741,-0.3369,1.0784,573,19.7144,33.9966,16.0522,89,1.4117,1.3006,-0.1123,19.1827,33,0.1951,10278,3.9424,154.9962
lg,1624655952723418797,0,-0.2495,-0.3184,1.0962,574,19.5923,23.6206,13.2446,89,1.4127,1.3006,1.0939,18.6841,33,0.1961,9179,3.9424,155.8045
lg,1624655952723437185,0,-0.2803,-0.2847,1.1228,575,18.3105,9.9487,11.9019,89,1.4127,1.2996,1.346,18.1827,33,0.1951,8695,3.9424,156.1417
lg,1624655952723455407,0,-0.2944,-0.2542,1.1387,576,13.1836,-16.6626,12.3291,89,1.4087,1.2996,1.0723,17.5854,33,0.1961,8531,3.9424,156.3756
lg,1624655953100549345,0,-0.1809,-0.3149,1.1631,577,-2.1362,-54.5654,19.104,89,1.4117,1.2976,-1.1701,16.2309,33,0.1961,26065,3.9424,156.3375
lg,1624655953100589567,0,-0.0554,-0.3674,1.0537,578,-3.54,-65.7349,14.8926,89,1.4117,1.2976,-3.7025,14.7765,33,0.1961,9203,3.9424,156.2314
lg,1624655953100636085,0,0.0164,-0.325,1.0029,579,-0.6104,-52.9175,13.4888,89,1.4117,1.2986,-5.7893,13.518,33,0.1971,8434,3.9424,156.3148
lg,1624655953100657603,0,0.0137,-0.3501,0.9778,580,2.0752,-26.1841,11.9019,89,1.4117,1.2986,-6.7487,12.3228,33,0.1971,9440,3.9424,156.6709
lg,1624655953100676899,0,0.0063,-0.3403,0.9644,581,3.3569,-11.9629,10.8643,89,1.4127,1.2976,-7.0053,11.1949,33,0.1971,8425,3.9424,157.1427
lg,1624655953100695491,0,-0.0505,-0.321,0.9438,582,6.958,2.5024,8.9111,89,1.4117,1.2976,-6.5699,10.3362,33,0.1981,10086,3.9424,157.6455
lg,1624655953100714194,0,-0.1223,-0.2002,0.9043,583,7.6904,3.54,12.6343,89,1.4127,1.2976,-5.9846,9.7057,33,0.1971,12685,3.9424,158.2694
lg,1624655953100733101,0,-0.1555,-0.2166,0.9841,584,-0.3052,3.7842,20.5688,89,1.4127,1.2966,-5.4054,8.7606,33,0.1971,8509,3.9424,159.1944
lg,1624655953100751509,0,-0.158,-0.2563,1.011,585,-4.6387,1.4038,23.8647,89,1.4127,1.2966,-4.9512,7.6082,33,0.1971,8466,3.9424,160.2293
lg,1624655953100769675,0,-0.175,-0.334,1.062,586,-5.9204,-11.8408,25.5127,89,1.4127,1.2956,-5.0154,6.3347,33,0.1961,8561,3.9424,161.2651
lg,1624655953100788119,0,-0.1357,-0.3418,1.0642,587,-2.9297,-27.832,24.7192,89,1.4127,1.2956,-5.7647,5.2096,33,0.1961,8570,3.9424,162.2175
lg,1624655953100805434,0,-0.1008,-0.3574,1.0361,588,-2.8076,-33.3252,23.0103,89,1.4127,1.3006,-6.9258,4.1029,33,0.1971,8914,3.9424,163.0332
lg,1624655953100822970,0,-0.0486,-0.3267,1.0247,589,-2.3193,-40.1611,16.9678,89,1.4117,1.2946,-8.208,3.0847,33,0.1961,10515,3.9424,163.7147
lg,1624655953100840229,0,-0.0305,-0.3474,1.0256,590,-1.8311,-37.9028,15.3809,89,1.4117,1.2936,-9.3781,2.0748,33,0.1961,8663,3.9424,164.3869
lg,1624655953100857433,0,0.0125,-0.3376,1.0103,591,-0.4272,-27.8931,14.0991,89,1.4107,1.2946,-10.1821,1.1577,33,0.1961,8678,3.9424,165.0574
lg,1624655953100875266,0,0.0022,-0.345,1.0232,592,1.1597,-12.5732,12.146,89,1.4127,1.2936,-10.3132,0.3369,33,0.1971,8690,3.9424,165.6811
lg,1624655953100894154,0,-0.0427,-0.3401,1.0139,593,2.1973,-0.6104,10.1318,89,1.4117,1.2936,-9.8609,-0.3922,33,0.1961,8735,3.9424,166.2245
lg,1624655953100923450,0,-0.0481,-0.3318,1.0264,594,2.7466,2.1973,9.1553,89,1.4117,1.2926,-9.2408,-0.9982,33,0.1961,8687,3.9424,166.7051
lg,1624655953100944042,0,-0.0852,-0.314,1.0393,595,3.0518,0.6714,10.5591,89,1.4117,1.2926,-8.6772,-1.5662,33,0.1961,8737,3.9424,167.2305
lg,1624655953100962023,0,-0.0916,-0.335,1.0378,596,2.1362,-3.2959,12.6953,89,1.4117,1.2926,-8.2742,-2.1989,33,0.1941,8763,3.9424,167.8431
lg,1624655953100979838,0,-0.1074,-0.335,1.0486,597,1.8311,-6.5308,14.0991,89,1.4127,1.2926,-7.9759,-2.8172,33,0.1961,8844,3.9424,168.5096
lg,1624655953100997078,0,-0.0667,-0.3335,1.0225,598,1.709,-7.4463,15.8691,89,1.4127,1.2926,-7.8092,-3.4344,33,0.1961,8803,3.9424,169.2919
lg,1624655953101014541,0,-0.0576,-0.3386,1.0403,599,2.2583,-7.3853,17.5781,89,1.4117,1.2926,-7.6388,-4.0172,33,0.1951,8863,3.9424,170.0963
lg,1624655953101034392,0,-0.0566,-0.3267,1.0178,600,2.1362,-3.9673,17.7612,89,1.4137,1.2926,-7.3296,-4.5695,33,0.1951,8947,3.9424,170.8939
lg,1624655953101052207,0,-0.0486,-0.3352,0.9954,601,1.8921,1.709,17.5171,89,1.4127,1.2926,-6.8158,-5.1326,33,0.1951,8972,3.9424,-188.339
lg,1624655953101069558,0,-0.0635,-0.3208,1.0244,602,2.1973,7.2632,16.6016,89,1.4127,1.2926,-6.0679,-5.5989,33,0.1951,8927,3.9424,-187.6448
lg,1624655953101086854,0,-0.0671,-0.3174,1.0117,603,1.8311,8.5449,15.5029,89,1.4127,1.2926,-5.2143,-6.0576,33,0.1951,8978,3.9424,-187.0088
lg,1624655953101104595,0,-0.1067,-0.3127,1.0371,604,2.2583,8.8501,15.564,89,1.4107,1.2926,-4.3714,-6.4361,33,0.1941,8974,3.9424,-186.3893
lg,1624655953101121521,0,-0.1035,-0.3088,1.0212,605,2.3193,4.7607,13.916,89,1.4107,1.2926,-3.7298,-6.7877,33,0.1941,8999,3.9424,-185.8268
lg,1624655953101150705,0,-0.1028,-0.3271,1.0261,606,2.0142,-1.709,13.7939,89,1.4137,1.2936,-3.37,-7.1678,33,0.1951,9031,3.9424,-185.2428
lg,1624655953101168686,0,-0.0852,-0.3328,1.0269,607,3.2349,-4.1504,13.4277,90,1.4137,1.2926,-3.1557,-7.4925,33,0.1951,8596,3.9435,-184.6636
lg,1624655953101188834,0,-0.0933,-0.2993,1.0093,608,3.418,-4.1504,12.3901,90,1.4137,1.2936,-2.9305,-7.7366,33,0.1951,10240,3.9435,-184.1306
lg,1624655953477451364,0,-0.1133,-0.3308,1.0254,609,3.418,-7.5684,12.3901,90,1.4137,1.2936,-3.0454,-7.9535,33,0.1951,27372,3.9435,-183.5781
lg,1624655953477498955,0,-0.0891,-0.3091,1.0254,610,3.2959,-16.6016,15.2588,90,1.4147,1.2936,-3.316,-8.2,33,0.1951,8711,3.9435,-182.8615
lg,1624655953477520214,0,-0.0671,-0.2991,1.0234,611,2.4414,-18.6768,15.3198,90,1.4147,1.2936,-3.6909,-8.4635,33,0.1951,7939,3.9435,-182.1272
lg,1624655953477540992,0,-0.0454,-0.2944,1.0254,612,2.2583,-16.4795,16.4185,90,1.4137,1.2936,-4.0004,-8.7203,33,0.1951,7929,3.9435,-181.3586
lg,1624655953477560473,0,-0.0454,-0.3069,1.0286,613,2.3193,-15.5029,16.4185,90,1.4147,1.2936,-4.2565,-8.9913,33,0.1951,7931,3.9435,-180.5906
lg,1624655953477579713,0,-0.0618,-0.3264,1.0271,614,2.9907,-13.3667,16.6626,90,1.4147,1.2946,-4.3799,-9.2669,33,0.1951,9234,3.9435,-179.8206
lg,1624655953477597917,0,-0.0337,-0.3147,1.0105,615,3.0518,-10.8032,16.5405,90,1.4147,1.2936,-4.4522,-9.5164,33,0.1951,8525,3.9435,-179.071
lg,1624655953477616898,0,-0.0452,-0.3203,1.0061,616,3.54,-9.0332,15.1367,90,1.4137,1.2936,-4.3922,-9.7368,33,0.1951,8185,3.9435,-178.3742
lg,1624655953477636120,0,-0.0435,-0.3201,1.0269,617,4.5776,-6.3477,14.4653,90,1.4127,1.2946,-4.2783,-9.898,33,0.1951,8069,3.9435,-177.7361
lg,1624655953477657267,0,-0.0625,-0.3379,1.0254,618,5.188,-4.5166,14.6484,90,1.4147,1.2946,-4.0549,-10.0623,33,0.1961,8012,3.9435,-177.1017
lg,1624655953477676008,0,-0.0762,-0.3174,1.0093,619,5.0049,-5.3711,14.2212,90,1.4147,1.2946,-3.8434,-10.1932,33,0.1961,8817,3.9435,-176.4819
lg,1624655953477693748,0,-0.0935,-0.3049,1.0186,620,5.4932,-6.5918,13.4277,90,1.4127,1.2916,-3.6567,-10.2646,33,0.1971,8059,3.9435,-175.8881
lg,1624655953477711655,0,-0.0828,-0.2881,1.021,621,5.0659,-12.207,12.085,90,1.4147,1.2946,-3.7285,-10.3132,33,0.1961,8823,3.9435,-175.31
lg,1624655953477730525,0,-0.0693,-0.3054,1.02,622,3.3569,-15.1978,13.1836,90,1.4147,1.2946,-3.9348,-10.4699,33,0.1971,8498,3.9435,-174.6639
lg,1624655953477786654,0,-0.0605,-0.2959,1.0166,623,2.5024,-17.2729,13.3057,90,1.4147,1.2946,-4.2292,-10.6416,33,0.1981,8133,3.9435,-173.9967
lg,1624655953477809654,0,-0.0361,-0.3008,1.0232,624,1.6479,-16.8457,15.2588,90,1.4157,1.2956,-4.531,-10.856,33,0.1971,8549,3.9435,-173.2525
lg,1624655953477829079,0,-0.0347,-0.3157,1.0254,625,0.1221,-14.4653,15.3198,90,1.4147,1.2946,-4.7276,-11.1538,33,0.1971,11720,3.9435,-172.5188
lg,1624655953477847245,0,-0.0232,-0.3328,1.0364,626,1.3428,-12.3901,15.1978,90,1.4117,1.2946,-4.8578,-11.4189,33,0.1981,8987,3.9435,-171.8017
lg,1624655953477865023,0,-0.0286,-0.3201,1.0251,627,1.8921,-9.7656,15.9912,90,1.4147,1.2956,-4.8589,-11.6351,33,0.1991,8985,3.9435,-171.0747
lg,1624655953477883782,0,-0.0427,-0.3179,1.0195,628,2.2583,-7.1411,13.3667,90,1.4147,1.2946,-4.7266,-11.8111,33,0.2011,13413,3.9435,-170.4137
lg,1624655953477902504,0,-0.0544,-0.3281,1.0186,629,2.9297,-6.2256,13.7939,90,1.4147,1.2946,-4.5539,-11.9786,33,0.2021,8778,3.9435,-169.801
lg,1624655953477920355,0,-0.0549,-0.3037,1.0144,630,2.9297,-7.0801,12.7563,90,1.4147,1.2956,-4.4259,-12.0882,33,0.2021,8799,3.9435,-169.2265
lg,1624655953477939077,0,-0.0667,-0.3066,1.019,631,2.5024,-9.2773,11.3525,90,1.4147,1.2956,-4.3751,-12.2099,33,0.2021,8843,3.9435,-168.6887
lg,1624655953477957429,0,-0.0398,-0.3113,1.02,632,2.6245,-14.4653,12.5732,90,1.4147,1.2956,-4.5737,-12.3388,33,0.2021,9630,3.9435,-168.0579
lg,1624655953477976336,0,-0.0203,-0.2991,1.0193,633,1.5869,-16.9678,13.0005,90,1.4147,1.2946,-4.8976,-12.4857,33,0.2021,9277,3.9435,-167.389
lg,1624655953477995039,0,-0.0002,-0.2947,1.0249,634,1.5869,-15.8691,13.5498,90,1.4137,1.2956,-5.2422,-12.6469,33,0.2031,8952,3.9435,-166.7048
lg,1624655953478013168,0,0.012,-0.3083,1.0017,635,2.3193,-9.3994,14.5264,90,1.4137,1.2896,-5.2975,-12.7882,33,0.2021,8914,3.9435,-166.0363
lg,1624655953478032298,0,0.0024,-0.3245,1.0193,636,2.7466,-0.6714,13.2446,90,1.4087,1.2946,-5.0008,-12.9158,33,0.2031,8914,3.9435,-165.4941
lg,1624655953478052094,0,-0.0188,-0.3191,1.0134,637,3.7231,5.4321,13.916,90,1.4137,1.2956,-4.4266,-12.9856,33,0.2021,8926,3.9435,-164.9833
lg,1624655953478070204,0,-0.04,-0.3105,1.0164,638,3.54,8.2397,13.5498,90,1.4137,1.2956,-3.7238,-13.0321,33,0.2021,8975,3.9435,-164.5164
lg,1624655953478112611,0,-0.0586,-0.2861,1.0132,639,3.54,7.8125,14.2822,90,1.4137,1.2956,-3.0262,-13.0447,33,0.2031,9017,3.9435,-164.0639
lg,1624655953478135259,0,-0.0674,-0.3074,1.0198,640,3.3569,5.3711,14.0381,90,1.4137,1.2966,-2.4276,-13.0786,33,0.2031,9044,3.9435,-163.5573
lg,1624655953854168589,0,-0.041,-0.2959,1.01,641,2.0752,-7.2632,13.7939,90,1.4157,1.2966,-2.3996,-13.1464,33,0.2031,26602,3.9435,-162.948
lg,1624655953854295642,0,-0.0317,-0.2966,0.9966,642,2.8076,-8.4839,14.5874,90,1.4157,1.2966,-2.4694,-13.1957,33,0.2031,17615,3.9435,-162.2961
lg,1624655953854324290,0,-0.0271,-0.2952,1.0166,643,3.2349,-3.6011,13.7939,90,1.4157,1.2966,-2.3269,-13.2057,33,0.2031,8420,3.9435,-161.7204
lg,1624655953854343752,0,-0.0305,-0.2991,1.0122,644,3.479,1.9531,12.9395,90,1.4157,1.2966,-1.9748,-13.2106,33,0.2031,8468,3.9435,-161.2289
lg,1624655953854362807,0,-0.0535,-0.3027,1.0205,645,3.1738,3.9062,14.0991,90,1.4157,1.2976,-1.4454,-13.2279,33,0.2041,8495,3.9435,-160.7571
lg,1624655953854381418,0,-0.0645,-0.2927,1.0293,646,2.8687,5.0049,14.2212,90,1.4157,1.2976,-0.9545,-13.2216,33,0.2041,9847,3.9435,-160.1924
lg,1624655953854401622,0,-0.0886,-0.3015,1.03,647,3.1128,0.9766,16.3574,90,1.4137,1.2946,-0.5424,-13.2243,33,0.2041,8841,3.9435,-159.5623
lg,1624655953854420881,0,-0.071,-0.2886,1.0281,648,2.6855,-4.3335,13.3057,90,1.4157,1.2976,-0.5218,-13.248,33,0.2051,11627,3.9435,-158.941
lg,1624655953854439639,0,-0.0708,-0.2883,1.0361,649,1.2817,-9.5825,14.7705,90,1.4157,1.2976,-0.5882,-13.2908,33,0.2051,8555,3.9435,-158.2769
lg,1624655953854457176,0,-0.0276,-0.2925,1.0376,650,0.7324,-15.0757,15.3809,90,1.4157,1.2976,-0.9496,-13.365,33,0.2051,10147,3.9435,-157.5378
lg,1624655953854476898,0,0.0146,-0.3062,1.019,651,-0.2441,-12.8174,15.9302,90,1.4157,1.2976,-1.2918,-13.5185,33,0.2051,8556,3.9435,-156.7963
lg,1624655953854495601,0,0.0098,-0.2844,1.0159,652,-0.4272,-5.7373,15.3198,90,1.4167,1.2976,-1.3398,-13.6309,33,0.2051,8628,3.9435,-156.1447
lg,1624655953854515823,0,0.0027,-0.3069,1.0217,653,0.6714,1.6479,14.8315,90,1.4157,1.2966,-1.0881,-13.7346,33,0.2041,10340,3.9435,-155.5811
lg,1624655953854533804,0,-0.0344,-0.3149,1.0227,654,0.9766,7.1411,15.3198,90,1.4157,1.2976,-0.5495,-13.8334,33,0.2051,8640,3.9435,-155.0518
lg,1624655953854554434,0,-0.0422,-0.3018,1.032,655,0.9766,8.0566,14.4043,90,1.4157,1.2976,0.0113,-13.8906,33,0.2041,8626,3.9435,-154.5691
lg,1624655953854643914,0,-0.0515,-0.3022,1.0229,656,0.8545,7.1411,14.8926,90,1.4157,1.2976,0.5398,-13.952,33,0.2041,8666,3.9435,-154.0599
lg,1624655953854672950,0,-0.0657,-0.3035,1.0178,657,0.9766,3.8452,14.1602,90,1.4167,1.2976,0.9439,-14.0074,33,0.2051,8683,3.9435,-153.5486
lg,1624655953854691302,0,-0.0686,-0.3088,1.0215,658,0.8545,0.1831,14.6484,90,1.4157,1.2966,1.2011,-14.0703,33,0.2051,8721,3.9435,-152.9837
lg,1624655953854710746,0,-0.0706,-0.2915,1.0278,659,0.5493,-1.1597,15.0146,90,1.4157,1.2966,1.3411,-14.1049,33,0.2051,9202,3.9435,-152.4316
lg,1624655953854728597,0,-0.072,-0.3086,1.0183,660,0.4883,-3.418,14.4653,90,1.4157,1.2976,1.413,-14.1713,33,0.2041,8806,3.9435,-151.8376
lg,1624655953854747597,0,-0.0706,-0.2981,1.0168,661,0.061,-5.8594,14.5874,90,1.4157,1.2976,1.4243,-14.2353,33,0.2041,8825,3.9435,-151.2161
lg,1624655953854764189,0,-0.0691,-0.3037,1.0283,662,0.061,-8.606,16.2964,90,1.4157,1.2976,1.3417,-14.2995,33,0.2031,8851,3.9435,-150.5013
lg,1624655953854785541,0,-0.0532,-0.2991,1.0154,663,-0.5493,-11.5967,15.8081,90,1.4167,1.2976,1.1111,-14.3856,33,0.2031,8888,3.9435,-149.7753
lg,1624655953854804337,0,-0.0532,-0.2949,1.0244,664,-0.1221,-13.916,16.6016,90,1.4157,1.2986,0.8081,-14.4398,33,0.2041,8461,3.9435,-148.9943
lg,1624655953854824059,0,-0.0391,-0.3044,1.0093,665,-0.061,-13.9771,14.4043,90,1.4167,1.2976,0.4809,-14.532,33,0.2041,8881,3.9435,-148.3459
lg,1624655953854842373,0,-0.0393,-0.3042,1.019,666,-0.7324,-14.6484,14.5264,90,1.4157,1.2976,0.1268,-14.6362,33,0.2041,8898,3.9435,-147.6364
lg,1624655953854859280,0,-0.042,-0.304,1.0327,667,-1.0986,-15.4419,16.0522,90,1.4177,1.2976,-0.2223,-14.7466,33,0.2041,8967,3.9435,-146.8584
lg,1624655953854876706,0,-0.04,-0.2988,1.0254,668,-1.0376,-16.8457,15.5029,90,1.4157,1.2986,-0.6192,-14.8491,33,0.2031,9022,3.9435,-146.0862
lg,1624655953854894039,0,-0.0281,-0.3076,1.0344,669,-0.6104,-17.1509,16.9678,90,1.4167,1.2976,-1.0216,-14.9492,33,0.2041,9084,3.9435,-145.2527
lg,1624655953854913390,0,-0.0464,-0.2957,1.0361,670,-1.0376,-17.0288,15.686,90,1.4167,1.2976,-1.4037,-15.0378,33,0.2041,9028,3.9435,-144.429
lg,1624655953854931242,0,-0.0403,-0.2979,1.0225,671,-1.1597,-18.1274,16.4795,90,1.4167,1.2976,-1.82,-15.1314,33,0.2041,9660,3.9435,-143.6016
lg,1624655953854948575,0,-0.0291,-0.304,1.0352,672,-0.1221,-16.7236,16.9067,90,1.4157,1.2976,-2.1528,-15.2098,33,0.2041,9127,3.9435,-142.7715
lg,1624655954228726340,0,0.0127,-0.2969,1.0178,673,0.4883,-19.043,15.8691,90,1.4177,1.2996,-2.6928,-15.279,33,0.2041,28070,3.9435,-141.9555
lg,1624655954228767747,0,0.0422,-0.3015,1.0171,674,1.0376,-14.5264,17.7612,90,1.4177,1.2986,-3.0467,-15.3244,33,0.2041,10590,3.9435,-141.1133
lg,1624655954228788154,0,0.0347,-0.3071,1.0154,675,1.2207,-6.897,14.8926,90,1.4177,1.2996,-3.1069,-15.3661,33,0.2041,8591,3.9435,-140.4618
lg,1624655954228831116,0,0.0273,-0.2964,1.03,676,1.4038,-2.5024,15.5029,90,1.4177,1.2996,-2.9728,-15.3665,33,0.2041,9827,3.9435,-139.8352
lg,1624655954228852782,0,-0.0071,-0.303,1.0183,677,1.4038,-0.1831,14.5264,90,1.4177,1.2996,-2.6611,-15.3815,33,0.2041,8450,3.9435,-139.2762
lg,1624655954228871874,0,-0.0098,-0.3008,1.0298,678,1.8921,1.4038,14.2822,90,1.4167,1.2996,-2.3291,-15.361,33,0.2041,8982,3.9435,-138.7383
lg,1624655954228890467,0,-0.0166,-0.2917,1.0303,679,1.9531,2.5635,12.2681,90,1.4157,1.2986,-1.9728,-15.3137,33,0.2031,9062,3.9435,-138.2913
lg,1624655954228908374,0,-0.0308,-0.2917,1.0022,680,2.0142,1.2817,11.6577,90,1.4167,1.2986,-1.6552,-15.2794,33,0.2041,8497,3.9435,-137.8537
lg,1624655954228931022,0,-0.0298,-0.3003,1.0264,681,1.5869,-0.6714,14.5874,90,1.4167,1.2986,-1.3983,-15.268,33,0.2041,8571,3.9435,-137.2824
lg,1624655954228949355,0,-0.0457,-0.3005,1.0103,682,1.2817,-1.5869,13.4888,90,1.4167,1.2986,-1.1331,-15.2664,33,0.2041,8514,3.9435,-136.744
lg,1624655954228967502,0,-0.0447,-0.2976,1.0303,683,1.2207,-4.6997,14.6484,90,1.4137,1.2986,-1.02,-15.2587,33,0.2041,8597,3.9435,-136.1284
lg,1624655954228984391,0,-0.0415,-0.3088,1.021,684,0.9766,-7.0801,13.7939,90,1.4167,1.2986,-1.0181,-15.2887,33,0.2051,8633,3.9435,-135.5202
lg,1624655954229048982,0,-0.0178,-0.2976,1.0288,685,0.1831,-9.7046,15.8691,90,1.4167,1.2986,-1.1453,-15.3243,33,0.2041,8692,3.9435,-134.8047
lg,1624655954229079723,0,-0.0098,-0.3167,1.0303,686,0.5493,-10.437,17.5781,90,1.4167,1.2986,-1.2853,-15.3589,33,0.2041,8635,3.9435,-134.0149
lg,1624655954229099870,0,0.0081,-0.3091,1.0247,687,-0.1831,-9.6436,16.2354,90,1.4167,1.2996,-1.4493,-15.436,33,0.2041,8648,3.9435,-133.2848
lg,1624655954229121426,0,0.011,-0.3118,1.0298,688,-0.1831,-6.4697,17.2119,90,1.4167,1.2986,-1.4796,-15.5137,33,0.2041,8664,3.9435,-132.5506
lg,1624655954229143351,0,0.0007,-0.3071,1.0483,689,0.4883,-2.9907,16.7847,90,1.4177,1.2986,-1.3573,-15.5392,33,0.2051,8687,3.9435,-131.8708
lg,1624655954229163888,0,-0.0022,-0.2964,1.0369,690,0.7324,-2.3804,16.5405,90,1.4167,1.2996,-1.2015,-15.54,33,0.2051,8705,3.9435,-131.2439
lg,1624655954229235516,0,0.0002,-0.3005,1.0195,691,0.3052,-0.6104,16.2964,90,1.4157,1.2956,-1.0028,-15.5709,33,0.2051,8753,3.9435,-130.6087
lg,1624655954229257386,0,-0.0103,-0.2993,1.0164,692,0.5493,-1.0986,15.5029,90,1.4177,1.2996,-0.8165,-15.5878,33,0.2051,13230,3.9435,-129.999
lg,1624655954229275590,0,-0.0161,-0.2922,1.0352,693,0.061,-2.0752,15.2588,90,1.4177,1.2996,-0.7017,-15.589,33,0.2051,8731,3.9435,-129.4082
lg,1624655954229293700,0,-0.0098,-0.3081,1.0354,694,0.4883,-3.9062,15.9302,90,1.4177,1.2996,-0.6318,-15.6119,33,0.2051,8908,3.9435,-128.752
lg,1624655954229312126,0,0.0012,-0.2944,1.0227,695,0.6104,-3.7842,14.2212,90,1.4177,1.2996,-0.6014,-15.6076,33,0.2061,9710,3.9435,-128.1632
lg,1624655954229331255,0,0.0105,-0.2952,1.0227,696,0.2441,-3.7842,14.6484,90,1.4177,1.2996,-0.5874,-15.6194,33,0.2061,9795,3.9435,-127.558
lg,1624655954229350329,0,0.0093,-0.293,1.0068,697,0.1831,-3.1738,14.8926,90,1.4117,1.2996,-0.5454,-15.6379,33,0.2061,9071,3.9435,-126.9499
lg,1624655954229369329,0,-0.0029,-0.2949,1.019,698,0.3662,-2.1362,15.1367,90,1.4177,1.2986,-0.4362,-15.6443,33,0.2051,8851,3.9435,-126.3437
lg,1624655954229388032,0,-0.009,-0.2964,1.0266,699,0.5493,0.1221,14.0991,90,1.4167,1.2996,-0.2429,-15.6396,33,0.2061,8887,3.9435,-125.8019
lg,1624655954229405847,0,-0.0142,-0.2983,1.0308,700,0.7935,0.5493,15.686,90,1.4177,1.2996,-0.0037,-15.6368,33,0.2061,8857,3.9435,-125.2037
lg,1624655954229422365,0,-0.0154,-0.3083,1.0166,701,1.2817,0.9766,14.4653,90,1.4167,1.2946,0.2227,-15.6294,33,0.2061,8906,3.9435,-124.6571
lg,1624655954229440901,0,-0.0259,-0.2886,1.0217,702,0.6714,-0.1221,15.1978,90,1.4167,1.2996,0.428,-15.6008,33,0.2061,8975,3.9435,-124.0704
lg,1624655954229459697,0,-0.0337,-0.2942,1.0117,703,0.3662,-2.6245,16.2354,90,1.4167,1.2996,0.5573,-15.6007,33,0.2061,9043,3.9435,-123.4169
lg,1624655954229499771,0,-0.04,-0.304,1.0227,704,0.2441,-4.6387,15.9912,90,1.4167,1.3006,0.6143,-15.6177,33,0.2061,9035,3.9435,-122.7511
lg,1624655954606764839,0,-0.019,-0.3083,1.0217,705,-0.5493,-8.3008,16.7236,90,1.4187,1.3006,0.4939,-15.6232,33,0.2061,27974,3.9435,-121.9718
lg,1624655954606805208,0,-0.0151,-0.2993,1.0195,706,0.061,-6.7139,16.2964,90,1.4187,1.3006,0.4245,-15.6403,33,0.2061,9180,3.9435,-121.2718
lg,1624655954606826078,0,-0.0083,-0.2942,1.0156,707,-0.2441,-6.1646,17.334,90,1.4187,1.3006,0.3758,-15.6611,33,0.2061,8342,3.9435,-120.5377
lg,1624655954606845633,0,-0.0024,-0.301,1.0364,708,0.1831,-4.9438,15.9302,90,1.4187,1.3006,0.3483,-15.6666,33,0.2061,8358,3.9435,-119.8708
lg,1624655954606865300,0,0.0056,-0.2957,1.0193,709,0.2441,-5.4932,17.1509,90,1.4187,1.3006,0.2968,-15.6688,33,0.2061,8453,3.9435,-119.1511
lg,1624655954606884336,0,0.0073,-0.3,1.0222,710,-0.3052,-6.6528,15.8691,90,1.4187,1.3006,0.1857,-15.7012,33,0.2071,8990,3.9435,-118.468
lg,1624655954606902929,0,-0.002,-0.3066,1.0239,711,0,-5.127,17.0898,90,1.4177,1.3006,0.1709,-15.7333,33,0.2071,10780,3.9435,-117.7546
lg,1624655954606921243,0,0.0212,-0.3047,1.0254,712,-0.3052,-3.6621,17.395,90,1.4187,1.3016,0.1675,-15.7715,33,0.2081,12675,3.9435,-117.0453
lg,1624655954606939558,0,0.002,-0.2996,1.0305,713,0.3052,0.9155,16.9678,90,1.4187,1.3006,0.3762,-15.7694,33,0.2071,8542,3.9435,-116.4023
lg,1624655954606960076,0,-0.0193,-0.2983,1.0203,714,0.7935,1.0986,15.0757,90,1.4187,1.3006,0.6083,-15.7497,33,0.2071,8470,3.9435,-115.8342
lg,1624655954606978946,0,-0.0334,-0.2988,1.0334,715,0.6714,0.6104,16.0522,92,1.4187,1.3006,0.8521,-15.7259,33,0.2071,8512,3.9435,-115.223
lg,1624655954606998260,0,-0.0403,-0.2961,1.0356,716,0.1221,-2.3193,15.7471,92,1.4187,1.3006,0.9846,-15.7159,33,0.2071,8546,3.9435,-114.5915
lg,1624655954607017297,0,-0.0134,-0.3086,1.0249,717,0.8545,-5.9204,15.1367,92,1.4177,1.3016,0.9106,-15.7082,33,0.2071,8925,3.9435,-113.9451
lg,1624655954607034593,0,-0.0071,-0.3042,1.0457,718,0.7324,-7.9346,17.5781,92,1.4177,1.3026,0.7748,-15.6839,33,0.2071,8644,3.9435,-113.1824
lg,1624655954607052945,0,0.0046,-0.3015,1.03,719,0.7324,-7.3853,14.8926,92,1.4187,1.3006,0.6303,-15.6642,33,0.2071,8637,3.9435,-112.5631
lg,1624655954607115481,0,-0.0037,-0.2922,1.0254,720,1.0376,-4.8828,14.7705,92,1.4167,1.2976,0.5849,-15.6217,33,0.2081,8637,3.9435,-111.9416
lg,1624655954607142313,0,0.0029,-0.2805,1.02,721,1.6479,-3.6621,16.1133,92,1.4177,1.3016,0.5878,-15.5354,33,0.2071,8723,3.9435,-111.2813
lg,1624655954607159776,0,-0.0098,-0.3066,1.0225,722,1.5869,-1.3428,14.1602,92,1.4177,1.3006,0.6851,-15.5076,33,0.2081,8719,3.9435,-110.7217
lg,1624655954607177257,0,-0.0229,-0.302,1.0203,723,1.0376,-0.7324,14.4653,92,1.4187,1.3006,0.8232,-15.499,33,0.2081,8744,3.9435,-110.2021
lg,1624655954607196016,0,-0.0127,-0.3074,1.0256,724,0.6714,-1.0376,14.8315,92,1.4167,1.3006,0.936,-15.5061,33,0.2081,8757,3.9435,-109.62
lg,1624655954607214627,0,-0.0295,-0.3218,1.0291,725,0.7935,-1.5869,15.1978,92,1.4197,1.3006,1.0625,-15.5334,33,0.2081,8750,3.9435,-109.0184
lg,1624655954607232053,0,-0.0295,-0.2996,1.0178,726,0.4272,-4.0894,16.0522,92,1.4187,1.3006,1.0982,-15.534,33,0.2071,8800,3.9435,-108.3564
lg,1624655954607252089,0,-0.0222,-0.3032,1.0447,727,0.3052,-4.4556,15.686,92,1.4177,1.3006,1.0977,-15.531,33,0.2081,8844,3.9435,-107.7044
lg,1624655954607271070,0,-0.0293,-0.2969,1.0264,728,-0.3662,-5.3101,15.7471,92,1.4177,1.3016,1.0306,-15.5564,33,0.2081,8863,3.9435,-107.041
lg,1624655954607290792,0,-0.0081,-0.2878,1.0303,729,0.4272,-5.7983,16.9678,92,1.4177,1.3006,0.9734,-15.5518,33,0.2081,9258,3.9435,-106.3253
lg,1624655954607309885,0,0.0027,-0.2957,1.0286,730,0.6104,-5.4932,17.0898,92,1.4187,1.3006,0.9011,-15.5308,33,0.2081,8890,3.9435,-105.608
lg,1624655954607331347,0,-0.0046,-0.3008,1.033,731,1.0376,-4.2114,16.6016,92,1.4177,1.3016,0.8909,-15.5025,33,0.2081,8907,3.9435,-104.9234
lg,1624655954607350736,0,-0.01,-0.2971,1.0364,732,0.6104,-2.6855,16.4795,92,1.4177,1.3006,0.9493,-15.4829,33,0.2081,8961,3.9435,-104.2598
lg,1624655954607368846,0,-0.0144,-0.3037,1.032,733,0.9766,-2.3193,16.2964,92,1.4177,1.3016,1.0267,-15.4649,33,0.2081,8933,3.9435,-103.6073
lg,1624655954607386865,0,-0.0007,-0.2964,1.0208,734,1.0376,-3.1738,15.686,92,1.4187,1.3006,1.0325,-15.4367,33,0.2081,9000,3.9435,-102.9691
lg,1624655954607429049,0,-0.0022,-0.2896,1.0254,735,0.4272,-2.5024,16.1743,92,1.4197,1.3026,1.0952,-15.4724,33,0.2091,9201,3.9435,-102.3245
lg,1624655954607448419,0,0.0046,-0.304,1.0217,736,0.5493,-2.8076,15.7471,92,1.4177,1.2986,1.1018,-15.4775,33,0.2081,9303,3.9435,-101.6883
lg,1624655954981272140,0,-0.0037,-0.304,1.0217,737,0.4272,-3.2349,15.8691,92,1.4197,1.3026,1.1405,-15.4644,33,0.2081,27334,3.9435,-101.0422
lg,1624655954981321565,0,-0.0171,-0.3108,1.021,738,0.4272,-2.7466,15.7471,92,1.4187,1.3016,1.1939,-15.4883,33,0.2091,8682,3.9435,-100.4069
lg,1624655954981352453,0,-0.0149,-0.301,1.0396,739,0.2441,-2.4414,16.1743,92,1.4187,1.3026,1.2565,-15.4868,33,0.2081,7904,3.9435,-99.7577
lg,1624655954981381601,0,-0.0154,-0.2866,1.0151,740,0.4272,-2.6855,16.6626,92,1.4187,1.3026,1.3142,-15.4617,33,0.2081,7919,3.9435,-99.0868
lg,1624655954981409304,0,-0.0151,-0.2996,1.0166,741,0.6714,-4.1504,16.7236,92,1.4197,1.3026,1.313,-15.4529,33,0.2081,7903,3.9435,-98.3985
lg,1624655954981435766,0,-0.0232,-0.3015,1.02,742,0.8545,-6.4087,17.2729,92,1.4197,1.3026,1.248,-15.4385,33,0.2081,9188,3.9435,-97.6648
lg,1624655954981461655,0,-0.0015,-0.3042,1.0305,743,0.5493,-6.6528,16.1743,92,1.4197,1.3026,1.1194,-15.4462,33,0.2091,8421,3.9435,-96.9821
lg,1624655954981487266,0,0.0024,-0.2969,1.0208,744,0.7324,-6.7139,15.1978,92,1.4197,1.3026,0.9735,-15.4314,33,0.2081,7988,3.9435,-96.325
lg,1624655954981514691,0,-0.0193,-0.3088,1.0349,745,0.6104,-4.7607,16.1743,92,1.4197,1.3036,0.9645,-15.4385,33,0.2081,8001,3.9435,-95.6513
lg,1624655954981541579,0,-0.0002,-0.2981,1.0183,746,1.2207,-4.1504,16.4185,92,1.4197,1.3026,0.9418,-15.4092,33,0.2081,11103,3.9435,-94.9746
lg,1624655954981568116,0,-0.0063,-0.3081,1.0476,747,1.0376,-3.418,15.3809,92,1.4197,1.3036,0.9218,-15.3809,33,0.2081,8021,3.9435,-94.2443
lg,1624655954981594227,0,-0.0137,-0.2944,1.02,748,0.8545,-4.7607,15.625,92,1.4197,1.3026,0.8969,-15.3609,33,0.2071,8181,3.9435,-93.5915
lg,1624655954981619504,0,-0.0093,-0.3066,1.0281,749,0.4272,-5.6763,17.4561,92,1.4187,1.3026,0.8477,-15.378,33,0.2071,8400,3.9435,-92.8587
lg,1624655954981673355,0,0.0046,-0.304,1.0312,750,1.1597,-4.4556,14.3433,92,1.4197,1.3036,0.785,-15.3605,33,0.2091,8790,3.9435,-92.2587
lg,1624655954981703132,0,0.0291,-0.2893,1.0361,751,1.0986,-2.6855,15.9912,92,1.4197,1.3036,0.7708,-15.3361,33,0.2081,8603,3.9435,-91.614
lg,1624655954981729632,0,0.0261,-0.3005,1.0225,752,1.4038,2.1362,15.7471,92,1.4187,1.3016,0.933,-15.3087,33,0.2081,8860,3.9435,-91.0298
lg,1624655954981755965,0,0.0034,-0.3047,1.0295,753,2.0142,6.2256,15.4419,92,1.4197,1.3026,1.2908,-15.2607,33,0.2081,8125,3.9435,-90.5007
lg,1624655954981781964,0,-0.0239,-0.3025,1.0295,754,1.4648,7.2632,15.0146,92,1.4197,1.3036,1.7271,-15.229,33,0.2091,8929,3.9435,-89.9987
lg,1624655954981808260,0,-0.0481,-0.3062,1.0479,755,1.8311,5.4932,15.564,92,1.4197,1.3036,2.1278,-15.1725,33,0.2081,8550,3.9435,-89.4566
lg,1624655954981834074,0,-0.0393,-0.293,1.0132,756,1.5259,2.1973,13.9771,92,1.4197,1.3036,2.3582,-15.1252,33,0.2091,8956,3.9435,-88.941
lg,1624655954981859740,0,-0.0479,-0.3167,1.0259,757,1.2817,-4.9438,15.564,92,1.4197,1.3036,2.3375,-15.1236,33,0.2091,14076,3.9435,-88.291
lg,1624655954981885036,0,-0.0181,-0.2917,1.0322,758,0.7324,-6.8359,16.6016,92,1.4197,1.3036,2.1925,-15.0883,33,0.2091,8983,3.9435,-87.579
lg,1624655954981909943,0,-0.0083,-0.3066,1.021,759,0.4883,-6.4087,16.2354,92,1.4197,1.3036,2.0453,-15.1037,33,0.2091,8231,3.9435,-86.8871
lg,1624655954981935424,0,-0.0176,-0.3093,1.0173,760,0.4272,-6.4697,15.4419,92,1.4197,1.3036,1.9135,-15.1313,33,0.2091,8981,3.9435,-86.2253
lg,1624655954981960516,0,-0.0261,-0.2993,1.0259,761,0.2441,-6.958,17.4561,92,1.4197,1.3036,1.8073,-15.1382,33,0.2091,9116,3.9435,-85.4795
lg,1624655954981984979,0,-0.0139,-0.2988,1.0217,762,0,-6.897,17.6392,92,1.4197,1.3036,1.6839,-15.1574,33,0.2091,8752,3.9435,-84.7273
lg,1624655954982009867,0,-0.0032,-0.304,1.0476,763,0.1831,-6.5308,16.8457,92,1.4207,1.3046,1.5753,-15.1809,33,0.2091,8699,3.9435,-84.0232
lg,1624655954982180290,0,-0.0024,-0.2932,1.0476,764,0.5493,-6.4087,15.8691,92,1.4207,1.3036,1.4538,-15.1777,33,0.2091,9092,3.9435,-83.3487
lg,1624655954982242123,0,0.0107,-0.2981,1.0291,765,0.9155,-4.0894,16.1133,92,1.4197,1.3036,1.3844,-15.1594,33,0.2091,10949,3.9435,-82.6846
lg,1624655954982285900,0,0.0151,-0.2947,1.0203,766,0.8545,-2.4414,16.2354,92,1.4197,1.3036,1.4487,-15.159,33,0.2091,9165,3.9435,-82.052
lg,1624655954982315195,0,0.0027,-0.2932,1.0305,767,0.9766,0.5493,15.1978,92,1.4197,1.3046,1.5652,-15.1295,33,0.2091,9182,3.9435,-81.4716
lg,1624655954982345936,0,-0.0049,-0.293,1.0247,768,1.4648,2.2583,15.5029,92,1.4147,1.3046,1.7617,-15.0831,33,0.2081,8793,3.9435,-80.8973
lg,1624655955352068164,0,-0.0244,-0.2947,1.0161,769,0.6714,-3.9062,14.4653,92,1.4197,1.3036,1.6468,-15.091,33,0.2081,27870,3.9435,-80.1751
lg,1624655955352097552,0,-0.0056,-0.3015,1.0337,770,0.9155,-7.3853,15.686,92,1.4197,1.3036,1.472,-15.0783,33,0.2081,8822,3.9435,-79.4934
lg,1624655955352117682,0,0.0032,-0.2932,1.0247,771,0.7935,-5.249,15.9302,92,1.4197,1.3036,1.3703,-15.0613,33,0.2081,7912,3.9435,-78.8241
lg,1624655955352137348,0,-0.0046,-0.2917,1.0376,772,0.8545,-4.0894,15.9912,92,1.4207,1.3046,1.3359,-15.0641,33,0.2081,9389,3.9435,-78.112
lg,1624655955352157811,0,-0.0063,-0.2954,1.0308,773,1.1597,-2.9907,15.686,92,1.4197,1.3036,1.3438,-15.0357,33,0.2081,7901,3.9435,-77.4757
lg,1624655955352176162,0,-0.0107,-0.2976,1.0112,774,1.1597,-3.1738,15.3809,92,1.4207,1.3046,1.3508,-15.0247,33,0.2071,9401,3.9435,-76.8497
lg,1624655955352193551,0,-0.0178,-0.2988,1.03,775,0.7935,-3.2959,16.1743,92,1.4207,1.3046,1.3754,-15.0191,33,0.2081,8618,3.9435,-76.1915
lg,1624655955352210569,0,-0.0198,-0.3113,1.0176,776,0.9155,-3.3569,16.7847,92,1.4217,1.3046,1.4077,-15.0408,33,0.2081,8018,3.9435,-75.51
lg,1624655955352227402,0,-0.009,-0.292,1.0378,777,0.7324,-2.3193,13.855,92,1.4207,1.3036,1.425,-15.0204,33,0.2091,12930,3.9435,-74.9512
lg,1624655955352243902,0,-0.0078,-0.2817,1.0396,778,0.8545,-3.6011,15.7471,92,1.4207,1.3046,1.4329,-15.0352,33,0.2081,8087,3.9435,-74.3177
lg,1624655955352260753,0,-0.0312,-0.3003,1.0327,779,0.6714,-3.6621,14.3433,92,1.4207,1.3046,1.4496,-15.0362,33,0.2081,8446,3.9435,-73.7265
lg,1624655955352295364,0,-0.0222,-0.3105,1.0198,780,0.7324,-5.0659,15.0146,92,1.4197,1.3046,1.4001,-15.0625,33,0.2081,8186,3.9435,-73.0955
lg,1624655955352313049,0,-0.0046,-0.3118,1.0254,781,0.6104,-4.5166,15.1978,92,1.4197,1.3046,1.3384,-15.0922,33,0.2081,10090,3.9435,-72.4631
lg,1624655955352329697,0,0.0034,-0.3037,1.0269,782,0.7935,-4.3335,15.1978,92,1.4207,1.3066,1.2694,-15.097,33,0.2081,9336,3.9435,-71.8321
lg,1624655955352347974,0,0.0117,-0.3008,1.0393,783,0.061,-4.0283,16.0522,92,1.4207,1.3046,1.2295,-15.0864,33,0.2091,8784,3.9435,-71.1975
lg,1624655955352365770,0,0.0342,-0.2896,1.0332,784,0.3052,-2.7466,16.4185,92,1.4167,1.3046,1.1734,-15.0789,33,0.2081,8105,3.9435,-70.5352
lg,1624655955352382585,0,0.0222,-0.2991,1.0161,785,0.7324,1.5869,13.855,92,1.4207,1.3046,1.2844,-15.0869,33,0.2081,8903,3.9435,-70.0178
lg,1624655955352399862,0,0.0032,-0.3098,1.0244,786,0.9155,6.3477,14.0381,92,1.4207,1.3046,1.617,-15.1033,33,0.2081,8930,3.9435,-69.5434
lg,1624655955352417214,0,-0.0044,-0.2859,1.0112,787,1.4648,8.3008,16.8457,92,1.4207,1.3046,2.1221,-15.058,33,0.2091,8611,3.9435,-69.0181
lg,1624655955352434158,0,-0.0278,-0.3005,1.0232,788,1.4648,10.3149,15.3198,92,1.4207,1.3026,2.6528,-15.0273,33,0.2091,8354,3.9435,-68.5352
lg,1624655955352451102,0,-0.0645,-0.2893,1.012,789,1.709,8.3008,14.8926,92,1.4207,1.3046,3.1595,-14.967,33,0.2081,8679,3.9435,-68.047
lg,1624655955352468657,0,-0.0603,-0.2969,1.0188,790,0.9155,2.1973,17.4561,92,1.4207,1.3046,3.4271,-14.9397,33,0.2091,8691,3.9435,-67.3969
lg,1624655955352485638,0,-0.0691,-0.2793,1.0164,791,1.2207,-1.2817,15.686,92,1.4197,1.3046,3.4029,-14.9077,33,0.2091,8664,3.9435,-66.6941
lg,1624655955352502545,0,-0.0444,-0.291,1.0215,792,0.3662,-7.9346,16.2354,92,1.4197,1.3036,3.2235,-14.8874,33,0.2081,9127,3.9435,-65.9857
lg,1624655955352519156,0,-0.0237,-0.2966,1.011,793,0.4883,-13.0615,17.2119,92,1.4197,1.3046,2.8198,-14.8798,33,0.2081,8334,3.9435,-65.1879
lg,1624655955352536378,0,0.0095,-0.2981,1.0205,794,0.2441,-12.9395,16.4795,92,1.4217,1.3046,2.358,-14.887,33,0.2091,8788,3.9435,-64.4195
lg,1624655955352562693,0,0.0188,-0.2942,1.0325,795,0.3052,-10.9863,15.4419,92,1.4207,1.3046,2.0555,-14.8789,33,0.2091,8378,3.9435,-63.7109
lg,1624655955352579933,0,0.0186,-0.3113,1.0237,796,0.6714,-6.897,15.8081,92,1.4207,1.3036,1.8311,-14.9057,33,0.2091,8796,3.9435,-63.0313
lg,1624655955352596581,0,0.0149,-0.302,1.0352,797,0.6104,-3.1128,15.0146,92,1.4207,1.3046,1.7615,-14.912,33,0.2091,8868,3.9435,-62.4203
lg,1624655955352612951,0,-0.0085,-0.3035,1.0251,798,0.8545,-0.6714,15.7471,92,1.4207,1.3046,1.8457,-14.9171,33,0.2091,8831,3.9435,-61.8064
lg,1624655955352629562,0,-0.0276,-0.2971,1.0239,799,0.9766,-0.3662,15.9912,92,1.4207,1.3056,1.9813,-14.9035,33,0.2081,8828,3.9435,-61.1858
lg,1624655955352646043,0,-0.0432,-0.302,1.0315,800,0.7935,-1.3428,15.3809,92,1.4197,1.3046,2.1,-14.9023,33,0.2071,11127,3.9435,-60.579
lg,1624655955736358145,0,-0.0288,-0.3035,1.0225,801,0.5493,-5.127,15.9912,92,1.4207,1.3046,2.0239,-14.928,33,0.2081,27688,3.9435,-59.8884
lg,1624655955736429292,0,-0.0205,-0.2949,1.0137,802,0.6714,-7.1411,15.9302,92,1.4207,1.3046,1.8765,-14.925,33,0.2081,9157,3.9435,-59.2003
lg,1624655955737102244,0,-0.0195,-0.3042,1.0366,803,0.7324,-7.3242,14.5874,92,1.4207,1.3046,1.6613,-14.8853,33,0.2081,8356,3.9435,-58.5406
lg,1624655955737145465,0,0.0078,-0.2817,1.0271,804,0.4272,-8.1177,16.2964,92,1.4207,1.3056,1.4331,-14.863,33,0.2081,8164,3.9435,-57.8274
lg,1624655955737182705,0,0.0205,-0.301,1.0425,805,0.1831,-8.2397,16.2354,92,1.4207,1.3056,1.1824,-14.8848,33,0.2081,8437,3.9435,-57.116
lg,1624655955737217945,0,0.0059,-0.3088,1.043,806,0.3662,-5.6152,15.625,92,1.4207,1.3056,1.0675,-14.917,33,0.2071,8967,3.9435,-56.4554
lg,1624655955737252167,0,0.0037,-0.2939,1.0215,807,0.9766,-4.2725,15.1367,92,1.4197,1.3046,1.0912,-14.8962,33,0.2081,9092,3.9435,-55.8847
lg,1624655955737286426,0,-0.0002,-0.3005,1.03,808,1.0986,0.061,15.0757,92,1.4187,1.3006,1.2056,-14.891,33,0.2071,8482,3.9435,-55.3036
lg,1624655955737318518,0,-0.0112,-0.3042,1.0317,809,1.3428,4.4556,14.8315,92,1.4197,1.3046,1.5052,-14.8819,33,0.2071,8504,3.9435,-54.7774
lg,1624655955737411294,0,-0.0393,-0.3052,1.0303,810,1.6479,5.0659,15.1978,92,1.4197,1.3046,1.8794,-14.8605,33,0.2081,8528,3.9435,-54.2435
lg,1624655955737447719,0,-0.0305,-0.2922,1.0205,811,1.4648,3.2959,14.8315,92,1.4197,1.3046,2.0827,-14.8067,33,0.2081,8568,3.9435,-53.6632
lg,1624655955737476885,0,-0.0352,-0.2832,1.033,812,0.9766,-1.0376,15.9302,92,1.4187,1.3056,2.1967,-14.7612,33,0.2081,8579,3.9435,-53.0368
lg,1624655955737505459,0,-0.0276,-0.293,1.0244,813,0.4883,-4.8828,15.0757,92,1.4197,1.3046,2.1334,-14.7614,33,0.2081,8631,3.9435,-52.4052
lg,1624655955737536162,0,-0.0146,-0.3052,1.0366,814,0.7935,-7.3853,16.1743,92,1.4207,1.3046,1.9593,-14.7659,33,0.2081,8590,3.9435,-51.7061
lg,1624655955737564087,0,-0.0217,-0.311,1.03,815,0.6104,-7.019,15.3809,92,1.4197,1.3046,1.7953,-14.7811,33,0.2081,8626,3.9435,-51.0815
lg,1624655955737592180,0,0.0002,-0.2988,1.0334,816,0.5493,-5.0659,14.5874,92,1.4207,1.3056,1.6682,-14.7969,33,0.2081,8636,3.9435,-50.4671
lg,1624655955737620457,0,-0.0142,-0.3145,1.0283,817,0.6714,-2.5635,14.4653,92,1.4197,1.3046,1.6374,-14.7979,33,0.2081,10221,3.9435,-49.8827
lg,1624655955737647253,0,-0.0107,-0.2825,1.0322,818,1.0376,-1.4038,13.916,92,1.4197,1.3046,1.6828,-14.7567,33,0.2081,8680,3.9435,-49.3305
lg,1624655955737674085,0,-0.0251,-0.3025,1.0205,819,0.8545,-1.5259,14.8315,92,1.4197,1.3046,1.7617,-14.7704,33,0.2081,8751,3.9435,-48.743
lg,1624655955737701085,0,-0.0168,-0.302,1.0342,820,1.0986,-1.9531,15.1978,92,1.4197,1.3046,1.8066,-14.7635,33,0.2081,8729,3.9435,-48.1368
lg,1624655955737728177,0,-0.0085,-0.2993,1.0178,821,1.0986,-1.8921,14.9536,92,1.4207,1.3056,1.8324,-14.7611,33,0.2081,13592,3.9435,-47.5409
lg,1624655955737755473,0,-0.0046,-0.293,1.0178,822,0.9155,-0.4883,15.0146,92,1.4207,1.3056,1.9034,-14.753,33,0.2081,8922,3.9435,-46.9565
lg,1624655955737782676,0,-0.0161,-0.2886,1.0269,823,0.7935,-1.4038,15.5029,92,1.4207,1.3056,1.9655,-14.7341,33,0.2081,8738,3.9435,-46.3435
lg,1624655955737809991,0,-0.0413,-0.3103,1.0225,824,0.6104,-3.1738,14.2822,92,1.4207,1.3056,1.9979,-14.7706,33,0.2081,8824,3.9435,-45.7611
lg,1624655955737879286,0,-0.0215,-0.283,1.02,825,0.9155,-4.5776,15.8691,92,1.4207,1.3056,1.8911,-14.7527,33,0.2081,8880,3.9435,-45.0962
lg,1624655955737916137,0,-0.0117,-0.3005,1.0115,826,0.9155,-6.2256,15.3198,92,1.4207,1.3046,1.7571,-14.7625,33,0.2081,11873,3.9435,-44.4421
lg,1624655955737944785,0,-0.0059,-0.2998,1.0247,827,0.7935,-6.1646,14.3433,80,1.4197,1.3056,1.6476,-14.7553,33,0.2081,8907,3.949,-43.8289
lg,1624655955737971210,0,-0.0037,-0.3044,1.0476,828,1.0376,-5.0659,14.8315,80,1.4197,1.3056,1.5453,-14.75,33,0.2081,8922,3.949,-43.2049
lg,1624655955738000358,0,0.0017,-0.2988,1.0288,829,0.8545,-4.0894,15.0146,80,1.4197,1.3056,1.4754,-14.7529,33,0.2081,8959,3.949,-42.5837
lg,1624655955738030968,0,-0.0005,-0.3025,1.0198,830,0.8545,-3.7231,14.4043,80,1.4207,1.3046,1.421,-14.7699,33,0.2081,8928,3.949,-41.9902
lg,1624655955738060505,0,0.0034,-0.3064,1.0142,831,0.7935,-1.77,14.8315,80,1.4197,1.3056,1.4402,-14.8004,33,0.2081,8713,3.949,-41.4004
lg,1624655955738088689,0,-0.0022,-0.2971,1.0208,832,1.4038,0.9155,15.1367,80,1.4197,1.3056,1.5774,-14.7819,33,0.2081,9006,3.949,-40.8257
lg,1624655956112487028,0,-0.0291,-0.3135,1.002,833,1.4038,0.9766,15.0146,80,1.4207,1.3066,1.6985,-14.7586,33,0.2081,24973,3.949,-40.2932
lg,1624655956112537268,0,-0.0393,-0.2979,1.0376,834,1.0986,-2.1973,15.0146,80,1.4207,1.3066,1.7472,-14.7521,33,0.2081,15015,3.949,-39.6915
lg,1624655956112559175,0,-0.03,-0.302,1.0454,835,0.4883,-3.9062,14.2822,80,1.4207,1.3066,1.7351,-14.7646,33,0.2081,8465,3.949,-39.1005
lg,1624655956112579860,0,-0.0037,-0.2798,1.0278,836,0.6104,-4.6997,15.8081,80,1.4217,1.3066,1.6536,-14.7352,33,0.2081,8564,3.949,-38.4414
lg,1624655956112598730,0,-0.0198,-0.3062,1.0413,837,0.7324,-4.6387,15.0146,80,1.4207,1.3066,1.6031,-14.7495,33,0.2081,8512,3.949,-37.8149
lg,1624655956112617581,0,0.0049,-0.2852,1.0205,838,1.0376,-4.3335,14.6484,80,1.4207,1.3066,1.5573,-14.7364,33,0.2081,8510,3.949,-37.2226
lg,1624655956112636784,0,-0.0002,-0.2986,1.041,839,1.0986,-3.1738,15.625,80,1.4187,1.3076,1.5323,-14.7217,33,0.2091,8747,3.949,-36.587
lg,1624655956112699728,0,0.0005,-0.2954,1.0232,840,1.2207,-2.0142,14.7095,80,1.4177,1.3056,1.542,-14.7081,33,0.2091,8521,3.949,-35.9987
lg,1624655956112725116,0,-0.0161,-0.2961,1.0125,841,1.1597,-0.8545,15.0757,80,1.4207,1.3056,1.6353,-14.7047,33,0.2081,8567,3.949,-35.4083
lg,1624655956112745301,0,-0.0161,-0.2832,1.0093,842,1.2207,-0.7935,14.5874,80,1.4207,1.3066,1.7224,-14.6738,33,0.2091,15285,3.949,-34.8367
lg,1624655956112764079,0,-0.0146,-0.3008,1.021,843,0.7935,-0.9766,14.5264,80,1.4207,1.3066,1.7946,-14.6896,33,0.2091,8581,3.949,-34.2666
lg,1624655956112782467,0,-0.0117,-0.291,1.0293,844,0.9155,-1.4648,14.8926,80,1.4207,1.3066,1.8424,-14.6739,33,0.2091,8556,3.949,-33.6765
lg,1624655956112800485,0,-0.0198,-0.2954,1.0288,845,1.0986,-1.4648,14.1602,80,1.4207,1.3066,1.8978,-14.6612,33,0.2081,8616,3.949,-33.1152
lg,1624655956112819133,0,-0.0327,-0.3018,1.0286,846,1.0986,-1.8921,15.1978,80,1.4207,1.3066,1.9723,-14.6599,33,0.2091,8681,3.949,-32.5097
lg,1624655956112838077,0,-0.031,-0.3027,1.0269,847,1.0986,-2.1973,13.9771,80,1.4207,1.3056,2.0162,-14.6625,33,0.2091,8843,3.949,-31.9486
lg,1624655956112857873,0,-0.0364,-0.3064,1.0369,848,0.8545,-2.5635,14.4043,80,1.4207,1.3066,2.0592,-14.6751,33,0.2081,8724,3.949,-31.3673
lg,1624655956112876077,0,-0.0181,-0.2915,1.0295,849,0.6714,-3.2349,14.9536,80,1.4187,1.3056,2.0422,-14.6674,33,0.2081,8721,3.949,-30.7571
lg,1624655956112894539,0,-0.0173,-0.2888,1.0229,850,1.3428,-3.9062,15.3809,80,1.4207,1.3066,2.0027,-14.6311,33,0.2081,8744,3.949,-30.1234
lg,1624655956112913039,0,-0.0215,-0.3071,1.0271,851,0.9766,-4.9438,15.8691,80,1.4187,1.3056,1.9382,-14.6453,33,0.2081,10661,3.949,-29.4616
lg,1624655956112931242,0,-0.0134,-0.3154,1.0361,852,0.7935,-5.9204,14.5264,80,1.4207,1.3066,1.8079,-14.68,33,0.2081,8802,3.949,-28.8421
lg,1624655956112949205,0,0.0002,-0.2769,1.0103,853,0.7935,-4.5776,14.5874,80,1.4197,1.3066,1.7065,-14.6513,33,0.2081,8768,3.949,-28.2317
lg,1624655956112968483,0,0.0005,-0.2937,1.0251,854,1.4038,-3.54,15.3198,80,1.4207,1.3066,1.7057,-14.629,33,0.2081,8788,3.949,-27.6351
lg,1624655956113007593,0,0.0171,-0.2981,1.0315,855,1.5869,-0.1831,14.3433,80,1.4187,1.3076,1.7393,-14.6041,33,0.2081,8879,3.949,-27.0797
lg,1624655956113046722,0,0.002,-0.2812,1.0212,856,1.5259,3.6011,14.2212,80,1.4227,1.3066,1.9479,-14.5543,33,0.2071,8923,3.949,-26.5664
lg,1624655956113066647,0,-0.0203,-0.2903,1.0137,857,1.9531,5.188,13.916,80,1.4207,1.3066,2.2537,-14.5112,33,0.2071,9072,3.949,-26.0814
