name,time,activity,ax,ay,az,batch_val,gx,gy,gz,ibat,index,middle,pitch,roll,temp,thumb,ts,vbat,yaw
rg,1624619714690108695,1,-0.3137,-0.2324,0.96,1,-1.0986,2.6855,18.0664,67,0.9995,0.9134,10.8132,-6.5606,24,0.5583,19112,3.8808,-5.1307
rg,1624619714690176452,1,-0.3303,-0.2419,0.99,2,0.9766,-6.1035,16.6016,67,0.9985,0.9124,10.9305,-6.6623,24,0.5583,8301,3.8808,-4.4821
rg,1624619714690197970,1,-0.3149,-0.2256,1.0071,3,2.5635,-14.5874,15.8691,67,0.9985,0.9144,10.6646,-6.6547,24,0.5593,7793,3.8808,-3.8146
rg,1624619714690217469,1,-0.2964,-0.2109,0.9688,4,2.6855,-17.395,14.5874,67,0.9985,0.9154,10.2787,-6.6405,24,0.5593,7741,3.8808,-3.183
rg,1624619714690236302,1,-0.2979,-0.1985,0.9763,5,1.9531,-20.5078,14.8315,67,0.9975,0.9154,9.7854,-6.6265,24,0.5593,9761,3.8808,-2.5212
rg,1624619714690255486,1,-0.3225,-0.1833,1.0044,6,-2.3193,-23.6206,15.9912,67,0.9975,0.9164,9.2285,-6.7347,24,0.5593,7935,3.8808,-1.7895
rg,1624619714690273245,1,-0.3196,-0.1831,1.0059,7,-3.3569,-27.6489,16.7847,67,0.9965,0.9164,8.4011,-6.9691,24,0.5593,7854,3.8808,-0.9378
rg,1624619714690290392,1,-0.2771,-0.1838,1.0286,8,-7.2021,-32.7148,17.5171,67,0.9965,0.9174,7.447,-7.2573,24,0.5603,7751,3.8808,-0.09
rg,1624619714690307429,1,-0.24,-0.1943,1.0322,9,-11.7798,-34.0576,17.2729,67,0.9955,0.9174,6.4042,-7.7526,24,0.5603,7993,3.8808,0.7619
rg,1624619714690327632,1,-0.2253,-0.1938,1.0437,10,-14.0381,-33.2642,16.4185,67,0.9955,0.9184,5.4023,-8.3316,24,0.5603,7844,3.8808,1.5904
rg,1624619714690423795,1,-0.2327,-0.2036,1.0398,11,-17.8223,-30.5786,14.4653,67,0.9955,0.9174,4.5597,-9.0806,24,0.5593,8033,3.8808,2.3393
rg,1624619714690446128,1,-0.2141,-0.1868,1.019,12,-21.8506,-31.3721,13.3057,67,0.9955,0.9174,3.6942,-9.9474,24,0.5613,7918,3.8808,3.0683
rg,1624619714690465035,1,-0.2344,-0.217,1.0127,13,-23.3765,-29.6021,10.376,67,0.9945,0.9174,2.9652,-10.9237,24,0.5603,7870,3.8808,3.6845
rg,1624619714690483386,1,-0.2456,-0.2402,1.0291,14,-24.8413,-31.7383,8.4839,67,0.9945,0.9174,2.1906,-11.9706,24,0.5603,7901,3.8808,4.2627
rg,1624619714690500737,1,-0.2366,-0.2522,1.0344,15,-24.0479,-35.0952,7.5684,67,0.9955,0.9184,1.1671,-12.9729,24,0.5613,7947,3.8808,4.8682
rg,1624619714690517996,1,-0.2429,-0.2615,1.0488,16,-22.522,-39.978,6.7749,67,0.9955,0.9194,0.1323,-13.8999,24,0.5613,7951,3.8808,5.5005
rg,1624619714690536125,1,-0.2507,-0.2639,1.054,17,-20.874,-44.1284,6.4697,67,0.9955,0.9194,-1.0029,-14.7398,24,0.5613,8028,3.8808,6.1858
rg,1624619714690555587,1,-0.2534,-0.2627,1.0688,18,-19.8364,-45.3491,5.3711,67,0.9955,0.9204,-2.283,-15.5142,24,0.5613,8031,3.8808,6.9437
rg,1624619714690573290,1,-0.2314,-0.2637,1.0764,19,-17.7612,-50.1099,6.2256,67,0.9965,0.9215,-3.5837,-16.1906,24,0.5623,8003,3.8808,7.7278
rg,1624619714690590753,1,-0.1956,-0.2644,1.0737,20,-16.7847,-51.9409,4.6997,67,0.9975,0.9225,-4.9803,-16.821,24,0.5623,8047,3.8808,8.4938
rg,1624619714690608771,1,-0.2014,-0.2847,1.0723,21,-16.7847,-51.1475,3.6621,67,0.9985,0.9245,-6.2353,-17.4583,24,0.5623,8056,3.8808,9.1305
rg,1624619714690625900,1,-0.2029,-0.2776,1.0688,22,-17.2119,-48.0957,0.6714,67,0.9995,0.9245,-7.4011,-18.0993,24,0.5633,8087,3.8808,9.7338
rg,1624619714690643177,1,-0.2107,-0.2998,1.0811,23,-18.4326,-48.645,-0.4883,67,0.9995,0.9255,-8.5422,-18.8106,24,0.5623,8122,3.8808,10.3215
rg,1624619714690660454,1,-0.2131,-0.3103,1.0923,24,-18.7378,-49.3774,-1.5259,67,1.0015,0.9255,-9.7137,-19.5196,24,0.5633,8160,3.8808,10.9035
rg,1624619714690678768,1,-0.2158,-0.3254,1.1287,25,-18.4326,-49.8047,-3.1738,67,1.0035,0.9265,-10.8417,-20.2141,24,0.5633,9320,3.8808,11.4446
rg,1624619714690716434,1,0.1826,-0.3306,0.3726,26,-50.6592,-173.3398,64.0259,164,0.6123,0.2071,-16.6453,-24.2534,24,0.4032,14231,3.8126,16.747
rg,1624619714690752543,1,0.8928,-1.1687,1.0405,27,-119.812,-92.4072,63.1104,164,0.6153,0.2151,-19.2689,-31.1563,25,0.4042,8434,3.8126,21.1769
rg,1624619714690770932,1,0.8083,-1.4109,0.833,28,-97.4731,-23.5596,48.645,164,0.6193,0.2311,-18.7073,-34.9342,25,0.4082,8351,3.8126,22.2102
rg,1624619714690789413,1,0.6023,-1.5024,0.7405,29,-15.3809,31.9214,1.2817,164,0.6303,0.2501,-17.7638,-36.3934,25,0.4152,8367,3.8126,21.8176
rg,1624619714690807727,1,0.3472,-1.2468,0.7563,30,71.7163,127.8687,2.3804,164,0.6523,0.2751,-13.4225,-33.5992,25,0.4262,9341,3.8126,19.1154
rg,1624619714690846725,1,0.135,-0.978,0.6062,31,109.9854,130.4932,1.3428,164,0.6763,0.3041,-8.7606,-29.6356,25,0.4332,9818,3.8126,16.599
rg,1624619714690865929,1,-0.0576,-0.793,0.4302,32,113.7695,100.5249,-11.0474,164,0.7043,0.3302,-4.9971,-26.0261,25,0.4392,8366,3.8126,14.5102
rg,1624619715064548265,1,-0.2971,-0.646,0.5063,33,21.4844,-43.2739,7.0801,164,0.7964,0.4062,-5.4831,-26.1922,25,0.4422,26921,3.8126,15.6144
rg,1624619715064581097,1,0.0325,-0.8284,0.5708,34,-19.8975,-108.7036,22.3999,164,0.8174,0.4382,-8.798,-28.444,25,0.4452,13318,3.8126,18.536
rg,1624619715064601633,1,0.4011,-0.9006,0.5667,35,-39.2456,-132.1411,41.1987,164,0.8034,0.4542,-13.0186,-31.852,25,0.4482,10579,3.8126,22.8692
rg,1624619715064621114,1,0.6101,-0.9485,0.5854,36,-84.1675,-121.582,27.3438,164,0.7444,0.4612,-17.031,-37.1066,24,0.4502,7752,3.8126,26.8915
rg,1624619715064640021,1,0.5752,-1.0796,0.561,37,-119.3848,-88.9893,19.104,164,0.6923,0.4602,-19.5913,-43.7472,24,0.4532,8134,3.8126,30.2304
rg,1624619715064657724,1,0.5542,-1.1423,0.4875,38,-124.0234,-78.6133,22.2168,164,0.6473,0.4282,-21.1657,-50.697,24,0.4482,8898,3.8126,33.4019
rg,1624619715064674668,1,0.439,-1.1545,0.3701,39,-123.1689,-61.0352,9.0942,164,0.6183,0.3232,-22.2762,-57.3126,24,0.4362,7972,3.8126,36.0614
rg,1624619715064692445,1,0.0986,-0.9524,0.3796,40,-84.3506,27.0996,5.6152,164,0.6093,0.2331,-20.8833,-60.7985,24,0.4222,8451,3.8126,35.3352
rg,1624619715064711574,1,0.1016,-0.8518,0.623,41,26.3672,108.9478,43.2739,164,0.6113,0.2191,-16.6091,-58.4644,24,0.4192,8511,3.8126,32.1838
rg,1624619715064729426,1,0.1033,-0.8511,0.5437,42,42.5415,106.1401,69.1528,164,0.6113,0.2091,-11.5876,-56.1892,24,0.4142,7863,3.8126,30.0208
rg,1624619715064747018,1,-0.0786,-0.8535,0.4614,43,31.5552,33.6914,11.2915,164,0.6123,0.2011,-9.8265,-54.9738,24,0.4122,8038,3.8126,29.196
rg,1624619715064765258,1,-0.2703,-0.5916,0.1907,44,90.1489,-58.0444,-27.6489,164,0.6163,0.1941,-10.8528,-52.2177,25,0.4112,8108,3.8126,30.5736
rg,1624619715064782850,1,-0.2959,-0.406,0.1672,45,98.2666,-76.0498,-24.5972,164,0.6183,0.1951,-11.9396,-49.1566,25,0.4112,8072,3.8126,32.4881
rg,1624619715064800146,1,-0.1799,-0.2244,0.2375,46,56.7627,-91.98,20.1416,164,0.6203,0.2041,-12.29,-47.3875,25,0.4102,7905,3.8126,35.8311
rg,1624619715064818089,1,0.3862,-0.6025,0.6431,47,-35.7056,-103.5767,53.1006,164,0.6243,0.2111,-13.8718,-49.6943,25,0.4132,8162,3.8126,40.4352
rg,1624619715064861199,1,0.72,-1.2605,0.8804,48,-65.3687,-31.4941,47.4243,164,0.6303,0.2241,-13.6125,-53.0235,25,0.4182,8728,3.8126,42.7224
rg,1624619715064882773,1,0.6504,-1.426,0.7295,49,-37.6587,4.2114,31.5552,164,0.6363,0.2391,-12.8322,-55.0295,25,0.4232,8199,3.8126,43.4311
rg,1624619715064901531,1,0.4363,-1.311,0.7092,50,35.9497,63.1714,2.9907,164,0.6613,0.2671,-11.4077,-53.4101,25,0.4352,8070,3.8126,41.4533
rg,1624619715064920031,1,0.1221,-0.8948,0.6172,51,93.811,122.1924,6.7139,164,0.6863,0.3051,-7.8721,-48.6303,25,0.4432,13525,3.8126,37.5066
rg,1624619715064950641,1,0.0066,-0.7952,0.5793,52,102.417,126.4038,3.2349,164,0.7103,0.3342,-4.0279,-44.3716,25,0.4472,8082,3.8126,33.9441
rg,1624619715064969899,1,-0.2539,-0.7195,0.5208,53,82.2144,98.938,9.5215,164,0.7394,0.3622,-0.1136,-41.3646,25,0.4512,8314,3.8126,31.5723
rg,1624619715064988066,1,-0.355,-0.6604,0.5376,54,47.4243,26.7334,17.2119,164,0.7694,0.3882,2.019,-39.8119,25,0.4532,8105,3.8126,31.4113
rg,1624619715065005621,1,-0.335,-0.6699,0.543,55,26.001,-17.5781,14.4653,164,0.7934,0.4112,2.3453,-39.1142,25,0.4542,8319,3.8126,32.2967
rg,1624619715065026583,1,-0.0757,-0.7263,0.554,56,-17.2119,-81.7261,26.4893,164,0.7994,0.4282,0.6152,-40.2471,25,0.4552,8470,3.8126,35.1811
rg,1624619715065045971,1,0.2693,-0.7942,0.5745,57,-56.7017,-111.8164,40.8936,164,0.7794,0.4402,-2.2439,-43.084,25,0.4572,8218,3.8126,39.386
rg,1624619715065063582,1,0.5764,-0.9741,0.6484,58,-114.563,-125.061,33.4473,164,0.7284,0.4482,-5.6735,-48.4285,25,0.4582,8200,3.8126,43.9705
rg,1624619715065085118,1,0.5876,-1.0449,0.5813,59,-134.8877,-112.793,24.6582,164,0.6813,0.4362,-8.4759,-54.7618,24,0.4572,8397,3.8126,48.2333
rg,1624619715065108969,1,0.5076,-1.1099,0.4763,60,-137.5732,-80.7495,19.6533,164,0.6443,0.3892,-10.0683,-61.1977,24,0.4492,8321,3.8126,51.5227
rg,1624619715065128876,1,0.3816,-1.114,0.3601,61,-123.1689,-10.2539,16.5405,164,0.6173,0.2781,-9.9701,-66.6333,24,0.4362,8476,3.8126,52.2753
rg,1624619715065149894,1,0.3999,-0.9595,0.6655,62,-113.9526,26.8555,22.1558,164,0.6163,0.2341,-7.959,-69.033,24,0.4312,8317,3.8126,50.43
rg,1624619715065168708,1,0.2749,-1.0742,0.668,63,-7.9346,132.1411,49.0112,164,0.6153,0.2171,-4.4172,-68.4546,24,0.4252,8506,3.8126,46.1196
rg,1624619715065339295,1,0.1428,-1.0081,0.4543,64,27.71,126.4038,68.7866,164,0.6153,0.2131,-0.1021,-67.0822,24,0.4212,8392,3.8126,42.4563
rg,1624619715416639112,1,-0.4727,-0.0984,0.0759,65,87.0361,-40.2222,-4.3335,164,0.6203,0.2101,1.2681,-63.4415,25,0.4172,27120,3.8126,43.9234
rg,1624619715416755331,1,-0.2146,-0.1128,0.1052,66,-26.7944,-111.5112,41.0156,164,0.6223,0.2131,2.5956,-63.9675,25,0.4162,10096,3.8126,48.656
rg,1624619715416775978,1,0.5662,-0.9153,0.9568,67,-98.0835,-140.625,52.4902,164,0.6253,0.2221,1.5463,-68.9399,25,0.4182,7764,3.8126,54.3535
rg,1624619715416796292,1,0.5598,-1.7285,0.8918,68,-112.793,-3.0518,41.0156,164,0.6313,0.2431,2.3686,-73.1679,25,0.4242,13463,3.8126,55.0269
rg,1624619715416814773,1,0.2988,-1.7319,0.7581,69,2.5024,15.0757,11.3525,164,0.6433,0.2571,2.5289,-72.806,25,0.4312,7813,3.8126,54.5895
rg,1624619715416834236,1,0.2734,-1.4043,0.792,70,59.021,48.4619,19.6533,164,0.6613,0.2711,3.3561,-70.0031,25,0.4392,8011,3.8126,53.0058
rg,1624619715416964028,1,0.2708,-0.9595,0.585,71,137.3291,70.6177,22.8271,164,0.6843,0.2921,4.6213,-64.2301,25,0.4462,7903,3.8126,50.7415
rg,1624619715416985879,1,0.1392,-0.8079,0.4399,72,108.0322,82.2754,4.7607,164,0.7214,0.3202,5.7918,-60.053,24,0.4522,7945,3.8126,47.8961
rg,1624619715417004304,1,-0.0378,-0.8928,0.4421,73,79.4678,72.937,-3.9062,164,0.7584,0.3472,7.0189,-57.3006,24,0.4532,8159,3.8126,45.2867
rg,1624619715417027341,1,-0.2314,-0.8542,0.3853,74,73.1812,62.8662,0.1831,164,0.7894,0.3722,8.1764,-54.9146,24,0.4522,8031,3.8126,43.7536
rg,1624619715417045173,1,-0.3174,-0.772,0.3845,75,61.5845,18.4326,-5.6763,164,0.8044,0.3952,9.0188,-52.6806,25,0.4512,9410,3.8126,43.0125
rg,1624619715417068358,1,-0.3025,-0.7129,0.4727,76,23.0713,-44.4946,1.0376,164,0.8114,0.4112,8.3789,-51.6705,25,0.4522,7929,3.8126,44.4475
rg,1624619715417088839,1,0.042,-0.7139,0.4832,77,-12.0239,-99.9756,27.771,164,0.8214,0.4242,6.3503,-51.812,25,0.4542,9021,3.8126,48.2861
rg,1624619715417111782,1,0.3459,-0.8149,0.45,78,-59.1431,-118.042,34.729,164,0.8104,0.4312,3.6152,-54.1022,25,0.4552,8611,3.8126,52.8896
rg,1624619715417131060,1,0.4331,-0.8982,0.4719,79,-90.0879,-109.4971,30.0903,164,0.7404,0.4412,1.2387,-57.9126,25,0.4582,8225,3.8126,57.1999
rg,1624619715417155744,1,0.4319,-1.1428,0.4531,80,-130.5542,-89.1113,24.353,164,0.6863,0.4422,-0.438,-63.4739,25,0.4582,7996,3.8126,60.8102
rg,1624619715417175003,1,0.4153,-1.2051,0.4087,81,-117.9199,-74.4019,19.5923,164,0.6453,0.3932,-1.6079,-68.5156,25,0.4512,8207,3.8126,63.8763
rg,1624619715417191909,1,0.3679,-1.2234,0.3457,82,-102.7832,-47.4243,11.5356,164,0.6173,0.2861,-2.108,-72.8654,25,0.4352,8104,3.8126,65.8354
rg,1624619715417208724,1,0.1121,-1.0435,0.4312,83,-55.7861,35.0952,19.3481,164,0.6153,0.2201,-1.1231,-74.8379,24,0.4272,8300,3.8126,64.692
rg,1624619715417228464,1,0.071,-0.9905,0.6118,84,69.2139,126.4038,49.6826,164,0.6153,0.2041,2.1222,-71.4485,24,0.4222,8754,3.8126,60.4078
rg,1624619715417247667,1,-0.0576,-0.8857,0.4954,85,71.228,70.1904,41.687,164,0.6143,0.1961,4.6828,-68.2909,24,0.4182,9761,3.8126,58.353
rg,1624619715417305424,1,-0.3088,-0.623,0.2485,86,105.2246,-28.3203,-28.9917,164,0.6153,0.1981,3.9486,-64.0297,24,0.4172,8116,3.8126,58.9592
rg,1624619715417330516,1,-0.2979,-0.385,0.22,87,119.2627,-64.3921,-33.5693,164,0.6173,0.1971,2.6871,-59.0362,24,0.4162,8340,3.8126,60.6542
rg,1624619715417354293,1,-0.3477,-0.105,0.189,88,76.0498,-53.833,-1.1597,164,0.6193,0.1961,3.3628,-55.2965,24,0.4162,8150,3.8126,62.5389
rg,1624619715417372107,1,0.0334,-0.2598,0.4009,89,-43.5181,-90.332,40.1611,164,0.6223,0.2011,2.381,-55.9634,24,0.4172,8467,3.8126,66.4859
rg,1624619715417398477,1,0.3523,-0.6543,0.7646,90,-102.356,-93.6279,41.9922,164,0.6263,0.2161,0.888,-59.5627,24,0.4202,8249,3.8302,70.5909
rg,1624619715417420310,1,0.6248,-1.4592,1.0339,91,-121.6431,-6.5918,32.7759,124,0.6323,0.2351,1.1374,-64.2073,25,0.4272,8394,3.8302,71.4702
rg,1624619715417444179,1,0.3335,-1.6904,0.8079,92,-35.4614,30.1514,2.1362,124,0.6433,0.2521,1.2782,-65.6422,25,0.4342,8348,3.8302,70.4164
rg,1624619715417462382,1,0.2661,-1.3323,0.8433,93,68.4814,56.5796,9.1553,124,0.6633,0.2801,2.1571,-62.6395,25,0.4422,8477,3.8302,68.5303
rg,1624619715417482752,1,0.2729,-1.0991,0.6968,94,112.2437,56.0303,14.1602,124,0.6913,0.2971,3.1982,-58.031,25,0.4492,8332,3.8302,66.8422
rg,1624619715417502714,1,0.2471,-0.8049,0.4106,95,129.5776,58.7769,7.2632,124,0.7274,0.3262,4.0358,-53.1522,25,0.4542,8593,3.8302,65.0177
rg,1624619715417528528,1,0.135,-0.6523,0.198,96,96.6797,67.2607,9.9487,124,0.7844,0.3672,5.9715,-51.0011,25,0.4572,8393,3.8302,62.7613
rg,1624619715775598094,1,-0.5132,-0.7559,0.4443,97,-8.4229,-37.5977,10.1318,124,0.8164,0.4122,6.2889,-51.4667,25,0.4592,22925,3.8302,64.1665
rg,1624619715775680165,1,-0.0122,-0.8188,0.5415,98,-48.645,-135.376,56.8848,124,0.7954,0.4272,4.5737,-53.0563,25,0.4602,10570,3.8302,69.8468
rg,1624619715775700572,1,0.5168,-1.0227,0.6689,99,-102.0508,-174.9268,53.7109,124,0.7163,0.4392,1.2694,-56.9898,24,0.4622,7921,3.8302,76.8277
rg,1624619715775720034,1,0.5967,-1.2349,0.5979,100,-117.1875,-142.8833,35.9497,124,0.6703,0.4322,-1.0249,-61.5441,24,0.4602,10681,3.8302,81.816
rg,1624619715775740108,1,0.6033,-1.2314,0.4744,101,-87.5244,-96.1914,33.02,124,0.6363,0.3632,-2.4531,-65.4146,24,0.4512,7956,3.8302,85.8805
rg,1624619715775776940,1,0.3379,-1.0535,0.3604,102,-67.0166,6.897,15.686,124,0.6233,0.2561,-2.3357,-68.2947,24,0.4412,8913,3.8302,85.8926
rg,1624619715775839179,1,0.198,-0.8867,0.5332,103,31.6772,115.2954,20.6299,124,0.6233,0.2381,-0.1615,-66.5669,25,0.4382,7824,3.8302,81.9229
rg,1624619715775865956,1,0.1646,-0.9094,0.428,104,55.6641,127.9297,50.8423,124,0.6213,0.2211,3.4257,-64.3694,25,0.4342,7885,3.8302,78.094
rg,1624619715776440789,1,0.0076,-0.9463,0.4043,105,43.5791,109.2529,12.3901,124,0.6213,0.2161,5.6343,-63.0083,25,0.4322,8006,3.8302,74.3723
rg,1624619715776554582,1,-0.3721,-0.7671,0.2808,106,104.248,61.8896,-45.8374,124,0.6223,0.2221,5.9474,-59.391,25,0.4292,8225,3.8302,71.3099
rg,1624619715776582099,1,-0.4741,-0.5454,0.198,107,127.6245,32.8979,-53.5278,124,0.6233,0.2271,6.1093,-54.849,25,0.4282,7867,3.8302,69.0558
rg,1624619715776612284,1,-0.5828,-0.1387,0.1599,108,124.1455,-15.3198,-32.4097,124,0.6253,0.2291,6.7486,-49.7282,25,0.4282,8059,3.8302,68.8681
rg,1624619715776635635,1,-0.3806,-0.0227,0.1653,109,35.0342,-61.1572,29.9683,124,0.6283,0.2401,8.0171,-47.3654,25,0.4292,7938,3.8302,71.6378
rg,1624619715776656227,1,-0.2175,-0.1792,0.2327,110,-31.3721,-88.562,44.3115,124,0.6313,0.2571,8.0336,-47.7575,25,0.4312,8072,3.8302,75.5316
rg,1624619715776677800,1,0.4551,-0.9951,1.0151,111,-125.3052,-72.5708,46.6919,124,0.6373,0.2671,6.6215,-52.1731,24,0.4352,7926,3.8302,79.036
rg,1624619715776703262,1,0.4458,-1.6665,1.0723,112,-71.9604,63.9648,43.0298,124,0.6473,0.2841,8.7575,-55.37,24,0.4422,8180,3.8302,77.9699
rg,1624619715776723558,1,0.3057,-1.7356,0.959,113,-16.7236,66.1011,21.5454,124,0.6683,0.3031,10.256,-56.5374,24,0.4512,8004,3.8302,76.204
rg,1624619715776745168,1,0.1016,-1.4182,0.9146,114,110.7178,62.1338,-3.8452,124,0.6983,0.3312,11.0226,-52.5337,24,0.4582,8190,3.8302,74.0283
rg,1624619715776768871,1,0.0217,-0.8572,0.4873,115,186.2793,44.7388,8.667,124,0.7374,0.3492,11.9705,-45.6487,24,0.4602,8081,3.8302,72.789
rg,1624619715776789111,1,0.032,-0.6277,0.3528,116,179.6875,35.0342,12.8174,124,0.7814,0.3702,12.788,-40.134,24,0.4582,8244,3.8302,72.1929
rg,1624619715776808129,1,-0.0803,-0.3071,0.2568,117,114.4409,31.8604,7.4463,124,0.8034,0.3922,13.9185,-36.0878,24,0.4572,8105,3.8302,71.5351
rg,1624619715776826907,1,-0.4136,-0.4595,0.5557,118,3.6011,0.6104,-8.2397,124,0.8134,0.4062,14.3633,-36.13,24,0.4582,8323,3.8302,71.219
rg,1624619715776902830,1,-0.4019,-0.8235,0.5271,119,-43.1519,-105.896,10.3149,124,0.8244,0.4252,11.593,-37.9602,25,0.4582,12770,3.8302,73.9826
rg,1624619715776937996,1,0.1472,-0.8196,0.6331,120,-46.9971,-163.0249,45.9595,124,0.8304,0.4342,6.9303,-39.4905,25,0.4602,8322,3.8302,79.4643
rg,1624619715776960217,1,0.6162,-0.8376,0.6616,121,-73.7305,-171.5088,65.4907,124,0.8314,0.4432,2.1326,-42.3267,25,0.4632,8462,3.8302,85.9305
rg,1624619715776979883,1,0.7915,-1.0071,0.51,122,-119.0186,-154.9072,32.1655,124,0.7754,0.4512,-2.6708,-47.7512,24,0.4662,8378,3.8302,91.2552
rg,1624619715776999957,1,0.7559,-1.0518,0.4221,123,-130.6152,-121.0327,17.0288,124,0.7063,0.4482,-5.4127,-54.2905,24,0.4652,8296,3.8302,94.2484
rg,1624619715777019623,1,0.6184,-0.9868,0.3301,124,-147.522,-45.0439,9.5215,124,0.6593,0.4172,-7.0188,-60.937,24,0.4602,8550,3.8302,96.0915
rg,1624619715777040548,1,0.3506,-0.9072,0.3335,125,-156.5552,24.5361,5.127,124,0.6273,0.3182,-6.9177,-67.4081,24,0.4462,8486,3.8302,95.3577
rg,1624619715777059621,1,0.063,-0.9482,0.4832,126,-175.8423,102.6001,4.5166,124,0.6233,0.2401,-5.2672,-73.8316,24,0.4382,8403,3.8302,91.4977
rg,1624619715777078287,1,-0.1626,-1.6013,0.9426,127,-134.3994,134.0942,12.5122,124,0.6233,0.2141,-1.7059,-75.1037,24,0.4342,8383,3.8302,85.1413
rg,1624619715777118694,1,-0.1614,-1.6382,0.6809,128,0.061,116.333,75.3174,124,0.6233,0.2101,2.6561,-74.8123,24,0.4322,8555,3.8302,81.4119
rg,1624619716162007984,1,-0.2773,-0.3093,0.1533,129,158.5083,-13.916,-14.0381,124,0.6273,0.2141,3.8843,-67.7887,24,0.4282,25010,3.8302,81.9185
rg,1624619716162170498,1,-0.311,-0.0413,0.104,130,81.665,-34.1797,1.3428,124,0.6293,0.2161,5.4705,-63.8557,24,0.4292,8513,3.8302,83.3099
rg,1624619716162194442,1,0.2581,-0.7354,0.635,131,-39.0015,-91.5527,18.1885,124,0.6353,0.2271,4.1053,-66.4056,25,0.4332,10607,3.8302,87.2537
rg,1624619716162223385,1,0.5466,-1.158,1.0762,132,-100.1587,-43.1519,35.5225,124,0.6413,0.2421,3.8957,-69.5301,25,0.4382,7955,3.8302,89.4625
rg,1624619716162245922,1,0.3606,-1.6335,0.8667,133,-37.6587,48.8892,29.4189,124,0.6543,0.2671,5.0704,-70.8417,25,0.4452,8026,3.8302,88.0375
rg,1624619716162265088,1,0.2039,-1.5444,0.8955,134,7.5684,39.978,7.8735,124,0.6753,0.2871,5.2059,-68.1225,25,0.4542,7873,3.8302,86.1866
rg,1624619716162283124,1,0.1843,-1.293,0.7668,135,115.1733,61.6455,12.3291,124,0.7043,0.3071,6.1772,-63.3701,25,0.4612,8021,3.8302,84.1398
rg,1624619716162304661,1,0.1565,-0.8501,0.4419,136,157.2876,59.6313,14.2822,124,0.7494,0.3362,7.2369,-57.2635,25,0.4672,9091,3.8302,82.3066
rg,1624619716162322012,1,0.0254,-0.5972,0.2981,137,120.3613,53.772,1.2207,124,0.7874,0.3642,8.128,-52.9323,25,0.4682,8570,3.8302,80.5077
rg,1624619716162340196,1,-0.2673,-0.5293,0.4192,138,56.1523,56.8237,-4.5166,124,0.8064,0.3802,9.9044,-50.9308,25,0.4692,8916,3.8302,78.5998
rg,1624619716162959011,1,-0.4858,-0.6528,0.5227,139,-4.2114,-25.0244,-9.9487,124,0.8194,0.3992,9.7524,-51.0097,24,0.4702,9949,3.8302,79.1383
rg,1624619716163101303,1,-0.1235,-0.8438,0.5461,140,-36.0107,-123.1079,15.8081,124,0.8284,0.4162,7.0956,-52.0457,24,0.4722,12473,3.8302,83.3987
rg,1624619716163130025,1,0.3948,-0.8127,0.5605,141,-41.4429,-139.3433,44.6167,124,0.8354,0.4262,4.0579,-53.273,24,0.4722,8461,3.8302,88.9322
rg,1624619716163158931,1,0.5898,-0.8479,0.5723,142,-60.9741,-127.5635,51.1475,124,0.8214,0.4332,1.433,-55.6396,25,0.4712,8010,3.8302,94.2871
rg,1624619716163197319,1,0.7222,-1.0762,0.5291,143,-119.0796,-93.689,23.9868,124,0.7504,0.4432,-0.932,-60.6412,25,0.4712,8340,3.8302,98.0175
rg,1624619716163254614,1,0.5906,-1.1936,0.4111,144,-123.8403,-38.0859,6.2866,124,0.6913,0.4362,-2.3121,-65.9849,25,0.4672,8055,3.8302,99.5384
rg,1624619716163305964,1,0.3855,-1.1294,0.3459,145,-114.6851,-4.1504,10.3149,124,0.6473,0.3702,-1.8676,-70.6092,25,0.4572,8401,3.8302,98.6163
rg,1624619716163334722,1,0.2524,-1.0774,0.3811,146,-117.3706,73.9746,14.2822,124,0.6283,0.2611,-0.8833,-75.2153,25,0.4442,8735,3.8302,95.9682
rg,1624619716163357925,1,0.0383,-0.8865,0.874,147,-68.8477,135.6201,10.498,124,0.6293,0.2181,0.7724,-76.8177,25,0.4422,8091,3.8302,90.7872
rg,1624619716163390350,1,-0.2908,-1.1624,0.6736,148,46.6919,116.8823,75.9888,124,0.6273,0.2091,5.2975,-74.4896,25,0.4382,8147,3.8302,87.017
rg,1624619716163432701,1,-0.27,-1.0923,0.4482,149,64.27,49.4995,73.4863,124,0.6263,0.2031,8.9673,-71.7723,25,0.4352,8183,3.8302,85.9909
rg,1624619716163528106,1,-0.2717,-0.6885,0.0933,150,110.7178,-68.5425,-9.4604,124,0.6263,0.1981,8.1614,-67.3571,24,0.4332,8352,3.8302,88.4196
rg,1624619716163576697,1,-0.2732,-0.1721,0.1687,151,118.8965,-106.9946,-33.9966,124,0.6273,0.1981,6.594,-61.6039,24,0.4302,8176,3.8302,91.89
rg,1624619716163609733,1,-0.1768,0.0186,0.1213,152,93.75,-101.2573,-12.9395,124,0.6273,0.2001,6.8997,-58.2142,24,0.4302,8372,3.8302,96.2844
rg,1624619716163654120,1,-0.021,-0.1377,0.1597,153,-23.7427,-128.2349,37.2314,124,0.6303,0.2101,5.433,-57.9114,24,0.4312,8236,3.8302,101.5392
rg,1624619716163693119,1,0.7109,-0.9919,0.8455,154,-135.2539,-114.7461,46.875,124,0.6333,0.2181,3.5359,-62.6191,24,0.4332,8430,3.8302,106.5406
rg,1624619716163724007,1,0.6587,-1.5894,0.8169,155,-92.4683,34.2407,38.147,124,0.6373,0.2261,4.5782,-66.3429,24,0.4372,8279,3.8302,105.9824
rg,1624619716163752543,1,0.3987,-1.6257,0.6575,156,-41.9922,52.8564,18.4937,124,0.6463,0.2531,5.5873,-68.0675,24,0.4422,8488,3.8302,104.3228
rg,1624619716163794690,1,0.0947,-1.2986,0.7954,157,46.1426,70.1294,8.606,124,0.6633,0.2701,6.6247,-66.0945,24,0.4492,8350,3.8302,101.8867
rg,1624619716163828560,1,-0.0037,-0.9382,0.7012,158,103.2715,56.4575,16.1743,124,0.6933,0.2981,7.9363,-61.6718,24,0.4592,9591,3.8302,100.1766
rg,1624619716167632502,1,0.0405,-0.9031,0.5317,159,97.7173,17.0898,7.1411,124,0.7324,0.3212,8.1224,-57.7364,24,0.4672,8441,3.8302,99.7233
rg,1624619716167774202,1,-0.002,-0.8945,0.3135,160,93.4448,11.6577,15.3198,124,0.7754,0.3472,8.5804,-54.5171,24,0.4682,9139,3.8302,99.5938
rg,1624619716493824911,1,-0.2305,-0.7063,0.4773,161,1.77,-60.1196,8.8501,124,0.8224,0.3972,7.7335,-54.1792,24,0.4692,25691,3.8302,101.7743
rg,1624619716493860299,1,0.1829,-0.7939,0.4512,162,-16.5405,-90.8203,40.4053,124,0.8284,0.4082,6.2039,-54.5936,24,0.4712,8558,3.8302,105.6676
rg,1624619716493881205,1,0.3689,-0.7949,0.4539,163,-24.6582,-86.0596,55.2979,124,0.8334,0.4172,4.9818,-55.3747,25,0.4732,7699,3.8302,109.7569
rg,1624619716493900816,1,0.6504,-0.9446,0.5608,164,-79.5898,-70.7397,48.4619,124,0.7774,0.4252,3.7489,-58.4106,25,0.4742,7668,3.8302,113.2138
rg,1624619716493919204,1,0.5298,-1.1687,0.4539,165,-114.4409,-17.8833,17.8833,124,0.7143,0.4282,3.0105,-63.2835,25,0.4712,7845,3.8302,114.2034
rg,1624619716493984739,1,0.4143,-1.1252,0.3257,166,-96.4966,27.9541,18.0664,124,0.6663,0.4062,3.2597,-67.555,25,0.4662,9297,3.8302,113.4929
rg,1624619716494004313,1,0.1306,-1.0544,0.2742,167,-82.5195,91.98,11.1084,124,0.6343,0.2921,4.5512,-71.3712,25,0.4512,9587,3.8302,110.1881
rg,1624619716494022683,1,-0.1492,-0.8894,0.6299,168,-87.7075,118.4082,-4.9438,124,0.6323,0.2271,5.8644,-74.6299,25,0.4462,7931,3.8302,105.6315
rg,1624619716494040812,1,-0.3013,-1.0574,0.8049,169,-22.2778,129.1504,-6.4697,124,0.6303,0.2121,7.2257,-75.2537,25,0.4432,7828,3.8302,100.6286
rg,1624619716494058626,1,-0.3965,-1.1638,0.5542,170,61.4624,34.79,50.293,124,0.6303,0.2091,9.9247,-72.4904,25,0.4402,7900,3.8302,99.899
rg,1624619716494076885,1,-0.3792,-0.7925,0.1914,171,115.2344,-68.1152,-4.0283,124,0.6303,0.2021,9.4437,-67.5853,25,0.4372,7940,3.8302,102.4476
rg,1624619716494094884,1,-0.272,-0.5439,0.2156,172,131.5918,-108.3374,-11.9629,124,0.6303,0.1991,7.7828,-61.7803,25,0.4362,8427,3.8302,106.2348
rg,1624619716494112291,1,-0.2393,-0.1025,0.1719,173,108.5815,-108.7036,-4.5776,124,0.6333,0.2021,6.9532,-56.2029,25,0.4352,8588,3.8302,110.085
rg,1624619716494130179,1,0.0542,-0.1401,0.2942,174,-3.1128,-132.6294,18.4326,124,0.6343,0.2131,3.9696,-54.7086,25,0.4352,7855,3.8302,115.0286
rg,1624619716494163067,1,0.2981,-0.4556,0.4868,175,-61.5845,-125.9155,24.5361,124,0.6363,0.2191,0.816,-56.7227,24,0.4382,8488,3.8302,119.7817
rg,1624619716494185085,1,0.7356,-1.2534,0.9587,176,-94.8486,-25.5737,36.8652,124,0.6413,0.2441,0.6595,-60.5305,24,0.4432,9756,3.8302,121.4462
rg,1624619716494202974,1,0.5596,-1.6055,0.8594,177,-33.5083,58.4717,17.7612,124,0.6523,0.2541,1.7046,-61.9408,24,0.4502,7960,3.8302,119.7386
rg,1624619716494220325,1,0.3079,-1.3835,0.8926,178,63.9038,97.168,5.188,124,0.6733,0.2741,3.2906,-59.3341,25,0.4582,8121,3.8302,116.4393
rg,1624619716494238769,1,0.2522,-1.196,0.7737,179,112.0605,109.4971,13.5498,124,0.7023,0.2921,5.603,-55.098,25,0.4662,8131,3.8302,113.0184
rg,1624619716494256583,1,0.0696,-0.823,0.427,180,141.3574,95.3979,10.376,124,0.7344,0.3142,7.8437,-50.0738,25,0.4712,8025,3.8302,110.171
rg,1624619716494295415,1,-0.1365,-0.499,0.2395,181,110.5957,79.4067,17.7612,124,0.7694,0.3322,10.7183,-46.5111,25,0.4722,8154,3.8302,108.1763
rg,1624619716494313729,1,-0.2419,-0.4314,0.3767,182,72.998,75.9277,23.4985,124,0.7954,0.3482,14.1493,-43.6472,25,0.4722,8036,3.8302,106.7175
rg,1624619716494331173,1,-0.4287,-0.5798,0.5884,183,-6.897,-13.916,18.7378,124,0.8094,0.3652,14.7845,-43.7066,25,0.4722,8228,3.8302,107.6694
rg,1624619716494349414,1,-0.0874,-0.8931,0.5254,184,-51.2695,-118.7744,41.5649,124,0.8124,0.3762,12.2043,-45.2902,25,0.4732,8094,3.8302,112.1592
rg,1624619716494366709,1,0.1619,-0.9504,0.6121,185,-67.1997,-136.2915,54.4434,124,0.7784,0.3822,8.7366,-48.0953,25,0.4752,8281,3.8302,117.7913
rg,1624619716494383487,1,0.572,-1.1428,0.6531,186,-103.3936,-147.583,41.626,124,0.7013,0.3902,5.1311,-52.6249,25,0.4712,8190,3.8302,122.7884
rg,1624619716494401968,1,0.49,-1.176,0.4165,187,-111.7554,-88.9282,27.5879,124,0.6653,0.3762,3.0044,-57.4647,25,0.4652,8432,3.8302,126.3255
rg,1624619716494420189,1,0.4724,-1.2109,0.3105,188,-89.2334,-62.5,23.0713,124,0.6373,0.3011,1.6335,-61.5701,25,0.4552,8173,3.8302,128.945
rg,1624619716494437652,1,0.219,-1.1069,0.3579,189,-94.8486,31.6162,8.728,124,0.6273,0.2291,2.0182,-65.7823,25,0.4452,8412,3.8302,127.9689
rg,1624619716494454688,1,0.061,-1.0615,0.6248,190,-16.2354,102.356,6.3477,124,0.6283,0.2031,3.7014,-66.351,24,0.4432,8275,3.8302,124.3305
rg,1624619716494471873,1,-0.1707,-1.1946,0.5635,191,39.7339,91.8579,36.9873,124,0.6273,0.1931,6.6896,-64.9355,24,0.4392,9497,3.8302,121.5822
rg,1624619716494489761,1,-0.3596,-1.0903,0.4268,192,62.9883,65.3687,8.5449,124,0.6273,0.1861,6.9029,-61.2645,24,0.4362,8753,3.8302,120.7702
rg,1624619716863648114,1,-0.3428,0.0439,0.1833,193,77.1484,-51.2695,-1.1597,124,0.6313,0.1971,7.1838,-56.6412,25,0.4342,26325,3.8302,122.7385
rg,1624619716863754315,1,-0.0178,-0.3884,0.3987,194,-75.5005,-60.1196,35.2783,124,0.6343,0.2101,6.8959,-58.8061,25,0.4362,8524,3.8302,125.6124
rg,1624619716863776777,1,0.5508,-1.2571,1.1423,195,-125.1831,-16.9067,34.1797,124,0.6413,0.2211,6.8161,-63.2168,25,0.4412,10836,3.8302,126.9582
rg,1624619716863798961,1,0.2488,-1.5454,0.6587,196,-25.0244,48.7671,19.9585,124,0.6523,0.2441,7.7845,-64.5282,25,0.4482,7966,3.8302,125.5314
rg,1624619716863817665,1,0.1807,-1.2053,0.8101,197,59.1431,58.0444,0.3052,124,0.6763,0.2621,8.2459,-62.1123,25,0.4582,8416,3.8302,123.4726
rg,1624619716863837220,1,0.0459,-0.8054,0.5393,198,107.2998,71.4111,10.9253,124,0.7023,0.2851,9.6056,-57.9366,25,0.4652,10473,3.8302,121.2044
rg,1624619716863855719,1,-0.1489,-0.6206,0.4087,199,97.3511,65.7349,9.2163,124,0.7334,0.3041,11.0481,-55.1715,25,0.4702,8372,3.8302,119.5214
rg,1624619716863874348,1,-0.1914,-0.6287,0.4536,200,52.4902,30.0903,7.2021,124,0.7654,0.3282,12.0895,-53.1901,25,0.4722,8533,3.8302,118.7069
rg,1624619716863893755,1,-0.2007,-0.7534,0.5098,201,9.3994,-24.8413,7.8735,124,0.7894,0.3422,11.758,-52.7025,25,0.4742,8396,3.8302,119.6924
rg,1624619716863911162,1,-0.0952,-0.8291,0.499,202,-10.1318,-74.1577,16.2354,105,0.8064,0.3642,10.2493,-52.8089,24,0.4762,11485,3.8522,122.4522
rg,1624619716863943253,1,0.1045,-0.8506,0.499,203,-16.1743,-93.2007,31.4941,105,0.8134,0.3762,8.3876,-53.0993,24,0.4792,9098,3.8522,126.192
rg,1624619716863965216,1,0.4001,-0.9058,0.5544,204,-45.0439,-114.3188,41.5039,105,0.8064,0.3892,5.942,-54.4994,24,0.4812,8827,3.8522,130.8815
rg,1624619716864042825,1,0.6023,-1.093,0.5364,205,-93.5669,-111.145,30.8838,105,0.7504,0.3992,3.3156,-58.1964,24,0.4822,8470,3.8522,135.2817
rg,1624619716864062009,1,0.4875,-1.1221,0.4148,206,-106.4453,-93.9331,15.1367,105,0.6943,0.3902,1.1555,-62.8067,24,0.4802,8715,3.8522,138.8546
rg,1624619716864079675,1,0.3418,-1.0874,0.3953,207,-89.8438,-56.3354,10.498,105,0.6573,0.3622,-0.1042,-66.6345,24,0.4672,8563,3.8522,141.0874
rg,1624619716864097453,1,0.1687,-0.9561,0.4177,208,-91.7358,35.2173,18.7988,105,0.6373,0.2511,0.7461,-70.2807,24,0.4562,13260,3.8522,140.0603
rg,1624619716864129063,1,0.2571,-0.9583,0.7322,209,-59.3872,66.1621,14.0991,105,0.6353,0.2241,3.4478,-69.9892,24,0.4512,8553,3.8522,136.0127
rg,1624619716864147840,1,0.071,-1.2261,0.6057,210,29.1138,107.1777,76.416,105,0.6343,0.2171,7.5362,-68.8454,24,0.4462,8609,3.8522,133.0616
rg,1624619716864165988,1,-0.1917,-1.0464,0.4055,211,86.1816,62.9883,31.6162,105,0.6333,0.2111,9.7461,-65.6671,24,0.4432,8783,3.8522,131.2049
rg,1624619716864183876,1,-0.2522,-0.4858,0.0791,212,145.752,-24.231,-19.2261,105,0.6333,0.2101,9.3186,-60.2797,24,0.4412,11438,3.8522,131.6753
rg,1624619716864201987,1,-0.3904,-0.0249,0.1245,213,123.4741,-38.5132,-28.5034,105,0.6363,0.2131,9.5839,-54.6805,25,0.4412,9375,3.8522,132.5716
rg,1624619716864219579,1,-0.2412,0.0088,0.1396,214,-0.7935,-52.4292,34.0576,105,0.6383,0.2191,11.2941,-53.2548,25,0.4422,8716,3.8522,135.3055
rg,1624619716864237726,1,0.436,-0.8159,0.8376,215,-143.3716,-93.2007,48.9502,105,0.6413,0.2311,9.6289,-57.8444,25,0.4442,8858,3.8522,139.6671
rg,1624619716864255078,1,0.5815,-1.6301,1.041,216,-114.1968,48.584,41.626,105,0.6453,0.2481,11.019,-62.5227,24,0.4482,8767,3.8522,138.832
rg,1624619716864272059,1,0.2922,-1.6919,0.6738,217,-56.5186,67.9932,23.5596,105,0.6553,0.2651,11.4535,-63.399,24,0.4542,9018,3.8522,136.6536
rg,1624619716864289243,1,0.0278,-1.3853,0.9438,218,33.5693,65.918,-1.9531,105,0.6733,0.2781,12.0912,-62.2331,24,0.4622,8840,3.8522,134.2761
rg,1624619716864307113,1,0.0315,-0.9307,0.7161,219,110.9619,46.936,14.2212,105,0.7013,0.2941,12.9804,-57.6978,24,0.4712,9047,3.8522,132.9627
rg,1624619716864325075,1,0.0618,-0.804,0.4539,220,95.8862,18.4937,8.728,105,0.7354,0.3142,13.0228,-54.0758,24,0.4762,8851,3.8522,132.4865
rg,1624619716864343019,1,0.0649,-0.8005,0.2988,221,74.9512,18.3105,14.2212,105,0.7734,0.3362,13.2553,-51.7523,24,0.4772,9006,3.8522,132.0826
rg,1624619716864361130,1,-0.1267,-0.7417,0.4272,222,61.4624,27.5879,9.3384,105,0.7984,0.3492,13.6071,-50.3368,24,0.4762,8671,3.8522,131.2325
rg,1624619716864381722,1,-0.2598,-0.7288,0.488,223,32.3486,9.4604,-8.2397,105,0.8104,0.3622,13.9117,-49.4206,24,0.4762,9126,3.8522,130.6594
rg,1624619716864401166,1,-0.3052,-0.7793,0.47,224,-0.6104,-50.0488,2.0752,105,0.8184,0.3782,12.8679,-49.4227,25,0.4772,8945,3.8522,132.1964
rg,1624619717233929273,1,0.4976,-0.9822,0.5559,225,-95.0928,-119.2017,31.6772,105,0.7564,0.4022,9.5295,-52.7132,25,0.4802,27200,3.8522,136.7352
rg,1624619717234006901,1,0.405,-1.1382,0.4111,226,-111.8774,-86.6089,14.7705,105,0.6783,0.3892,7.6176,-57.0748,24,0.4752,8422,3.8522,139.5026
rg,1624619717234027659,1,0.3433,-1.1038,0.3767,227,-88.9893,-45.0439,23.8037,105,0.6423,0.3522,6.5938,-60.8918,24,0.4642,8546,3.8522,141.5106
rg,1624619717234047696,1,0.2141,-1.0676,0.3535,228,-87.2803,16.0522,23.5596,105,0.6323,0.2541,7.4811,-64.5916,25,0.4482,10500,3.8522,140.2249
rg,1624619717234066473,1,0.0164,-1.2615,0.6267,229,17.334,130.6763,46.3867,105,0.6313,0.2301,11.0531,-64.4857,25,0.4422,11012,3.8522,136.2481
rg,1624619717234084695,1,0.0625,-1.271,0.6362,230,41.0767,99.9146,74.9512,105,0.6313,0.2231,15.2706,-63.3904,25,0.4392,8614,3.8522,133.8961
rg,1624619717234132045,1,-0.3364,-1.1118,0.3333,231,113.3423,28.3203,0.8545,105,0.6303,0.2211,15.8804,-59.5158,25,0.4372,8570,3.8522,132.7805
rg,1624619717234152952,1,-0.2905,-0.4404,0.1533,232,165.1611,-83.9844,-39.917,105,0.6303,0.2151,13.3441,-52.8012,25,0.4352,8406,3.8522,134.6881
rg,1624619717234172174,1,-0.3616,-0.022,0.1514,233,151.6724,-92.9565,-28.8696,105,0.6323,0.2191,11.9332,-45.6257,25,0.4352,9760,3.8522,137.0803
rg,1624619717234189932,1,-0.1394,0.0063,0.1199,234,36.0107,-101.3794,35.2783,105,0.6343,0.2311,11.4791,-42.2422,25,0.4352,8812,3.8522,141.2804
rg,1624619717234214024,1,0.0737,-0.2302,0.2129,235,-38.7573,-121.2158,48.4009,105,0.6373,0.2341,7.7888,-43.0753,25,0.4372,8428,3.8522,146.047
rg,1624619717234232505,1,0.8389,-1.0964,1.0957,236,-133.3008,-49.8047,47.2412,105,0.6413,0.2421,6.4117,-48.101,24,0.4412,8613,3.8522,148.8585
rg,1624619717234249727,1,0.4392,-1.5078,0.6895,237,-68.3594,107.605,32.5928,105,0.6473,0.2621,9.3431,-51.8148,24,0.4462,8490,3.8522,146.3225
rg,1624619717234268375,1,0.0737,-1.3577,0.8862,238,6.1035,104.0039,-5.8594,105,0.6603,0.2751,11.2258,-52.3844,24,0.4532,8694,3.8522,142.8044
rg,1624619717234286541,1,-0.0417,-1.1472,0.9429,239,43.457,114.1968,0.6104,105,0.6823,0.2931,13.8806,-49.8552,24,0.4632,8538,3.8522,139.9313
rg,1624619717234305040,1,-0.1521,-0.8796,0.655,240,90.1489,64.27,10.8643,105,0.7093,0.3082,15.6636,-46.82,25,0.4722,8663,3.8522,138.2007
rg,1624619717234322373,1,-0.0715,-0.8364,0.5107,241,78.7964,7.9346,6.4697,105,0.7434,0.3242,15.6297,-44.1604,25,0.4762,8559,3.8522,138.0138
rg,1624619717234340502,1,-0.0076,-0.7617,0.4028,242,62.5,5.0049,21.6064,105,0.7784,0.3442,15.8031,-42.2484,25,0.4772,8735,3.8522,138.3181
rg,1624619717234359724,1,-0.1445,-0.7473,0.5046,243,46.6309,8.0566,13.1226,105,0.8004,0.3572,15.5589,-41.771,25,0.4762,8597,3.8522,138.2845
rg,1624619717234378446,1,-0.2002,-0.7817,0.5654,244,5.0659,-22.3999,-1.77,105,0.8114,0.3702,14.7061,-41.9034,25,0.4762,8768,3.8522,138.7204
rg,1624619717234396853,1,-0.1018,-0.8696,0.5068,245,-11.7798,-63.6597,11.5967,105,0.8184,0.3852,12.8142,-42.5722,25,0.4772,8635,3.8522,140.6611
rg,1624619717234450740,1,0.166,-0.8564,0.4583,246,-9.7046,-73.4863,30.2734,105,0.8254,0.3962,10.65,-43.1033,25,0.4802,9628,3.8522,143.4473
rg,1624619717234477295,1,0.3687,-0.7793,0.4727,247,-47.1191,-79.2847,39.3066,105,0.8084,0.4062,8.2633,-44.9905,24,0.4822,11093,3.8522,146.7411
rg,1624619717234501127,1,0.373,-0.9883,0.4487,248,-125.5493,-68.4204,16.3574,105,0.7364,0.4152,5.8953,-50.4359,24,0.4822,8663,3.8522,149.1624
rg,1624619717234519997,1,0.2959,-1.0884,0.4446,249,-137.4512,-48.7671,13.0615,105,0.6853,0.4062,4.3917,-56.3929,24,0.4782,8173,3.8522,151.0181
rg,1624619717234538626,1,0.2722,-1.0942,0.4673,250,-124.3896,-27.71,18.7378,105,0.6473,0.3452,4.6308,-61.4634,24,0.4642,8413,3.8522,151.5862
rg,1624619717234558478,1,0.1018,-1.0684,0.7222,251,-113.1592,40.4663,26.7944,105,0.6373,0.2401,5.9403,-65.8378,24,0.4512,13292,3.8522,150.6345
rg,1624619717234577459,1,-0.1179,-1.3896,0.7393,252,25.3906,98.877,58.3496,105,0.6363,0.2341,9.6189,-65.0154,24,0.4452,8451,3.8522,147.9906
rg,1624619717234597051,1,-0.0156,-1.3662,0.6111,253,55.481,38.9404,85.6934,105,0.6363,0.2191,11.1597,-62.13,24,0.4432,8319,3.8522,148.6032
rg,1624619717234616661,1,-0.0911,-1.0762,0.3005,254,102.417,-18.6157,7.6904,105,0.6353,0.2201,10.8137,-58.3653,24,0.4402,8513,3.8522,149.3152
rg,1624619717234636642,1,-0.1755,-0.5005,0.2048,255,143.7378,-52.124,-32.1655,105,0.6353,0.2171,8.876,-52.8007,24,0.4382,8337,3.8522,150.278
rg,1624619717234659567,1,-0.2817,-0.0322,0.1743,256,121.8872,-71.0449,-30.3955,105,0.6363,0.2171,7.8782,-46.8931,24,0.4382,10548,3.8522,151.9119
rg,1624619717589516154,1,0.6851,-1.0525,0.9563,257,-115.4175,-81.9092,36.9263,105,0.6453,0.2341,7.1973,-52.3424,24,0.4422,25137,3.8522,153.6616
rg,1624619717589590596,1,0.3611,-1.5496,0.8018,258,-97.229,101.1353,19.4702,105,0.6523,0.2511,9.4176,-57.0251,24,0.4482,11475,3.8522,150.7544
rg,1624619717589610947,1,-0.0757,-1.4624,0.875,259,-7.2632,85.7544,-9.8877,105,0.6643,0.2711,10.6404,-57.9356,25,0.4542,9674,3.8522,147.5872
rg,1624619717589633354,1,-0.1055,-1.0935,0.7822,260,68.1152,59.3262,15.3809,105,0.6833,0.2871,12.2016,-55.3956,25,0.4622,7831,3.8522,145.9272
rg,1624619717589651687,1,-0.0198,-0.959,0.7163,261,86.2427,35.5835,11.7188,105,0.7083,0.3122,12.9691,-52.0513,25,0.4702,7898,3.8522,145.0393
rg,1624619717589670797,1,0.0122,-0.8828,0.4766,262,84.5947,14.5874,7.3242,105,0.7384,0.3372,13.0337,-49.1163,25,0.4772,7996,3.8522,144.6655
rg,1624619717589689130,1,-0.0271,-0.8589,0.3181,263,72.2046,16.2964,8.7891,105,0.7754,0.3612,13.3137,-47.1044,25,0.4812,8077,3.8522,144.214
rg,1624619717589708611,1,-0.1548,-0.708,0.4092,264,49.4995,10.498,2.0142,105,0.8004,0.3802,13.5681,-45.6886,25,0.4822,10871,3.8522,143.8402
rg,1624619717589726574,1,-0.2266,-0.6753,0.4436,265,33.5693,-9.0942,-5.6152,105,0.8114,0.3942,13.3545,-44.7379,25,0.4832,7907,3.8522,143.8485
rg,1624619717589743869,1,-0.1868,-0.6943,0.4717,266,-8.8501,-63.5376,6.4697,105,0.8184,0.4062,11.7218,-45.076,25,0.4852,7813,3.8522,145.7792
rg,1624619717589762350,1,0.1609,-0.7808,0.4512,267,-44.3115,-104.248,41.0767,105,0.8184,0.4142,9.1806,-46.6529,25,0.4862,7909,3.8522,149.8792
rg,1624619717589781350,1,0.3899,-0.8774,0.4939,268,-72.876,-118.103,48.3398,105,0.7814,0.4252,6.3379,-49.408,25,0.4862,7891,3.8522,154.6709
rg,1624619717589798386,1,0.5549,-1.1218,0.5522,269,-121.8262,-102.2949,17.0288,105,0.7214,0.4302,3.2326,-54.4665,25,0.4822,8004,3.8522,158.3153
rg,1624619717589816738,1,0.4707,-1.1887,0.4333,270,-109.1309,-51.0864,20.3247,105,0.6783,0.4062,1.8986,-59.2801,25,0.4742,7982,3.8522,160.4761
rg,1624619717589836774,1,0.4548,-1.2244,0.3545,271,-96.2524,-21.8506,31.189,105,0.6483,0.3202,1.7468,-63.6047,25,0.4632,8075,3.8522,161.8493
rg,1624619717589855644,1,0.3115,-1.1584,0.4189,272,-72.2046,47.9126,27.4658,105,0.6393,0.2541,2.9146,-66.7766,25,0.4542,8013,3.8522,160.5728
rg,1624619717589873829,1,-0.0071,-1.1543,0.4888,273,27.4048,118.103,28.3203,105,0.6383,0.2231,6.5705,-64.569,25,0.4502,13365,3.8522,156.7154
rg,1624619717589920087,1,-0.0542,-1.114,0.5327,274,75.5615,93.6279,52.1851,105,0.6373,0.2161,9.9376,-61.8827,24,0.4472,8091,3.8522,154.2759
rg,1624619717589941031,1,-0.4534,-0.8589,0.2129,275,131.4087,34.8511,-6.4697,105,0.6373,0.2171,11.0943,-57.3727,24,0.4452,8251,3.8522,152.8633
rg,1624619717589960086,1,-0.3984,-0.2478,0.1389,276,151.3672,-25.3906,-15.0757,105,0.6373,0.2181,10.4326,-50.7762,24,0.4442,8033,3.8522,154.4141
rg,1624619717589978881,1,-0.4126,-0.0259,0.1643,277,148.0103,-71.7773,-17.8223,105,0.6383,0.2191,9.9233,-43.9821,24,0.4432,8122,3.8522,156.3028
rg,1624619717589997270,1,-0.1951,0.116,0.1433,278,36.9873,-80.2612,39.7949,105,0.6403,0.2311,10.2072,-40.3298,24,0.4442,8791,3.8522,160.0198
rg,1624619717590015491,1,0.2202,-0.4404,0.3777,279,-113.5254,-102.8442,47.6685,105,0.6443,0.2431,7.3101,-44.5349,24,0.4472,8628,3.8522,164.2317
rg,1624619717590034639,1,0.6138,-0.9353,0.9163,280,-161.7432,-67.5659,45.3491,105,0.6493,0.2551,8.2236,-51.114,24,0.4502,8152,3.8522,164.4382
rg,1624619717590053287,1,0.4058,-1.6421,0.9722,281,-122.5586,108.2153,31.6772,105,0.6573,0.2691,10.9884,-56.7748,24,0.4562,8250,3.8522,161.6317
rg,1624619717590071564,1,-0.1333,-1.6968,0.9321,282,-10.7422,72.8149,-12.3291,105,0.6743,0.2901,11.8531,-57.9197,24,0.4642,8258,3.8522,158.8255
rg,1624619717590090397,1,-0.1663,-1.1663,0.7676,283,93.75,29.4189,0.8545,105,0.7023,0.3202,12.329,-54.3205,24,0.4742,9991,3.8522,157.8505
rg,1624619717590109081,1,0.0535,-0.8035,0.5002,284,118.5913,-12.2681,7.8735,105,0.7344,0.3402,11.6681,-49.6116,24,0.4822,8301,3.8522,158.3862
rg,1624619717590127692,1,0.0432,-0.6865,0.3269,285,108.3374,-16.1133,6.1035,105,0.7674,0.3582,10.8273,-45.9813,24,0.4852,8274,3.8522,158.8537
rg,1624619717590147488,1,0.0273,-0.5762,0.179,286,63.9038,-0.6104,13.7329,105,0.7934,0.3752,10.7187,-44.3858,25,0.4862,8431,3.8522,159.0614
rg,1624619717590166228,1,-0.1794,-0.678,0.5103,287,-5.8594,-9.5215,-0.1221,105,0.8054,0.3942,10.4961,-44.8993,25,0.4872,8299,3.8522,159.269
rg,1624619717590184931,1,-0.2344,-0.8706,0.4624,288,-28.0762,-39.6729,-0.1831,105,0.8104,0.4022,8.6421,-46.8821,25,0.4902,8440,3.8522,161.9968
rg,1624619717943519208,1,0.5859,-1.1855,0.5774,289,-106.6284,-135.376,20.874,105,0.7063,0.4222,4.537,-51.203,25,0.4842,25171,3.8522,166.6138
rg,1624619717943567058,1,0.5125,-1.168,0.332,290,-75.4395,-79.2847,26.4282,105,0.6653,0.3832,3.3495,-54.2867,25,0.4702,11010,3.8522,168.9551
rg,1624619717943588095,1,0.4141,-0.9563,0.3301,291,-61.8286,41.748,26.123,105,0.6473,0.2731,4.165,-57.3996,25,0.4632,12411,3.8522,168.1425
rg,1624619717943638612,1,0.2104,-0.98,0.4863,292,-7.7515,142.8223,18.2495,105,0.6443,0.2531,7.2038,-58.3824,25,0.4622,8285,3.8522,163.6493
rg,1624619717943659352,1,0.1243,-1.0872,0.4978,293,-4.3335,151.7944,41.0156,105,0.6433,0.2431,11.195,-59.528,25,0.4592,8411,3.8522,159.1976
rg,1624619717943680407,1,-0.2944,-1.2737,0.6006,294,32.6538,127.1973,16.3574,105,0.6423,0.2381,14.3455,-59.3377,25,0.4572,8319,3.8522,155.0021
rg,1624619717943699258,1,-0.4658,-0.7812,0.0122,295,132.0801,29.1748,-13.3057,105,0.6443,0.2371,15.2336,-55.388,24,0.4562,9895,3.8522,153.4689
rg,1624619717943718499,1,-0.3979,-0.1272,0.1826,296,138.7329,-10.376,-17.334,105,0.6443,0.2411,16.0628,-49.4448,24,0.4552,8005,3.8522,153.5757
rg,1624619717943737350,1,-0.3962,0.0481,0.2241,297,92.4072,-0.3052,-2.3804,105,0.6473,0.2441,17.7083,-44.703,24,0.4552,8013,3.8522,153.8902
rg,1624619717943755905,1,-0.281,-0.23,0.1606,298,-42.4194,-31.3721,25.3906,105,0.6503,0.2461,18.5998,-46.166,24,0.4562,7835,3.8522,155.4798
rg,1624619717943786163,1,0.1926,-1.0647,1.0012,299,-140.9912,-62.8662,23.0103,105,0.6543,0.2571,16.6375,-50.9956,24,0.4592,8031,3.8522,158.1347
rg,1624619717943805922,1,0.072,-1.5901,0.7925,300,-125.1831,-11.3525,24.7803,105,0.6633,0.2781,17.2352,-54.1666,24,0.4642,8872,3.8522,157.898
rg,1624619717943824977,1,0.0247,-1.6086,0.7222,301,-10.8643,5.7983,14.4043,105,0.6753,0.2941,17.1435,-55.0227,24,0.4692,8449,3.8522,157.9115
rg,1624619717943844088,1,0.0984,-1.2073,0.8972,302,69.0918,2.0752,4.7607,105,0.6943,0.3132,16.5334,-52.1772,24,0.4782,7982,3.8522,157.9598
rg,1624619717943862698,1,0.1384,-0.905,0.5735,303,126.8311,1.8921,15.4419,105,0.7264,0.3352,16.1358,-47.242,25,0.4842,8210,3.8522,158.2096
rg,1624619717943881124,1,0.1882,-0.8237,0.4683,304,125,0.6714,19.7754,105,0.7634,0.3572,15.6901,-42.6305,25,0.4872,7962,3.8522,158.5803
rg,1624619717943899382,1,0.1296,-0.7114,0.2556,305,100.708,17.8833,10.0098,105,0.7914,0.3742,15.5883,-39.7355,25,0.4872,8162,3.8522,158.0852
rg,1624619717943918178,1,-0.0962,-0.5481,0.4004,306,60.0586,44.4336,-2.0142,105,0.8074,0.3892,16.6307,-38.2432,25,0.4862,8095,3.8522,156.6965
rg,1624619717943938474,1,-0.2749,-0.5491,0.467,307,34.668,33.3862,-10.376,105,0.8154,0.3982,17.5993,-37.6417,24,0.4872,8271,3.8522,155.3707
rg,1624619717943958362,1,-0.4148,-0.7183,0.4675,308,-15.5029,-49.2554,0.6104,105,0.8224,0.4072,16.4257,-38.5798,24,0.4872,8112,3.8522,156.4511
rg,1624619717943980102,1,0.0615,-0.8584,0.5444,309,-38.8794,-123.3521,39.3066,105,0.8284,0.4202,12.8718,-39.7489,24,0.4892,8243,3.8522,160.7258
rg,1624619717944000769,1,0.3411,-0.9009,0.6169,310,-51.1475,-131.897,55.9082,105,0.8194,0.4272,8.9781,-41.4374,24,0.4892,8189,3.8522,165.8237
rg,1624619717944028231,1,0.6797,-1.1174,0.6372,311,-100.4639,-123.7793,44.7998,105,0.7554,0.4372,5.2929,-45.4959,24,0.4882,8325,3.8522,170.5076
rg,1624619717944056619,1,0.4512,-1.1877,0.4224,312,-104.9194,-72.4487,11.9019,105,0.6973,0.4342,2.7757,-50.3951,24,0.4842,8239,3.8522,-187.0597
rg,1624619717944076952,1,0.3818,-1.0574,0.3445,313,-80.2002,-48.4619,19.2261,105,0.6613,0.3972,2.5367,-53.6013,24,0.4752,8410,3.8522,-185.8388
rg,1624619717944096155,1,0.3655,-1.0276,0.3015,314,-67.0776,21.4233,35.7056,93,0.6403,0.2991,3.3696,-56.9993,25,0.4612,8293,3.8555,-185.7449
rg,1624619717944118710,1,0.1887,-0.8389,0.5381,315,-72.937,77.7588,13.9771,93,0.6383,0.2531,4.9021,-60.0809,25,0.4552,8459,3.8555,-188.1039
rg,1624619717944136524,1,-0.1362,-1.1567,0.7441,316,4.3335,142.5171,22.2778,93,0.6363,0.2281,8.5111,-60.3121,25,0.4502,8309,3.8555,167.3659
rg,1624619717944155301,1,-0.249,-1.2703,0.8472,317,16.6016,108.0322,47.2412,93,0.6353,0.2221,10.8661,-58.9331,25,0.4482,8522,3.8555,165.5981
rg,1624619717944175449,1,-0.5371,-1.0828,0.1311,318,95.8862,-6.958,-14.8315,93,0.6353,0.2191,10.8541,-55.9566,24,0.4462,8344,3.8555,165.3735
rg,1624619717944195522,1,-0.3884,-0.333,0.1565,319,149.7192,-90.5151,-36.8042,93,0.6373,0.2201,8.8435,-49.8597,24,0.4452,8609,3.8555,167.4412
rg,1624619717944214633,1,-0.3159,0.0659,0.2144,320,97.9004,-82.3364,3.6621,93,0.6393,0.2311,8.4595,-44.3337,24,0.4452,11257,3.8555,170.2647
rg,1624619718298500328,1,0.6865,-1.4233,0.9829,321,-121.521,-11.8408,33.9355,93,0.6543,0.2621,7.9909,-49.3877,25,0.4562,27061,3.8555,-188.4623
rg,1624619718298547012,1,0.238,-1.458,0.8696,322,11.2915,49.3774,-1.8311,93,0.6713,0.2831,8.589,-49.5388,25,0.4642,14350,3.8555,169.9161
rg,1624619718298567308,1,0.157,-1.2712,0.9243,323,44.3726,69.8242,1.0986,93,0.6903,0.2961,10.0173,-48.3329,24,0.4732,7721,3.8555,167.7677
rg,1624619718298587103,1,-0.0044,-0.9841,0.5994,324,95.7031,65.1245,9.9487,93,0.7184,0.3202,11.6986,-45.2321,24,0.4802,7806,3.8555,166.0255
rg,1624619718298606288,1,-0.064,-0.7422,0.3738,325,95.2148,50.9644,21.3013,93,0.7484,0.3422,13.4854,-42.3206,24,0.4862,7713,3.8555,165.0538
rg,1624619718298625343,1,-0.0864,-0.6553,0.3464,326,80.7495,43.8232,21.2402,93,0.7774,0.3602,15.1173,-40.0108,24,0.4872,7803,3.8555,164.33
rg,1624619718298642750,1,-0.2073,-0.6265,0.4565,327,31.9824,10.1929,1.709,93,0.7984,0.3722,15.4809,-39.328,24,0.4892,8380,3.8555,163.9729
rg,1624619718298660713,1,-0.2639,-0.8367,0.5386,328,-18.2495,-39.3066,6.5308,93,0.8104,0.3892,14.4462,-40.4215,24,0.4902,8356,3.8555,165.0409
rg,1624619718298678601,1,-0.1638,-0.9214,0.5266,329,-26.4282,-68.1763,18.7988,93,0.8154,0.4012,12.6979,-41.6795,24,0.4912,7792,3.8555,167.2771
rg,1624619718298696378,1,0.1978,-0.9475,0.5359,330,-46.1426,-100.9521,48.4009,93,0.8064,0.4092,10.1822,-43.4025,24,0.4922,7891,3.8555,171.3692
rg,1624619718298714081,1,0.4709,-1.0679,0.595,331,-72.0825,-114.624,47.4854,93,0.7544,0.4202,6.6934,-47.222,25,0.4912,7827,3.8555,-184.5619
rg,1624619718298731563,1,0.4097,-1.1174,0.5063,332,-107.1777,-95.8252,15.8691,93,0.7043,0.4182,3.7526,-51.8607,25,0.4872,7959,3.8555,-181.2619
rg,1624619718298769062,1,0.2991,-1.1079,0.3621,333,-79.9561,-58.0444,22.1558,93,0.6713,0.4032,2.4046,-55.6653,25,0.4792,7946,3.8555,-178.8895
rg,1624619718298787746,1,0.2952,-1.1033,0.2849,334,-61.9507,-35.3394,29.3579,93,0.6493,0.3322,2.5951,-58.922,25,0.4662,7988,3.8555,-177.9057
rg,1624619718298804690,1,0.2207,-0.999,0.366,335,-69.2749,13.9771,22.3389,93,0.6433,0.2751,3.0833,-62.1008,25,0.4592,7899,3.8555,-177.9604
rg,1624619718298822523,1,0.1128,-1.03,0.5737,336,6.5918,71.2891,18.0664,93,0.6423,0.2581,4.7082,-61.9245,25,0.4562,8013,3.8555,-180.1481
rg,1624619718298839245,1,0.0632,-1.085,0.5208,337,25.4517,78.3691,50.354,93,0.6413,0.2371,7.5904,-60.7134,25,0.4532,7998,3.8555,-181.259
rg,1624619718298856874,1,-0.3445,-0.9299,0.2917,338,55.6641,44.4336,21.7285,93,0.6403,0.2381,8.1127,-57.6439,25,0.4502,10562,3.8555,-181.5075
rg,1624619718298874911,1,-0.3369,-0.6726,0.1399,339,110.7788,-31.0059,-7.5073,93,0.6403,0.2321,7.893,-53.8121,25,0.4492,8370,3.8555,-180.7159
rg,1624619718298892836,1,-0.2844,-0.1584,0.209,340,109.6191,-61.2183,1.0986,93,0.6413,0.2311,7.8491,-48.708,25,0.4482,8096,3.8555,-178.6257
rg,1624619718298910725,1,-0.0215,-0.0735,0.2808,341,14.2212,-74.3408,33.2642,93,0.6433,0.2431,6.7425,-46.4561,25,0.4492,8189,3.8555,-175.3311
rg,1624619718298948427,1,0.3782,-0.7422,0.6602,342,-108.4595,-52.7344,38.5742,93,0.6483,0.2581,5.4567,-50.5606,25,0.4522,12725,3.8555,-172.6875
rg,1624619718298967149,1,0.4106,-1.4443,0.9255,343,-116.8213,51.1475,28.1372,93,0.6543,0.2701,6.8383,-55.5724,25,0.4552,8113,3.8555,-173.6504
rg,1624619718298984889,1,0.1519,-1.5618,0.8418,344,-78.8574,72.3267,15.4419,93,0.6623,0.2801,8.0638,-57.2108,25,0.4602,8243,3.8555,-175.4511
rg,1624619718299002241,1,-0.1492,-1.3401,0.7788,345,16.8457,37.4756,4.4556,93,0.6743,0.2941,8.9199,-56.8035,25,0.4652,8195,3.8555,-176.6406
rg,1624619718299020036,1,-0.011,-0.936,0.7256,346,66.1011,6.4087,18.0054,93,0.6943,0.3112,9.3237,-53.9376,25,0.4742,8274,3.8555,-176.4205
rg,1624619718299037777,1,0.1289,-0.8972,0.5381,347,69.0918,-4.8828,17.9443,93,0.7264,0.3342,9.1365,-51.278,25,0.4822,9365,3.8555,-175.8712
rg,1624619718299055073,1,0.175,-0.959,0.4353,348,65.6128,-7.3242,13.916,93,0.7614,0.3632,8.3612,-49.3317,25,0.4852,8254,3.8555,-175.5188
rg,1624619718299072183,1,0.1436,-0.9487,0.2908,349,65.1855,-0.1221,1.4648,93,0.7904,0.3822,7.7817,-47.6249,25,0.4852,8206,3.8555,-175.6188
rg,1624619718299089924,1,-0.1064,-0.7468,0.3577,350,59.8755,25.0854,-2.6855,93,0.8064,0.3922,8.3802,-45.9958,25,0.4862,8298,3.8555,-176.5217
rg,1624619718299107664,1,-0.3379,-0.6604,0.3665,351,34.3018,-8.7891,-2.6855,93,0.8134,0.4102,8.6821,-45.131,25,0.4862,8294,3.8555,-176.4148
rg,1624619718299125311,1,-0.342,-0.6719,0.3933,352,7.5684,-44.6777,9.0332,93,0.8204,0.4202,8.2808,-45.1187,25,0.4872,8414,3.8555,-174.9513
rg,1624619718683185234,1,0.3999,-1.0864,0.4807,353,-115.7227,-114.0747,23.7427,93,0.7093,0.4392,4.916,-50.0326,25,0.4802,26415,3.8555,-170.9872
rg,1624619718683226603,1,0.4287,-1.083,0.2715,354,-72.6929,-34.6069,49.7437,93,0.6543,0.3442,4.6523,-53.6546,25,0.4642,14156,3.8555,-168.7155
rg,1624619718683247695,1,0.4019,-0.8562,0.4717,355,-72.0215,34.5459,37.1704,93,0.6463,0.2721,5.6226,-56.8171,25,0.4592,8544,3.8555,-169.0053
rg,1624619718683275139,1,0.426,-0.9175,0.6606,356,-33.02,90.7593,28.2593,93,0.6433,0.2641,7.5016,-58.3094,25,0.4562,7761,3.8555,-171.4658
rg,1624619718683294898,1,0.1658,-1.2241,0.8093,357,-8.5449,139.7705,62.9272,93,0.6433,0.2541,11.9763,-59.1627,25,0.4542,7748,3.8555,-174.9872
rg,1624619718683313786,1,-0.1287,-1.2766,0.6992,358,10.8643,128.6011,31.6162,93,0.6423,0.2471,13.5522,-58.0201,25,0.4522,7879,3.8555,-178.3552
rg,1624619718683332489,1,-0.5015,-0.8962,0.1621,359,102.8442,39.6729,-37.3535,93,0.6433,0.2411,13.8061,-55.1818,24,0.4522,8320,3.8555,-180.7216
rg,1624619718683351082,1,-0.5981,-0.2698,0.2625,360,115.4785,17.4561,-30.0293,93,0.6443,0.2381,14.8426,-50.6731,24,0.4512,8324,3.8555,-181.9216
rg,1624619718683369211,1,-0.4558,-0.0615,0.2754,361,74.646,4.5166,-5.4932,93,0.6463,0.2411,15.965,-48.9727,24,0.4512,7841,3.8555,-180.1178
rg,1624619718683387340,1,-0.3132,-0.3347,0.2688,362,-50.8423,-97.29,19.3481,93,0.6503,0.2491,14.8242,-50.1127,24,0.4542,7982,3.8555,-176.5452
rg,1624619718683404839,1,0.3572,-1.1418,0.9988,363,-122.9858,-145.3247,22.1558,93,0.6533,0.2671,10.8999,-53.7817,24,0.4572,7942,3.8555,-171.2435
rg,1624619718683422506,1,0.3687,-1.5029,0.5627,364,-40.5884,-32.5317,28.8086,93,0.6613,0.2831,10.1876,-55.672,24,0.4622,12130,3.8555,-169.5878
rg,1624619718683440394,1,0.3027,-1.2178,0.5969,365,35.7056,-14.6484,2.6855,93,0.6733,0.2971,9.0663,-54.466,24,0.4662,10213,3.8555,-169.1045
rg,1624619718683478060,1,0.1304,-0.8513,0.5669,366,61.1572,19.2261,5.5542,93,0.6893,0.3061,9.0606,-52.1669,24,0.4732,8557,3.8555,-169.621
rg,1624619718683497467,1,0.1584,-0.8928,0.4822,367,65.0635,18.0054,6.3477,93,0.7184,0.3262,9.0123,-49.9985,25,0.4802,8490,3.8555,-170.1014
rg,1624619718683514966,1,0.1699,-0.9805,0.4312,368,73.1812,28.1372,13.1836,93,0.7544,0.3562,9.9178,-47.641,25,0.4862,8574,3.8555,-170.818
rg,1624619718683532521,1,0.1057,-0.9973,0.2981,369,87.4634,48.5229,16.7847,93,0.7904,0.3722,11.4089,-45.2242,25,0.4882,9834,3.8555,-171.9455
rg,1624619718683549799,1,-0.1658,-0.7476,0.3821,370,91.0034,64.0869,6.5918,93,0.8084,0.3902,13.4378,-42.6268,25,0.4882,8666,3.8555,-173.7122
rg,1624619718683566928,1,-0.4504,-0.572,0.3718,371,62.561,34.79,1.0376,93,0.8174,0.4052,15.2848,-40.8319,25,0.4892,8592,3.8555,-174.7356
rg,1624619718683583798,1,-0.4656,-0.6724,0.3879,372,3.418,-51.8188,22.1558,93,0.8224,0.4172,14.9416,-40.8018,25,0.4902,8902,3.8555,-172.8071
rg,1624619718683601279,1,-0.2544,-0.7209,0.4229,373,-17.8223,-93.75,39.6118,93,0.8284,0.4262,12.1609,-41.7299,25,0.4912,8112,3.8555,-167.9314
rg,1624619718683618871,1,0.3296,-0.9006,0.6094,374,-68.5425,-135.9253,66.7725,93,0.7934,0.4392,8.4107,-45.5312,24,0.4902,9362,3.8555,-162.2791
rg,1624619718683636352,1,0.6052,-1.1567,0.5952,375,-121.9482,-127.3804,33.6914,93,0.7354,0.4462,4.7876,-50.451,24,0.4862,8203,3.8555,-157.6024
rg,1624619718683654277,1,0.5269,-1.1038,0.3301,376,-77.5146,-59.7534,27.0996,93,0.6963,0.4392,3.0922,-54.1581,24,0.4802,8292,3.8555,-155.0767
rg,1624619718683671888,1,0.4795,-0.9646,0.218,377,-62.2559,34.729,37.8418,93,0.6663,0.3692,4.0241,-57.4544,24,0.4692,8222,3.8555,-155.3957
rg,1624619718683689443,1,0.3821,-0.886,0.3591,378,-87.4634,80.7495,27.8931,93,0.6533,0.2821,5.9052,-61.1741,25,0.4612,8324,3.8555,-157.5999
rg,1624619718683706480,1,0.1875,-0.876,0.8472,379,-72.3877,147.9492,9.1553,93,0.6523,0.2601,8.3589,-64.0935,25,0.4612,8262,3.8555,-162.6553
rg,1624619718683723572,1,-0.4395,-1.4802,1.0332,380,-18.2495,138.0615,37.4146,93,0.6503,0.2531,12.2601,-65.25,25,0.4602,8326,3.8555,-167.0337
rg,1624619718683741905,1,-0.5552,-1.3584,0.3621,381,20.2637,53.4668,27.1606,93,0.6503,0.2441,11.9114,-63.0325,25,0.4592,8375,3.8555,-166.7614
rg,1624619718683759701,1,-0.4966,-1.0176,0.4031,382,95.3369,-51.9409,-27.5879,93,0.6513,0.2431,10.4441,-59.1524,24,0.4582,8614,3.8555,-165.4655
rg,1624619718683778311,1,-0.3572,-0.3274,0.2183,383,133.728,-49.5605,-4.1504,93,0.6523,0.2441,10.4074,-53.4233,24,0.4572,8470,3.8555,-163.7986
rg,1624619718683816125,1,-0.2239,-0.0164,0.2451,384,50.293,-92.2852,2.4414,93,0.6543,0.2571,9.4995,-49.5853,24,0.4562,8465,3.8555,-160.5139
rg,1624619719142770767,1,0.436,-1.4265,0.7402,385,-62.0117,-17.9443,35.8887,93,0.6693,0.2841,9.2223,-52.3037,24,0.4652,26763,3.8555,-159.0954
rg,1624619719142807914,1,0.332,-1.4399,0.6257,386,-17.7612,-2.2583,21.6675,93,0.6803,0.3021,9.1056,-53.3505,24,0.4712,8577,3.8555,-158.559
rg,1624619719142828969,1,0.2217,-1.1765,0.7039,387,46.6309,21.9727,6.2256,93,0.6983,0.3212,9.1213,-51.7949,25,0.4772,7858,3.8555,-159.1609
rg,1624619719142874394,1,0.0801,-0.9692,0.5933,388,79.3457,44.6777,8.0566,93,0.7424,0.3592,9.9847,-49.086,25,0.4882,11646,3.8555,-160.4082
rg,1624619719142895320,1,-0.0317,-0.8728,0.4072,389,79.895,39.5508,8.7891,93,0.7734,0.3772,10.9946,-46.694,25,0.4912,7955,3.8555,-161.4811
rg,1624619719142914338,1,-0.1707,-0.7622,0.3499,390,65.5518,30.1514,9.1553,93,0.7964,0.3912,12.134,-44.9188,25,0.4922,7896,3.8555,-162.2427
rg,1624619719142933430,1,-0.3196,-0.7034,0.4592,391,34.1187,-5.4932,3.9062,93,0.8114,0.4032,12.438,-43.938,25,0.4932,8028,3.8555,-162.0601
rg,1624619719142952948,1,-0.3093,-0.7102,0.4739,392,15.4419,-39.2456,4.2114,93,0.8184,0.4172,11.4932,-43.6097,25,0.4942,8763,3.8555,-160.9409
rg,1624619719142970373,1,-0.0483,-0.7949,0.4631,393,-16.9678,-97.3511,20.752,93,0.8254,0.4252,8.962,-44.3218,25,0.4962,9057,3.8555,-157.7084
rg,1624619719142988021,1,0.3638,-0.8879,0.47,394,-51.6968,-113.5254,51.6968,93,0.8144,0.4352,6.1775,-46.4077,25,0.4972,8119,3.8555,-153.0682
rg,1624619719143006558,1,0.5366,-1.1121,0.5522,395,-118.2861,-97.9614,18.3716,93,0.7554,0.4422,3.0649,-51.452,24,0.4932,7904,3.8555,-149.6402
rg,1624619719143025650,1,0.4055,-1.1375,0.4446,396,-121.6431,-71.7163,7.3853,93,0.7073,0.4392,0.8136,-56.844,24,0.4882,8064,3.8555,-147.1373
rg,1624619719143043501,1,0.3352,-1.0488,0.291,397,-60.6689,-21.4233,31.0669,93,0.6733,0.3952,0.7262,-59.8947,24,0.4802,7994,3.8555,-145.7508
rg,1624619719143061038,1,0.3579,-0.9949,0.3301,398,-63.0493,12.0239,47.0581,93,0.6493,0.3041,2.3187,-64.0676,24,0.4662,7960,3.8555,-146.4758
rg,1624619719143079315,1,0.2913,-0.9016,0.5068,399,-91.4917,64.0259,30.4565,93,0.6483,0.2541,3.7598,-67.6741,24,0.4632,8094,3.8555,-148.2971
rg,1624619719143096870,1,0.0122,-1.2173,0.6768,400,-4.9438,137.0239,30.9448,93,0.6453,0.2401,6.7787,-68.0147,24,0.4582,8189,3.8555,-152.9137
rg,1624619719143115240,1,-0.199,-1.3823,0.5649,401,31.5552,73.7915,30.8228,93,0.6443,0.2291,9.0616,-67.0448,24,0.4562,8094,3.8555,-155.1951
rg,1624619719143133351,1,-0.4148,-1.2976,0.3596,402,76.6602,33.5693,-16.2354,93,0.6433,0.2331,9.3365,-64.4963,24,0.4542,8251,3.8555,-156.7398
rg,1624619719143150776,1,-0.4526,-0.5105,0.1335,403,147.3999,-26.001,-38.6963,93,0.6433,0.2291,8.6722,-58.8932,25,0.4522,8107,3.8555,-156.5397
rg,1624619719143169035,1,-0.4617,0.0371,0.1196,404,143.3716,-50.5371,-20.874,93,0.6433,0.2251,8.9864,-52.383,25,0.4512,8246,3.8555,-155.1058
rg,1624619719143186831,1,-0.4004,0.1621,0.1106,405,83.7402,-68.2373,7.2632,93,0.6453,0.2381,9.5218,-47.6937,25,0.4512,8134,3.8555,-152.5519
rg,1624619719143205923,1,-0.1023,-0.2759,0.1113,406,-81.7261,-146.4233,41.1987,93,0.6473,0.2481,7.3641,-50.8804,25,0.4522,8277,3.8555,-147.1123
rg,1624619719143235015,1,0.8997,-1.384,1.4321,407,-168.5181,-112.9761,46.6309,93,0.6503,0.2641,5.0367,-56.8225,24,0.4542,8158,3.8555,-142.2505
rg,1624619719143254477,1,0.679,-1.6443,0.9348,408,-120.3003,5.4932,45.0439,93,0.6573,0.2711,6.4219,-59.7127,24,0.4602,8421,3.8555,-143.3525
rg,1624619719143273033,1,0.1982,-1.5742,0.5024,409,-1.8921,41.9922,-0.4883,93,0.6653,0.2821,6.7196,-60.4393,24,0.4692,8228,3.8555,-144.8826
rg,1624619719143321513,1,-0.1504,-0.9111,0.6987,410,79.4067,54.8096,3.2349,93,0.6953,0.3051,7.9851,-57.1762,25,0.4792,15426,3.8555,-146.6692
rg,1624619719143345994,1,-0.0461,-0.9148,0.575,411,73.4253,-5.5542,-0.6104,93,0.7304,0.3242,7.6201,-54.237,25,0.4882,10277,3.8555,-146.5058
rg,1624619719143367141,1,0.0369,-0.9546,0.3164,412,75.9277,-6.7139,9.3384,93,0.7664,0.3462,7.3888,-51.8235,25,0.4902,9398,3.8555,-146.1621
rg,1624619719143387604,1,-0.0789,-0.7341,0.3401,413,70.9229,2.0142,0.6714,93,0.7924,0.3592,7.3956,-49.5122,24,0.4912,8268,3.8555,-146.276
rg,1624619719143406363,1,-0.1963,-0.6741,0.4277,414,58.0444,-2.5024,-8.4839,93,0.8044,0.3732,7.0262,-48.2057,24,0.4932,8404,3.8555,-145.6996
rg,1624619719143425918,1,-0.3093,-0.6243,0.3604,415,-5.9814,-63.8428,8.5449,93,0.8034,0.3842,6.2332,-48.6146,24,0.4942,8321,3.8555,-143.5973
rg,1624619719143443954,1,0.2012,-0.822,0.5205,416,-96.5576,-145.5688,30.9448,93,0.7534,0.3902,2.8144,-52.3879,24,0.4942,8460,3.8555,-138.3185
rg,1624619719378865777,1,0.5933,-1.0752,0.2136,417,-70.3125,-67.8711,48.0957,93,0.6623,0.3522,1.6267,-55.9399,24,0.4702,26884,3.8555,-135.0017
rg,1624619719378901758,1,0.6812,-0.9177,0.3687,418,-64.209,37.1094,39.7339,93,0.6583,0.2891,2.4178,-58.9009,24,0.4702,8394,3.8555,-135.3829
rg,1624619719378922164,1,0.6047,-0.9741,0.5056,419,-29.9072,114.1357,35.5225,93,0.6533,0.2751,4.9956,-60.5961,24,0.4692,7779,3.8555,-138.6272
rg,1624619719378941701,1,0.3228,-1.1902,0.5715,420,-34.0576,178.5278,43.8232,93,0.6513,0.2611,9.1612,-62.7665,24,0.4672,9249,3.8555,-144.1308
rg,1624619719378960145,1,-0.4592,-1.3127,0.5425,421,19.8975,157.7759,-18.4937,93,0.6513,0.2601,11.6853,-63.2392,24,0.4662,7831,3.8555,-150.2181
rg,1624619719378978830,1,-0.6514,-1.0571,0.189,422,81.2988,93.9941,-39.1846,93,0.6503,0.2571,12.3311,-59.1788,24,0.4632,7789,3.8555,-152.7443
rg,1624619719378996755,1,-0.7314,-0.4045,0.1753,423,139.0991,22.522,-23.1323,93,0.6523,0.2611,13.6984,-54.0496,25,0.4622,8065,3.8555,-153.9874
rg,1624619719379014421,1,-0.4709,-0.1108,0.3528,424,42.9077,-50.9644,31.8604,93,0.6543,0.2721,14.9331,-50.8432,25,0.4612,7772,3.8555,-151.2634
rg,1624619719379052698,1,-0.0186,-0.8455,0.6792,425,-72.7539,-164.1846,26.9775,93,0.6583,0.2791,11.1807,-52.399,25,0.4652,8000,3.8555,-145.2854
rg,1624619719379072476,1,0.3186,-1.2595,0.9055,426,-80.1392,-155.1514,29.6631,93,0.6623,0.2921,7.5956,-54.7142,25,0.4672,7845,3.8555,-139.509
rg,1624619719379089994,1,0.4185,-1.5068,0.5349,427,10.7422,-61.6455,35.5225,92,0.6693,0.3051,6.4849,-54.523,24,0.4712,7992,3.8566,-136.7364
rg,1624619719379107641,1,0.3037,-1.0642,0.5869,428,55.2979,-39.4897,17.7612,92,0.6823,0.3152,5.3255,-51.6399,24,0.4772,7951,3.8566,-136.3578
rg,1624619719379124808,1,0.1506,-0.7661,0.5618,429,83.4961,35.2783,-2.5024,92,0.7254,0.3412,6.0835,-49.0852,24,0.4882,11889,3.8566,-137.9095
rg,1624619719379141881,1,-0.012,-0.8738,0.4995,430,62.0117,49.5605,1.0986,92,0.7634,0.3632,7.4142,-47.3526,24,0.4922,7963,3.8566,-139.2495
rg,1624619719379159085,1,-0.3074,-0.8335,0.3862,431,67.5659,33.1421,7.0801,92,0.7894,0.3752,8.9763,-45.419,24,0.4932,9106,3.8566,-140.1007
rg,1624619719379176232,1,-0.3799,-0.6941,0.396,432,61.9507,12.8784,5.9814,92,0.8024,0.3852,10.1616,-43.5014,24,0.4942,8107,3.8566,-140.3644
rg,1624619719379204028,1,-0.3582,-0.531,0.3254,433,20.5688,-65.918,12.6953,92,0.8084,0.3952,9.3727,-42.8126,24,0.4962,7986,3.8566,-138.2385
rg,1624619719379222602,1,0.1042,-0.6572,0.5369,434,-68.1152,-129.8218,49.5605,92,0.8024,0.4042,6.3946,-45.1345,24,0.4982,8206,3.8566,-133.1972
rg,1624619719379240990,1,0.4255,-0.8921,0.6702,435,-116.2109,-157.8979,55.1147,92,0.7544,0.4172,2.7269,-49.5654,24,0.4992,8070,3.8566,-127.0407
rg,1624619719379258601,1,0.6484,-1.1965,0.5354,436,-144.8975,-141.9678,28.2593,92,0.7053,0.4152,-0.886,-55.8228,24,0.4932,8700,3.8566,-121.8152
rg,1624619719379275785,1,0.5627,-1.0652,0.2524,437,-82.4585,-68.7256,32.4097,92,0.6733,0.3982,-2.247,-59.9002,24,0.4842,8738,3.8566,-118.754
rg,1624619719379292952,1,0.6484,-0.8879,0.1997,438,-58.4717,-28.3813,47.5464,92,0.6543,0.3262,-1.1539,-63.3026,25,0.4732,8146,3.8566,-118.846
rg,1624619719379310155,1,0.6455,-0.7559,0.4949,439,-87.7075,101.9287,40.1001,92,0.6513,0.2771,0.7218,-66.5722,25,0.4722,8254,3.8566,-121.8388
rg,1624619719379327840,1,0.2334,-1.2979,0.7981,440,-74.1577,220.8252,43.396,92,0.6473,0.2621,5.2146,-69.5999,25,0.4692,8123,3.8566,-129.3795
rg,1624619719379345080,1,-0.4497,-1.8411,0.675,441,-5.7373,172.9736,33.9355,92,0.6463,0.2541,9.1172,-70.5815,25,0.4662,8217,3.8566,-135.4742
rg,1624619719379362080,1,-0.552,-1.6592,0.3621,442,61.8896,81.2988,0.6714,92,0.6463,0.2501,10.6069,-68.8944,25,0.4652,8386,3.8566,-138.5984
rg,1624619719379379394,1,-0.5371,-0.72,0.2253,443,168.6401,-46.0205,-53.6499,92,0.6463,0.2471,8.8593,-62.1307,25,0.4632,8282,3.8566,-137.7539
rg,1624619719379396820,1,-0.4297,-0.0466,0.1914,444,167.7856,-57.5562,-7.5073,92,0.6473,0.2491,9.3336,-54.4102,25,0.4622,8293,3.8566,-135.6799
rg,1624619719379414004,1,-0.3999,0.0906,0.1665,445,112.4878,-69.9463,12.7563,92,0.6483,0.2521,9.566,-51.4941,24,0.4632,8434,3.8566,-131.3363
rg,1624619719379430893,1,-0.1917,-0.2881,0.0164,446,-21.1182,-161.2549,30.4565,92,0.6523,0.2611,7.562,-52.5544,24,0.4652,8356,3.8566,-125.6242
rg,1624619719379448281,1,0.5605,-0.9927,0.8457,447,-114.624,-167.5415,43.1519,92,0.6573,0.2681,3.9375,-56.3588,24,0.4682,8455,3.8566,-119.0916
rg,1624619719379465355,1,0.5256,-1.4309,0.6384,448,-44.7998,7.6904,53.9551,92,0.6643,0.2841,5.0498,-58.419,24,0.4722,9095,3.8566,-118.2013
rg,1624619719731345305,1,0.0159,-0.991,0.7092,449,57.4951,85.2661,13.3667,92,0.7274,0.3152,7.0955,-56.2263,24,0.4952,26893,3.8566,-120.7931
rg,1624619719731391507,1,-0.1028,-1.0596,0.4604,450,78.8574,35.7666,10.6812,92,0.7714,0.3542,8.1848,-53.5986,25,0.4992,16492,3.8566,-121.7806
rg,1624619719731413136,1,-0.1558,-0.7529,0.3459,451,89.9658,29.3579,10.8032,92,0.7944,0.3632,9.3253,-50.4761,25,0.4992,7816,3.8566,-122.3844
rg,1624619719731433414,1,-0.2368,-0.5889,0.3574,452,81.543,23.5596,8.1177,92,0.8064,0.3722,10.5663,-47.6102,25,0.4992,7813,3.8566,-122.9315
rg,1624619719731452302,1,-0.3604,-0.4883,0.3718,453,24.5361,-27.2827,5.3101,92,0.8154,0.3852,10.7541,-46.6184,25,0.5012,10812,3.8566,-121.9913
rg,1624619719731508690,1,-0.1245,-0.7009,0.4736,454,-57.4951,-110.2905,37.7197,92,0.8144,0.3942,8.8171,-48.5326,24,0.5022,7847,3.8566,-117.7184
rg,1624619719731529726,1,0.4971,-1.0552,0.6567,455,-128.6011,-167.7246,37.8418,92,0.7694,0.4032,4.6409,-53.2779,24,0.5032,9135,3.8566,-111.5307
rg,1624619719731549300,1,0.5657,-1.1511,0.6316,456,-133.606,-151.2451,15.0757,92,0.7224,0.4092,0.8224,-58.8875,24,0.4992,7922,3.8566,-106.1724
rg,1624619719731599743,1,0.4507,-1.1128,0.3394,457,-78.6133,-86.5479,23.6816,92,0.6893,0.4092,-0.8805,-62.5282,24,0.4912,7837,3.8566,-102.673
rg,1624619719731621965,1,0.5923,-0.98,0.218,458,-50.293,-31.189,45.5322,92,0.6633,0.3652,-0.9195,-65.0608,25,0.4802,9715,3.8566,-100.7239
rg,1624619719731641872,1,0.4363,-0.8044,0.3418,459,-71.0449,67.8101,22.2168,92,0.6563,0.3011,-0.0166,-67.9365,25,0.4742,7881,3.8566,-102.8393
rg,1624619719731661519,1,0.4048,-0.8674,0.5791,460,-59.9976,120.7275,11.4746,92,0.6523,0.2841,1.3042,-69.9395,25,0.4742,7900,3.8566,-107.1732
rg,1624619719731681297,1,-0.0085,-1.4419,0.9324,461,-59.082,170.6543,30.4565,92,0.6513,0.2681,4.6055,-72.0943,25,0.4712,7936,3.8566,-113.2293
rg,1624619719731702055,1,-0.5474,-1.438,0.3523,462,48.0347,65.0635,-13.0615,92,0.6503,0.2631,5.5477,-70.5486,25,0.4702,8157,3.8566,-115.8738
rg,1624619719731720610,1,-0.55,-1.0618,0.1553,463,112.0605,-17.7002,-36.0107,92,0.6513,0.2651,4.7934,-66.4381,25,0.4692,7954,3.8566,-115.7415
rg,1624619719731742925,1,-0.4028,-0.2581,0.2246,464,160.2173,-61.2183,-17.9443,92,0.6533,0.2641,4.655,-59.4332,25,0.4672,8104,3.8566,-113.7374
rg,1624619719731762869,1,-0.2634,0.0549,0.2268,465,62.0117,-60.2417,26.1841,92,0.6563,0.2751,5.8983,-55.2597,24,0.4692,10406,3.8566,-110.9491
rg,1624619719731801571,1,0.0129,-0.5762,0.291,466,-78.9795,-120.5444,28.9917,92,0.6593,0.2871,3.9691,-58.3101,24,0.4712,8198,3.8566,-106.2876
rg,1624619719731823201,1,0.3682,-1.0212,0.7502,467,-117.0044,-117.8589,33.02,92,0.6643,0.2911,2.029,-62.5416,24,0.4742,8039,3.8566,-101.4928
rg,1624619719731842385,1,0.4036,-1.5486,0.7446,468,-59.5703,6.0425,35.5225,92,0.6713,0.3031,2.809,-64.9582,24,0.4782,8243,3.8566,-101.0761
rg,1624619719731860163,1,0.1548,-1.3926,0.7058,469,29.541,13.1836,-2.8687,92,0.6813,0.3102,2.5972,-63.717,24,0.4842,8118,3.8566,-101.6025
rg,1624619719731878458,1,0.0974,-1.1816,0.8057,470,56.5796,23.0713,-4.6387,92,0.6993,0.3282,2.626,-61.1724,24,0.4912,8375,3.8566,-102.4989
rg,1624619719731896495,1,0.0706,-0.9546,0.594,471,100.3418,23.6816,1.77,92,0.7314,0.3442,2.9222,-57.0705,24,0.4982,8130,3.8566,-103.2809
rg,1624619719731915532,1,0.1118,-0.9268,0.4111,472,108.3374,21.7896,9.5215,92,0.7674,0.3652,3.3669,-53.1166,24,0.5012,8268,3.8566,-103.8116
rg,1624619719731933846,1,0.071,-0.8728,0.3291,473,107.9712,28.1982,6.8359,92,0.7954,0.3782,4.2776,-49.6511,25,0.5022,8128,3.8566,-104.8561
rg,1624619719731952086,1,-0.1511,-0.6313,0.3035,474,93.2617,43.335,0.8545,92,0.8094,0.3882,5.7695,-46.5945,25,0.5022,8369,3.8566,-106.1635
rg,1624619719731971586,1,-0.4167,-0.4961,0.4026,475,44.4336,20.752,1.4648,92,0.8154,0.3932,7.4276,-45.019,25,0.5022,8227,3.8566,-106.7196
rg,1624619719731989622,1,-0.311,-0.6133,0.4072,476,-17.1509,-77.3926,21.0571,92,0.8214,0.4012,6.4738,-45.7684,25,0.5032,8233,3.8566,-103.9556
rg,1624619719732008622,1,-0.0352,-0.696,0.4922,477,-46.5088,-108.3374,44.1284,92,0.8244,0.4092,4.6383,-47.5433,25,0.5052,8374,3.8566,-99.6081
rg,1624619719732027658,1,0.5842,-1.0017,0.6335,478,-108.5205,-139.5874,56.8237,92,0.7914,0.4182,1.6247,-51.9083,25,0.5042,8296,3.8566,-93.8638
rg,1624619719732045417,1,0.5571,-1.2068,0.4973,479,-119.6289,-88.2568,17.7002,92,0.7324,0.4292,-0.7773,-57.208,25,0.4992,8516,3.8566,-90.5525
rg,1624619719732066046,1,0.53,-1.1812,0.3613,480,-98.7549,-60.3027,26.4282,92,0.6903,0.4282,-1.1727,-60.6549,25,0.4922,8339,3.8566,-88.6784
rg,1624619720089698472,1,0.291,-0.8193,0.6562,481,-88.562,124.6948,1.4648,92,0.6493,0.2601,1.1973,-63.8278,24,0.4702,26565,3.8566,-93.0752
rg,1624619720089744952,1,-0.4695,-1.7073,0.7871,482,-8.606,100.0366,36.5601,92,0.6483,0.2401,4.7437,-64.3669,25,0.4692,8924,3.8566,-96.0488
rg,1624619720089766248,1,-0.5264,-1.2239,0.094,483,134.1553,-55.8472,-37.2925,92,0.6493,0.2361,3.1231,-59.6687,25,0.4672,9496,3.8566,-94.7967
rg,1624619720089786063,1,-0.3457,-0.2451,0.2197,484,206.9702,-88.2568,-24.7192,92,0.6503,0.2351,1.8732,-50.9969,25,0.4672,7806,3.8566,-92.3123
rg,1624619720089805210,1,-0.2805,0.0227,0.2124,485,192.9932,-89.1113,-7.6904,92,0.6513,0.2431,0.9883,-42.0893,25,0.4682,7846,3.8566,-89.7558
rg,1624619720089824154,1,-0.1172,0.0737,0.0393,486,60.0586,-114.9292,29.3579,92,0.6543,0.2461,0.1068,-38.3729,24,0.4692,9007,3.8566,-85.8011
rg,1624619720089842932,1,0.2493,-0.4739,0.1128,487,-87.6465,-152.2217,37.9639,92,0.6583,0.2611,-4.5132,-43.3147,24,0.4732,8495,3.8566,-80.6302
rg,1624619720089861431,1,0.7131,-0.894,0.7441,488,-135.7422,-112.9761,35.5835,92,0.6613,0.2711,-4.3973,-48.9579,24,0.4762,7805,3.8566,-79.2931
rg,1624619720089905504,1,0.6567,-1.4604,0.8428,489,-97.7783,103.6987,43.335,92,0.6663,0.2881,-1.1242,-53.1525,24,0.4802,7956,3.8566,-81.3868
rg,1624619720089926800,1,0.0591,-1.4216,0.6821,490,-17.0288,120.9106,-8.0566,92,0.6723,0.2971,1.417,-54.2719,24,0.4832,7804,3.8566,-85.4713
rg,1624619720089957262,1,-0.1614,-1.261,0.8958,491,9.3994,113.3423,-18.0664,92,0.6793,0.3001,3.6453,-54.0791,24,0.4882,8009,3.8566,-89.5767
rg,1624619720089975947,1,-0.3535,-0.9194,0.6929,492,61.8896,62.5,12.5122,92,0.7003,0.3061,6.0667,-51.6986,24,0.4952,7893,3.8566,-91.2629
rg,1624619720089995280,1,-0.1091,-0.9072,0.6621,493,73.6694,-18.0054,19.2261,92,0.7294,0.3252,6.1775,-48.7211,24,0.5012,8026,3.8566,-90.2205
rg,1624619720090013298,1,0.0393,-0.9243,0.5505,494,73.4863,-33.8745,25.3296,92,0.7574,0.3382,5.6873,-46.0195,24,0.5072,7922,3.8566,-88.5808
rg,1624619720090032261,1,0.1069,-0.8579,0.3481,495,77.8809,-25.5127,22.7051,92,0.7834,0.3522,5.1411,-43.6193,24,0.5102,8114,3.8566,-87.3058
rg,1624619720090050019,1,0.0044,-0.6743,0.4055,496,59.7534,-5.249,10.8643,92,0.8014,0.3622,5.0732,-41.7875,24,0.5112,7952,3.8566,-86.9
rg,1624619720090067982,1,-0.1013,-0.6262,0.4639,497,40.2832,-8.3618,10.376,92,0.8114,0.3682,5.1915,-40.5797,24,0.5133,8120,3.8566,-86.404
rg,1624619720090085815,1,-0.1123,-0.6963,0.4163,498,1.8921,-50.1709,19.043,92,0.8184,0.3782,4.2937,-41.0552,24,0.5143,7974,3.8566,-84.572
rg,1624619720090103426,1,0.3752,-0.9341,0.5825,499,-48.2178,-70.1294,48.9502,92,0.8014,0.3892,2.2207,-44.6955,24,0.5153,8330,3.8566,-81.0976
rg,1624619720090120999,1,0.3718,-1.0515,0.626,500,-109.314,-80.0171,21.8506,92,0.7444,0.3952,-0.043,-49.5336,24,0.5133,8131,3.8566,-78.1485
rg,1624619720090138647,1,0.1821,-1.0471,0.4292,501,-110.8398,-66.1621,12.8784,92,0.6973,0.3992,-1.6086,-54.6786,24,0.5052,8246,3.8566,-75.7273
rg,1624619720090156221,1,0.2834,-0.8777,0.2861,502,-71.4111,-60.791,46.4478,92,0.6603,0.3732,-2.0011,-58.2589,25,0.4902,8203,3.8566,-72.64
rg,1624619720090173980,1,0.4016,-0.8259,0.3552,503,-105.5298,-14.0381,35.4614,92,0.6543,0.2891,-1.8939,-62.8059,25,0.4812,9279,3.8566,-71.4146
rg,1624619720090191368,1,0.5527,-0.8708,0.644,504,-93.4448,35.8887,24.0479,92,0.6523,0.2671,-1.3805,-66.1736,25,0.4792,8117,3.8566,-72.2862
rg,1624619720090209553,1,0.5254,-1.5742,0.9243,505,-65.3687,127.3193,66.2231,92,0.6523,0.2591,2.4202,-68.5532,24,0.4762,8296,3.8566,-75.9731
rg,1624619720090227330,1,-0.2034,-1.7617,0.5598,506,33.1421,129.1504,7.2632,92,0.6513,0.2431,4.7463,-67.6599,24,0.4752,8166,3.8566,-80.6746
rg,1624619720090245108,1,-0.425,-1.4485,0.425,507,100.5249,61.7676,-38.5742,92,0.6523,0.2431,3.5214,-61.5821,24,0.4732,8406,3.8566,-82.2726
rg,1624619720090263348,1,-0.6057,-0.509,0.1775,508,198.1201,-1.0376,-63.6597,92,0.6533,0.2441,2.9467,-53.9868,24,0.4722,8409,3.8566,-83.491
rg,1624619720090298366,1,-0.4375,0.1045,0.1711,509,156.0669,-43.5181,-9.0332,92,0.6553,0.2481,3.6125,-46.7489,25,0.4732,8432,3.8566,-82.1929
rg,1624619720090319050,1,-0.3347,-0.0037,0.0559,510,8.3618,-85.2051,18.6768,92,0.6583,0.2571,4.0298,-45.9553,25,0.4752,8251,3.8566,-79.1634
rg,1624619720090336624,1,0.0713,-0.6589,0.3694,511,-65.7959,-123.1689,27.0996,92,0.6623,0.2651,0.6824,-51.464,25,0.4772,8475,3.8566,-73.8388
rg,1624619720090355475,1,0.5618,-1.1743,1.1807,512,-155.9448,-126.8311,32.4097,92,0.6673,0.2821,-1.9376,-57.4782,25,0.4792,8349,3.8566,-68.9216
rg,1624619720445503371,1,0.0828,-0.9536,0.7415,513,44.7388,28.7476,-7.5073,92,0.7063,0.3212,-0.8408,-55.0585,24,0.4972,26456,3.8566,-70.2918
rg,1624619720445578295,1,0.0513,-0.9568,0.6072,514,48.9502,12.085,12.3901,92,0.7374,0.3422,-0.2278,-53.1918,25,0.5042,11433,3.8566,-70.395
rg,1624619720445610276,1,0.092,-1.0051,0.4189,515,48.8281,4.6997,13.0005,92,0.7654,0.3612,0.2028,-51.4573,25,0.5102,7738,3.8566,-70.2314
rg,1624619720445641256,1,0.0325,-0.9226,0.3494,516,66.2842,12.207,14.7705,92,0.7874,0.3692,0.8844,-49.4942,25,0.5123,7781,3.8566,-70.2381
rg,1624619720445670015,1,-0.1396,-0.6292,0.4189,517,59.6313,19.5923,6.5918,92,0.8004,0.3772,1.9755,-47.3794,25,0.5133,7696,3.8566,-70.6474
rg,1624619720445698533,1,-0.2539,-0.5522,0.3972,518,37.8418,0.3052,3.6011,92,0.8044,0.3902,2.8086,-46.1103,25,0.5163,7712,3.8566,-70.5564
rg,1624619720445727384,1,-0.1436,-0.6038,0.4519,519,-50.4761,-76.0498,33.3862,92,0.7894,0.4002,2.0466,-48.2553,25,0.5163,8088,3.8566,-67.4315
rg,1624619720445755569,1,0.3694,-0.9768,0.6348,520,-126.1597,-136.1084,39.4897,92,0.7394,0.4072,-0.8976,-53.5549,25,0.5112,9801,3.8566,-62.1932
rg,1624619720445784105,1,0.4448,-1.0889,0.3528,521,-109.1919,-90.6982,34.9121,92,0.6933,0.4032,-1.5808,-57.6552,25,0.4992,11499,3.8566,-59.2157
rg,1624619720445810882,1,0.5422,-1.0356,0.2622,522,-70.0684,-41.5039,55.2368,92,0.6733,0.3692,-1.493,-61.1417,25,0.4872,7833,3.8566,-56.6216
rg,1624619720445837752,1,0.542,-0.8428,0.365,523,-69.0918,34.79,36.8042,92,0.6683,0.3082,-0.6573,-64.0648,25,0.4832,8084,3.8566,-57.1559
rg,1624619720445864881,1,0.5222,-0.8486,0.5713,524,-54.0771,92.8955,33.3252,92,0.6643,0.2941,2.8256,-66.0532,25,0.4822,7848,3.8566,-61.9237
rg,1624619720445891473,1,0.1067,-1.3796,0.7981,525,-63.9038,166.9312,46.2646,92,0.6623,0.2881,6.8007,-68.8108,25,0.4812,7879,3.8566,-67.3855
rg,1624619720445918657,1,-0.4519,-1.5237,0.4319,526,13.0615,116.7603,-1.5869,92,0.6623,0.2761,8.7593,-69.0802,25,0.4792,8151,3.8566,-71.8329
rg,1624619720445963971,1,-0.5503,-1.1746,0.2512,527,58.2275,51.8799,-30.7007,92,0.6633,0.2771,8.1362,-65.6405,25,0.4772,8108,3.8566,-72.6502
rg,1624619720445998637,1,-0.5745,-0.4387,0.2822,528,106.2622,-20.6299,-35.7666,92,0.6643,0.2801,7.9396,-61.1407,25,0.4772,8146,3.8566,-72.4516
rg,1624619720446027692,1,-0.3804,-0.1331,0.1777,529,48.9502,-62.0117,10.5591,92,0.6663,0.2911,8.86,-58.3462,25,0.4762,7946,3.8566,-69.9516
rg,1624619720446054969,1,-0.0845,-0.6482,0.3835,530,-6.6528,-92.8345,15.1978,92,0.6683,0.2991,6.8342,-60.1112,24,0.4762,8127,3.8566,-65.1579
rg,1624619720446082061,1,0.2178,-1.0447,0.7988,531,-86.0596,-130.0049,27.5269,92,0.6723,0.3001,4.702,-62.7227,24,0.4792,8031,3.8566,-59.9907
rg,1624619720446109135,1,0.363,-1.4514,0.5676,532,-24.9634,-57.0068,34.668,92,0.6783,0.3152,4.226,-63.7274,24,0.4822,8208,3.8566,-57.3371
rg,1624619720446134949,1,0.3389,-1.2095,0.5686,533,16.8457,-43.457,21.5454,92,0.6853,0.3252,3.4583,-61.999,24,0.4862,8115,3.8566,-56.3614
rg,1624619720446161874,1,0.2886,-1.0134,0.6057,534,58.96,1.6479,11.3525,92,0.7003,0.3352,3.2144,-59.5125,25,0.4942,8255,3.8566,-56.2073
rg,1624619720446188966,1,0.1775,-0.9121,0.5063,535,75.5615,30.5176,6.6528,92,0.7254,0.3502,3.5741,-56.594,25,0.5002,8105,3.8566,-57.123
rg,1624619720446215502,1,0.0581,-0.9519,0.4211,536,80.0781,47.4243,14.7705,92,0.7554,0.3602,4.8663,-53.8531,25,0.5052,8254,3.8566,-58.3814
rg,1624619720446242076,1,-0.0164,-0.9336,0.4148,537,83.8013,53.894,15.625,92,0.7824,0.3742,6.5124,-51.1116,25,0.5062,8137,3.8566,-59.7659
rg,1624619720446268983,1,-0.1956,-0.7588,0.4241,538,79.2847,34.1187,8.8501,92,0.8004,0.3812,7.9045,-48.4143,24,0.5062,8298,3.8566,-60.6233
rg,1624619720446295704,1,-0.2974,-0.6809,0.4497,539,48.7671,-15.1978,7.8735,92,0.8114,0.3892,8.2068,-46.6677,24,0.5062,9246,3.8566,-59.9874
rg,1624619720446321741,1,-0.0273,-0.7661,0.4905,540,9.9487,-70.4956,27.5879,92,0.8184,0.4022,6.8241,-46.3149,24,0.5072,10213,3.8566,-57.217
rg,1624619720446348907,1,0.2209,-0.863,0.4331,541,-2.3804,-74.707,40.5884,93,0.8234,0.4082,5.2015,-46.7048,24,0.5072,8251,3.8577,-53.9886
rg,1624619720446374369,1,0.3303,-0.8689,0.4673,542,-22.1558,-62.439,42.1143,93,0.8134,0.4172,3.8471,-47.9027,24,0.5072,8404,3.8577,-51.0442
rg,1624619720446425701,1,0.3682,-0.9934,0.5266,543,-92.8345,-59.1431,23.3154,93,0.7524,0.4292,2.2025,-51.9956,24,0.5032,8389,3.8577,-48.6367
rg,1624619720446453793,1,0.2158,-1.009,0.4089,544,-101.8677,-49.7437,9.9487,93,0.7033,0.4322,0.849,-56.6115,24,0.4952,8466,3.8577,-46.7909
rg,1624619720814737109,1,0.3083,-0.8123,0.7175,545,-75.1343,54.0771,25.8789,93,0.6473,0.2641,2.7093,-59.4487,24,0.4652,27039,3.8577,-48.0773
rg,1624619720814777256,1,-0.1785,-1.437,0.7075,546,-9.4604,105.5908,58.0444,93,0.6463,0.2471,6.0754,-59.294,24,0.4612,10821,3.8577,-49.068
rg,1624619720814797737,1,-0.3442,-1.4182,0.4277,547,49.4995,21.9727,11.4746,93,0.6463,0.2431,7.4387,-57.8999,24,0.4592,8937,3.8577,-49.6328
rg,1624619720814817181,1,-0.4497,-0.8413,0.2981,548,126.2207,-27.832,-19.104,93,0.6463,0.2431,6.9411,-53.2314,24,0.4572,7875,3.8577,-49.1629
rg,1624619720814836792,1,-0.3394,-0.2188,0.1919,549,133.2397,-62.8662,1.5869,93,0.6463,0.2441,6.9265,-47.5417,24,0.4552,7788,3.8577,-47.0725
rg,1624619720814856403,1,-0.2317,-0.0493,0.1807,550,98.5718,-100.769,6.4087,93,0.6473,0.2421,5.5999,-42.4442,24,0.4552,8174,3.8577,-43.8567
rg,1624619720814874921,1,-0.0107,-0.239,0.2117,551,-15.625,-142.0898,17.2119,93,0.6493,0.2481,1.7708,-43.0145,24,0.4562,8062,3.8577,-39.5035
rg,1624619720814893291,1,0.5476,-0.9565,0.7075,552,-101.6846,-92.4683,34.79,93,0.6513,0.2561,-0.8411,-47.4065,24,0.4582,7978,3.8577,-35.8738
rg,1624619720814910716,1,0.6123,-1.2461,0.7703,553,-95.7642,-22.583,37.7197,93,0.6533,0.2681,0.186,-50.7419,24,0.4602,7874,3.8577,-36.1653
rg,1624619720814929253,1,0.2439,-1.2854,0.5491,554,-34.5459,46.6919,6.7749,93,0.6583,0.2761,1.1496,-52.7467,24,0.4622,7889,3.8577,-37.4636
rg,1624619720814947438,1,-0.0747,-1.0107,0.6985,555,6.4697,64.0869,-11.4136,93,0.6643,0.2851,2.4216,-52.6516,24,0.4652,7902,3.8577,-39.7848
rg,1624619720814965715,1,-0.2217,-0.9084,0.6553,556,9.5825,71.8384,-0.4272,93,0.6733,0.2981,4.5725,-52.4758,24,0.4722,8099,3.8577,-42.0861
rg,1624619720814982918,1,-0.1902,-0.9753,0.7126,557,-5.4321,2.6855,8.3618,93,0.6913,0.3041,3.9916,-52.4074,24,0.4822,7860,3.8577,-41.0512
rg,1624619720815000696,1,0.0449,-1.1243,0.6523,558,25.2075,-32.8369,11.8408,93,0.7113,0.3202,3.3259,-51.5999,25,0.4902,7944,3.8577,-39.743
rg,1624619720815018029,1,0.2139,-1.0635,0.4392,559,62.561,-14.4043,18.8599,93,0.7394,0.3332,3.0067,-49.6564,25,0.4972,8150,3.8577,-38.8643
rg,1624619720815034936,1,0.1721,-0.8838,0.3691,560,67.8101,-2.6855,6.6528,93,0.7694,0.3462,2.6734,-47.6068,25,0.4992,8126,3.8577,-39.1558
rg,1624619720815074472,1,0.0972,-0.7805,0.3403,561,60.8521,21.5454,-0.9155,93,0.7944,0.3602,2.8769,-45.9291,25,0.5002,8188,3.8577,-39.8508
rg,1624619720815093971,1,-0.0337,-0.7764,0.439,562,32.2876,27.6489,-4.2114,93,0.8084,0.3702,3.5009,-45.2535,25,0.4992,8029,3.8577,-40.7903
rg,1624619720815112582,1,-0.0649,-0.8804,0.4297,563,19.2871,11.2305,-5.4321,93,0.8154,0.3812,3.3278,-45.5465,25,0.4982,8064,3.8577,-40.6494
rg,1624619720815130230,1,-0.0161,-0.916,0.3962,564,10.1929,-15.686,4.0283,93,0.8204,0.3892,2.9205,-45.9155,25,0.4982,8236,3.8577,-40.1332
rg,1624619720815147674,1,0.0894,-0.8545,0.344,565,12.9395,-20.6909,20.6299,93,0.8244,0.3972,2.6165,-46.1867,25,0.4972,8104,3.8577,-39.0067
rg,1624619720815164803,1,0.1013,-0.6853,0.4116,566,-34.6069,-33.7524,27.6489,93,0.8244,0.4062,2.1261,-47.9845,25,0.4952,8272,3.8577,-37.2809
rg,1624619720815182765,1,0.1267,-0.7759,0.47,567,-79.4067,-46.5698,22.644,93,0.7434,0.4142,1.2242,-51.505,25,0.4922,8145,3.8577,-35.2771
rg,1624619720815200135,1,0.3137,-0.9788,0.4199,568,-113.9526,-81.9702,27.2217,93,0.6973,0.4152,-0.4917,-56.5926,25,0.4852,12674,3.8577,-31.9686
rg,1624619720815217617,1,0.3735,-0.939,0.343,569,-86.853,-71.167,31.311,93,0.6683,0.3962,-1.806,-60.732,24,0.4752,8187,3.8577,-28.8511
rg,1624619720815234838,1,0.4431,-0.8621,0.219,570,-79.2236,-7.7515,47.9736,93,0.6493,0.3242,-1.1955,-64.4415,24,0.4622,8192,3.8577,-27.6529
rg,1624619720815251412,1,0.354,-0.9309,0.6965,571,-97.29,84.9609,36.1938,93,0.6453,0.2701,0.8676,-67.8821,24,0.4562,8364,3.8577,-30.1752
rg,1624619720815268301,1,-0.1699,-1.5757,0.9949,572,-65.1855,131.6528,36.7432,93,0.6433,0.2591,5.0555,-68.4539,24,0.4532,8295,3.8577,-34.1047
rg,1624619720815285985,1,-0.2039,-1.6047,0.6418,573,11.8408,56.4575,57.373,93,0.6433,0.2521,8.0738,-68.1005,25,0.4502,8392,3.8577,-35.3679
rg,1624619720815303318,1,-0.2368,-1.3691,0.5508,574,67.1997,-29.9683,-18.7378,93,0.6433,0.2451,6.9579,-65.2952,25,0.4482,8488,3.8577,-34.5498
rg,1624619720815321947,1,-0.2988,-0.679,0.2146,575,129.0283,-32.5317,-18.5547,93,0.6433,0.2451,6.3298,-60.2962,25,0.4462,8333,3.8577,-33.7244
rg,1624619720815339966,1,-0.2969,-0.1968,0.0977,576,126.3428,-74.7681,-19.2261,93,0.6443,0.2451,5.7586,-55.0919,25,0.4452,8840,3.8577,-31.518
rg,1624619721185900272,1,0.573,-0.9653,0.7615,577,-72.2046,-126.4038,34.6069,93,0.6513,0.2691,4.1293,-58.7402,25,0.4482,27138,3.8577,-27.7264
rg,1624619721185938863,1,0.6265,-1.2866,0.8499,578,-92.5903,-14.7705,41.4429,93,0.6593,0.2871,5.2339,-61.3143,25,0.4532,8523,3.8577,-28.3103
rg,1624619721185959715,1,0.0542,-1.4014,0.782,579,8.3618,57.9834,2.8687,93,0.6703,0.2931,6.1566,-61.1456,25,0.4612,8063,3.8577,-30.2997
rg,1624619721186010288,1,-0.103,-1.1245,0.7729,580,58.8989,58.1665,16.0522,93,0.6873,0.3031,7.7926,-58.7631,25,0.4712,10220,3.8577,-31.9853
rg,1624619721186031861,1,-0.0559,-1.0498,0.6816,581,79.7729,32.6538,19.7144,93,0.7083,0.3132,8.4374,-55.2525,25,0.4792,7793,3.8577,-32.3044
rg,1624619721186052028,1,0.0581,-0.9248,0.4426,582,96.3745,20.0806,14.2212,93,0.7354,0.3232,8.9125,-51.8092,25,0.4852,7952,3.8577,-32.6856
rg,1624619721186070805,1,-0.0176,-0.7996,0.3079,583,95.459,30.2124,13.3667,93,0.7674,0.3372,9.8008,-48.7648,25,0.4852,7780,3.8577,-33.3972
rg,1624619721186090508,1,-0.1492,-0.6494,0.3782,584,67.8101,16.0522,5.249,93,0.7974,0.3482,10.4479,-46.5393,25,0.4842,8854,3.8577,-33.8079
rg,1624619721186110174,1,-0.2422,-0.6226,0.3982,585,48.7061,-0.6714,0.6714,93,0.8104,0.3582,10.9489,-45.0162,25,0.4852,7990,3.8577,-33.8396
rg,1624619721186128304,1,-0.2939,-0.7219,0.4302,586,-2.5024,-45.7153,12.3291,93,0.8164,0.3672,10.3552,-45.3312,24,0.4862,7945,3.8577,-32.2644
rg,1624619721186146192,1,0.0889,-0.823,0.4695,587,-66.1011,-110.1685,44.2505,93,0.8044,0.3722,8.0248,-47.8317,24,0.4882,7877,3.8577,-27.8828
rg,1624619721186164877,1,0.3091,-0.9333,0.543,588,-96.7407,-128.3569,39.3677,93,0.7474,0.3802,4.8548,-51.6165,24,0.4882,8259,3.8577,-22.9542
rg,1624619721186182691,1,0.4119,-1.0544,0.436,589,-100.8301,-76.7212,27.5269,93,0.6863,0.3862,3.0009,-55.9974,25,0.4812,13840,3.8577,-19.8364
rg,1624619721186224246,1,0.4497,-0.929,0.2668,590,-58.1665,-35.0342,43.9453,93,0.6613,0.3702,2.6703,-58.8393,25,0.4712,8771,3.8577,-17.719
rg,1624619721186243801,1,0.4146,-0.835,0.2632,591,-65.7959,45.7153,36.0107,93,0.6493,0.3132,3.752,-61.9884,25,0.4632,8562,3.8577,-18.6013
rg,1624619721186261764,1,0.4246,-0.8289,0.543,592,-74.4629,95.9473,28.4424,93,0.6473,0.2781,5.8518,-64.9142,25,0.4612,8781,3.8577,-21.5096
rg,1624619721186279763,1,-0.002,-1.4529,1.0173,593,-63.0493,176.0254,33.5083,93,0.6453,0.2711,9.2007,-66.7318,25,0.4592,10457,3.8577,-26.2143
rg,1624619721186297133,1,-0.5251,-1.6816,0.5217,594,26.7944,63.8428,-7.6904,93,0.6443,0.2581,8.02,-63.6046,25,0.4572,10015,3.8577,-26.1008
rg,1624619721186315485,1,-0.4932,-1.0027,0.2683,595,135.8032,-59.4482,-45.8984,93,0.6453,0.2521,5.9618,-58.4314,25,0.4552,8736,3.8577,-24.9168
rg,1624619721186335021,1,-0.3586,-0.2134,0.2109,596,182.0679,-84.5337,-28.3813,93,0.6463,0.2531,4.6724,-50.6308,25,0.4552,8866,3.8577,-22.6609
rg,1624619721186352540,1,-0.2795,0.0784,0.2031,597,87.0361,-108.8257,-4.2725,93,0.6493,0.2551,3.4014,-45.5981,25,0.4562,8717,3.8577,-19.3317
rg,1624619721186370039,1,-0.0244,-0.3662,0.1333,598,-35.0342,-154.3579,29.9683,93,0.6523,0.2701,0.0808,-47.7599,25,0.4582,9910,3.8577,-14.0692
rg,1624619721186388076,1,0.6453,-1.0806,0.8677,599,-103.0273,-97.6562,42.7246,93,0.6573,0.2811,-2.0707,-52.0562,25,0.4612,9281,3.8577,-9.9483
rg,1624619721186431668,1,0.3999,-1.335,0.5527,600,-76.2329,-15.7471,44.0063,93,0.6623,0.2951,-0.676,-53.9922,24,0.4652,9009,3.8577,-10.2688
rg,1624619721186450723,1,0.2402,-1.2314,0.5977,601,-5.3711,41.2598,10.498,93,0.6733,0.3021,0.3716,-54.2276,24,0.4712,8965,3.8577,-11.363
rg,1624619721186468259,1,0.0479,-1.0151,0.8225,602,25.6348,61.2183,1.3428,93,0.6913,0.3152,1.7575,-53.0995,24,0.4802,8831,3.8577,-13.3081
rg,1624619721186485833,1,-0.0234,-0.9587,0.5684,603,55.0537,43.2739,13.916,93,0.7174,0.3262,3.2294,-51.1819,24,0.4882,8911,3.8577,-14.3455
rg,1624619721186504222,1,0.0303,-0.9563,0.4895,604,61.3403,21.9116,8.728,93,0.7494,0.3372,3.8652,-49.2126,24,0.4912,9104,3.8577,-14.8277
rg,1624619721186521740,1,0.0698,-0.8906,0.3896,605,66.2842,22.0947,9.0942,93,0.7824,0.3462,4.4133,-47.2566,24,0.4912,8911,3.8577,-15.2986
rg,1624619721186538628,1,-0.0789,-0.7361,0.3833,606,58.6548,21.6064,7.8735,93,0.8044,0.3602,5.1298,-46.0205,24,0.4902,9097,3.8577,-16.0264
rg,1624619721186556628,1,-0.1414,-0.7119,0.4241,607,33.7524,16.4185,2.9907,93,0.8134,0.3722,5.8561,-45.2131,25,0.4902,8965,3.8577,-16.4587
rg,1624619721186574090,1,-0.1802,-0.7666,0.4766,608,1.8921,-26.4893,13.0615,93,0.8214,0.3802,5.7066,-45.5143,25,0.4922,9121,3.8577,-15.3815
rg,1624619721540189214,1,0.3296,-1.0735,0.5649,609,-102.478,-86.6699,10.6201,93,0.7264,0.3922,2.9044,-50.0061,25,0.4922,27115,3.8577,-12.5526
rg,1624619721540240213,1,0.397,-0.918,0.2734,610,-33.4473,-51.6968,50.9644,93,0.6753,0.3882,2.2282,-52.0359,25,0.4832,14699,3.8577,-9.6891
rg,1624619721540262638,1,0.5869,-0.9304,0.2632,611,-54.1382,-7.8125,52.9785,93,0.6563,0.3422,2.495,-54.8576,25,0.4702,9389,3.8577,-8.1803
rg,1624619721540284212,1,0.5215,-0.9343,0.2915,612,-63.0493,45.8374,39.1846,93,0.6523,0.2931,3.7607,-57.754,25,0.4682,7664,3.8577,-8.8349
rg,1624619721540303563,1,0.4084,-1.1619,0.5647,613,-44.5557,173.3398,25.7568,93,0.6493,0.2781,7.3555,-60.2866,25,0.4652,7778,3.8577,-14.2793
rg,1624619721540322230,1,-0.1086,-1.438,0.8926,614,-30.2734,208.9233,16.0522,93,0.6493,0.2721,11.7306,-62.5853,25,0.4642,7726,3.8577,-21.3956
rg,1624619721540340674,1,-0.5776,-1.3655,0.6321,615,37.4146,167.1143,-12.6343,93,0.6483,0.2651,14.6918,-62.6225,25,0.4622,7820,3.8577,-27.7478
rg,1624619721540359599,1,-0.7336,-0.6917,0.1023,616,160.0342,14.4043,-37.5977,93,0.6483,0.2651,14.8959,-57.0682,25,0.4612,8557,3.8577,-29.1069
rg,1624619721540377469,1,-0.5996,0.0205,0.2498,617,124.8779,-35.7666,-4.0283,93,0.6493,0.2681,15.8319,-50.9618,25,0.4602,8434,3.8577,-27.6833
rg,1624619721540395747,1,-0.5127,0.1055,0.2637,618,52.002,-57.251,20.0195,93,0.6513,0.2761,16.7537,-47.1094,25,0.4612,7856,3.8577,-24.9621
rg,1624619721540442875,1,-0.2058,-0.5073,0.3521,619,-103.1494,-148.3765,34.5459,93,0.6543,0.2861,13.9575,-50.0557,25,0.4622,7939,3.8577,-19.4888
rg,1624619721540464319,1,0.4568,-1.4536,1.1257,620,-135.5591,-123.9624,36.3159,93,0.6583,0.2931,11.03,-54.464,25,0.4632,7868,3.8577,-14.5448
rg,1624619721540483559,1,0.3813,-1.6038,0.7263,621,-78.6743,-65.3076,38.147,93,0.6643,0.3082,9.9486,-57.4639,25,0.4682,8077,3.8577,-11.5367
rg,1624619721540501781,1,0.3062,-1.3596,0.6482,622,15.5029,-31.7383,0,93,0.6723,0.3092,8.4383,-56.9373,25,0.4722,7935,3.8577,-10.5059
rg,1624619721540520040,1,0.177,-0.9111,0.6794,623,50.2319,6.2866,1.4648,93,0.6843,0.3162,7.9507,-54.8022,25,0.4792,8002,3.8577,-10.675
rg,1624619721540538429,1,0.1404,-0.8486,0.5872,624,49.9878,9.7046,0.3052,93,0.7033,0.3242,7.5721,-52.8585,25,0.4872,7864,3.8577,-10.9981
rg,1624619721540555799,1,0.1677,-0.9778,0.4937,625,45.8374,12.085,1.3428,93,0.7284,0.3352,7.2761,-51.4712,25,0.4932,8014,3.8577,-11.4128
rg,1624619721540573539,1,0.1372,-0.9932,0.3589,626,56.0303,18.9819,4.1504,93,0.7584,0.3472,7.3515,-49.6203,25,0.4962,7939,3.8577,-12.2349
rg,1624619721540592002,1,0.0737,-0.9014,0.3323,627,73.7915,28.0151,-1.2207,93,0.7864,0.3552,7.6077,-47.5668,25,0.4972,8110,3.8577,-13.2261
rg,1624619721540610186,1,-0.1411,-0.6936,0.353,628,68.5425,32.4097,-0.1831,93,0.8034,0.3632,8.604,-45.5566,25,0.4972,7972,3.8577,-14.2605
rg,1624619721540628427,1,-0.2756,-0.6472,0.3662,629,35.8887,-13.0005,4.5166,93,0.8134,0.3752,8.837,-44.5924,25,0.4972,8168,3.8577,-13.8353
rg,1624619721540645815,1,-0.0723,-0.7737,0.3862,630,14.9536,-51.1475,12.6343,93,0.8194,0.3832,7.2713,-45.1255,25,0.4982,8784,3.8577,-10.9673
rg,1624619721540663704,1,0.1138,-0.8259,0.3799,631,-18.8599,-91.0645,42.7246,93,0.8194,0.3902,5.4127,-46.2272,25,0.4992,8276,3.8577,-7.2372
rg,1624619721540682537,1,0.3853,-0.9487,0.4653,632,-64.8804,-94.1772,40.7715,93,0.7844,0.3972,3.1303,-49.1627,24,0.5012,8061,3.8577,-3.3811
rg,1624619721540700592,1,0.3926,-1.0474,0.4531,633,-81.8481,-73.6694,23.9868,93,0.7324,0.4012,1.1869,-52.9517,24,0.4982,8305,3.8577,-0.4927
rg,1624619721540717832,1,0.4011,-1.0496,0.4026,634,-70.1904,-62.2559,30.3955,93,0.6923,0.4042,-0.0589,-56.3068,24,0.4922,8145,3.8577,2.2506
rg,1624619721540734813,1,0.3984,-0.946,0.2424,635,-45.2881,4.8828,38.7573,93,0.6583,0.3602,0.4952,-58.798,24,0.4762,12086,3.8577,2.9303
rg,1624619721540767794,1,0.2886,-0.873,0.2854,636,-55.0537,41.9312,26.4282,93,0.6493,0.2841,2.0989,-61.1183,24,0.4682,8863,3.8577,0.6435
rg,1624619721540787831,1,0.1353,-0.9255,0.7761,637,-41.748,122.7417,14.2212,93,0.6473,0.2681,4.5613,-62.573,24,0.4642,8883,3.8577,-3.4095
rg,1624619721540805238,1,-0.4067,-1.4119,1.0178,638,-16.2354,114.7461,38.7573,93,0.6463,0.2561,8.3482,-63.2671,24,0.4612,9063,3.8577,-6.7939
rg,1624619721540823071,1,-0.5601,-1.4714,0.4375,639,74.707,-45.0439,-6.897,93,0.6453,0.2461,7.7276,-60.4439,24,0.4592,10419,3.8577,-5.3586
rg,1624619721540840459,1,-0.3293,-0.7139,0.2515,640,144.2261,-87.0972,-7.019,93,0.6463,0.2461,6.261,-54.7,24,0.4572,10430,3.8577,-2.5603
rg,1624619721965275002,1,-0.0125,-0.2405,0.1531,641,-40.1001,-154.9683,25.7568,93,0.6523,0.2521,3.4558,-55.9164,24,0.4602,27369,3.8577,3.1342
rg,1624619721965315241,1,0.8132,-1.2734,0.8826,642,-127.5635,-35.4004,39.917,93,0.6583,0.2641,2.9035,-60.8568,24,0.4642,12696,3.8577,5.2258
rg,1624619721965335445,1,0.3977,-1.3386,0.5493,643,-56.3965,59.6313,6.3477,93,0.6653,0.2741,3.5196,-63.4684,24,0.4692,10389,3.8577,3.2303
rg,1624619721965354592,1,0.0503,-1.1443,0.7927,644,-33.3862,60.8521,-16.1133,93,0.6763,0.2871,4.1219,-64.2492,25,0.4752,8416,3.8577,0.0007
rg,1624619721965373111,1,-0.0925,-1.0449,0.79,645,-9.8877,98.2056,-6.4087,93,0.6913,0.3031,5.573,-64.4931,25,0.4832,8495,3.8577,-3.6348
rg,1624619721965391258,1,-0.1179,-1.0557,0.6509,646,16.7847,33.6914,3.6621,93,0.7143,0.3142,6.2822,-63.6846,25,0.4922,8522,3.8577,-4.7662
rg,1624619721965408962,1,0.0671,-1.0532,0.4749,647,35.4004,-4.5776,10.6812,93,0.7424,0.3222,6.1997,-62.3002,25,0.4992,9546,3.8577,-4.4211
rg,1624619721965427276,1,0.0979,-0.8401,0.2913,648,49.8047,5.8594,9.0332,93,0.7674,0.3302,6.1384,-60.6419,24,0.5022,8759,3.8577,-4.5
rg,1624619721965445554,1,-0.0312,-0.6975,0.3816,649,42.6025,14.0381,6.5918,93,0.7864,0.3422,6.2776,-59.534,24,0.5042,8624,3.8577,-4.8598
rg,1624619721965463072,1,-0.1096,-0.7087,0.4233,650,10.6812,-6.3477,1.9531,93,0.7944,0.3542,6.2657,-59.0505,24,0.5062,8688,3.8577,-4.5963
rg,1624619721965505349,1,-0.0618,-0.8118,0.3635,651,-46.3257,-58.5327,20.5688,92,0.7844,0.3612,5.7244,-60.9014,24,0.5072,8595,3.8555,-2.1706
rg,1624619721965524922,1,0.3037,-1.0271,0.4993,652,-104.4922,-98.3276,28.8086,92,0.7364,0.3682,4.1718,-64.8304,25,0.5082,8551,3.8555,1.8821
rg,1624619721965542959,1,0.2698,-1.0859,0.3936,653,-111.5723,-86.6089,13.916,92,0.6923,0.3712,2.6721,-69.269,25,0.4992,8685,3.8555,5.3043
rg,1624619721965560699,1,0.2249,-1.0083,0.2935,654,-84.6558,-81.2378,28.2593,92,0.6663,0.3572,1.799,-72.8891,25,0.4862,8619,3.8555,8.7525
rg,1624619721965578273,1,0.4399,-0.9155,0.1116,655,-44.1895,-39.7949,53.3447,92,0.6553,0.2911,2.3678,-74.927,24,0.4782,8714,3.8555,10.8731
rg,1624619721965595754,1,0.7163,-0.9609,0.5193,656,-39.2456,57.6172,59.5703,92,0.6493,0.2711,4.0583,-76.2605,24,0.4742,11622,3.8555,9.2455
rg,1624619721965613494,1,0.6921,-1.3701,0.5251,657,-32.5317,168.396,78.8574,92,0.6483,0.2531,7.493,-77.8802,24,0.4712,8735,3.8555,3.3804
rg,1624619721965631124,1,0.0024,-1.6873,0.5737,658,20.3857,218.3228,8.5449,92,0.6483,0.2551,9.3155,-78.0434,24,0.4682,8707,3.8555,-5.1357
rg,1624619721965648623,1,-0.7456,-1.1523,0.4011,659,141.6016,151.3672,-57.8003,92,0.6473,0.2551,9.4167,-73.1848,24,0.4662,8835,3.8555,-11.5628
rg,1624619721965666234,1,-0.9028,-0.407,0.0605,660,209.2285,41.4429,-43.8232,92,0.6483,0.2561,10.2409,-65.3237,24,0.4642,8765,3.8555,-13.6416
rg,1624619721965683456,1,-0.7952,0.1379,0.0825,661,190.4297,-16.9067,-23.5596,92,0.6503,0.2571,10.962,-58.8966,24,0.4642,9837,3.8555,-11.4292
rg,1624619721965701844,1,-0.6895,0.1611,0.0713,662,64.7583,-116.7603,12.6343,92,0.6523,0.2601,11.0759,-55.0096,25,0.4652,8790,3.8555,-6.9834
rg,1624619721965719529,1,-0.2766,-0.4189,0.1521,663,-94.9097,-233.5205,45.4712,92,0.6563,0.2771,8.2765,-57.8073,25,0.4672,8914,3.8555,1.8023
rg,1624619721965736973,1,0.8428,-1.4702,1.4758,664,-150.0854,-234.1919,50.9644,92,0.6613,0.2821,4.2714,-62.308,25,0.4712,8809,3.8555,11.0765
rg,1624619721965754621,1,0.478,-1.6458,0.4309,665,4.8218,-75.1953,43.0908,92,0.6683,0.2971,3.6364,-62.3437,25,0.4762,10043,3.8555,14.5096
rg,1624619721965772639,1,0.4346,-1.0654,0.6191,666,75.6226,-66.7725,-14.5874,92,0.6803,0.3082,0.9463,-59.1371,25,0.4822,8929,3.8555,16.5391
rg,1624619721965790194,1,0.2424,-0.6694,0.6226,667,68.6035,28.5034,1.0376,92,0.6973,0.3232,0.9707,-55.943,25,0.4902,8980,3.8555,15.5865
rg,1624619721965808194,1,0.1792,-0.8757,0.5273,668,28.4424,36.1938,10.1318,92,0.7244,0.3342,1.689,-54.9349,25,0.4972,8844,3.8555,14.614
rg,1624619721965840749,1,0.1541,-1.0034,0.5439,669,22.7051,40.5884,7.2632,92,0.7554,0.3452,2.6334,-54.4736,24,0.4992,8904,3.8555,13.4393
rg,1624619721965861563,1,0.0251,-1.0029,0.4285,670,49.6826,43.2739,9.5215,92,0.7834,0.3632,3.8016,-53.0329,24,0.4992,9108,3.8555,12.2388
rg,1624619721965879711,1,-0.0879,-0.7502,0.4006,671,57.251,35.0342,4.3335,92,0.8014,0.3662,4.8774,-51.1607,24,0.4982,8982,3.8555,11.2133
rg,1624619721965898266,1,-0.1519,-0.6201,0.3833,672,28.9917,6.8359,9.8877,92,0.8114,0.3742,5.6278,-50.2648,24,0.4982,9141,3.8555,11.2311
rg,1624619722294975073,1,0.3042,-0.8865,0.3853,673,-54.6265,-62.8052,46.814,92,0.8144,0.4022,4.655,-52.7588,25,0.5002,27253,3.8555,14.3321
rg,1624619722295015812,1,0.3359,-0.9976,0.4753,674,-108.8867,-59.6924,7.3853,92,0.7604,0.4102,2.7093,-57.3969,25,0.5012,8588,3.8555,16.4604
rg,1624619722295037275,1,0.2766,-0.9236,0.3303,675,-112.793,-45.2271,7.3853,92,0.7093,0.4122,1.8419,-62.0153,24,0.4962,8860,3.8555,18.2141
rg,1624619722295056738,1,0.2812,-0.845,0.2219,676,-84.6558,-31.9214,23.6816,92,0.6803,0.4042,1.3712,-65.8357,24,0.4872,7680,3.8555,19.7837
rg,1624619722295075570,1,0.2964,-0.7905,0.0605,677,-89.6606,7.3242,36.3159,92,0.6593,0.3332,1.9801,-70.116,24,0.4742,8456,3.8555,20.0641
rg,1624619722295093440,1,0.3628,-0.8447,0.4041,678,-106.3232,44.0674,38.208,92,0.6523,0.2901,3.5776,-74.135,25,0.4672,7793,3.8555,17.2937
rg,1624619722295110570,1,0.1389,-1.709,1.1211,679,-58.2886,174.0723,53.1006,92,0.6503,0.2671,7.2902,-74.8958,25,0.4652,15595,3.8555,12.5351
rg,1624619722295128495,1,-0.2161,-1.8271,0.4585,680,44.9829,86.9141,30.5176,92,0.6503,0.2671,9.3613,-73.5663,25,0.4632,8539,3.8555,9.4795
rg,1624619722295149180,1,-0.2827,-1.2808,0.5366,681,124.3896,-5.127,-42.6636,92,0.6503,0.2631,7.7713,-68.3912,25,0.4612,8695,3.8555,9.1661
rg,1624619722295167717,1,-0.4365,-0.4949,0.2156,682,206.9092,-24.353,-41.8701,92,0.6503,0.2671,7.0208,-60.0432,25,0.4602,9306,3.8555,9.4215
rg,1624619722295185568,1,-0.4648,-0.0034,0.1809,683,162.6587,-59.6313,-8.3618,92,0.6523,0.2671,7.4651,-52.5948,25,0.4602,9350,3.8555,11.4641
rg,1624619722295223067,1,-0.2556,-0.0125,0.0627,684,59.3872,-150.5737,23.9868,92,0.6543,0.2761,6.563,-49.1937,25,0.4612,8774,3.8555,16.9036
rg,1624619722295242141,1,-0.0825,-0.2141,0.0569,685,-9.3384,-189.0259,35.4614,92,0.6583,0.2831,3.3351,-49.9139,25,0.4642,8651,3.8555,23.494
rg,1624619722295259807,1,0.7947,-0.9548,1.0039,686,-110.1685,-149.9634,48.4009,92,0.6623,0.2941,-0.0548,-53.9128,25,0.4672,8582,3.8555,29.4594
rg,1624619722295278400,1,0.6414,-1.4866,0.7598,687,-56.4575,44.7388,45.4102,92,0.6683,0.3031,1.6354,-56.4906,25,0.4722,8695,3.8555,29.0362
rg,1624619722295296103,1,0.2361,-1.3894,0.823,688,0.7324,68.6646,-9.8877,92,0.6803,0.3132,2.415,-56.6503,25,0.4792,8622,3.8555,26.5182
rg,1624619722295313325,1,0.0701,-1.2222,0.9482,689,29.6021,89.0503,-13.2446,92,0.6983,0.3242,4.5216,-54.0924,25,0.4882,8766,3.8555,23.3122
rg,1624619722295330454,1,-0.165,-0.9424,0.6646,690,82.2144,73.4863,3.2959,92,0.7254,0.3412,6.5418,-51.0454,25,0.4952,8647,3.8555,21.0469
rg,1624619722295348028,1,-0.1582,-0.8276,0.5388,691,72.7539,11.1694,1.4648,92,0.7584,0.3492,6.975,-48.3976,25,0.4992,8784,3.8555,20.7185
rg,1624619722295365879,1,-0.0393,-0.7629,0.3755,692,56.8237,-14.0381,8.728,92,0.7854,0.3612,6.6935,-46.6479,25,0.5002,8664,3.8555,21.2975
rg,1624619722295382657,1,-0.1709,-0.7053,0.3647,693,25.2686,-21.5454,2.3193,92,0.8044,0.3712,6.394,-46.1655,24,0.4992,8881,3.8555,21.9219
rg,1624619722295399342,1,-0.2163,-0.6929,0.4336,694,10.9863,-33.7524,2.8687,92,0.8144,0.3802,5.9525,-46.0613,24,0.5002,8698,3.8555,22.9337
rg,1624619722295416452,1,-0.1729,-0.7239,0.3892,695,-21.6675,-85.3882,10.8643,92,0.8204,0.3832,4.1793,-47.2711,24,0.5022,8897,3.8555,25.6674
rg,1624619722295433674,1,0.2549,-0.8374,0.4919,696,-60.4858,-124.8779,46.4478,92,0.8194,0.3922,1.5564,-49.8915,24,0.5042,8753,3.8555,30.6289
rg,1624619722295450433,1,0.6626,-1.043,0.5059,697,-110.4126,-138.9771,36.9873,92,0.7764,0.4022,-1.8205,-54.7861,25,0.5062,8948,3.8555,35.9629
rg,1624619722295480099,1,0.5381,-1.0847,0.293,698,-120.0562,-69.0918,7.019,92,0.7234,0.4072,-3.9666,-60.3944,25,0.5012,8830,3.8555,38.5144
rg,1624619722295498358,1,0.4067,-0.8447,0.1597,699,-103.0273,-31.1279,10.8032,92,0.6913,0.4042,-4.0606,-64.2322,25,0.4932,9030,3.8555,38.8616
rg,1624619722295515895,1,0.3618,-0.749,0.1018,700,-83.6792,73.2422,37.7197,92,0.6633,0.3432,-2.3495,-68.0822,25,0.4772,13625,3.8555,36.8525
rg,1624619722295547820,1,0.2234,-0.9121,0.4346,701,-114.1968,137.0239,28.1372,92,0.6583,0.2981,0.1364,-72.399,25,0.4722,9046,3.8555,32.0796
rg,1624619722295566561,1,-0.2266,-1.6875,0.9543,702,-49.0723,180.481,41.1377,92,0.6553,0.2901,4.0154,-74.116,25,0.4702,8905,3.8555,25.6335
rg,1624619722295582782,1,-0.3113,-1.6255,0.3906,703,41.0156,43.5791,23.4375,92,0.6553,0.2811,5.6602,-72.6718,25,0.4682,8945,3.8555,24.2204
rg,1624619722295600393,1,-0.228,-1.4746,0.4829,704,69.8853,-17.1509,-14.3433,92,0.6553,0.2721,4.1306,-68.4978,25,0.4662,9152,3.8555,25.2922
rg,1624619722680016334,1,-0.2908,-0.0408,0.1216,705,114.2578,-83.374,-6.2866,92,0.6593,0.2761,4.5694,-62.9969,25,0.4642,28670,3.8555,28.3948
rg,1624619722680064666,1,-0.1313,-0.1655,0.0835,706,9.9487,-110.9619,31.311,92,0.6643,0.2971,4.8174,-62.2233,25,0.4672,12693,3.8555,32.9393
rg,1624619722680085906,1,0.5505,-0.8625,0.8955,707,-94.7266,-100.0366,53.2227,92,0.6713,0.3001,3.8788,-64.9924,25,0.4722,10125,3.8555,37.5578
rg,1624619722680105906,1,0.5847,-1.4253,0.8223,708,-57.1289,21.5454,52.3071,92,0.6813,0.3172,5.2296,-67.0689,24,0.4792,8440,3.8555,37.6408
rg,1624619722680125424,1,0.2969,-1.345,0.7222,709,17.5171,33.8135,2.6245,92,0.6953,0.3392,5.2212,-66.2588,24,0.4872,8210,3.8555,36.4473
rg,1624619722680144294,1,0.0723,-1.0225,0.7148,710,68.3594,75.6836,9.4604,92,0.7153,0.3502,6.5039,-63.3374,24,0.4952,8589,3.8555,33.8844
rg,1624619722680163590,1,-0.0164,-0.9119,0.6294,711,77.8809,66.9556,10.498,92,0.7414,0.3532,7.5339,-60.3176,24,0.5012,8458,3.8555,32.1838
rg,1624619722680182904,1,-0.134,-0.8384,0.5308,712,65.2466,29.2358,3.1128,92,0.7704,0.3692,8.242,-57.7242,24,0.5032,8598,3.8555,31.2503
rg,1624619722680202274,1,-0.1272,-0.8198,0.4341,713,46.2646,-5.0049,6.4087,92,0.7954,0.3762,8.33,-55.9931,24,0.5042,9320,3.8555,31.5375
rg,1624619722680221848,1,-0.1592,-0.7537,0.4075,714,23.6816,-30.0293,3.3569,92,0.8094,0.3822,7.8531,-55.1036,24,0.5042,8875,3.8555,32.5869
rg,1624619722680241311,1,-0.1003,-0.7749,0.4199,715,-1.5259,-57.373,8.0566,92,0.8154,0.3922,6.761,-55.142,24,0.5042,8511,3.8555,34.64
rg,1624619722680287051,1,0.134,-0.8357,0.3945,716,-11.7798,-67.0166,12.085,92,0.8214,0.4062,5.2154,-55.8661,25,0.5052,9274,3.8555,37.338
rg,1624619722680308957,1,0.345,-0.8545,0.3596,717,-21.7285,-53.894,31.6162,92,0.8264,0.4162,4.1048,-56.9367,25,0.5062,10701,3.8555,39.8106
rg,1624619722680327531,1,0.4224,-0.8672,0.3464,718,-34.729,-42.0532,33.8745,92,0.8224,0.4252,3.5323,-59.6789,25,0.5072,8704,3.8555,41.3352
rg,1624619722680346012,1,0.3784,-1.0042,0.4053,719,-97.168,-10.6812,21.1792,92,0.7674,0.4322,3.1974,-63.8098,25,0.5072,8572,3.8555,42.1225
rg,1624619722680363456,1,0.127,-0.9534,0.2703,720,-114.563,9.7656,5.4932,92,0.6963,0.4272,3.2735,-68.7674,25,0.4992,8819,3.8555,41.8425
rg,1624619722680381178,1,0.0273,-0.8125,0.2451,721,-87.0361,32.8979,26.062,92,0.6693,0.3792,5.2026,-72.7886,25,0.4882,7996,3.8555,40.6106
rg,1624619722680399400,1,-0.0044,-0.9133,0.4338,722,-115.8447,48.8281,41.748,92,0.6543,0.3011,7.1138,-77.2316,25,0.4732,8144,3.8555,39.1797
rg,1624619722680418029,1,0.0989,-1.2551,0.8674,723,-65.979,24.4751,43.7622,92,0.6533,0.2721,8.614,-79.0822,24,0.4692,7983,3.8555,38.6822
rg,1624619722680435362,1,0.2039,-1.4556,0.5422,724,30.0293,11.2915,58.1055,92,0.6523,0.2611,10.3464,-77.4856,24,0.4652,8181,3.8555,38.7524
rg,1624619722680452529,1,0.2454,-1.4224,0.5911,725,40.9546,-3.6011,46.1426,92,0.6513,0.2541,11.3516,-75.3276,24,0.4632,8044,3.8555,39.3884
rg,1624619722680469380,1,-0.0251,-1.198,0.436,726,89.1113,12.085,-12.7563,92,0.6523,0.2481,10.5954,-71.6585,24,0.4612,8368,3.8555,38.8012
rg,1624619722680487343,1,-0.3525,-0.8491,0.46,727,119.3237,-0.5493,-31.6772,92,0.6523,0.2431,9.7817,-66.5735,25,0.4582,8126,3.8555,38.4587
rg,1624619722680505231,1,-0.4375,-0.6938,0.3137,728,128.2349,-25.2686,-25.8179,92,0.6533,0.2411,9.2933,-61.5482,25,0.4572,8199,3.8555,38.9378
rg,1624619722680524101,1,-0.2529,-0.4241,0.1951,729,104.6753,-124.3896,-8.5449,92,0.6543,0.2371,7.2214,-56.8894,25,0.4562,8108,3.8555,43.0977
rg,1624619722680542008,1,0.0554,-0.3381,0.2883,730,69.8242,-157.2876,9.5215,92,0.6553,0.2391,3.4006,-53.303,24,0.4562,8256,3.8555,48.5178
rg,1624619722680574915,1,0.2449,-0.3826,0.3086,731,43.335,-142.334,25.5127,92,0.6573,0.2371,0.1934,-52.7206,24,0.4572,8162,3.8555,52.8323
rg,1624619722680594729,1,0.4746,-0.627,0.4268,732,-17.7612,-84.8389,21.7896,92,0.6603,0.2391,-2.3418,-53.5823,24,0.4592,8247,3.8555,56.0786
rg,1624619722680612599,1,0.4204,-0.9126,0.5984,733,-46.5088,-18.4937,1.9531,92,0.6623,0.2421,-3.432,-55.5778,24,0.4592,8143,3.8555,56.7435
rg,1624619722680629525,1,0.1365,-0.9841,0.5542,734,-33.7524,17.2729,-11.2305,92,0.6643,0.2441,-3.5616,-57.0609,24,0.4612,8380,3.8555,55.9306
rg,1624619722680647265,1,0.0164,-0.9436,0.5713,735,-27.5269,18.7378,-13.855,92,0.6663,0.2431,-3.4533,-58.132,24,0.4632,9090,3.8555,55
rg,1624619722680664728,1,-0.01,-0.855,0.5452,736,-23.7427,6.7139,-3.8452,92,0.6693,0.2431,-3.2857,-59.0226,24,0.4652,9238,3.8555,54.6869
rg,1624619723020610313,1,0.0945,-0.925,0.4424,737,-31.189,-11.5967,-0.7935,92,0.6773,0.2441,-3.6229,-60.4924,24,0.4702,24866,3.8555,55.0855
rg,1624619723020684682,1,0.0977,-0.9253,0.4475,738,-19.8975,-11.5967,0.7324,92,0.6813,0.2501,-3.8914,-61.4476,24,0.4722,9219,3.8555,55.5156
rg,1624619723020706330,1,0.1213,-0.9309,0.436,739,-15.686,-14.7705,3.2959,92,0.6853,0.2521,-4.1637,-62.2382,24,0.4752,7566,3.8555,56.1095
rg,1624619723020725644,1,0.1755,-0.9897,0.4341,740,-2.6245,-15.1978,3.479,92,0.6913,0.2551,-4.5199,-62.5357,25,0.4792,11436,3.8555,56.7255
rg,1624619723020744959,1,0.1492,-0.9629,0.4136,741,9.2163,-4.4556,5.5542,92,0.6953,0.2581,-4.5465,-62.341,25,0.4832,9893,3.8555,56.9982
rg,1624619723020763662,1,0.1255,-0.946,0.395,742,14.1602,-0.7324,6.8359,92,0.6993,0.2551,-4.4149,-61.9712,25,0.4862,7707,3.8555,57.1657
rg,1624619723020783810,1,0.093,-0.906,0.4072,743,20.0195,3.418,12.0239,92,0.7033,0.2541,-3.8586,-61.3056,25,0.4882,11642,3.8555,57.2588
rg,1624619723020804254,1,0.0771,-0.8958,0.3965,744,18.5547,2.9907,13.7939,92,0.7043,0.2571,-3.3446,-60.7522,25,0.4902,7687,3.8555,57.4319
rg,1624619723020868808,1,0.0684,-0.9185,0.385,745,19.2871,2.9297,14.4043,92,0.7053,0.2541,-2.8101,-60.2356,25,0.4912,7855,3.8555,57.6265
rg,1624619723020887549,1,0.0637,-0.8962,0.3704,746,21.2402,3.54,13.4277,92,0.7063,0.2551,-2.3136,-59.6696,25,0.4922,7751,3.8555,57.7847
rg,1624619723020904326,1,0.0588,-0.8669,0.376,747,22.583,4.0283,13.0615,92,0.7073,0.2541,-1.8332,-59.0316,25,0.4932,7903,3.8555,57.9211
rg,1624619723020922437,1,0.0635,-0.8601,0.3831,748,21.6675,0.9155,8.2397,92,0.7083,0.2551,-1.6135,-58.4328,25,0.4932,9567,3.8555,58.0678
rg,1624619723020941548,1,0.0938,-0.8767,0.3943,749,21.7896,-0.6714,5.9814,92,0.7083,0.2551,-1.7017,-57.8332,25,0.4942,7938,3.8555,58.2001
rg,1624619723020958918,1,0.1074,-0.8618,0.4055,750,23.1323,-1.6479,1.3428,92,0.7093,0.2551,-1.879,-57.1734,25,0.4952,8025,3.8555,58.2907
rg,1624619723020976269,1,0.1135,-0.8794,0.4163,751,27.1606,4.0283,-5.6152,92,0.7083,0.2561,-2.1682,-56.3616,25,0.4952,8016,3.8555,58.0404
rg,1624619723020993232,1,0.0864,-0.8748,0.4309,752,31.1279,5.9204,-7.2021,92,0.7093,0.2571,-2.4048,-55.2425,25,0.4942,7915,3.8555,57.5388
rg,1624619723021010472,1,0.0527,-0.8357,0.4348,753,36.5601,9.2773,-10.9863,92,0.7093,0.2561,-2.5407,-54.0056,25,0.4952,9430,3.8555,56.9922
rg,1624619723021029176,1,0.0476,-0.7876,0.4292,754,39.856,5.9204,-8.1787,92,0.7093,0.2571,-2.6825,-52.6777,25,0.4952,9675,3.8555,56.6192
rg,1624619723021046064,1,0.085,-0.7822,0.436,755,38.9404,2.6245,-5.3101,92,0.7083,0.2571,-2.8947,-51.4235,25,0.4952,8148,3.8555,56.4189
rg,1624619723021063212,1,0.1396,-0.7925,0.4573,756,37.9028,1.1597,-6.8359,92,0.7083,0.2571,-3.307,-50.2237,25,0.4952,7975,3.8555,56.2239
rg,1624619723021080175,1,0.1401,-0.7964,0.4626,757,37.9639,0.6714,-7.019,92,0.7083,0.2581,-3.7162,-49.0608,25,0.4952,8126,3.8555,56.0402
rg,1624619723021097008,1,0.1013,-0.7864,0.4771,758,41.5649,-3.54,-10.0098,92,0.7083,0.2571,-4.212,-47.7609,25,0.4952,8038,3.8555,55.9037
rg,1624619723021115007,1,0.0767,-0.7837,0.4807,759,39.917,-17.8223,-16.3574,92,0.7083,0.2571,-5.1971,-46.5857,25,0.4952,8196,3.8555,56.0146
rg,1624619723021148081,1,0.0796,-0.7803,0.4773,760,40.8325,-28.9917,-18.3105,92,0.7083,0.2571,-6.5187,-45.4506,25,0.4952,8077,3.8555,56.3876
rg,1624619723021168025,1,0.1135,-0.78,0.4697,761,43.2129,-46.936,-22.522,92,0.7103,0.2581,-8.5051,-44.3369,25,0.4962,8270,3.8555,57.1442
rg,1624619723021185580,1,0.1719,-0.8359,0.4954,762,46.814,-58.7158,-23.9868,92,0.7093,0.2551,-10.9243,-43.2052,25,0.4952,8460,3.8566,58.1803
rg,1624619723021205320,1,0.1924,-0.8215,0.533,763,49.9878,-60.4858,-26.9165,94,0.7093,0.2551,-13.368,-41.8123,24,0.4962,8307,3.8566,59.0612
rg,1624619723021224209,1,0.1787,-0.8262,0.5593,764,54.7485,-53.3447,-25.2075,94,0.7103,0.2571,-15.5156,-40.3456,24,0.4962,8111,3.8566,59.8599
rg,1624619723021246653,1,0.2085,-0.8428,0.5713,765,58.0444,-49.6826,-22.3999,94,0.7103,0.2541,-17.4726,-38.8125,24,0.4962,8362,3.8566,60.6322
rg,1624619723021266653,1,0.22,-0.8088,0.5347,766,62.0117,-40.7715,-20.9961,94,0.7093,0.2501,-19.1118,-37.1526,24,0.4962,8215,3.8566,61.2109
rg,1624619723021286985,1,0.2085,-0.7798,0.543,767,61.8896,-35.8887,-19.2261,94,0.7093,0.2511,-20.3492,-35.4472,25,0.4962,8905,3.8566,61.5408
rg,1624619723021306670,1,0.1797,-0.7417,0.54,768,58.2886,-32.2876,-19.7144,94,0.7093,0.2491,-21.5264,-33.9057,25,0.4952,8964,3.8566,61.9044
rg,1624619723408394527,1,0.1836,-0.74,0.5544,769,52.8564,-55.542,-35.3394,94,0.7103,0.2451,-23.7862,-32.6021,24,0.4962,27422,3.8566,62.2459
rg,1624619723408476414,1,0.2415,-0.7314,0.5696,770,55.3589,-67.8711,-41.1987,94,0.7093,0.2391,-26.634,-31.2149,24,0.4952,8493,3.8566,62.6235
rg,1624619723408497914,1,0.3784,-0.7129,0.6023,771,52.6123,-69.2749,-34.4849,94,0.7103,0.2451,-29.5716,-29.989,24,0.4952,14709,3.8566,63.2255
rg,1624619723408517691,1,0.4492,-0.7588,0.6357,772,54.1382,-51.3916,-28.9307,94,0.7103,0.2441,-31.7732,-28.6472,25,0.4952,10668,3.8566,63.6369
rg,1624619723408538320,1,0.5034,-0.7507,0.6479,773,60.73,-16.9678,-13.9771,94,0.7093,0.2411,-32.5032,-26.9481,25,0.4952,8480,3.8566,63.873
rg,1624619723408557116,1,0.5059,-0.7532,0.6565,774,62.8052,-2.7466,-9.8877,94,0.7093,0.2351,-32.6386,-25.0621,25,0.4952,8517,3.8566,63.9518
rg,1624619723408575523,1,0.469,-0.7034,0.6729,775,63.1714,23.2544,-5.4321,94,0.7093,0.2361,-31.6823,-23.0511,25,0.4942,8466,3.8566,63.7442
rg,1624619723408593579,1,0.3684,-0.7061,0.686,776,64.209,34.5459,-0.8545,94,0.7093,0.2341,-30.0685,-21.119,25,0.4942,8553,3.8566,63.6119
rg,1624619723408610671,1,0.3105,-0.6812,0.707,777,65.2466,22.644,-1.2817,94,0.7083,0.2311,-28.833,-19.2767,25,0.4942,9862,3.8566,63.6885
rg,1624619723408646467,1,0.2549,-0.6567,0.7502,778,65.2466,0.061,-4.8218,94,0.7083,0.2271,-28.3997,-17.5105,25,0.4942,8505,3.8566,63.9411
rg,1624619723408666855,1,0.2595,-0.6721,0.7698,779,65.0024,-11.5967,-7.2021,94,0.7083,0.2261,-28.9358,-15.8387,25,0.4942,8586,3.8566,64.3364
rg,1624619723408686318,1,0.2988,-0.6802,0.7964,780,63.6597,-33.7524,-9.6436,94,0.7083,0.2271,-29.9175,-14.3353,25,0.4942,8545,3.8566,64.8297
rg,1624619723408704928,1,0.3796,-0.6736,0.8228,781,62.8662,-45.7153,-7.4463,94,0.7083,0.2241,-31.449,-12.9627,25,0.4942,8693,3.8566,65.5284
rg,1624619723408722650,1,0.4438,-0.6335,0.8142,782,63.1104,-40.8325,2.1973,94,0.7083,0.2231,-32.7932,-11.7578,25,0.4942,8575,3.8566,66.5928
rg,1624619723408741020,1,0.5271,-0.6404,0.8076,783,59.8755,-23.5596,9.7046,94,0.7083,0.2181,-33.5229,-10.8223,25,0.4942,8778,3.8566,67.8615
rg,1624619723408759261,1,0.5576,-0.6616,0.8105,784,57.373,-13.916,12.8784,94,0.7083,0.2191,-33.8874,-10.0894,25,0.4942,8626,3.8566,69.2337
rg,1624619723408776427,1,0.5225,-0.6614,0.8425,785,56.2744,13.9771,16.3574,94,0.7093,0.2191,-33.0458,-9.3591,25,0.4942,8818,3.8566,70.5412
rg,1624619723408794112,1,0.4167,-0.6428,0.8457,786,58.2886,30.3345,17.6392,94,0.7083,0.2201,-31.416,-8.5249,25,0.4942,8669,3.8566,71.787
rg,1624619723408811723,1,0.3203,-0.6182,0.8911,787,55.2979,33.2031,19.165,94,0.7083,0.2171,-29.5259,-7.7733,25,0.4942,8846,3.8566,73.0391
rg,1624619723408828556,1,0.3069,-0.6692,0.8989,788,52.002,19.7144,23.0713,94,0.7083,0.2171,-28.1988,-7.3548,25,0.4932,13022,3.8566,74.5675
rg,1624619723408846185,1,0.333,-0.6418,0.9072,789,52.7344,9.0332,23.0103,94,0.7083,0.2171,-27.4059,-6.8267,25,0.4942,9035,3.8566,76.0838
rg,1624619723408864351,1,0.3701,-0.6245,0.9099,790,52.1851,2.6245,23.8647,94,0.7083,0.2171,-26.9513,-6.3487,25,0.4932,8690,3.8566,77.6589
rg,1624619723408883073,1,0.3584,-0.6067,0.8826,791,51.0254,-0.6714,22.583,94,0.7083,0.2151,-26.6587,-5.9076,25,0.4932,8877,3.8566,79.1904
rg,1624619723408904128,1,0.3394,-0.6021,0.8855,792,49.9878,-3.2959,21.1792,94,0.7093,0.2181,-26.4587,-5.4898,25,0.4932,8903,3.8566,80.6685
rg,1624619723408951442,1,0.312,-0.5874,0.8882,793,49.6826,-5.6763,21.1792,94,0.7093,0.2191,-26.3156,-5.0795,24,0.4942,9103,3.8566,82.1486
rg,1624619723408975664,1,0.2974,-0.5767,0.8865,794,48.4009,-7.3242,21.8506,94,0.7093,0.2191,-26.2649,-4.7899,24,0.4942,8808,3.8566,83.6954
rg,1624619723408995145,1,0.2983,-0.5803,0.9055,795,45.5322,-10.0708,23.2544,94,0.7093,0.2171,-26.2718,-4.5887,24,0.4942,8989,3.8566,85.2767
rg,1624619723409014404,1,0.321,-0.5537,0.9036,796,43.457,-11.5356,25.6958,94,0.7103,0.2181,-26.3755,-4.4783,24,0.4942,8907,3.8566,86.9519
rg,1624619723409033404,1,0.3372,-0.5535,0.896,797,40.8325,-6.958,27.1606,94,0.7113,0.2151,-26.3264,-4.5013,25,0.4942,9034,3.8566,88.6808
rg,1624619723409054533,1,0.3203,-0.5515,0.8962,798,37.1704,-1.8311,27.0386,94,0.7113,0.2161,-26.0411,-4.6547,25,0.4942,8893,3.8566,90.3827
rg,1624619723409077440,1,0.2942,-0.5537,0.9075,799,34.0576,-0.7935,25.3906,94,0.7113,0.2171,-25.6673,-4.8818,25,0.4942,9104,3.8566,91.9951
rg,1624619723409096310,1,0.2537,-0.5288,0.8977,800,33.1421,-1.6479,23.4375,94,0.7113,0.2161,-25.4,-5.0957,25,0.4942,8954,3.8566,93.4217
rg,1624619723775961068,1,0.2844,-0.5051,0.8552,801,26.4893,-23.4375,15.0757,94,0.7123,0.2111,-25.9868,-5.4098,25,0.4942,25941,3.8566,94.634
rg,1624619723775998586,1,0.3071,-0.5088,0.864,802,26.7334,-26.9775,13.6108,94,0.7123,0.2111,-26.7327,-5.6899,25,0.4942,9220,3.8566,95.8094
rg,1624619723776018845,1,0.3223,-0.521,0.863,803,26.9165,-26.7944,14.0381,94,0.7133,0.2111,-27.4685,-6.0004,25,0.4952,12193,3.8566,97.0331
rg,1624619723776038196,1,0.3438,-0.5071,0.8813,804,27.3438,-25.3906,15.8081,94,0.7133,0.2101,-28.0683,-6.3006,25,0.4942,8513,3.8566,98.4004
rg,1624619723776057603,1,0.3508,-0.5154,0.8706,805,27.5269,-15.8691,19.4092,94,0.7133,0.2101,-28.3372,-6.6566,24,0.4942,9038,3.8566,99.833
rg,1624619723776075621,1,0.364,-0.5173,0.8726,806,28.1372,-11.0474,21.6675,94,0.7133,0.2101,-28.411,-7.0149,24,0.4942,10047,3.8566,101.3441
rg,1624619723776093491,1,0.3557,-0.5027,0.8694,807,28.0762,-6.5918,21.2402,94,0.7133,0.2101,-28.2871,-7.3178,24,0.4942,8498,3.8566,102.7958
rg,1624619723776112991,1,0.3025,-0.5012,0.8718,808,28.6255,-4.3945,20.6909,94,0.7133,0.2141,-27.9703,-7.5723,24,0.4942,11772,3.8566,104.2044
rg,1624619723776131861,1,0.2966,-0.5105,0.9058,809,29.1748,-6.5308,20.5688,94,0.7133,0.2181,-27.6895,-7.7654,25,0.4942,8600,3.8566,105.5958
rg,1624619723776149675,1,0.3022,-0.5144,0.9502,810,29.7241,-4.9438,22.3389,94,0.7143,0.2191,-27.3465,-7.9239,25,0.4952,8403,3.8566,107.0322
rg,1624619723776167990,1,0.3115,-0.532,0.9739,811,29.9683,-0.6104,25.2686,94,0.7133,0.2171,-26.8286,-8.1094,25,0.4952,8612,3.8566,108.5624
rg,1624619723776184879,1,0.2793,-0.5146,0.9712,812,31.189,7.2021,32.1655,94,0.7133,0.2181,-25.9188,-8.3074,25,0.4952,8497,3.8566,110.3162
rg,1624619723776202341,1,0.3198,-0.502,0.9338,813,28.4424,7.2632,33.9355,94,0.7143,0.2181,-25.0746,-8.6841,24,0.4952,8999,3.8566,111.9374
rg,1624619723776220489,1,0.3169,-0.499,0.949,814,24.0479,14.5264,30.8838,94,0.7143,0.2171,-24.0164,-9.021,24,0.4952,8761,3.8566,113.5138
rg,1624619723776237433,1,0.2795,-0.4785,0.9246,815,21.3623,22.1558,30.3345,94,0.7143,0.2181,-22.6352,-9.3737,24,0.4952,8686,3.8566,114.9708
rg,1624619723776254581,1,0.2295,-0.48,0.929,816,16.7847,23.0713,26.9165,94,0.7143,0.2181,-21.1805,-9.8033,25,0.4952,8562,3.8566,116.233
rg,1624619723776271636,1,0.1846,-0.4653,0.9307,817,13.855,18.9819,25.2075,94,0.7143,0.2191,-19.8506,-10.2581,25,0.4952,8771,3.8566,117.4003
rg,1624619723776288951,1,0.1699,-0.4719,0.9197,818,13.2446,14.5264,22.9492,94,0.7143,0.2201,-18.7276,-10.6958,25,0.4952,8611,3.8566,118.4788
rg,1624619723776306043,1,0.1648,-0.4604,0.9114,819,10.7422,4.5776,20.9961,94,0.7143,0.2181,-18.0351,-11.1815,25,0.4952,8802,3.8566,119.5212
rg,1624619723776323413,1,0.1792,-0.4609,0.8884,820,10.1318,-5.5542,17.8833,94,0.7143,0.2181,-17.8215,-11.6715,24,0.4962,8650,3.8566,120.5078
rg,1624619723776340190,1,0.1909,-0.4622,0.8801,821,9.7656,-13.4277,14.5874,94,0.7143,0.2201,-17.9714,-12.1451,24,0.4952,8811,3.8566,121.4226
rg,1624619723776358190,1,0.2053,-0.4695,0.9009,822,9.4604,-17.1509,12.8174,94,0.7153,0.2181,-18.4448,-12.5698,24,0.4952,8633,3.8566,122.3064
rg,1624619723776432726,1,0.2253,-0.4614,0.8936,823,10.7422,-23.6206,11.7188,94,0.7153,0.2201,-19.047,-12.9588,24,0.4962,8834,3.8566,123.1989
rg,1624619723776455318,1,0.2505,-0.46,0.8821,824,13.4277,-24.231,13.5498,94,0.7153,0.2171,-19.6876,-13.2698,24,0.4962,9363,3.8566,124.1845
rg,1624619723776472743,1,0.3164,-0.4692,0.866,825,13.6108,-21.3013,15.5029,94,0.7163,0.2191,-20.3141,-13.6173,24,0.4962,10668,3.8566,125.2415
rg,1624619723776492632,1,0.324,-0.4736,0.8901,826,16.2964,-8.2397,18.9819,94,0.7153,0.2191,-20.3716,-13.8397,24,0.4962,8762,3.8566,126.3117
rg,1624619723776511576,1,0.2917,-0.4788,0.9026,827,16.8457,2.3804,20.5078,94,0.7153,0.2191,-19.9239,-14.0146,25,0.4962,8930,3.8566,127.3331
rg,1624619723776532576,1,0.2759,-0.4597,0.9016,828,19.3481,7.019,23.8037,94,0.7153,0.2201,-19.2505,-14.0669,25,0.4962,8798,3.8566,128.4198
rg,1624619723776551168,1,0.2729,-0.4578,0.9236,829,19.6533,9.1553,24.353,94,0.7163,0.2201,-18.403,-14.0599,25,0.4962,8952,3.8566,129.4701
rg,1624619723776567538,1,0.2654,-0.4707,0.928,830,19.7754,13.4277,23.9868,94,0.7163,0.2201,-17.5016,-14.0408,25,0.4962,8856,3.8566,130.4737
rg,1624619723776588482,1,0.2278,-0.4692,0.9297,831,21.7896,15.5029,22.3999,94,0.7174,0.2211,-16.4937,-13.8998,25,0.4972,9085,3.8566,131.3804
rg,1624619723776605945,1,0.178,-0.4412,0.917,832,22.7051,14.8315,20.2026,94,0.7174,0.2211,-15.4771,-13.6506,25,0.4972,8237,3.8566,132.1852
rg,1624619724125042531,1,0.179,-0.4277,0.9421,833,15.5029,-10.2539,22.4609,94,0.7174,0.2241,-15.4439,-13.7306,24,0.4982,26818,3.8566,133.3078
rg,1624619724125104678,1,0.239,-0.4336,0.9412,834,15.686,-12.6343,21.9116,94,0.7184,0.2241,-15.6902,-13.7901,24,0.4982,8520,3.8566,134.5029
rg,1624619724125126363,1,0.2529,-0.4453,0.9619,835,15.2588,-10.0708,20.9961,94,0.7174,0.2231,-15.7961,-13.8749,24,0.4982,11371,3.8566,135.5697
rg,1624619724125146140,1,0.2471,-0.4321,0.9543,836,15.0146,-5.7983,20.3247,94,0.7174,0.2251,-15.7308,-13.9289,25,0.4982,7773,3.8566,136.5617
rg,1624619724125164659,1,0.2141,-0.4338,0.9612,837,14.4653,0.3052,21.9116,94,0.7184,0.2221,-15.3449,-13.9995,25,0.4982,7653,3.8566,137.5542
rg,1624619724125183084,1,0.2004,-0.4407,0.9678,838,13.0005,6.4087,21.7285,94,0.7174,0.2231,-14.7071,-14.1072,25,0.4982,10219,3.8566,138.4738
rg,1624619724125201417,1,0.1924,-0.4312,0.9543,839,12.8174,8.9111,21.0571,94,0.7184,0.2241,-13.9919,-14.1873,25,0.4982,7726,3.8566,139.3302
rg,1624619724125219324,1,0.1948,-0.4231,0.9529,840,12.8784,8.4229,21.9116,94,0.7174,0.2241,-13.3205,-14.2454,25,0.4992,7872,3.8566,140.2132
rg,1624619724125290508,1,0.1975,-0.4302,0.9529,841,13.3057,9.0942,20.1416,94,0.7184,0.2241,-12.6714,-14.2701,25,0.4982,7958,3.8566,141.0143
rg,1624619724125311934,1,0.1555,-0.4165,0.9199,842,14.8315,8.1177,16.2354,94,0.7184,0.2251,-12.0477,-14.1974,25,0.4992,9525,3.8566,141.6651
rg,1624619724125329174,1,0.106,-0.3936,0.9268,843,15.0757,3.8452,12.6953,94,0.7184,0.2231,-11.5392,-14.0404,25,0.4992,9256,3.8566,142.2038
rg,1624619724125346822,1,0.1067,-0.3879,0.9255,844,15.0146,-0.7324,11.2915,94,0.7184,0.2231,-11.2448,-13.8757,25,0.4992,7898,3.8566,142.7281
rg,1624619724125365970,1,0.1052,-0.3755,0.9419,845,12.3291,-7.9346,12.2681,94,0.7184,0.2211,-11.2255,-13.8046,25,0.4992,7853,3.8566,143.353
rg,1624619724125385432,1,0.1526,-0.3889,0.9448,846,11.5356,-12.5732,13.2446,94,0.7194,0.2211,-11.6244,-13.8575,25,0.4992,7954,3.8566,144.1091
rg,1624619724125405802,1,0.1719,-0.3906,0.9551,847,9.6436,-17.6392,13.2446,94,0.7194,0.2181,-12.0954,-13.9465,25,0.4992,7893,3.8566,144.8755
rg,1624619724125422728,1,0.2092,-0.3899,0.9514,848,8.3008,-16.2964,12.5732,94,0.7184,0.2191,-12.5818,-14.0831,24,0.4992,8174,3.8566,145.6061
rg,1624619724125440487,1,0.2236,-0.4021,0.9585,849,8.3008,-15.2588,13.4888,94,0.7194,0.2201,-12.947,-14.2992,24,0.4992,7994,3.8566,146.3459
rg,1624619724125458672,1,0.2283,-0.3838,0.9673,850,6.2866,-11.2915,13.7329,94,0.7194,0.2191,-13.2241,-14.4854,24,0.4992,8025,3.8566,147.0727
rg,1624619724125477653,1,0.2192,-0.4031,0.9731,851,5.4321,-6.2256,13.2446,94,0.7204,0.2211,-13.2738,-14.7186,24,0.4992,8016,3.8566,147.7366
rg,1624619724125496838,1,0.1904,-0.4248,0.9695,852,4.4556,-4.7607,13.4888,94,0.7204,0.2231,-13.1398,-15.0443,24,0.4982,8052,3.8566,148.3777
rg,1624619724125674261,1,0.1912,-0.4104,0.9722,853,4.2725,-3.6621,14.5264,94,0.7214,0.2251,-13.0159,-15.3219,24,0.5002,8048,3.8566,149.0636
rg,1624619724125699705,1,0.1812,-0.4141,0.9404,854,4.7607,-3.1738,14.5874,94,0.7214,0.2261,-12.8646,-15.6015,24,0.5002,11452,3.8566,149.7509
rg,1624619724125719871,1,0.1797,-0.4226,0.9524,855,5.7373,-3.9062,12.8784,94,0.7234,0.2261,-12.7548,-15.8231,24,0.5002,8811,3.8566,150.3765
rg,1624619724125768314,1,0.1777,-0.4373,0.95,856,8.728,-6.2256,10.6201,94,0.7234,0.2261,-12.7566,-15.9334,24,0.5002,9034,3.8566,150.9436
