name,time,activity,ax,ay,az,batch_val,gx,gy,gz,ibat,index,middle,pitch,roll,temp,thumb,ts,vbat,yaw
rg,1624655963560479378,1,-0.3086,-0.2549,0.99,1,-2.2583,-23.9868,16.2354,64,0.9925,0.7634,11.6475,-8.1754,30,0.6713,18933,4.0513,74.0054
rg,1624655963560520896,1,-0.2981,-0.2542,0.9988,2,-2.7466,-29.9683,15.0757,64,0.9935,0.7654,10.7289,-8.3667,30,0.6713,8338,4.0524,74.7422
rg,1624655963560541859,1,-0.2837,-0.2354,1.0024,3,-2.6855,-32.4097,14.2822,62,0.9935,0.7654,9.6974,-8.5779,30,0.6713,7670,4.0524,75.414
rg,1624655963560562247,1,-0.2935,-0.2493,1.0129,4,-5.188,-33.7524,12.4512,62,0.9925,0.7654,8.6798,-8.8721,30,0.6703,7902,4.0524,76.0863
rg,1624655963560580543,1,-0.2869,-0.252,1.0156,5,-4.5166,-37.4146,12.7563,62,0.9925,0.7654,7.5485,-9.1395,30,0.6713,7727,4.0524,76.8029
rg,1624655963560598895,1,-0.2937,-0.2498,1.0181,6,-5.5542,-36.8652,11.5356,62,0.9935,0.7664,6.4788,-9.428,30,0.6713,7722,4.0524,77.4814
rg,1624655963560616080,1,-0.2852,-0.2314,1.0244,7,-5.0659,-38.0249,12.0239,62,0.9915,0.7654,5.4063,-9.6788,30,0.6703,7688,4.0524,78.1981
rg,1624655963560633487,1,-0.2703,-0.2244,1.0232,8,-5.9814,-36.8042,12.2681,62,0.9935,0.7664,4.4005,-9.9552,30,0.6713,7743,4.0524,78.9258
rg,1624655963560650986,1,-0.2705,-0.2312,1.0452,9,-14.0991,-39.3677,10.0098,62,0.9935,0.7674,3.1134,-10.6155,30,0.6703,33433,4.0524,79.6005
rg,1624655963560669671,1,-0.2644,-0.2468,1.0522,10,-17.1509,-46.2646,6.4697,62,0.9925,0.7634,1.7704,-11.3702,30,0.6703,7920,4.0524,80.2013
rg,1624655963560688782,1,-0.2605,-0.2791,1.0671,11,-18.4326,-51.5137,3.9062,62,0.9935,0.7664,0.245,-12.2186,30,0.6693,7828,4.0524,80.7699
rg,1624655963560706448,1,-0.2446,-0.2954,1.084,12,-18.0664,-57.1899,0.7935,62,0.9935,0.7674,-1.4992,-13.0584,30,0.6703,8731,4.0524,81.2993
rg,1624655963560723819,1,-0.2332,-0.292,1.093,13,-16.8457,-59.8145,0.3052,62,0.9935,0.7674,-3.3361,-13.7784,30,0.6703,7884,4.0524,81.8016
rg,1624655963560753911,1,-0.2134,-0.2939,1.1045,14,-14.7705,-60.4248,-0.6714,62,0.9935,0.7674,-5.1322,-14.449,30,0.6683,7882,4.0524,82.368
rg,1624655963560773392,1,-0.2051,-0.2703,1.1025,15,-15.5029,-59.7534,-0.7935,62,0.9945,0.7684,-6.8404,-15.0973,30,0.6683,7932,4.0524,82.9462
rg,1624655963560790688,1,-0.1968,-0.2598,1.1003,16,-17.4561,-59.8755,-0.061,62,0.9935,0.7674,-8.5103,-15.8109,30,0.6683,7961,4.0524,83.5783
rg,1624655963560807688,1,-0.1636,-0.2529,1.0962,17,-18.9819,-58.7769,0.8545,62,0.9915,0.7684,-10.0935,-16.5639,30,0.6673,7991,4.0524,84.2568
rg,1624655963560825335,1,-0.1399,-0.2793,1.0872,18,-24.1699,-54.1382,0.3662,62,0.9945,0.7684,-11.4787,-17.5596,30,0.6673,8004,4.0524,84.8986
rg,1624655963560843613,1,-0.1304,-0.281,1.0784,19,-25.4517,-50.6592,0.4272,62,0.9945,0.7704,-12.6872,-18.6214,30,0.6673,8043,4.0524,85.5368
rg,1624655963560860409,1,-0.1379,-0.3108,1.085,20,-29.6021,-42.7856,1.4648,62,0.9915,0.7704,-13.5122,-19.8326,30,0.6663,8054,4.0524,86.1419
rg,1624655963560877224,1,-0.1553,-0.3521,1.0962,21,-32.0435,-34.5459,0.4272,62,0.9945,0.7704,-13.9731,-21.1432,30,0.6663,8059,4.0524,86.6287
rg,1624655963560894316,1,-0.1626,-0.3552,1.1013,22,-32.2876,-31.6162,-0.4272,62,0.9955,0.7714,-14.2938,-22.4179,30,0.6663,8074,4.0524,87.0586
rg,1624655963560912112,1,-0.1704,-0.3516,1.1042,23,-30.5786,-29.48,0,62,0.9955,0.7714,-14.5004,-23.5553,30,0.6663,8103,4.0524,87.4784
rg,1624655963560929815,1,-0.1907,-0.332,1.1067,24,-31.1279,-28.3813,-1.0986,62,0.9955,0.7724,-14.6342,-24.6224,30,0.6663,8124,4.0524,87.8384
rg,1624655963560947574,1,-0.1995,-0.3262,1.1184,25,-31.7993,-29.8462,-1.8311,62,0.9965,0.7734,-14.825,-25.7018,30,0.6663,8304,4.0524,88.2623
rg,1624655963560964796,1,-0.1921,-0.3347,1.1326,26,-30.7007,-30.7617,0.061,62,0.9955,0.7734,-15.0038,-26.691,30,0.6653,8113,4.0524,88.7238
rg,1624655963560983555,1,-0.1621,-0.2925,1.0945,27,-30.0293,-34.2407,0.9766,62,0.9965,0.7744,-15.3176,-27.5856,30,0.6623,8230,4.0524,89.278
rg,1624655963561001185,1,-0.1677,-0.324,1.0906,28,-40.8936,-38.8794,-0.3052,62,0.9965,0.7754,-15.7841,-28.9623,30,0.6663,8213,4.0524,89.9032
rg,1624655963561028888,1,-0.1655,-0.3547,1.0803,29,-42.7246,-40.8325,-3.2349,62,0.9955,0.7734,-16.3444,-30.419,30,0.6653,8235,4.0524,90.4981
rg,1624655963561047258,1,-0.1541,-0.3789,1.1003,30,-49.0723,-49.4995,-6.8359,62,0.9965,0.7744,-17.2632,-32.1392,30,0.6653,8195,4.0524,91.1844
rg,1624655963561064332,1,-0.1243,-0.4023,1.0864,31,-51.5747,-56.8848,-8.1177,62,0.9965,0.7744,-18.4501,-34.0105,30,0.6663,8266,4.0524,92.046
rg,1624655963561081572,1,-0.1003,-0.4302,1.0845,32,-55.2368,-60.9741,-9.3994,62,0.9955,0.7734,-19.7685,-36.0655,30,0.6663,11559,4.0524,93.0254
rg,1624655965271225053,1,0.3247,-0.5767,0.2822,33,104.5532,61.2793,-12.5732,128,0.7274,0.4482,-18.3971,-32.2654,30,0.6453,26394,4.004,91.4505
rg,1624655965271298830,1,0.0859,-0.5176,0.3293,34,80.8716,112.7319,-8.1787,128,0.7344,0.4482,-12.1938,-29.8134,30,0.6483,8672,4.004,88.7474
rg,1624655965271323533,1,-0.292,-0.4868,0.6616,35,19.7144,140.5029,20.5078,128,0.7314,0.4492,-5.7295,-28.9453,30,0.6483,9000,4.004,86.7363
rg,1624655965271344033,1,-0.3455,-0.5405,0.6418,36,-97.229,-26.5503,14.4043,128,0.7003,0.4512,-5.2697,-33.3192,30,0.6403,9285,4.004,87.7847
rg,1624655965271365866,1,-0.0078,-0.8948,0.8828,37,-170.8984,-153.7476,4.2725,128,0.6773,0.4532,-9.8084,-41.1096,30,0.6293,7945,4.004,91.7001
rg,1624655965271388717,1,0.5571,-1.3647,0.7302,38,-166.3208,-175.1099,33.6914,128,0.6653,0.4532,-13.544,-48.6827,30,0.6213,8112,4.004,99.0206
rg,1624655965271407087,1,0.8472,-1.5361,0.8611,39,-86.9751,-150.0244,78.4912,128,0.6663,0.4392,-15.2787,-54.2936,30,0.6223,8015,4.004,106.0045
rg,1624655965271426605,1,0.7778,-1.5083,0.4365,40,15.1978,33.1421,80.4443,128,0.6653,0.4322,-12.3628,-54.5702,30,0.6153,7955,4.004,106.995
rg,1624655965271446401,1,0.4863,-1.0291,0.5103,41,37.4756,83.4351,83.6182,128,0.6653,0.4252,-7.5347,-51.5177,30,0.6153,8104,4.004,103.9398
rg,1624655965271463642,1,0.2158,-0.686,0.3325,42,101.4404,161.1328,20.9961,128,0.6643,0.4182,-3.0776,-47.5325,30,0.6123,8069,4.004,99.6074
rg,1624655965271481123,1,-0.103,-0.0999,0.0837,43,138.7329,134.7046,-50.415,128,0.6663,0.4212,0.8016,-41.9694,30,0.6103,8054,4.004,94.4682
rg,1624655965271499345,1,-0.311,0.1726,0.092,44,129.8828,124.7559,-66.5894,128,0.6673,0.4282,4.9959,-37.3498,30,0.6123,7991,4.004,89.5398
rg,1624655965271516493,1,-0.4343,0.1472,0.1052,45,17.8833,120.3613,-32.1045,128,0.6693,0.4332,10.1469,-36.2706,30,0.6143,8017,4.004,85.6933
rg,1624655965271534548,1,-0.6257,-0.636,0.801,46,-167.7246,45.166,17.7002,128,0.6733,0.4392,12.7963,-43.155,30,0.6193,8202,4.004,85.0075
rg,1624655965271552955,1,-0.4229,-1.7612,1.0271,47,-113.3423,-138.1836,12.3291,128,0.6773,0.4412,9.2569,-47.4782,30,0.6253,8031,4.004,89.2246
rg,1624655965271615251,1,-0.0112,-1.5972,0.4985,48,-41.9312,-173.2788,24.0479,128,0.6823,0.4392,5.0883,-49.3802,30,0.6303,8287,4.004,94.9428
rg,1624655965271636121,1,0.4719,-1.2446,0.9272,49,26.2451,-83.374,61.0352,128,0.6903,0.4382,3.8876,-48.1469,30,0.6363,8175,4.004,99.0478
rg,1624655965271670435,1,0.5657,-0.9126,0.6379,50,84.2896,7.5684,56.5796,128,0.7013,0.4392,4.5745,-44.9215,30,0.6433,8281,4.004,100.3316
rg,1624655965271690379,1,0.4602,-0.9124,0.4861,51,87.5244,27.9541,26.5503,128,0.7204,0.4462,5.3035,-42.1597,30,0.6473,8112,4.004,100.2474
rg,1624655965271707897,1,0.0999,-0.8687,0.428,52,77.8809,67.8711,-3.3569,128,0.7334,0.4512,6.824,-40.0804,30,0.6493,8368,4.004,98.2607
rg,1624655965271746563,1,-0.3064,-0.7329,0.4697,53,82.1533,106.3843,4.0894,128,0.7434,0.4512,10.7212,-37.8291,30,0.6523,8119,4.004,95.6126
rg,1624655965271764785,1,-0.4844,-0.5481,0.5715,54,73.7305,73.5474,10.437,128,0.7474,0.4492,12.0388,-35.6852,30,0.6553,8333,4.004,95.755
rg,1624655965271782470,1,-0.4172,-0.4092,0.5,55,20.6909,-68.1763,9.2773,128,0.7394,0.4522,10.8368,-34.593,30,0.6553,8178,4.004,97.6555
rg,1624655965271800692,1,0.0088,-0.4739,0.7681,56,-114.1357,-188.1104,12.6343,128,0.7013,0.4582,4.6778,-38.3562,30,0.6463,9926,4.004,102.6158
rg,1624655965271818655,1,0.3376,-0.9346,0.7161,57,-184.2651,-221.4355,12.146,128,0.6723,0.4602,-2.2939,-46.0994,30,0.6353,8264,4.004,108.9191
rg,1624655965271836099,1,0.7639,-1.4692,0.6526,58,-142.8223,-192.1997,49.0723,128,0.6663,0.4532,-6.642,-53.0437,30,0.6253,8419,4.004,116.1291
rg,1624655965271854062,1,0.8188,-1.5613,0.77,59,-88.7451,-120.1782,58.2886,128,0.6663,0.4312,-5.2826,-54.2677,30,0.6253,8298,4.004,117.1195
rg,1624655965271874061,1,0.6372,-1.4319,0.4395,60,36.7432,76.6602,77.0264,128,0.6663,0.4202,-1.7046,-53.4191,30,0.6203,8521,4.004,116.5027
rg,1624655965271892024,1,0.4031,-0.9819,0.4946,61,80.4443,147.3999,61.8286,128,0.6673,0.4062,3.1239,-50.6004,30,0.6173,8424,4.004,113.3586
rg,1624655965271910431,1,0.0073,-0.4976,0.3088,62,119.6289,139.4653,-15.8081,128,0.6683,0.4022,6.1665,-46.492,30,0.6153,8525,4.004,108.7214
rg,1624655965271930986,1,-0.2729,-0.1418,0.1409,63,131.3477,132.8125,-46.936,128,0.6683,0.4042,9.9268,-42.1002,30,0.6133,8397,4.004,103.4275
rg,1624655965271949079,1,-0.3398,-0.0049,0.1279,64,103.3936,105.6519,-44.4946,128,0.6703,0.4082,13.9655,-38.2971,30,0.6133,8542,4.004,99.4161
rg,1624655965644412828,1,-0.3157,-1.2744,1.7075,65,-179.6265,-94.9097,-1.4648,128,0.6783,0.4252,10.8882,-44.8364,30,0.6303,25343,4.004,101.9815
rg,1624655965644478994,1,0.2793,-1.5872,0.7424,66,-2.2583,-126.1597,27.2217,128,0.6843,0.4312,7.3526,-44.9977,30,0.6373,17055,4.004,106.2269
rg,1624655965644501660,1,0.4172,-1.041,0.8696,67,54.9927,-23.8037,38.3911,128,0.6933,0.4332,6.7944,-42.7723,30,0.6443,8295,4.004,107.9613
rg,1624655965644523178,1,0.3845,-0.8552,0.6104,68,87.7075,3.6011,22.1558,128,0.7113,0.4382,6.4642,-39.6374,30,0.6513,8573,4.004,108.4537
rg,1624655965644542419,1,0.335,-0.8394,0.5027,69,80.2612,12.4512,15.2588,128,0.7284,0.4462,6.5194,-37.2029,30,0.6563,8315,4.004,108.5159
rg,1624655965644560956,1,0.0315,-0.824,0.4644,70,70.4956,62.1338,3.9062,128,0.7414,0.4512,8.2924,-35.4668,30,0.6583,9753,4.004,107.0454
rg,1624655965644581363,1,-0.2795,-0.7075,0.5498,71,69.458,72.7539,7.019,128,0.7494,0.4482,11.2055,-33.5618,30,0.6613,9146,4.004,105.519
rg,1624655965644602788,1,-0.3809,-0.5488,0.5823,72,37.1094,-12.3291,5.3711,128,0.7534,0.4492,11.4724,-32.3362,30,0.6633,9041,4.004,105.9165
rg,1624655965644622584,1,-0.051,-0.4688,0.738,73,-46.2646,-124.939,13.916,128,0.7414,0.4542,7.2819,-33.6488,30,0.6623,9576,4.004,109.1563
rg,1624655965644691935,1,0.4199,-0.7739,0.7966,74,-156.0669,-184.2041,26.4282,128,0.7063,0.4562,0.9942,-39.872,30,0.6503,8733,4.004,114.424
rg,1624655965644714694,1,0.501,-1.2043,0.6121,75,-181.5186,-168.0298,15.564,128,0.6733,0.4552,-3.2972,-47.8728,30,0.6433,8580,4.004,118.4624
rg,1624655965644734008,1,0.52,-1.4226,0.6504,76,-150.0854,-94.2993,25.8789,128,0.6643,0.4422,-5.4203,-54.7693,30,0.6273,8515,4.004,122.1322
rg,1624655965644752842,1,0.5903,-1.5376,1.1487,77,-56.6406,21.2402,46.814,128,0.6673,0.4202,-3.8577,-56.986,30,0.6283,8715,4.004,122.4757
rg,1624655965644772230,1,0.3528,-1.3281,0.5811,78,45.6543,67.5049,69.1528,128,0.6663,0.4112,-0.4621,-55.4841,30,0.6243,8768,4.004,121.7748
rg,1624655965644791341,1,0.2212,-1.0317,0.3833,79,73.7305,78.064,26.7334,128,0.6673,0.3992,1.7837,-53.0957,30,0.6243,9037,4.004,119.8511
rg,1624655965644809989,1,0.0293,-0.7861,0.2839,80,109.9854,82.4585,-9.7656,128,0.6683,0.3962,3.8716,-49.4204,30,0.6203,8119,4.004,117.0225
rg,1624655965644828488,1,-0.1562,-0.2068,0.1091,81,164.978,72.0825,-33.7524,128,0.6673,0.3982,5.9983,-43.5079,30,0.6173,8289,4.004,114.0283
rg,1624655965644847507,1,-0.1709,0.1489,0.0718,82,137.5732,45.3491,-6.4697,128,0.6693,0.4022,8.8666,-36.6791,30,0.6173,8279,4.004,112.9145
rg,1624655965644866469,1,-0.0571,0.2146,0.0149,83,11.0474,-18.9819,1.709,128,0.6723,0.4072,9.0443,-34.2911,30,0.6203,8371,4.004,113.7257
rg,1624655965644884284,1,-0.1135,-0.0259,0.0154,84,-96.5576,-14.8315,-4.5166,128,0.6743,0.4122,10.5405,-38.3642,30,0.6233,8199,4.004,113.8251
rg,1624655965644903191,1,0.0061,-1.5181,2.4917,85,-284.1187,-20.6909,15.1978,128,0.6783,0.4152,9.9598,-49.1978,30,0.6293,8332,4.004,114.9413
rg,1624655965644921006,1,-0.1362,-1.9451,0.0598,86,-34.729,-87.2803,23.5596,128,0.6813,0.4182,8.3133,-51.4786,30,0.6353,8249,4.004,118.0273
rg,1624655965644940005,1,0.2598,-1.8572,0.7742,87,6.2866,-88.501,22.8271,128,0.6933,0.4162,6.0162,-50.874,30,0.6463,8454,4.004,121.3706
rg,1624655965644958227,1,0.3674,-0.8406,0.7473,88,112.5488,14.1602,40.2222,128,0.7073,0.4182,6.6652,-46.2114,30,0.6523,8404,4.004,121.9813
rg,1624655965644976412,1,0.2388,-0.7324,0.2717,89,97.7783,26.5503,36.6211,128,0.7274,0.4272,7.557,-43.1371,30,0.6583,8387,4.004,122.1472
rg,1624655965644995245,1,0.1196,-0.7241,0.3867,90,74.2188,40.9546,21.7896,128,0.7394,0.4312,8.7464,-40.9622,30,0.6603,8229,4.004,121.58
rg,1624655965645032189,1,-0.2288,-0.6616,0.4885,91,58.2275,53.9551,11.5356,128,0.7464,0.4342,10.9596,-39.2931,30,0.6643,8781,4.004,120.4542
rg,1624655965645081392,1,-0.2405,-0.5371,0.7014,92,-3.54,-27.2217,24.1699,128,0.7344,0.4392,10.8969,-39.0746,30,0.6623,10939,4.004,121.9351
rg,1624655965645102336,1,0.1274,-0.6506,0.7871,93,-127.0752,-138.916,13.6719,128,0.6963,0.4432,6.4092,-43.5292,30,0.6483,9133,4.004,126.0847
rg,1624655965645120410,1,0.2825,-1.0894,0.7117,94,-167.8467,-139.4043,15.2588,128,0.6773,0.4452,2.3583,-50.3774,30,0.6363,8361,4.004,130.569
rg,1624655965645139280,1,0.6279,-1.5579,0.647,95,-139.5874,-122.9248,38.4521,128,0.6713,0.4402,1.0619,-54.4747,30,0.6293,8571,4.004,135.4746
rg,1624655965645156891,1,0.8086,-1.5896,0.884,96,-48.584,-51.1475,73.0591,128,0.6713,0.4212,1.3581,-56.5649,30,0.6323,8456,4.004,138.822
rg,1624655966008431840,1,-0.1116,-0.3425,0.1399,97,110.4736,126.8311,-5.249,128,0.6723,0.4022,3.8706,-51.9099,30,0.6243,26714,4.004,133.3844
rg,1624655966008464766,1,-0.3562,-0.0283,0.0786,98,120.9717,122.3755,-62.3779,128,0.6753,0.4112,7.8197,-48.1372,30,0.6243,8708,4.004,129.1648
rg,1624655966008485376,1,-0.4294,0.082,0.062,99,35.9497,89.4165,-3.2959,128,0.6773,0.4182,12.174,-46.7613,30,0.6263,7811,4.004,126.4827
rg,1624655966008505320,1,-0.5161,-0.416,0.4873,100,-138.7939,15.2588,21.4844,128,0.6803,0.4222,14.2365,-52.0765,30,0.6293,7973,4.004,126.5758
rg,1624655966008563060,1,-0.4385,-1.8618,1.7822,101,-170.5933,-118.9575,10.8032,128,0.6843,0.4222,11.6999,-57.6822,30,0.6353,7840,4.004,130.8918
rg,1624655966008582708,1,-0.1655,-1.729,0.4971,102,-64.6973,-149.9023,20.5688,128,0.6913,0.4192,9.1388,-57.5462,30,0.6403,8699,4.004,136.5628
rg,1624655966008601263,1,0.4365,-1.4089,0.9165,103,21.0571,-90.0269,46.936,128,0.6983,0.4132,7.8374,-56.0684,30,0.6463,8665,4.004,140.6394
rg,1624655966008619652,1,0.489,-0.918,0.6702,104,85.022,15.0757,47.7905,128,0.7153,0.4152,8.5631,-52.4985,30,0.6503,8005,4.004,141.2388
rg,1624655966008637448,1,0.2253,-0.8096,0.363,105,91.6748,35.4614,30.8228,103,0.7314,0.4182,9.4092,-50.1956,30,0.6553,7892,4.0227,139.6832
rg,1624655966008654874,1,0.0378,-0.7876,0.4597,106,60.6079,77.5146,0.7324,103,0.7404,0.4172,10.9763,-48.569,30,0.6573,7966,4.0227,137.2377
rg,1624655966008672596,1,-0.3208,-0.7593,0.5986,107,43.5181,90.3931,4.4556,103,0.7464,0.4172,13.7997,-47.5074,30,0.6593,7875,4.0227,134.5836
rg,1624655966008691540,1,-0.3943,-0.5999,0.6643,108,-12.7563,-19.043,1.9531,103,0.7174,0.4142,13.7388,-47.6521,30,0.6533,8412,4.0227,135.2699
rg,1624655966008710188,1,-0.042,-0.6665,0.667,109,-122.4365,-151.3062,-11.9629,103,0.6873,0.4132,8.9107,-51.927,30,0.6373,8818,4.0227,139.6298
rg,1624655966008728058,1,0.1387,-1.0779,0.616,110,-130.127,-161.1938,1.8311,103,0.6733,0.4152,4.6494,-56.8055,30,0.6233,8027,4.0227,144.9215
rg,1624655966008745576,1,0.6306,-1.4497,0.9148,111,-65.7349,-130.6152,54.3213,103,0.6743,0.4192,2.7815,-59.0837,30,0.6293,8224,4.0227,150.5251
rg,1624655966008791020,1,0.7065,-1.4661,0.6809,112,-12.3901,-70.9839,64.1479,103,0.6733,0.4122,3.7004,-58.6292,30,0.6283,8109,4.0227,152.5124
rg,1624655966008809575,1,0.6714,-1.3464,0.4709,113,39.6118,46.1426,64.0869,103,0.6723,0.4072,5.7466,-57.4868,30,0.6273,8267,4.0227,152.2511
rg,1624655966008826575,1,0.1963,-0.8728,0.3933,114,119.5679,128.8452,22.1558,103,0.6733,0.4012,8.6973,-53.5028,30,0.6253,8281,4.0227,148.4142
rg,1624655966008843889,1,-0.0767,-0.2527,0.2207,115,155.5786,125,-39.978,103,0.6733,0.3992,10.7656,-47.945,30,0.6243,8274,4.0227,143.504
rg,1624655966008861111,1,-0.2048,-0.0259,0.1426,116,155.7617,143.4326,-57.5562,103,0.6733,0.4032,15.0633,-41.829,30,0.6233,8114,4.0227,138.0226
rg,1624655966008877907,1,-0.3169,0.2532,0.1335,117,95.8252,107.666,-38.5742,103,0.6753,0.4102,19.0701,-37.6492,30,0.6233,8385,4.0227,134.3761
rg,1624655966008894944,1,-0.5183,0.0598,0.0688,118,-63.3545,46.0815,-36.9263,103,0.6783,0.4152,21.6468,-40.6368,30,0.6263,8179,4.0227,131.9943
rg,1624655966008911722,1,-0.7036,-1.0078,1.2258,119,-160.8276,-1.709,-26.123,103,0.6813,0.4192,19.2239,-49.0376,30,0.6313,8408,4.0227,134.0414
rg,1624655966008928703,1,-0.5222,-2.0881,2.4441,120,-223.999,-163.8184,-1.4038,103,0.6853,0.4212,14.8547,-56.0208,30,0.6353,8268,4.0227,139.5772
rg,1624655966008945758,1,0.2112,-1.7,0.5049,121,-17.6392,-212.0361,23.4375,103,0.6923,0.4212,10.0928,-55.7289,30,0.6403,8508,4.0227,147.1213
rg,1624655966008962554,1,0.5969,-1.1321,0.8652,122,36.377,-87.5854,52.4292,103,0.6993,0.4212,8.5531,-53.4794,30,0.6483,8398,4.0227,151.2396
rg,1624655966008979220,1,0.6128,-0.8782,0.7388,123,59.8145,-31.25,50.354,103,0.7113,0.4242,8.3018,-50.5761,30,0.6553,8523,4.0227,151.847
rg,1624655966008995665,1,0.3984,-0.7932,0.4016,124,61.4014,21.3013,10.6812,103,0.7264,0.4282,7.9659,-48.6275,30,0.6593,8327,4.0227,151.3801
rg,1624655966009012201,1,0.0979,-0.8767,0.4893,125,29.48,56.0303,-4.1504,103,0.7394,0.4312,8.7948,-48.1868,30,0.6623,8482,4.0227,149.5017
rg,1624655966009028590,1,-0.1992,-0.8699,0.4922,126,35.2783,49.4995,3.9673,103,0.7454,0.4332,10.3372,-47.4788,30,0.6653,8354,4.0227,148.0464
rg,1624655966009055312,1,-0.2893,-0.741,0.5415,127,34.1797,18.7378,4.6997,103,0.7484,0.4332,9.9953,-46.6376,30,0.6653,9314,4.0227,148.9689
rg,1624655966009076089,1,0.0466,-0.6353,0.6814,128,-58.7158,-125.8545,9.9487,103,0.7234,0.4402,6.3998,-48.2488,30,0.6553,11693,4.0227,153.0246
rg,1624655966368839420,1,0.6616,-1.4348,0.6057,129,-62.1338,-79.1016,57.8003,103,0.6753,0.4222,7.0803,-49.0767,30,0.6293,28943,4.0227,154.4889
rg,1624655966368918030,1,0.4714,-1.1768,0.4382,130,51.2085,104.248,67.2607,103,0.6753,0.4092,10.799,-47.9898,30,0.6293,11017,4.0227,153.0126
rg,1624655966368941011,1,0.1116,-0.5916,0.3472,131,102.7222,145.2637,12.6343,103,0.6743,0.3992,14.3609,-45.2125,30,0.6263,7873,4.0227,148.93
rg,1624655966368963863,1,-0.0723,-0.3262,0.2358,132,121.6431,141.4185,-25.6958,103,0.6743,0.3942,17.5604,-42.0424,30,0.6253,7907,4.0227,144.003
rg,1624655966368986122,1,-0.3374,0.0237,0.1616,133,120.7275,144.165,-68.5425,103,0.6743,0.3972,21.9071,-38.4868,30,0.6243,7859,4.0227,138.1371
rg,1624655966369007788,1,-0.626,0.0986,0.155,134,36.438,114.0137,-33.02,103,0.6773,0.4052,26.5794,-38.0998,30,0.6243,7999,4.0227,134.1578
rg,1624655966369028788,1,-0.7256,-0.5327,0.605,135,-146.5454,-43.2129,9.7656,103,0.6823,0.4132,26.1282,-43.345,30,0.6243,11338,4.0227,135.6751
rg,1624655966369090083,1,-0.2937,-1.8745,1.5298,136,-195.7397,-163.8184,7.4463,103,0.6863,0.4162,17.8411,-46.4311,30,0.6313,8000,4.0227,143.516
rg,1624655966369114045,1,0.1108,-1.6555,0.5964,137,-56.2134,-277.2217,1.9531,103,0.6913,0.4172,9.6178,-47.6038,30,0.6343,7966,4.0227,151.6232
rg,1624655966369135082,1,0.6299,-1.3245,0.8237,138,17.7612,-159.0576,44.9829,103,0.7003,0.4172,5.4376,-46.4842,30,0.6413,8027,4.0227,157.4774
rg,1624655966369157841,1,0.739,-0.8479,0.6665,139,39.978,-83.8013,61.9507,103,0.7083,0.4182,4.8199,-44.1913,30,0.6483,7977,4.0227,159.6172
rg,1624655966369177915,1,0.5962,-0.7654,0.4663,140,57.251,13.916,25.5737,103,0.7214,0.4232,4.5163,-42.3451,30,0.6523,8070,4.0227,159.9134
rg,1624655966369197285,1,0.2104,-0.8469,0.4805,141,21.1182,55.3589,-4.0283,103,0.7344,0.4292,5.3915,-42.3239,30,0.6573,7998,4.0227,158.2379
rg,1624655966369216692,1,-0.1277,-0.8787,0.5911,142,13.7939,73.7915,3.1738,103,0.7374,0.4332,7.8327,-42.9558,30,0.6603,8120,4.0227,156.4275
rg,1624655966369237636,1,-0.2808,-0.8335,0.636,143,-22.1558,43.7622,7.5073,103,0.7224,0.4352,9.5836,-44.3561,30,0.6563,8039,4.0227,155.3685
rg,1624655966369260932,1,-0.1094,-0.8108,0.5837,144,-88.8672,-119.6899,-2.4414,103,0.6923,0.4372,6.0851,-47.8149,30,0.6373,8711,4.0227,158.7254
rg,1624655966369281450,1,0.2349,-1.0042,0.6384,145,-93.3838,-164.4287,12.3901,103,0.6833,0.4382,1.5681,-51.5515,30,0.6253,9525,4.0227,164.0527
rg,1624655966369302265,1,0.7241,-1.3259,0.7959,146,-32.4097,-115.9058,59.6313,103,0.6813,0.4322,-0.381,-53.0457,30,0.6293,8276,4.0227,169.1814
rg,1624655966369322894,1,0.7856,-1.417,0.3257,147,-10.5591,-65.0635,77.5757,103,0.6793,0.4202,-0.4812,-54.3001,30,0.6263,8204,4.0227,-186.8737
rg,1624655966369342894,1,0.7195,-1.28,0.2996,148,39.5508,88.4399,76.416,103,0.6783,0.4132,2.9795,-53.4981,30,0.6243,8191,4.0227,-187.9474
rg,1624655966369361282,1,0.2578,-0.6643,0.2141,149,96.9849,187.2559,25.8789,103,0.6773,0.4092,7.4677,-50.7876,30,0.6223,8154,4.0227,166.6885
rg,1624655966369387245,1,0.0605,-0.3254,0.186,150,116.6382,191.4673,-13.7939,103,0.6783,0.4082,13.0863,-46.6864,30,0.6193,8353,4.0227,160.5879
rg,1624655966369409893,1,-0.3064,0.0178,0.1528,151,113.5864,199.8901,-63.8428,103,0.6783,0.4152,18.7193,-43.4163,30,0.6163,8184,4.0227,153.0976
rg,1624655966369429170,1,-0.6018,-0.0273,0.1335,152,18.3716,174.9878,-27.2827,103,0.6813,0.4222,24.9119,-44.6599,30,0.6183,8428,4.0227,147.0853
rg,1624655966369446781,1,-0.8989,-0.8411,0.8096,153,-62.8662,129.8218,-8.728,103,0.6853,0.4262,26.4962,-50.6022,30,0.6213,8284,4.0227,145.492
rg,1624655966369464151,1,-0.9209,-1.5154,1.5166,154,-142.5171,-75.2563,-6.2866,103,0.6923,0.4292,24.1663,-55.5941,30,0.6273,9063,4.0227,147.8353
rg,1624655966369484614,1,-0.1597,-1.4829,0.5798,155,-28.7476,-226.5625,16.7847,103,0.6983,0.4312,18.855,-54.2078,30,0.6293,8403,4.0227,155.9864
rg,1624655966369509947,1,0.4893,-1.1506,0.9575,156,26.4893,-190.4907,50.5371,103,0.7063,0.4322,14.4868,-50.812,30,0.6343,8555,4.0227,163.5853
rg,1624655966369530743,1,0.6621,-0.9041,0.4287,157,88.6841,-69.5801,52.4902,103,0.7214,0.4362,12.5765,-46.9024,30,0.6433,8364,4.0227,166.9823
rg,1624655966369552131,1,0.6267,-0.8704,0.2668,158,88.2568,-32.7148,31.5552,103,0.7354,0.4432,11.067,-43.8249,30,0.6473,8632,4.0227,168.6153
rg,1624655966369570279,1,0.2559,-0.7454,0.3657,159,63.7817,58.3496,-10.9863,103,0.7434,0.4452,11.4135,-42.4133,30,0.6493,8428,4.0227,166.4979
rg,1624655966369589871,1,-0.1677,-0.7026,0.6001,160,44.4336,103.0273,3.6621,103,0.7494,0.4442,14.5135,-41.5229,30,0.6493,8649,4.0227,163.7207
rg,1624655966727552656,1,0.188,-0.8135,0.6702,161,-136.2305,-147.1558,23.6206,103,0.6833,0.4552,10.0143,-46.2628,30,0.6343,26631,4.0227,168.5407
rg,1624655966727594248,1,0.5906,-1.377,0.6018,162,-74.585,-105.0415,57.7393,103,0.6753,0.4482,7.748,-49.2267,30,0.6253,10555,4.0227,-186.8417
rg,1624655966727615192,1,0.5767,-1.3601,0.4971,163,-37.4756,-43.1519,70.5566,103,0.6743,0.4322,10.0748,-49.856,30,0.6273,7995,4.0227,-186.5993
rg,1624655966727653025,1,0.4973,-1.2808,0.3936,164,31.0059,84.7168,74.646,103,0.6733,0.4262,13.4028,-49.5985,30,0.6243,7881,4.0227,-187.4345
rg,1624655966727685432,1,0.2205,-0.9016,0.437,165,70.5566,128.9062,35.5225,103,0.6733,0.4162,16.8659,-48.1516,30,0.6223,8089,4.0227,169.3523
rg,1624655966727704969,1,-0.1223,-0.4565,0.2297,166,104.248,135.5591,-36.7432,103,0.6733,0.4092,19.3349,-46.2173,30,0.6193,8844,4.0227,163.9385
rg,1624655966727724024,1,-0.2791,-0.2563,0.1558,167,109.5581,150.4517,-59.2041,103,0.6743,0.4102,22.7697,-44.5104,30,0.6183,8503,4.0227,157.4611
rg,1624655966727742820,1,-0.5759,-0.0251,0.1409,168,89.9048,152.71,-39.978,103,0.6763,0.4182,27.8892,-43.1163,30,0.6163,7902,4.0227,151.6695
rg,1624655966727761820,1,-0.6995,-0.1133,0.2397,169,-32.7148,43.5791,10.6812,103,0.6783,0.4232,30.9417,-44.6455,30,0.6193,8062,4.0227,150.7472
rg,1624655966727780412,1,-0.7268,-0.4783,0.4902,170,-118.8354,-43.1519,15.686,103,0.6813,0.4282,30.8251,-48.3634,30,0.6233,7990,4.0227,152.7023
rg,1624655966727798745,1,-0.3662,-1.7229,1.5686,171,-149.1089,-256.2866,0.9155,103,0.6853,0.4282,23.3939,-50.282,30,0.6283,8094,4.0227,161.4852
rg,1624655966727816596,1,0.3376,-1.4919,0.623,172,-17.7612,-251.4648,20.5078,103,0.6893,0.4262,16.2619,-48.7212,30,0.6323,8103,4.0227,169.8774
rg,1624655966727834689,1,0.5547,-1.3125,0.6997,173,14.8315,-178.1006,51.0254,103,0.6953,0.4252,11.3999,-46.7666,30,0.6393,7998,4.0227,-183.3924
rg,1624655966727852522,1,0.7266,-0.9075,0.6372,174,42.2363,-35.5225,62.1948,103,0.7033,0.4222,10.6049,-44.814,30,0.6463,8222,4.0227,-180.6746
rg,1624655966727878151,1,0.3486,-0.8347,0.3955,175,41.5039,28.7476,1.0376,103,0.7254,0.4262,10.2951,-44.0263,30,0.6543,8014,4.0227,-181.6101
rg,1624655966727897206,1,0.0017,-0.8894,0.4939,176,29.1748,80.1392,6.897,103,0.7314,0.4352,12.3855,-43.9334,30,0.6583,12885,4.0227,-183.8046
rg,1624655966727915484,1,-0.2974,-0.8411,0.6479,177,4.9438,56.3354,15.7471,103,0.7294,0.4382,14.5622,-44.3242,30,0.6623,8037,4.0227,-185.0276
rg,1624655966727933558,1,-0.1711,-0.7473,0.6401,178,-75.0122,-96.7407,2.5635,103,0.7013,0.4402,11.7574,-46.8447,30,0.6553,8214,4.0227,-182.1556
rg,1624655966727952057,1,-0.009,-0.8516,0.6357,179,-106.1401,-155.0293,-6.6528,103,0.6823,0.4412,7.0536,-50.5814,30,0.6373,8135,4.0227,-177.6453
rg,1624655966727969983,1,0.3813,-1.1414,0.8928,180,-79.7119,-162.6587,17.5171,103,0.6823,0.4392,2.7813,-53.3243,30,0.6433,8310,4.0227,-172.0575
rg,1624655966727987501,1,0.7295,-1.3921,0.4077,181,-13.1226,-97.4731,65.4907,103,0.6803,0.4292,1.4987,-54.3658,30,0.6423,11167,4.0227,-167.39
rg,1624655966728005557,1,0.77,-1.3865,0.2847,182,25.1465,44.1284,68.5425,103,0.6793,0.4222,3.613,-54.158,30,0.6393,8298,4.0227,-167.2566
rg,1624655966728023501,1,0.323,-0.8455,0.1467,183,74.2188,179.5044,21.3623,103,0.6793,0.4162,7.6275,-52.6418,30,0.6403,8150,4.0227,-172.6164
rg,1624655966728042315,1,0.0554,-0.4934,0.1184,184,99.1821,201.1719,-22.8882,103,0.6783,0.4172,11.3442,-50.7553,30,0.6363,8521,4.0227,-179.7237
rg,1624655966728059963,1,-0.3062,-0.0527,0.116,185,134.0942,191.7725,-68.6035,103,0.6803,0.4232,16.1914,-46.851,30,0.6363,8261,4.0227,-187.3578
rg,1624655966728090722,1,-0.5808,0.0066,0.0649,186,49.4385,166.2598,-30.6396,103,0.6823,0.4302,21.9439,-46.6196,30,0.6363,8413,4.0227,166.7007
rg,1624655966728110277,1,-0.7473,-0.2075,0.1655,187,-37.3535,139.2822,-5.7373,103,0.6853,0.4352,24.7093,-52.4556,30,0.6363,8287,4.0227,164.6613
rg,1624655966728128036,1,-0.9001,-1.498,1.6145,188,-153.1982,-64.0259,11.5356,103,0.6873,0.4392,23.5379,-57.1092,30,0.6393,8461,4.0227,167.418
rg,1624655966728145647,1,-0.1194,-1.3296,0.4241,189,-25.7568,-239.624,10.6812,103,0.6923,0.4392,17.94,-55.6546,30,0.6393,8349,4.0227,-184.0601
rg,1624655966728163424,1,0.4048,-1.116,0.9265,190,3.6011,-184.6313,26.9775,103,0.6973,0.4392,13.3105,-53.4296,30,0.6433,8517,4.0227,-177.1247
rg,1624655966728181646,1,0.5291,-0.9768,0.842,191,23.8037,-123.291,39.856,103,0.7023,0.4372,10.2567,-51.2943,30,0.6493,8378,4.0227,-172.1302
rg,1624655966728199572,1,0.5698,-0.9514,0.6289,192,40.1001,-25.3296,27.0996,103,0.7184,0.4402,9.0927,-49.6249,30,0.6533,8525,4.0227,-170.6939
rg,1624655967087515716,1,-0.0764,-0.8396,0.4224,193,86.3037,109.9854,2.9907,103,0.7544,0.4422,12.4445,-46.8051,30,0.6583,26894,4.0227,-173.9532
rg,1624655967087580345,1,-0.4016,-0.5005,0.5146,194,60.6689,20.874,9.7046,103,0.7584,0.4402,13.9536,-44.3542,30,0.6573,8664,4.0227,-174.2503
rg,1624655967087602122,1,-0.3555,-0.3774,0.5376,195,8.3008,-36.2549,12.6343,103,0.7404,0.4452,12.3675,-45.5706,30,0.6523,7879,4.0227,-170.9765
rg,1624655967087622567,1,-0.0417,-0.5776,0.8132,196,-126.4648,-127.3193,33.02,103,0.7083,0.4492,9.5342,-49.2952,30,0.6423,7825,4.0227,-166.1449
rg,1624655967087641529,1,0.3586,-1.177,0.6929,197,-168.0908,-196.228,47.9126,103,0.6803,0.4492,5.3682,-55.4181,30,0.6293,10925,4.0227,-158.7326
rg,1624655967087660233,1,0.8313,-1.5959,0.5002,198,-84.9609,-146.0571,65.3076,103,0.6763,0.4432,3.225,-58.9149,30,0.6243,8133,4.0227,-152.4203
rg,1624655967087679232,1,0.6299,-1.4211,0.5347,199,24.5972,82.5195,59.9976,103,0.6743,0.4272,5.9887,-58.4281,30,0.6223,7979,4.0227,-154.0354
rg,1624655967087697269,1,0.3398,-1.0818,0.6104,200,47.2412,135.437,67.749,103,0.6743,0.4222,10.3179,-56.8516,30,0.6193,7941,4.0227,-157.7997
rg,1624655967087715861,1,0.1206,-0.9258,0.5337,201,74.707,157.0435,27.0996,103,0.6733,0.4112,14.0487,-54.9814,30,0.6173,8074,4.0227,-162.5417
rg,1624655967087734231,1,-0.2498,-0.5935,0.2576,202,107.7271,128.2349,-58.7158,103,0.6743,0.4052,15.4535,-52.565,30,0.6153,8606,4.0227,-168.3495
rg,1624655967087759379,1,-0.5281,-0.2449,0.061,203,125.9766,114.3188,-79.5898,103,0.6753,0.4072,17.5666,-49.5745,30,0.6153,8631,4.0227,-174.1939
rg,1624655967087822471,1,-0.5254,-0.0288,0.0872,204,128.7842,57.7393,-57.373,103,0.6773,0.4132,19.5708,-44.9534,30,0.6163,7988,4.0227,-177.3589
rg,1624655967087842434,1,-0.5493,0.1328,0.1221,205,24.9634,-8.728,-10.3149,103,0.6793,0.4212,21.0709,-43.2069,30,0.6183,8067,4.0227,-177.1206
rg,1624655967087860007,1,-0.5105,-0.5171,0.6614,206,-168.5181,-93.811,33.8745,103,0.6833,0.4262,19.8476,-48.3784,30,0.6223,7984,4.0227,-173.1897
rg,1624655967087877729,1,-0.2427,-1.2537,1.6851,207,-213.0127,-170.7153,33.5083,103,0.6893,0.4282,15.8978,-54.9666,30,0.6303,8152,4.0227,-166.6913
rg,1624655967087895877,1,0.1899,-1.7043,0.5308,208,-65.0024,-222.229,12.5122,103,0.6933,0.4302,10.5168,-56.4587,30,0.6363,8072,4.0227,-159.049
rg,1624655967087913044,1,0.6802,-1.4187,0.7471,209,22.0947,-110.8398,52.9175,103,0.6993,0.4312,8.5291,-54.9578,30,0.6433,8205,4.0227,-154.184
rg,1624655967087930136,1,0.7378,-1.1187,0.7903,210,45.9595,-37.8418,50.7812,103,0.7093,0.4332,8.478,-52.1751,30,0.6503,8225,4.0227,-154.0674
rg,1624655967087947080,1,0.4346,-0.8728,0.4917,211,72.0215,40.6494,5.4932,103,0.7254,0.4372,8.467,-49.7713,30,0.6543,8456,4.0227,-155.2807
rg,1624655967087964413,1,0.1216,-0.8662,0.4695,212,48.9502,69.6411,-3.7842,103,0.7384,0.4452,9.5607,-48.6235,30,0.6563,8154,4.0227,-157.5949
rg,1624655967087981431,1,-0.2922,-0.8237,0.5073,213,43.0908,94.9097,-1.1597,103,0.7434,0.4482,12.3281,-47.8208,30,0.6603,8211,4.0227,-160.5732
rg,1624655967087998968,1,-0.427,-0.7529,0.5532,214,27.4048,53.5889,-0.9766,103,0.7354,0.4522,14.2168,-47.3124,30,0.6603,8178,4.0227,-162.2703
rg,1624655967088016412,1,-0.2725,-0.5798,0.5344,215,-67.4438,-106.6284,-1.8921,103,0.7053,0.4542,11.5305,-49.2763,30,0.6473,8283,4.0227,-159.0502
rg,1624655967088033894,1,0.0566,-0.8274,0.6482,216,-132.6904,-181.8237,-1.8921,103,0.6853,0.4552,6.4114,-53.7748,30,0.6343,8222,4.0227,-153.335
rg,1624655967088050856,1,0.2734,-1.0544,0.739,217,-117.0654,-185.2417,19.4702,103,0.6813,0.4552,1.9543,-58.0521,30,0.6343,8357,4.0227,-146.7285
rg,1624655967088067708,1,0.7656,-1.4971,0.7307,218,-22.583,-122.3755,67.688,103,0.6783,0.4432,0.606,-59.4949,30,0.6353,8757,4.0227,-141.154
rg,1624655967088085171,1,0.946,-1.4414,0.4075,219,24.5361,-4.5776,98.5718,88,0.6773,0.4372,2.6619,-58.9317,30,0.6333,8566,4.037,-139.0027
rg,1624655967088101967,1,0.5073,-0.915,0.2854,220,89.5386,163.9404,43.7012,88,0.6753,0.4272,6.4695,-56.1955,30,0.6323,8326,4.037,-143.6749
rg,1624655967088119133,1,-0.0027,-0.1877,0.1133,221,127.1362,181.6406,-49.3774,88,0.6773,0.4272,8.8611,-52.174,30,0.6293,8510,4.037,-150.796
rg,1624655967088136133,1,-0.3826,0.1023,0.1421,222,133.0566,185.0586,-83.4351,88,0.6773,0.4312,13.0636,-48.6929,30,0.6263,8337,4.037,-158.7923
rg,1624655967088153114,1,-0.5703,0.0889,0.1331,223,38.5132,183.3496,-60.2417,88,0.6793,0.4382,18.1832,-48.5028,30,0.6263,8508,4.037,-165.9991
rg,1624655967088181539,1,-0.9041,-0.6304,0.6187,224,-141.2964,84.3506,1.1597,88,0.6833,0.4432,21.3303,-54.9978,30,0.6283,8395,4.037,-168.8168
rg,1624655967451653712,1,0.3955,-1.2898,0.8831,225,-1.9531,-224.9756,42.6636,88,0.7073,0.4482,15.7781,-52.2314,30,0.6433,26894,4.037,-160.1297
rg,1624655967451694026,1,0.7563,-0.991,0.4177,226,67.627,-66.1011,49.8657,88,0.7234,0.4512,13.9113,-49.1458,30,0.6483,12556,4.037,-156.8931
rg,1624655967451715063,1,0.5105,-0.9456,0.2229,227,69.2139,19.3481,8.8501,88,0.7374,0.4582,13.2342,-47.4233,30,0.6513,7942,4.037,-157.5038
rg,1624655967451760932,1,0.3425,-0.8389,0.2458,228,73.5474,55.9692,1.3428,88,0.7424,0.4622,13.5611,-45.8255,30,0.6543,7959,4.037,-159.3836
rg,1624655967451781117,1,-0.1116,-0.6067,0.4077,229,40.2222,114.2578,3.2349,88,0.7354,0.4682,16.6399,-45.4825,30,0.6533,7849,4.037,-162.7786
rg,1624655967451800895,1,-0.3381,-0.6028,0.5405,230,-71.2891,12.3901,1.2817,88,0.7043,0.4732,17.2472,-48.5178,30,0.6363,9210,4.037,-163.1538
rg,1624655967451819876,1,-0.1917,-0.8188,0.573,231,-102.1118,-73.2422,-13.5498,88,0.6853,0.4752,13.7045,-51.9297,30,0.6263,8522,4.037,-159.1095
rg,1624655967451838857,1,0.126,-1.0771,0.739,232,-93.3228,-152.9541,44.3115,88,0.6813,0.4682,10.7381,-54.4935,30,0.6243,7955,4.037,-153.0303
rg,1624655967451857116,1,0.7339,-1.5154,0.7085,233,-28.5645,-106.4453,107.3608,88,0.6783,0.4602,10.5136,-54.8856,30,0.6253,7959,4.037,-147.0467
rg,1624655967451875931,1,0.9783,-1.4026,0.385,234,20.5688,-57.9834,122.0093,88,0.6773,0.4532,12.8461,-52.6754,30,0.6253,8122,4.037,-144.6785
rg,1624655967451896578,1,0.759,-1.0771,0.3113,235,97.29,101.8066,74.707,88,0.6753,0.4392,16.0747,-49.8357,30,0.6213,8461,4.037,-146.2417
rg,1624655967451914949,1,0.1887,-0.2539,0.2485,236,132.6904,189.8193,-31.4331,88,0.6753,0.4342,18.5955,-46.4283,30,0.6193,8071,4.037,-153.0488
rg,1624655967451933096,1,-0.3154,0.0977,0.2825,237,102.9053,268.0664,-103.5156,88,0.6773,0.4362,24.4265,-44.9644,30,0.6193,8007,4.037,-163.8557
rg,1624655967451951078,1,-0.9431,-0.1753,0.304,238,53.6499,290.0391,-96.6187,88,0.6793,0.4432,30.8734,-50.1559,30,0.6183,8117,4.037,-173.9487
rg,1624655967451968244,1,-1.1619,-0.5627,0.4734,239,-89.5996,156.7383,-31.4331,88,0.6813,0.4482,34.5363,-57.4767,30,0.6203,8053,4.037,-180.9193
rg,1624655967451986781,1,-1.1431,-1.3862,1.0408,240,-138.5498,-123.7183,-12.6953,88,0.6873,0.4512,31.5249,-60.2254,30,0.6243,8168,4.037,-176.0619
rg,1624655967452005688,1,-0.2817,-1.4292,0.7424,241,-62.439,-325.9277,7.2632,88,0.6933,0.4542,24.2072,-56.869,30,0.6283,8118,4.037,-163.4165
rg,1624655967452023688,1,0.1025,-1.3501,0.8848,242,-33.8135,-344.3604,21.1182,88,0.6973,0.4522,16.0745,-53.8778,30,0.6313,8057,4.037,-150.9077
rg,1624655967452056095,1,0.9255,-1.1104,0.5142,243,51.6968,-171.1426,65.1855,88,0.7143,0.4572,12.1445,-50.4021,30,0.6403,13086,4.037,-143.8515
rg,1624655967452078835,1,0.9443,-1.0886,0.3342,244,69.3359,-102.8442,42.1753,88,0.7314,0.4642,9.7624,-47.8765,30,0.6443,8161,4.037,-142.5829
rg,1624655967452096798,1,0.6211,-0.8977,0.1299,245,84.8999,22.1558,-10.2539,88,0.7424,0.4702,8.541,-45.6957,30,0.6463,8985,4.037,-143.7355
rg,1624655967452115297,1,0.1021,-0.6533,0.2822,246,80.5664,142.7612,-11.5356,88,0.7494,0.4692,11.6063,-44.0635,30,0.6483,8217,4.037,-148.2962
rg,1624655967452134112,1,-0.3711,-0.6362,0.7007,247,36.6821,167.4194,16.7236,88,0.7524,0.4682,17.251,-43.5902,30,0.6513,8331,4.037,-152.5742
rg,1624655967452153204,1,-0.5049,-0.592,0.4795,248,1.8921,97.9004,22.8271,88,0.7314,0.4752,18.2269,-45.6955,30,0.6433,8747,4.037,-151.7366
rg,1624655967452171130,1,-0.2854,-0.624,0.4702,249,-110.2295,-110.7178,16.7847,88,0.7003,0.4802,15.8196,-49.2254,30,0.6303,8917,4.037,-147.9344
rg,1624655967452189463,1,0.2373,-1.03,0.7944,250,-144.8364,-194.2139,35.4614,88,0.6833,0.4862,11.1138,-53.4517,30,0.6243,8256,4.037,-140.7939
rg,1624655967452207074,1,0.8748,-1.4814,0.7183,251,-56.4575,-136.2305,76.7822,88,0.6823,0.4772,9.0066,-54.9581,30,0.6293,8506,4.037,-134.5425
rg,1624655967452225647,1,0.8677,-1.4597,0.5691,252,-20.752,-31.311,78.7354,88,0.6783,0.4712,11.5441,-55.0734,30,0.6303,8339,4.037,-134.83
rg,1624655967452243573,1,0.5684,-1.1165,0.4487,253,37.7808,107.7881,62.6221,88,0.6783,0.4612,14.7024,-54.5177,30,0.6293,8631,4.037,-137.0813
rg,1624655967452261980,1,0.0422,-0.6753,0.4197,254,65.5518,176.1475,-18.6157,88,0.6773,0.4482,17.4999,-53.8178,30,0.6293,9525,4.037,-143.5245
rg,1624655967452279684,1,-0.4749,-0.4182,0.2915,255,69.7632,185.791,-93.811,88,0.6773,0.4462,19.8031,-53.843,30,0.6283,10550,4.037,-152.1891
rg,1624655967452297332,1,-0.8523,-0.3206,0.2307,256,50.354,106.2622,-56.0303,88,0.6803,0.4542,22.1022,-53.6471,30,0.6283,8412,4.037,-157.2716
rg,1624655967819954606,1,0.1609,-1.4482,1.0984,257,-89.1113,-287.1704,27.3438,88,0.6943,0.4682,15.0085,-52.2974,30,0.6423,27215,4.037,-147.3361
rg,1624655967819994994,1,0.8296,-1.2419,0.4607,258,46.4478,-105.5908,73.3643,88,0.6993,0.4702,13.0054,-49.7404,30,0.6473,9040,4.037,-142.2456
rg,1624655967820016327,1,0.8657,-1.0393,0.5291,259,62.9883,-6.0425,66.2231,88,0.7133,0.4722,14.1634,-47.4627,30,0.6533,7860,4.037,-143.4246
rg,1624655967820037272,1,0.5049,-0.8135,0.4224,260,77.5757,100.5249,7.8125,88,0.7284,0.4792,15.6057,-45.622,30,0.6583,7978,4.037,-146.3889
rg,1624655967820056586,1,-0.0586,-0.7371,0.3704,261,67.9932,178.4058,-14.9536,88,0.7394,0.4842,19.7204,-45.3783,30,0.6613,7900,4.037,-152.3701
rg,1624655967820075438,1,-0.6101,-0.8118,0.616,262,50.0488,189.27,-1.5869,88,0.7484,0.4852,25.3706,-45.9142,30,0.6623,10110,4.037,-158.3756
rg,1624655967820094085,1,-0.7429,-0.7444,0.4238,263,48.8892,113.8916,1.2207,88,0.7514,0.4872,26.3789,-45.1045,30,0.6643,8416,4.037,-158.9495
rg,1624655967820112067,1,-0.2605,-0.6907,0.6833,264,-79.1626,-174.1943,15.5029,88,0.7234,0.4972,21.5198,-45.8573,30,0.6523,12530,4.037,-153.0286
rg,1624655967820155196,1,0.3193,-1.0176,0.7344,265,-144.4702,-256.8359,12.207,88,0.6923,0.4992,13.7033,-49.4288,30,0.6413,7997,4.037,-144.8214
rg,1624655967820175603,1,0.4924,-1.2483,0.6042,266,-116.8213,-231.6284,14.8926,88,0.6783,0.4972,7.1908,-53.2193,30,0.6353,8092,4.037,-137.1959
rg,1624655967820194306,1,0.8569,-1.4868,0.6477,267,-16.4185,-102.0508,52.3071,88,0.6783,0.4842,5.159,-53.8244,30,0.6393,8034,4.037,-132.6978
rg,1624655967820212843,1,0.6965,-1.2874,0.4717,268,49.4385,75.6226,86.4258,88,0.6763,0.4742,8.5233,-52.4483,30,0.6383,8147,4.037,-133.1269
rg,1624655967820230935,1,0.6523,-1.1042,0.5374,269,67.0166,94.6045,81.7871,88,0.6753,0.4602,11.588,-49.8199,30,0.6383,8949,4.037,-135.6752
rg,1624655967820248805,1,0.2183,-0.6804,0.3254,270,104.7974,123.3521,0.9155,88,0.6753,0.4482,13.8269,-47.026,30,0.6363,8768,4.037,-139.5802
rg,1624655967820275027,1,-0.1331,-0.1992,0.1511,271,113.4033,127.7466,-63.5986,88,0.6773,0.4482,17.2119,-43.5855,30,0.6353,10993,4.037,-145.5163
rg,1624655967820294638,1,-0.4111,0.061,0.155,272,92.8955,152.0996,-55.8472,88,0.6773,0.4552,22.0706,-41.0937,30,0.6343,8030,4.037,-151.3219
rg,1624655967820313675,1,-0.5974,-0.1279,0.2822,273,-45.166,108.3984,16.6016,88,0.6803,0.4612,27.1818,-43.684,30,0.6363,8264,4.037,-153.9129
rg,1624655967820331693,1,-0.6643,-1.1843,1.3682,274,-131.5918,34.6069,25.6958,88,0.6833,0.4652,25.2534,-49.428,30,0.6393,8118,4.037,-150.8211
rg,1624655967820349878,1,-0.4587,-1.6716,1.3918,275,-156.189,-180.1147,4.9438,88,0.6873,0.4672,20.4221,-53.253,30,0.6443,8345,4.037,-144.5765
rg,1624655967820367674,1,0.1553,-1.5583,0.6479,276,-16.2354,-208.6182,19.7144,88,0.6923,0.4702,15.0707,-52.1901,30,0.6483,8185,4.037,-137.3173
rg,1624655967820385248,1,0.522,-1.0952,0.7969,277,35.2173,-99.6704,50.293,88,0.7003,0.4712,12.7958,-49.7596,30,0.6543,8323,4.037,-132.8686
rg,1624655967820421506,1,0.5498,-0.9495,0.7322,278,52.3071,-54.9927,39.4287,88,0.7103,0.4722,11.1472,-47.1937,30,0.6573,8311,4.037,-130.1707
rg,1624655967820443284,1,0.3967,-0.9587,0.4912,279,54.8706,-9.0942,4.9438,88,0.7274,0.4802,9.8741,-45.5098,30,0.6633,8386,4.037,-129.8967
rg,1624655967820461543,1,0.1472,-0.9229,0.3584,280,59.2651,26.3062,-0.9155,88,0.7394,0.4882,9.9077,-44.171,30,0.6673,8200,4.037,-130.8417
rg,1624655967820479117,1,-0.0266,-0.8503,0.3687,281,66.1621,49.9268,0.4883,88,0.7464,0.4902,11.8087,-42.4853,30,0.6703,8351,4.037,-132.4214
rg,1624655967820496857,1,-0.2659,-0.7012,0.5388,282,51.3306,37.6587,9.7656,88,0.7484,0.4932,13.3859,-40.9718,30,0.6733,8275,4.037,-133.2277
rg,1624655967820514209,1,-0.0935,-0.5332,0.5906,283,-40.1001,-74.9512,17.6392,88,0.7314,0.5022,11.354,-42.053,30,0.6633,8338,4.037,-130.6549
rg,1624655967820532894,1,0.1584,-0.7822,0.6248,284,-138.3057,-129.2725,6.7749,88,0.6973,0.5052,7.1089,-47.3002,30,0.6453,8441,4.037,-126.8129
rg,1624655967820551208,1,0.2749,-1.0076,0.6533,285,-147.7051,-139.2822,15.625,88,0.6873,0.5052,3.2785,-53.1276,30,0.6393,8316,4.037,-122.1245
rg,1624655967820568726,1,0.7109,-1.4722,0.9919,286,-50.4761,-81.0547,52.5513,88,0.6833,0.4952,2.1268,-55.0503,30,0.6413,8536,4.037,-118.2548
rg,1624655967820587578,1,0.8303,-1.3914,0.4475,287,19.104,6.958,89.0503,88,0.6823,0.4892,4.0055,-54.7625,30,0.6423,8420,4.037,-116.4688
rg,1624655967820605485,1,0.447,-0.9602,0.4143,288,66.4673,151.4893,34.9731,88,0.6803,0.4782,7.6467,-52.9487,30,0.6393,9315,4.037,-120.6156
rg,1624655968173159717,1,-0.6335,-0.0737,0.1208,289,96.2524,214.4775,-60.8521,88,0.6823,0.4822,13.3936,-51.329,30,0.6353,24547,4.037,-127.2847
rg,1624655968173228494,1,-0.8066,-0.9431,0.9824,290,-138.1226,-47.3633,23.2544,88,0.6883,0.4892,13.7021,-56.0648,30,0.6393,15317,4.037,-125.1122
rg,1624655968173250179,1,-0.5884,-1.4917,1.4138,291,-143.8599,-166.5649,19.5923,88,0.6933,0.4912,10.9746,-60.0986,30,0.6433,7775,4.037,-118.816
rg,1624655968173270160,1,0.1135,-1.5339,0.6692,292,-35.8276,-243.6523,27.1606,88,0.6963,0.4922,6.5405,-60.3857,30,0.6463,8032,4.037,-109.7701
rg,1624655968173336492,1,0.5312,-1.1863,0.6433,293,1.0986,-192.3828,46.814,88,0.7003,0.4922,5.2383,-58.6252,30,0.6493,7821,4.037,-104.2791
rg,1624655968173360121,1,0.5859,-0.9832,0.593,294,52.8564,-55.7251,57.1899,88,0.7153,0.4942,4.7609,-56.2437,30,0.6563,8184,4.037,-101.1894
rg,1624655968173381066,1,0.3684,-0.895,0.47,295,67.0166,3.479,5.7373,88,0.7314,0.5012,4.0763,-53.7833,30,0.6613,9556,4.037,-101.2138
rg,1624655968173403584,1,-0.0232,-0.8291,0.3843,296,63.5986,49.4995,-12.8174,88,0.7424,0.5082,4.7558,-51.8275,30,0.6653,7993,4.037,-103.1415
rg,1624655968173423602,1,-0.2161,-0.793,0.3958,297,60.791,71.5332,-3.2959,88,0.7484,0.5092,7.3201,-49.9111,30,0.6663,7908,4.037,-105.1401
rg,1624655968173444120,1,-0.447,-0.7112,0.5388,298,50.415,32.3486,11.5356,88,0.7524,0.5072,9.2589,-48.0897,30,0.6693,8064,4.037,-105.8221
rg,1624655968173464805,1,-0.2686,-0.5188,0.4448,299,-22.7661,-107.4219,13.9771,88,0.7414,0.5123,7.3132,-48.5136,30,0.6693,7896,4.037,-102.206
rg,1624655968173483471,1,0.0259,-0.5151,0.563,300,-91.1255,-168.7012,18.0054,88,0.7063,0.5143,1.8323,-53.8319,30,0.6533,8075,4.037,-95.4735
rg,1624655968173536508,1,0.4089,-0.8489,0.6714,301,-168.0908,-195.4956,6.897,88,0.6823,0.5133,-3.0029,-60.5153,30,0.6393,7958,4.037,-88.7154
rg,1624655968173560063,1,0.8298,-1.4048,0.6838,302,-84.8389,-131.1035,45.4712,88,0.6803,0.4992,-4.7542,-64.3784,30,0.6423,8116,4.037,-83.1812
rg,1624655968173582525,1,0.9866,-1.4866,0.7551,303,-33.6304,-41.5039,66.2842,88,0.6773,0.4882,-2.3218,-64.7476,30,0.6423,8005,4.037,-83.3123
rg,1624655968173604192,1,0.8318,-1.3147,0.5315,304,19.9585,95.2759,75.7446,88,0.6763,0.4752,0.9679,-64.0238,30,0.6393,8289,4.037,-85.4574
rg,1624655968173623488,1,0.3203,-0.9976,0.4502,305,55.603,231.8726,33.9355,88,0.6763,0.4662,5.6475,-62.3058,30,0.6383,8095,4.037,-93.1434
rg,1624655968173643265,1,-0.2708,-0.5378,0.2944,306,58.3496,264.8315,-8.5449,88,0.6763,0.4632,9.7187,-60.6722,30,0.6363,8079,4.037,-104.1991
rg,1624655968173664709,1,-0.6035,-0.4275,0.2395,307,102.1118,291.0767,-90.4541,88,0.6763,0.4642,13.8855,-59.0747,30,0.6343,8263,4.037,-116.2666
rg,1624655968173684913,1,-1.0593,-0.2791,0.2073,308,85.8154,167.4194,-43.396,88,0.6793,0.4742,17.8262,-57.4232,30,0.6343,9321,4.037,-123.0768
rg,1624655968173705616,1,-1.0049,-0.3989,0.3958,309,-26.4893,-53.894,20.874,88,0.6823,0.4792,18.9291,-57.4644,30,0.6383,10111,4.037,-120.6045
rg,1624655968173725671,1,-0.4856,-1.0164,0.7852,310,-112.3657,-291.0156,34.3018,88,0.6863,0.4822,14.0597,-58.6126,30,0.6443,11508,4.037,-109.5089
rg,1624655968173754078,1,0.3564,-1.3989,0.8804,311,-60.3638,-374.5117,23.8037,88,0.6883,0.4822,6.1352,-58.6267,30,0.6493,8411,4.037,-96.0824
rg,1624655968173775782,1,0.7268,-1.2795,0.4204,312,38.9404,-199.646,59.8755,88,0.6923,0.4822,2.6444,-56.8789,30,0.6533,8187,4.037,-88.1086
rg,1624655968173795133,1,0.7791,-0.9143,0.5569,313,58.2886,-109.6802,59.5703,88,0.7003,0.4822,1.6694,-54.3439,30,0.6593,8396,4.037,-86.1653
rg,1624655968173815059,1,0.6584,-0.8564,0.6072,314,59.9976,17.4561,7.6294,88,0.7153,0.4862,1.0685,-51.9593,30,0.6643,8197,4.037,-86.5727
rg,1624655968173835744,1,0.3599,-0.8591,0.4055,315,45.0439,74.7681,-14.0991,88,0.7324,0.4932,1.6429,-50.6842,30,0.6663,8683,4.037,-89.284
rg,1624655968173854410,1,-0.0811,-0.8633,0.4209,316,35.2783,159.4849,-6.1646,88,0.7424,0.4972,5.6188,-50.1085,30,0.6693,8855,4.037,-94.384
rg,1624655968173872947,1,-0.4495,-0.8247,0.6062,317,39.856,166.3818,4.5776,88,0.7494,0.4962,10.1221,-48.7759,30,0.6713,8499,4.037,-98.2168
rg,1624655968173890650,1,-0.561,-0.7749,0.5674,318,52.7954,73.3032,8.9111,88,0.7524,0.4962,13.1174,-47.2305,30,0.6723,8309,4.037,-100.2192
rg,1624655968173909391,1,-0.3564,-0.574,0.4922,319,-18.6157,-81.0547,16.8457,88,0.7364,0.5042,11.9018,-47.4105,30,0.6683,8494,4.037,-97.3209
rg,1624655968173929594,1,0.0847,-0.7222,0.7241,320,-139.8315,-170.2881,13.4888,88,0.7013,0.5082,7.2914,-51.9407,30,0.6533,8359,4.037,-91.6569
rg,1624655968536965986,1,0.8174,-1.5,0.4878,321,-38.9404,-96.2524,62.0728,88,0.6733,0.4782,8.2912,-52.1924,30,0.6433,26789,4.037,-90.5903
rg,1624655968537032448,1,0.6479,-1.2393,0.4739,322,42.4805,126.2817,66.8945,88,0.6733,0.4602,12.4336,-51.5007,30,0.6433,8771,4.037,-93.0537
rg,1624655968537053633,1,0.1204,-0.9155,0.4592,323,75.6226,209.5947,-10.1929,88,0.6733,0.4532,16.6075,-50.7145,30,0.6433,7860,4.037,-100.1679
rg,1624655968537075373,1,-0.4219,-0.4722,0.2471,324,119.751,215.9424,-85.8765,88,0.6743,0.4532,20.3462,-49.2595,30,0.6413,7949,4.037,-109.5459
rg,1624655968537094391,1,-0.6045,-0.3206,0.1792,325,135.1318,197.0215,-87.4023,88,0.6753,0.4582,24.7596,-47.3079,30,0.6403,8093,4.037,-118.3931
rg,1624655968537113910,1,-0.7188,-0.0347,0.0806,326,103.3325,96.5576,-26.9165,88,0.6773,0.4652,27.6436,-45.9248,30,0.6413,8661,4.037,-119.4003
rg,1624655968537132576,1,-0.7021,-0.1699,0.2517,327,-45.7153,-37.6587,10.8032,88,0.6793,0.4702,28.3538,-46.7946,30,0.6433,8699,4.037,-117.7312
rg,1624655968537152002,1,-0.4817,-1.0332,1.0994,328,-172.6074,-223.6328,18.1885,88,0.6853,0.4742,22.6048,-50.1012,30,0.6473,7979,4.037,-109.7029
rg,1624655968537195353,1,0.2061,-1.6716,0.8223,329,-165.7715,-295.9595,18.3105,88,0.6893,0.4772,14.2581,-50.6365,30,0.6533,7980,4.037,-99.5669
rg,1624655968537217815,1,0.4194,-1.6558,0.5186,330,0.7324,-260.6812,28.9917,86,0.6933,0.4772,7.4941,-49.7495,30,0.6573,8022,4.0381,-90.8875
rg,1624655968537248408,1,0.7495,-1.238,0.6516,331,86.1816,-86.853,56.8237,86,0.7053,0.4802,5.5541,-46.2607,30,0.6593,8003,4.0381,-86.8596
rg,1624655968537268278,1,0.6011,-0.9124,0.5164,332,127.0142,7.6904,24.7803,86,0.7324,0.4902,5.0254,-42.0088,30,0.6673,13298,4.0381,-87.3082
rg,1624655968537287129,1,0.2603,-0.6155,0.2188,333,110.8398,53.0396,-7.5073,86,0.7424,0.4952,5.4411,-38.738,30,0.6693,8094,4.0381,-89.0397
rg,1624655968537305296,1,-0.1475,-0.4971,0.4546,334,63.5986,149.6582,7.2632,86,0.7504,0.4952,10.5904,-37.0193,30,0.6713,8134,4.0381,-92.5525
rg,1624655968537324129,1,-0.5518,-0.5647,0.6406,335,10.3149,103.8818,27.2217,86,0.7534,0.4952,15.3999,-37.1263,30,0.6743,8838,4.0381,-94.264
rg,1624655968537343332,1,-0.5593,-0.5635,0.5674,336,-24.1089,9.0332,26.4893,86,0.7384,0.5022,17.0902,-38.1593,30,0.6663,8032,4.0381,-93.6946
rg,1624655968537361276,1,-0.0781,-0.71,0.7322,337,-166.748,-189.8804,11.9019,86,0.6963,0.5072,11.2104,-43.6947,30,0.6493,9885,4.0381,-88.2445
rg,1624655968537380054,1,0.3638,-1.085,0.6848,338,-195.7397,-237.1216,17.8223,86,0.6763,0.5072,4.3455,-51.0017,30,0.6383,8132,4.0381,-80.7851
rg,1624655968537399239,1,0.9509,-1.5156,0.575,339,-69.2139,-159.79,66.2231,86,0.6743,0.4932,1.2912,-54.0233,30,0.6403,8266,4.0381,-74.1164
rg,1624655968537418609,1,1.0559,-1.5195,0.717,340,-23.8037,-52.9175,70.1294,86,0.6703,0.4832,1.1095,-55.2466,30,0.6393,8237,4.0381,-70.7678
rg,1624655968537436460,1,0.7832,-1.2356,0.5051,341,23.1934,92.2241,69.458,86,0.6693,0.4692,4.2961,-54.8032,30,0.6393,8401,4.0381,-72.2272
rg,1624655968537457812,1,0.2791,-1.0046,0.4133,342,44.7998,195.1294,14.5264,86,0.6713,0.4582,8.5423,-54.1753,30,0.6383,8166,4.0381,-78.3272
rg,1624655968537476589,1,-0.2576,-0.5874,0.1968,343,51.8188,212.3413,-22.7661,86,0.6703,0.4562,12.1576,-53.315,30,0.6353,8568,4.0381,-86.8345
rg,1624655968537495107,1,-0.4678,-0.4294,0.1721,344,101.1963,207.3975,-76.2329,86,0.6723,0.4622,16.4599,-51.5458,30,0.6363,9242,4.0381,-95.5158
rg,1624655968537515033,1,-0.7151,-0.2153,0.2241,345,84.2896,151.9165,-19.7754,86,0.6753,0.4702,21.0357,-50.813,30,0.6363,10452,4.0381,-98.2313
rg,1624655968537532774,1,-0.7512,-0.4451,0.4783,346,-33.5693,25.7568,32.7148,86,0.6763,0.4742,23.7584,-51.9198,30,0.6383,8228,4.0381,-98.148
rg,1624655968537550847,1,-0.4856,-1.1523,0.9895,347,-101.2573,-160.5225,23.4985,86,0.6813,0.4782,20.4081,-53.536,30,0.6403,8424,4.0381,-91.9666
rg,1624655968537571569,1,0.05,-1.3633,0.7136,348,-35.7666,-219.6045,24.9023,86,0.6853,0.4802,15.1328,-52.8744,30,0.6473,8341,4.0381,-84.0895
rg,1624655968537590921,1,0.2617,-1.3081,0.6284,349,5.4321,-177.9175,44.8608,86,0.6893,0.4812,11.2544,-51.5232,30,0.6523,8501,4.0381,-77.3174
rg,1624655968537615550,1,0.5027,-1.0425,0.6572,350,54.3213,-68.1763,51.5747,86,0.6953,0.4822,9.8562,-48.9438,30,0.6573,8379,4.0381,-73.9194
rg,1624655968537635809,1,0.4592,-0.938,0.6614,351,74.8901,-21.6064,7.3242,86,0.7143,0.4852,8.3029,-46.0353,30,0.6633,8544,4.0381,-73.1427
rg,1624655968537654901,1,0.2971,-0.9214,0.3711,352,79.5898,-7.2632,2.3804,86,0.7324,0.4932,8.0428,-43.7721,30,0.6663,8407,4.0381,-73.963
rg,1624655968894663293,1,-0.3601,-0.6597,0.5339,353,77.1484,99.9146,13.1226,86,0.7574,0.4972,11.9086,-41.3571,30,0.6723,25410,4.0381,-76.3433
rg,1624655968894707866,1,-0.3374,-0.4053,0.4749,354,0.7324,-67.627,26.4893,86,0.7414,0.5062,9.1796,-42.9153,30,0.6633,13037,4.0381,-72.1745
rg,1624655968894728644,1,0.1262,-0.6311,0.8252,355,-149.0479,-175.9644,28.3203,86,0.7053,0.5102,4.456,-47.9391,30,0.6443,7808,4.0381,-66.2683
rg,1624655968894752828,1,0.5762,-1.103,0.6184,356,-199.0967,-237.6099,24.231,86,0.6803,0.5072,-1.6647,-56.1348,30,0.6343,7802,4.0381,-58.1701
rg,1624655968894772513,1,0.8252,-1.3652,0.5818,357,-151.001,-198.4253,35.8276,86,0.6723,0.4972,-5.5591,-63.1566,30,0.6283,7988,4.0381,-50.5187
rg,1624655968894790661,1,1.0664,-1.5544,0.9458,358,-35.5225,19.8364,52.7344,86,0.6703,0.4832,-4.2758,-64.4164,30,0.6293,7903,4.0381,-50.3127
rg,1624655968894809420,1,0.4446,-1.3262,0.7241,359,22.0947,169.1895,61.7065,86,0.6693,0.4712,0.4133,-63.2361,30,0.6273,9268,4.0381,-55.3248
rg,1624655968894827642,1,0.0715,-1.1562,0.5767,360,47.6685,189.4531,15.0146,86,0.6703,0.4592,4.2782,-61.5954,30,0.6263,7900,4.0381,-61.7719
rg,1624655968894845660,1,-0.1814,-1.0601,0.4487,361,60.2417,188.5376,-35.2783,86,0.6693,0.4552,7.4596,-60.2208,30,0.6243,8036,4.0381,-69.0893
rg,1624655968894864623,1,-0.6223,-0.6243,0.2209,362,112.1216,168.5181,-91.9189,86,0.6703,0.4582,9.5499,-57.0658,30,0.6233,10030,4.0381,-76.7969
rg,1624655968894883419,1,-0.6733,-0.1858,0.1497,363,143.9819,85.022,-27.832,86,0.6693,0.4622,12.584,-51.8826,30,0.6223,7911,4.0381,-80.1617
rg,1624655968894901456,1,-0.5371,0.0613,0.1765,364,52.002,-21.9727,22.8271,86,0.6743,0.4682,14.7617,-48.7547,30,0.6243,8091,4.0381,-78.6433
rg,1624655968894919659,1,-0.4624,-0.0278,0.2126,365,-26.9775,-85.6934,26.3672,86,0.6763,0.4712,14.3312,-48.919,30,0.6283,7972,4.0381,-75.2396
rg,1624655968894937955,1,-0.2922,-0.6875,0.7283,366,-156.189,-199.707,26.001,86,0.6793,0.4732,10.2534,-53.4306,30,0.6323,8157,4.0381,-68.1592
rg,1624655968894957066,1,0.2725,-1.5696,1.1228,367,-127.3193,-203.9185,37.9639,86,0.6823,0.4732,6.1991,-57.4392,30,0.6383,8093,4.0381,-60.4974
rg,1624655968894974918,1,0.3257,-1.6145,0.5789,368,-43.5791,-165.8936,38.208,86,0.6853,0.4732,4.0735,-57.0332,30,0.6453,8266,4.0381,-55.5977
rg,1624655968894992658,1,0.5256,-1.3096,0.6526,369,34.5459,-64.9414,33.0811,86,0.6893,0.4722,2.8299,-55.7098,30,0.6513,8102,4.0381,-52.7264
rg,1624655968895010436,1,0.3723,-0.8955,0.7273,370,58.8379,7.9346,5.4932,86,0.7023,0.4722,2.3889,-53.1754,30,0.6583,8346,4.0381,-52.8685
rg,1624655968895028009,1,0.2847,-0.9548,0.5393,371,63.9648,15.564,1.6479,86,0.7204,0.4752,2.4558,-51.272,30,0.6633,8065,4.0381,-53.4891
rg,1624655968895045250,1,0.1511,-0.9551,0.4341,372,51.8188,42.2974,4.9438,86,0.7354,0.4782,3.2593,-49.8077,30,0.6633,8243,4.0381,-54.7041
rg,1624655968895062657,1,-0.1616,-0.8267,0.4062,373,71.5332,80.8105,12.0239,86,0.7454,0.4822,6.0061,-47.6566,30,0.6643,8120,4.0381,-56.8533
rg,1624655968895079953,1,-0.4143,-0.6155,0.457,374,74.9512,56.3354,24.1089,86,0.7494,0.4812,9.112,-44.9826,30,0.6683,8424,4.0381,-57.828
rg,1624655968895097471,1,-0.4419,-0.5056,0.3967,375,54.0161,2.1362,27.71,86,0.7494,0.4822,10.9143,-42.912,30,0.6673,8126,4.0381,-57.0946
rg,1624655968895134952,1,-0.1299,-0.3765,0.6636,376,-60.9741,-121.7651,26.7944,86,0.7224,0.4912,8.1011,-44.1182,30,0.6583,8333,4.0381,-52.8006
rg,1624655968895154989,1,0.3145,-0.7888,0.7219,377,-197.6929,-219.6655,15.2588,86,0.6933,0.4902,1.7699,-51.5295,30,0.6443,8195,4.0381,-45.8346
rg,1624655968895172285,1,0.6663,-1.3228,0.5181,378,-196.7163,-219.2993,21.6064,86,0.6763,0.4882,-2.0886,-58.1685,30,0.6323,8976,4.0381,-38.9819
rg,1624655968895189674,1,0.8765,-1.4973,0.5171,379,-85.7544,-113.3423,54.2603,86,0.6743,0.4762,-3.4679,-62.256,30,0.6333,8236,4.0381,-33.9185
rg,1624655968895207488,1,0.739,-1.3247,0.5308,380,-5.188,93.75,56.0913,86,0.6723,0.4642,-0.6823,-62.5762,30,0.6313,8423,4.0381,-36.2033
rg,1624655968895224673,1,0.3088,-1.1292,0.6123,381,15.3198,177.002,57.6172,86,0.6713,0.4562,4.1068,-62.0673,30,0.6293,9275,4.0381,-41.4172
rg,1624655968895242154,1,-0.1533,-1.1921,0.5056,382,28.0151,221.9849,28.3203,86,0.6723,0.4562,9.3341,-61.9995,30,0.6293,9789,4.0381,-48.7894
rg,1624655968895259987,1,-0.5083,-0.9226,0.1934,383,41.1987,206.2988,-11.3525,86,0.6723,0.4582,11.0585,-60.9888,30,0.6273,8473,4.0381,-56.1566
rg,1624655968895277857,1,-0.6396,-0.6445,0.1084,384,101.3184,109.7412,-89.9658,86,0.6733,0.4602,11.4092,-58.5924,30,0.6273,8318,4.0381,-61.9349
rg,1624655969258160412,1,-0.3926,-0.228,0.3081,385,-29.7852,-107.7881,38.4521,86,0.6823,0.4742,10.7575,-58.2584,30,0.6373,25262,4.0381,-57.2404
rg,1624655969258240337,1,0.3162,-1.4246,1.1404,386,-102.8442,-212.4634,37.4146,86,0.6873,0.4762,6.9809,-60.8201,30,0.6423,8782,4.0381,-49.0021
rg,1624655969258262077,1,0.5574,-1.6013,0.6162,387,-33.1421,-171.1426,40.1001,86,0.6913,0.4772,5.682,-59.5943,30,0.6483,7877,4.0381,-44.1432
rg,1624655969258286206,1,0.6519,-1.4336,0.7356,388,64.5752,-37.1704,54.3213,86,0.7023,0.4792,5.6944,-56.8868,30,0.6543,7963,4.0381,-41.7664
rg,1624655969258306817,1,0.541,-1.1182,0.6814,389,125.1831,53.0396,24.5361,86,0.7234,0.4842,6.6436,-52.0756,30,0.6593,9251,4.0381,-42.9881
rg,1624655969258326872,1,0.1577,-0.7805,0.2778,390,138.3057,96.3135,-2.5635,86,0.7374,0.4902,8.3668,-47.6553,30,0.6603,9178,4.0381,-46.1372
rg,1624655969258348965,1,-0.2881,-0.4741,0.3953,391,120.1782,168.5791,-0.1831,86,0.7454,0.4912,13.6786,-43.8859,30,0.6633,8520,4.0381,-51.0534
rg,1624655969258368761,1,-0.5195,-0.4067,0.5698,392,102.9663,164.0625,6.4697,86,0.7504,0.4902,19.5512,-40.7472,30,0.6643,8111,4.0381,-55.3713
rg,1624655969258389094,1,-0.6724,-0.3152,0.4084,393,7.4463,-3.9673,7.3242,86,0.7334,0.4952,20.8493,-40.2363,30,0.6583,7869,4.0381,-54.9862
rg,1624655969258407964,1,-0.2971,-0.4841,0.5137,394,-183.2886,-220.7642,-13.0615,86,0.7003,0.5022,14.1761,-45.879,30,0.6423,8052,4.0381,-49.115
rg,1624655969258430648,1,0.0098,-0.7502,0.9053,395,-236.8774,-296.4478,-15.9302,86,0.6793,0.5042,5.5466,-53.5673,30,0.6283,7921,4.0381,-40.2999
rg,1624655969258450870,1,0.8,-1.522,0.7227,396,-163.8794,-291.2598,52.2461,86,0.6723,0.5012,-0.2038,-59.9734,30,0.6233,8111,4.0381,-29.4274
rg,1624655969258470092,1,1.3762,-1.8254,0.5596,397,-21.9116,-75.5615,88.3179,86,0.6703,0.4922,0.0746,-61.2322,30,0.6263,7975,4.0381,-25.0537
rg,1624655969258492036,1,1.1453,-1.5901,0.3479,398,32.0435,68.8477,72.876,86,0.6673,0.4842,2.6373,-60.4916,30,0.6233,8010,4.0381,-26.0643
rg,1624655969258513629,1,0.6223,-0.9055,0.5024,399,82.1533,216.0034,29.7852,86,0.6663,0.4652,6.405,-57.7565,30,0.6193,10081,4.0381,-35.0384
rg,1624655969258605238,1,-0.3701,-0.3711,0.2173,400,83.9233,305.3589,-100.708,86,0.6663,0.4642,10.9033,-56.3595,30,0.6173,8173,4.0381,-47.5547
rg,1624655969258628108,1,-0.7383,-0.3782,0.1692,401,92.4072,312.6831,-104.3091,86,0.6673,0.4692,16.4414,-55.5185,30,0.6163,8081,4.0381,-57.9714
rg,1624655969258693348,1,-1.0637,-0.3071,0.2524,402,51.1475,174.4385,-16.2964,86,0.6703,0.4772,21.6331,-55.4984,30,0.6163,8246,4.0381,-64.4175
rg,1624655969258721292,1,-1.0571,-0.5591,0.5847,403,-64.0869,-42.6025,23.9868,86,0.6743,0.4812,22.6621,-56.9466,30,0.6193,8156,4.0381,-62.2075
rg,1624655969258741014,1,-0.5186,-1.1094,0.9155,404,-109.436,-177.9785,28.1982,86,0.6793,0.4852,17.2222,-57.931,30,0.6233,8298,4.0381,-50.9108
rg,1624655969258761014,1,-0.1069,-1.3496,1.0715,405,-112.1826,-349.5483,27.9541,86,0.6843,0.4852,10.3991,-59.0698,30,0.6273,8380,4.0381,-38.0108
rg,1624655969258781162,1,0.5269,-1.5007,0.7527,406,-10.8643,-296.3257,47.0581,86,0.6883,0.4872,4.8151,-58.1639,30,0.6303,8375,4.0381,-26.8876
rg,1624655969258811069,1,0.8577,-1.2666,0.606,407,53.5278,-134.4604,62.8662,86,0.6953,0.4882,2.6707,-55.8275,30,0.6403,8250,4.0381,-21.0473
rg,1624655969258834494,1,0.6729,-1.0054,0.4321,408,79.1016,-65.0024,35.2173,86,0.7113,0.4922,1.0675,-52.2638,30,0.6453,8402,4.0381,-20.5363
rg,1624655969258885179,1,0.4978,-0.8979,0.3142,409,104.3091,13.6108,-16.5405,86,0.7274,0.4972,-0.1856,-48.7358,30,0.6473,8215,4.0381,-21.4247
rg,1624655969258911845,1,0.0999,-0.6421,0.2568,410,94.0552,117.3706,-15.0757,86,0.7374,0.5022,2.2201,-45.7901,30,0.6503,8396,4.0381,-25.2926
rg,1624655969258932400,1,-0.3591,-0.5198,0.5173,411,62.3169,173.3398,10.437,86,0.7424,0.5012,8.3202,-43.6944,30,0.6523,8313,4.0381,-29.8782
rg,1624655969258952326,1,-0.5837,-0.5247,0.571,412,41.3208,133.9722,16.2354,86,0.7394,0.5022,13.9711,-42.7211,30,0.6533,8469,4.0381,-33.1337
rg,1624655969258973788,1,-0.5935,-0.4478,0.4089,413,-55.0537,-48.7671,20.0806,86,0.7083,0.5092,14.2675,-44.5698,30,0.6433,8346,4.0381,-31.1931
rg,1624655969258993677,1,-0.0015,-0.7261,0.7495,414,-192.8711,-238.7695,28.8086,86,0.6823,0.5112,8.1839,-50.6836,30,0.6303,8498,4.0381,-23.1981
rg,1624655969259013991,1,0.7407,-1.2861,0.7415,415,-200.5005,-275.8179,43.335,86,0.6703,0.5062,2.9906,-56.0339,30,0.6203,8386,4.0381,-13.5489
rg,1624655969259034528,1,1.0498,-1.5413,0.4817,416,-81.665,-185.6689,82.8247,86,0.6683,0.4902,0.5307,-59.569,30,0.6223,8634,4.0381,-5.5017
rg,1624655969612068876,1,0.249,-0.9634,0.5129,417,51.9409,237.4878,12.207,86,0.6643,0.4532,5.9304,-58.0245,30,0.6143,27258,4.0381,-13.3781
rg,1624655969612104856,1,-0.6943,-0.6416,0.2917,418,91.1255,262.6343,-109.436,86,0.6653,0.4582,9.7274,-56.1023,30,0.6143,15392,4.0381,-24.6219
rg,1624655969612125708,1,-0.9536,-0.3469,0.1619,419,111.8164,150.2686,-50.7202,86,0.6673,0.4642,13.468,-52.991,30,0.6143,7955,4.0381,-30.7772
rg,1624655969612145152,1,-0.8691,-0.1641,0.2695,420,31.311,-17.4561,18.0054,86,0.6703,0.4692,15.5136,-51.1691,30,0.6163,7898,4.0381,-29.6444
rg,1624655969612163911,1,-0.6064,-0.5759,0.521,421,-98.6328,-222.168,22.8882,86,0.6743,0.4742,11.6926,-53.1617,30,0.6213,9801,4.0381,-21.8325
rg,1624655969612182133,1,-0.3298,-0.949,0.9197,422,-136.5356,-305.3589,29.0527,86,0.6793,0.4762,5.7799,-56.6917,30,0.6253,7891,4.0381,-11.0259
rg,1624655969612199837,1,0.4399,-1.5767,0.9663,423,-68.8477,-318.5425,38.6353,86,0.6853,0.4772,-0.3919,-58.9535,30,0.6313,7827,4.0381,0.5552
rg,1624655969612218188,1,0.8477,-1.5618,0.5981,424,2.6245,-251.709,53.4668,86,0.6903,0.4782,-2.7446,-57.4042,30,0.6383,7883,4.0381,7.7098
rg,1624655969612236058,1,0.8923,-1.3525,0.6228,425,90.5762,-78.8574,54.3213,86,0.7033,0.4802,-3.7799,-54.2587,30,0.6453,7899,4.0381,11.5226
rg,1624655969612253836,1,0.5989,-0.9307,0.3408,426,150.9399,17.395,9.7046,86,0.7244,0.4862,-4.0937,-48.7284,30,0.6473,10184,4.0381,11.1978
rg,1624655969612271039,1,0.1709,-0.4688,0.0952,427,147.2778,101.4404,-9.3994,86,0.7344,0.4922,-2.2072,-43.7311,30,0.6483,8467,4.0381,8.0472
rg,1624655969612288039,1,-0.2847,-0.2473,0.4846,428,78.125,204.5898,16.8457,86,0.7394,0.4942,5.4069,-40.174,30,0.6523,8231,4.0381,3.0929
rg,1624655969612305205,1,-0.5127,-0.2793,0.7112,429,25.0854,181.9458,34.4238,86,0.7324,0.4952,12.9379,-39.1268,30,0.6523,8063,4.0381,-0.4708
rg,1624655969612322316,1,-0.5261,-0.5339,0.4595,430,-113.5864,-54.9927,19.6533,86,0.7023,0.5032,12.729,-43.515,30,0.6433,8023,4.0381,1.5185
rg,1624655969612362408,1,-0.03,-0.8784,0.7549,431,-231.6284,-269.8975,1.0376,86,0.6823,0.5062,5.1208,-51.7255,30,0.6333,8019,4.0381,9.5608
rg,1624655969612382056,1,0.4155,-1.1936,1.0281,432,-206.1157,-283.02,28.1982,86,0.6713,0.5072,-1.0547,-59.4836,30,0.6233,8133,4.0381,19.5534
rg,1624655969612399519,1,0.968,-1.6006,0.3535,433,-50.5981,-158.5693,93.5669,86,0.6703,0.4962,-1.9725,-62.2746,30,0.6243,8120,4.0381,26.9414
rg,1624655969612417741,1,0.8713,-1.2839,0.5024,434,18.1274,72.937,50.2319,86,0.6673,0.4882,0.0102,-61.7198,30,0.6233,8391,4.0381,25.2978
rg,1624655969612435388,1,0.3416,-0.8662,0.5793,435,33.2642,139.2822,35.8887,86,0.6663,0.4772,3.6613,-60.2752,30,0.6213,9378,4.0381,19.2129
rg,1624655969612452981,1,-0.1687,-0.7415,0.3875,436,29.541,212.1582,-2.9297,86,0.6663,0.4662,7.0968,-60.0898,30,0.6203,9856,4.0381,10.6587
rg,1624655969612470258,1,-0.4353,-0.6697,0.3081,437,38.0859,233.5205,-72.0825,86,0.6673,0.4632,10.1171,-60.1855,30,0.6193,8294,4.0381,1.014
rg,1624655969612487277,1,-0.8989,-0.5168,0.2615,438,65.6738,186.5234,-71.167,86,0.6693,0.4692,13.0575,-59.2304,30,0.6173,8110,4.0381,-7.0072
rg,1624655969612504906,1,-0.9939,-0.4043,0.4229,439,18.7988,40.5884,-6.3477,86,0.6703,0.4752,15.3245,-58.5292,30,0.6203,8281,4.0381,-8.4887
rg,1624655969612521961,1,-0.8899,-0.5073,0.5645,440,-33.3252,-56.8848,11.1694,86,0.6733,0.4802,15.8232,-58.8048,30,0.6223,8148,4.0381,-6.1077
rg,1624655969612539257,1,-0.3206,-1.1125,0.8486,441,-90.6372,-267.2729,19.4092,86,0.6803,0.4842,10.9777,-59.8913,30,0.6273,8377,4.0381,3.8051
rg,1624655969612556090,1,0.3979,-1.418,0.8777,442,-32.5928,-320.3125,23.8037,86,0.6843,0.4852,4.4563,-59.5596,30,0.6333,8242,4.0381,15.422
rg,1624655969612573553,1,0.6638,-1.387,0.7097,443,15.625,-259.2773,51.7578,86,0.6903,0.4862,-0.3859,-58.7647,30,0.6413,8423,4.0381,25.3421
rg,1624655969612590553,1,1.0139,-1.2095,0.5547,444,73.7915,-77.0874,71.6553,86,0.7013,0.4902,-0.9861,-56.0523,30,0.6483,8268,4.0392,29.4445
rg,1624655969612617071,1,0.6565,-0.9429,0.2874,445,107.666,59.5093,7.8125,86,0.7174,0.4942,-0.576,-52.2742,30,0.6543,8264,4.0392,27.6595
rg,1624655969612637497,1,0.1833,-0.6289,0.2737,446,113.4644,100.0977,-6.958,86,0.7254,0.5012,2.6753,-48.6,30,0.6583,8258,4.0392,22.563
rg,1624655969612667515,1,-0.0933,-0.5071,0.4167,447,82.8247,217.4683,3.2349,86,0.7244,0.5042,8.8398,-46.0032,30,0.6613,8291,4.0392,16.2314
rg,1624655969612686422,1,-0.5354,-0.468,0.7021,448,-27.2827,157.959,30.0903,86,0.6993,0.5112,14.9248,-47.4572,30,0.6533,8469,4.0392,12.4226
rg,1624655969972422741,1,0.4363,-1.4758,1.0588,449,-86.2427,-212.2803,73.2422,86,0.6733,0.5022,10.4324,-49.2954,30,0.6303,25729,4.0392,20.8558
rg,1624655969972493759,1,1.0271,-1.4402,0.2988,450,56.2134,-31.8604,91.0034,86,0.6713,0.4962,10.7304,-47.3304,30,0.6303,15564,4.0392,24.0837
rg,1624655969972515073,1,0.7737,-1.1392,0.3716,451,80.4443,84.5947,46.3257,86,0.6703,0.4902,12.8607,-45.1745,30,0.6283,7809,4.0392,22.7022
rg,1624655969972534147,1,0.0828,-0.4297,0.3201,452,93.2617,186.6455,-52.3071,86,0.6703,0.4862,15.8735,-43.4996,30,0.6273,8016,4.0392,15.6876
rg,1624655969972552184,1,-0.4041,-0.1499,0.177,453,100.708,230.3467,-86.1816,86,0.6713,0.4902,21.8113,-42.4163,30,0.6263,9688,4.0392,6.4487
rg,1624655969972570350,1,-0.8379,-0.2483,0.198,454,24.292,205.9326,-27.771,86,0.6733,0.4972,28.6449,-44.6461,30,0.6273,8056,4.0392,-0.795
rg,1624655969972589906,1,-1.0059,-0.4753,0.3984,455,-42.2363,138.6108,-1.2817,86,0.6773,0.5002,33.0043,-48.8905,30,0.6293,8672,4.0392,-5.6359
rg,1624655969972607683,1,-0.9558,-1.061,0.8982,456,-116.4551,-104.4922,8.4839,86,0.6793,0.5022,30.6624,-51.4241,30,0.6323,8119,4.0392,-1.6057
rg,1624655969972625572,1,-0.345,-1.2314,0.7153,457,-74.646,-276.9165,10.1318,86,0.6843,0.5032,23.3922,-50.2523,30,0.6373,7902,4.0392,8.1237
rg,1624655969972643127,1,-0.0161,-1.2549,0.7617,458,-43.6401,-291.4429,17.8833,86,0.6893,0.5022,16.1274,-47.9884,30,0.6413,8065,4.0392,17.3727
rg,1624655969972691719,1,0.5029,-1.1624,0.7217,459,14.2822,-220.0317,42.1753,86,0.6933,0.5022,10.0605,-46.0291,30,0.6473,7970,4.0392,25.0226
rg,1624655969972710737,1,0.7319,-1.0698,0.5999,460,55.7251,-119.6899,31.9824,86,0.7043,0.5032,6.1129,-43.685,30,0.6543,8087,4.0392,29.2302
rg,1624655969972728348,1,0.7378,-1.0583,0.4978,461,67.0166,-72.8149,12.3291,86,0.7184,0.5062,3.8476,-41.62,30,0.6553,7946,4.0392,29.7589
rg,1624655969972745607,1,0.564,-0.9832,0.3213,462,75.2563,17.2729,-10.6201,86,0.7294,0.5123,2.8943,-39.6639,30,0.6563,8160,4.0392,28.8939
rg,1624655969972762829,1,0.1521,-0.7275,0.3511,463,75.8667,130.3711,-11.5356,86,0.7384,0.5112,6.1292,-37.8452,30,0.6583,7946,4.0392,25.1972
rg,1624655969972789514,1,-0.0664,-0.6443,0.4932,464,64.9414,160.5225,-1.0986,86,0.7404,0.5082,11.5501,-36.7207,30,0.6603,8164,4.0392,21.69
rg,1624655969972824995,1,-0.4146,-0.5288,0.6138,465,21.1182,105.896,10.3149,86,0.7324,0.5112,15.7826,-36.5497,30,0.6573,8062,4.0392,19.3975
rg,1624655969972842587,1,-0.3713,-0.5168,0.6152,466,-92.9565,-43.7622,5.0659,86,0.7053,0.5173,14.8938,-40.0385,30,0.6453,8196,4.0392,20.646
rg,1624655969972859568,1,-0.0381,-0.8875,0.7161,467,-143.7988,-109.0698,0.7324,86,0.6793,0.5223,10.089,-45.9187,30,0.6303,8028,4.0392,25.5506
rg,1624655969972876309,1,0.6863,-1.3638,0.6265,468,-90.21,-210.5103,77.6367,86,0.6753,0.5173,5.4509,-49.0646,30,0.6303,13272,4.0392,33.827
rg,1624655969972892957,1,1.0283,-1.5403,0.5857,469,-1.2207,-43.457,76.7822,86,0.6713,0.5123,5.278,-49.4485,30,0.6313,8074,4.0392,37.0979
rg,1624655969972910364,1,0.9058,-1.4551,0.552,470,20.0806,38.6353,65.7959,86,0.6713,0.5062,7.1085,-49.1721,30,0.6323,8296,4.0392,37.5773
rg,1624655969972927956,1,0.3667,-1.1731,0.5649,471,48.8281,158.0811,3.9673,86,0.6713,0.4992,10.4892,-48.5118,30,0.6313,8102,4.0392,32.7812
rg,1624655969972944845,1,-0.3608,-0.9998,0.5605,472,75.0122,190.4907,-80.3833,86,0.6713,0.4962,13.4421,-47.6382,30,0.6293,8555,4.0392,24.7181
rg,1624655969972962085,1,-0.8149,-0.626,0.1873,473,133.4839,145.3247,-86.3647,86,0.6713,0.4952,16.3783,-44.6881,30,0.6283,10212,4.0392,17.8071
rg,1624655969972978474,1,-0.6301,-0.052,0.0688,474,177.063,15.9912,-5.7373,86,0.6723,0.4972,18.7625,-37.7311,30,0.6303,8387,4.0392,17.3343
rg,1624655969972994974,1,-0.5344,0.1877,0.1062,475,139.5874,-30.6396,20.0806,86,0.6743,0.5022,20.0974,-30.4082,30,0.6313,8306,4.0392,19.3034
rg,1624655969973011121,1,-0.3098,0.123,0.0928,476,-29.0527,-126.77,51.1475,86,0.6763,0.5062,18.5874,-28.9841,30,0.6343,8333,4.0392,24.2522
rg,1624655969973028492,1,-0.0183,-0.6755,0.8403,477,-217.1021,-226.1353,51.6968,86,0.6813,0.5072,11.4667,-36.2482,30,0.6393,8244,4.0392,30.9936
rg,1624655969973045362,1,0.4895,-1.8926,1.1526,478,-168.335,-170.7153,39.0625,86,0.6843,0.5082,6.3378,-42.9196,30,0.6453,8546,4.0392,36.4854
rg,1624655969973061898,1,0.4189,-1.9854,0.4268,479,-54.8096,-132.2021,29.3579,86,0.6873,0.5092,2.7456,-46.0046,30,0.6513,8301,4.0392,40.9174
rg,1624655969973078917,1,0.5662,-1.4631,0.7869,480,69.8853,-6.6528,19.2261,86,0.6943,0.5082,2.2701,-43.7581,30,0.6583,8511,4.0392,41.6037
rg,1624655970332545335,1,-0.0291,-0.6572,0.2913,481,85.7544,76.2329,4.1504,86,0.7374,0.5123,4.6246,-41.308,30,0.6673,26711,4.0392,39.6229
rg,1624655970332579871,1,-0.4353,-0.4861,0.449,482,50.2319,65.979,18.7378,86,0.7424,0.5052,8.1952,-39.6197,30,0.6693,15835,4.0392,38.4717
rg,1624655970332610593,1,-0.3359,-0.459,0.5322,483,18.6157,14.2822,28.3203,86,0.7334,0.5082,8.0496,-40.8005,30,0.6663,7777,4.0392,41.0753
rg,1624655970332630889,1,-0.1028,-0.585,0.6729,484,-111.3281,-129.2725,34.1187,86,0.7043,0.5133,5.1424,-44.7163,30,0.6533,7981,4.0392,45.6199
rg,1624655970332650222,1,0.3599,-0.9727,0.7349,485,-189.8193,-208.4351,23.8647,86,0.6833,0.5123,-0.4488,-52.311,30,0.6423,7774,4.0392,52.5086
rg,1624655970332669351,1,0.5552,-1.1919,0.6338,486,-162.5977,-197.3877,40.4053,86,0.6723,0.5102,-3.0174,-57.3821,30,0.6333,7942,4.0392,59.3447
rg,1624655970332687240,1,1.022,-1.4519,0.4407,487,-54.1382,-89.5996,85.144,86,0.6713,0.4972,-3.1479,-60.0393,30,0.6353,9644,4.0392,64.2136
rg,1624655970332705795,1,0.783,-1.3286,0.5024,488,-2.0752,121.2158,55.3589,86,0.6693,0.4902,0.1738,-60.3496,30,0.6313,8079,4.0392,61.1121
rg,1624655970332723295,1,-0.0049,-1.123,0.6135,489,30.2734,196.228,19.7754,86,0.6693,0.4772,3.9433,-58.8841,30,0.6283,12656,4.0392,53.8569
rg,1624655970332741220,1,-0.2827,-1.0024,0.4463,490,52.063,197.876,-49.3164,86,0.6693,0.4772,6.0123,-56.8715,30,0.6263,7916,4.0392,45.7229
rg,1624655970332758794,1,-0.7424,-0.6418,0.2678,491,109.2529,165.8936,-89.2944,86,0.6683,0.4782,8.3161,-53.7237,30,0.6253,8140,4.0392,38.2057
rg,1624655970332777146,1,-0.7422,-0.2197,0.1733,492,128.0518,71.167,-5.4321,86,0.6703,0.4832,11.888,-48.9818,30,0.6253,7924,4.0392,35.9027
rg,1624655970332795849,1,-0.6038,-0.0708,0.2249,493,83.8013,10.9253,34.668,86,0.6723,0.4882,13.3294,-47.1531,30,0.6263,8098,4.0392,39.2337
rg,1624655970332813886,1,-0.364,-0.3882,0.4785,494,-69.6411,-135.0098,45.3491,86,0.6753,0.4912,11.7443,-48.4779,30,0.6283,8405,4.0392,44.6441
rg,1624655970332831608,1,0.2197,-1.1768,1.2205,495,-139.2212,-222.5342,46.6919,86,0.6803,0.4912,6.8265,-52.5298,30,0.6333,8603,4.0392,52.8533
rg,1624655970332848923,1,0.5063,-1.5647,0.5667,496,-17.7002,-117.1265,63.0493,86,0.6843,0.4902,5.1249,-53.3228,30,0.6383,8035,4.0392,58.0646
rg,1624655970332866274,1,0.5857,-1.4736,0.5347,497,34.729,-48.645,60.3638,86,0.6883,0.4862,4.9043,-52.2775,30,0.6413,8189,4.0392,61.0172
rg,1624655970332883126,1,0.4163,-0.9919,0.7571,498,70.9229,44.7998,18.0664,86,0.6943,0.4852,5.6869,-49.5388,30,0.6483,8009,4.0392,60.0495
rg,1624655970332899792,1,0.1021,-0.7686,0.5908,499,83.8623,61.8896,-2.9907,86,0.7043,0.4862,6.7828,-46.5078,30,0.6533,8192,4.0392,58.0908
rg,1624655970332916736,1,-0.0122,-0.7695,0.4863,500,73.4253,65.6738,4.2725,86,0.7204,0.4912,8.5047,-44.2483,30,0.6543,8038,4.0392,56.2643
rg,1624655970332933532,1,-0.1389,-0.842,0.5103,501,63.5986,62.0117,29.2969,86,0.7284,0.4922,11.0923,-42.4195,30,0.6543,8241,4.0392,55.312
rg,1624655970332962476,1,-0.3096,-0.7505,0.5,502,66.8335,42.3584,27.71,86,0.7384,0.4932,13.409,-40.3326,30,0.6563,8038,4.0392,54.9186
rg,1624655970332981050,1,-0.3701,-0.6562,0.4822,503,59.7534,9.4604,24.4141,86,0.7434,0.4912,14.8374,-38.145,30,0.6573,8218,4.0392,55.3842
rg,1624655970332997865,1,-0.2839,-0.4648,0.4829,504,15.5029,-68.1152,34.729,86,0.7404,0.4922,13.8562,-37.0257,30,0.6573,8324,4.0392,58.1891
rg,1624655970333014679,1,0.1406,-0.6152,0.7292,505,-98.3276,-137.6953,39.856,86,0.7153,0.4992,9.7082,-40.0826,30,0.6543,8303,4.0392,62.9624
rg,1624655970333031698,1,0.4768,-0.9949,0.6538,506,-151.6724,-170.2271,31.25,86,0.6913,0.5022,4.1251,-46.8376,30,0.6443,8199,4.0392,68.2732
rg,1624655970333048401,1,0.5684,-1.158,0.5195,507,-157.6538,-149.1089,20.813,86,0.6783,0.5022,-0.088,-53.6037,30,0.6313,8340,4.0392,73.3968
rg,1624655970333064771,1,0.7888,-1.2224,0.4463,508,-74.3408,-23.6206,41.8701,86,0.6733,0.4972,-0.4182,-57.1075,30,0.6273,8241,4.0392,75.1569
rg,1624655970333082086,1,0.4124,-1.187,0.7629,509,-37.2314,187.561,33.3252,86,0.6693,0.4872,4.0374,-58.7677,30,0.6253,8661,4.0392,69.5055
rg,1624655970333099030,1,-0.1106,-1.2981,0.741,510,-4.7607,172.7905,20.9351,86,0.6693,0.4822,8.2717,-59.5987,30,0.6253,9755,4.0392,63.9589
rg,1624655970333116178,1,-0.2368,-1.2654,0.5007,511,25.5127,129.5166,-10.9863,86,0.6693,0.4752,10.8522,-59.8103,30,0.6243,8458,4.0392,59.1316
rg,1624655970333133196,1,-0.541,-1.0144,0.3967,512,67.3828,83.4961,-83.0688,86,0.6683,0.4702,10.3229,-58.2797,30,0.6223,8321,4.0392,54.4378
rg,1624655970702754428,1,-0.3923,0.1555,0.0312,513,107.605,-90.0269,38.0859,86,0.6733,0.4782,10.8353,-55.1324,30,0.6233,27156,4.0392,60.7402
rg,1624655970702790983,1,0.043,-0.3552,0.5186,514,-170.9595,-235.7788,60.1807,86,0.6793,0.4832,7.2811,-59.6681,30,0.6293,11997,4.0392,70.246
rg,1624655970702812001,1,0.7004,-1.7156,1.4795,515,-188.0493,-148.0103,60.6689,86,0.6843,0.4852,5.8265,-66.0175,30,0.6353,7815,4.0392,76.7472
rg,1624655970702831668,1,0.501,-1.8936,0.428,516,-81.2378,-83.8623,54.5654,86,0.6893,0.4872,5.6726,-69.1677,30,0.6413,7960,4.0392,80.685
rg,1624655970702850668,1,0.5361,-1.6006,0.7012,517,47.7295,34.3018,33.5693,86,0.6973,0.4872,6.5412,-67.2248,30,0.6503,9404,4.0392,79.8942
rg,1624655970702869038,1,0.1921,-0.8801,0.7971,518,124.2676,110.8398,16.7236,86,0.7093,0.4892,8.4189,-61.9939,30,0.6573,8036,4.0392,76.2
rg,1624655970702911296,1,-0.1445,-0.6587,0.384,519,104.187,102.2949,16.3574,86,0.7234,0.4942,11.0922,-58.2867,30,0.6593,7992,4.0392,72.944
rg,1624655970702930870,1,-0.2288,-0.6692,0.4343,520,70.8618,80.0171,19.9585,86,0.7334,0.4982,13.2603,-56.4865,30,0.6623,7990,4.0392,71.4653
rg,1624655970702949518,1,-0.3518,-0.7019,0.532,521,32.2876,28.5034,17.395,86,0.7384,0.5002,14.8042,-55.1835,30,0.6633,7909,4.0392,70.9319
rg,1624655970702967092,1,-0.2974,-0.7078,0.5503,522,-4.6387,-57.9834,19.3481,86,0.7414,0.5012,14.2512,-54.6288,30,0.6643,8126,4.0392,73.3891
rg,1624655970702984851,1,-0.1587,-0.6731,0.5869,523,-40.4053,-95.5811,22.8271,86,0.7224,0.5052,11.4562,-56.8355,30,0.6623,7930,4.0392,78.2436
rg,1624655970703002628,1,0.1831,-0.8191,0.657,524,-129.5166,-148.3154,4.7607,86,0.6943,0.5082,7.757,-60.893,30,0.6473,8041,4.0392,83.5655
rg,1624655970703020332,1,0.2932,-1.0342,0.5376,525,-141.9678,-151.8555,-1.4038,86,0.6823,0.5092,4.1775,-66.0416,30,0.6343,7970,4.0392,89.0282
rg,1624655970703037276,1,0.6611,-1.2092,0.4746,526,-52.063,-93.0786,47.9126,86,0.6763,0.5042,3.3211,-67.9181,30,0.6283,9509,4.0392,93.2199
rg,1624655970703054609,1,0.6135,-1.2603,0.5386,527,-13.9771,57.4951,47.6685,86,0.6733,0.4912,4.8846,-68.5279,30,0.6283,9999,4.0392,91.7851
rg,1624655970703074331,1,0.5227,-1.252,0.6108,528,-0.1221,84.7168,49.5605,86,0.6723,0.4862,7.1729,-68.6536,30,0.6273,8177,4.0392,89.3414
rg,1624655970703091942,1,0.1899,-1.1838,0.5029,529,30.7617,137.2681,19.043,86,0.6703,0.4802,9.2711,-68.0431,30,0.6253,8052,4.0392,84.4688
rg,1624655970703109127,1,-0.248,-0.8555,0.2773,530,64.5142,142.7002,-57.1289,86,0.6723,0.4782,9.5847,-66.6291,30,0.6253,8063,4.0392,78.2244
rg,1624655970703126830,1,-0.457,-0.6226,0.2275,531,93.2617,142.334,-81.7261,86,0.6723,0.4772,10.4862,-63.8585,30,0.6233,8211,4.0392,71.6714
rg,1624655970703143848,1,-0.6467,-0.2363,0.2593,532,121.2158,117.0044,-38.269,86,0.6733,0.4812,13.1082,-59.6057,30,0.6223,8081,4.0392,66.8742
rg,1624655970703161052,1,-0.6184,-0.1458,0.3379,533,34.2407,35.6445,30.7617,86,0.6753,0.4882,16.575,-57.662,30,0.6253,8260,4.0392,66.4708
rg,1624655970703178570,1,-0.5757,-0.3481,0.4504,534,-40.5273,-39.5508,36.0718,86,0.6783,0.4902,15.4467,-59.7829,30,0.6283,8167,4.0392,71.8527
rg,1624655970703207014,1,0.1853,-1.4426,1.1934,535,-112.3657,-220.52,39.7339,86,0.6853,0.4922,11.7623,-61.8293,30,0.6353,12295,4.0392,80.6751
rg,1624655970703226014,1,0.5249,-1.5139,0.5215,536,17.7612,-129.4556,59.9365,86,0.6903,0.4902,10.2454,-60.3429,30,0.6413,9603,4.0392,86.3829
rg,1624655970703243606,1,0.594,-1.0471,0.6038,537,69.2139,3.2959,38.208,86,0.6943,0.4882,10.2706,-57.4415,30,0.6493,8410,4.0392,87.0316
rg,1624655970703260569,1,0.4431,-0.8423,0.6086,538,78.9795,45.6543,11.3525,86,0.7043,0.4892,10.4112,-54.392,30,0.6543,8254,4.0392,85.7356
rg,1624655970703277365,1,0.1028,-0.7371,0.4443,539,69.519,72.4487,-6.2866,86,0.7184,0.4932,11.2556,-52.263,30,0.6573,8422,4.0392,83.1674
rg,1624655970703294402,1,-0.1472,-0.8174,0.5107,540,44.1895,101.1353,15.625,86,0.7314,0.4942,14.1274,-51.3468,30,0.6593,8714,4.0392,80.2536
rg,1624655970703312253,1,-0.4412,-0.813,0.5222,541,43.0908,102.1118,19.5312,86,0.7384,0.4962,17.0426,-50.3344,30,0.6613,8631,4.0392,78.248
rg,1624655970703329605,1,-0.5081,-0.7441,0.4856,542,44.0063,27.0996,19.7754,86,0.7404,0.4932,18.8416,-48.9019,30,0.6613,8425,4.0392,77.8566
rg,1624655970703348605,1,-0.3706,-0.5652,0.4744,543,11.0474,-79.6509,30.5786,86,0.7394,0.4952,17.9455,-47.4262,30,0.6613,8529,4.0392,81.2172
rg,1624655970703366549,1,0.0532,-0.6506,0.7566,544,-91.3086,-146.6064,33.6304,86,0.7153,0.5012,14.2701,-49.2541,30,0.6543,8428,4.0392,86.8093
rg,1624655971062244375,1,0.7046,-1.3306,0.6562,545,-106.7505,-118.5303,42.2974,86,0.6783,0.4902,13.5146,-50.4038,30,0.6263,25905,4.0392,89.4967
rg,1624655971062292818,1,0.6377,-1.3521,0.5146,546,-1.4648,111.145,75.3784,86,0.6753,0.4782,17.5259,-51.4066,30,0.6233,13580,4.0392,87.761
rg,1624655971062315040,1,0.1875,-1.2668,0.5657,547,35.2783,183.4106,40.4053,86,0.6753,0.4742,22.6517,-52.5003,30,0.6213,8232,4.0392,82.4354
rg,1624655971062335151,1,-0.2363,-0.9412,0.2524,548,79.0405,164.2456,-37.9639,86,0.6743,0.4732,25.0937,-52.9828,30,0.6193,7795,4.0392,75.3555
rg,1624655971062354299,1,-0.6838,-0.4678,0.197,549,152.2217,153.2593,-92.5903,86,0.6743,0.4742,27.0348,-50.7455,30,0.6173,7963,4.0392,67.3269
rg,1624655971062373076,1,-0.7717,-0.2329,0.1746,550,170.0439,129.1504,-58.8989,86,0.6743,0.4762,30.1549,-46.9341,30,0.6163,7810,4.0392,61.1847
rg,1624655971062391632,1,-0.7256,0.1191,0.1538,551,92.4072,44.6167,26.3062,86,0.6763,0.4812,33.9934,-42.825,30,0.6173,9357,4.0392,61.0071
rg,1624655971062410687,1,-0.6711,-0.2795,0.3599,552,-93.9331,-109.8022,32.959,86,0.6793,0.4842,32.563,-43.8194,30,0.6183,8461,4.0392,65.8427
rg,1624655971062460371,1,-0.3064,-1.1272,1.2275,553,-201.9043,-277.1606,33.2642,86,0.6823,0.4862,24.9543,-46.9644,30,0.6223,8149,4.0392,75.9392
rg,1624655971062482630,1,0.1675,-1.6138,1.4453,554,-171.6309,-307.312,34.6069,86,0.6873,0.4852,16.7931,-49.9826,30,0.6263,7909,4.0392,86.7314
rg,1624655971062502778,1,0.4629,-1.5493,0.4607,555,5.8594,-208.1909,43.0908,86,0.6893,0.4832,11.5274,-48.7406,30,0.6303,8131,4.0392,94.1265
rg,1624655971062521741,1,0.6943,-1.0393,0.688,556,57.9834,-59.2651,42.6636,96,0.6993,0.4802,9.7123,-46.1466,30,0.6423,7953,4.0359,96.9864
rg,1624655971062552370,1,0.4341,-0.7754,0.6221,557,53.5278,27.3438,-1.6479,96,0.7073,0.4772,9.1846,-44.3302,30,0.6483,13186,4.0359,96.0968
rg,1624655971062572259,1,0.1648,-0.8208,0.4326,558,20.3857,52.063,-13.1836,96,0.7204,0.4802,9.561,-44.5061,30,0.6503,8171,4.0359,94.1241
rg,1624655971062590018,1,-0.0691,-0.9346,0.5471,559,13.4277,85.5713,6.2256,96,0.7324,0.4812,11.9289,-44.9869,30,0.6513,8136,4.0359,91.7468
rg,1624655971062608554,1,-0.1582,-0.9204,0.5479,560,20.0195,76.8433,11.2915,96,0.7384,0.4802,14.2768,-45.1785,30,0.6523,8065,4.0359,89.7172
rg,1624655971062628165,1,-0.3589,-0.7539,0.439,561,27.4048,23.9868,8.667,96,0.7414,0.4772,15.5292,-44.7377,30,0.6513,8253,4.0359,89.1354
rg,1624655971062647295,1,-0.3457,-0.5293,0.4731,562,-12.146,-44.1284,22.4609,96,0.7224,0.4782,15.3238,-44.8198,30,0.6503,8990,4.0359,91.0577
rg,1624655971062666831,1,0.0442,-0.7024,0.6658,563,-135.7422,-154.6021,24.292,96,0.6963,0.4682,11.1435,-49.0708,30,0.6363,10503,4.0359,96.3875
rg,1624655971062685590,1,0.4185,-1.0352,0.5227,564,-131.897,-191.8945,32.4097,96,0.6873,0.4652,6.2512,-53.8043,30,0.6253,8109,4.0359,103.2092
rg,1624655971062705053,1,0.6521,-1.2158,0.4719,565,-83.6182,-169.4946,49.8047,96,0.6843,0.4622,4.2531,-55.2106,30,0.6213,8301,4.0359,108.5353
rg,1624655971062723331,1,1.0188,-1.3352,0.6423,566,-9.9487,-29.6631,71.0449,96,0.6793,0.4522,4.5012,-55.6967,30,0.6203,8184,4.0359,111.1071
rg,1624655971062741738,1,0.5874,-1.2039,0.5449,567,6.3477,137.207,52.4902,96,0.6803,0.4492,8.2066,-56.1687,30,0.6173,8402,4.0359,107.6789
rg,1624655971062760108,1,-0.0476,-1.179,0.564,568,38.208,232.666,37.5977,96,0.6793,0.4472,14.3405,-56.3483,30,0.6203,8210,4.0359,100.5929
rg,1624655971062778978,1,-0.2605,-1.1533,0.4924,569,49.4995,231.5063,20.4468,96,0.6793,0.4452,19.9666,-57.039,30,0.6183,8434,4.0359,92.8617
rg,1624655971062797644,1,-0.6223,-0.7734,0.2175,570,91.8579,162.8418,-64.27,96,0.6773,0.4462,22.0717,-56.5654,30,0.6183,8290,4.0359,85.3322
rg,1624655971062815700,1,-0.792,-0.2771,0.1941,571,116.9434,66.04,-56.3965,96,0.6793,0.4492,23.3263,-53.2887,30,0.6193,8479,4.0359,81.654
rg,1624655971062834921,1,-0.7458,-0.1375,0.2131,572,102.9663,24.1089,-12.146,96,0.6813,0.4552,25.2639,-50.0308,30,0.6193,8268,4.0359,83.2748
rg,1624655971062852514,1,-0.5291,-0.2686,0.4146,573,-20.874,-75.0122,41.748,96,0.6823,0.4572,25.4521,-48.7449,30,0.6213,8464,4.0359,87.2369
rg,1624655971062888013,1,-0.1616,-1.095,1.1746,574,-120.7886,-200.4395,23.9868,96,0.6883,0.4632,20.2701,-50.4692,30,0.6283,8353,4.0359,94.657
rg,1624655971062911105,1,0.2031,-1.5818,0.7361,575,-41.5039,-171.2646,21.4233,96,0.6923,0.4642,15.6103,-50.8123,30,0.6343,8595,4.0359,100.5936
rg,1624655971062929790,1,0.3552,-1.5439,0.6487,576,12.5732,-116.394,38.7573,96,0.6973,0.4642,12.6075,-49.6315,30,0.6423,8405,4.0359,105.164
rg,1624655971412690325,1,0.1233,-0.7383,0.3743,577,91.3696,41.8701,-5.0659,96,0.7294,0.4712,12.7631,-46.8284,30,0.6553,26028,4.0359,103.6052
rg,1624655971412725306,1,-0.293,-0.574,0.4543,578,59.6924,92.7734,15.5029,96,0.7394,0.4682,15.9083,-45.511,30,0.6583,17031,4.0359,102.0958
rg,1624655971412746157,1,-0.519,-0.5376,0.467,579,12.2681,15.3198,19.7754,96,0.7344,0.4712,17.6784,-45.0907,30,0.6593,7971,4.0359,102.1947
rg,1624655971412766027,1,-0.2297,-0.6711,0.5798,580,-112.6099,-145.2026,23.4985,96,0.7043,0.4772,14.2801,-48.338,30,0.6513,9551,4.0359,107.221
rg,1624655971412785101,1,0.3008,-1.0105,0.762,581,-170.8984,-235.5957,12.085,96,0.6903,0.4792,7.7425,-53.8422,30,0.6373,7877,4.0359,114.984
rg,1624655971412804212,1,0.5122,-1.207,0.6858,582,-135.7422,-210.4492,27.5269,96,0.6843,0.4832,2.7913,-58.9934,30,0.6303,8046,4.0359,122.6127
rg,1624655971412822693,1,0.9636,-1.4761,0.7043,583,-28.2593,-96.7407,71.9604,96,0.6813,0.4762,2.0743,-60.0821,30,0.6303,8469,4.0359,127.4071
rg,1624655971412840878,1,0.8281,-1.3279,0.4834,584,5.7373,90.6372,72.0825,96,0.6803,0.4732,5.1417,-60.2883,30,0.6293,8607,4.0359,125.6664
rg,1624655971412859026,1,0.3032,-1.1023,0.5388,585,24.7803,161.9873,55.9692,96,0.6783,0.4682,9.8737,-59.4851,30,0.6283,7951,4.0359,119.1893
rg,1624655971412877211,1,0.041,-1.042,0.4773,586,51.3306,218.811,10.7422,96,0.6793,0.4622,14.1959,-59.2251,30,0.6253,7991,4.0359,111.6735
rg,1624655971412894599,1,-0.5425,-0.8301,0.2974,587,85.022,213.3179,-77.0264,96,0.6783,0.4642,16.6129,-58.6622,30,0.6223,7996,4.0359,102.3721
rg,1624655971412912358,1,-0.9038,-0.4668,0.1746,588,116.5771,201.2329,-90.6982,96,0.6793,0.4642,19.5409,-55.7736,30,0.6243,8031,4.0359,94.9321
rg,1624655971412929803,1,-0.9104,-0.2568,0.1379,589,137.146,118.7134,-27.832,96,0.6803,0.4662,23.2132,-52.106,30,0.6243,7991,4.0359,90.1509
rg,1624655971412946654,1,-0.7898,-0.0105,0.2007,590,37.4146,-19.9585,23.2544,96,0.6833,0.4732,25.2991,-49.5751,30,0.6233,8082,4.0359,91.7107
rg,1624655971412964228,1,-0.6179,-0.5029,0.4565,591,-46.5698,-106.3232,22.7051,96,0.6863,0.4762,21.8502,-51.3342,30,0.6303,8047,4.0359,98.887
rg,1624655971412981376,1,-0.4175,-0.8611,0.814,592,-164.7339,-268.6768,30.2734,96,0.6893,0.4782,16.3001,-54.5002,30,0.6343,8150,4.0359,108.7798
rg,1624655971412998116,1,0.3452,-1.5684,1.0432,593,-104.3091,-302.6123,33.1421,96,0.6943,0.4812,9.5486,-56.2668,30,0.6373,8047,4.0359,119.7277
rg,1624655971413036523,1,0.625,-1.4641,0.425,594,43.1519,-176.6968,54.7485,96,0.7003,0.4842,6.1583,-54.1847,30,0.6463,8199,4.0359,126.7137
rg,1624655971413056449,1,0.7275,-1.2004,0.5679,595,69.7632,-102.9053,48.2178,96,0.7043,0.4852,3.9256,-51.3614,30,0.6513,8182,4.0359,131.1001
rg,1624655971413074412,1,0.5652,-0.7996,0.6204,596,86.4868,5.7373,7.019,96,0.7174,0.4872,3.0474,-47.9313,30,0.6573,8216,4.0359,131.0641
rg,1624655971413092578,1,0.2949,-0.7507,0.4062,597,53.2227,48.8892,-5.7983,96,0.7304,0.4912,3.3474,-46.3946,30,0.6593,8129,4.0359,129.4269
rg,1624655971413110800,1,0.2214,-0.801,0.438,598,31.0059,74.8901,2.3804,96,0.7394,0.4952,5.134,-45.8216,30,0.6603,8434,4.0359,127.2911
rg,1624655971413129226,1,-0.084,-0.8503,0.4993,599,22.4609,122.2534,8.728,96,0.7444,0.4942,8.7636,-45.8542,30,0.6603,8166,4.0359,123.9477
rg,1624655971413161021,1,-0.4607,-0.7944,0.5232,600,31.4941,93.0786,5.5542,96,0.7484,0.4912,12.1788,-45.4391,30,0.6603,9830,4.0359,121.3388
rg,1624655971413180651,1,-0.5662,-0.6599,0.4768,601,11.5967,-26.3672,17.2119,96,0.7454,0.4932,12.8029,-44.981,30,0.6593,8258,4.0359,122.5493
rg,1624655971413199002,1,-0.0293,-0.7004,0.7227,602,-36.8652,-100.2197,28.1372,96,0.7153,0.4992,8.7859,-47.91,30,0.6523,8548,4.0359,128.5877
rg,1624655971413216521,1,0.219,-0.8542,0.7654,603,-144.4702,-203.3081,30.0293,96,0.6963,0.4962,3.8074,-52.8969,30,0.6403,8874,4.0359,135.6806
rg,1624655971413233928,1,0.5491,-1.2175,0.5684,604,-103.5767,-169.6167,38.9404,96,0.6873,0.4952,0.2328,-57.2263,30,0.6293,8422,4.0359,142.1368
rg,1624655971413251261,1,0.9067,-1.3704,0.5381,605,-13.4888,-40.3442,69.7021,96,0.6853,0.4902,0.53,-58.1106,30,0.6273,8357,4.0359,144.9912
rg,1624655971413269242,1,0.5269,-1.2483,0.5469,606,-3.1738,62.9883,66.1011,96,0.6823,0.4832,4.6538,-58.0551,30,0.6263,8340,4.0359,141.0712
rg,1624655971413286501,1,0.342,-1.2542,0.6731,607,22.644,173.4009,46.936,96,0.6803,0.4832,9.1814,-57.8769,30,0.6253,8340,4.0359,136.1288
rg,1624655971413304593,1,-0.1272,-1.2544,0.5925,608,50.5981,193.6646,-1.0986,96,0.6813,0.4802,13.1,-57.4168,30,0.6243,8601,4.0359,129.3911
rg,1624655971774234831,1,-0.6882,-0.2087,0.1252,609,181.3354,40.6494,-42.7856,96,0.6813,0.4802,14.5684,-50.7458,30,0.6243,26891,4.0359,127.1236
rg,1624655971774280590,1,-0.5198,0.24,0.1213,610,35.3394,-68.4204,37.9639,96,0.6833,0.4872,15.9846,-47.4896,30,0.6273,16000,4.0359,130.6163
rg,1624655971774302478,1,-0.3303,-0.3328,0.3501,611,-66.2231,-124.0845,47.7905,96,0.6863,0.4902,13.4315,-51.929,30,0.6303,7798,4.0359,137.7665
rg,1624655971774323163,1,-0.0449,-0.8579,1.2168,612,-230.5908,-249.1455,52.7954,96,0.6903,0.4922,9.11,-58.5823,30,0.6343,7976,4.0359,147.4825
rg,1624655971774342348,1,0.3994,-1.7998,0.9292,613,-141.7236,-195.3125,40.2222,96,0.6943,0.4912,5.968,-63.3634,30,0.6423,7831,4.0359,155.1511
rg,1624655971774373422,1,0.4365,-1.8464,0.4661,614,-38.6963,-150.7568,37.5366,96,0.6983,0.4932,3.7633,-64.6102,30,0.6503,7854,4.0359,161.2309
rg,1624655971774393884,1,0.5913,-1.2766,0.7842,615,50.1099,-11.4136,36.1328,96,0.7033,0.4922,3.8821,-62.2994,30,0.6573,8213,4.0359,162.2772
rg,1624655971774412866,1,0.3162,-0.7937,0.686,616,87.2803,45.4712,8.2397,96,0.7153,0.4952,4.2608,-58.4093,30,0.6633,8078,4.0359,160.8583
rg,1624655971774430828,1,0.0728,-0.7524,0.48,617,45.5322,52.9175,1.9531,96,0.7314,0.5002,5.1002,-56.6846,30,0.6653,11068,4.0359,159.1026
rg,1624655971774448717,1,-0.1462,-0.8213,0.5303,618,21.5454,63.2324,7.5073,96,0.7404,0.5012,6.8739,-56.0335,30,0.6683,7906,4.0359,157.149
rg,1624655971774466698,1,-0.2512,-0.8191,0.4988,619,23.1934,54.8096,10.498,96,0.7464,0.5002,8.4534,-55.1624,30,0.6703,8046,4.0359,156.3912
rg,1624655971774485383,1,-0.3911,-0.741,0.4756,620,24.8413,-7.7515,12.085,96,0.7494,0.4992,9.2737,-54.153,30,0.6703,7916,4.0359,156.9269
rg,1624655971774503272,1,-0.2053,-0.5928,0.5225,621,-16.6016,-89.7827,25.5127,96,0.7424,0.5022,8.2176,-54.0478,30,0.6703,8090,4.0359,160.5159
rg,1624655971774546419,1,-0.0232,-0.5886,0.6272,622,-70.4346,-120.6665,30.8838,96,0.7143,0.5072,5.7957,-56.0838,30,0.6593,7944,4.0359,165.2549
rg,1624655971774567049,1,0.2671,-0.8972,0.572,623,-159.8511,-168.9453,22.0947,96,0.6943,0.5052,2.3413,-62.0625,30,0.6433,8197,4.0359,-188.4552
rg,1624655971774585752,1,0.645,-1.3184,0.5156,624,-105.6519,-127.6855,36.0718,96,0.6863,0.5012,1.8457,-63.9376,30,0.6303,8175,4.0359,-184.5508
rg,1624655971774604141,1,0.75,-1.293,0.7583,625,-7.9956,-7.019,62.7441,96,0.6833,0.4912,2.8943,-64.0353,30,0.6303,8298,4.0359,-183.2002
rg,1624655971774622214,1,0.4241,-1.2026,0.6558,626,13.4277,99.8535,57.4951,96,0.6823,0.4862,5.9182,-63.5842,30,0.6293,8114,4.0359,-185.7869
rg,1624655971774639918,1,0.0464,-1.1899,0.5291,627,46.1426,154.2358,35.9497,96,0.6823,0.4802,9.6516,-62.4895,30,0.6283,9695,4.0359,169.3018
rg,1624655971774658510,1,-0.3381,-0.9941,0.3643,628,51.0864,153.0762,2.3804,96,0.6823,0.4782,11.1868,-61.2591,30,0.6273,8265,4.0359,163.3072
rg,1624655971774676658,1,-0.541,-0.771,0.2761,629,96.5576,133.1177,-77.6367,96,0.6823,0.4772,12.5671,-58.8471,30,0.6263,9370,4.0359,157.0231
rg,1624655971774695084,1,-0.7239,-0.2942,0.1731,630,146.4233,85.7544,-50.7202,96,0.6813,0.4802,14.5493,-53.9514,30,0.6263,8643,4.0359,153.0184
rg,1624655971774712991,1,-0.6121,0.052,0.0898,631,104.9194,4.0894,23.3154,96,0.6843,0.4842,17.5242,-49.2126,30,0.6273,8364,4.0359,153.684
rg,1624655971774731528,1,-0.4387,-0.1233,0.2664,632,-53.4058,-112.1826,43.8843,96,0.6863,0.4882,17.3968,-49.3564,30,0.6313,8213,4.0359,158.623
rg,1624655971774749009,1,-0.3572,-0.5239,0.6174,633,-139.5264,-175.7812,41.8701,96,0.6893,0.4902,14.5712,-52.709,30,0.6353,8400,4.0359,165.4979
rg,1624655971774766731,1,0.2527,-1.655,1.481,634,-150.0854,-221.1304,33.3862,96,0.6933,0.4922,9.7855,-56.7774,30,0.6403,8399,4.0359,-186.2664
rg,1624655971774799545,1,0.4399,-1.604,0.5706,635,7.6904,-121.7651,43.7012,96,0.6993,0.4942,7.6447,-56.2013,30,0.6483,8482,4.0359,-181.2769
rg,1624655971774820508,1,0.4614,-1.0635,0.8169,636,54.5654,20.813,38.3911,96,0.7063,0.4952,8.3556,-53.8458,30,0.6553,8739,4.0359,-181.0854
rg,1624655971774837822,1,0.1462,-0.79,0.6267,637,71.8994,45.7764,8.3008,96,0.7194,0.4972,9.076,-51.0684,30,0.6653,8649,4.0359,-182.3557
rg,1624655971774855952,1,0.0044,-0.8022,0.5251,638,58.1055,47.1802,6.0425,96,0.7344,0.5022,10.0952,-49.1871,30,0.6683,8309,4.0359,-183.7127
rg,1624655971774873451,1,-0.1575,-0.8538,0.5513,639,39.4287,41.4429,18.9209,96,0.7424,0.5062,11.7019,-48.0621,30,0.6703,8522,4.0359,-184.5289
rg,1624655971774891562,1,-0.3455,-0.7734,0.4722,640,43.457,9.2773,9.7656,96,0.7484,0.5052,12.6051,-46.7142,30,0.6733,8372,4.0359,-184.6125
rg,1624655972136218012,1,0.2917,-0.8098,0.7124,641,-123.3521,-193.1152,21.3623,96,0.7073,0.5133,6.5724,-51.9733,30,0.6473,26813,4.0359,-178.0342
rg,1624655972136280826,1,0.6003,-1.2747,0.387,642,-94.6045,-144.7754,28.5034,96,0.6953,0.5133,2.9644,-56.0297,30,0.6363,8737,4.0359,-172.7114
rg,1624655972136314270,1,0.7075,-1.2378,0.3252,643,-35.5225,-78.3691,44.0674,96,0.6893,0.5092,1.5505,-57.9486,30,0.6283,7833,4.0359,-169.1378
rg,1624655972136346584,1,0.5916,-0.9951,0.6973,644,1.1597,81.665,43.396,96,0.6873,0.5012,3.6915,-57.8697,30,0.6283,9635,4.0359,-170.9943
rg,1624655972136374917,1,0.1633,-1.0818,0.6248,645,14.4653,144.8364,57.6172,96,0.6863,0.4962,8.2591,-57.7482,30,0.6273,7850,4.0359,-174.7062
rg,1624655972136406583,1,-0.1624,-1.282,0.6267,646,20.9351,161.8652,44.3115,96,0.6863,0.4912,13.0995,-58.0051,30,0.6263,11512,4.0359,-179.3698
rg,1624655972136438305,1,-0.4255,-1.1628,0.4656,647,48.645,128.0518,-20.3247,96,0.6863,0.4912,15.3458,-57.6524,29,0.6253,7910,4.0359,-184.3771
rg,1624655972136469582,1,-0.5439,-0.9255,0.3635,648,70.1294,93.0786,-55.9692,96,0.6863,0.4912,16.0095,-56.4512,29,0.6243,8048,4.0359,171.021
rg,1624655972136568174,1,-0.6335,-0.3765,0.2549,649,103.6377,33.8135,-50.9033,96,0.6873,0.4932,16.5286,-52.9458,29,0.6253,7926,4.0359,168.7045
rg,1624655972136603432,1,-0.5469,-0.0945,0.2422,650,73.2422,-15.4419,8.5449,96,0.6883,0.4952,18.1288,-49.2451,29,0.6273,8038,4.0359,169.6517
rg,1624655972136630876,1,-0.4417,-0.3005,0.3997,651,17.6392,-53.7109,23.0713,96,0.6933,0.5002,16.9558,-49.623,30,0.6303,9141,4.0359,-186.1664
rg,1624655972136658506,1,-0.313,-0.6841,0.7224,652,-108.8867,-171.2036,23.5596,96,0.6953,0.5012,13.4194,-52.1116,30,0.6343,8062,4.0359,-179.9725
rg,1624655972136687524,1,0.2488,-1.4827,1.1057,653,-104.9194,-217.4683,27.4658,96,0.7023,0.5032,8.3497,-54.8648,30,0.6433,8516,4.0359,-172.1893
rg,1624655972136715338,1,0.564,-1.4768,0.6545,654,1.0376,-130.0659,48.4619,96,0.7083,0.5062,5.8972,-54.5533,30,0.6523,8348,4.0359,-166.8476
rg,1624655972136743930,1,0.6279,-1.1064,0.6548,655,48.4009,-3.9062,37.4756,96,0.7174,0.5092,5.8095,-52.6817,30,0.6593,8043,4.0359,-165.8704
rg,1624655972136770652,1,0.4619,-0.9504,0.5447,656,59.8755,38.5742,20.2637,96,0.7304,0.5112,6.3075,-50.6334,30,0.6633,8288,4.0359,-166.6354
rg,1624655972136799096,1,0.1182,-0.8054,0.5217,657,53.9551,87.8906,13.4888,96,0.7404,0.5163,8.4496,-49.0271,30,0.6683,8127,4.0359,-169.0351
rg,1624655972136825781,1,-0.282,-0.7163,0.4902,658,40.1611,104.6143,14.1602,96,0.7464,0.5203,11.9995,-48.1632,30,0.6713,8208,4.0359,-171.882
rg,1624655972136852780,1,-0.4294,-0.6648,0.478,659,34.729,76.7212,13.9771,96,0.7484,0.5233,15.2976,-47.4197,30,0.6733,8210,4.0359,-173.8711
rg,1624655972136879002,1,-0.5544,-0.5859,0.4358,660,-13.2446,-36.5601,12.5732,96,0.7374,0.5283,15.5349,-47.7408,30,0.6733,8246,4.0359,-172.4467
rg,1624655972136905039,1,-0.126,-0.7739,0.6069,661,-133.9722,-200.1343,19.5312,96,0.7093,0.5283,10.6709,-51.7053,30,0.6603,8179,4.0359,-165.6964
rg,1624655972136931724,1,0.3562,-1.1663,0.6174,662,-166.0156,-261.1084,13.1226,96,0.6953,0.5233,3.6785,-56.7944,30,0.6433,8405,4.0359,-156.3718
rg,1624655972136958871,1,0.5381,-1.2305,0.3831,663,-81.2988,-248.1079,18.3716,96,0.6913,0.5112,-1.8225,-60.4536,30,0.6333,8222,4.0359,-147.5426
rg,1624655972136987297,1,0.8796,-1.2502,0.5381,664,5.3101,-118.6523,45.8374,96,0.6893,0.4982,-3.7117,-60.6688,30,0.6313,8347,4.0359,-142.4986
rg,1624655972137015130,1,0.8508,-1.1262,0.4458,665,22.8882,-4.6997,60.9131,96,0.6883,0.4892,-2.8722,-60.0732,30,0.6293,8326,4.0359,-141.1286
rg,1624655972137042852,1,0.6331,-1.1201,0.3901,666,34.9731,71.167,47.4243,96,0.6873,0.4842,-0.7772,-58.9903,30,0.6273,8407,4.0359,-142.6235
rg,1624655972137070851,1,0.1616,-1.1235,0.5024,667,34.4238,166.5039,22.2778,96,0.6873,0.4812,3.1677,-57.9826,30,0.6243,8365,4.0359,-147.8416
rg,1624655972137100166,1,-0.3262,-0.9231,0.3853,668,76.6602,176.6968,-16.5405,96,0.6873,0.4812,7.0266,-55.8259,30,0.6243,8337,4.0359,-154.1529
rg,1624655972137131665,1,-0.5271,-0.4387,0.2029,669,97.8394,143.0664,-30.5786,96,0.6863,0.4812,9.8843,-52.192,30,0.6233,8438,4.0359,-158.1891
rg,1624655972137189553,1,-0.5569,-0.2607,0.1987,670,111.6333,66.2842,-14.5264,87,0.6873,0.4842,12.8465,-48.2131,30,0.6243,8332,4.0392,-160.5814
rg,1624655972137225330,1,-0.5227,-0.1143,0.2537,671,36.8042,-1.2207,28.5645,87,0.6893,0.4882,15.3817,-46.0776,30,0.6263,8573,4.0392,-159.606
rg,1624655972137254552,1,-0.4561,-0.6118,0.5786,672,-95.2148,-116.0278,33.4473,87,0.6913,0.4922,13.7551,-48.762,30,0.6323,8350,4.0392,-155.1512
rg,1624655972492370343,1,0.5396,-1.2341,0.6462,673,18.0664,-129.8828,39.0625,87,0.7063,0.4992,10.0348,-47.2622,30,0.6523,28827,4.0392,-150.2186
rg,1624655972492402620,1,0.3906,-0.7859,0.5444,674,28.1372,-7.5684,3.8452,87,0.7133,0.5022,8.7317,-46.3753,30,0.6603,10330,4.0392,-149.951
rg,1624655972492423101,1,0.2832,-0.8062,0.5366,675,16.1133,2.8076,-6.3477,87,0.7234,0.5062,7.9078,-46.235,30,0.6643,7777,4.0392,-150.2838
rg,1624655972492442767,1,0.1443,-0.9517,0.5625,676,9.7046,18.4326,3.6621,87,0.7324,0.5102,7.925,-46.4161,30,0.6693,7928,4.0392,-150.7926
rg,1624655972492461971,1,0.0605,-0.8843,0.5027,677,26.123,10.376,11.2915,87,0.7394,0.5133,8.0981,-45.9139,30,0.6723,7871,4.0392,-150.859
rg,1624655972492501767,1,0.0198,-0.8137,0.4819,678,32.1655,2.2583,11.3525,87,0.7444,0.5163,8.0088,-44.9588,30,0.6743,7982,4.0392,-150.4231
rg,1624655972492521340,1,-0.0107,-0.6816,0.4556,679,27.2217,-17.8833,17.4561,87,0.7464,0.5193,7.7098,-44.1723,30,0.6753,8015,4.0392,-149.4782
rg,1624655972492540581,1,0.093,-0.7124,0.4578,680,-2.0142,-53.9551,21.7285,87,0.7474,0.5223,6.2398,-44.4968,30,0.6753,7950,4.0392,-147.3985
rg,1624655972492561543,1,0.1665,-0.7759,0.4775,681,-25.8789,-71.8384,22.1558,87,0.7334,0.5263,3.7106,-46.8565,30,0.6693,7957,4.0392,-144.0596
rg,1624655972492580136,1,0.3337,-0.8794,0.4141,682,-70.4956,-102.7222,33.02,87,0.7113,0.5223,1.1256,-50.1527,30,0.6563,7980,4.0392,-140.1229
rg,1624655972492598228,1,0.4053,-0.9248,0.3474,683,-49.0723,-86.2427,26.6724,87,0.7003,0.5163,-1.0756,-52.7931,30,0.6453,7970,4.0392,-136.7536
rg,1624655972492615487,1,0.4412,-0.8997,0.3672,684,-16.1133,-51.0864,27.9541,87,0.6973,0.5102,-2.2493,-53.8202,30,0.6393,8026,4.0392,-134.4342
rg,1624655972492632765,1,0.4585,-0.9978,0.7358,685,6.7139,20.2637,44.4946,87,0.6943,0.5022,-1.043,-53.5434,30,0.6373,7983,4.0392,-134.0427
rg,1624655972492650431,1,0.3423,-1.1135,0.5547,686,22.0947,44.3726,56.7627,87,0.6933,0.4952,1.2658,-53.0291,30,0.6363,8115,4.0392,-134.1133
rg,1624655972492668079,1,0.2405,-1.1189,0.5088,687,30.6396,70.6787,54.8706,87,0.6923,0.4902,4.9306,-51.9081,30,0.6343,8070,4.0392,-135.9654
rg,1624655972492685505,1,-0.0493,-1.1099,0.4924,688,53.6499,108.1543,40.4053,87,0.6923,0.4882,8.7793,-50.5985,30,0.6323,8152,4.0392,-138.4025
rg,1624655972492703134,1,-0.2715,-0.9353,0.4011,689,76.6602,92.7124,10.8643,87,0.6933,0.4862,11.7523,-48.6102,30,0.6313,8151,4.0392,-141.081
rg,1624655972492720393,1,-0.4148,-0.6997,0.3247,690,82.9468,53.833,-13.1226,87,0.6933,0.4852,11.8351,-46.0047,30,0.6293,8192,4.0392,-142.2196
rg,1624655972492737337,1,-0.3965,-0.5154,0.3142,691,71.6553,-61.1572,-3.9062,87,0.6923,0.4822,10.8336,-43.2325,30,0.6283,10180,4.0392,-140.639
rg,1624655972492754189,1,-0.1619,-0.5571,0.3679,692,37.4146,-111.084,20.5078,87,0.6953,0.4812,8.2465,-41.6386,30,0.6273,12776,4.0392,-137.0741
rg,1624655972492770911,1,0.1077,-0.74,0.5652,693,6.7749,-138.855,16.5405,87,0.6963,0.4812,3.9711,-41.3436,30,0.6293,8149,4.0392,-132.935
rg,1624655972492788336,1,0.2791,-0.8855,0.5276,694,13.2446,-105.0415,11.1694,87,0.6983,0.4822,0.3927,-41.3606,30,0.6293,8302,4.0392,-129.8652
rg,1624655972492805188,1,0.3044,-0.9023,0.5269,695,21.1792,-73.4253,9.7046,87,0.6983,0.4832,-2.1952,-41.2285,30,0.6313,8208,4.0392,-127.6384
rg,1624655972492822688,1,0.2324,-0.8254,0.5491,696,30.1514,-16.4795,3.6621,87,0.7003,0.4842,-3.03,-40.6186,30,0.6323,8129,4.0392,-127.0759
rg,1624655972492839854,1,0.093,-0.793,0.5667,697,26.3062,-1.3428,-3.3569,87,0.7023,0.4852,-3.2562,-40.0963,30,0.6343,8607,4.0392,-127.1156
rg,1624655972492856595,1,0.0178,-0.8394,0.5583,698,24.9634,-2.5635,-6.2256,87,0.7043,0.4872,-3.5938,-39.8657,30,0.6363,8190,4.0392,-127.0514
rg,1624655972492885205,1,0.0291,-0.8591,0.5427,699,22.522,-17.8223,-6.7749,87,0.7043,0.4882,-4.2407,-39.6719,30,0.6383,8530,4.0392,-126.7577
rg,1624655972492903724,1,0.0833,-0.8796,0.5437,700,26.6724,-30.4565,-10.376,87,0.7083,0.4912,-5.4617,-39.3621,30,0.6403,8312,4.0392,-126.2452
rg,1624655972492920760,1,0.1223,-0.8584,0.5229,701,32.959,-39.7949,-12.7563,87,0.7083,0.4912,-7.0813,-38.8533,30,0.6433,8513,4.0392,-125.5596
rg,1624655972492937927,1,0.1333,-0.8411,0.5088,702,35.6445,-44.4336,-13.916,87,0.7103,0.4932,-8.8575,-38.3086,30,0.6473,8262,4.0392,-124.7791
rg,1624655972492954926,1,0.155,-0.8206,0.5005,703,43.2739,-51.7578,-15.686,87,0.7113,0.4942,-10.8997,-37.4975,30,0.6493,8471,4.0392,-123.8656
rg,1624655972492972167,1,0.1755,-0.8318,0.5647,704,46.2036,-54.2603,-13.6108,87,0.7133,0.4952,-12.9313,-36.5482,30,0.6503,8342,4.0392,-122.8343
rg,1624655972864909541,1,0.134,-0.8,0.6116,705,54.3213,-38.8184,-1.9531,87,0.7153,0.4972,-13.8081,-35.1127,30,0.6573,25474,4.0392,-121.7707
rg,1624655972865006966,1,0.1685,-0.7202,0.5879,706,53.2227,-38.7573,6.1646,87,0.7163,0.4982,-14.9699,-34.083,30,0.6593,10423,4.0392,-120.4574
rg,1624655972865029206,1,0.1921,-0.7173,0.5828,707,44.3115,-44.6777,5.4932,87,0.7163,0.4992,-16.2217,-33.3034,30,0.6593,8070,4.0392,-119.0625
rg,1624655972865049391,1,0.2239,-0.7344,0.5786,708,36.377,-43.0908,-2.3804,87,0.7163,0.4992,-17.6301,-32.8367,30,0.6603,9642,4.0392,-117.9557
rg,1624655972865069650,1,0.1733,-0.7485,0.5654,709,33.0811,-38.8184,-8.3008,87,0.7174,0.4992,-18.8643,-32.5013,30,0.6603,7814,4.0392,-117.1188
rg,1624655972865089427,1,0.0952,-0.7292,0.5601,710,32.6538,-39.7339,-13.0005,87,0.7174,0.4982,-20.0097,-32.1552,30,0.6603,9166,4.0392,-116.4133
rg,1624655972865109334,1,0.0803,-0.7271,0.5771,711,32.6538,-48.3398,-11.5356,87,0.7174,0.4992,-21.3349,-31.8885,30,0.6603,8419,4.0392,-115.4545
rg,1624655972865128464,1,0.1257,-0.7576,0.6228,712,36.0718,-62.6831,-11.4746,87,0.7174,0.4992,-23.1864,-31.602,30,0.6593,7972,4.0392,-114.1604
rg,1624655972865146815,1,0.2048,-0.7515,0.6255,713,41.8701,-67.9321,-11.7188,87,0.7174,0.4972,-25.3325,-31.1604,30,0.6603,8137,4.0392,-112.7333
rg,1624655972865165297,1,0.2454,-0.7434,0.5854,714,47.2412,-65.3076,-13.1836,87,0.7184,0.4962,-27.4637,-30.5739,30,0.6603,8229,4.0392,-111.3645
rg,1624655972865183056,1,0.2751,-0.8413,0.5159,715,48.2788,-65.4297,-13.916,87,0.7184,0.4962,-29.6338,-30.2678,30,0.6593,8007,4.0392,-109.8556
rg,1624655972865201278,1,0.3296,-0.9658,0.6624,716,51.0864,-64.0869,-12.6953,87,0.7184,0.4952,-31.66,-29.7173,30,0.6593,8151,4.0392,-108.376
rg,1624655972865220370,1,0.3696,-0.9329,0.6965,717,80.2002,-38.269,-9.3384,87,0.7184,0.4962,-32.7174,-27.7963,30,0.6593,9357,4.0392,-107.3426
rg,1624655972865238573,1,0.2969,-0.7156,0.6482,718,97.9004,-21.4233,-12.8174,87,0.7184,0.4962,-33.171,-24.7304,30,0.6593,9165,4.0392,-106.9397
rg,1624655972865257203,1,0.1951,-0.6252,0.6436,719,97.3511,-10.0098,-9.3384,87,0.7174,0.4972,-32.9468,-21.619,30,0.6593,8567,4.0392,-106.6524
rg,1624655972865276925,1,0.0906,-0.6074,0.6716,720,96.1914,-13.3057,-7.5684,87,0.7184,0.4962,-32.5917,-18.6741,30,0.6603,8192,4.0392,-106.227
rg,1624655972865294184,1,0.043,-0.5969,0.7068,721,94.1162,-19.7754,-5.5542,87,0.7184,0.4962,-32.3442,-15.8528,30,0.6603,8134,4.0392,-105.679
rg,1624655972865336572,1,0.0767,-0.5947,0.78,722,90.6982,-50.5981,-2.0752,87,0.7184,0.4952,-33.34,-13.513,30,0.6593,8217,4.0392,-104.6065
rg,1624655972865363090,1,0.2612,-0.5972,0.8103,723,84.4116,-78.125,-2.0142,87,0.7184,0.4942,-35.7553,-11.6055,30,0.6603,8192,4.0392,-103.2858
rg,1624655972865381627,1,0.4021,-0.6016,0.7898,724,83.1299,-83.0688,0.7324,87,0.7194,0.4932,-38.4906,-10.2312,30,0.6593,8177,4.0392,-101.3872
rg,1624655972865403126,1,0.4651,-0.6064,0.7905,725,76.0498,-85.2661,0.3662,87,0.7184,0.4922,-41.4413,-8.9225,30,0.6593,8108,4.0392,-99.8455
rg,1624655972865422348,1,0.53,-0.6367,0.8003,726,72.4487,-80.7495,-13.855,87,0.7194,0.4912,-44.3182,-7.3135,30,0.6603,8221,4.0392,-99.0546
rg,1624655972865439996,1,0.5261,-0.6299,0.7939,727,71.3501,-46.2646,-17.4561,87,0.7184,0.4902,-45.7671,-5.465,30,0.6593,9917,4.0392,-98.6948
rg,1624655972865458292,1,0.4045,-0.6177,0.8389,728,69.8242,-13.9771,-13.6719,87,0.7194,0.4882,-45.6396,-3.7414,30,0.6573,8335,4.0392,-98.2692
rg,1624655972865475829,1,0.3079,-0.6121,0.8677,729,69.7632,-10.5591,-6.7139,87,0.7184,0.4872,-45.1873,-2.3493,30,0.6593,8210,4.0392,-97.4317
rg,1624655972865493144,1,0.3132,-0.5996,0.8723,730,71.8994,-17.334,-2.1973,87,0.7174,0.4852,-45.0264,-1.0739,30,0.6593,8370,4.0392,-96.3344
rg,1624655972865512958,1,0.3774,-0.5591,0.8818,731,73.6084,-27.1606,4.6387,87,0.7163,0.4852,-45.3584,0.0748,30,0.6593,8210,4.0392,-94.9185
rg,1624655972865533273,1,0.4155,-0.5256,0.8896,732,71.5332,-20.752,6.5918,87,0.7194,0.4852,-45.4897,1.1229,30,0.6603,8363,4.0392,-93.4423
rg,1624655972865555124,1,0.4097,-0.5095,0.9038,733,70.1294,-16.7847,7.4463,87,0.7194,0.4842,-45.3138,1.8722,30,0.6593,8261,4.0392,-91.8461
rg,1624655972865574883,1,0.3914,-0.502,0.9143,734,64.5752,-11.9629,7.3242,87,0.7184,0.4842,-45.0576,2.6206,30,0.6583,8495,4.0392,-90.3422
rg,1624655972865594679,1,0.3433,-0.5173,0.9282,735,62.561,-11.8408,3.7231,87,0.7163,0.4842,-44.7257,3.373,30,0.6593,8334,4.0392,-89.0084
rg,1624655972865632216,1,0.293,-0.4971,0.9153,736,64.0259,-14.9536,1.77,87,0.7194,0.4822,-44.4532,4.2594,30,0.6593,8481,4.0392,-87.7999
rg,1624655973217115360,1,0.3286,-0.4534,0.9497,737,60.8521,-30.4565,5.7983,87,0.7194,0.4792,-44.9995,4.8405,30,0.6593,26013,4.0392,-86.4609
rg,1624655973217152637,1,0.4607,-0.4697,0.9409,738,54.8096,-30.7617,15.7471,87,0.7194,0.4782,-45.6501,4.9355,30,0.6583,14736,4.0392,-84.7582
rg,1624655973217173322,1,0.4705,-0.4854,0.9509,739,50.415,-25.6348,9.3384,87,0.7204,0.4782,-46.0693,5.0656,30,0.6583,7694,4.0392,-83.2057
rg,1624655973217192933,1,0.4421,-0.4717,0.9292,740,49.9268,-2.3193,8.4839,87,0.7204,0.4772,-45.5216,5.1203,30,0.6583,7989,4.0392,-81.5716
rg,1624655973217212248,1,0.3813,-0.4602,0.9333,741,48.4009,7.6904,7.019,87,0.7194,0.4762,-44.1381,5.1602,30,0.6573,7702,4.0392,-80.0655
rg,1624655973217231062,1,0.2664,-0.4453,0.9597,742,46.1426,13.4888,6.2256,87,0.7194,0.4752,-42.6907,5.1937,30,0.6573,7856,4.0392,-78.5841
rg,1624655973217249414,1,0.2439,-0.4424,0.9619,743,46.0205,-0.1221,9.3994,87,0.7194,0.4742,-41.7968,5.1925,30,0.6583,8572,4.0392,-77.0544
rg,1624655973217266932,1,0.3057,-0.4438,0.9846,744,44.1284,-13.916,9.2773,87,0.7194,0.4722,-41.5676,5.2228,30,0.6563,9836,4.0392,-75.655
rg,1624655973217284691,1,0.3606,-0.4375,0.9851,745,43.0908,-15.686,9.6436,87,0.7204,0.4722,-41.4178,5.2551,30,0.6573,7820,4.0392,-74.347
rg,1624655973217302209,1,0.3606,-0.4285,0.99,746,41.626,-11.2915,8.667,87,0.7194,0.4722,-41.1789,5.2675,30,0.6563,7958,4.0392,-73.0208
rg,1624655973217319727,1,0.3462,-0.4153,0.9761,747,38.9404,-6.3477,8.0566,87,0.7214,0.4712,-40.7307,5.2006,30,0.6583,7825,4.0392,-71.7222
rg,1624655973217336838,1,0.3477,-0.3938,0.9763,748,38.8184,-5.249,7.6294,87,0.7214,0.4702,-40.2473,5.1791,30,0.6573,8140,4.0392,-70.511
rg,1624655973217354282,1,0.3562,-0.3884,0.979,749,36.6211,-6.2866,7.4463,87,0.7204,0.4692,-39.8301,5.1365,30,0.6573,7854,4.0392,-69.3232
rg,1624655973217370967,1,0.3879,-0.365,0.9648,750,35.3394,-9.0332,5.9814,87,0.7204,0.4682,-39.5901,5.1646,30,0.6563,8073,4.0392,-68.2733
rg,1624655973217405060,1,0.3652,-0.3293,0.9729,751,35.0952,-9.4604,4.9438,87,0.7214,0.4672,-39.2648,5.2727,30,0.6573,7918,4.0392,-67.2848
rg,1624655973217423930,1,0.384,-0.3257,0.9727,752,34.3628,-10.498,8.606,87,0.7204,0.4642,-39.0889,5.2838,30,0.6563,8150,4.0392,-66.1824
rg,1624655973217441152,1,0.3855,-0.3323,1.0422,753,28.0762,-13.1836,5.249,87,0.7214,0.4642,-38.9647,5.1939,30,0.6543,7972,4.0392,-65.2892
rg,1624655973217457688,1,0.4216,-0.3406,1.0803,754,26.4282,-16.4185,14.0381,87,0.7204,0.4642,-39.036,4.7832,30,0.6563,8198,4.0392,-63.9726
rg,1624655973217475336,1,0.4426,-0.3491,1.084,755,24.8413,-14.5874,13.916,87,0.7214,0.4622,-39.0575,4.3113,30,0.6553,8052,4.0392,-62.6516
rg,1624655973217492669,1,0.4641,-0.3533,1.0808,756,23.0103,-11.7188,19.8364,87,0.7214,0.4612,-39.0078,3.5814,30,0.6553,8112,4.0392,-61.0193
rg,1624655973217509095,1,0.4602,-0.3687,1.0471,757,18.6768,-1.709,19.104,87,0.7214,0.4602,-38.5654,2.6663,30,0.6563,8284,4.0392,-59.3802
rg,1624655973217525836,1,0.4309,-0.3677,1.0447,758,16.4185,4.8828,18.2495,87,0.7224,0.4602,-37.7549,1.6875,30,0.6563,8111,4.0392,-57.7822
rg,1624655973217543002,1,0.3369,-0.3804,1.0168,759,13.7329,12.8174,19.4092,87,0.7224,0.4592,-36.5509,0.6139,30,0.6563,12942,4.0392,-56.1654
rg,1624655973217560002,1,0.2986,-0.3792,0.9773,760,13.0005,10.1318,19.7754,87,0.7224,0.4592,-35.4291,-0.4429,30,0.6563,8140,4.0392,-54.5895
rg,1624655973217576946,1,0.2852,-0.3582,0.9551,761,12.6343,8.667,18.5547,87,0.7224,0.4592,-34.3693,-1.3672,30,0.6553,8303,4.0392,-53.1598
rg,1624655973217593501,1,0.238,-0.3486,0.9321,762,11.1084,3.6011,16.8457,87,0.7234,0.4602,-33.4533,-2.2427,30,0.6563,8326,4.0392,-51.8622
rg,1624655973217610001,1,0.2292,-0.3386,0.9109,763,8.606,-6.3477,13.0615,87,0.7234,0.4602,-32.9502,-3.067,30,0.6553,8685,4.0392,-50.7725
rg,1624655973217626464,1,0.2332,-0.342,0.8999,764,7.6294,-19.2871,8.3618,87,0.7234,0.4602,-32.9935,-3.8067,30,0.6553,10277,4.0392,-49.8844
rg,1624655973217643575,1,0.27,-0.3462,0.8909,765,8.2397,-29.48,5.6152,87,0.7244,0.4612,-33.5218,-4.4596,30,0.6563,8557,4.0392,-49.0887
rg,1624655973217673796,1,0.2932,-0.3425,0.9058,766,8.3008,-32.6538,5.7983,87,0.7244,0.4612,-34.2232,-5.0761,30,0.6563,8320,4.0392,-48.2798
rg,1624655973217692703,1,0.3149,-0.3271,0.9031,767,10.498,-31.3721,6.5918,87,0.7234,0.4612,-34.8453,-5.5859,30,0.6553,8449,4.0392,-47.4414
rg,1624655973217709814,1,0.3718,-0.3247,0.9185,768,9.9487,-25.8789,10.437,87,0.7244,0.4622,-35.3052,-6.1746,30,0.6533,8413,4.0392,-46.4479
rg,1624655973585186313,1,0.3838,-0.3835,0.9614,769,12.6953,0.6104,14.5264,87,0.7244,0.4612,-34.4426,-6.7082,30,0.6563,27061,4.0392,-45.3755
rg,1624655973585229609,1,0.2925,-0.3513,0.9968,770,15.1367,3.7842,13.6719,87,0.7254,0.4612,-33.5112,-7.0365,30,0.6563,8766,4.0392,-44.4134
rg,1624655973585250738,1,0.2866,-0.3391,0.9766,771,12.8174,-10.0708,13.3057,87,0.7264,0.4612,-33.158,-7.453,30,0.6563,9603,4.0392,-43.4168
rg,1624655973585270589,1,0.2971,-0.3401,0.9705,772,11.4746,-17.0288,12.3291,87,0.7264,0.4612,-33.1153,-7.9064,30,0.6563,7972,4.0392,-42.4313
rg,1624655973585293089,1,0.3428,-0.3535,0.9609,773,10.6812,-25.5127,12.8174,87,0.7264,0.4612,-33.4928,-8.4546,30,0.6553,7874,4.0392,-41.3501
rg,1624655973585311570,1,0.3633,-0.3345,0.9551,774,10.376,-24.5972,11.5356,87,0.7294,0.4622,-33.8635,-8.9241,30,0.6563,8597,4.0392,-40.3559
rg,1624655973585329014,1,0.3713,-0.3352,0.9561,775,9.0942,-23.9868,11.2305,87,0.7264,0.4622,-34.1633,-9.4509,30,0.6563,8398,4.0392,-39.3781
rg,1624655973585348847,1,0.3613,-0.324,0.9429,776,8.0566,-22.7051,11.9629,87,0.7264,0.4622,-34.4221,-9.9791,30,0.6553,8088,4.0392,-38.382
rg,1624655973585366699,1,0.3613,-0.3213,0.9456,777,6.0425,-22.2168,14.5264,87,0.7274,0.4612,-34.6233,-10.6323,30,0.6553,7919,4.0392,-37.2724
rg,1624655973585384088,1,0.3665,-0.3347,0.9473,778,4.2725,-21.9727,14.5874,87,0.7274,0.4612,-34.8183,-11.3356,30,0.6563,8057,4.0392,-36.1918
rg,1624655973585401865,1,0.3767,-0.343,0.9443,779,3.6621,-23.6816,13.6719,87,0.7264,0.4592,-35.0749,-12.082,30,0.6553,7991,4.0392,-35.0834
rg,1624655973585421735,1,0.3821,-0.3462,0.9304,780,3.54,-22.644,12.4512,87,0.7274,0.4612,-35.2988,-12.7754,30,0.6553,9356,4.0392,-34.0449
rg,1624655973585497030,1,0.3718,-0.3398,0.9175,781,4.8218,-23.0103,13.3667,86,0.7274,0.4602,-35.5026,-13.4382,30,0.6553,8130,4.0381,-32.9539
rg,1624655973585519715,1,0.3826,-0.3425,0.9214,782,5.3711,-23.9258,13.916,86,0.7274,0.4602,-35.7227,-13.9916,30,0.6553,8116,4.0381,-31.8567
rg,1624655973585536511,1,0.3955,-0.3367,0.9248,783,7.4463,-24.231,14.5264,86,0.7284,0.4602,-35.9687,-14.5411,30,0.6543,8051,4.0381,-30.7096
rg,1624655973585555122,1,0.407,-0.3201,0.9424,784,10.1929,-19.2261,15.686,86,0.7284,0.4602,-36.0047,-14.9037,30,0.6553,8185,4.0381,-29.6068
rg,1624655973585572844,1,0.4314,-0.3306,0.9783,785,10.8032,-10.3149,20.6909,86,0.7284,0.4592,-35.6557,-15.2924,30,0.6553,8126,4.0381,-28.3904
rg,1624655973585592103,1,0.4419,-0.3337,0.9941,786,10.498,-5.4932,23.0103,86,0.7294,0.4602,-35.1285,-15.6881,30,0.6553,8311,4.0381,-27.1464
rg,1624655973585610418,1,0.4426,-0.3171,0.9976,787,9.5215,6.1646,23.0713,86,0.7274,0.4582,-34.1532,-15.9571,30,0.6543,8315,4.0381,-26.1018
rg,1624655973585629751,1,0.3689,-0.3162,0.9868,788,5.8594,13.1836,19.9585,86,0.7284,0.4602,-32.8499,-16.2102,30,0.6553,8283,4.0381,-25.3152
rg,1624655973585647510,1,0.2871,-0.3188,0.9763,789,2.5024,10.7422,16.1743,86,0.7294,0.4602,-31.578,-16.5044,30,0.6563,8216,4.0381,-24.6825
rg,1624655973585668028,1,0.2625,-0.3259,0.96,790,0.9155,3.6011,15.5029,86,0.7294,0.4602,-30.59,-16.8958,30,0.6553,8302,4.0381,-23.9885
rg,1624655973585687417,1,0.2815,-0.332,0.9536,791,0.8545,-12.146,14.4043,86,0.7274,0.4602,-30.288,-17.3651,30,0.6543,8200,4.0381,-23.1352
rg,1624655973585705768,1,0.3345,-0.3362,0.9302,792,0.4883,-18.9209,12.6343,86,0.7294,0.4612,-30.3898,-17.8645,30,0.6553,8201,4.0381,-22.2592
rg,1624655973585723805,1,0.3579,-0.3391,0.9219,793,1.1597,-18.0664,12.3291,86,0.7284,0.4602,-30.4061,-18.3182,30,0.6553,8223,4.0381,-21.4594
rg,1624655973585741082,1,0.3623,-0.3462,0.9202,794,2.5024,-11.2915,11.9019,86,0.7284,0.4582,-30.2736,-18.6597,30,0.6553,8272,4.0381,-20.7224
rg,1624655973585758341,1,0.3535,-0.3384,0.9155,795,5.9204,-7.2021,14.4653,86,0.7294,0.4612,-29.9437,-18.8594,30,0.6543,8462,4.0381,-19.9488
rg,1624655973585791026,1,0.353,-0.3232,0.9199,796,8.4229,-5.4321,11.9019,86,0.7294,0.4602,-29.5916,-18.8378,30,0.6553,8322,4.0381,-19.3398
rg,1624655973585811359,1,0.3494,-0.3098,0.9202,797,8.728,-5.4932,13.916,86,0.7304,0.4602,-29.2389,-18.7959,30,0.6563,8478,4.0381,-18.668
rg,1624655973585830637,1,0.3623,-0.3052,0.9392,798,8.1177,-4.5776,17.0288,86,0.7294,0.4602,-28.826,-18.8238,30,0.6553,8346,4.0381,-17.8815
rg,1624655973585850025,1,0.3914,-0.3149,0.9597,799,7.8125,-5.0049,17.8223,86,0.7294,0.4602,-28.475,-18.8834,30,0.6553,8519,4.0381,-17.0544
rg,1624655973585868655,1,0.3977,-0.3083,0.9597,800,7.2632,-3.418,17.8223,86,0.7294,0.4612,-28.0914,-18.9303,30,0.6553,10272,4.0381,-16.2618
rg,1624655973935222938,1,0.3406,-0.3093,0.9473,801,2.5635,6.1035,18.6157,86,0.7304,0.4622,-27.2485,-19.1141,30,0.6563,26748,4.0381,-15.5769
rg,1624655973935267086,1,0.2859,-0.3286,0.96,802,3.1128,2.3193,17.334,86,0.7304,0.4642,-26.4737,-19.2912,30,0.6563,17538,4.0381,-14.8843
rg,1624655973935287438,1,0.3037,-0.323,0.9409,803,4.5166,-3.7231,17.8833,86,0.7314,0.4642,-25.9955,-19.4479,30,0.6573,7789,4.0381,-14.0857
rg,1624655973935306808,1,0.314,-0.3267,0.948,804,5.188,-4.3945,16.8457,86,0.7304,0.4652,-25.6222,-19.5233,30,0.6573,7908,4.0381,-13.3042
rg,1624655973935325548,1,0.3352,-0.321,0.9482,805,6.7139,-3.7842,16.8457,86,0.7314,0.4652,-25.2517,-19.5422,30,0.6573,7798,4.0381,-12.5616
rg,1624655973935343011,1,0.3323,-0.3069,0.947,806,7.6904,-1.709,14.5874,86,0.7314,0.4652,-24.8467,-19.4322,30,0.6573,7954,4.0381,-11.9593
rg,1624655973935360103,1,0.321,-0.3152,0.9592,807,7.2021,-1.2817,15.1978,86,0.7314,0.4652,-24.4022,-19.3588,30,0.6583,9461,4.0381,-11.3333
rg,1624655973935377214,1,0.3164,-0.3059,0.9683,808,6.958,-1.8921,15.9912,86,0.7314,0.4652,-23.9777,-19.2731,30,0.6583,8561,4.0381,-10.6813
rg,1624655973935394214,1,0.3105,-0.2878,0.9648,809,6.7749,-3.7842,16.8457,86,0.7284,0.4662,-23.6228,-19.1903,30,0.6573,7832,4.0381,-9.9781
rg,1624655973935434954,1,0.314,-0.2742,0.9756,810,6.0425,-6.4087,19.104,86,0.7314,0.4662,-23.3554,-19.1503,30,0.6583,7933,4.0381,-9.159
rg,1624655973935455324,1,0.3372,-0.2649,0.9761,811,4.6997,-7.019,20.752,86,0.7324,0.4662,-23.1486,-19.172,30,0.6583,8028,4.0381,-8.2717
rg,1624655973935974539,1,0.3271,-0.2944,0.979,812,0.7935,-6.4087,19.3481,86,0.7324,0.4662,-22.9153,-19.3817,30,0.6583,7987,4.0381,-7.4274
rg,1624655973936007575,1,0.2866,-0.3276,0.9683,813,0.9766,-8.4839,17.4561,86,0.7324,0.4672,-22.7084,-19.6332,30,0.6593,7884,4.0381,-6.6036
rg,1624655973936029871,1,0.2822,-0.3147,0.9648,814,1.0376,-9.0942,16.0522,86,0.7314,0.4662,-22.5442,-19.8244,30,0.6573,7864,4.0381,-5.8429
rg,1624655973936051204,1,0.282,-0.3145,0.9519,815,1.0376,-12.6343,16.8457,86,0.7324,0.4672,-22.5122,-20.0479,30,0.6573,7882,4.0381,-4.9969
rg,1624655973936072185,1,0.3271,-0.3179,0.9587,816,1.0986,-14.9536,17.5781,86,0.7324,0.4662,-22.6428,-20.289,30,0.6583,8085,4.0381,-4.0872
rg,1624655973936092518,1,0.345,-0.3113,0.9495,817,3.1128,-12.6343,16.9067,86,0.7324,0.4672,-22.7319,-20.411,30,0.6593,10535,4.0381,-3.2446
rg,1624655973936111629,1,0.3491,-0.312,0.9553,818,3.54,-9.7046,15.1367,86,0.7334,0.4672,-22.7361,-20.4645,30,0.6593,8154,4.0381,-2.5208
rg,1624655973936131462,1,0.3469,-0.3103,0.9558,819,3.2349,-7.2021,16.6016,86,0.7324,0.4672,-22.6212,-20.5313,30,0.6573,8027,4.0381,-1.7783
rg,1624655973936150462,1,0.3401,-0.313,0.9475,820,3.479,-5.5542,15.9302,86,0.7334,0.4672,-22.449,-20.5754,30,0.6593,8194,4.0381,-1.0852
rg,1624655973936168665,1,0.3484,-0.3008,0.946,821,3.7231,-6.3477,17.0288,86,0.7334,0.4672,-22.3184,-20.6019,30,0.6593,8153,4.0381,-0.3466
rg,1624655973936187721,1,0.3577,-0.3032,0.9531,822,4.0894,-2.5024,17.9443,86,0.7294,0.4682,-22.05,-20.6025,30,0.6583,8195,4.0381,0.3695
rg,1624655973936207424,1,0.3564,-0.3113,0.9485,823,3.479,0.9766,17.8223,86,0.7324,0.4682,-21.6627,-20.6224,30,0.6593,8075,4.0381,1.0344
rg,1624655973936227442,1,0.3462,-0.3157,0.9543,824,4.8218,3.1738,17.5171,86,0.7334,0.4682,-21.1613,-20.5753,30,0.6593,8198,4.0381,1.6556
rg,1624655973936273479,1,0.3093,-0.3064,0.9573,825,5.9204,6.1646,16.7847,86,0.7324,0.4702,-20.5314,-20.4258,30,0.6583,8151,4.0381,2.1923
rg,1624655973936296145,1,0.301,-0.2957,0.968,826,6.1035,6.1646,18.4326,86,0.7334,0.4702,-19.8839,-20.2607,30,0.6603,8324,4.0381,2.7864
rg,1624655973936314793,1,0.3005,-0.3018,0.9668,827,5.127,3.3569,19.2261,86,0.7334,0.4712,-19.3558,-20.1735,30,0.6603,8345,4.0381,3.4608
rg,1624655973936332515,1,0.301,-0.3035,0.969,828,4.9438,3.418,19.2871,86,0.7324,0.4712,-18.8458,-20.0936,30,0.6593,8397,4.0381,4.1382
rg,1624655973936351329,1,0.2991,-0.3025,0.9673,829,5.4321,4.6387,17.5171,86,0.7324,0.4722,-18.333,-19.9623,30,0.6593,8232,4.0381,4.7281
rg,1624655973936369181,1,0.2993,-0.2981,0.9631,830,3.479,3.479,18.3716,86,0.7344,0.4722,-17.8771,-19.9181,30,0.6603,8435,4.0381,5.368
rg,1624655973936387569,1,0.2917,-0.2974,0.9695,831,2.6245,4.8218,17.0288,86,0.7344,0.4722,-17.3459,-19.8784,30,0.6613,8325,4.0381,5.9345
rg,1624655973936406125,1,0.2712,-0.2961,0.9832,832,3.1738,4.9438,18.6157,86,0.7334,0.4732,-16.8035,-19.8162,30,0.6603,8465,4.0381,6.5576
rg,1624655974294437144,1,0.2803,-0.2947,0.9656,833,4.2725,-4.7607,17.9443,86,0.7334,0.4742,-16.7239,-19.7178,30,0.6603,26515,4.0381,7.3149
rg,1624655974294484347,1,0.2932,-0.2917,0.9844,834,4.7607,-2.9907,17.5781,86,0.7344,0.4742,-16.5651,-19.6051,30,0.6613,8915,4.0381,8.0095
rg,1624655974294504995,1,0.2698,-0.3032,0.9866,835,2.6245,2.7466,16.9678,86,0.7344,0.4742,-16.1549,-19.5714,30,0.6613,9461,4.0381,8.6069
rg,1624655974294525272,1,0.2627,-0.312,0.9895,836,2.1973,3.3569,16.9067,86,0.7344,0.4742,-15.7216,-19.565,30,0.6613,7921,4.0381,9.1979
rg,1624655974294544661,1,0.2412,-0.3098,0.9863,837,3.6621,0.3662,17.8223,86,0.7354,0.4752,-15.3634,-19.514,30,0.6613,7878,4.0381,9.8654
rg,1624655974294563661,1,0.2422,-0.3042,0.9788,838,5.127,-3.479,17.334,86,0.7354,0.4762,-15.1777,-19.4057,30,0.6593,8932,4.0381,10.5659
rg,1624655974294583012,1,0.2683,-0.3098,0.988,839,4.4556,-4.9438,16.6626,86,0.7354,0.4762,-15.1398,-19.288,30,0.6623,8466,4.0381,11.2916
rg,1624655974294626660,1,0.2651,-0.3076,0.9812,840,6.958,-3.9673,15.8081,86,0.7354,0.4772,-15.0506,-19.1058,30,0.6613,7889,4.0381,11.9432
rg,1624655974294648548,1,0.2649,-0.3081,0.9849,841,7.2632,-4.2114,15.564,86,0.7364,0.4782,-14.9769,-18.9148,30,0.6623,7978,4.0381,12.5902
rg,1624655974294667400,1,0.2664,-0.301,0.9824,842,7.0801,-5.0049,15.9912,86,0.7364,0.4782,-14.926,-18.7177,30,0.6633,7892,4.0381,13.2603
rg,1624655974294685640,1,0.2556,-0.2849,0.9844,843,7.2021,-6.3477,15.4419,86,0.7354,0.4792,-14.9288,-18.5007,30,0.6623,7976,4.0381,13.9224
rg,1624655974294703399,1,0.2571,-0.2593,0.9895,844,6.2866,-8.606,15.9302,86,0.7364,0.4792,-15.018,-18.2842,30,0.6633,7934,4.0381,14.6204
rg,1624655974294721325,1,0.2629,-0.2493,0.988,845,3.6011,-11.4136,17.5171,86,0.7364,0.4802,-15.2767,-18.3047,30,0.6633,8040,4.0381,15.4464
rg,1624655974294741140,1,0.2756,-0.2754,0.9929,846,0.2441,-13.5498,18.1885,86,0.7364,0.4802,-15.5448,-18.4162,30,0.6633,7979,4.0381,16.3093
rg,1624655974294759176,1,0.271,-0.304,0.9778,847,-1.0376,-11.2915,16.2354,86,0.7364,0.4802,-15.7327,-18.6194,30,0.6633,7993,4.0381,17.0844
rg,1624655974294778009,1,0.2693,-0.3035,0.9761,848,-0.6104,-10.8032,15.8691,86,0.7364,0.4812,-15.8719,-18.8128,30,0.6643,7940,4.0381,17.8427
rg,1624655974294797213,1,0.2686,-0.3049,0.9775,849,1.0376,-9.9487,16.8457,86,0.7374,0.4812,-15.9785,-18.9257,30,0.6643,12397,4.0381,18.6222
rg,1624655974294816879,1,0.2656,-0.3108,0.9814,850,0.9766,-9.8267,17.1509,86,0.7364,0.4802,-16.0246,-19.0437,30,0.6643,8020,4.0381,19.3968
rg,1624655974294836157,1,0.27,-0.3125,0.99,851,0.9766,-8.7891,16.9067,86,0.7364,0.4802,-16.0731,-19.1557,30,0.6633,8167,4.0381,20.1634
rg,1624655974294855638,1,0.2688,-0.3054,0.9802,852,1.8921,-8.606,17.5171,86,0.7364,0.4812,-16.1073,-19.2248,30,0.6633,8051,4.0381,20.9482
rg,1624655974294875064,1,0.2688,-0.2942,0.9788,853,2.5024,-8.8501,18.6768,86,0.7374,0.4822,-16.0606,-19.2411,30,0.6643,8060,4.0381,21.7267
rg,1624655974294893767,1,0.2595,-0.2932,0.9866,854,1.3428,-7.3853,18.1274,86,0.7374,0.4822,-16.02,-19.2997,30,0.6643,9099,4.0381,22.5092
