name,time,activity,ax,ay,az,batch_val,gx,gy,gz,ibat,index,middle,pitch,roll,temp,thumb,ts,vbat,yaw
lg,1625222821321659325,0,0.519,-0.0146,0.9666,1,-4.0283,-19.8364,19.6533,64,1.5418,1.5287,-30.3054,-15.2216,32,0.1421,20033,4.0194,-15.5788
lg,1625222821321696621,0,0.5671,0.0161,0.9629,2,-5.4932,-14.3433,17.8833,64,1.5418,1.5287,-30.4146,-15.3775,32,0.1411,8294,4.0194,-14.9702
lg,1625222821321716807,0,0.5593,0.043,0.9785,3,-10.7422,3.2959,18.5547,64,1.5428,1.5287,-30.1044,-15.4967,32,0.1421,8062,4.0194,-14.5431
lg,1625222821321736677,0,0.5659,0.0098,0.9802,4,-17.395,19.4702,21.6064,64,1.5428,1.5277,-29.1521,-15.9127,32,0.1411,8146,4.0194,-14.1483
lg,1625222821321755288,0,0.5923,-0.0095,0.9785,5,-20.813,24.6582,23.7427,64,1.5428,1.5277,-27.6698,-16.526,32,0.1421,8058,4.0194,-13.8548
lg,1625222821321773751,0,0.5818,-0.0244,0.9939,6,-24.231,46.814,22.3999,64,1.5408,1.5277,-25.7578,-17.0747,32,0.1411,7694,4.0194,-13.7726
lg,1625222821321791547,0,0.5144,-0.0359,0.9697,7,-26.2451,68.7256,22.522,64,1.5428,1.5277,-22.9874,-17.5668,32,0.1411,7709,4.0194,-13.9815
lg,1625222821321808714,0,0.4714,-0.022,0.97,8,-27.5269,74.646,21.3623,64,1.5428,1.5277,-20.039,-18.0313,32,0.1411,8492,4.0194,-14.3255
lg,1625222821321825233,0,0.4204,-0.0332,0.9197,9,-29.7852,80.6885,21.6675,64,1.5428,1.5277,-16.9176,-18.5528,32,0.1421,8108,4.0194,-14.7377
lg,1625222821321841770,0,0.3562,-0.0828,0.9458,10,-31.5552,78.3691,24.9634,64,1.5418,1.5277,-13.7994,-19.2708,32,0.1421,7779,4.0194,-14.9677
lg,1625222821321859881,0,0.3501,-0.0798,0.9478,11,-33.0811,73.8525,23.6206,64,1.5418,1.5277,-10.9779,-20.0187,32,0.1421,8156,4.0194,-15.2078
lg,1625222821321877844,0,0.3401,-0.1257,0.9692,12,-35.7056,60.5469,26.4282,64,1.5428,1.5277,-8.6803,-20.987,32,0.1421,8167,4.0194,-15.1569
lg,1625222821321895066,0,0.4011,-0.1536,0.9934,13,-34.4238,53.5889,28.6865,64,1.5428,1.5287,-6.7927,-21.9438,32,0.1421,8185,4.0194,-14.9395
lg,1625222821321911603,0,0.436,-0.144,0.9919,14,-34.2407,53.2227,29.7241,64,1.5428,1.5277,-5.038,-22.8393,32,0.1421,8544,4.0194,-14.7081
lg,1625222821321927973,0,0.5139,-0.1414,0.9998,15,-33.5693,65.1245,28.0762,64,1.5418,1.5277,-3.0638,-23.6557,32,0.1421,8215,4.0194,-14.7496
lg,1625222821321944103,0,0.0281,-0.9075,0.8174,16,10.8643,-24.7192,-92.2852,146,1.4997,1.4837,-5.3942,-23.9327,32,0.1601,15784,3.9314,-17.6818
lg,1625222821321961047,0,-0.0486,-0.8542,0.3208,17,25.3296,-9.5825,-122.8638,146,1.4977,1.4687,-7.4697,-24.0559,32,0.1581,9096,3.9314,-21.8835
lg,1625222821321978492,0,-0.1499,-0.6284,0.3604,18,29.6021,6.1646,-117.9199,146,1.4987,1.4617,-6.7175,-23.8947,32,0.1571,8881,3.9314,-25.2011
lg,1625222821321995455,0,-0.177,-0.6523,0.6135,19,13.0615,81.0547,-17.5781,146,1.4987,1.4597,-3.3749,-24.0633,32,0.1611,8503,3.9314,-27.0697
lg,1625222821322012066,0,-0.5005,-0.9856,0.8049,20,-14.2822,139.9536,48.2788,146,1.5007,1.4617,3.4283,-25.5747,32,0.1631,8537,3.9314,-27.6292
lg,1625222821322028677,0,-0.8423,-0.7268,0.7231,21,-2.1973,70.0684,53.2837,146,1.5027,1.4667,8.203,-26.176,32,0.1651,9928,3.9314,-26.9773
lg,1625222821322045381,0,-0.7798,-0.4763,0.7808,22,-18.0054,-68.8477,81.4819,146,1.5027,1.4757,8.3974,-26.4425,32,0.1651,9598,3.9314,-22.8142
lg,1625222821322062103,0,-0.6101,-0.6067,0.6741,23,-58.5327,-198.2422,82.1533,146,1.4967,1.4837,3.8998,-28.5734,32,0.1641,8614,3.9314,-16.2952
lg,1625222821322078733,0,-0.3567,-0.6978,0.7097,24,-72.8149,-263.0615,80.5664,146,1.4927,1.4877,-3.9763,-31.7472,32,0.1661,9018,3.9314,-8.2517
lg,1625222821322095121,0,0.3652,-0.8325,0.4609,25,-65.6128,-340.1489,28.1982,146,1.4907,1.4887,-15.1731,-36.8689,32,0.1651,9104,3.9314,0.5288
lg,1625222821322111696,0,0.7007,-1.1338,0.6492,26,-70.6787,-207.6416,31.9214,146,1.4867,1.4897,-21.2397,-42.5787,32,0.1661,9053,3.9314,7.3908
lg,1625222821322128677,0,0.4934,-0.9927,0.5654,27,1.8921,12.4512,10.0708,146,1.4887,1.4897,-20.7126,-43.1499,32,0.1661,9729,3.9314,7.5879
lg,1625222821322145214,0,0.0574,-0.7781,0.7097,28,33.3252,138.1226,13.855,146,1.4877,1.4907,-15.5788,-40.9216,32,0.1671,8374,3.9314,4.1983
lg,1625222821322161955,0,-0.1519,-0.7263,0.6721,29,35.9497,140.1978,14.0381,146,1.4877,1.4927,-10.5707,-39.2141,32,0.1691,9192,3.9314,1.1847
lg,1625222821322178696,0,-0.2288,-0.7341,0.6562,30,26.9775,111.8164,0.5493,146,1.4907,1.4957,-6.1775,-38.0703,32,0.1711,9236,3.9314,-1.5522
lg,1625222821322194973,0,-0.3232,-0.7551,0.7537,31,23.6816,93.3228,-2.5635,146,1.4917,1.4967,-2.4126,-37.2049,32,0.1701,9346,3.9314,-3.8876
lg,1625222821322211084,0,-0.2844,-0.6807,0.7651,32,18.6157,55.7861,-7.9956,146,1.4947,1.4987,-0.1298,-36.588,32,0.1701,8892,3.9314,-5.4742
lg,1625222821673162732,0,-0.0627,-0.7883,0.6689,33,0.5493,-4.7607,-13.4277,146,1.5017,1.4917,-0.4607,-37.0691,32,0.1701,25679,3.9314,-5.7881
lg,1625222821673213918,0,-0.0381,-0.8413,0.7061,34,2.6855,46.7529,9.2163,146,1.4997,1.4887,1.3397,-37.4671,32,0.1681,9507,3.9314,-6.6267
lg,1625222821673234066,0,-0.1123,-0.8015,0.7336,35,6.1646,79.2236,19.4092,146,1.4987,1.4877,4.4922,-37.6743,32,0.1681,7948,3.9314,-7.96
lg,1625222821673253306,0,-0.1865,-0.7693,0.7236,36,4.3945,89.4165,23.0103,146,1.4977,1.4857,8.0851,-38.0065,32,0.1691,12184,3.9314,-9.47
lg,1625222821673273103,0,-0.2722,-0.7722,0.708,37,-0.4272,72.7539,23.8037,146,1.4977,1.4847,11.2044,-38.561,32,0.1701,8202,3.9314,-10.5981
lg,1625222821673292121,0,-0.3589,-0.8616,0.76,38,-7.3242,44.3115,39.856,146,1.4997,1.4857,13.8222,-39.2014,32,0.1731,11422,3.9314,-10.5466
lg,1625222821673309992,0,-0.4177,-1.0029,0.7485,39,-16.4185,28.3203,54.7485,146,1.5017,1.4897,15.8074,-40.3899,32,0.1731,8351,3.9314,-8.6898
lg,1625222821673328899,0,-0.4666,-0.9629,0.7419,40,-43.5791,-27.4048,67.5659,146,1.5037,1.4957,16.9718,-41.7659,32,0.1691,8005,3.9314,-5.9436
lg,1625222821673346992,0,-0.4751,-0.7817,0.6035,41,-58.2275,-94.2993,84.8999,146,1.4987,1.4997,16.8347,-42.9353,32,0.1651,8743,3.9314,-0.7818
lg,1625222821673364732,0,0.1777,-0.3999,0.7373,42,-51.7578,-146.9727,88.562,146,1.4977,1.4997,9.9233,-41.4078,32,0.1611,7983,3.9314,5.775
lg,1625222821673382658,0,0.198,-0.5183,0.0183,43,0.1221,-239.3799,-44.1284,146,1.4957,1.4977,0.6268,-42.4731,32,0.1591,8656,3.9314,10.6216
lg,1625222821673401029,0,0.2468,-0.8669,0.8401,44,-64.3921,-130.188,-40.7104,146,1.4947,1.4927,-4.7078,-45.2433,32,0.1571,8377,3.9314,13.0738
lg,1625222821673419714,0,-0.1382,-0.9104,0.3225,45,-17.7612,21.1182,-64.6362,146,1.4937,1.4927,-5.4922,-46.6893,32,0.1561,8089,3.9314,10.7373
lg,1625222821673436566,0,-0.3904,-0.9548,0.5498,46,-8.606,102.2339,-43.5791,146,1.4927,1.4927,-3.0352,-47.2071,32,0.1551,8068,3.9314,6.5914
lg,1625222821673454325,0,-0.5134,-0.8054,0.5112,47,37.5977,109.0088,26.3062,146,1.4917,1.4927,1.8817,-46.033,32,0.1551,8080,3.9314,4.1722
lg,1625222821673474232,0,-0.4121,-0.5369,0.719,48,36.377,47.7295,48.8281,146,1.4897,1.4937,5.4803,-44.2357,32,0.1561,8118,3.9314,4.2177
lg,1625222821673491788,0,-0.1187,-0.6089,0.738,49,1.5869,-12.9395,60.791,146,1.4897,1.4957,6.8595,-43.7474,32,0.1581,8179,3.9314,6.3548
lg,1625222821673509195,0,0.1145,-0.8755,0.7498,50,-16.2354,-56.1523,37.4146,146,1.4897,1.4977,5.8003,-44.3166,32,0.1601,8908,3.9314,8.9845
lg,1625222821673526251,0,0.1277,-0.9458,0.7231,51,-10.437,-33.2031,26.5503,146,1.4907,1.5007,6.0264,-44.6118,32,0.1611,8611,3.9314,9.3929
lg,1625222821673543399,0,0.0559,-0.9045,0.6855,52,10.8032,39.856,13.7329,146,1.4927,1.5027,7.1922,-44.5816,32,0.1611,8582,3.9314,8.6217
lg,1625222821673560343,0,-0.0374,-0.8093,0.7412,53,33.02,84.8389,6.8359,146,1.4967,1.5027,9.5947,-43.6909,32,0.1611,9344,3.9314,6.4102
lg,1625222821673577066,0,-0.1152,-0.7832,0.7395,54,22.4609,81.4819,-17.2119,146,1.5027,1.5027,11.3295,-43.4097,32,0.1601,8646,3.9314,3.5965
lg,1625222821673594251,0,-0.1245,-0.8049,0.6875,55,19.7754,64.4531,-28.0762,146,1.5037,1.5007,12.2378,-43.3949,32,0.1601,8289,3.9314,0.9041
lg,1625222821673611918,0,-0.1135,-0.8455,0.6172,56,19.043,59.8755,-29.4189,146,1.5027,1.4967,12.8979,-43.6858,32,0.1581,8301,3.9314,-1.7675
lg,1625222821673628436,0,-0.105,-0.8188,0.5808,57,23.8037,64.5142,-18.1274,146,1.5007,1.4917,13.9846,-43.719,32,0.1561,9129,3.9314,-4.2405
lg,1625222821673645288,0,-0.1392,-0.7612,0.5325,58,19.7144,97.7173,5.188,146,1.5017,1.4927,16.718,-44.0822,32,0.1571,8367,3.9314,-7.0114
lg,1625222821673662121,0,-0.3367,-0.8035,0.7126,59,-0.9155,103.0884,33.7524,146,1.5027,1.4937,20.6089,-44.9328,32,0.1621,8414,3.9314,-9.1031
lg,1625222821673679566,0,-0.4534,-0.8242,0.7942,60,-7.3853,94.1162,49.9878,146,1.5047,1.4967,24.9634,-45.9062,32,0.1651,8560,3.9314,-10.5524
lg,1625222821673696732,0,-0.644,-0.6792,0.5918,61,-18.1885,42.9688,65.1855,146,1.5057,1.5017,28.4346,-46.4451,32,0.1661,8450,3.9314,-9.9714
lg,1625222821673714214,0,-0.7551,-0.5938,0.6179,62,-31.1279,-34.9731,81.4819,146,1.4997,1.5047,30.3182,-45.7411,32,0.1651,8718,3.9314,-6.1701
lg,1625222821673731714,0,-0.4626,-0.6172,1.0398,63,-53.772,-124.7559,106.9336,146,1.4917,1.5057,29.4451,-43.4725,32,0.1671,8718,3.9314,1.7062
lg,1625222821673749399,0,-0.1404,-0.5244,1.0364,64,-36.7432,-186.6455,68.8477,146,1.4917,1.5047,25.4177,-42.1866,32,0.1671,8573,3.9314,9.2356
lg,1625222822039782565,0,0.1267,-0.9714,0.5488,65,-21.7285,-103.0884,-13.5498,146,1.4877,1.5057,20.9292,-42.7184,32,0.1671,25411,3.9314,11.5407
lg,1625222822039825306,0,0.0776,-0.8726,0.5093,66,13.1836,12.9395,17.4561,146,1.4877,1.5077,20.7764,-42.7396,32,0.1691,9518,3.9314,11.4905
lg,1625222822039845991,0,0.0229,-0.783,0.6738,67,25.8789,89.7217,24.1089,146,1.4887,1.5097,23.1989,-42.6739,32,0.1711,13601,3.9314,9.5221
lg,1625222822039865547,0,-0.0803,-0.8611,0.6887,68,24.8413,94.3604,8.7891,146,1.4927,1.5107,25.4497,-43.0923,32,0.1721,11458,3.9314,6.8337
lg,1625222822039884362,0,-0.1963,-0.8442,0.676,69,29.9072,93.1396,-11.4136,146,1.4987,1.5107,27.251,-43.4991,32,0.1721,11421,3.9314,3.5315
lg,1625222822039911195,0,-0.1609,-0.7134,0.7202,70,33.6914,69.9463,-31.9214,146,1.5027,1.5087,27.6691,-43.6829,32,0.1701,8387,3.9314,0.29
lg,1625222822039929491,0,-0.1975,-0.7844,0.6409,71,28.5645,55.3589,-53.894,146,1.5017,1.5037,27.1036,-44.4418,32,0.1681,8640,3.9314,-3.3272
lg,1625222822039947899,0,-0.2183,-0.7966,0.4839,72,27.4048,52.8564,-56.8848,146,1.4987,1.4977,26.593,-45.3033,32,0.1661,8361,3.9314,-6.8637
lg,1625222822039965806,0,-0.3538,-0.7854,0.467,73,28.8696,53.4058,-41.3818,146,1.4977,1.4947,27.4716,-46.3758,32,0.1671,10195,3.9314,-9.8385
lg,1625222822039983936,0,-0.4495,-0.793,0.5908,74,1.4038,68.1763,9.1553,146,1.5007,1.4967,30.3991,-47.071,32,0.1711,9623,3.9314,-10.4434
lg,1625222822040002306,0,-0.634,-0.718,0.613,75,-11.4136,35.7056,65.6128,146,1.5017,1.4987,33.4133,-47.1461,32,0.1711,8804,3.9314,-9.6224
lg,1625222822040020973,0,-0.7842,-0.6638,0.7417,76,-24.8413,-35.2783,77.2705,146,1.5007,1.5037,34.8708,-45.7798,32,0.1701,9032,3.9314,-5.6923
lg,1625222822040039177,0,-0.7937,-0.5769,0.7214,77,-38.3911,-132.019,98.0225,146,1.4967,1.5067,34.0634,-42.5671,32,0.1731,8090,3.9314,2.3561
lg,1625222822040056973,0,-0.3291,-0.4468,1.3259,78,-41.5649,-201.9653,95.7642,146,1.4937,1.5067,25.8638,-38.7704,32,0.1731,8139,3.9314,12.4107
lg,1625222822040075880,0,-0.0945,-0.8015,0.4944,79,-74.4629,-298.7671,20.9351,146,1.4907,1.5037,16.4529,-39.3739,32,0.1731,8916,3.9314,20.8125
lg,1625222822040093640,0,0.3809,-1.0522,0.5701,80,-51.6968,-262.7563,25.2075,146,1.4887,1.5047,7.8726,-40.6328,32,0.1721,8907,3.9314,28.2721
lg,1625222822040113010,0,0.2925,-1.0234,0.5425,81,-18.0664,-63.1714,-6.0425,146,1.4897,1.5057,4.9895,-41.9745,32,0.1721,8973,3.9314,29.6692
lg,1625222822040131214,0,0.1636,-0.803,0.6062,82,29.9072,71.5332,30.2124,146,1.4877,1.5057,7.3634,-41.309,32,0.1731,8617,3.9314,28.6175
lg,1625222822040149769,0,0.0864,-0.7151,0.6711,83,31.3721,98.999,33.0811,146,1.4897,1.5077,10.9564,-40.4306,32,0.1751,8965,3.9314,26.981
lg,1625222822040167640,0,-0.124,-0.7522,0.7041,84,20.9351,114.3799,23.1934,146,1.4897,1.5067,14.8589,-40.3636,32,0.1761,8942,3.9314,24.6073
lg,1625222822040186158,0,-0.2236,-0.8308,0.6216,85,16.8457,82.5806,11.5967,146,1.4917,1.5107,17.5592,-40.7174,32,0.1771,8286,3.9314,22.6018
lg,1625222822040204362,0,-0.2896,-0.7932,0.6453,86,20.5688,61.0962,5.7373,146,1.4947,1.5117,19.4861,-40.7697,32,0.1771,8667,3.9314,20.9772
lg,1625222822040223473,0,-0.281,-0.7673,0.6709,87,17.2729,43.7012,5.0659,146,1.4987,1.5117,20.7756,-40.7601,32,0.1781,8277,3.9314,19.8141
lg,1625222822040241954,0,-0.1082,-0.72,0.7432,88,20.2637,11.3525,1.6479,146,1.4987,1.5097,20.5786,-40.1754,32,0.1771,8347,3.9314,19.5007
lg,1625222822040259880,0,-0.0664,-0.8315,0.6704,89,9.5825,1.4648,-22.522,146,1.5047,1.5077,19.3851,-40.5047,32,0.1751,9131,3.9314,18.5725
lg,1625222822040281547,0,-0.0603,-0.9194,0.6133,90,16.0522,16.9067,-18.6768,146,1.5047,1.5037,18.796,-40.8565,32,0.1731,9112,3.9314,17.2914
lg,1625222822040301528,0,-0.0454,-0.8594,0.5684,91,21.6064,31.0059,-11.7798,146,1.5027,1.4997,19.5415,-41.0222,32,0.1711,8777,3.9314,15.627
lg,1625222822040355436,0,-0.2341,-0.7952,0.5164,92,13.855,65.6738,11.8408,146,1.5017,1.4977,21.6133,-41.6248,32,0.1751,12247,3.9314,13.9336
lg,1625222822040389714,0,-0.4326,-0.8867,0.7581,93,-13.2446,44.4946,46.936,107,1.5067,1.5017,24.1331,-42.3711,32,0.1771,9206,3.9666,14.0358
lg,1625222822040408991,0,-0.467,-0.8303,0.6755,94,-15.9912,20.4468,67.4438,107,1.5067,1.5047,26.6658,-42.53,32,0.1771,8448,3.9666,15.5377
lg,1625222822040428528,0,-0.5549,-0.6501,0.6626,95,-18.3105,-23.3765,67.4438,107,1.4987,1.5077,27.9499,-41.9644,32,0.1751,8460,3.9666,18.4645
lg,1625222822040447121,0,-0.2561,-0.5674,1.0933,96,-37.5977,-92.7124,85.2661,107,1.4947,1.5077,26.8032,-40.2322,32,0.1741,9264,3.9666,24.3974
lg,1625222822414019510,0,-0.1042,-0.8901,0.4453,97,-8.9722,-101.6846,-30.1514,107,1.4897,1.5047,22.2179,-40.768,32,0.1701,26581,3.9666,25.8655
lg,1625222822414055639,0,-0.2947,-0.7617,0.5408,98,18.4937,8.7891,14.0991,107,1.4887,1.5067,22.6826,-40.4989,32,0.1711,15346,3.9666,25.8687
lg,1625222822414075676,0,-0.1672,-0.646,0.7556,99,11.7798,-6.897,32.7148,107,1.4877,1.5077,22.7926,-39.5266,32,0.1711,8970,3.9666,27.1447
lg,1625222822414094787,0,-0.0825,-0.7124,0.7856,100,4.1504,-11.6577,33.3862,107,1.4887,1.5087,22.4139,-39.1635,32,0.1731,8643,3.9666,28.4399
lg,1625222822414113454,0,0.0579,-0.8765,0.7212,101,-5.4321,-22.1558,25.2075,107,1.4897,1.5097,21.4094,-39.3131,32,0.1741,8120,3.9666,29.7041
lg,1625222822414131843,0,0.085,-0.9058,0.6841,102,6.2866,11.5967,10.0098,107,1.4907,1.5117,21.0539,-39.6193,32,0.1761,7924,3.9666,29.5115
lg,1625222822414149621,0,0.0444,-0.8772,0.6667,103,12.2681,34.1187,5.4932,107,1.4947,1.5117,21.9949,-39.9132,32,0.1761,8101,3.9666,27.9696
lg,1625222822414167139,0,-0.051,-0.8074,0.7034,104,21.6675,62.0728,-0.2441,107,1.4977,1.5117,23.1354,-40.0913,32,0.1751,7932,3.9666,26.0855
lg,1625222822414184973,0,-0.0544,-0.7378,0.6733,105,26.7334,53.7109,-15.625,107,1.5017,1.5107,23.5929,-40.1435,32,0.1761,7949,3.9666,23.9275
lg,1625222822414202899,0,-0.0728,-0.835,0.6489,106,23.9258,48.0957,-22.7051,107,1.5047,1.5087,23.7296,-40.7699,32,0.1741,8744,3.9666,21.4111
lg,1625222822414220213,0,-0.0774,-0.8726,0.6301,107,19.3481,56.2134,-27.2827,107,1.5037,1.5057,23.9497,-41.5786,32,0.1721,8032,3.9666,18.6662
lg,1625222822414237917,0,-0.1099,-0.8442,0.5159,108,25.3906,64.8804,-19.8364,107,1.5017,1.4997,24.6845,-42.3293,32,0.1711,8017,3.9666,15.8212
lg,1625222822414255324,0,-0.1658,-0.7495,0.4912,109,21.1182,72.6318,10.7422,107,1.5017,1.5017,26.5646,-42.8857,32,0.1711,10187,3.9666,13.7289
lg,1625222822414272547,0,-0.2795,-0.7705,0.6052,110,3.7842,79.1626,26.4282,107,1.5037,1.5027,29.6481,-43.9409,32,0.1761,8113,3.9666,12.8148
lg,1625222822414290232,0,-0.4792,-0.8296,0.7529,111,-17.9443,62.9272,64.0259,107,1.5057,1.5047,32.9594,-44.7628,32,0.1751,8196,3.9666,12.8136
lg,1625222822414308139,0,-0.6169,-0.6711,0.657,112,-22.644,6.5308,75.2563,107,1.5037,1.5067,35.2574,-44.3556,32,0.1761,8554,3.9666,15.1662
lg,1625222822414325473,0,-0.6355,-0.6208,0.6748,113,-27.3438,-65.1855,91.4307,107,1.4967,1.5097,35.8451,-42.1759,32,0.1771,8247,3.9666,20.6886
lg,1625222822414342824,0,-0.1545,-0.5615,0.8384,114,-26.062,-169.1284,67.688,107,1.4957,1.5097,31.445,-38.539,32,0.1761,9464,3.9666,28.6362
lg,1625222822414360010,0,-0.0178,-0.9851,0.8079,115,-67.0166,-176.7578,39.2456,107,1.4947,1.5097,25.8014,-38.6637,32,0.1761,8663,3.9666,34.7833
lg,1625222822414378139,0,0.1125,-0.9167,0.5098,116,-12.5122,-102.356,20.6909,107,1.4937,1.5097,22.0061,-38.6654,32,0.1761,8279,3.9666,37.8852
lg,1625222822414395787,0,-0.0098,-0.9023,0.6262,117,-6.4087,-28.0151,15.1978,107,1.4927,1.5097,20.718,-39.146,32,0.1771,8272,3.9666,38.8931
lg,1625222822414412991,0,-0.1091,-0.7263,0.634,118,13.4888,39.856,38.7573,107,1.4927,1.5107,22.676,-39.081,32,0.1781,11299,3.9666,38.8513
lg,1625222822414429862,0,-0.1746,-0.7368,0.6545,119,8.3008,45.5933,41.1377,107,1.4937,1.5087,24.6295,-39.0781,32,0.1791,8796,3.9666,38.8343
lg,1625222822414446843,0,-0.1235,-0.7988,0.7217,120,7.6904,29.7852,41.9922,107,1.4957,1.5107,25.9063,-38.8823,32,0.1811,8425,3.9666,39.2853
lg,1625222822414463602,0,-0.0964,-0.8167,0.6797,121,8.9111,27.771,27.0996,107,1.4987,1.5117,26.6555,-38.9417,32,0.1821,8348,3.9666,39.2284
lg,1625222822414479954,0,-0.1084,-0.8328,0.6584,122,11.4746,33.2642,21.1792,107,1.5017,1.5097,27.4269,-39.1249,32,0.1821,8388,3.9666,38.7735
lg,1625222822414498195,0,-0.0415,-0.7461,0.74,123,20.2637,38.147,3.1738,107,1.5027,1.5077,27.719,-39.0316,32,0.1831,8392,3.9666,37.6707
lg,1625222822414515695,0,-0.1199,-0.8538,0.6025,124,11.9629,40.3442,-15.7471,107,1.5057,1.5067,27.7661,-40.0309,32,0.1831,8465,3.9666,35.6435
lg,1625222822414535547,0,-0.2727,-0.8931,0.5999,125,2.9297,39.4287,-3.3569,107,1.5067,1.5077,29.0465,-41.3486,32,0.1861,8493,3.9666,34.7871
lg,1625222822414552547,0,-0.3684,-0.8455,0.6453,126,-14.0381,50.4761,38.5742,107,1.5037,1.5117,31.1866,-42.4984,32,0.1851,8494,3.9666,34.3179
lg,1625222822414571250,0,-0.4753,-0.5952,0.7515,127,-9.1553,39.3066,54.7485,107,1.4997,1.5117,33.618,-42.3243,32,0.1851,8539,3.9666,35.0656
lg,1625222822414606454,0,-0.542,-0.6013,0.582,128,-3.1738,-26.9775,11.9019,107,1.4977,1.5127,33.1085,-41.8721,32,0.1851,10270,3.9666,36.2846
lg,1625222822782739065,0,-0.1294,-0.8865,0.5754,129,-16.9067,-75.7446,6.3477,107,1.4957,1.5127,30.0737,-41.8656,32,0.1821,26257,3.9666,38.5123
lg,1625222822782783287,0,-0.1138,-0.8381,0.6597,130,0.3052,-13.916,21.4233,107,1.4957,1.5127,30.0647,-41.6146,32,0.1831,12002,3.9666,39.0997
lg,1625222822782804935,0,0.0242,-0.7974,0.6685,131,8.8501,18.7378,34.8511,107,1.4957,1.5137,30.5491,-41.3942,32,0.1841,8068,3.9666,39.2394
lg,1625222822782825658,0,0.0342,-0.8091,0.6533,132,11.6577,36.1328,28.9917,107,1.4967,1.5137,31.1849,-41.4164,32,0.1841,7966,3.9666,38.9085
lg,1625222822782845769,0,-0.0237,-0.8738,0.6453,133,18.7378,68.4204,20.2637,107,1.4987,1.5137,32.6381,-41.9771,32,0.1851,7966,3.9666,37.183
lg,1625222822782866084,0,-0.1604,-0.8586,0.6653,134,22.4609,77.3315,15.8081,107,1.5027,1.5137,34.3827,-42.7296,32,0.1851,8002,3.9666,34.5857
lg,1625222822782885491,0,-0.0989,-0.7122,0.7271,135,37.6587,71.2891,-6.2256,107,1.5057,1.5097,35.1922,-42.7718,32,0.1821,9630,3.9666,31.9554
lg,1625222822782904602,0,-0.1108,-0.7131,0.6887,136,33.2031,65.979,-20.813,107,1.5037,1.5037,35.4986,-43.489,32,0.1771,8127,3.9666,28.8033
lg,1625222822782923380,0,-0.1648,-0.8525,0.6389,137,24.4751,72.2046,-34.6069,107,1.4997,1.4957,35.5726,-45.1082,32,0.1751,8051,3.9666,24.8491
lg,1625222822782941046,0,-0.2068,-0.7939,0.4915,138,33.8745,89.1724,-34.668,107,1.4967,1.4887,36.1662,-46.9157,32,0.1731,8058,3.9666,20.1398
lg,1625222822782959046,0,-0.4766,-0.7258,0.5803,139,10.0708,97.8394,-3.9673,107,1.4967,1.4847,38.2849,-48.9867,32,0.1761,8980,3.9666,16.2396
lg,1625222822782977046,0,-0.5886,-0.7117,0.6333,140,-4.4556,92.9565,32.4707,107,1.5007,1.4877,41.8341,-50.143,32,0.1771,8876,3.9666,15.0037
lg,1625222822782995158,0,-0.8223,-0.6655,0.6929,141,-16.6016,47.0581,58.2275,107,1.5007,1.4917,44.7562,-50.4918,32,0.1761,8175,3.9666,15.2283
lg,1625222822783013491,0,-0.9375,-0.623,0.7441,142,-29.541,-57.4341,58.96,107,1.5007,1.4947,45.0263,-47.9498,32,0.1751,8559,3.9666,20.1832
lg,1625222822783031806,0,-0.834,-0.6365,0.6697,143,-46.2036,-172.6074,67.8711,107,1.4987,1.4977,42.0376,-43.0942,32,0.1771,8206,3.9666,29.7648
lg,1625222822783049991,0,-0.1453,-0.6128,0.907,144,-58.0444,-238.1592,70.0073,107,1.4967,1.4997,33.2278,-37.7101,32,0.1801,9587,3.9666,41.7098
lg,1625222822783067417,0,0.1997,-0.9824,0.5903,145,-53.5278,-331.4819,16.4795,107,1.4957,1.5027,22.5779,-37.8103,32,0.1801,10132,3.9666,49.8268
lg,1625222822783085269,0,0.4224,-1.0825,0.5959,146,-74.0967,-254.9438,15.9912,107,1.4947,1.5027,13.6221,-39.3975,32,0.1801,8572,3.9666,56.7071
lg,1625222822783103380,0,0.4807,-1.0149,0.3608,147,-15.9912,-79.6509,0.7324,107,1.4947,1.5037,9.8891,-40.6739,32,0.1801,8309,3.9666,58.5825
lg,1625222822783121621,0,0.0879,-0.8635,0.5288,148,31.6162,102.5391,16.6016,107,1.4937,1.5047,12.8522,-40.546,32,0.1811,9023,3.9666,56.2435
lg,1625222822783139435,0,-0.1228,-0.6777,0.6636,149,42.7856,131.4087,22.9492,107,1.4937,1.5047,17.2289,-39.8318,32,0.1831,8310,3.9666,53.2141
lg,1625222822783159972,0,-0.2004,-0.6963,0.6904,150,34.729,118.103,14.2822,107,1.4957,1.5057,20.9812,-39.5519,32,0.1831,9086,3.9666,50.4134
lg,1625222822783179213,0,-0.2559,-0.8022,0.7078,151,20.5078,67.688,8.5449,107,1.4977,1.5067,22.9791,-39.6889,32,0.1861,8696,3.9666,48.6976
lg,1625222822783197695,0,-0.2417,-0.7734,0.5938,152,26.1841,39.6729,2.5024,107,1.4987,1.5057,23.9168,-39.5725,32,0.1871,8367,3.9666,47.4681
lg,1625222822783215009,0,-0.2131,-0.7078,0.6943,153,25.0244,27.2827,-0.4272,107,1.5007,1.5077,23.8294,-39.4074,32,0.1891,8600,3.9666,46.9244
lg,1625222822783232584,0,-0.3062,-0.7827,0.6782,154,-3.2959,4.2114,9.3384,107,1.5007,1.5087,23.9114,-39.8491,32,0.1891,8360,3.9666,46.9622
lg,1625222822783250509,0,-0.3074,-0.7554,0.8528,155,-7.1411,8.4839,40.8936,107,1.4977,1.5097,24.8634,-39.7222,32,0.1901,9170,3.9666,48.0756
lg,1625222822783268750,0,-0.415,-0.637,0.6069,156,-1.4038,-9.4604,12.085,107,1.4977,1.5107,24.8977,-39.745,32,0.1901,8470,3.9666,48.6458
lg,1625222822783286695,0,-0.3748,-0.731,0.6587,157,-10.1929,-39.2456,24.0479,107,1.4967,1.5107,24.1541,-39.6789,32,0.1901,8840,3.9666,50.4265
lg,1625222822783305158,0,-0.4128,-0.791,0.6912,158,-9.2773,-44.7388,15.3809,107,1.4967,1.5117,23.5062,-39.8177,32,0.1911,9384,3.9666,51.7019
lg,1625222822783323009,0,-0.3652,-0.7988,0.7463,159,-3.1128,-23.9258,26.3672,107,1.4967,1.5107,23.2494,-39.6069,32,0.1921,8555,3.9666,53.1393
lg,1625222822783340972,0,-0.2231,-0.8167,0.7681,160,-5.9814,-44.6167,23.8037,107,1.4987,1.5117,22.0147,-39.3557,32,0.1911,9319,3.9666,55.0503
lg,1625222823145328972,0,0.0525,-0.8755,0.7034,161,2.1973,-6.4087,-31.9214,107,1.5047,1.5047,20.0679,-40.0717,32,0.1851,26861,3.9666,53.9947
lg,1625222823145364694,0,-0.0247,-0.8477,0.3481,162,16.3574,22.4609,-49.8047,107,1.5007,1.4957,18.8073,-41.2649,32,0.1801,17001,3.9666,51.3952
lg,1625222823145385769,0,-0.1357,-0.813,0.416,163,12.5122,60.0586,-21.1792,107,1.5007,1.4947,19.6577,-42.4129,32,0.1811,7941,3.9666,48.7468
lg,1625222823145405843,0,-0.377,-0.9365,0.6936,164,-4.4556,83.9233,11.0474,107,1.5037,1.4977,22.9134,-44.0331,32,0.1831,7941,3.9666,47.2957
lg,1625222823145425769,0,-0.46,-0.8008,0.5396,165,-17.8223,59.9976,44.0674,107,1.5057,1.5017,25.956,-45.4001,32,0.1831,8072,3.9666,46.6275
lg,1625222823145444157,0,-0.6245,-0.6113,0.6121,166,-15.9912,-2.0142,48.0957,107,1.5037,1.5057,27.6492,-45.297,32,0.1841,7960,3.9666,48.217
lg,1625222823145462509,0,-0.553,-0.5928,0.6697,167,-16.7236,-42.1753,54.7485,107,1.4987,1.5077,26.5859,-43.9789,32,0.1841,8528,3.9666,53.2464
lg,1625222823145480787,0,-0.1421,-0.5466,1.0618,168,-36.0718,-167.5415,46.1426,107,1.4977,1.5097,22.2393,-42.0109,32,0.1861,8625,3.9666,60.0628
lg,1625222823145544269,0,0.0542,-0.8789,0.4995,169,-56.3965,-218.3228,-21.3013,107,1.4957,1.5087,14.3581,-43.2542,32,0.1861,8060,3.9666,65.3591
lg,1625222823145565583,0,0.3191,-1.0425,0.5256,170,-32.5928,-143.0054,-13.4888,107,1.4947,1.5087,8.7953,-44.5666,32,0.1851,8051,3.9666,68.839
lg,1625222823145584102,0,0.312,-0.9924,0.4421,171,-14.9536,-78.7354,-18.4937,107,1.4937,1.5077,5.1318,-45.7463,32,0.1841,8141,3.9666,70.4539
lg,1625222823145601935,0,-0.0471,-0.8638,0.4041,172,27.3438,83.6182,-12.207,107,1.4937,1.5077,7.0228,-45.6858,32,0.1851,8143,3.9666,67.6322
lg,1625222823145619806,0,-0.3225,-0.675,0.5493,173,51.2695,149.292,22.7661,107,1.4937,1.5097,12.3777,-44.4362,32,0.1861,8301,3.9666,63.974
lg,1625222823145637657,0,-0.3987,-0.6091,0.6218,174,47.1802,132.8125,30.7617,107,1.4937,1.5097,17.5105,-43.287,32,0.1871,8109,3.9666,61.0823
lg,1625222823145657157,0,-0.3911,-0.6614,0.6865,175,23.0103,63.8428,38.9404,107,1.4927,1.5107,20.6135,-42.59,32,0.1881,8140,3.9666,60.438
lg,1625222823145676065,0,-0.2859,-0.812,0.7141,176,8.1787,4.7607,48.0957,107,1.4927,1.5107,21.8167,-41.9997,32,0.1891,8198,3.9666,61.7374
lg,1625222823145693657,0,-0.1755,-0.8481,0.7476,177,7.8125,-11.4746,48.7671,107,1.4947,1.5107,22.2606,-41.2428,32,0.1901,8176,3.9666,63.5329
lg,1625222823145711343,0,0.0417,-0.8516,0.7676,178,10.6812,-23.8647,37.1094,107,1.4977,1.5117,21.578,-40.3924,32,0.1911,8156,3.9666,65.3016
lg,1625222823145728639,0,0.1687,-0.8308,0.7817,179,14.1602,-0.4883,19.043,107,1.5027,1.5107,20.9617,-39.8747,32,0.1891,8258,3.9666,65.829
lg,1625222823145746546,0,0.1116,-0.8513,0.7168,180,24.292,39.6118,-12.4512,107,1.5047,1.5067,20.8404,-39.8524,32,0.1861,8318,3.9666,64.1789
lg,1625222823145763991,0,-0.0452,-0.8496,0.5835,181,29.9683,71.8994,-27.771,107,1.5037,1.5037,21.623,-40.3548,32,0.1861,9965,3.9666,61.0449
lg,1625222823145781343,0,-0.1567,-0.7849,0.5752,182,30.2734,100.5249,0.2441,107,1.5047,1.5027,24.1915,-40.8037,32,0.1861,8307,3.9666,58.0004
lg,1625222823145810472,0,-0.2388,-0.7913,0.6228,183,23.1323,115.2954,16.9678,107,1.5047,1.5027,27.8954,-41.409,32,0.1901,8253,3.9666,55.0626
lg,1625222823145829343,0,-0.5388,-0.8057,0.7737,184,-4.4556,111.3892,35.7056,107,1.5067,1.5047,32.042,-42.8851,32,0.1911,9528,3.9666,52.7343
lg,1625222823145846194,0,-0.6748,-0.6787,0.6494,185,-17.7612,42.0532,63.2935,107,1.5057,1.5097,35.1244,-43.2455,32,0.1891,8868,3.9666,53.5033
lg,1625222823145863768,0,-0.6697,-0.5972,0.7935,186,-16.4795,-31.9214,59.7534,107,1.5007,1.5107,35.7539,-41.7652,32,0.1891,8401,3.9666,56.8811
lg,1625222823145881935,0,-0.2893,-0.5432,0.8962,187,-29.1138,-131.2256,40.2222,107,1.4997,1.5117,32.0586,-39.3209,32,0.1911,8448,3.9666,62.7482
lg,1625222823145900194,0,-0.2058,-0.7063,0.5098,188,-38.7573,-179.0771,15.3809,107,1.4977,1.5117,26.225,-38.7242,32,0.1891,8483,3.9666,68.1217
lg,1625222823145917491,0,0.0422,-0.9758,0.623,189,-46.5088,-141.6016,16.2964,107,1.4947,1.5117,21.2404,-39.5639,32,0.1901,8466,3.9666,72.2422
lg,1625222823145937509,0,-0.0935,-0.9631,0.5759,190,-7.6904,-8.1787,10.0708,107,1.4967,1.5137,20.6464,-40.4725,32,0.1901,8504,3.9666,72.5089
lg,1625222823145957231,0,-0.1958,-0.7524,0.6331,191,22.0947,57.251,28.2593,107,1.4967,1.5117,22.7484,-40.2218,32,0.1911,8906,3.9666,71.6962
lg,1625222823145974565,0,-0.1909,-0.6953,0.6726,192,17.5781,47.4243,26.8555,107,1.4967,1.5127,24.3973,-39.9484,32,0.1921,8945,3.9666,71.1538
lg,1625222823516772750,0,-0.1506,-0.8616,0.6929,193,11.8408,24.6582,7.6294,107,1.5037,1.5137,24.7057,-40.1317,32,0.1961,26147,3.9666,70.5133
lg,1625222823516847157,0,-0.082,-0.7493,0.5671,194,15.0146,6.5308,-14.8926,107,1.5067,1.5117,23.7711,-40.351,32,0.1931,13558,3.9666,69.6031
lg,1625222823516880083,0,-0.2048,-0.9041,0.5659,195,-1.5869,22.8882,-4.2725,107,1.5077,1.5127,23.8738,-41.4624,32,0.1961,8051,3.9666,68.5128
lg,1625222823516909250,0,-0.2729,-0.9448,0.6633,196,-13.3057,33.9355,19.3481,107,1.5077,1.5147,25.0996,-42.5991,32,0.1981,7891,3.9666,67.9584
lg,1625222823516936768,0,-0.3887,-0.7224,0.6338,197,-9.2773,37.2925,41.748,107,1.5047,1.5167,27.1964,-43.1053,32,0.1981,8289,3.9666,68.0838
lg,1625222823516964991,0,-0.4297,-0.5388,0.9084,198,-2.1973,18.4326,35.2783,107,1.5027,1.5167,28.5059,-42.3856,32,0.1981,9714,3.9666,68.926
lg,1625222823516990379,0,-0.4087,-0.6931,0.646,199,-21.2402,-70.1294,6.897,107,1.5017,1.5167,26.4241,-42.3211,32,0.1971,9226,3.9666,71.2064
lg,1625222823517021472,0,-0.0691,-0.8713,0.489,200,-19.2261,-80.2612,1.5869,107,1.5007,1.5147,23.2965,-42.8333,32,0.1941,14231,3.9666,73.313
lg,1625222823517051213,0,-0.1021,-0.9019,0.5322,201,-10.0708,-30.1514,1.8921,107,1.5007,1.5147,21.8136,-43.5575,32,0.1951,8452,3.9666,73.9973
lg,1625222823517077287,0,-0.2983,-0.8186,0.5967,202,16.1743,47.8516,23.9868,107,1.4997,1.5147,23.6459,-43.5878,32,0.1951,8031,3.9666,73.1593
lg,1625222823517176602,0,-0.3118,-0.6843,0.6218,203,19.2871,32.1045,33.8135,107,1.4997,1.5147,25.2994,-42.9307,32,0.1961,8456,3.9666,73.2033
lg,1625222823517215139,0,-0.2175,-0.7764,0.688,204,11.9629,12.9395,34.9121,93,1.5007,1.5157,25.6088,-42.4968,32,0.1961,8858,3.9864,74.2519
lg,1625222823517242065,0,-0.165,-0.8342,0.6838,205,1.5259,-15.625,30.3345,93,1.5027,1.5157,25.3095,-42.1511,32,0.1971,8823,3.9864,75.559
lg,1625222823517269509,0,-0.0142,-0.8674,0.6907,206,7.3242,-18.1274,17.395,93,1.5057,1.5167,24.3021,-41.7919,32,0.1981,9031,3.9864,76.4886
lg,1625222823517296028,0,0.0774,-0.7893,0.7666,207,21.5454,7.3242,1.4038,93,1.5087,1.5147,23.4779,-41.1675,32,0.1961,8943,3.9864,76.2447
lg,1625222823517325528,0,0.0308,-0.8489,0.6553,208,19.9585,35.0342,-23.9868,93,1.5077,1.5107,22.9378,-41.5458,32,0.1921,8534,3.9864,74.2648
lg,1625222823517353676,0,-0.0276,-0.8757,0.5859,209,23.3154,48.3398,-30.3955,93,1.5057,1.5057,22.8538,-42.2562,32,0.1881,8955,3.9864,71.6009
lg,1625222823517381213,0,-0.2002,-0.8062,0.4807,210,23.8647,74.0967,-25.6348,93,1.5057,1.5047,23.9268,-43.1943,32,0.1901,8246,3.9864,68.315
lg,1625222823517408694,0,-0.4888,-0.8486,0.7339,211,-9.5825,92.041,38.208,93,1.5077,1.5067,27.6025,-44.5045,32,0.1931,8260,3.9864,66.6026
lg,1625222823517436583,0,-0.7073,-0.6167,0.6599,212,-12.9395,49.8657,59.5093,93,1.5067,1.5097,31.0861,-44.793,32,0.1921,8980,3.9864,66.9572
lg,1625222823517463268,0,-0.7986,-0.5959,0.7664,213,-9.4604,18.3716,50.7202,93,1.5017,1.5127,33.3461,-44.1685,32,0.1931,8687,3.9864,68.2713
lg,1625222823517490657,0,-0.5254,-0.4873,1.1245,214,-18.5547,-96.9238,47.9736,93,1.4997,1.5137,31.4829,-41.4535,32,0.1921,8728,3.9864,73.551
lg,1625222823517518435,0,-0.2759,-0.813,0.7024,215,-64.0869,-226.5625,-3.3569,93,1.4997,1.5127,23.9866,-41.2413,32,0.1911,8820,3.9864,80.0331
lg,1625222823517550509,0,0.1201,-0.9634,0.4944,216,-46.1426,-198.9746,-6.8359,93,1.4977,1.5077,16.812,-42.0615,32,0.1901,11676,3.9864,85.1081
lg,1625222823517579546,0,0.0933,-0.9517,0.458,217,-17.6392,-57.0679,-14.7705,93,1.4977,1.5097,13.9391,-43.3307,32,0.1911,8773,3.9864,86.0192
lg,1625222823517606879,0,-0.1814,-0.8296,0.4851,218,19.6533,67.4438,11.7188,93,1.4967,1.5107,16.0969,-43.5931,32,0.1901,8823,3.9864,84.2891
lg,1625222823517635916,0,-0.3,-0.6814,0.636,219,25.8789,82.4585,22.7051,93,1.4967,1.5107,18.9352,-43.0712,32,0.1911,8866,3.9864,83.0728
lg,1625222823517706879,0,-0.3225,-0.6741,0.6665,220,14.4043,46.6309,28.1372,93,1.4967,1.5107,21.0485,-42.7375,32,0.1921,8484,3.9864,82.5674
lg,1625222823517741009,0,-0.2568,-0.8118,0.635,221,-2.5024,-4.3945,28.1982,93,1.4957,1.5137,21.4117,-42.8374,32,0.1931,8867,3.9864,83.4486
lg,1625222823517772028,0,-0.1018,-0.8643,0.6626,222,-1.5869,-30.5176,26.9165,93,1.4987,1.5137,20.6294,-42.6755,32,0.1941,8858,3.9864,85.0359
lg,1625222823517799120,0,0.0015,-0.834,0.6431,223,3.3569,-15.0757,28.9307,93,1.4997,1.5147,20.1742,-42.4708,32,0.1961,8550,3.9864,86.2356
lg,1625222823517830453,0,0.0178,-0.8162,0.5933,224,6.2866,-1.2207,31.1279,93,1.5027,1.5157,20.1419,-42.2266,32,0.1951,8926,3.9864,87.1218
lg,1625222823885295268,0,0.1084,-0.8586,0.7925,225,26.4282,39.978,-48.7061,93,1.4997,1.5017,19.0343,-42.2711,32,0.1791,27804,3.9864,84.378
lg,1625222823885333324,0,-0.0474,-0.9595,0.5381,226,46.1426,119.0796,-88.1348,93,1.4927,1.4837,19.5052,-43.2173,32,0.1701,15945,3.9864,77.9682
lg,1625222823885353713,0,-0.2051,-0.6917,0.3792,227,59.7534,159.8511,-63.0493,93,1.4917,1.4737,22.2079,-43.93,32,0.1681,7921,3.9864,71.0542
lg,1625222823885372564,0,-0.3533,-0.5942,0.5845,228,30.1514,174.8657,-12.207,93,1.4917,1.4697,26.8402,-45.1785,32,0.1701,7909,3.9864,65.2498
lg,1625222823885390324,0,-0.561,-0.7271,0.7866,229,5.188,179.0161,7.0801,93,1.4927,1.4687,31.9696,-47.6807,32,0.1731,7916,3.9864,59.5543
lg,1625222823885408287,0,-0.9558,-0.8979,0.7144,230,-18.0664,113.8306,41.8091,93,1.4947,1.4697,36.4936,-50.1219,32,0.1741,7938,3.9864,56.6409
lg,1625222823885425694,0,-1.1138,-0.6816,0.689,231,-17.8223,-11.9019,53.4668,93,1.4977,1.4777,38.3006,-49.2995,32,0.1731,10493,3.9864,58.9576
lg,1625222823885443657,0,-0.9773,-0.4348,0.7175,232,-22.7051,-155.7007,74.646,93,1.4987,1.4837,36.7161,-44.526,32,0.1741,8620,3.9864,67.6752
lg,1625222823885461009,0,-0.6504,-0.6548,0.613,233,-76.8433,-302.7954,87.8906,93,1.4957,1.4907,30.201,-40.5496,32,0.1751,9937,3.9864,80.53
lg,1625222823885477879,0,0.0164,-0.8884,0.6418,234,-89.5386,-385.8032,86.6699,93,1.4917,1.4937,19.499,-38.9142,32,0.1771,8783,3.9864,93.9411
lg,1625222823885501805,0,0.4128,-0.9019,0.7402,235,-68.4204,-375.1831,64.3921,93,1.4907,1.4947,8.1421,-39.2611,32,0.1771,8487,3.9864,105.5195
lg,1625222823885519805,0,0.708,-1.0964,0.5198,236,-63.2935,-240.6616,18.0664,93,1.4897,1.4957,-0.0277,-42.1192,32,0.1771,8045,3.9864,112.2589
lg,1625222823885537546,0,0.6992,-1.0164,0.4312,237,-4.2725,-21.4233,11.0474,93,1.4897,1.4967,-1.5689,-43.0911,32,0.1771,8842,3.9864,113.1733
lg,1625222823885555787,0,0.343,-0.9541,0.4414,238,12.8174,95.0928,-4.3945,93,1.4887,1.4967,3.4631,-42.5651,32,0.1771,8489,3.9864,108.3661
lg,1625222823885573379,0,-0.1687,-0.7969,0.6155,239,40.6494,200.9277,9.7046,93,1.4887,1.4977,9.8754,-41.9156,32,0.1781,8091,3.9864,103.1926
lg,1625222823885611898,0,-0.3958,-0.7,0.5696,240,30.8228,153.6255,17.6392,93,1.4887,1.4987,15.4344,-41.807,32,0.1791,8121,3.9864,99.4677
lg,1625222823885630657,0,-0.4312,-0.7214,0.592,241,22.8882,114.6851,21.4233,93,1.4887,1.5007,19.6817,-41.9495,32,0.1801,8141,3.9864,96.8394
lg,1625222823885647898,0,-0.3738,-0.7656,0.6304,242,13.9771,48.1567,36.9263,93,1.4897,1.5027,22.1336,-41.792,32,0.1811,8566,3.9864,96.5226
lg,1625222823885665250,0,-0.1638,-0.7417,0.668,243,9.2163,3.9062,44.1284,93,1.4927,1.5027,22.915,-41.1708,32,0.1831,8225,3.9864,97.7401
lg,1625222823885682694,0,0.0696,-0.7703,0.7566,244,13.6719,-13.855,23.8647,93,1.4977,1.5027,22.1019,-40.3545,32,0.1841,9109,3.9864,98.8355
lg,1625222823885699416,0,0.1882,-0.8135,0.8652,245,22.2168,1.5259,-19.8975,93,1.5027,1.4987,20.4617,-39.8348,32,0.1821,13969,3.9864,98.0905
lg,1625222823885716435,0,0.0869,-0.9209,0.7161,246,26.062,62.2559,-66.8335,93,1.5027,1.4957,19.6905,-40.6322,32,0.1811,8612,3.9864,94.0318
lg,1625222823885733009,0,-0.1477,-0.9067,0.407,247,46.3257,133.3008,-81.1157,93,1.5007,1.4947,21.1525,-42.0134,32,0.1801,8275,3.9864,87.3349
lg,1625222823885750157,0,-0.3469,-0.688,0.45,248,52.4292,147.3999,-69.8853,93,1.5007,1.4957,24.6241,-43.1698,32,0.1801,9072,3.9864,80.9912
lg,1625222823885767324,0,-0.6387,-0.7805,0.8152,249,20.2026,165.2832,-20.0195,93,1.5017,1.4967,29.4352,-45.8442,32,0.1841,9953,3.9864,75.9569
lg,1625222823885783879,0,-0.8381,-0.8357,0.7383,250,-22.7051,141.3574,19.2871,93,1.5047,1.4997,34.4142,-49.3302,32,0.1851,9314,3.9864,71.4722
lg,1625222823885800787,0,-1.1165,-0.7229,0.637,251,-27.0996,32.0435,41.626,93,1.5047,1.5077,37.0736,-50.3098,32,0.1841,8778,3.9864,71.5968
lg,1625222823885817694,0,-1.032,-0.5869,0.8223,252,-19.8364,-106.5063,77.6367,93,1.4997,1.5067,36.9435,-46.6015,32,0.1841,10489,3.9864,78.5128
lg,1625222823885854305,0,-0.5085,-0.4548,0.7764,253,-54.5044,-286.9873,72.0215,93,1.4947,1.5077,30.4829,-41.4031,32,0.1841,8537,3.9864,90.9775
lg,1625222823885872805,0,0.0139,-0.7532,0.2434,254,-70.8618,-394.8364,23.9868,93,1.4957,1.5047,18.2717,-40.485,32,0.1831,8975,3.9864,102.4108
lg,1625222823885890305,0,0.4854,-1.0857,0.5393,255,-85.2661,-270.5078,46.3257,93,1.4947,1.5017,10.0315,-42.5529,32,0.1831,8890,3.9864,110.9679
lg,1625222823885907361,0,0.5662,-1.1465,0.4468,256,-49.8047,-178.894,37.1704,93,1.4947,1.5027,4.8149,-44.7286,32,0.1831,8709,3.9864,116.8748
lg,1625222824265481749,0,0.0879,-0.6436,0.5947,257,32.5317,113.2812,34.0576,93,1.4957,1.5067,8.8451,-43.816,32,0.1861,27089,3.9864,114.651
lg,1625222824265572379,0,-0.1826,-0.8938,0.6777,258,13.6108,110.7178,23.5596,93,1.4977,1.5077,12.6851,-44.0754,32,0.1881,8977,3.9864,112.1516
lg,1625222824265644842,0,-0.1594,-0.8533,0.6726,259,22.8882,75.5005,7.6904,93,1.5017,1.5077,14.8876,-43.9217,32,0.1881,8618,3.9864,110.1469
lg,1625222824265678175,0,-0.0425,-0.7642,0.6716,260,27.2217,60.4248,-11.8408,93,1.5057,1.5067,15.8039,-43.5739,32,0.1871,7904,3.9864,108.0048
lg,1625222824265708027,0,-0.0574,-0.8342,0.4233,261,23.2544,60.4858,-21.0571,93,1.5067,1.5037,16.2754,-44.1186,32,0.1871,8345,3.9864,105.3316
lg,1625222824265735583,0,-0.095,-0.8425,0.4343,262,25.2686,63.9648,-27.2827,93,1.5057,1.5017,16.9437,-44.6196,32,0.1871,8623,3.9864,102.4387
lg,1625222824265764175,0,-0.283,-0.8567,0.5496,263,16.9678,114.8682,9.7046,93,1.5067,1.5037,20.3983,-45.4464,32,0.1911,8560,3.9864,99.1427
lg,1625222824265792768,0,-0.4932,-0.8179,0.729,264,1.2817,129.6997,49.4995,93,1.5087,1.5047,25.5455,-46.4945,32,0.1921,7967,3.9864,96.5368
lg,1625222824265820916,0,-0.6445,-0.7019,0.7146,265,8.1787,117.7368,45.2881,93,1.5087,1.5067,29.5694,-46.6999,32,0.1921,8341,3.9864,95.2493
lg,1625222824265848416,0,-0.7786,-0.6104,0.698,266,-19.7144,-46.3257,54.9316,93,1.5057,1.5087,30.2854,-45.6293,32,0.1911,8064,3.9864,98.6573
lg,1625222824265875860,0,-0.7332,-0.6699,0.7131,267,-35.8887,-99.6094,58.5327,93,1.5007,1.5107,29.3936,-44.3876,32,0.1921,8068,3.9864,103.8757
lg,1625222824265903731,0,-0.2512,-0.6355,0.8984,268,-39.3066,-184.7534,57.0068,93,1.4987,1.5107,24.9671,-42.1012,32,0.1911,9169,3.9864,111.6235
lg,1625222824265930009,0,0.002,-0.8181,0.5459,269,-45.105,-205.0781,14.8315,93,1.4977,1.5127,18.3864,-42.1262,32,0.1921,8479,3.9864,117.7663
lg,1625222824265957731,0,0.1929,-0.9302,0.47,270,-24.4751,-113.0981,15.4419,93,1.4977,1.5127,14.4322,-42.8887,32,0.1911,9510,3.9864,121.1739
lg,1625222824265989027,0,-0.1069,-0.9197,0.616,271,8.728,36.499,10.498,93,1.4977,1.5137,15.4384,-43.2529,32,0.1911,8944,3.9864,120.3237
lg,1625222824266018712,0,-0.1536,-0.8198,0.7261,272,26.8555,62.3779,22.7661,93,1.4977,1.5137,17.6101,-42.5394,32,0.1911,8893,3.9864,119.2258
lg,1625222824266046434,0,-0.1533,-0.6829,0.6602,273,19.104,43.0908,18.0664,93,1.4987,1.5137,19.0272,-42.1157,32,0.1931,8932,3.9864,118.5196
lg,1625222824266074027,0,-0.1802,-0.8369,0.6995,274,7.1411,33.5083,16.7236,93,1.4997,1.5147,20.0849,-42.295,32,0.1941,8222,3.9864,117.9806
lg,1625222824266102120,0,-0.176,-0.8477,0.6116,275,8.1177,32.0435,11.5356,93,1.5017,1.5157,20.5694,-42.4021,32,0.1971,8196,3.9864,117.3627
lg,1625222824266128805,0,-0.1555,-0.7612,0.6218,276,15.9302,15.3809,4.7607,93,1.5017,1.5137,20.6983,-42.2072,32,0.1971,8259,3.9864,116.9478
lg,1625222824266154583,0,-0.179,-0.7224,0.676,277,-1.0986,5.249,10.376,93,1.4997,1.5157,20.7183,-42.3726,32,0.1981,9056,3.9864,117.058
lg,1625222824266200694,0,-0.2014,-0.7725,0.7417,278,-14.0381,-2.8687,14.7705,93,1.5007,1.5177,20.6338,-42.8853,32,0.1981,8276,3.9864,117.5538
lg,1625222824266232064,0,-0.3301,-0.7866,0.6545,279,-9.5215,3.7231,8.4229,93,1.4977,1.5167,21.2316,-43.6761,32,0.1961,8318,3.9864,117.2541
lg,1625222824266260138,0,-0.4902,-0.7966,0.6763,280,-8.7891,1.0376,7.2632,93,1.4957,1.5117,21.6155,-44.1757,32,0.1951,8740,3.9864,117.3668
lg,1625222824266286749,0,-0.4275,-0.7527,0.6677,281,-10.9863,-44.1895,5.4321,93,1.4957,1.5137,20.5602,-44.2326,32,0.1941,8380,3.9864,118.8009
lg,1625222824266312972,0,-0.261,-0.8198,0.606,282,-14.9536,-54.3823,20.3247,93,1.4957,1.5117,19.3412,-44.4325,32,0.1931,9161,3.9864,120.9099
lg,1625222824266339879,0,-0.1848,-0.9004,0.6196,283,-11.5967,-42.1753,23.7427,93,1.4957,1.5127,18.8505,-44.5774,32,0.1941,8827,3.9864,122.2668
lg,1625222824266365601,0,-0.1328,-0.864,0.6375,284,0.1221,-17.395,23.4375,93,1.4957,1.5137,18.555,-44.5425,32,0.1951,8447,3.9864,123.3685
lg,1625222824266393064,0,0.0061,-0.803,0.6458,285,3.2349,-13.7329,12.146,93,1.4967,1.5147,17.7716,-44.4396,32,0.1961,8448,3.9864,124.0511
lg,1625222824266421842,0,0.0117,-0.8511,0.6348,286,0.8545,6.4087,-1.8311,93,1.4987,1.5147,17.1885,-44.8338,32,0.1961,8824,3.9864,123.6987
lg,1625222824266448675,0,-0.0618,-0.916,0.668,287,6.7139,34.668,-10.376,93,1.5027,1.5167,17.3201,-45.3253,32,0.1971,11182,3.9864,122.2544
lg,1625222824266475064,0,-0.0667,-0.8525,0.7231,288,13.1836,45.3491,-23.2544,93,1.5047,1.5147,17.3748,-45.5773,32,0.1941,8569,3.9864,120.1634
lg,1625222824630824471,0,-0.1287,-0.8735,0.3608,289,25.3906,64.0869,-59.1431,93,1.4987,1.4977,17.3926,-46.104,32,0.1841,27122,3.9864,116.2915
lg,1625222824630870564,0,-0.1169,-0.7056,0.4653,290,36.6211,85.3882,-9.0942,93,1.4967,1.4937,20.7575,-46.4487,32,0.1821,12524,3.9864,112.9729
lg,1625222824630891786,0,-0.3789,-0.8042,0.6672,291,5.7373,135.0708,24.231,93,1.4967,1.4937,25.0804,-47.7606,32,0.1861,8017,3.9864,109.3291
lg,1625222824630911323,0,-0.7134,-0.8679,0.7388,292,-11.9629,90.6982,47.5464,93,1.4997,1.4947,29.1583,-49.0402,32,0.1881,7935,3.9864,107.6601
lg,1625222824630930249,0,-0.79,-0.7634,0.6023,293,-15.8691,38.208,57.9834,93,1.5017,1.4987,32.4298,-49.376,32,0.1871,7895,3.9864,108.1083
lg,1625222824630958231,0,-0.7979,-0.5371,0.625,294,-14.7095,-76.7212,58.96,93,1.5017,1.5037,32.6188,-47.1834,32,0.1881,8382,3.9864,112.8692
lg,1625222824630977064,0,-0.6628,-0.592,0.6519,295,-40.5273,-168.1519,76.5991,93,1.4987,1.5077,30.3187,-44.3363,32,0.1881,8736,3.9864,121.1449
lg,1625222824630996249,0,-0.1001,-0.7825,0.8149,296,-66.5894,-272.522,90.3931,93,1.4977,1.5097,23.9085,-41.8121,32,0.1911,8958,3.9864,132.4455
lg,1625222824631014694,0,0.3745,-0.9705,0.4592,297,-46.0815,-267.6392,31.0059,93,1.4957,1.5087,15.314,-41.6555,32,0.1911,7996,3.9864,140.6125
lg,1625222824631033268,0,0.51,-1.1138,0.6875,298,-56.7627,-194.5801,30.7007,93,1.4957,1.5087,9.0958,-43.1889,32,0.1911,8006,3.9864,146.7596
lg,1625222824631051786,0,0.5457,-1.0229,0.4417,299,0.8545,-28.1982,14.1602,93,1.4957,1.5077,7.3876,-43.7884,32,0.1911,8111,3.9864,147.8347
lg,1625222824631094842,0,0.0063,-0.8848,0.5779,300,35.2173,166.5649,3.2959,93,1.4957,1.5077,11.9636,-43.6628,32,0.1921,8075,3.9864,143.1865
lg,1625222824631116731,0,-0.2007,-0.7825,0.5579,301,48.0957,200.0732,10.2539,93,1.4957,1.5067,18.0004,-43.568,32,0.1931,8143,3.9864,137.6865
lg,1625222824631135008,0,-0.396,-0.668,0.5818,302,45.3491,160.6445,8.0566,93,1.4977,1.5117,23.0851,-43.5254,32,0.1941,8564,3.9864,133.1396
lg,1625222824631153119,0,-0.4294,-0.7253,0.6594,303,31.189,93.811,6.6528,93,1.5007,1.5127,25.9896,-43.5302,32,0.1961,8131,3.9864,130.4405
lg,1625222824631172490,0,-0.3411,-0.7673,0.7812,304,28.3813,46.7529,-0.5493,93,1.5047,1.5137,26.9777,-43.0756,32,0.1961,11155,3.9864,128.9698
lg,1625222824631190657,0,-0.1509,-0.7329,0.7122,305,35.1562,18.7378,-9.8267,93,1.5077,1.5127,25.5266,-42.3489,32,0.1961,8379,3.9864,128.1796
lg,1625222824631208934,0,-0.1196,-0.7981,0.6716,306,20.3857,-9.5215,-35.5225,93,1.5077,1.5087,23.5565,-42.2158,32,0.1941,8330,3.9864,127.1689
lg,1625222824631227453,0,-0.0667,-0.8071,0.5088,307,25.3906,-2.4414,-29.3579,93,1.5067,1.5097,21.9652,-42.1897,32,0.1921,8186,3.9864,126.0355
lg,1625222824631246045,0,-0.1157,-0.8164,0.5901,308,7.2021,44.0674,-5.188,93,1.5077,1.5107,22.5243,-42.9461,32,0.1951,8269,3.9864,124.395
lg,1625222824631263601,0,-0.2212,-0.8682,0.7703,309,-9.6436,68.4204,15.0757,93,1.5087,1.5137,24.446,-44.18,32,0.1981,8233,3.9864,122.7269
lg,1625222824631281064,0,-0.6682,-0.7314,0.6733,310,-27.3438,60.9131,49.0723,93,1.5077,1.5167,27.91,-45.539,32,0.1971,13190,3.9864,122.3048
lg,1625222824631315119,0,-0.884,-0.7046,0.7317,311,-19.4702,-7.3853,56.2134,93,1.5037,1.5177,29.8108,-45.2597,32,0.1951,8986,3.9864,124.3792
lg,1625222824631335508,0,-0.8162,-0.6401,0.8188,312,-16.8457,-66.8945,55.603,93,1.5007,1.5177,29.797,-43.6706,32,0.1961,8738,3.9864,128.515
lg,1625222824631354212,0,-0.4695,-0.5508,0.4331,313,-20.9961,-212.2192,19.5923,93,1.4997,1.5157,24.2894,-41.5649,32,0.1941,8422,3.9864,135.4832
lg,1625222824631372008,0,-0.0647,-0.8284,0.5852,314,-62.0117,-243.9575,35.4004,93,1.4987,1.5157,17.2107,-41.7262,32,0.1951,8469,3.9864,143.3152
lg,1625222824631389768,0,0.0774,-1.0308,0.491,315,-38.5742,-151.7334,27.1606,93,1.4957,1.5147,12.7046,-42.848,32,0.1941,10480,3.9864,148.1144
lg,1625222824631408045,0,0.1658,-0.9744,0.6829,316,9.5215,-28.8696,45.2881,85,1.4977,1.5157,12.2955,-42.4731,32,0.1931,9204,3.9941,150.1701
lg,1625222824631425471,0,0.271,-0.7297,0.7061,317,16.4795,14.5264,26.4893,85,1.4987,1.5167,12.3938,-41.8569,32,0.1951,8447,3.9941,150.5369
lg,1625222824631442619,0,0.2012,-0.772,0.6758,318,8.7891,40.1001,19.7144,85,1.4997,1.5177,13.2034,-41.883,32,0.1951,8503,3.9941,149.9775
lg,1625222824631460379,0,-0.0442,-0.9495,0.6438,319,7.0801,83.8623,5.0659,85,1.5027,1.5187,15.385,-42.6929,32,0.1971,8901,3.9941,147.6711
lg,1625222824631493934,0,-0.1758,-0.8521,0.6787,320,26.8555,100.647,-2.3193,85,1.5057,1.5177,18.0177,-42.809,32,0.1991,9022,3.9941,144.6472
lg,1625222824992277601,0,-0.1494,-0.9031,0.5808,321,23.0713,78.9795,-15.2588,85,1.5087,1.5097,19.5134,-43.3563,32,0.1921,27393,3.9941,141.7116
lg,1625222824992393267,0,-0.1797,-0.8103,0.5686,322,32.0435,100.0977,-24.353,85,1.5037,1.5017,21.3703,-43.8388,32,0.1861,14882,3.9941,137.8496
lg,1625222824992413527,0,-0.3108,-0.7397,0.4915,323,24.4751,96.3745,-3.1738,85,1.5027,1.4997,23.9584,-44.518,32,0.1861,8290,3.9941,134.6505
lg,1625222824992433990,0,-0.3906,-0.7351,0.5232,324,12.0239,80.7495,15.8081,85,1.5037,1.4997,26.6602,-45.2962,32,0.1901,8300,3.9941,132.4551
lg,1625222824992456045,0,-0.5796,-0.8264,0.6997,325,-16.4795,42.9077,41.8091,85,1.5067,1.5007,29.0998,-46.1498,32,0.1921,7927,3.9941,132.304
lg,1625222824992475341,0,-0.7517,-0.6475,0.5525,326,-24.8413,-24.8413,50.7202,85,1.5077,1.5047,30.3545,-46.0292,32,0.1931,8327,3.9941,134.6992
lg,1625222824992494008,0,-0.8044,-0.5764,0.5847,327,-30.8228,-100.8301,71.8384,85,1.5037,1.5087,30.1111,-44.3411,32,0.1921,10047,3.9941,140.4014
lg,1625222824992514804,0,-0.7375,-0.6184,0.6252,328,-46.9971,-155.4565,90.332,85,1.4957,1.5087,28.4778,-42.3376,32,0.1921,8004,3.9941,148.3213
lg,1625222824992533897,0,-0.0322,-0.6245,0.9387,329,-43.1519,-272.9492,60.5469,85,1.4947,1.5077,20.8589,-39.5628,32,0.1911,8344,3.9941,158.3479
lg,1625222824992552286,0,0.186,-1.0874,0.8701,330,-76.9653,-262.3291,14.2212,85,1.4937,1.5037,12.2062,-40.9559,32,0.1901,8749,3.9941,165.7019
lg,1625222824992570212,0,0.4475,-1.0054,0.5312,331,-20.5688,-159.5459,-8.2397,85,1.4927,1.5017,5.9997,-41.892,32,0.1891,12376,3.9941,169.5762
lg,1625222824992587693,0,0.0994,-0.9028,0.4722,332,12.5122,40.5884,-22.8882,85,1.4927,1.5037,6.1414,-42.3657,32,0.1901,9084,3.9941,167.7149
lg,1625222824992605545,0,-0.0969,-0.7268,0.5083,333,37.2314,113.7085,4.5166,85,1.4917,1.5057,9.6273,-41.7734,32,0.1911,8867,3.9941,164.7148
lg,1625222824992622471,0,-0.1975,-0.6802,0.5879,334,38.208,129.5166,7.3853,85,1.4917,1.5077,13.7906,-41.1958,32,0.1921,8104,3.9941,161.3828
lg,1625222824992640175,0,-0.3237,-0.7097,0.708,335,28.3813,122.5586,11.5967,85,1.4927,1.5087,17.9266,-41.022,32,0.1941,8122,3.9941,158.3542
lg,1625222824992657953,0,-0.4385,-0.7905,0.6924,336,15.8691,74.1577,6.2866,85,1.4947,1.5177,20.4999,-41.2936,32,0.1941,8507,3.9941,156.3913
lg,1625222824992675527,0,-0.4485,-0.7839,0.6917,337,13.916,47.3022,3.9062,85,1.4957,1.5127,21.2166,-41.1504,31,0.1961,8504,3.9941,156.0344
lg,1625222824992692767,0,-0.3193,-0.7292,0.6953,338,8.3618,-13.9771,9.1553,85,1.4987,1.5137,20.8912,-40.7694,31,0.1961,8273,3.9941,156.6504
lg,1625222824992709934,0,-0.0859,-0.7661,0.679,339,2.0142,-44.0674,12.5122,85,1.5027,1.5117,19.26,-40.4428,31,0.1961,8630,3.9941,158.1641
lg,1625222824992727693,0,0.0183,-0.8906,0.6477,340,2.2583,-29.4189,3.9673,85,1.5047,1.5137,17.7054,-40.6071,32,0.1961,8278,3.9941,158.9161
lg,1625222824992745230,0,0.0747,-0.8916,0.7163,341,14.3433,18.3716,-10.0708,85,1.5047,1.5097,17.1755,-40.7095,32,0.1931,8297,3.9941,157.9608
lg,1625222824992763249,0,0.0708,-0.9131,0.7678,342,20.9351,37.4756,-26.3062,85,1.5017,1.5037,16.8263,-40.7881,32,0.1891,8472,3.9941,155.9912
lg,1625222824992815786,0,0.123,-0.8572,0.7012,343,32.5928,59.5093,-60.9741,85,1.4977,1.4987,16.1364,-40.8916,32,0.1831,8369,3.9941,152.3266
lg,1625222824992942397,0,0.0894,-0.8655,0.5637,344,42.3584,105.2246,-84.6558,85,1.4957,1.4927,16.2662,-41.3892,32,0.1751,8365,3.9941,146.6101
lg,1625222824992965286,0,0.0134,-0.8486,0.4802,345,44.2505,140.3809,-77.2705,85,1.4957,1.4887,19.22,-42.7022,32,0.1731,8365,3.9941,139.5894
lg,1625222824992985434,0,-0.2568,-0.7439,0.4255,346,33.0811,184.9365,-49.9878,85,1.4967,1.4877,23.0845,-44.6142,32,0.1751,8414,3.9941,132.3319
lg,1625222824993006341,0,-0.665,-0.8308,0.7593,347,-6.2866,202.5757,-0.5493,85,1.4977,1.4837,28.9235,-47.8373,32,0.1761,8463,3.9941,125.7485
lg,1625222824993024619,0,-1.0488,-0.7712,0.5171,348,-14.5264,104.7974,7.2632,85,1.4997,1.4847,32.6178,-50.4427,31,0.1791,8429,3.9941,122.1313
lg,1625222824993042971,0,-1.1907,-0.7168,0.6399,349,-20.3857,31.6162,13.7939,85,1.5027,1.4897,34.5462,-51.605,31,0.1801,8539,3.9941,121.3976
lg,1625222824993060027,0,-1.1274,-0.5942,0.832,350,-21.1792,-110.7788,64.0869,85,1.5047,1.4967,34.2232,-48.4534,31,0.1781,8566,3.9941,127.8373
lg,1625222824993078490,0,-0.7375,-0.5742,0.6506,351,-58.4717,-302.7954,78.4302,85,1.5037,1.5017,28.4017,-43.8865,31,0.1801,8972,3.9941,140.7505
lg,1625222824993114434,0,-0.2246,-0.7979,0.5269,352,-90.9424,-418.2129,93.0176,85,1.4997,1.5047,18.2085,-41.9686,32,0.1781,8545,3.9941,155.7567
lg,1625222825373396675,0,0.8611,-1.104,0.4468,353,-61.7676,-216.8579,33.7524,85,1.4967,1.5037,14.6888,-42.8236,32,0.1791,27444,3.9941,158.9688
lg,1625222825373439971,0,0.301,-0.8918,0.4626,354,25.7568,134.6436,14.4043,85,1.4977,1.5057,18.241,-43.2231,32,0.1801,10614,3.9941,155.4492
lg,1625222825373462786,0,-0.063,-0.7659,0.6516,355,43.8843,195.4956,19.8364,85,1.4977,1.5077,23.8547,-43.5806,32,0.1821,7908,3.9941,150.2193
lg,1625222825373486915,0,-0.1733,-0.7854,0.6497,356,26.3672,132.0801,7.1411,85,1.4987,1.5097,27.268,-44.469,32,0.1831,8132,3.9941,146.2534
lg,1625222825373507304,0,-0.2104,-0.8567,0.6201,357,15.0757,95.9473,0.6104,85,1.5007,1.5117,29.355,-45.7342,32,0.1851,9554,3.9941,142.9909
lg,1625222825373527341,0,-0.2144,-0.8687,0.6533,358,16.4185,85.8154,-1.2817,85,1.5047,1.5137,30.9404,-46.8734,32,0.1871,9363,3.9941,139.9121
lg,1625222825373546082,0,-0.1519,-0.8081,0.6252,359,29.0527,56.5796,-5.6152,85,1.5077,1.5137,31.4399,-47.0453,32,0.1871,8969,3.9941,137.6704
lg,1625222825373564063,0,-0.1218,-0.7412,0.593,360,32.6538,45.6543,-13.0615,85,1.5097,1.5127,31.3641,-46.9637,32,0.1891,8022,3.9941,135.583
lg,1625222825373583249,0,-0.1455,-0.6802,0.4944,361,24.7803,47.6685,-12.3901,85,1.5097,1.5127,31.4567,-47.3439,32,0.1891,8052,3.9941,133.3845
lg,1625222825373601563,0,-0.2461,-0.7236,0.5298,362,11.7798,66.4673,-5.7983,85,1.5097,1.5127,32.4218,-48.4774,32,0.1921,8103,3.9941,130.7281
lg,1625222825373682915,0,-0.4878,-0.7727,0.6931,363,-17.395,80.0781,33.8135,85,1.5097,1.5137,35.2211,-50.178,32,0.1961,8061,3.9941,128.872
lg,1625222825373709267,0,-0.6482,-0.8018,0.7861,364,-17.2729,61.0352,71.9604,85,1.5117,1.5167,38.7638,-50.69,32,0.1961,8875,3.9941,128.9204
lg,1625222825373727563,0,-0.7231,-0.7686,0.7173,365,-16.9678,28.8086,72.4487,85,1.5087,1.5167,41.692,-50.3934,32,0.1951,8098,3.9941,130.261
lg,1625222825373747934,0,-0.7539,-0.7053,0.7214,366,-24.5361,-66.5894,68.5425,85,1.5057,1.5147,41.8273,-47.6914,32,0.1941,8966,3.9941,135.5544
lg,1625222825373769415,0,-0.3396,-0.6785,0.5964,367,-20.3247,-188.5376,60.0586,85,1.5067,1.5167,37.4337,-42.7184,32,0.1941,8181,3.9941,144.6515
lg,1625222825373788878,0,0.1233,-0.8909,0.7058,368,-45.166,-213.8062,47.9126,85,1.5067,1.5167,30.7894,-40.1442,32,0.1931,8577,3.9941,152.9308
lg,1625222825373808508,0,0.3428,-0.9731,0.7378,369,-25.1465,-181.8237,31.0059,85,1.5077,1.5177,24.3796,-38.7688,32,0.1931,8205,3.9941,158.9303
lg,1625222825373828675,0,0.489,-1.0352,0.7742,370,-9.8877,-67.0166,-11.9629,85,1.5097,1.5197,20.4217,-39.1805,32,0.1931,8918,3.9941,160.1253
lg,1625222825373847045,0,0.3872,-0.8962,0.6914,371,25.5127,59.2651,-50.9033,85,1.5127,1.5207,19.5259,-39.7934,32,0.1941,8274,3.9941,156.6725
lg,1625222825373865193,0,0.0767,-0.8672,0.4858,372,33.02,139.1602,-90.332,85,1.5147,1.5187,20.4873,-41.6448,32,0.1931,9032,3.9941,149.6199
lg,1625222825373883823,0,-0.1272,-0.8423,0.2573,373,36.3159,147.7051,-96.8018,85,1.5147,1.5177,22.1178,-43.8192,32,0.1931,8642,3.9941,141.9329
lg,1625222825373903230,0,-0.3879,-0.7341,0.4436,374,29.9683,160.8887,-72.2046,85,1.5147,1.5167,24.7117,-46.0569,32,0.1961,8700,3.9941,134.5294
lg,1625222825373921656,0,-0.6548,-0.7192,0.6184,375,-16.4795,145.5688,-16.9678,85,1.5157,1.5177,28.4892,-49.2124,32,0.1971,9126,3.9941,129.1409
lg,1625222825373943082,0,-1.0205,-0.7634,0.7344,376,-30.7617,49.3164,46.4478,85,1.5107,1.5217,31.7665,-50.5089,32,0.1971,15441,3.9941,128.8212
lg,1625222825373965804,0,-0.8762,-0.678,1.009,377,-11.2915,-103.6987,51.4526,85,1.5097,1.5217,30.8066,-47.5962,32,0.1981,9161,3.9941,134.414
lg,1625222825373983823,0,-0.4646,-0.5771,0.5408,378,-46.875,-337.2192,10.376,85,1.5077,1.5217,21.8066,-44.4963,32,0.1971,9197,3.9941,145.5617
lg,1625222825374001897,0,0.1084,-0.7759,0.3694,379,-69.397,-351.1963,41.1377,85,1.5077,1.5207,11.9832,-44.7134,32,0.1971,8757,3.9941,156.7411
lg,1625222825374021341,0,0.3535,-0.9048,0.3125,380,-73.6694,-289.6118,53.1616,85,1.5067,1.5197,4.2608,-47.0532,32,0.1971,9225,3.9941,166.4552
lg,1625222825374039897,0,0.5645,-1.2097,0.5972,381,-40.2222,-126.2817,60.6079,85,1.5077,1.5197,1.6317,-48.8654,32,0.1991,10043,3.9941,-188.1881
lg,1625222825374057212,0,0.5891,-1.0603,0.6174,382,12.4512,17.0288,37.4146,85,1.5087,1.5217,2.163,-48.7311,32,0.2001,9250,3.9941,-187.7333
lg,1625222825374076360,0,0.354,-0.8044,0.5693,383,31.9824,98.6938,0.061,85,1.5107,1.5227,3.9279,-47.8244,32,0.2001,9242,3.9941,169.2951
lg,1625222825374093601,0,0.0215,-0.8455,0.6025,384,21.7285,154.6631,-24.6582,85,1.5117,1.5247,7.1274,-47.7199,32,0.2021,8864,3.9941,164.0054
lg,1625222825733285526,0,-0.2095,-0.7764,0.4448,385,34.4849,61.7065,-41.748,85,1.5127,1.5187,7.8013,-47.2014,32,0.1951,26308,3.9941,160.975
lg,1625222825733321304,0,-0.249,-0.7217,0.5364,386,15.564,85.5713,7.5684,85,1.5097,1.5147,10.6374,-47.1823,32,0.1911,14771,3.9941,158.6034
lg,1625222825733341434,0,-0.3364,-0.7739,0.5698,387,4.4556,91.5527,29.0527,85,1.5107,1.5157,14.2942,-47.6629,32,0.1941,7940,3.9941,156.5946
lg,1625222825733361211,0,-0.4856,-0.999,0.8901,388,-23.8037,62.1338,60.6689,85,1.5117,1.5167,17.9656,-48.694,32,0.1991,7928,3.9941,156.3369
lg,1625222825733380267,0,-0.4946,-0.7937,0.6753,389,-26.5503,25.5737,69.0918,85,1.5127,1.5197,19.4764,-48.8008,32,0.1991,7957,3.9941,158.8385
lg,1625222825733420323,0,-0.4502,-0.6555,0.5574,390,-21.8506,-75.2563,49.6826,85,1.5137,1.5227,19.3056,-48.4317,32,0.1981,8354,3.9941,162.6231
lg,1625222825733450230,0,-0.3755,-0.6299,0.5457,391,-32.4707,-115.5396,56.0913,85,1.5117,1.5247,18.1118,-48.0645,32,0.1991,8639,3.9941,167.8396
lg,1625222825733469304,0,-0.2261,-0.8457,0.5842,392,-50.4761,-126.709,73.1812,85,1.5097,1.5257,16.7219,-48.5615,32,0.1981,9397,3.9941,-186.2424
lg,1625222825733487174,0,-0.1384,-0.9121,0.5352,393,-49.9268,-135.498,74.2188,85,1.5077,1.5257,14.5884,-48.883,32,0.1981,8018,3.9941,-180.0959
lg,1625222825733504915,0,0.1602,-0.8359,0.6226,394,-23.5596,-127.4414,56.5186,85,1.5067,1.5237,12.052,-48.7289,32,0.1961,8275,3.9941,-174.6697
lg,1625222825733523471,0,0.1677,-0.8804,0.5493,395,-24.6582,-58.7158,38.9404,85,1.5057,1.5217,10.8818,-49.5039,32,0.1961,8073,3.9941,-171.8891
lg,1625222825733541156,0,0.1228,-0.9119,0.6428,396,-19.5923,-20.752,40.5273,85,1.5057,1.5207,11.5777,-49.8617,32,0.1961,8094,3.9941,-171.2311
lg,1625222825733558748,0,-0.1301,-0.8733,0.5591,397,-1.0986,25.6958,24.8413,85,1.5047,1.5207,12.7774,-49.9215,32,0.1961,8241,3.9941,-171.6007
lg,1625222825733576415,0,-0.0576,-0.813,0.6367,398,14.2822,20.9961,19.2261,85,1.5057,1.5217,13.2854,-49.3323,32,0.1981,8114,3.9941,-171.7971
lg,1625222825733593952,0,-0.0422,-0.8235,0.554,399,18.9209,11.5356,5.4932,85,1.5077,1.5227,13.3254,-48.888,32,0.1991,8169,3.9941,-172.0725
lg,1625222825733611267,0,-0.0327,-0.8633,0.5989,400,22.8271,19.5312,-16.4795,85,1.5107,1.5237,12.8896,-48.4626,32,0.2011,8216,3.9941,-173.1822
lg,1625222825733628452,0,0.0095,-0.8267,0.6912,401,36.438,43.457,-35.6445,85,1.5137,1.5227,12.4577,-47.5702,32,0.1991,8338,3.9941,-175.5022
lg,1625222825733645656,0,-0.05,-0.8765,0.4937,402,30.0903,54.3213,-49.0112,85,1.5137,1.5197,12.1016,-47.5197,32,0.1961,10279,3.9941,-178.6095
lg,1625222825733662952,0,-0.1008,-0.854,0.3872,403,31.0059,52.124,-49.8657,85,1.5117,1.5157,11.8995,-47.5295,32,0.1941,8697,3.9941,-181.6923
lg,1625222825733679767,0,-0.2722,-0.8281,0.5364,404,15.2588,78.186,-23.3154,85,1.5117,1.5167,13.4426,-47.9434,32,0.1981,8226,3.9941,-184.7858
lg,1625222825733696804,0,-0.4092,-0.8396,0.6692,405,-11.1084,80.5054,49.8657,85,1.5137,1.5187,17.3458,-48.8082,32,0.2011,8296,3.9941,-185.9481
lg,1625222825733713434,0,-0.5645,-0.7976,0.6746,406,-18.9819,73.4253,60.1807,85,1.5137,1.5237,21.4093,-49.499,32,0.2011,8366,3.9941,-185.8803
lg,1625222825733733397,0,-0.79,-0.6997,0.7283,407,-11.1694,19.8364,66.04,85,1.5097,1.5247,24.5704,-49.266,32,0.2001,8323,3.9941,-184.5962
lg,1625222825733751804,0,-0.5815,-0.5254,1.0127,408,-14.7705,-92.1021,58.7158,85,1.5067,1.5247,24.024,-47.0659,32,0.2011,8377,3.9941,-179.5081
lg,1625222825733769619,0,-0.2053,-0.687,0.5532,409,-49.0723,-248.1689,22.1558,85,1.5057,1.5247,17.4743,-46.2225,32,0.2001,8429,3.9941,-171.2139
lg,1625222825733799489,0,0.0498,-0.9194,0.7566,410,-76.4771,-258.4229,27.71,85,1.5047,1.5217,10.4841,-47.3749,32,0.1991,8493,3.9941,-162.7274
lg,1625222825733818248,0,0.3784,-1.0786,0.4548,411,-49.6826,-179.0161,13.0005,85,1.5037,1.5197,7.2475,-48.9413,32,0.1991,11082,3.9941,-159.7975
lg,1625222825733836323,0,0.2598,-1.0833,0.5947,412,-6.4697,0.4883,13.7939,85,1.5037,1.5187,6.9396,-49.622,32,0.1991,8509,3.9941,-159.5075
lg,1625222825733854508,0,0.0032,-0.8198,0.5603,413,21.4844,92.5293,15.3809,85,1.5037,1.5207,9.5141,-49.3432,32,0.2001,8472,3.9941,-161.9826
lg,1625222825733872471,0,-0.1584,-0.7693,0.5781,414,14.4653,98.2056,17.6392,85,1.5037,1.5217,12.5815,-49.3954,32,0.2011,8888,3.9941,-164.5819
lg,1625222825733890119,0,-0.2632,-0.8765,0.5046,415,5.188,86.6089,17.9443,85,1.5047,1.5227,14.886,-50.1693,32,0.2031,8873,3.9941,-166.2789
lg,1625222825733907508,0,-0.2446,-0.9009,0.5393,416,1.1597,46.3867,19.9585,85,1.5057,1.5247,16.6067,-50.7282,32,0.2041,9311,3.9941,-167.3315
lg,1625222826109615063,0,-0.0083,-0.825,0.5715,417,16.1743,15.9302,15.9912,85,1.5127,1.5237,16.8705,-50.2856,32,0.2021,27372,3.9941,-167.4777
lg,1625222826109658415,0,0.0889,-0.8718,0.6436,418,20.9961,14.9536,-43.9453,85,1.5107,1.5127,15.0666,-50.0259,32,0.1941,19549,3.9941,-169.1643
lg,1625222826109679137,0,0.0144,-0.9082,0.4714,419,28.3203,62.9883,-57.6782,85,1.5067,1.5077,14.2904,-50.2889,32,0.1901,7931,3.9941,-172.8218
lg,1625222826109698507,0,-0.0874,-0.8853,0.4297,420,32.6538,80.2612,-55.481,85,1.5047,1.5057,14.2642,-50.5221,32,0.1891,7931,3.9941,-176.97
lg,1625222826109717693,0,-0.2573,-0.7402,0.5261,421,16.9067,96.6187,-10.8643,85,1.5057,1.5057,16.4183,-50.8936,32,0.1921,7906,3.9941,-180.3992
lg,1625222826109736582,0,-0.489,-0.8359,0.7373,422,-6.2866,97.4121,14.7095,85,1.5077,1.5087,19.8224,-52.1336,32,0.1951,7939,3.9941,-182.3678
lg,1625222826109755193,0,-0.6147,-0.804,0.6541,423,-24.5972,57.1289,37.4146,85,1.5097,1.5127,22.8062,-53.4154,32,0.1961,8887,3.9941,-183.3412
lg,1625222826109773452,0,-0.8333,-0.7761,0.6782,424,-24.7803,-9.3994,52.6123,85,1.5107,1.5167,24.9005,-53.5493,32,0.1971,8526,3.9941,-181.5799
lg,1625222826109791452,0,-0.749,-0.6785,0.6956,425,-17.2729,-119.0796,65.6738,85,1.5087,1.5187,24.6044,-51.4176,32,0.1971,7973,3.9941,-175.5029
lg,1625222826109809322,0,-0.583,-0.6465,0.6384,426,-31.4331,-194.8853,65.0024,85,1.5057,1.5197,21.9738,-49.1382,32,0.1981,8035,3.9941,-167.0608
lg,1625222826109827489,0,0.0215,-0.7188,0.7087,427,-48.0347,-292.2974,50.0488,88,1.5037,1.5197,14.8615,-47.5494,32,0.1991,8091,3.9908,-156.431
lg,1625222826109846322,0,0.3132,-0.949,0.3684,428,-56.0303,-234.6191,22.7661,88,1.5037,1.5197,8.1687,-49.0182,32,0.1981,10373,3.9908,-148.8676
lg,1625222826109864730,0,0.426,-1.0486,0.3794,429,-20.6909,-77.2095,26.6724,88,1.5037,1.5197,5.9051,-50.2167,32,0.1981,8101,3.9908,-145.899
lg,1625222826109883063,0,0.2844,-1.0181,0.4136,430,-0.7324,2.5635,23.0713,88,1.5027,1.5197,7.717,-50.034,32,0.1981,8168,3.9908,-147.0872
lg,1625222826109901693,0,0.1121,-0.856,0.6018,431,28.9917,85.083,34.0576,88,1.5037,1.5207,10.3982,-49.3332,32,0.1981,8104,3.9908,-148.8598
lg,1625222826109919952,0,-0.012,-0.7708,0.585,432,19.104,91.8579,26.3062,88,1.5047,1.5217,13.1938,-49.1378,32,0.2001,8186,3.9908,-151.0339
lg,1625222826109966637,0,-0.0457,-0.8235,0.6067,433,13.7329,89.7217,24.7803,88,1.5057,1.5227,15.6036,-49.3423,32,0.2001,8219,3.9908,-153.0507
lg,1625222826109987489,0,-0.085,-0.8965,0.6409,434,15.9302,73.7915,14.8926,88,1.5067,1.5227,17.5209,-49.4567,32,0.2041,8203,3.9908,-155.0455
lg,1625222826110005007,0,-0.0608,-0.8403,0.6611,435,26.7944,66.6504,-8.667,88,1.5117,1.5227,18.4209,-49.204,32,0.2041,8283,3.9908,-157.4421
lg,1625222826110023193,0,-0.0571,-0.8323,0.6218,436,26.1841,64.3921,-30.7007,88,1.5127,1.5217,18.5628,-49.2373,32,0.2041,8676,3.9908,-160.398
lg,1625222826110041007,0,-0.0684,-0.8533,0.575,437,24.0479,66.2842,-37.5366,88,1.5117,1.5187,18.5605,-49.5537,32,0.1991,8671,3.9908,-163.6409
lg,1625222826110058378,0,-0.1606,-0.8489,0.4307,438,28.7476,66.8945,-33.5083,88,1.5097,1.5167,18.917,-49.936,32,0.1981,8722,3.9908,-166.8878
lg,1625222826110090137,0,-0.2393,-0.78,0.5049,439,13.916,70.5566,-4.5166,88,1.5107,1.5187,20.3955,-50.476,32,0.2021,8336,3.9908,-169.4091
lg,1625222826110109156,0,-0.418,-0.8896,0.7542,440,-5.5542,69.5801,18.5547,88,1.5127,1.5207,23.2597,-51.6854,32,0.2061,8678,3.9908,-170.4847
lg,1625222826110126582,0,-0.5493,-0.8999,0.6985,441,-30.8228,54.1382,60.9741,88,1.5137,1.5237,26.7757,-53.0224,32,0.2041,9117,3.9908,-170.7468
lg,1625222826110144396,0,-0.7146,-0.7991,0.6885,442,-23.9868,-0.061,67.688,88,1.5097,1.5227,29.2172,-52.9563,32,0.2041,9241,3.9908,-168.8344
lg,1625222826110162619,0,-0.4775,-0.5957,0.9175,443,-11.1084,-121.3989,54.0771,88,1.5067,1.5277,27.7197,-49.7842,32,0.2031,9151,3.9908,-162.5784
lg,1625222826110180359,0,-0.0874,-0.6694,0.4504,444,-39.0015,-252.1973,12.3291,88,1.5077,1.5267,20.6903,-48.046,32,0.2031,8379,3.9908,-154.0282
lg,1625222826110198267,0,0.2566,-1.0049,0.5718,445,-69.0308,-238.0981,14.3433,88,1.5077,1.5267,14.9231,-48.9538,32,0.2011,8840,3.9908,-147.5135
lg,1625222826110216711,0,0.2852,-1.0498,0.3828,446,-44.7388,-138.3057,9.0332,88,1.5097,1.5247,10.5706,-50.5207,32,0.2011,8874,3.9908,-143.1375
lg,1625222826110235156,0,0.0959,-1.0295,0.3896,447,-3.2349,0.4272,7.6294,88,1.5067,1.5247,10.4047,-51.2084,32,0.2011,10474,3.9908,-143.0637
lg,1625222826110252915,0,-0.0859,-0.8237,0.533,448,32.8979,88.1348,29.9683,88,1.5067,1.5247,13.3287,-50.5367,32,0.2011,8920,3.9908,-145.136
lg,1625222826480174655,0,-0.1423,-0.9231,0.6321,449,8.606,41.8701,20.6909,88,1.5097,1.5287,14.7822,-50.5788,32,0.2041,26353,3.9908,-145.9774
lg,1625222826480222692,0,-0.0803,-0.9373,0.6511,450,13.916,27.0386,10.9253,88,1.5137,1.5287,15.0903,-49.9432,32,0.2051,8623,3.9908,-146.6128
lg,1625222826480245729,0,0.0408,-0.8372,0.6077,451,25.2075,23.6206,-10.0098,88,1.5147,1.5277,14.7147,-49.3547,32,0.2041,8001,3.9908,-147.6733
lg,1625222826480266470,0,0.041,-0.8557,0.574,452,21.8506,30.8228,-12.8784,88,1.5147,1.5257,14.4627,-49.0803,32,0.2031,8349,3.9908,-149.0584
lg,1625222826480285396,0,0.009,-0.8625,0.5281,453,24.7803,65.7349,-8.606,88,1.5127,1.5237,15.3325,-49.0548,32,0.1991,8270,3.9908,-151.4472
lg,1625222826480305155,0,-0.1042,-0.8386,0.5776,454,26.1841,106.7505,0.3662,88,1.5117,1.5217,17.7441,-49.2174,32,0.1971,8302,3.9908,-154.88
lg,1625222826480380674,0,-0.2776,-0.8015,0.614,455,14.8315,121.6431,14.4043,88,1.5117,1.5217,21.2172,-49.9277,32,0.2001,9370,3.9908,-158.459
lg,1625222826480403155,0,-0.3423,-0.8193,0.7087,456,6.3477,114.0137,24.7192,88,1.5127,1.5217,24.5732,-50.8998,32,0.2051,8446,3.9908,-160.955
lg,1625222826480422544,0,-0.5269,-0.8364,0.7249,457,-7.6904,74.707,33.5083,88,1.5137,1.5257,27.4986,-51.8545,32,0.2061,7966,3.9908,-162.5969
lg,1625222826480464822,0,-0.5972,-0.7595,0.635,458,-18.4326,-0.4272,41.9312,88,1.5157,1.5277,28.9421,-51.9451,32,0.2061,8778,3.9908,-161.3726
lg,1625222826480486600,0,-0.5781,-0.7209,0.657,459,-24.7803,-34.6069,43.396,88,1.5137,1.5287,28.7926,-51.275,32,0.2071,7992,3.9908,-157.496
lg,1625222826480506748,0,-0.5266,-0.7312,0.5933,460,-41.1377,-110.4736,52.9175,88,1.5117,1.5297,27.6693,-50.3279,32,0.2051,8761,3.9908,-152.0721
lg,1625222826480526044,0,-0.2314,-0.7891,0.666,461,-47.4854,-177.3071,54.6875,88,1.5087,1.5297,24.1768,-48.8746,32,0.2051,8069,3.9908,-144.4811
lg,1625222826480545081,0,0.0139,-0.8201,0.3076,462,-21.2402,-196.5332,10.3149,88,1.5087,1.5287,18.4125,-48.1655,32,0.2041,8851,3.9908,-138.2202
lg,1625222826480563915,0,0.082,-1.0149,0.6711,463,-38.0249,-151.062,7.5684,88,1.5077,1.5287,15.5437,-49.1992,32,0.2041,8876,3.9908,-135.0447
lg,1625222826480585896,0,-0.1299,-0.9106,0.3733,464,-7.1411,-31.311,-11.1084,88,1.5077,1.5297,14.2636,-49.8623,32,0.2041,8654,3.9908,-134.5033
lg,1625222826480605618,0,-0.1851,-0.835,0.6008,465,9.2163,-9.2773,5.8594,88,1.5087,1.5307,14.0412,-49.5498,32,0.2041,8146,3.9908,-134.0967
lg,1625222826480624915,0,-0.0918,-0.8218,0.6326,466,9.6436,-26.9165,12.5122,88,1.5097,1.5317,13.3654,-48.991,32,0.2061,8905,3.9908,-132.9479
lg,1625222826480643044,0,0.1062,-0.866,0.6035,467,3.418,-42.2363,9.3384,88,1.5107,1.5317,11.7991,-48.7521,32,0.2071,8198,3.9908,-131.4486
lg,1625222826480661618,0,0.1287,-0.9048,0.6108,468,5.4932,-18.1885,5.5542,88,1.5127,1.5327,11.1591,-48.6957,32,0.2081,9567,3.9908,-131.6392
lg,1625222826480679563,0,0.0725,-0.8696,0.5576,469,17.7612,15.1367,-5.8594,88,1.5147,1.5327,10.79,-48.4409,32,0.2091,9133,3.9908,-132.3285
lg,1625222826480697674,0,-0.0962,-0.8594,0.5701,470,14.6484,51.3306,2.8687,88,1.5117,1.5327,12.0144,-48.4609,32,0.2111,8704,3.9908,-133.8811
lg,1625222826480716229,0,-0.3613,-0.8716,0.6387,471,-14.4043,52.3071,29.0527,88,1.5127,1.5347,14.5091,-49.4215,32,0.2091,9039,3.9908,-134.7659
lg,1625222826480750952,0,-0.3696,-0.7048,0.8662,472,-2.6245,15.686,44.5557,88,1.5107,1.5337,16.419,-48.9231,32,0.2091,9179,3.9908,-133.9493
lg,1625222826480770544,0,-0.3872,-0.6946,0.6162,473,6.8359,-21.2402,26.9775,88,1.5097,1.5337,16.1326,-48.8173,32,0.2091,9105,3.9908,-131.7712
lg,1625222826480788674,0,-0.2749,-0.8032,0.7375,474,-29.6021,-71.228,35.4004,88,1.5107,1.5327,15.2581,-49.0653,32,0.2091,9109,3.9908,-128.5527
lg,1625222826480806470,0,-0.1235,-0.8987,0.5205,475,-20.5688,-75.3174,31.311,88,1.5087,1.5317,13.9262,-49.5052,32,0.2101,8727,3.9908,-125.4594
lg,1625222826480824841,0,-0.0098,-0.8857,0.6438,476,-6.1035,-25.8179,40.4053,88,1.5097,1.5317,13.9585,-49.4642,32,0.2091,8821,3.9908,-123.613
lg,1625222826480842841,0,0.1423,-0.8555,0.6663,477,-2.3193,-8.5449,29.8462,88,1.5097,1.5317,13.811,-49.3956,32,0.2101,9159,3.9908,-122.573
lg,1625222826480861322,0,0.1909,-0.877,0.6042,478,-3.8452,2.8076,19.5312,88,1.5117,1.5317,14.0643,-50.0267,32,0.2091,8452,3.9908,-123.3379
lg,1625222826481010211,0,0.0498,-0.9612,0.6003,479,1.3428,61.4014,1.6479,88,1.5117,1.5307,15.0237,-50.7671,32,0.2101,9144,3.9908,-125.3284
lg,1625222826481031211,0,-0.0413,-0.8674,0.5894,480,19.6533,85.083,-14.7705,88,1.5147,1.5307,16.1944,-51.0207,32,0.2071,9272,3.9908,-128.5131
lg,1625222826834498303,0,-0.2993,-0.9158,0.4546,481,10.498,74.8291,-5.6152,88,1.5147,1.5247,17.8863,-51.8482,32,0.2071,27894,3.9908,-131.2487
lg,1625222826834545100,0,-0.4678,-0.812,0.5547,482,-12.9395,25.0854,32.2266,88,1.5157,1.5297,19.8092,-52.4977,32,0.2121,15783,3.9908,-131.2975
lg,1625222826834566489,0,-0.5645,-0.7253,0.5754,483,-24.7803,-29.8462,48.4619,88,1.5137,1.5317,21.0767,-52.6468,32,0.2101,7903,3.9908,-129.0141
lg,1625222826834586248,0,-0.3115,-0.6431,0.9211,484,-20.874,-103.2104,45.5322,88,1.5117,1.5327,19.7878,-51.1246,32,0.2101,9288,3.9908,-124.0861
lg,1625222826834605322,0,-0.2136,-0.6528,0.4902,485,-14.6484,-161.1328,13.0005,88,1.5097,1.5327,15.9211,-50.0633,32,0.2101,7919,3.9908,-118.5269
lg,1625222826834624563,0,0.0527,-0.9397,0.6875,486,-53.3447,-180.6641,7.6294,88,1.5087,1.5317,10.8735,-50.9583,32,0.2091,8103,3.9908,-112.6279
lg,1625222826834644229,0,0.1938,-0.9675,0.4053,487,-24.8413,-113.3423,-2.0752,88,1.5077,1.5307,7.1924,-52.0144,32,0.2081,8010,3.9908,-109.1966
lg,1625222826834664822,0,0.1521,-0.9785,0.4675,488,-12.2681,-45.2271,-1.0986,88,1.5067,1.5307,5.472,-52.8244,32,0.2091,7954,3.9908,-107.8357
lg,1625222826834684470,0,-0.0486,-0.8604,0.5,489,16.6626,61.5234,16.6626,88,1.5067,1.5307,7.3764,-52.6009,32,0.2101,8750,3.9908,-109.431
lg,1625222826834703970,0,-0.1299,-0.7402,0.655,490,21.1182,79.2847,23.6206,88,1.5077,1.5317,10.0537,-51.8785,32,0.2101,10150,3.9908,-111.3662
lg,1625222826834723137,0,-0.1338,-0.8584,0.6797,491,6.1646,56.3965,22.0947,88,1.5087,1.5317,12.0065,-51.8499,32,0.2121,8012,3.9908,-112.62
lg,1625222826834741174,0,-0.1021,-0.9026,0.6892,492,3.54,39.856,18.3105,88,1.5097,1.5317,13.2849,-51.9083,32,0.2121,8147,3.9908,-113.4511
lg,1625222826834813285,0,-0.0125,-0.9236,0.6372,493,6.2866,31.4941,8.728,88,1.5117,1.5327,13.8313,-51.9751,32,0.2131,8072,3.9908,-114.2842
lg,1625222826834838100,0,0.0359,-0.877,0.6682,494,11.9019,41.5649,-3.2349,88,1.5137,1.5327,14.1304,-51.8637,32,0.2131,8097,3.9908,-115.7243
lg,1625222826834856951,0,0.0386,-0.8745,0.6284,495,16.2964,47.5464,-15.8081,88,1.5147,1.5317,14.1659,-51.7771,32,0.2111,8105,3.9908,-117.6949
lg,1625222826834875803,0,-0.0237,-0.8857,0.5139,496,18.7378,66.1011,-32.3486,88,1.5147,1.5287,14.2654,-52.0776,32,0.2061,8207,3.9908,-120.7454
lg,1625222826834894822,0,-0.0889,-0.9414,0.5005,497,24.1089,88.4399,-34.1797,88,1.5127,1.5247,14.965,-52.4557,32,0.2011,8201,3.9908,-124.6008
lg,1625222826834912489,0,-0.1328,-0.9287,0.4814,498,28.6255,100.1587,-34.9121,88,1.5087,1.5207,15.9697,-52.8301,32,0.1961,8232,3.9908,-128.8908
lg,1625222826834947970,0,-0.2122,-0.8359,0.4683,499,30.6396,103.4546,-23.7427,88,1.5057,1.5147,17.5514,-53.0821,32,0.1931,9436,3.9908,-133.027
lg,1625222826834967989,0,-0.2498,-0.7817,0.5359,500,20.874,95.1538,2.6245,88,1.5057,1.5137,19.7834,-53.3468,32,0.1911,9632,3.9908,-136.2118
lg,1625222826834986192,0,-0.3833,-0.9075,0.5925,501,-0.1221,72.0825,19.7754,88,1.5047,1.5127,22.0954,-54.1914,32,0.1941,8251,3.9908,-138.2525
lg,1625222826835004451,0,-0.5432,-0.9478,0.7092,502,-14.1602,49.4385,25.9399,88,1.5077,1.5157,23.7685,-54.7507,32,0.1981,8412,3.9908,-137.8517
lg,1625222826835022914,0,-0.5552,-0.8452,0.6003,503,-25.0244,-26.1841,45.5933,88,1.5087,1.5167,24.8264,-54.868,32,0.1981,8352,3.9908,-135.7533
lg,1625222826835041322,0,-0.6465,-0.7476,0.5647,504,-40.9546,-91.2476,51.6357,88,1.5107,1.5247,24.7963,-54.4859,32,0.1991,8349,3.9908,-131.1169
lg,1625222826835058637,0,-0.5293,-0.7241,0.5684,505,-38.5742,-182.1289,76.355,88,1.5057,1.5267,23.1449,-52.4971,32,0.1971,8356,3.9908,-122.6699
lg,1625222826835076840,0,-0.2473,-0.7207,0.7231,506,-40.7715,-227.7832,73.0591,88,1.5027,1.5257,19.4101,-50.3176,32,0.1971,8391,3.9908,-112.9604
lg,1625222826835094655,0,0.2209,-0.7856,0.2874,507,-18.4326,-306.3354,-2.9907,88,1.4997,1.5247,10.2509,-49.3554,32,0.1971,8453,3.9908,-103.6462
lg,1625222826835112285,0,0.4731,-1.0103,0.5869,508,-54.6875,-188.5986,-13.0005,88,1.5017,1.5237,3.8572,-51.2219,32,0.1971,8862,3.9908,-98.1846
lg,1625222826835130414,0,0.2324,-1.0461,0.2285,509,-3.8452,-3.479,-34.9121,88,1.5007,1.5237,2.0594,-52.3901,32,0.1971,8623,3.9908,-98.9983
lg,1625222826835149526,0,0.0273,-0.9739,0.2866,510,9.8267,71.167,-30.0293,88,1.5007,1.5237,2.6826,-52.9329,32,0.1971,8528,3.9908,-102.0231
lg,1625222826835167155,0,-0.2229,-0.7837,0.4492,511,38.7573,135.6201,7.9956,88,1.4977,1.5247,6.6572,-51.9884,32,0.1971,8521,3.9908,-106.1563
lg,1625222826835185840,0,-0.3403,-0.6875,0.5559,512,30.4565,98.1445,26.6724,88,1.4997,1.5257,10.478,-51.0884,32,0.1971,8546,3.9908,-108.5896
lg,1625222827205196243,0,-0.0842,-0.8977,0.6243,513,0.5493,-29.3579,54.2603,88,1.5007,1.5277,10.5798,-50.6034,32,0.2001,25410,3.9908,-105.4537
lg,1625222827205234751,0,0.2849,-0.9011,0.7041,514,3.7842,-51.1475,54.0771,88,1.5027,1.5277,10.3372,-50.0688,32,0.2021,15444,3.9908,-103.1427
lg,1625222827205255449,0,0.3049,-0.9373,0.7087,515,6.5918,-3.418,36.438,88,1.5057,1.5277,10.4069,-49.7147,32,0.2031,9082,3.9908,-102.1079
lg,1625222827205275166,0,0.199,-0.9348,0.677,516,19.7754,56.7627,12.0239,88,1.5097,1.5257,11.4519,-49.3623,32,0.2031,8004,3.9908,-103.5884
lg,1625222827205294216,0,-0.002,-0.9128,0.5872,517,25.2686,108.6426,-11.1084,88,1.5107,1.5237,13.4782,-49.4561,32,0.2011,10014,3.9908,-107.332
lg,1625222827205312693,0,-0.1377,-0.9048,0.5845,518,29.1138,132.8125,-13.1226,88,1.5107,1.5197,16.2542,-49.7598,32,0.1991,9500,3.9908,-111.9463
lg,1625222827205330151,0,-0.2588,-0.8821,0.5642,519,27.771,134.6436,-7.9346,88,1.5087,1.5157,19.352,-50.3405,32,0.1971,8889,3.9908,-116.5868
lg,1625222827205348757,0,-0.332,-0.8418,0.5139,520,23.6206,127.0752,-1.8311,88,1.5067,1.5127,22.457,-51.2409,32,0.1961,7967,3.9908,-120.9668
lg,1625222827205366771,0,-0.4111,-0.8352,0.5576,521,11.4746,86.5479,21.0571,88,1.5077,1.5127,25.2396,-51.9414,32,0.1991,8752,3.9908,-123.4428
lg,1625222827205384637,0,-0.5137,-0.8984,0.6792,522,-18.8599,31.7993,41.1377,88,1.5087,1.5127,27.2762,-52.7201,32,0.2021,8006,3.9908,-123.4619
lg,1625222827205402447,0,-0.552,-0.8716,0.583,523,-28.3203,-5.4321,49.8047,88,1.5117,1.5167,28.7483,-53.2438,32,0.2031,8052,3.9908,-121.9686
lg,1625222827205446120,0,-0.6138,-0.7878,0.5977,524,-38.0859,-56.1523,65.6738,88,1.5077,1.5207,29.6196,-52.8442,32,0.2011,8820,3.9908,-118.0882
lg,1625222827205466374,0,-0.5759,-0.7258,0.6108,525,-27.771,-112.5488,66.1621,88,1.5057,1.5227,28.9998,-50.9118,32,0.2001,8460,3.9908,-112.083
lg,1625222827205484554,0,-0.3992,-0.7,0.6914,526,-33.5693,-164.2456,63.7207,88,1.5037,1.5227,23.7032,-47.9341,32,0.2001,8128,3.9908,-103.2158
lg,1625222827205503123,0,0.0652,-0.729,0.4033,527,-33.5693,-255.249,0.7935,88,1.5037,1.5217,15.8369,-47.0978,32,0.1991,8880,3.9908,-95.4272
lg,1625222827205530301,0,0.2625,-1.0188,0.5662,528,-56.1523,-169.7388,-4.2114,88,1.5047,1.5217,10.121,-48.7247,32,0.1991,8540,3.9908,-90.5038
lg,1625222827205548926,0,0.0828,-1.0088,0.2722,529,-8.8501,-28.8086,-32.4097,88,1.5037,1.5207,7.8546,-50.0709,32,0.1991,8976,3.9908,-90.64
lg,1625222827205579196,0,-0.293,-0.8506,0.333,530,23.5596,81.4209,-10.8643,88,1.5027,1.5217,10.1267,-49.8611,32,0.1991,13826,3.9908,-93.4893
lg,1625222827205598802,0,-0.3899,-0.738,0.6462,531,36.3159,75.7446,14.1602,88,1.5037,1.5237,12.9697,-48.7533,32,0.1981,8614,3.9908,-95.4479
lg,1625222827205616741,0,-0.2405,-0.6982,0.6584,532,13.916,-18.8599,21.3623,88,1.5047,1.5247,13.149,-47.8415,32,0.2001,8566,3.9908,-94.2648
lg,1625222827205634144,0,-0.0151,-0.9238,0.6355,533,1.1597,-43.0298,25.8789,88,1.5057,1.5257,12.2242,-47.7782,32,0.2021,8266,3.9908,-92.0467
lg,1625222827205651787,0,0.0698,-0.9963,0.658,534,-2.3804,-45.7153,22.2168,88,1.5077,1.5277,11.0549,-47.813,32,0.2041,8739,3.9908,-90.127
lg,1625222827205669098,0,0.2214,-0.8735,0.657,535,11.1694,-14.3433,14.7705,88,1.5107,1.5277,10.7267,-47.3049,32,0.2051,9928,3.9908,-90.3064
lg,1625222827205686426,0,0.1687,-0.8674,0.6016,536,19.8364,35.0342,1.4038,88,1.5097,1.5267,10.9471,-47.0089,32,0.2071,8368,3.9908,-91.3775
lg,1625222827205704607,0,-0.0579,-0.9104,0.6018,537,-0.3052,72.6929,6.2256,88,1.5117,1.5297,12.7757,-47.8079,32,0.2081,9118,3.9908,-93.4679
lg,1625222827205722194,0,-0.3044,-0.9041,0.6277,538,-5.6152,90.332,21.7896,88,1.5107,1.5307,15.9185,-48.8553,32,0.2091,8328,3.9908,-95.7267
lg,1625222827205739875,0,-0.3374,-0.7439,0.749,539,0.1221,40.8936,22.2168,88,1.5107,1.5317,17.7252,-48.8745,32,0.2101,8826,3.9908,-96.3603
lg,1625222827205757407,0,-0.364,-0.7104,0.5845,540,3.8452,8.3618,11.5356,88,1.5097,1.5317,18.4397,-48.757,32,0.2101,8375,3.9908,-96.3228
lg,1625222827205774995,0,-0.3462,-0.7915,0.6213,541,-20.2637,-30.6396,15.2588,82,1.5087,1.5317,18.1193,-49.238,32,0.2101,8827,3.9985,-94.9609
lg,1625222827205793009,0,-0.3835,-0.8521,0.3711,542,-10.437,-40.4053,11.3525,82,1.5087,1.5317,17.6164,-49.8044,32,0.2111,8879,3.9985,-93.5588
lg,1625222827205810023,0,-0.3455,-0.8855,0.6438,543,4.2725,-24.7192,27.71,82,1.5097,1.5317,17.8157,-49.3166,32,0.2121,8531,3.9985,-92.061
lg,1625222827205827074,0,-0.2051,-0.8655,0.8052,544,7.019,-54.0771,24.231,82,1.5107,1.5327,15.5203,-48.1086,32,0.2111,8908,3.9985,-88.844
lg,1625222827576848865,0,0.2717,-0.9856,0.5974,545,1.0986,-6.1035,-35.4614,82,1.5137,1.5287,14.1337,-48.949,32,0.2051,27521,3.9985,-91.2201
lg,1625222827576897278,0,0.0325,-0.9138,0.459,546,26.4282,83.8623,-51.1475,82,1.5127,1.5257,14.1545,-49.4423,32,0.2031,8652,3.9985,-95.3575
lg,1625222827576918809,0,-0.0776,-0.793,0.4204,547,40.7104,105.2246,-32.3486,82,1.5117,1.5237,15.5394,-49.3902,32,0.2021,7938,3.9985,-99.6632
lg,1625222827576939785,0,-0.1511,-0.7397,0.4614,548,32.5317,115.3564,-15.9302,82,1.5117,1.5227,18.5319,-50.1434,32,0.2031,7877,3.9985,-103.5926
lg,1625222827576959891,0,-0.4282,-0.8308,0.5361,549,-4.1504,105.3467,9.3994,82,1.5127,1.5227,21.6532,-51.6806,32,0.2081,7924,3.9985,-106.9165
lg,1625222827577012488,0,-0.6895,-0.897,0.6196,550,-33.4473,43.8843,52.7344,82,1.5147,1.5267,24.7983,-53.1843,32,0.2071,9733,3.9985,-107.0899
lg,1625222827577037481,0,-0.6914,-0.7844,0.5835,551,-32.4707,-52.7344,82.3364,82,1.5127,1.5287,26.5676,-52.7047,32,0.2061,8397,3.9985,-103.0173
lg,1625222827577058605,0,-0.5557,-0.6653,0.6006,552,-28.7476,-149.1089,81.4819,82,1.5087,1.5297,25.6367,-50.3693,32,0.2061,9453,3.9985,-95.4655
lg,1625222827577077119,0,0.0654,-0.6858,0.4583,553,-41.1377,-275.2686,55.4199,82,1.5077,1.5287,19.0587,-48.241,32,0.2031,8474,3.9985,-85.0264
lg,1625222827577096706,0,0.4485,-1.0483,0.5115,554,-63.1714,-282.5317,41.3818,82,1.5067,1.5267,12.786,-49.4534,32,0.2031,8008,3.9985,-76.6523
lg,1625222827577114886,0,0.3328,-1.1028,0.2717,555,-48.7061,-160.5225,33.2031,82,1.5057,1.5257,10.7257,-50.9143,32,0.2021,9956,3.9985,-74.3427
lg,1625222827577145600,0,0.1548,-1.1086,0.4082,556,-2.6245,26.5503,23.3154,82,1.5067,1.5257,11.4225,-51.7983,32,0.2021,8971,3.9985,-74.7319
lg,1625222827577165447,0,-0.0632,-0.8555,0.6431,557,38.208,111.5723,41.9312,82,1.5057,1.5257,15.177,-50.89,32,0.2021,8463,3.9985,-77.2577
lg,1625222827577184608,0,-0.1494,-0.6816,0.6299,558,22.8271,85.144,36.499,82,1.5067,1.5257,18.2083,-50.331,32,0.2031,8094,3.9985,-79.007
lg,1625222827577202881,0,-0.1631,-0.79,0.6597,559,9.4604,70.9839,35.8276,82,1.5067,1.5267,20.7209,-50.5804,32,0.2031,8573,3.9985,-80.4254
lg,1625222827577221265,0,-0.1758,-0.9482,0.6006,560,0.3662,43.8232,27.8931,82,1.5067,1.5267,22.2192,-51.1077,32,0.2071,8472,3.9985,-81.2355
lg,1625222827577238816,0,-0.0884,-0.8782,0.5769,561,12.9395,29.541,19.8975,82,1.5087,1.5277,22.8943,-50.9926,32,0.2081,8468,3.9985,-81.7819
lg,1625222827577257756,0,-0.0288,-0.8396,0.5615,562,19.4702,35.0342,6.2256,82,1.5107,1.5267,23.1408,-50.8253,32,0.2081,8915,3.9985,-82.8836
lg,1625222827577275751,0,-0.0168,-0.8611,0.6653,563,20.5078,39.5508,-3.9673,82,1.5137,1.5257,22.7656,-50.6934,32,0.2061,8928,3.9985,-84.745
lg,1625222827577294505,0,-0.0059,-0.8923,0.5571,564,23.3154,41.5649,-24.5972,82,1.5147,1.5217,22.1834,-50.8561,32,0.2041,8934,3.9985,-86.9323
lg,1625222827577313667,0,-0.0647,-0.9482,0.4634,565,22.2778,66.1011,-25.7568,82,1.5147,1.5207,22.3133,-51.6184,32,0.2021,8630,3.9985,-90.0639
lg,1625222827577332217,0,-0.2434,-0.9155,0.4807,566,15.7471,88.9893,-9.5215,82,1.5157,1.5207,23.8293,-52.7212,32,0.2061,9058,3.9985,-93.5434
lg,1625222827577351545,0,-0.4451,-0.8909,0.5684,567,-7.1411,82.0312,26.9165,82,1.5167,1.5217,26.5886,-54.1242,32,0.2111,8997,3.9985,-95.8288
lg,1625222827577371096,0,-0.55,-0.7681,0.4937,568,-10.8643,52.4902,36.6211,82,1.5167,1.5247,29.1572,-55.1234,32,0.2121,8509,3.9985,-96.8649
lg,1625222827577389591,0,-0.6479,-0.7117,0.6172,569,-14.3433,-5.9814,61.0352,82,1.5127,1.5257,31.222,-54.5175,32,0.2121,8698,3.9985,-94.8953
lg,1625222827577407641,0,-0.6021,-0.7485,0.657,570,-20.0195,-85.7544,61.0352,82,1.5087,1.5277,31.153,-52.5177,32,0.2111,8410,3.9985,-89.8427
lg,1625222827577427155,0,-0.1199,-0.75,0.6316,571,-31.3721,-194.7632,46.2646,82,1.5087,1.5277,26.8033,-49.6474,32,0.2111,10779,3.9985,-81.541
lg,1625222827577445631,0,0.1743,-1.0259,0.5886,572,-44.0063,-176.6357,29.2969,82,1.5077,1.5267,21.8298,-49.0725,32,0.2101,8404,3.9985,-75.0265
lg,1625222827577464460,0,0.2615,-1.0266,0.4114,573,-29.9683,-125.6104,29.7241,82,1.5077,1.5257,19.697,-49.3558,32,0.2091,9205,3.9985,-72.8819
lg,1625222827577482270,0,0.1411,-0.9922,0.499,574,2.3193,14.8315,15.1978,82,1.5077,1.5257,19.5298,-49.849,32,0.2101,8652,3.9985,-73.1358
lg,1625222827577515076,0,-0.0615,-0.8311,0.4932,575,22.3389,78.2471,17.5781,82,1.5047,1.5257,21.4514,-50.0705,32,0.2111,8866,3.9985,-75.3491
lg,1625222827577535385,0,-0.2622,-0.8398,0.5049,576,18.4326,88.9282,9.6436,82,1.5087,1.5267,23.7468,-50.7305,32,0.2121,8543,3.9985,-78.1902
lg,1625222827966659039,0,-0.1157,-0.855,0.6011,577,10.6812,-0.2441,9.0942,82,1.5147,1.5277,23.3386,-50.3678,32,0.2151,27322,3.9985,-78.002
lg,1625222827966705952,0,0.0801,-0.8828,0.5486,578,11.4136,-3.1128,-2.0142,82,1.5157,1.5257,22.1446,-50.2156,32,0.2121,13240,3.9985,-78.0855
lg,1625222827966726983,0,0.1267,-0.939,0.5835,579,20.752,33.9355,-14.7705,82,1.5147,1.5237,21.4665,-50.2814,32,0.2081,8297,3.9985,-79.7435
lg,1625222827966746960,0,0.134,-0.9429,0.6189,580,25.3296,56.2744,-22.8882,82,1.5107,1.5197,21.1147,-50.4351,32,0.2031,8293,3.9985,-82.3307
lg,1625222827966766288,0,0.0286,-0.9207,0.4482,581,31.6772,102.8442,-37.7197,82,1.5097,1.5187,21.6619,-51.3565,32,0.2011,7924,3.9985,-86.9842
lg,1625222827966785079,0,-0.2188,-0.8672,0.5508,582,12.4512,132.9956,-15.0146,82,1.5107,1.5197,24.0423,-53.036,32,0.2071,9642,3.9985,-92.0405
lg,1625222827966804463,0,-0.521,-0.7917,0.5137,583,-12.8174,140.1978,18.9819,82,1.5127,1.5237,28.0837,-55.7074,32,0.2071,9479,3.9985,-96.6967
lg,1625222827966822495,0,-0.6914,-0.7358,0.4807,584,-20.9961,113.2812,23.1323,82,1.5137,1.5257,31.8712,-58.3695,32,0.2061,8371,3.9985,-100.4894
lg,1625222827966839842,0,-0.9519,-0.7407,0.6296,585,-9.8267,41.8701,33.2642,82,1.5107,1.5267,34.3624,-58.9362,32,0.2051,8218,3.9985,-101.2172
lg,1625222827966857319,0,-0.7856,-0.6663,0.7749,586,-7.9346,-106.0791,43.396,82,1.5087,1.5287,33.7046,-55.4994,32,0.2051,8808,3.9985,-95.3667
lg,1625222827966874314,0,-0.271,-0.6392,0.5342,587,-25.3296,-246.46,10.9253,82,1.5077,1.5277,27.6246,-51.4217,32,0.2041,9880,3.9985,-85.7395
lg,1625222827966891680,0,0.042,-0.9238,0.4927,588,-65.4297,-219.7876,7.5073,82,1.5077,1.5277,21.2919,-51.2634,32,0.2051,10529,3.9985,-78.2043
lg,1625222827966909231,0,0.1008,-1.0864,0.3372,589,-27.5879,-94.2383,6.1035,82,1.5077,1.5287,18.2024,-52.1071,32,0.2051,8462,3.9985,-75.2089
lg,1625222827966926948,0,0.0205,-1.0769,0.4309,590,-9.7046,-31.4331,5.7983,82,1.5067,1.5287,16.9008,-52.7817,32,0.2051,8155,3.9985,-74.2147
lg,1625222827966944407,0,-0.0286,-0.8865,0.5793,591,26.3062,21.6675,23.6206,82,1.5077,1.5297,17.5702,-51.923,32,0.2061,8205,3.9985,-74.3847
lg,1625222827966961902,0,-0.0518,-0.7546,0.5845,592,17.5171,28.8086,21.4233,82,1.5087,1.5297,18.3806,-51.3466,32,0.2061,8178,3.9985,-74.7843
lg,1625222827966979231,0,-0.0686,-0.7771,0.5774,593,5.3101,25.2686,20.6909,82,1.5097,1.5307,19.0809,-51.7063,32,0.2081,8937,3.9985,-74.9532
lg,1625222827966996504,0,-0.0698,-0.9326,0.5793,594,-5.3711,15.9302,24.231,82,1.5097,1.5307,19.6282,-52.1439,32,0.2081,8195,3.9985,-74.9387
lg,1625222827967013925,0,0.0315,-0.8838,0.637,595,-2.3804,-4.1504,23.4985,82,1.5097,1.5307,19.4396,-52.0627,32,0.2061,13820,3.9985,-74.2167
lg,1625222827967055007,0,0.0771,-0.832,0.6948,596,-9.1553,-4.4556,27.0386,82,1.5087,1.5317,19.355,-52.2636,32,0.2051,8225,3.9985,-73.4065
lg,1625222827967075168,0,-0.0647,-0.8755,0.5696,597,-17.7612,14.2822,19.2871,82,1.5077,1.5297,19.6905,-53.1507,32,0.2051,8269,3.9985,-73.4537
lg,1625222827967093385,0,-0.2739,-0.876,0.5283,598,-11.3525,26.5503,13.1226,82,1.5067,1.5267,20.5503,-54.0243,32,0.2031,10508,3.9985,-74.1097
lg,1625222827967110529,0,-0.3723,-0.8169,0.5188,599,-0.3052,6.3477,13.1226,82,1.5067,1.5247,21.1388,-54.125,31,0.2031,9636,3.9985,-74.047
lg,1625222827967130783,0,-0.3853,-0.8059,0.5103,600,4.8218,-5.249,25.4517,82,1.5067,1.5247,21.8684,-53.7554,31,0.2031,9723,3.9985,-73.268
lg,1625222827967148759,0,-0.2344,-0.8655,0.5789,601,2.3193,-32.7148,28.0151,82,1.5077,1.5257,21.6265,-53.0667,31,0.2031,8368,3.9985,-71.4541
lg,1625222827967166366,0,0.1074,-0.8945,0.6262,602,6.897,-48.4009,17.9443,82,1.5087,1.5267,19.9853,-52.1135,31,0.2041,9294,3.9985,-69.3779
lg,1625222827967183658,0,0.2368,-0.9233,0.6565,603,8.1787,-37.5366,2.3804,82,1.5127,1.5297,17.8677,-51.4941,32,0.2021,9202,3.9985,-68.1205
lg,1625222827967201190,0,0.2585,-0.9905,0.6545,604,9.0332,31.6162,-34.1797,82,1.5137,1.5297,16.4343,-51.8945,32,0.2011,8447,3.9985,-70.1038
lg,1625222827967218278,0,0.1799,-0.9512,0.5847,605,34.0576,90.0879,-64.6362,82,1.5147,1.5267,15.624,-52.0637,32,0.1941,8462,3.9985,-74.7869
lg,1625222827967235292,0,0.0181,-0.9602,0.4949,606,37.0483,127.6855,-95.7642,82,1.5097,1.5217,15.044,-52.7616,32,0.1901,10496,3.9985,-81.5137
lg,1625222827967252676,0,-0.1826,-0.9553,0.2197,607,46.1426,135.7422,-97.6562,82,1.5037,1.5127,15.0167,-53.6581,32,0.1831,8938,3.9985,-88.6766
lg,1625222827967270005,0,-0.2563,-0.8162,0.2825,608,52.124,137.5122,-58.7769,82,1.5007,1.5077,16.4311,-53.8794,32,0.1781,9153,3.9985,-94.9009
lg,1625222828320009530,0,-0.4351,-0.8423,0.6633,609,-13.7329,90.6982,41.0156,82,1.5007,1.5037,20.219,-55.1942,32,0.1861,26520,3.9985,-95.8944
lg,1625222828320103932,0,-0.6831,-0.877,0.5488,610,-46.4478,-1.9531,73.5474,82,1.5037,1.5127,23.1184,-56.4521,32,0.1831,13213,3.9985,-94.0889
lg,1625222828320137961,0,-0.8828,-0.7495,0.5132,611,-26.062,-97.8394,71.5942,82,1.5047,1.5177,24.1191,-55.3258,32,0.1851,10393,3.9985,-88.7737
lg,1625222828320167268,0,-0.7454,-0.6689,0.5608,612,-30.5176,-232.666,105.1025,82,1.5027,1.5197,22.6707,-52.0289,32,0.1861,7938,3.9985,-77.8053
lg,1625222828320196039,0,-0.0654,-0.5991,0.5752,613,-27.2827,-364.502,83.9844,82,1.5017,1.5187,15.2679,-48.295,32,0.1861,9583,3.9985,-63.6863
lg,1625222828320224809,0,0.3916,-0.9592,0.5017,614,-39.3066,-387.4512,49.9268,82,1.5007,1.5187,6.5271,-49.7144,32,0.1871,8327,3.9985,-51.7704
lg,1625222828320252913,0,0.7156,-1.2476,0.4744,615,-39.7339,-194.1528,36.1938,82,1.5007,1.5187,1.4612,-51.4549,32,0.1871,10925,3.9985,-44.9004
lg,1625222828320280203,0,0.6067,-1.2571,0.4407,616,-18.4937,-74.3408,18.1885,82,1.5017,1.5187,-0.7682,-52.841,32,0.1871,8028,3.9985,-42.1116
lg,1625222828320307677,0,0.3501,-1.0063,0.5833,617,36.8652,97.1069,23.9868,82,1.5007,1.5197,1.7262,-51.6462,32,0.1871,7995,3.9985,-44.6073
lg,1625222828320389657,0,0.0596,-0.7703,0.5713,618,41.687,163.6963,12.5732,82,1.5007,1.5207,5.9979,-50.3637,32,0.1871,8034,3.9985,-49.4008
lg,1625222828320420020,0,-0.1292,-0.7444,0.551,619,30.5786,177.4292,8.2397,82,1.5017,1.5217,10.8372,-50.0331,32,0.1881,8047,3.9985,-54.7152
lg,1625222828320449012,0,-0.3867,-0.8525,0.5955,620,16.2354,147.4609,10.3149,82,1.5027,1.5227,15.2706,-50.5567,32,0.1911,8727,3.9985,-59.1444
lg,1625222828320499277,0,-0.4795,-0.8735,0.5615,621,14.4653,77.2095,16.3574,82,1.5027,1.5247,18.0939,-50.812,32,0.1931,8607,3.9985,-61.2764
lg,1625222828320527548,0,-0.3406,-0.782,0.5581,622,17.6392,9.2773,24.7192,82,1.5057,1.5247,19.1439,-50.1245,32,0.1931,9447,3.9985,-60.958
lg,1625222828320554060,0,-0.2292,-0.7888,0.571,623,18.5547,-16.3574,25.3906,82,1.5087,1.5237,18.2831,-48.9478,32,0.1931,9278,3.9985,-59.2939
lg,1625222828320581201,0,0.0588,-0.8259,0.6699,624,14.5874,-44.8608,7.3853,82,1.5107,1.5217,16.4882,-47.9574,32,0.1941,8132,3.9985,-57.7107
lg,1625222828320607528,0,0.1545,-0.9492,0.5818,625,6.8359,-18.2495,-14.3433,82,1.5117,1.5207,14.6468,-48.0569,32,0.1931,8167,3.9985,-57.664
lg,1625222828320634873,0,0.1353,-1.0134,0.5774,626,10.8032,10.498,-18.3716,82,1.5107,1.5187,14.385,-48.3056,32,0.1921,8205,3.9985,-59.6643
lg,1625222828320660459,0,0.0669,-0.96,0.5112,627,26.123,73.7915,-13.916,82,1.5087,1.5167,15.2304,-48.4882,32,0.1921,8264,3.9985,-62.4703
lg,1625222828320685768,0,-0.1218,-0.8545,0.4675,628,24.353,129.0894,-3.7231,82,1.5097,1.5157,18.1831,-49.2243,32,0.1941,8235,3.9985,-66.7735
lg,1625222828320712057,0,-0.428,-0.8909,0.6709,629,7.4463,137.9395,6.2256,82,1.5107,1.5167,22.2396,-50.9868,32,0.1981,8274,3.9985,-70.5808
lg,1625222828320739828,0,-0.5764,-0.8159,0.5876,630,-13.855,107.2388,32.4097,82,1.5127,1.5197,26.1777,-52.8115,32,0.2001,8243,3.9985,-73.4627
lg,1625222828320768617,0,-0.7141,-0.7432,0.5815,631,-16.6626,30.9448,45.5322,82,1.5137,1.5237,28.7927,-53.3795,32,0.2001,8298,3.9985,-73.335
lg,1625222828320798295,0,-0.7329,-0.7295,0.6372,632,-17.2119,-54.3823,44.8608,82,1.5117,1.5257,29.2415,-52.3212,32,0.1991,8735,3.9985,-70.0207
lg,1625222828320826843,0,-0.6299,-0.7305,0.5894,633,-27.5879,-114.3188,52.124,82,1.5087,1.5267,28.2226,-50.6818,32,0.1981,8335,3.9985,-64.4202
lg,1625222828320855410,0,-0.2622,-0.8022,0.5776,634,-42.2974,-200.3174,55.3589,82,1.5047,1.5277,24.2448,-48.7929,32,0.1991,8363,3.9985,-56.0841
lg,1625222828320882996,0,0.0852,-0.8545,0.2976,635,-27.0386,-201.4771,21.7896,82,1.5057,1.5267,18.5371,-48.1809,32,0.1991,8463,3.9985,-49.3625
lg,1625222828320910304,0,0.1111,-0.946,0.3235,636,-33.8745,-156.0669,16.2964,82,1.5057,1.5277,15.8244,-48.8719,32,0.1991,8436,3.9985,-46.1449
lg,1625222828320938630,0,0.0474,-0.9888,0.3386,637,-0.9155,-33.5083,21.1792,82,1.5057,1.5257,14.9165,-49.3567,32,0.2001,8474,3.9985,-44.7586
lg,1625222828320965605,0,-0.0439,-0.8862,0.6006,638,21.4844,21.0571,25.9399,82,1.5057,1.5277,15.7541,-48.7437,32,0.1991,8439,3.9985,-44.787
lg,1625222828320991672,0,0.0193,-0.7847,0.6106,639,21.8506,14.9536,21.4233,82,1.5077,1.5297,16.1286,-47.9652,32,0.2001,9585,3.9985,-44.7035
lg,1625222828321017592,0,0.0503,-0.8992,0.5808,640,10.498,17.334,7.019,82,1.5087,1.5297,16.0698,-48.0067,32,0.2031,8577,3.9985,-45.1499
lg,1625222828695657364,0,-0.1667,-0.8342,0.5195,641,21.3623,43.8843,-4.8218,82,1.5127,1.5287,17.381,-48.5233,32,0.2091,27630,3.9985,-46.6348
lg,1625222828695723366,0,-0.3606,-0.8699,0.6426,642,-14.5264,59.2651,45.105,82,1.5087,1.5317,20.3244,-49.4976,32,0.2091,13547,3.9985,-47.3401
lg,1625222828695744842,0,-0.3638,-0.7097,0.8303,643,2.8687,32.2266,39.7339,82,1.5077,1.5317,22.2908,-48.9857,32,0.2061,7850,3.9985,-47.1501
lg,1625222828695764874,0,-0.542,-0.7449,0.7507,644,-18.2495,-12.5122,12.146,82,1.5067,1.5317,22.5212,-49.2534,32,0.2061,9714,3.9985,-46.3305
lg,1625222828695783796,0,-0.4104,-0.7681,0.6665,645,-15.8691,-52.5513,18.7988,82,1.5057,1.5307,21.6968,-49.019,32,0.2061,7962,3.9985,-44.0724
lg,1625222828695801976,0,-0.3428,-0.8918,0.5952,646,-23.6816,-77.3315,12.207,82,1.5057,1.5317,19.8996,-49.2331,32,0.2061,8297,3.9985,-41.3278
lg,1625222828695830117,0,-0.1931,-0.9316,0.6218,647,-7.9346,-57.1289,19.7144,82,1.5057,1.5317,18.613,-49.0439,32,0.2071,8713,3.9985,-39.0448
lg,1625222828695848835,0,-0.0989,-0.8884,0.6335,648,-4.3335,-58.7769,14.6484,82,1.5067,1.5317,16.4864,-48.7251,32,0.2081,8345,3.9985,-37.0459
lg,1625222828695866071,0,0.0872,-0.875,0.5645,649,-3.3569,-44.0674,0.7324,82,1.5087,1.5337,14.5131,-48.9197,32,0.2091,9555,3.9985,-35.7707
lg,1625222828695883863,0,0.0786,-0.9509,0.5547,650,-3.9673,10.5591,-9.5215,82,1.5067,1.5327,13.7804,-49.6486,32,0.2091,7962,3.9985,-36.4622
lg,1625222828695901303,0,-0.0442,-0.9783,0.5256,651,3.3569,42.7856,-20.5688,82,1.5117,1.5337,13.7973,-50.445,32,0.2101,8802,3.993,-38.4715
lg,1625222828695918780,0,-0.0642,-0.926,0.5408,652,6.897,45.5322,-23.9258,86,1.5127,1.5337,13.5877,-50.8125,32,0.2081,8139,3.993,-40.6193
lg,1625222828695936091,0,-0.073,-0.8853,0.3992,653,16.3574,31.25,-34.3018,86,1.5127,1.5317,12.9525,-51.1799,32,0.2061,8099,3.993,-42.6426
lg,1625222828695953198,0,-0.0984,-0.8716,0.3711,654,16.4795,18.4326,-37.2925,86,1.5127,1.5297,11.9852,-51.4728,32,0.2061,8096,3.993,-44.3243
lg,1625222828695970138,0,-0.1182,-0.8711,0.3767,655,21.6064,24.7803,-22.8882,86,1.5127,1.5287,12.3579,-51.3532,32,0.2061,8111,3.993,-45.5763
lg,1625222828696003259,0,-0.1511,-0.822,0.3728,656,16.9067,33.0811,16.4795,86,1.5127,1.5297,13.5912,-51.3767,32,0.2091,8897,3.993,-46.3383
lg,1625222828696020533,0,-0.2742,-0.9111,0.6602,657,-5.9204,36.1938,58.4106,86,1.5147,1.5317,16.3129,-51.6221,32,0.2131,8547,3.993,-46.0359
lg,1625222828696037399,0,-0.3779,-0.812,0.5327,658,-5.7983,1.2817,75.8667,86,1.5157,1.5337,18.9114,-51.4515,32,0.2111,8224,3.993,-44.1563
lg,1625222828696054635,0,-0.4524,-0.7463,0.5732,659,-11.4746,-44.1284,70.9229,86,1.5107,1.5337,20.2803,-50.8102,32,0.2111,9735,3.993,-40.817
lg,1625222828696072020,0,-0.2146,-0.6365,0.5073,660,1.0376,-117.4316,46.5698,86,1.5077,1.5347,18.4809,-49.0937,32,0.2101,10936,3.993,-35.7399
lg,1625222828696088645,0,-0.009,-0.8813,0.7498,661,-38.6353,-139.3433,39.4287,86,1.5057,1.5327,15.3383,-49.0488,32,0.2091,13361,3.993,-30.2614
lg,1625222828696105493,0,0.0679,-0.9541,0.5566,662,-20.0195,-97.4121,20.752,86,1.5047,1.5317,12.7114,-49.3965,32,0.2081,9016,3.993,-26.7696
lg,1625222828696122470,0,-0.0447,-0.9395,0.6545,663,2.9297,-14.5874,16.8457,86,1.5047,1.5307,12.4313,-49.3039,32,0.2081,9054,3.993,-25.9168
lg,1625222828696152333,0,-0.1497,-0.7812,0.5376,664,10.9253,24.1089,11.8408,86,1.5047,1.5307,13.2779,-49.1993,32,0.2081,9092,3.993,-26.4033
lg,1625222828696169884,0,-0.2151,-0.8274,0.5664,665,7.2632,32.7759,14.3433,86,1.5037,1.5317,14.5156,-49.3062,32,0.2091,10145,3.993,-27.1007
lg,1625222828696187028,0,-0.2234,-0.8669,0.5557,666,8.5449,28.0151,13.855,86,1.5057,1.5327,15.5724,-49.4066,32,0.2101,9668,3.993,-27.689
lg,1625222828696203857,0,-0.2148,-0.8506,0.5784,667,10.376,24.8413,14.2212,86,1.5057,1.5337,16.4967,-49.3483,32,0.2101,8435,3.993,-28.1583
lg,1625222828696221093,0,-0.1519,-0.8442,0.5776,668,9.5825,11.4746,13.3667,86,1.5067,1.5317,16.8809,-49.2101,32,0.2111,9158,3.993,-28.2304
lg,1625222828696238737,0,-0.1147,-0.8655,0.5398,669,7.0801,4.8218,11.3525,86,1.5077,1.5347,16.9411,-49.2326,32,0.2131,8824,3.993,-28.1779
lg,1625222828696257158,0,-0.0779,-0.8877,0.5056,670,9.4604,8.3008,10.9253,86,1.5087,1.5347,17.001,-49.2893,32,0.2151,8480,3.993,-28.2757
lg,1625222828696275376,0,-0.0667,-0.8625,0.488,671,11.2915,11.5356,11.6577,86,1.5107,1.5357,17.2255,-49.2897,32,0.2151,8871,3.993,-28.6158
lg,1625222828696294131,0,-0.071,-0.8831,0.5349,672,15.8081,22.3389,7.6904,86,1.5107,1.5337,17.5211,-49.1888,32,0.2161,8903,3.993,-29.2323
lg,1625222829081257130,0,-0.0725,-0.842,0.5144,673,25.8789,39.856,1.5259,86,1.5127,1.5317,18.088,-48.9072,32,0.2121,26217,3.993,-30.575
lg,1625222829081330020,0,-0.0962,-0.8325,0.4756,674,34.1187,60.2417,5.3711,86,1.5107,1.5287,19.3521,-48.5708,32,0.2101,13902,3.993,-32.4892
lg,1625222829081362068,0,-0.1489,-0.7834,0.5,675,38.6963,72.2656,9.2773,86,1.5087,1.5267,21.1383,-48.0912,32,0.2091,8182,3.993,-34.6565
lg,1625222829081392376,0,-0.2107,-0.7754,0.5083,676,39.7949,75.8667,15.8691,86,1.5067,1.5247,23.306,-47.5985,32,0.2091,9597,3.993,-36.7632
lg,1625222829081421277,0,-0.2397,-0.7671,0.5276,677,39.978,71.7163,21.4233,86,1.5067,1.5237,25.5198,-47.0177,32,0.2081,8385,3.993,-38.5788
lg,1625222829081448733,0,-0.2849,-0.74,0.4897,678,39.4897,62.439,24.6582,86,1.5057,1.5227,27.639,-46.4019,32,0.2101,8310,3.993,-40.0339
lg,1625222829081533362,0,-0.3015,-0.7261,0.4849,679,36.7432,44.7998,31.9214,86,1.5057,1.5227,29.462,-45.5633,32,0.2111,8513,3.993,-40.6918
lg,1625222829081565187,0,-0.2927,-0.7034,0.4802,680,37.9639,39.7949,34.9731,86,1.5067,1.5247,31.2835,-44.3475,32,0.2141,8586,3.993,-40.8135
lg,1625222829081598365,0,-0.3179,-0.7017,0.4922,681,45.4102,40.9546,38.0249,86,1.5067,1.5227,33.0908,-43.0109,32,0.2151,13352,3.993,-41.1008
lg,1625222829081626062,0,-0.3774,-0.675,0.53,682,48.4619,32.2266,32.959,86,1.5067,1.5227,34.5614,-41.3808,32,0.2161,8836,3.993,-41.1855
lg,1625222829081652963,0,-0.4089,-0.7144,0.5608,683,51.0254,13.1836,33.5693,86,1.5067,1.5227,35.4369,-39.3212,32,0.2151,8435,3.993,-40.6216
lg,1625222829081680290,0,-0.4211,-0.7109,0.5884,684,52.124,-0.6714,31.0669,86,1.5067,1.5227,35.7714,-37.0132,32,0.2151,8484,3.993,-39.6895
lg,1625222829081706562,0,-0.4148,-0.7141,0.5869,685,54.1382,-39.3677,31.7993,86,1.5077,1.5227,34.7347,-34.0633,32,0.2151,10290,3.993,-37.6546
lg,1625222829081734555,0,-0.3328,-0.7283,0.5967,686,54.3213,-72.0215,30.5786,86,1.5097,1.5237,32.4315,-30.9178,32,0.2151,9637,3.993,-34.9861
lg,1625222829081762919,0,-0.2341,-0.7512,0.5691,687,54.5044,-85.7544,30.5786,86,1.5107,1.5237,29.4351,-28.0537,32,0.2151,8105,3.993,-32.3027
lg,1625222829081790931,0,-0.147,-0.7852,0.5627,688,58.4106,-80.2612,27.5879,86,1.5107,1.5237,26.3966,-25.561,32,0.2151,8536,3.993,-30.1161
lg,1625222829081817073,0,-0.1057,-0.7898,0.5576,689,61.8896,-72.2656,24.231,86,1.5107,1.5237,23.4586,-23.3387,32,0.2161,8154,3.993,-28.3767
lg,1625222829081843770,0,-0.0647,-0.7927,0.5859,690,69.397,-57.1289,19.2871,86,1.5097,1.5237,21.0072,-21.155,32,0.2141,8158,3.993,-27.1734
lg,1625222829081871041,0,-0.0747,-0.7808,0.605,691,73.1812,-49.3774,7.5073,86,1.5117,1.5237,18.7332,-19.1288,32,0.2141,8176,3.993,-26.6059
lg,1625222829081897646,0,-0.0925,-0.7954,0.6167,692,74.4019,-49.1333,4.5166,86,1.5127,1.5227,16.3952,-17.2219,32,0.2131,8917,3.993,-26.4883
lg,1625222829081926602,0,-0.0847,-0.7803,0.6199,693,80.2002,-53.1006,-5.188,86,1.5127,1.5237,13.9669,-15.2342,32,0.2121,8194,3.993,-26.4589
lg,1625222829081956484,0,-0.1038,-0.7734,0.5991,694,91.4917,-60.5469,-12.3291,86,1.5127,1.5227,11.3087,-12.9491,32,0.2131,9423,3.993,-26.6849
lg,1625222829081986607,0,-0.0881,-0.7061,0.5598,695,108.0933,-61.2183,-14.2212,86,1.5127,1.5227,8.6809,-10.0819,32,0.2141,9874,3.993,-27.0389
lg,1625222829082015619,0,-0.082,-0.6145,0.5671,696,120.9717,-32.959,-5.0659,86,1.5127,1.5227,7.3043,-6.6368,32,0.2131,8306,3.993,-27.2583
lg,1625222829082084825,0,-0.1125,-0.5449,0.6003,697,125.6104,-17.4561,4.6387,86,1.5137,1.5227,6.7543,-2.8266,32,0.2121,8367,3.993,-27.167
lg,1625222829082122131,0,-0.1509,-0.5005,0.6621,698,124.0234,11.9019,20.0195,86,1.5127,1.5217,7.4304,0.9516,32,0.2131,8312,3.993,-26.5123
lg,1625222829082152309,0,-0.2566,-0.5625,0.7686,699,112.915,25.0854,30.2734,86,1.5137,1.5217,8.7354,4.2975,32,0.2121,8717,3.993,-25.408
lg,1625222829082180617,0,-0.3699,-0.6306,0.8816,700,107.9102,18.6768,31.7383,86,1.5137,1.5207,9.2749,7.2536,32,0.2121,8354,3.993,-24.4231
lg,1625222829082209629,0,-0.4397,-0.637,0.9163,701,102.8442,-19.7754,25.2075,86,1.5117,1.5197,8.9153,10.0636,32,0.2121,8835,3.993,-23.754
lg,1625222829082237511,0,-0.4961,-0.6152,0.9385,702,102.1118,-96.8018,13.4888,86,1.5137,1.5197,5.7027,12.6713,32,0.2121,8773,3.993,-24.202
lg,1625222829082265875,0,-0.3738,-0.5664,0.9543,703,94.7876,-181.5796,9.8267,86,1.5137,1.5197,-0.8442,14.9169,32,0.2121,8476,3.993,-25.6939
lg,1625222829082315585,0,-0.156,-0.5759,0.9727,704,88.9893,-211.0596,11.9019,86,1.5127,1.5187,-9.4296,16.8555,32,0.2121,8429,3.993,-27.7928
lg,1625222829428586416,0,0.3357,-0.6848,0.9622,705,82.7026,-183.2886,21.8506,86,1.5137,1.5177,-15.5462,18.9533,32,0.2111,26459,3.993,-28.3569
lg,1625222829428660732,0,0.5146,-0.6443,1.0544,706,97.7173,-89.9048,22.583,86,1.5127,1.5167,-19.7052,21.2811,32,0.2111,8667,3.993,-28.3207
lg,1625222829428683134,0,0.5481,-0.5762,1.0576,707,107.666,5.127,9.2773,86,1.5137,1.5167,-20.1023,23.7416,32,0.2111,7943,3.993,-27.3095
lg,1625222829428703259,0,0.2878,-0.5005,1.0947,708,102.9663,113.5254,-37.3535,86,1.5137,1.5157,-15.3754,25.9379,32,0.2101,14548,3.993,-26.1224
lg,1625222829428721755,0,0.1365,-0.5195,1.1045,709,97.0459,133.1177,-46.875,86,1.5137,1.5157,-9.6793,27.8441,32,0.2111,7998,3.993,-24.8767
lg,1625222829428740102,0,-0.0881,-0.5154,1.1443,710,88.3789,148.1323,-64.0259,86,1.5137,1.5157,-2.8971,29.5065,32,0.2111,8040,3.993,-23.9575
lg,1625222829428759505,0,-0.3223,-0.4363,1.0317,711,87.8906,109.7412,-75.2563,86,1.5127,1.5147,3.0811,31.2802,32,0.2111,8134,3.993,-24.2257
lg,1625222829428779667,0,-0.4514,-0.3242,0.9692,712,87.6465,73.9136,-76.355,86,1.5137,1.5147,6.8664,32.9743,32,0.2121,8136,3.993,-25.8353
lg,1625222829428797589,0,-0.5029,-0.2776,0.9465,713,82.7026,14.4653,-61.0962,86,1.5137,1.5137,9.5745,34.5328,32,0.2121,9441,3.993,-27.729
lg,1625222829428861981,0,-0.5063,-0.2017,1.0044,714,72.5098,-34.3628,-19.9585,86,1.5107,1.5127,9.6716,35.693,32,0.2121,8024,3.993,-29.4379
lg,1625222829428880625,0,-0.4021,-0.2043,1.155,715,53.772,-80.0171,20.4468,86,1.5127,1.5127,7.0857,36.1002,32,0.2121,8113,3.993,-30.9344
lg,1625222829428898898,0,-0.2786,-0.2356,1.1741,716,44.6167,-108.0933,33.8745,86,1.5137,1.5117,2.9219,36.0324,32,0.2121,8092,3.993,-32.6121
lg,1625222829428916542,0,-0.0481,-0.335,1.1746,717,34.8511,-155.4565,47.8516,86,1.5127,1.5107,-3.1916,35.6394,32,0.2111,8190,3.993,-34.802
lg,1625222829428934334,0,0.1956,-0.3816,1.1355,718,29.9072,-155.8228,54.3823,86,1.5127,1.5117,-9.79,35.2117,32,0.2111,8258,3.993,-36.5591
lg,1625222829428951997,0,0.3872,-0.3972,1.0845,719,29.8462,-143.6157,60.1196,86,1.5127,1.5107,-15.7504,34.8079,32,0.2111,8936,3.993,-37.1546
lg,1625222829428969678,0,0.4473,-0.3877,1.0925,720,30.3955,-102.9053,59.1431,86,1.5137,1.5107,-20.9072,34.3323,32,0.2111,8593,3.993,-37.0726
lg,1625222829428987692,0,0.4907,-0.3792,1.0813,721,29.6631,-38.6353,43.5791,86,1.5137,1.5107,-23.54,33.4543,32,0.2111,8238,3.993,-35.7859
lg,1625222829429005151,0,0.3208,-0.3516,1.1028,722,26.6113,19.7754,19.5923,86,1.5137,1.5097,-23.3006,32.1818,32,0.2091,8974,3.993,-33.8493
lg,1625222829429022554,0,0.1169,-0.3401,1.1069,723,26.062,34.5459,8.3618,86,1.5137,1.5107,-21.5796,31.0208,32,0.2091,8615,3.993,-32.189
lg,1625222829429039976,0,0.0203,-0.3208,1.1216,724,27.0386,38.8794,-4.2114,86,1.5127,1.5107,-19.6219,30.0796,32,0.2101,8629,3.993,-30.842
lg,1625222829429057287,0,-0.0728,-0.2932,1.0989,725,26.4282,16.3574,-8.4229,86,1.5137,1.5107,-18.2105,29.4242,32,0.2101,8666,3.993,-30.2357
lg,1625222829429075468,0,-0.0491,-0.2925,1.1274,726,24.1699,-11.2305,-6.7749,86,1.5127,1.5097,-18.3353,28.9062,32,0.2101,8330,3.993,-30.4006
lg,1625222829429093649,0,-0.0283,-0.2991,1.144,727,23.8647,-38.0859,-6.2256,86,1.5127,1.5097,-18.9734,28.5242,32,0.2101,8936,3.993,-30.8835
lg,1625222829429111385,0,0.0264,-0.2549,1.1384,728,24.6582,-60.73,-10.1929,86,1.5127,1.5097,-20.3944,28.4594,32,0.2111,9155,3.993,-31.9777
lg,1625222829429144285,0,0.0894,-0.2383,1.136,729,21.0571,-67.3828,-11.5967,86,1.5127,1.5097,-22.0917,28.3803,32,0.2121,8732,3.993,-33.2428
lg,1625222829429163762,0,0.1406,-0.2395,1.1179,730,16.2964,-66.3452,-10.0708,86,1.5127,1.5097,-23.8353,28.1191,32,0.2121,8582,3.993,-34.3935
lg,1625222829429180906,0,0.1599,-0.2344,1.0447,731,11.3525,-58.4106,-4.6387,86,1.5137,1.5107,-25.4178,27.5284,32,0.2111,11497,3.993,-35.1202
lg,1625222829429198309,0,0.1685,-0.2515,1.0134,732,7.5684,-49.0723,1.4648,86,1.5127,1.5107,-26.7806,26.5845,32,0.2111,8987,3.993,-35.3456
lg,1625222829429216102,0,0.2046,-0.261,1.0193,733,4.3945,-37.7808,6.3477,86,1.5137,1.5107,-27.8609,25.335,32,0.2121,9170,3.993,-35.0905
lg,1625222829429233838,0,0.2124,-0.2769,0.9988,734,2.9297,-31.7993,6.7139,86,1.5137,1.5107,-28.7272,23.9505,32,0.2111,8484,3.993,-34.6418
lg,1625222829429251667,0,0.2183,-0.2854,1.0156,735,3.418,-22.2168,9.7656,86,1.5137,1.5117,-29.261,22.4564,32,0.2111,8809,3.993,-33.8499
lg,1625222829429269219,0,0.2446,-0.3115,1.0518,736,8.2397,-11.7188,7.9346,86,1.5147,1.5117,-29.3882,21.1157,32,0.2121,8916,3.993,-32.9266
lg,1625222829799321071,0,0.1853,-0.2842,1.0059,737,21.6675,22.2778,-4.5166,86,1.5137,1.5117,-27.9542,20.3658,32,0.2121,27239,3.993,-32.0017
lg,1625222829799414623,0,0.0859,-0.2507,0.9788,738,24.0479,38.3911,-8.667,86,1.5137,1.5117,-25.6919,19.7764,32,0.2121,16388,3.993,-31.093
lg,1625222829799437303,0,0.0608,-0.2502,0.9915,739,25.8789,38.5132,-9.9487,86,1.5137,1.5117,-23.4119,19.5399,32,0.2121,7862,3.993,-30.4946
lg,1625222829799457002,0,0.0325,-0.1895,1.0171,740,27.832,29.1138,-7.7515,86,1.5137,1.5127,-21.4967,19.3752,32,0.2121,7849,3.993,-29.8958
lg,1625222829799476461,0,-0.0017,-0.2017,0.9863,741,18.0054,7.8735,-8.606,86,1.5137,1.5127,-20.3663,18.9268,32,0.2131,7926,3.993,-29.6733
lg,1625222829799494419,0,-0.0264,-0.229,1.0322,742,11.1084,-4.9438,-5.7983,86,1.5127,1.5127,-19.7465,18.2104,32,0.2121,7891,3.993,-29.536
lg,1625222829799525616,0,0.0134,-0.2458,1.0413,743,3.2959,-25.3906,7.9346,86,1.5137,1.5097,-20.172,17.0801,32,0.2131,9902,3.993,-29.1183
lg,1625222829799545741,0,0.1006,-0.2739,1.0249,744,3.6621,-42.9688,18.8599,86,1.5147,1.5137,-21.5595,15.8507,32,0.2121,8731,3.993,-28.4249
lg,1625222829799563866,0,0.1738,-0.2612,1.011,745,3.479,-52.6733,22.4609,86,1.5137,1.5127,-23.4476,14.6333,32,0.2121,8202,3.993,-27.6372
lg,1625222829799582602,0,0.208,-0.2676,1.0012,746,3.8452,-50.5981,19.5312,86,1.5137,1.5117,-25.2225,13.4575,32,0.2121,8398,3.993,-26.8646
lg,1625222829799600228,0,0.2649,-0.2554,0.9712,747,4.5166,-27.5269,22.7051,86,1.5137,1.5127,-26.182,12.1763,32,0.2111,14996,3.993,-25.6609
lg,1625222829799617835,0,0.2317,-0.2371,0.9763,748,1.709,-5.188,21.1182,86,1.5137,1.5127,-26.1214,10.7842,32,0.2111,8033,3.993,-24.3107
lg,1625222829799636053,0,0.2097,-0.2253,0.9937,749,0.061,4.3335,17.0898,86,1.5147,1.5137,-25.2145,9.3685,32,0.2111,8032,3.993,-23.0432
lg,1625222829799653863,0,0.1355,-0.249,1.0195,750,-2.2583,13.1836,19.6533,86,1.5147,1.5137,-24.1843,7.9137,32,0.2111,8053,3.993,-21.6895
lg,1625222829799671637,0,0.0771,-0.2483,1.0491,751,-1.6479,10.2539,17.8833,86,1.5147,1.5137,-23.144,6.6206,32,0.2121,8099,3.993,-20.4955
lg,1625222829799689392,0,0.0437,-0.2429,1.0312,752,-0.7324,3.418,20.0195,86,1.5147,1.5137,-22.5908,5.5131,32,0.2111,8832,3.993,-19.483
lg,1625222829799706907,0,0.0476,-0.2314,1.0334,753,1.0376,-12.146,17.8223,86,1.5157,1.5137,-22.3944,4.5152,32,0.2111,8639,3.993,-18.4704
lg,1625222829799723903,0,0.0667,-0.2358,1.0247,754,1.4038,-27.0386,20.5078,86,1.5147,1.5137,-22.8291,3.5263,32,0.2111,8223,3.993,-17.3886
lg,1625222829799740936,0,0.1262,-0.2378,1.0188,755,0.3052,-37.3535,20.9961,86,1.5157,1.5137,-23.765,2.5089,32,0.2101,8198,3.993,-16.2908
lg,1625222829799757765,0,0.1221,-0.2456,1.0139,756,-0.3662,-40.8325,23.4375,86,1.5157,1.5127,-24.7838,1.4121,32,0.2101,8222,3.993,-15.0508
lg,1625222829799774983,0,0.1545,-0.2734,1.022,757,-1.1597,-44.1895,23.1934,86,1.5157,1.5137,-25.9435,0.2391,32,0.2101,8191,3.993,-13.7617
lg,1625222829799803884,0,0.198,-0.2688,1.0203,758,-0.2441,-44.4946,25.1465,86,1.5157,1.5137,-27.1348,-0.9212,32,0.2101,8262,3.993,-12.3459
lg,1625222829799822490,0,0.209,-0.259,1.0122,759,0.9766,-42.6636,22.8882,86,1.5157,1.5137,-28.2107,-1.9659,32,0.2101,8215,3.993,-11
lg,1625222829799839357,0,0.2283,-0.2554,1.0139,760,0.6714,-36.7432,24.9023,86,1.5157,1.5127,-29.0223,-3.0465,32,0.2101,8335,3.993,-9.5441
lg,1625222829799856445,0,0.2148,-0.2451,0.9998,761,0.4883,-29.8462,24.353,86,1.5157,1.5137,-29.4859,-4.0836,32,0.2091,8334,3.993,-8.118
lg,1625222829799873293,0,0.1992,-0.2759,1.0042,762,0,-26.1841,21.9727,86,1.5167,1.5127,-29.7576,-5.0569,32,0.2091,8348,3.993,-6.8052
lg,1625222829799890178,0,0.2102,-0.2581,1.0137,763,-0.9155,-24.9023,24.1699,86,1.5177,1.5137,-29.94,-6.1078,32,0.2081,8363,3.993,-5.3842
lg,1625222829799907415,0,0.1943,-0.2581,1.0061,764,-1.0986,-26.5503,19.2871,86,1.5167,1.5137,-30.1537,-7.0315,32,0.2091,8416,3.9919,-4.1774
lg,1625222829799924448,0,0.2273,-0.2556,1.0217,765,-1.1597,-27.832,20.1416,87,1.5167,1.5137,-30.5493,-7.9821,32,0.2091,8489,3.9919,-2.8167
lg,1625222829799941240,0,0.2397,-0.2466,1.0244,766,-0.3052,-32.4097,20.2637,87,1.5157,1.5137,-31.0559,-8.8157,32,0.2091,9262,3.9919,-1.5463
lg,1625222829799957996,0,0.2856,-0.2444,1.0266,767,0.1221,-37.1094,18.6157,87,1.5167,1.5137,-31.8729,-9.6044,32,0.2091,10381,3.9919,-0.3075
lg,1625222829799975954,0,0.342,-0.2805,0.9973,768,1.2817,-34.3018,17.4561,87,1.5167,1.5137,-32.5603,-10.4032,32,0.2081,9243,3.9919,0.9282
lg,1625222830168073788,0,0.3118,-0.2698,0.98,769,1.5259,16.9678,13.916,87,1.5167,1.5137,-31.1832,-10.8229,32,0.2071,25178,3.9919,1.542
lg,1625222830168117667,0,0.2324,-0.2683,0.9746,770,1.3428,33.2031,12.3901,87,1.5157,1.5127,-28.7787,-11.0875,32,0.2071,11726,3.9919,1.8948
lg,1625222830168138681,0,0.1553,-0.2537,1.0146,771,0.3052,40.4663,15.625,87,1.5167,1.5137,-26.3647,-11.4548,32,0.2071,10185,3.9919,2.4762
lg,1625222830168184912,0,0.0903,-0.2563,1.0286,772,0.1831,30.3955,17.334,87,1.5167,1.5137,-24.2029,-11.7595,32,0.2071,8284,3.9919,3.0022
lg,1625222830168210073,0,0.0723,-0.2505,1.0344,773,0.6714,11.3525,16.6016,87,1.5167,1.5137,-22.8303,-12.0506,32,0.2071,8063,3.9919,3.6385
lg,1625222830168230142,0,0.0854,-0.2422,1.0266,774,1.8921,-8.3008,17.8223,87,1.5167,1.5137,-22.289,-12.3422,32,0.2071,9201,3.9919,4.4873
lg,1625222830168248379,0,0.0981,-0.2632,1.021,775,2.4414,-17.8833,18.8599,87,1.5167,1.5137,-22.1538,-12.695,32,0.2071,8479,3.9919,5.4827
lg,1625222830168267764,0,0.1726,-0.2446,1.0107,776,2.1362,-32.2876,22.2168,87,1.5167,1.5117,-22.7035,-13.1208,32,0.2071,9977,3.9919,6.745
lg,1625222830168286297,0,0.2124,-0.2688,1.0029,777,1.5259,-34.4849,21.5454,87,1.5177,1.5147,-23.3967,-13.6275,32,0.2071,8420,3.9919,8.0324
lg,1625222830168303830,0,0.2349,-0.2458,0.9983,778,0.9155,-29.1138,18.0054,87,1.5167,1.5137,-23.9301,-14.0239,32,0.2071,8829,3.9919,9.102
lg,1625222830168321752,0,0.2554,-0.2378,0.9905,779,0.3052,-26.2451,19.2261,87,1.5177,1.5137,-24.2435,-14.4179,32,0.2071,8745,3.9919,10.1635
lg,1625222830168339970,0,0.2573,-0.2661,1.0186,780,0.3662,-19.5312,19.8364,87,1.5167,1.5137,-24.3758,-14.8441,32,0.2061,8000,3.9919,11.2245
lg,1625222830168358096,0,0.2588,-0.2639,1.0166,781,-1.0376,-14.5874,19.4702,87,1.5167,1.5127,-24.3135,-15.2772,32,0.2061,8660,3.9919,12.2091
lg,1625222830168376906,0,0.23,-0.2629,1.0017,782,-0.8545,-12.207,19.8975,87,1.5167,1.5137,-24.0999,-15.6856,32,0.2061,8883,3.9919,13.1805
lg,1625222830168395717,0,0.2358,-0.2793,1.0125,783,-0.1221,-10.1929,16.7236,87,1.5177,1.5137,-23.8515,-16.0102,32,0.2061,11894,3.9919,13.9999
lg,1625222830168414953,0,0.2268,-0.2729,1.0083,784,1.0986,-11.0474,19.7754,87,1.5177,1.5137,-23.5918,-16.3129,32,0.2061,8141,3.9919,14.9472
lg,1625222830168433024,0,0.2319,-0.2656,1.0061,785,0.9155,-10.7422,18.3716,87,1.5167,1.5127,-23.3547,-16.5661,32,0.2061,8199,3.9919,15.8204
lg,1625222830168451168,0,0.2302,-0.2559,1.0002,786,0.6714,-9.8877,17.7002,87,1.5177,1.5137,-23.0991,-16.781,32,0.2061,8896,3.9919,16.6429
lg,1625222830168484364,0,0.2434,-0.2583,1.0002,787,0.4272,-8.728,16.8457,87,1.5177,1.5137,-22.8433,-16.9789,32,0.2061,8923,3.9919,17.4135
lg,1625222830168503564,0,0.2559,-0.2522,0.9968,788,0.3662,-7.9956,16.9067,87,1.5177,1.5137,-22.5948,-17.1535,32,0.2061,8579,3.9919,18.1691
lg,1625222830168520949,0,0.269,-0.2476,1.0049,789,0.4272,-7.9956,20.0806,87,1.5177,1.5137,-22.3263,-17.3823,32,0.2051,8915,3.9919,19.0591
lg,1625222830168538260,0,0.2664,-0.29,1.0112,790,0.5493,-5.6763,20.1416,87,1.5177,1.5117,-21.9737,-17.6388,32,0.2051,8975,3.9919,19.9386
lg,1625222830168555830,0,0.2878,-0.2717,1.0093,791,1.1597,-1.6479,18.4326,87,1.5187,1.5137,-21.5474,-17.7703,32,0.2061,8264,3.9919,20.6747
lg,1625222830168574030,0,0.2568,-0.2734,0.998,792,1.77,4.4556,17.5171,87,1.5177,1.5137,-20.8943,-17.8096,32,0.2061,13088,3.9919,21.2845
lg,1625222830168592525,0,0.2549,-0.2666,1.0005,793,2.3804,10.0098,16.8457,87,1.5177,1.5137,-20.0253,-17.785,32,0.2061,9816,3.9919,21.794
lg,1625222830168609429,0,0.2173,-0.2644,0.998,794,2.2583,15.1367,16.1133,87,1.5177,1.5137,-18.9292,-17.7208,32,0.2061,8724,3.9919,22.2055
lg,1625222830168626240,0,0.1882,-0.25,1.0112,795,1.5259,15.3809,13.855,87,1.5177,1.5137,-17.8314,-17.6113,32,0.2061,9081,3.9919,22.5119
lg,1625222830168642811,0,0.1509,-0.238,1.0198,796,1.2207,11.2915,18.1885,87,1.5177,1.5137,-16.8009,-17.5481,32,0.2061,9299,3.9919,23.0373
lg,1625222830168659344,0,0.1475,-0.2417,1.0073,797,1.0986,4.6997,15.9302,87,1.5187,1.5137,-16.0848,-17.4966,32,0.2061,10256,3.9919,23.5623
lg,1625222830168677285,0,0.1689,-0.2339,0.999,798,1.4038,-3.418,17.7002,87,1.5187,1.5147,-15.7337,-17.4648,32,0.2071,8488,3.9919,24.2573
lg,1625222830168694910,0,0.1609,-0.2542,1.0151,799,1.0986,-6.4087,18.0054,87,1.5187,1.5147,-15.5601,-17.5091,32,0.2071,9188,3.9919,25.0165
lg,1625222830168711110,0,0.2039,-0.2629,1.0291,800,0.7324,-11.2305,17.395,87,1.5177,1.5117,-15.5882,-17.5696,32,0.2061,8930,3.9919,25.8103
lg,1625222830539520437,0,0.2388,-0.2637,1.0015,801,-0.061,-2.8687,16.5405,87,1.5177,1.5137,-15.3907,-17.6387,32,0.2061,28144,3.9919,26.4688
lg,1625222830539584497,0,0.2349,-0.2639,1.0105,802,-0.4272,0.7324,16.4185,87,1.5177,1.5147,-15.0529,-17.6986,32,0.2071,15449,3.9919,27.0746
lg,1625222830539606029,0,0.2229,-0.2705,1.0073,803,1.4038,2.1362,15.8691,87,1.5187,1.5147,-14.6573,-17.6846,32,0.2071,7831,3.9919,27.644
lg,1625222830539625488,0,0.2188,-0.2561,1.0078,804,3.0518,2.8687,18.6768,87,1.5187,1.5137,-14.2093,-17.5953,32,0.2071,7937,3.9919,28.307
lg,1625222830539643706,0,0.2253,-0.2332,0.9958,805,3.418,4.7607,16.5405,87,1.5177,1.5137,-13.7566,-17.4213,32,0.2071,8517,3.9919,28.8533
lg,1625222830539661573,0,0.2068,-0.2383,1.0115,806,2.0142,6.6528,15.686,87,1.5187,1.5147,-13.2152,-17.2946,32,0.2071,7861,3.9919,29.3463
lg,1625222830539678773,0,0.196,-0.2485,1.0278,807,0.3052,6.1646,15.7471,87,1.5187,1.5147,-12.684,-17.2515,32,0.2071,8905,3.9919,29.8529
lg,1625222830539696269,0,0.2048,-0.2378,1.0151,808,0.2441,4.8218,17.0898,87,1.5187,1.5147,-12.1819,-17.2401,32,0.2071,8658,3.9919,30.4332
lg,1625222830539713413,0,0.1963,-0.2581,1.0161,809,1.0986,0.6104,17.2119,87,1.5187,1.5147,-11.8899,-17.2114,32,0.2071,8687,3.9919,31.0718
lg,1625222830539730428,0,0.2139,-0.2473,1.0088,810,2.0142,-0.3052,16.5405,87,1.5187,1.5147,-11.6939,-17.123,32,0.2071,7928,3.9919,31.6918
lg,1625222830539751368,0,0.2319,-0.2366,1.0037,811,2.2583,1.2207,15.8081,87,1.5187,1.5147,-11.4479,-17.0024,32,0.2071,8322,3.9919,32.2276
lg,1625222830539769031,0,0.2195,-0.2534,1.002,812,1.5259,4.5776,13.7329,87,1.5217,1.5147,-11.1322,-16.9203,32,0.2071,8785,3.9919,32.6855
lg,1625222830539786268,0,0.1775,-0.24,1.0142,813,0.6104,8.728,14.8315,87,1.5187,1.5147,-10.567,-16.8375,32,0.2071,12603,3.9919,33.1311
lg,1625222830539806189,0,0.1802,-0.2437,1.0015,814,0.4883,8.9111,17.8223,87,1.5187,1.5147,-9.993,-16.7933,32,0.2071,8055,3.9919,33.6954
lg,1625222830539824055,0,0.1611,-0.2544,1.01,815,0,6.7139,15.5029,87,1.5187,1.5147,-9.5082,-16.772,32,0.2071,8462,3.9919,34.1995
lg,1625222830539841626,0,0.1558,-0.2515,1.0232,816,0.4272,2.1362,18.0664,87,1.5187,1.5147,-9.1728,-16.7426,32,0.2071,8518,3.9919,34.8552
lg,1625222830539887467,0,0.1553,-0.2537,1.012,817,0.4883,-0.3052,16.1743,87,1.5187,1.5147,-9.0908,-16.7076,32,0.2071,8523,3.9919,35.5267
lg,1625222830539910296,0,0.158,-0.261,1.0117,818,0.9155,-6.1646,15.7471,87,1.5187,1.5147,-9.1235,-16.6857,32,0.2081,8513,3.9919,36.1947
lg,1625222830539928625,0,0.1746,-0.2354,1.0066,819,0.7935,-11.6577,17.4561,87,1.5197,1.5157,-9.3849,-16.641,32,0.2081,10279,3.9919,36.9851
lg,1625222830539946751,0,0.1934,-0.2539,1.0002,820,0.6714,-12.7563,16.4795,87,1.5197,1.5147,-9.7296,-16.6462,32,0.2081,8216,3.9919,37.7578
lg,1625222830539967191,0,0.1931,-0.2649,1.0171,821,0.4272,-13.0005,17.2729,87,1.5197,1.5147,-10.0525,-16.6851,32,0.2081,8961,3.9919,38.5668
lg,1625222830539985316,0,0.1887,-0.2529,1.0269,822,0.3662,-13.0615,16.2964,87,1.5187,1.5147,-10.3642,-16.6934,32,0.2081,8341,3.9919,39.2466
lg,1625222830540002794,0,0.2012,-0.2642,0.9995,823,-0.1221,-11.9629,16.4185,87,1.5197,1.5157,-10.6549,-16.7613,32,0.2081,8310,3.9919,40.0123
lg,1625222830540027196,0,0.2114,-0.2627,1.0071,824,0.1221,-9.3994,14.0991,87,1.5197,1.5147,-10.881,-16.7907,32,0.2071,8649,3.9919,40.656
lg,1625222830540044581,0,0.2258,-0.2522,1.011,825,0.6714,-8.728,17.0288,87,1.5197,1.5147,-11.0683,-16.7957,32,0.2081,8359,3.9919,41.4014
lg,1625222830540063336,0,0.2168,-0.2534,1.0098,826,0.6104,-7.8125,16.8457,87,1.5197,1.5157,-11.1875,-16.7954,32,0.2081,9176,3.9919,42.1276
lg,1625222830540082684,0,0.21,-0.2361,1.0298,827,0.2441,-5.4321,16.3574,87,1.5187,1.5147,-11.206,-16.7639,32,0.2071,8407,3.9919,42.7993
lg,1625222830540098921,0,0.1917,-0.2566,1.0115,828,0,-5.0049,15.625,87,1.5187,1.5147,-11.1825,-16.7889,32,0.2071,9130,3.9919,43.4477
lg,1625222830540117417,0,0.1946,-0.2441,1.0176,829,0.1221,-5.6763,16.4795,87,1.5197,1.5147,-11.1808,-16.7864,32,0.2081,8425,3.9919,44.1315
lg,1625222830540135598,0,0.1907,-0.2468,1.0078,830,0.1831,-6.3477,16.6016,87,1.5197,1.5147,-11.2391,-16.7994,32,0.2081,8770,3.9919,44.7993
lg,1625222830540152298,0,0.187,-0.2581,1.0288,831,-0.061,-7.7515,16.1133,87,1.5187,1.5147,-11.2968,-16.83,32,0.2081,8542,3.9919,45.4979
lg,1625222830540194937,0,0.1763,-0.2607,1.0437,832,-0.1221,-10.5591,17.5781,87,1.5177,1.5157,-11.4144,-16.8784,32,0.2081,9282,3.9919,46.2865
lg,1625222830922858522,0,0.2297,-0.2375,0.9973,833,0.3052,-12.7563,18.4326,87,1.5187,1.5147,-11.7326,-16.8993,32,0.2081,27852,3.9919,47.13
lg,1625222830922904049,0,0.2236,-0.2642,1.0063,834,0,-9.5825,16.9067,87,1.5187,1.5147,-11.914,-16.9669,32,0.2071,11180,3.9919,47.8865
lg,1625222830922925081,0,0.2275,-0.2588,1.011,835,0.6714,-7.0801,17.0898,87,1.5187,1.5147,-11.9969,-16.9883,32,0.2071,10565,3.9919,48.6171
lg,1625222830922944503,0,0.2307,-0.2632,1.0181,836,1.0986,-4.7607,18.8599,87,1.5197,1.5147,-11.9701,-17.0063,32,0.2071,8553,3.9919,49.3899
lg,1625222830922962943,0,0.2246,-0.2534,1.0007,837,1.3428,-1.9531,16.7847,87,1.5197,1.5147,-11.8578,-16.9779,32,0.2071,10291,3.9919,50.0453
lg,1625222830922981309,0,0.2092,-0.2412,1.0071,838,1.2207,-2.8076,17.334,87,1.5197,1.5147,-11.7432,-16.9311,32,0.2071,8642,3.9919,50.7265
lg,1625222830922999454,0,0.2104,-0.249,1.0134,839,1.5259,-2.7466,17.395,87,1.5187,1.5147,-11.6297,-16.8861,32,0.2081,8996,3.9919,51.4125
lg,1625222830923017135,0,0.2004,-0.248,1.0051,840,1.0376,-4.2114,18.1274,87,1.5197,1.5147,-11.5507,-16.8726,32,0.2081,9207,3.9919,52.1455
lg,1625222830923034039,0,0.2122,-0.2373,1,841,1.0376,-3.7231,18.3716,87,1.5197,1.5147,-11.4664,-16.8278,32,0.2081,9029,3.9919,52.783
lg,1625222830923051387,0,0.2031,-0.2542,1.0195,842,0.7935,-3.479,16.2354,87,1.5197,1.5137,-11.3879,-16.8131,32,0.2071,9067,3.9919,53.4349
lg,1625222830923069457,0,0.2051,-0.241,1.0193,843,0.4272,-4.2725,16.5405,87,1.5197,1.5147,-11.3453,-16.7897,32,0.2081,8292,3.9919,54.1027
lg,1625222830923086157,0,0.199,-0.248,1.001,844,0.6104,-6.1646,16.5405,87,1.5197,1.5147,-11.3702,-16.7885,32,0.2081,8326,3.9919,54.7981
lg,1625222830923103542,0,0.1968,-0.2422,0.9958,845,0.5493,-6.4087,16.1743,87,1.5197,1.5157,-11.4211,-16.8457,32,0.2081,9081,3.9919,55.541
lg,1625222830923121131,0,0.1985,-0.2437,1.0078,846,0.4272,-8.2397,18.3105,87,1.5197,1.5157,-11.4977,-16.8565,32,0.2081,9042,3.9919,56.3272
lg,1625222830923167231,0,0.2036,-0.2615,1.0044,847,0.3052,-9.1553,16.9678,87,1.5197,1.5157,-11.6313,-16.9046,32,0.2081,8007,3.9919,57.0799
lg,1625222830923190393,0,0.2095,-0.2585,1.0068,848,-0.061,-8.9722,16.6016,87,1.5207,1.5147,-11.768,-16.9565,32,0.2081,8784,3.9919,57.8146
lg,1625222830923208870,0,0.2283,-0.2361,1.0134,849,0.061,-8.8501,17.334,87,1.5207,1.5157,-11.8948,-16.9827,32,0.2081,8819,3.9919,58.5446
lg,1625222830923225941,0,0.218,-0.2551,1.0044,850,0.1221,-8.4229,17.0898,87,1.5197,1.5157,-12.0127,-17.0244,32,0.2081,8818,3.9919,59.2903
lg,1625222830923244196,0,0.2144,-0.2397,1.0144,851,0.3052,-9.0332,19.8975,87,1.5197,1.5147,-12.1061,-17.0451,32,0.2081,9233,3.9919,60.1449
lg,1625222830923261470,0,0.2305,-0.2476,1.0208,852,0.4883,-9.0332,14.7095,87,1.5207,1.5157,-12.2862,-17.0305,32,0.2081,9258,3.9919,60.7995
lg,1625222830923279077,0,0.2161,-0.2598,1.0098,853,0.5493,-10.0708,18.2495,87,1.5197,1.5157,-12.4302,-17.0795,32,0.2081,8884,3.9919,61.612
lg,1625222830923298055,0,0.2512,-0.2693,1.0071,854,1.0986,-8.4839,17.2119,87,1.5197,1.5157,-12.5923,-17.116,32,0.2071,9821,3.9919,62.3694
lg,1625222830923314977,0,0.2603,-0.2437,0.9961,855,0.9155,-7.2021,17.5781,87,1.5197,1.5157,-12.7225,-17.1123,32,0.2081,10358,3.9919,63.1149
