name,time,activity,ax,ay,az,batch_val,gx,gy,gz,ibat,index,middle,pitch,roll,temp,thumb,ts,vbat,yaw
lg,1625223270989792963,0,0.4468,-0.113,0.9575,1,-7.6904,31.0059,20.9351,66,1.5388,1.5388,-30.6254,-21.1276,31,0.1491,19150,4.0007,-107.2652
lg,1625223270989850667,0,0.447,-0.1047,0.9875,2,-8.9111,30.7617,21.3623,66,1.5388,1.5398,-28.9521,-21.059,30,0.1491,8545,4.0007,-107.1809
lg,1625223270989872371,0,0.4143,-0.1101,0.9749,3,-9.3994,31.7993,21.3013,66,1.5378,1.5388,-27.2514,-21.01,30,0.1481,8284,4.0007,-107.0942
lg,1625223270989893056,0,0.4072,-0.0825,0.9719,4,-10.2539,33.7524,20.4468,66,1.5378,1.5388,-25.5538,-20.9013,30,0.1481,8274,4.0007,-107.0862
lg,1625223270989912796,0,0.3999,-0.0901,0.9736,5,-11.3525,34.9121,18.6768,66,1.5378,1.5398,-23.8852,-20.8178,30,0.1491,8301,4.0007,-107.1409
lg,1625223270989932111,0,0.397,-0.0938,0.9595,6,-12.5122,35.7666,17.1509,66,1.5378,1.5388,-22.3216,-20.7737,30,0.1491,8721,4.0007,-107.2433
lg,1625223270989949759,0,0.4109,-0.1028,0.9333,7,-15.0146,40.2832,16.6016,66,1.5388,1.5378,-20.6579,-20.8268,30,0.1491,8911,4.0007,-107.41
lg,1625223270989967741,0,0.3706,-0.1228,0.9453,8,-15.686,47.9736,14.2212,66,1.5378,1.5398,-18.7087,-20.8709,30,0.1491,8767,4.0007,-107.7613
lg,1625223270989984278,0,0.3289,-0.1375,0.9341,9,-14.9536,45.8374,15.625,66,1.5378,1.5398,-16.8117,-20.9524,30,0.1491,8798,4.0007,-107.9974
lg,1625223270990001648,0,0.312,-0.1433,0.9343,10,-15.8691,41.2598,14.7095,66,1.5388,1.5398,-15.3386,-21.1736,30,0.1501,8794,4.0007,-108.0679
lg,1625223270990020574,0,0.3159,-0.1536,0.9475,11,-17.8833,29.3579,16.8457,66,1.5378,1.5398,-14.127,-21.4721,30,0.1501,8928,4.0007,-107.9868
lg,1625223270990038741,0,0.1382,-0.7607,0.761,12,30.0293,72.998,-30.8228,148,1.4977,1.5368,-12.1894,-20.5736,31,0.1771,14730,3.9215,-110.142
lg,1625223270990056630,0,0.1086,-0.7139,0.4614,13,25.2686,56.5796,-49.9268,148,1.4977,1.5327,-10.6734,-20.3896,31,0.1781,9079,3.9215,-112.5695
lg,1625223270990073445,0,-0.1023,-0.8357,0.616,14,17.2729,102.9053,-36.438,148,1.4957,1.5307,-6.7713,-20.5168,31,0.1781,8904,3.9215,-115.1753
lg,1625223270990090926,0,-0.1055,-0.7512,0.6875,15,18.9819,108.5205,8.9111,148,1.4937,1.5237,-2.1302,-20.6892,31,0.1791,8934,3.9215,-116.2553
lg,1625223270990108093,0,-0.03,-0.7046,0.7136,16,8.3008,75.8667,25.4517,148,1.4947,1.5267,1.2012,-21.2712,31,0.1791,9665,3.9215,-116.3613
lg,1625223270990125278,0,0.0059,-0.8298,0.7578,17,4.2114,71.7163,31.7383,148,1.4957,1.5277,4.3597,-22.2061,31,0.1801,8250,3.9215,-116.1554
lg,1625223270990142908,0,-0.0505,-0.9236,0.8452,18,-6.1035,71.6553,35.7666,148,1.4977,1.5277,7.4785,-23.3962,31,0.1841,8302,3.9215,-116.0242
lg,1625223270990160834,0,-0.0532,-0.9629,0.8494,19,-21.7896,39.3066,54.0161,148,1.5007,1.5337,9.6147,-25.0342,31,0.1781,8301,3.9215,-114.8122
lg,1625223270990178574,0,-0.1248,-0.8271,0.6702,20,-35.0342,24.6582,60.1196,148,1.4987,1.5368,11.4692,-27.1068,31,0.1691,8275,3.9215,-113.2262
lg,1625223270990195982,0,-0.2336,-0.7522,0.5874,21,-43.7012,18.5547,59.5703,148,1.4917,1.5378,13.3713,-29.4075,31,0.1671,8367,3.9215,-111.632
lg,1625223270990212982,0,-0.0916,-0.5444,0.2451,22,10.5591,-29.1138,-13.5498,148,1.4877,1.5297,12.0077,-30.3175,31,0.1651,8377,3.9215,-111.8331
lg,1625223270990231185,0,-0.533,-0.7844,1.2102,23,-43.335,-7.4463,-27.0996,148,1.4857,1.5247,11.5147,-32.2995,31,0.1631,8334,3.9215,-112.644
lg,1625223270990248630,0,-0.6509,-0.7083,0.5706,24,1.8311,-24.9023,-22.3999,148,1.4837,1.5227,10.6178,-33.011,31,0.1621,8440,3.9215,-112.9147
lg,1625223270990265704,0,-1.0034,-0.6692,0.625,25,-5.7373,-66.5894,-16.4795,148,1.4817,1.5237,9.4099,-33.448,31,0.1621,8441,3.9215,-112.0587
lg,1625223270990282500,0,-0.4246,-0.4182,0.6643,26,29.1748,-179.8706,49.8657,148,1.4807,1.5257,5.1778,-31.5208,31,0.1631,8467,3.9215,-106.4433
lg,1625223270990299796,0,0.0317,-0.74,0.6233,27,-43.396,-244.2017,60.6079,148,1.4807,1.5277,-1.964,-33.7581,31,0.1641,8491,3.9215,-99.2033
lg,1625223270990416519,0,0.3157,-0.9062,0.6733,28,-33.02,-226.5015,71.106,148,1.4797,1.5287,-8.2381,-36.478,31,0.1651,8492,3.9215,-91.6106
lg,1625223270990439815,0,0.7742,-0.9917,0.792,29,-15.9302,-174.2554,37.7808,148,1.4797,1.5327,-13.7065,-38.6685,31,0.1671,8740,3.9215,-85.9737
lg,1625223270990457945,0,0.6873,-0.896,0.6975,30,5.6152,-28.5034,4.6997,148,1.4797,1.5347,-15.1601,-39.1216,31,0.1681,8493,3.9215,-84.971
lg,1625223270990478852,0,0.2332,-0.9126,0.7371,31,18.0664,88.1958,-10.6201,148,1.4827,1.5368,-12.5412,-38.2402,31,0.1691,9166,3.9215,-87.4644
lg,1625223270990574426,0,0.0867,-0.9023,0.8047,32,18.7988,104.9194,-13.7939,148,1.4877,1.5378,-9.1969,-37.2859,31,0.1701,8481,3.9215,-90.4447
lg,1625223271349572296,0,0.0046,-0.8552,0.5383,33,10.1929,88.623,-45.2881,148,1.4987,1.5297,-7.1522,-37.1587,31,0.1741,26506,3.9215,-93.9414
lg,1625223271349621518,0,-0.1829,-0.7937,0.553,34,17.4561,90.6982,-20.5688,148,1.4937,1.5207,-4.0823,-36.8652,31,0.1741,14240,3.9215,-96.7106
lg,1625223271349644630,0,-0.262,-0.7537,0.6804,35,-7.9956,62.9883,30.9448,148,1.4957,1.5197,-0.6185,-37.5752,31,0.1801,11189,3.9215,-97.2281
lg,1625223271349663722,0,-0.2268,-0.8242,0.7834,36,-26.001,21.7896,85.144,148,1.4987,1.5217,2.6357,-38.9092,31,0.1781,7909,3.9215,-95.1004
lg,1625223271349683778,0,-0.312,-0.6877,0.6316,37,-26.4893,-1.8921,80.9326,148,1.4997,1.5267,4.2717,-40.2696,31,0.1741,7935,3.9215,-92.0575
lg,1625223271349702444,0,-0.3767,-0.6797,0.6345,38,-34.729,-49.0723,80.2612,148,1.4927,1.5307,5.5895,-41.572,31,0.1721,7979,3.9215,-88.3595
lg,1625223271349720574,0,-0.436,-0.7881,0.7559,39,-48.7671,-88.623,101.1353,148,1.4837,1.5317,6.3374,-43.1172,31,0.1731,7961,3.9215,-82.9804
lg,1625223271349741352,0,-0.0496,-0.6902,0.4463,40,-29.4189,-180.2368,43.457,148,1.4817,1.5327,2.2519,-44.3623,31,0.1751,8593,3.9215,-76.7827
lg,1625223271349759500,0,0.033,-0.9021,0.7991,41,-58.7769,-184.9365,32.4707,148,1.4797,1.5337,-2.1145,-46.8527,31,0.1761,8574,3.9215,-70.5931
lg,1625223271349777444,0,0.3677,-0.9443,0.5044,42,-36.1938,-177.002,20.4468,148,1.4787,1.5347,-6.8641,-49.3035,31,0.1751,8101,3.9215,-64.7284
lg,1625223271349794796,0,0.1355,-0.926,0.5291,43,-6.8359,-46.0815,8.1177,148,1.4777,1.5347,-7.8172,-50.2035,31,0.1771,8098,3.9215,-63.0452
lg,1625223271349813685,0,0.0698,-0.8359,0.6648,44,13.3057,-0.9766,16.3574,148,1.4777,1.5347,-7.1785,-49.7721,31,0.1781,8110,3.9215,-62.5854
lg,1625223271349833018,0,0.1079,-0.7117,0.5764,45,19.043,-1.709,7.5073,148,1.4787,1.5378,-7.0514,-49.1646,31,0.1761,8103,3.9215,-62.5109
lg,1625223271349851093,0,0.0867,-0.8633,0.6907,46,19.8364,32.5928,-7.6904,148,1.4837,1.5388,-6.3249,-48.309,31,0.1761,8833,3.9215,-63.6931
lg,1625223271349868926,0,0.0132,-0.8958,0.7085,47,23.5596,43.5181,-14.2822,148,1.4897,1.5398,-5.3611,-47.3194,31,0.1761,8221,3.9215,-65.361
lg,1625223271349889870,0,0.1235,-0.6355,0.6807,48,40.3442,24.7192,-26.8555,148,1.4957,1.5378,-5.5454,-45.3898,31,0.1791,8203,3.9215,-66.8428
lg,1625223271349907944,0,0.0706,-0.7493,0.5464,49,16.7847,16.4795,-33.5083,148,1.4997,1.5347,-5.9863,-44.9034,31,0.1801,8253,3.9215,-68.2293
lg,1625223271349925241,0,0.0776,-0.8801,0.6331,50,11.4746,21.0571,-22.2778,148,1.4997,1.5327,-5.946,-44.6777,31,0.1831,8256,3.9215,-69.4235
lg,1625223271349944518,0,-0.0752,-0.9351,0.6079,51,-0.061,52.1851,10.9253,148,1.5027,1.5357,-3.7846,-45.0549,31,0.1861,9131,3.9215,-70.5454
lg,1625223271349963722,0,-0.114,-0.7922,0.6567,52,-17.7612,54.4434,80.7495,148,1.5017,1.5388,0.4312,-45.9815,31,0.1791,8593,3.9215,-69.8346
lg,1625223271349982852,0,-0.3108,-0.5891,0.6165,53,-15.625,43.8843,94.6655,148,1.4907,1.5418,5.1282,-46.4437,31,0.1771,10229,3.9215,-68.4914
lg,1625223271350001426,0,-0.292,-0.5327,0.5789,54,0.5493,-33.8745,42.9688,148,1.4867,1.5408,6.0323,-46.0565,31,0.1801,8799,3.9215,-66.2974
lg,1625223271350022204,0,-0.3279,-0.8008,0.9146,55,-39.1846,-61.6455,42.7856,148,1.4847,1.5378,5.5084,-47.2628,31,0.1791,8527,3.9215,-63.3074
lg,1625223271350043222,0,0.0449,-0.9312,0.7217,56,-22.2778,-118.2861,31.3721,148,1.4837,1.5368,2.9624,-48.0152,31,0.1801,8387,3.9215,-58.9681
lg,1625223271350061222,0,0.0537,-0.8577,0.6223,57,-6.1035,-47.1191,19.2261,148,1.4837,1.5378,2.0548,-48.4018,31,0.1791,8431,3.9215,-57.0586
lg,1625223271350079444,0,0.2988,-0.8413,0.7268,58,11.1084,-11.5356,19.8975,148,1.4837,1.5388,1.6735,-47.9488,31,0.1821,8414,3.9215,-56.1894
lg,1625223271350096037,0,0.3452,-0.8364,0.7109,59,13.5498,12.146,10.9253,148,1.4867,1.5408,1.5771,-47.463,31,0.1841,8453,3.9215,-56.2629
lg,1625223271350115074,0,0.219,-0.8716,0.7288,60,24.7192,73.5474,-20.752,148,1.4897,1.5418,2.4708,-46.6644,31,0.1841,8423,3.9215,-58.9939
lg,1625223271350131852,0,-0.052,-0.8647,0.7454,61,27.71,117.3706,-49.7437,148,1.4967,1.5428,4.263,-45.9303,31,0.1821,8511,3.9215,-63.7757
lg,1625223271350148815,0,-0.127,-0.8528,0.7688,62,31.6162,117.7368,-59.4482,148,1.5017,1.5408,5.1471,-44.472,31,0.1821,8500,3.9215,-68.3531
lg,1625223271350165759,0,-0.1147,-0.6465,0.51,63,45.3491,63.0493,-75.5615,148,1.5027,1.5357,4.9726,-43.2849,31,0.1841,9186,3.9215,-72.316
lg,1625223271350182852,0,-0.1699,-0.7114,0.5264,64,18.3716,42.6025,-61.8896,148,1.4947,1.5287,4.7479,-43.1917,30,0.1831,8525,3.9215,-75.329
lg,1625223271733995055,0,-0.2954,-0.7698,0.7424,65,-25.3906,13.1836,57.5562,148,1.4977,1.5287,7.1355,-44.1685,31,0.1851,26653,3.9215,-74.0371
lg,1625223271734034648,0,-0.4182,-0.6472,0.6572,66,-38.6963,-46.2036,80.2612,148,1.4947,1.5368,8.7558,-45.2167,31,0.1781,13657,3.9215,-70.4293
lg,1625223271734055259,0,-0.2996,-0.7634,0.9756,67,-59.4482,-124.5728,91.98,148,1.4897,1.5378,8.1302,-46.3875,31,0.1801,8053,3.9215,-64.1865
lg,1625223271734081481,0,-0.0779,-0.8513,0.4573,68,-47.4243,-208.9844,27.3438,148,1.4877,1.5378,3.1708,-48.1939,31,0.1791,7939,3.9215,-57.3549
lg,1625223271734102018,0,0.0859,-1.0095,0.8452,69,-73.6694,-193.6035,34.3018,148,1.4857,1.5378,-1.2744,-51.4989,31,0.1801,8425,3.9215,-50.5689
lg,1625223271734120222,0,0.2288,-0.9553,0.5386,70,-25.6348,-147.9492,12.5122,148,1.4857,1.5378,-4.8851,-53.1264,31,0.1801,8030,3.9215,-45.5575
lg,1625223271734137852,0,0.2119,-0.8125,0.6367,71,3.2349,-62.0728,5.9814,148,1.4857,1.5388,-6.4375,-53.1494,31,0.1831,9041,3.9215,-43.4196
lg,1625223271734155037,0,0.2686,-0.8062,0.5979,72,3.1738,-27.771,-4.1504,148,1.4867,1.5408,-7.5678,-53.1186,31,0.1851,8502,3.9215,-42.6235
lg,1625223271734173703,0,0.1172,-0.9155,0.6545,73,4.2114,1.77,-6.6528,148,1.4887,1.5418,-7.2036,-52.7173,31,0.1851,8002,3.9215,-43.6628
lg,1625223271734193074,0,0.0237,-0.8611,0.5088,74,12.085,26.4893,-13.916,148,1.4907,1.5418,-6.7741,-52.3451,31,0.1851,8050,3.9215,-44.8182
lg,1625223271734212240,0,-0.0452,-0.6873,0.6196,75,15.3198,21.3623,-5.7373,148,1.4927,1.5418,-6.0524,-51.4555,31,0.1861,8085,3.9215,-45.6565
lg,1625223271734230259,0,-0.0159,-0.6875,0.676,76,13.3057,24.1089,11.5967,148,1.4947,1.5418,-4.8135,-51.0421,31,0.1891,8125,3.9215,-45.4621
lg,1625223271734248648,0,0.0286,-0.7646,0.7297,77,-7.3853,-0.2441,27.2827,148,1.4967,1.5408,-3.8415,-51.1905,31,0.1881,8148,3.9215,-44.7863
lg,1625223271734267018,0,0.0813,-0.918,0.7141,78,-14.6484,-4.3335,37.7197,148,1.4967,1.5418,-2.7744,-51.8622,31,0.1891,8079,3.9215,-43.7114
lg,1625223271734284259,0,0.1829,-0.8208,0.8064,79,-15.8691,2.6245,42.8467,148,1.4967,1.5428,-1.5058,-52.2712,31,0.1881,8136,3.9215,-43.02
lg,1625223271734303074,0,0.1873,-0.7283,0.6721,80,-8.3008,8.3618,31.7383,148,1.4967,1.5418,-0.6616,-52.4067,31,0.1881,8224,3.9215,-42.5182
lg,1625223271734321222,0,0.0957,-0.925,0.8364,81,-14.0991,25.2075,31.7993,148,1.4967,1.5448,0.8083,-52.7787,31,0.1871,8203,3.9215,-42.553
lg,1625223271734338796,0,0.0588,-0.8374,0.5979,82,-0.6104,41.626,11.8408,148,1.4957,1.5438,2.0224,-52.8837,31,0.1871,8210,3.9215,-43.5986
lg,1625223271734356240,0,-0.0369,-0.8613,0.7095,83,6.958,69.3359,5.188,148,1.4967,1.5448,3.8489,-52.6067,31,0.1861,8206,3.9215,-45.684
lg,1625223271734374389,0,-0.0144,-0.8438,0.7947,84,16.2964,68.6646,-14.0991,148,1.4987,1.5438,4.949,-51.904,31,0.1851,8302,3.9215,-48.1958
lg,1625223271734392185,0,0.0747,-0.8076,0.8235,85,15.2588,47.2412,-49.0723,148,1.5007,1.5428,4.2396,-51.2049,30,0.1851,8452,3.9215,-50.8796
lg,1625223271734410315,0,0.1077,-0.8354,0.7678,86,20.3247,55.7251,-60.6689,148,1.4997,1.5398,3.4847,-50.6484,30,0.1861,8312,3.9215,-54.1495
lg,1625223271734427407,0,-0.0667,-0.9556,0.45,87,25.7568,75.7446,-91.3086,148,1.4987,1.5337,2.5905,-50.4113,30,0.1841,8356,3.9215,-58.8447
lg,1625223271734445259,0,-0.3657,-0.8201,0.3936,88,46.0205,73.0591,-69.1528,106,1.4967,1.5277,3.1038,-49.2719,31,0.1811,8365,3.9457,-62.8776
lg,1625223271734462648,0,-0.3647,-0.6218,0.6934,89,12.0239,71.228,26.3062,106,1.4987,1.5247,6.4661,-48.6302,31,0.1831,9079,3.9457,-64.3252
lg,1625223271734482426,0,-0.427,-0.8408,0.7334,90,-30.2124,20.752,48.4009,106,1.5017,1.5247,8.2136,-50.1014,31,0.1721,8413,3.9457,-62.2976
lg,1625223271734500518,0,-0.4497,-0.7639,0.6082,91,-40.5884,-44.1895,58.2275,106,1.5037,1.5297,9.5675,-51.0969,31,0.1691,8562,3.9457,-59.3997
lg,1625223271734519185,0,-0.3965,-0.5989,0.6016,92,-32.4097,-110.6567,76.7822,106,1.5007,1.5347,9.8058,-51.2336,31,0.1661,8527,3.9457,-53.9102
lg,1625223271734536648,0,-0.187,-0.6738,0.6729,93,-62.8052,-186.2793,84.0454,106,1.4957,1.5368,7.9131,-52.2514,31,0.1671,8528,3.9457,-45.8479
lg,1625223271734553926,0,0.4788,-0.8416,0.4556,94,-61.0962,-241.9434,51.6968,106,1.4937,1.5378,2.5329,-54.1932,31,0.1671,8539,3.9457,-36.8667
lg,1625223271734572296,0,0.6377,-1.0366,0.5264,95,-82.7637,-207.1533,44.6167,106,1.4917,1.5347,-1.769,-57.7382,31,0.1681,8548,3.9457,-28.9941
lg,1625223271734589703,0,0.8557,-1.1621,0.4629,96,-46.6919,-79.5288,30.2124,106,1.4907,1.5327,-3.5878,-60.0851,30,0.1661,8618,3.9457,-25.6102
lg,1625223272073813611,0,-0.2373,-0.6218,0.4868,97,51.4526,171.2036,26.9775,106,1.4857,1.5317,1.6298,-57.6225,30,0.1681,25743,3.9457,-30.917
lg,1625223272073870203,0,-0.3633,-0.6768,0.6064,98,26.123,110.9009,42.6636,106,1.4867,1.5327,6.2347,-56.4082,30,0.1701,9152,3.9457,-33.7026
lg,1625223272073901203,0,-0.3105,-0.7622,0.6321,99,16.1133,65.7349,43.1519,106,1.4877,1.5347,9.3345,-55.7582,30,0.1721,7969,3.9457,-34.9198
lg,1625223272073930722,0,-0.0942,-0.8484,0.6704,100,7.4463,-4.0283,43.0908,106,1.4907,1.5357,9.9457,-55.0472,30,0.1741,7977,3.9457,-33.4079
lg,1625223272073958814,0,0.0801,-0.8877,0.7141,101,5.7983,-19.043,35.5225,106,1.4957,1.5368,9.9747,-54.4192,31,0.1771,8473,3.9457,-31.9262
lg,1625223272073987074,0,0.2053,-0.8804,0.6775,102,10.6201,-10.6812,22.1558,106,1.5007,1.5357,9.3822,-53.5881,31,0.1781,8205,3.9457,-31.4975
lg,1625223272074015074,0,0.1902,-0.8826,0.7039,103,20.752,6.5308,-3.9062,106,1.5017,1.5327,8.674,-52.7113,31,0.1811,8018,3.9457,-31.7958
lg,1625223272074042944,0,0.0659,-0.8396,0.3513,104,27.2827,22.522,-21.3623,106,1.4997,1.5297,8.0461,-52.3698,31,0.1801,8190,3.9457,-33.1323
lg,1625223272074070851,0,-0.0269,-0.7537,0.3054,105,31.8604,20.9961,-25.1465,106,1.4997,1.5287,8.5606,-51.4654,31,0.1821,8067,3.9457,-34.4158
lg,1625223272074098259,0,-0.147,-0.7114,0.5356,106,18.7988,52.3682,30.8228,106,1.5027,1.5317,10.8783,-50.6923,31,0.1861,9578,3.9457,-35.2635
lg,1625223272074125129,0,-0.2722,-0.8672,0.8042,107,-11.4746,39.3066,80.9326,106,1.5017,1.5327,14.4496,-50.8113,31,0.1801,8064,3.9457,-34.3931
lg,1625223272074154463,0,-0.4553,-0.6467,0.6477,108,-6.7139,15.564,82.0312,106,1.4887,1.5337,17.8441,-50.3862,31,0.1781,8096,3.9457,-32.674
lg,1625223272074182851,0,-0.2402,-0.3604,1.0979,109,-6.897,-62.1338,63.4766,106,1.4877,1.5347,18.0126,-48.2579,30,0.1791,8271,3.9457,-28.5694
lg,1625223272074209055,0,-0.321,-0.5366,0.5466,110,-18.4326,-120.5444,35.0342,106,1.4847,1.5337,15.4977,-47.3274,30,0.1781,8199,3.9457,-23.7607
lg,1625223272074236000,0,-0.0212,-1.0381,0.8904,111,-43.5791,-158.6304,43.396,106,1.4837,1.5327,11.9445,-47.7084,30,0.1781,8223,3.9457,-17.7554
lg,1625223272074263314,0,0.1812,-0.8896,0.7517,112,-11.7188,-90.271,7.5073,106,1.4817,1.5327,8.9363,-47.6425,30,0.1781,11802,3.9457,-14.8325
lg,1625223272074290444,0,0.1475,-0.8096,0.7385,113,7.2021,-6.0425,-3.1128,106,1.4817,1.5337,8.0316,-47.3298,31,0.1801,8349,3.9457,-14.7384
lg,1625223272074330166,0,-0.0388,-0.8613,0.6763,114,12.3901,42.9077,-16.7847,106,1.4837,1.5357,8.4575,-47.2545,31,0.1801,8248,3.9457,-16.4993
lg,1625223272074364166,0,-0.1089,-0.8413,0.7119,115,14.4653,62.6831,-21.0571,106,1.4867,1.5368,9.6098,-47.1476,31,0.1811,8333,3.9457,-19.278
lg,1625223272074390740,0,-0.1965,-0.8142,0.7478,116,12.9395,63.7817,-29.6021,106,1.4907,1.5378,10.4846,-47.1057,31,0.1831,9431,3.9457,-21.9969
lg,1625223272074416333,0,-0.2358,-0.7546,0.554,117,9.0942,19.3481,-35.5225,106,1.4967,1.5408,10.1109,-47.2681,31,0.1861,8744,3.9457,-23.5991
lg,1625223272074442796,0,-0.1553,-0.7493,0.6414,118,-0.4883,-15.8691,-31.189,106,1.4997,1.5378,8.7189,-47.4249,31,0.1881,8837,3.9457,-23.9925
lg,1625223272074469129,0,-0.2158,-0.9519,0.5063,119,-34.2407,-31.5552,0.8545,106,1.5017,1.5388,8.0208,-49.205,31,0.1921,8399,3.9457,-23.1011
lg,1625223272074495555,0,-0.2661,-0.9526,0.5427,120,-42.0532,-31.4331,24.6582,106,1.4997,1.5398,8.2018,-51.0749,31,0.1921,8336,3.9457,-21.5499
lg,1625223272074520685,0,0.0374,-0.6084,1.0312,121,-15.3809,-52.7954,49.8657,106,1.4957,1.5408,8.0431,-50.4591,31,0.1921,8451,3.9457,-18.5101
lg,1625223272074546518,0,-0.0784,-0.7732,0.6724,122,-50.9033,-88.2568,9.9487,106,1.4957,1.5418,6.0122,-52.0494,31,0.1941,8611,3.9457,-15.4697
lg,1625223272074571222,0,0.1477,-0.998,0.5613,123,-51.3306,-118.1641,15.8081,106,1.4947,1.5408,2.665,-53.6166,31,0.1941,8536,3.9457,-11.4022
lg,1625223272074598444,0,0.1211,-1.0503,0.5481,124,-35.0952,-94.7266,0.4272,106,1.4927,1.5408,0.1573,-55.276,31,0.1951,8494,3.9457,-8.3162
lg,1625223272074625203,0,0.1584,-0.9204,0.6243,125,-0.3662,-34.3018,10.8643,106,1.4957,1.5418,-0.7437,-55.222,31,0.1961,10675,3.9457,-6.9414
lg,1625223272074652703,0,0.2578,-0.8167,0.6262,126,2.7466,-17.8833,2.7466,106,1.4957,1.5418,-1.5831,-55.0091,31,0.1971,8465,3.9457,-6.2948
lg,1625223272074680685,0,0.3127,-0.9314,0.6067,127,3.0518,8.4229,-7.6294,106,1.4967,1.5408,-2.1947,-54.9331,31,0.1971,8582,3.9457,-6.7461
lg,1625223272074726925,0,0.2439,-0.9766,0.626,128,12.3291,45.2271,-26.6724,106,1.5007,1.5418,-2.4071,-54.4377,31,0.1951,8576,3.9457,-8.8406
lg,1625223272443870629,0,0.2102,-0.8772,0.5637,129,21.0571,77.5146,-76.4771,106,1.4987,1.5307,-3.4204,-53.4753,31,0.1911,26734,3.9457,-13.149
lg,1625223272443914647,0,-0.0061,-0.7493,0.114,130,57.6172,43.5181,-57.0679,106,1.4957,1.5257,-4.0512,-52.0481,31,0.1901,12767,3.9457,-15.8539
lg,1625223272443935944,0,-0.0173,-0.5923,0.3105,131,52.7954,87.4023,-5.6152,106,1.4987,1.5277,1.2894,-51.4999,31,0.1921,7969,3.9457,-18.8602
lg,1625223272443970610,0,-0.2344,-0.8569,0.8098,132,-18.6768,121.2158,88.623,106,1.5027,1.5307,7.4443,-52.038,31,0.1841,8069,3.9457,-18.9853
lg,1625223272443991333,0,-0.4802,-0.6528,0.793,133,6.5308,26.2451,88.7451,106,1.4957,1.5357,11.5589,-51.0784,31,0.1791,12830,3.9457,-17.523
lg,1625223272444010481,0,-0.1953,-0.428,1.2429,134,-17.2119,-103.6377,52.7954,106,1.4907,1.5368,10.4977,-49.6535,31,0.1821,8871,3.9457,-12.6509
lg,1625223272444030573,0,-0.0815,-0.8203,0.7209,135,-21.5454,-183.3496,15.0146,106,1.4877,1.5378,5.3902,-51.0355,31,0.1811,8368,3.9457,-5.9569
lg,1625223272444072185,0,0.1611,-0.9805,0.7097,136,-62.6221,-206.543,23.9258,106,1.4857,1.5368,0.6032,-53.2718,31,0.1801,8029,3.9457,1.1564
lg,1625223272444093462,0,0.3293,-1.0107,0.5061,137,-22.644,-125.4272,4.2725,106,1.4847,1.5368,-2.8472,-54.6239,31,0.1811,8012,3.9457,5.3197
lg,1625223272444113444,0,0.0603,-0.8772,0.6221,138,23.7427,22.8271,18.2495,106,1.4837,1.5368,-1.7392,-53.6526,31,0.1811,8944,3.9457,5.0033
lg,1625223272444131944,0,0.002,-0.7507,0.708,139,32.1045,47.6685,22.3999,106,1.4837,1.5378,0.4554,-52.1319,31,0.1821,9058,3.9457,4.0726
lg,1625223272444153888,0,-0.0144,-0.6531,0.6687,140,17.334,37.3535,29.7852,106,1.4847,1.5368,2.3263,-51.1295,31,0.1841,8808,3.9457,3.6385
lg,1625223272444171629,0,0.0117,-0.8455,0.6616,141,2.0142,27.5879,28.5645,106,1.4857,1.5398,3.7852,-51.0775,31,0.1841,9933,3.9457,3.4915
lg,1625223272444190277,0,0.0002,-0.9109,0.6453,142,6.5918,26.4282,23.3154,106,1.4897,1.5418,5.0188,-50.9641,31,0.1871,9101,3.9457,3.2427
lg,1625223272444208610,0,0.0508,-0.8352,0.6794,143,10.8643,18.1885,21.6064,106,1.4917,1.5418,5.8383,-50.5166,31,0.1881,8381,3.9457,3.2226
lg,1625223272444228833,0,0.1047,-0.8418,0.6765,144,8.728,12.5732,22.583,106,1.4967,1.5418,6.2461,-50.2095,31,0.1891,8156,3.9457,3.4004
lg,1625223272444248370,0,0.2175,-0.9021,0.6716,145,5.5542,12.207,14.4653,106,1.5027,1.5418,6.3285,-50.0993,31,0.1901,8221,3.9457,3.3797
lg,1625223272444265314,0,0.2834,-0.9119,0.6206,146,20.4468,25.0854,-5.5542,106,1.5037,1.5398,5.9977,-49.5894,31,0.1911,8249,3.9457,2.4342
lg,1625223272444284407,0,0.2979,-0.9556,0.6406,147,19.4702,40.5273,-18.3716,106,1.5027,1.5357,5.9051,-49.4771,31,0.1911,8271,3.9457,-0.166
lg,1625223272444305018,0,0.197,-0.9673,0.4778,148,29.8462,69.397,-35.2173,106,1.4997,1.5327,6.0065,-49.144,31,0.1901,8231,3.9457,-3.2665
lg,1625223272444323462,0,0.1157,-0.8035,0.2478,149,51.2085,91.2476,-14.1602,106,1.4977,1.5317,7.4483,-48.3696,31,0.1901,8278,3.9457,-6.5099
lg,1625223272444379703,0,0.0728,-0.5764,0.4604,150,53.894,100.4028,7.6904,106,1.4987,1.5327,11.3601,-47.4744,31,0.1941,8324,3.9457,-9.5233
lg,1625223272444404462,0,-0.0925,-0.7271,0.7207,151,3.2349,164.0625,61.4624,106,1.5027,1.5347,17.3083,-48.0634,31,0.1881,8384,3.9457,-12.8241
lg,1625223272444424314,0,-0.6426,-0.8459,0.5308,152,-23.6206,153.5645,106.2622,106,1.4997,1.5357,25.107,-50.072,31,0.1781,8421,3.9457,-14.9432
lg,1625223272444442629,0,-0.8733,-0.6526,0.8911,153,-5.0659,70.3125,119.9341,106,1.4887,1.5337,31.0907,-49.2574,31,0.1761,8379,3.9457,-13.6544
lg,1625223272444460407,0,-0.5918,-0.3315,1.4402,154,16.6626,14.1602,98.877,106,1.4857,1.5337,30.744,-45.6693,31,0.1711,8526,3.9457,-8.4763
lg,1625223272444479240,0,-0.582,-0.6658,1.3184,155,-69.0918,-189.0869,57.8003,106,1.4787,1.5307,26.7199,-43.8161,31,0.1701,8581,3.9457,-0.1272
lg,1625223272444496277,0,0.2134,-1.0483,0.9258,156,-72.5098,-339.0503,30.1514,106,1.4827,1.5317,16.4608,-42.8869,31,0.1691,8473,3.9457,10.6821
lg,1625223272444513518,0,0.572,-1.1519,0.4836,157,-58.96,-243.1641,1.2207,106,1.4837,1.5337,8.0718,-44.6155,31,0.1711,8598,3.9457,17.3627
lg,1625223272444530222,0,0.697,-1.0906,0.3901,158,-27.1606,-147.0947,5.5542,106,1.4837,1.5337,2.7717,-46.1748,31,0.1731,8514,3.9457,21.6176
lg,1625223272444548222,0,0.3098,-0.9719,0.4128,159,27.71,87.8296,-5.4321,106,1.4837,1.5337,4.2996,-46.0007,31,0.1741,9231,3.9457,18.8858
lg,1625223272444565703,0,-0.165,-0.7358,0.5696,160,50.2319,196.7163,0.061,106,1.4837,1.5357,10.0104,-44.938,31,0.1741,8859,3.9457,13.2177
lg,1625223272843578092,0,-0.3206,-0.8269,0.6631,161,9.9487,8.9111,-9.1553,106,1.5007,1.5388,10.272,-44.8628,31,0.1741,28344,3.9457,12.6585
lg,1625223272843614481,0,0.198,-0.8447,0.6318,162,14.7705,-69.8242,-24.231,106,1.5057,1.5368,6.8088,-44.3999,30,0.1781,12946,3.9457,13.8888
lg,1625223272843634944,0,0.2371,-0.8762,0.3472,163,4.8828,-63.5986,-44.0674,106,1.5057,1.5347,2.9846,-45.0466,30,0.1801,10645,3.9457,14.332
lg,1625223272843654758,0,0.1318,-0.8794,0.3689,164,0.061,-23.6206,-23.1934,106,1.5077,1.5368,4.2194,-46.2522,30,0.1831,7926,3.9457,14.31
lg,1625223272843673518,0,-0.0547,-0.8865,0.6736,165,-17.6392,62.1948,63.9038,106,1.5077,1.5388,7.7165,-47.2101,31,0.1801,8240,3.9457,14.2234
lg,1625223272843691740,0,-0.4382,-0.6729,0.6785,166,1.0986,72.3877,68.6035,106,1.5037,1.5408,12.3398,-47.1109,31,0.1801,7929,3.9457,13.9679
lg,1625223272843709499,0,-0.5215,-0.5444,0.7241,167,2.8687,33.4473,64.8193,106,1.4967,1.5398,14.3002,-46.3388,31,0.1801,8285,3.9457,16.375
lg,1625223272843726869,0,-0.4019,-0.5535,0.8577,168,-24.292,-75.8057,62.561,106,1.4917,1.5408,14.3042,-45.7862,31,0.1851,8899,3.9457,20.5521
lg,1625223272843744814,0,-0.1729,-0.8704,0.5894,169,-41.626,-155.5786,50.293,106,1.4897,1.5408,11.2771,-46.5028,31,0.1871,8872,3.9457,26.4864
lg,1625223272843762332,0,0.0898,-0.9636,0.563,170,-31.1279,-139.4043,53.1616,106,1.4867,1.5398,8.4292,-47.2977,31,0.1871,8380,3.9457,31.995
lg,1625223272843802073,0,0.1709,-0.8469,0.864,171,-4.6387,-60.4858,36.1938,106,1.4867,1.5398,7.2093,-46.9796,31,0.1881,8800,3.9457,34.7951
lg,1625223272843820869,0,0.2625,-0.8032,0.8223,172,-5.9204,-59.9365,28.5034,106,1.4867,1.5388,5.6328,-46.8172,31,0.1881,8402,3.9457,37.3534
lg,1625223272843837721,0,0.3564,-0.9246,0.7627,173,-8.1177,-32.5928,-0.7324,106,1.4867,1.5408,3.8705,-47.1923,31,0.1881,8814,3.9457,38.2803
lg,1625223272843854184,0,0.1794,-0.9734,0.6814,174,4.1504,24.292,-28.1982,106,1.4957,1.5418,3.2084,-47.4131,31,0.1901,8402,3.9457,36.7786
lg,1625223272843873518,0,0.1055,-0.8516,0.5178,175,14.0991,31.4941,-41.1987,106,1.4967,1.5418,2.8292,-47.3868,31,0.1911,8098,3.9457,34.7099
lg,1625223272843891406,0,-0.248,-0.8438,0.533,176,1.5259,51.5137,-20.4468,106,1.4957,1.5428,4.0455,-47.8359,31,0.1961,8148,3.9457,32.6115
lg,1625223272843908036,0,-0.29,-0.6951,0.7839,177,-9.8267,36.0107,30.8838,106,1.4897,1.5438,6.3705,-47.9984,31,0.1991,9113,3.9457,32.383
lg,1625223272843925332,0,-0.4402,-0.8496,0.9817,178,-7.7515,-13.1226,-1.5869,106,1.4847,1.5418,6.1292,-49.1622,31,0.1981,13421,3.9457,33.6347
lg,1625223272843942869,0,-0.3347,-0.7832,0.637,179,-26.001,-94.1772,-2.6245,106,1.4837,1.5408,3.8689,-50.0523,31,0.1971,8213,3.9457,36.4401
lg,1625223272843960555,0,-0.1091,-0.8689,0.6455,180,-36.499,-133.0566,-9.6436,106,1.4827,1.5388,0.3023,-51.4875,31,0.1951,8602,3.9457,40.3184
lg,1625223272843977981,0,0.2373,-0.9026,0.5349,181,-21.3013,-103.7598,5.9204,106,1.4817,1.5378,-2.5557,-52.6969,31,0.1941,8565,3.9457,43.7458
lg,1625223272843994944,0,0.4863,-0.9602,0.6899,182,-1.3428,-20.752,13.1226,106,1.4817,1.5388,-3.4049,-52.849,31,0.1971,9029,3.9457,44.7268
lg,1625223272844012314,0,0.4561,-0.9485,0.5596,183,12.7563,62.8662,-1.1597,106,1.4847,1.5408,-2.6693,-52.4625,30,0.1971,10429,3.9457,42.7022
lg,1625223272844029536,0,0.2061,-0.8787,0.6516,184,20.4468,100.4028,-10.9863,106,1.4857,1.5428,-0.4728,-51.3922,30,0.1991,8664,3.9457,38.1783
lg,1625223272844046406,0,0.0911,-0.856,0.6379,185,22.9492,140.7471,-26.9165,106,1.4897,1.5438,2.0362,-50.6087,30,0.1991,9032,3.9457,33.1214
lg,1625223272844063906,0,-0.0469,-0.8635,0.6143,186,15.9302,131.958,-44.5557,106,1.4947,1.5438,4.0172,-50.3939,30,0.1991,9215,3.9457,27.9016
lg,1625223272844093258,0,-0.0183,-0.8347,0.6001,187,18.9819,93.3228,-48.8892,106,1.4987,1.5448,4.7681,-50.0962,31,0.1971,9184,3.9457,23.7579
lg,1625223272844111592,0,0.0044,-0.8015,0.2026,188,29.8462,46.0815,-67.0166,106,1.4987,1.5398,3.7055,-50.1146,31,0.1921,8438,3.9457,20.5367
lg,1625223272844128592,0,-0.0627,-0.8413,0.4131,189,25.8179,62.3779,-48.8281,106,1.4947,1.5337,3.8147,-49.8207,31,0.1911,9157,3.9457,17.3293
lg,1625223272844145184,0,-0.0496,-0.7397,0.3025,190,33.2642,85.9375,-4.5776,106,1.4917,1.5307,5.7731,-49.3025,31,0.1931,8870,3.9457,14.5405
lg,1625223272844162018,0,-0.0725,-0.7102,0.5505,191,6.3477,96.5576,50.293,106,1.4937,1.5307,9.7491,-49.3745,31,0.1961,8861,3.9457,12.8862
lg,1625223272844179573,0,-0.2451,-0.9175,0.7371,192,-19.5923,76.1719,98.2666,106,1.4977,1.5317,14.7751,-50.1716,31,0.1951,8889,3.9457,13.0789
lg,1625223273182395554,0,-0.6301,-0.5994,0.99,193,-31.6772,-94.4824,128.1738,106,1.4847,1.5368,16.8032,-48.9924,31,0.1861,26019,3.9457,19.6972
lg,1625223273182452795,0,-0.3169,-0.7849,0.5583,194,-57.6782,-264.4043,64.3311,106,1.4807,1.5368,11.9123,-49.0322,31,0.1841,8821,3.9457,29.602
lg,1625223273182484443,0,0.3931,-1.0547,0.6963,195,-67.2607,-327.5146,49.2554,106,1.4807,1.5378,3.9065,-50.4363,31,0.1821,9687,3.9457,40.8832
lg,1625223273182514647,0,0.5645,-1.1038,0.5994,196,-54.5654,-275.7568,23.5596,106,1.4797,1.5378,-3.2112,-52.9389,31,0.1801,8022,3.9457,50.0908
lg,1625223273182543166,0,0.3855,-1.0239,0.5012,197,-10.7422,-86.4868,3.418,106,1.4797,1.5388,-5.6448,-53.7096,31,0.1821,11214,3.9457,52.9694
lg,1625223273182571184,0,0.2454,-0.7346,0.6104,198,17.8833,17.395,8.2397,106,1.4807,1.5398,-5.3125,-52.8165,31,0.1841,9764,3.9457,52.5874
lg,1625223273182597832,0,0.0542,-0.7905,0.6208,199,13.3667,55.1147,7.9346,106,1.4827,1.5408,-3.6381,-52.1106,31,0.1881,9670,3.9721,51.0199
lg,1625223273182624591,0,-0.0635,-0.8579,0.5947,200,14.2822,67.9321,5.7983,93,1.4847,1.5418,-1.5066,-51.5639,31,0.1881,8812,3.9721,49.0297
lg,1625223273182650925,0,-0.1113,-0.8162,0.6118,201,18.2495,60.3027,0.6714,93,1.4887,1.5428,0.3208,-50.8665,31,0.1901,8440,3.9721,47.1666
lg,1625223273182677610,0,-0.1113,-0.7993,0.5649,202,16.6626,44.4946,-1.1597,93,1.4937,1.5428,1.5703,-50.3604,31,0.1931,7994,3.9721,45.7591
lg,1625223273182705684,0,-0.0098,-0.8069,0.6279,203,13.916,12.8784,-0.8545,93,1.4987,1.5418,1.8314,-49.8749,31,0.1941,8839,3.9721,45.339
lg,1625223273182732869,0,0.1497,-0.8103,0.6216,204,12.146,-6.897,-15.1367,93,1.5057,1.5398,0.7919,-49.486,31,0.1961,10094,3.9721,45.1538
lg,1625223273182792740,0,0.1086,-0.9456,0.46,205,7.019,-6.1646,-27.8931,93,1.5047,1.5398,-0.4795,-49.7651,31,0.1981,8727,3.9721,44.6138
lg,1625223273182823221,0,-0.0098,-0.9014,0.4248,206,1.709,9.8877,9.2163,93,1.5047,1.5408,0.0958,-50.273,31,0.2011,8183,3.9721,44.551
lg,1625223273182851314,0,-0.0383,-0.8645,0.5332,207,-5.9814,20.0806,37.9028,93,1.5067,1.5428,1.8537,-50.8125,31,0.1991,8151,3.9721,44.8892
lg,1625223273182878740,0,-0.2017,-0.7285,0.4839,208,-9.7046,24.7803,68.6646,93,1.5027,1.5448,5.0439,-51.3469,31,0.1941,8253,3.9721,45.83
lg,1625223273182904906,0,-0.3101,-0.6758,0.6758,209,-4.2114,4.2114,70.5566,93,1.4967,1.5448,7.8528,-51.0776,31,0.1911,8642,3.9721,47.4953
lg,1625223273182931554,0,-0.2744,-0.7068,0.8962,210,-5.0049,-17.4561,68.0542,93,1.4937,1.5438,8.1228,-50.5805,31,0.1931,8274,3.9721,51.0299
lg,1625223273182959832,0,-0.071,-0.9321,0.8875,211,-23.5596,-92.3462,57.6782,93,1.4917,1.5418,7.3823,-50.7534,31,0.1921,8321,3.9721,55.4138
lg,1625223273182987832,0,0.324,-0.9661,0.7034,212,-14.1602,-97.3511,38.7573,93,1.4917,1.5418,5.2716,-50.9859,31,0.1931,8305,3.9721,59.4235
lg,1625223273183014277,0,0.3484,-1.0432,0.8203,213,-6.4697,-54.8706,23.1934,93,1.4937,1.5418,5.0158,-50.8696,31,0.1931,8333,3.9721,60.1072
lg,1625223273183041388,0,0.2671,-0.9097,0.7158,214,20.3857,52.2461,-3.2959,93,1.4967,1.5438,5.5306,-50.2379,31,0.1911,10087,3.9721,58.3914
lg,1625223273183068462,0,0.2039,-0.8765,0.7095,215,24.8413,70.6177,-18.1885,93,1.5017,1.5438,5.9379,-49.5077,31,0.1931,8724,3.9721,54.94
lg,1625223273183095925,0,0.0251,-0.7576,0.4531,216,34.79,71.6553,-51.4526,93,1.5047,1.5438,5.9468,-48.8554,31,0.1941,8418,3.9721,51.3659
lg,1625223273183121462,0,-0.2332,-0.6819,0.4255,217,25.2686,64.0869,-50.354,93,1.5057,1.5438,6.5211,-48.5413,31,0.1991,8472,3.9721,48.0586
lg,1625223273183147332,0,-0.5244,-0.7969,0.6868,218,-7.9346,77.2095,22.9492,93,1.5047,1.5448,10.004,-49.1228,31,0.1961,8473,3.9721,46.31
lg,1625223273183172814,0,-0.6392,-0.7683,0.6511,219,-13.1836,64.7583,50.5371,93,1.5017,1.5458,14.0714,-49.799,31,0.1951,8537,3.9721,45.6276
lg,1625223273183221499,0,-0.4302,-0.4414,0.6313,220,3.6621,-43.457,29.3579,93,1.4997,1.5448,14.4344,-48.5856,31,0.1931,8460,3.9721,47.9171
lg,1625223273183249536,0,-0.2898,-0.783,0.7983,221,-53.6499,-139.2212,23.8647,93,1.4997,1.5438,11.5285,-49.4366,31,0.1921,8532,3.9721,52.9209
lg,1625223273183277129,0,0.0984,-0.9636,0.554,222,-47.8516,-170.105,13.9771,93,1.4997,1.5428,6.9847,-50.8493,31,0.1901,8537,3.9721,58.5004
lg,1625223273183305480,0,0.2468,-1.0251,0.626,223,-43.8232,-135.6201,21.3013,93,1.4997,1.5428,4.4417,-51.6949,30,0.1861,9539,3.9721,61.9643
lg,1625223273183334258,0,0.4587,-1.0188,0.627,224,-10.376,-46.814,19.5312,93,1.4997,1.5418,2.9367,-52.2195,30,0.1871,9296,3.9721,63.9091
lg,1625223273541356073,0,0.1079,-0.885,0.5667,225,15.686,123.1079,-19.4702,93,1.5027,1.5448,4.9753,-52.0871,31,0.1911,26386,3.9721,59.5174
lg,1625223273541411054,0,-0.0637,-0.8774,0.5527,226,12.6343,126.5259,-32.4707,93,1.5047,1.5458,6.9733,-52.2998,31,0.1931,8542,3.9721,54.6754
lg,1625223273541431462,0,-0.1289,-0.7764,0.3831,227,29.7852,51.2085,-31.0669,93,1.5037,1.5448,7.3081,-51.8469,31,0.1941,14313,3.9721,52.2238
lg,1625223273541450925,0,-0.1479,-0.7461,0.4082,228,28.0151,50.6592,-21.8506,93,1.5037,1.5438,9.0941,-52.0043,31,0.1971,8305,3.9721,50.3801
lg,1625223273541468980,0,-0.3401,-0.8271,0.5322,229,-8.8501,47.9126,30.8228,93,1.5057,1.5448,11.6237,-52.6851,31,0.1991,7955,3.9721,49.5663
lg,1625223273541486573,0,-0.3994,-0.8413,0.6428,230,-13.4277,1.6479,78.6743,93,1.5047,1.5468,14.5179,-52.7751,31,0.1951,8241,3.9721,51.4649
lg,1625223273541503702,0,-0.1667,-0.5562,0.73,231,-8.4229,-80.5664,77.3315,93,1.5017,1.5468,14.8341,-51.3167,31,0.1971,9755,3.9721,56.2122
lg,1625223273541521091,0,-0.1782,-0.7715,0.6118,232,-39.6118,-117.6758,56.2744,93,1.4987,1.5458,13.4964,-51.6109,30,0.1951,9718,3.9721,61.4566
lg,1625223273541538906,0,-0.0686,-0.9099,0.7305,233,-46.4478,-138.855,65.918,93,1.4967,1.5458,11.7583,-52.0918,30,0.1941,8048,3.9721,67.6067
lg,1625223273541556554,0,0.1362,-1.1084,0.813,234,-27.2217,-135.2539,58.7158,93,1.4967,1.5448,9.6295,-52.1524,30,0.1941,8098,3.9721,73.4063
lg,1625223273541578758,0,0.4326,-0.9114,0.7126,235,-2.4414,-104.8584,41.9312,93,1.4977,1.5458,7.2351,-51.5899,30,0.1941,8118,3.9721,77.7836
lg,1625223273541596832,0,0.5315,-0.9087,0.7036,236,-0.3662,-71.7773,28.6255,93,1.4987,1.5458,5.1472,-51.297,31,0.1941,8082,3.9721,80.7531
lg,1625223273541613739,0,0.4128,-0.9946,0.6174,237,10.8032,6.958,2.3193,93,1.5017,1.5478,4.4498,-51.1257,31,0.1961,8067,3.9721,80.5669
lg,1625223273541654351,0,0.2234,-0.9094,0.6211,238,32.2266,79.1016,-27.0386,93,1.5047,1.5478,4.9819,-50.2641,31,0.1961,8104,3.9721,77.4014
lg,1625223273541673573,0,0.1233,-0.8523,0.6953,239,40.0391,107.7881,-36.9873,93,1.5077,1.5478,6.178,-49.0909,31,0.1961,8189,3.9721,73.1282
lg,1625223273541691443,0,-0.0144,-0.8203,0.6321,240,43.7012,117.4316,-66.4062,93,1.5057,1.5428,7.062,-48.0802,31,0.1961,8192,3.9721,67.7989
lg,1625223273541708943,0,-0.2195,-0.7927,0.3113,241,37.8418,75.6226,-82.5806,93,1.5017,1.5388,6.9304,-47.8828,31,0.1941,8415,3.9721,63.2169
lg,1625223273541725925,0,-0.3206,-0.7861,0.4927,242,39.4897,78.186,-71.9604,93,1.4997,1.5368,7.6846,-47.1429,31,0.1971,8210,3.9721,58.9055
lg,1625223273541743091,0,-0.5396,-0.8013,0.6089,243,10.1929,80.1392,11.1694,93,1.5037,1.5398,10.9707,-47.2613,31,0.2001,8257,3.9721,56.7997
lg,1625223273541760036,0,-0.4846,-0.6477,0.7056,244,-20.2026,-44.7388,74.0967,93,1.5027,1.5438,12.5559,-47.1927,31,0.1901,12972,3.9721,60.2308
lg,1625223273541777647,0,-0.5369,-0.6248,0.7615,245,-15.625,-65.918,70.1904,93,1.4967,1.5448,13.4425,-46.637,31,0.1871,8316,3.9721,64.242
lg,1625223273541795091,0,-0.126,-0.5408,0.9861,246,-24.292,-185.2417,42.4194,93,1.4947,1.5448,9.3027,-45.5786,31,0.1871,8296,3.9721,71.0527
lg,1625223273541813369,0,0.1755,-0.9912,0.7168,247,-75.5005,-239.8071,15.8081,93,1.4927,1.5438,2.5746,-48.1479,31,0.1861,8374,3.9721,78.4742
lg,1625223273541831721,0,0.4153,-1.05,0.5498,248,-60.5469,-214.1724,20.2026,93,1.4917,1.5428,-3.2691,-51.4252,31,0.1841,8382,3.9721,85.5175
lg,1625223273541848851,0,0.3572,-1.0378,0.4658,249,-19.2871,-76.2939,-2.1973,93,1.4907,1.5418,-5.7547,-52.9038,31,0.1831,8898,3.9721,87.9216
lg,1625223273541866536,0,0.2817,-0.8325,0.6404,250,24.231,24.7192,27.5879,93,1.4907,1.5418,-4.6468,-51.8961,31,0.1841,10099,3.9721,87.7997
lg,1625223273541883480,0,0.1987,-0.7422,0.6206,251,10.3149,46.7529,16.0522,93,1.4897,1.5428,-3.2647,-51.3284,31,0.1861,8466,3.9721,86.7169
lg,1625223273541900591,0,0.0049,-0.9023,0.6008,252,6.2866,64.1479,17.5781,93,1.4907,1.5448,-1.0031,-51.206,31,0.1871,8514,3.9721,85.1601
lg,1625223273541917647,0,-0.0151,-0.8938,0.6211,253,12.3291,56.7017,17.2119,93,1.4927,1.5448,1.0001,-50.7883,31,0.1901,8500,3.9721,83.8276
lg,1625223273541948573,0,0.0225,-0.8025,0.6177,254,12.2681,36.2549,13.7329,93,1.4947,1.5468,2.2486,-50.3732,31,0.1901,8591,3.9721,83.0508
lg,1625223273541967702,0,0.0759,-0.9023,0.6392,255,4.3335,28.2593,13.3667,93,1.4977,1.5468,3.1314,-50.3843,30,0.1911,8558,3.9721,82.5107
lg,1625223273541985869,0,0.1389,-0.9651,0.6062,256,7.8735,29.7852,5.188,93,1.5017,1.5468,3.6486,-50.3993,30,0.1931,8582,3.9721,81.7048
lg,1625223273921837332,0,0.1228,-0.9197,0.4363,257,16.3574,52.7954,-21.0571,93,1.5057,1.5388,4.7772,-50.1476,31,0.1981,27105,3.9721,79.147
lg,1625223273921885054,0,-0.1157,-0.7844,0.5742,258,20.813,94.0552,23.4985,93,1.5067,1.5357,7.9799,-49.7037,31,0.2011,14842,3.9721,76.8414
lg,1625223273921906721,0,-0.2029,-0.7935,0.8503,259,1.1597,75.0732,53.3447,93,1.5087,1.5357,11.4672,-49.7413,31,0.2011,10760,3.9721,76.4453
lg,1625223273921926721,0,-0.3005,-0.76,0.6602,260,-9.0332,28.8086,57.8613,93,1.5097,1.5378,14.1729,-49.9223,30,0.1991,7925,3.9721,77.0745
lg,1625223273921946461,0,-0.2913,-0.647,0.6516,261,-18.6157,-13.4888,59.1431,93,1.5067,1.5408,15.7703,-49.9345,30,0.1961,7936,3.9721,79.1271
lg,1625223273921965073,0,-0.334,-0.6843,0.7117,262,-21.7285,-22.3389,62.5,93,1.5017,1.5418,16.725,-49.9325,30,0.1931,8308,3.9721,82.3936
lg,1625223273921982702,0,-0.1062,-0.6995,0.9023,263,-32.7759,-73.5474,60.9741,93,1.4987,1.5428,16.259,-49.5992,30,0.1931,8321,3.9721,86.5235
lg,1625223273921999961,0,-0.0559,-0.9531,0.636,264,-43.1519,-106.0181,37.0483,93,1.4977,1.5428,14.1587,-50.4385,30,0.1911,9421,3.9721,90.8088
lg,1625223273922018498,0,0.2397,-1.0503,0.5439,265,-21.6675,-76.6602,15.4419,93,1.4957,1.5418,11.7396,-51.1362,30,0.1881,13399,3.9721,93.5382
lg,1625223273922036091,0,0.1768,-1.0862,0.4824,266,-7.6294,-34.4849,20.3857,93,1.4957,1.5418,10.8079,-51.8189,30,0.1871,8288,3.9721,95.017
lg,1625223273922053776,0,0.0933,-0.9878,0.4282,267,20.9351,16.6626,16.7847,93,1.4977,1.5428,11.2299,-51.562,31,0.1891,10105,3.9721,94.7977
lg,1625223273922071480,0,0.0845,-0.8687,0.3857,268,38.9404,38.0859,17.7612,93,1.4997,1.5438,12.1066,-50.729,31,0.1861,8072,3.9721,93.9197
lg,1625223273922088665,0,0.1353,-0.8818,0.4807,269,42.0532,35.2173,5.3711,93,1.5017,1.5448,12.4057,-49.6732,31,0.1861,8090,3.9721,92.853
lg,1625223273922143461,0,0.1746,-0.8604,0.5745,270,50.1099,43.7622,1.2817,93,1.5057,1.5458,13.0133,-48.0673,31,0.1871,8733,3.9721,91.1189
lg,1625223273922166239,0,0.1777,-0.6855,0.5776,271,60.5469,58.7158,-3.2959,93,1.5077,1.5438,13.5712,-46.1452,31,0.1911,9049,3.9721,89.2225
lg,1625223273922184461,0,0.001,-0.6418,0.6477,272,42.5415,64.7583,-15.2588,93,1.5097,1.5448,14.4008,-44.9482,31,0.1951,8928,3.9721,86.8822
lg,1625223273922202165,0,-0.3267,-0.8032,0.8242,273,2.6855,82.2754,31.311,93,1.5077,1.5468,17.6491,-45.2184,31,0.1941,8610,3.9721,85.3792
lg,1625223273922219035,0,-0.3074,-0.4026,1.2412,274,16.8457,59.9365,36.438,93,1.5047,1.5468,20.2621,-43.6862,31,0.1961,8950,3.9721,85.0252
lg,1625223273922236702,0,-0.5369,-0.3494,0.6965,275,19.7754,32.2876,8.4839,93,1.5017,1.5458,22.0135,-42.5419,31,0.1971,8324,3.9721,84.5578
lg,1625223273922254110,0,-0.6143,-0.6995,0.8809,276,-35.8276,-52.6733,22.2778,93,1.4997,1.5468,21.3389,-42.9779,31,0.1981,8618,3.9721,86.8658
lg,1625223273922271628,0,-0.4285,-0.8357,0.7554,277,-42.7246,-112.915,16.6016,93,1.4977,1.5458,18.5029,-43.5655,31,0.2001,8277,3.9721,90.6127
lg,1625223273922304813,0,-0.2947,-0.8843,0.7476,278,-42.6636,-123.3521,24.9634,93,1.4957,1.5438,15.1545,-44.3542,31,0.2001,8325,3.9721,95.0089
lg,1625223273922324795,0,-0.0791,-0.9072,0.5417,279,-40.8936,-116.6992,22.7051,93,1.4947,1.5448,12.1012,-45.613,31,0.2001,8712,3.9721,98.9188
lg,1625223273922342406,0,0.1794,-0.9512,0.6184,280,-26.123,-85.6323,26.9165,93,1.4947,1.5448,9.7019,-46.4745,31,0.2011,9115,3.9721,102.1051
lg,1625223273922360813,0,0.4656,-0.9937,0.5784,281,-21.6675,-46.3257,22.3999,93,1.4967,1.5458,7.9142,-47.5137,31,0.2021,9107,3.9721,104.0223
lg,1625223273922377943,0,0.4099,-1.0667,0.5212,282,-5.9814,33.5693,4.0894,93,1.4977,1.5458,7.9101,-48.4784,31,0.2001,8414,3.9721,103.0452
lg,1625223273922395313,0,0.2583,-1.0247,0.5068,283,4.2725,68.5425,-7.9346,93,1.5007,1.5478,9.3624,-48.9892,31,0.2001,9199,3.9721,99.6847
lg,1625223273922412684,0,0.0312,-0.8752,0.5515,284,15.9912,104.0649,-21.1182,93,1.5027,1.5458,10.9929,-49.3576,31,0.2011,8866,3.9721,95.8636
lg,1625223273922429758,0,-0.0264,-0.8279,0.5222,285,18.9209,83.4961,-36.8652,93,1.5067,1.5458,11.0851,-49.4648,31,0.2001,9584,3.9721,92.4819
lg,1625223273922446924,0,0.0303,-0.9128,0.5835,286,18.8599,64.5142,-48.0347,93,1.5007,1.5408,10.7907,-49.6418,31,0.1981,8894,3.9721,89.1519
lg,1625223273922464573,0,-0.0459,-1.0059,0.3811,287,23.0713,50.9644,-70.0684,93,1.4977,1.5347,9.6477,-50.0918,31,0.1981,9185,3.9721,85.592
lg,1625223273922496813,0,0.0859,-0.7625,0.271,288,50.5981,32.1655,-22.9492,93,1.4967,1.5307,9.1863,-49.1195,31,0.1971,9310,3.9721,83.8563
lg,1625223274324746887,0,-0.5291,-0.8218,0.7039,289,-8.4839,65.3687,83.5571,93,1.5017,1.5317,14.0641,-49.4165,31,0.1941,26417,3.9721,84.0485
lg,1625223274324788554,0,-0.5618,-0.5115,0.7551,290,-5.8594,-33.6304,83.9233,93,1.4967,1.5347,16.4055,-48.2286,31,0.1881,8577,3.9721,87.5249
lg,1625223274324809276,0,-0.6328,-0.6455,0.77,291,-44.0063,-125,80.8105,93,1.4877,1.5378,16.1105,-47.968,31,0.1821,12701,3.9721,93.7366
lg,1625223274324829239,0,0.0747,-0.6797,1.0229,292,-54.4434,-229.6143,76.2939,93,1.4847,1.5388,11.2884,-48.5952,31,0.1841,10293,3.9721,102.6986
lg,1625223274324848739,0,0.363,-1.0791,0.793,293,-74.3408,-235.9619,31.1279,93,1.4827,1.5398,5.1497,-50.5914,31,0.1811,8217,3.9721,110.7402
lg,1625223274324867165,0,0.665,-1.0659,0.49,294,-29.0527,-134.9487,14.2822,93,1.4827,1.5398,0.9547,-51.9893,31,0.1791,8017,3.9721,115.2858
lg,1625223274324884887,0,0.4377,-1.0422,0.4668,295,-10.8643,-27.771,-5.127,93,1.4827,1.5388,-0.7261,-52.9197,31,0.1801,7971,3.9721,116.04
lg,1625223274324903517,0,0.0554,-0.8257,0.5701,296,25.5127,92.6514,6.1035,93,1.4827,1.5398,1.613,-52.0078,31,0.1811,8072,3.9721,113.2446
lg,1625223274324920517,0,-0.158,-0.7607,0.5674,297,20.0806,92.3462,10.2539,93,1.4837,1.5408,4.5168,-51.3858,31,0.1821,8229,3.9721,110.5922
lg,1625223274324938406,0,-0.2046,-0.8127,0.5486,298,15.3809,75.8667,15.1367,93,1.4847,1.5418,6.8864,-51.2708,31,0.1831,8054,3.9721,109.1642
lg,1625223274324955535,0,-0.2454,-0.8337,0.4956,299,14.5264,44.0063,20.813,93,1.4857,1.5418,8.9194,-51.1064,31,0.1841,8082,3.9721,108.2669
lg,1625223274324972276,0,-0.1956,-0.7834,0.5381,300,14.9536,12.6953,29.4189,93,1.4877,1.5428,10.2554,-50.6118,31,0.1861,8098,3.9721,108.593
lg,1625223274324989276,0,0.095,-0.8303,0.6616,301,14.8315,-7.8125,32.7759,93,1.4927,1.5438,9.8682,-49.8176,31,0.1871,8214,3.9721,110.1474
lg,1625223274325006517,0,0.2314,-0.877,0.6702,302,11.5356,-42.6025,15.9302,93,1.4997,1.5428,8.2438,-49.1216,31,0.1921,9579,3.9721,111.8648
lg,1625223274325023998,0,0.4099,-0.9485,0.7661,303,25.2075,-19.4092,-21.5454,93,1.5047,1.5408,6.0635,-48.1782,31,0.1941,9876,3.9721,111.861
lg,1625223274325043461,0,0.3188,-0.9919,0.6526,304,30.5786,36.1938,-65.0635,93,1.4997,1.5368,4.2869,-47.5279,31,0.1921,8238,3.9721,108.9929
lg,1625223274325138332,0,0.1135,-0.9871,0.446,305,42.6636,94.9097,-83.374,93,1.4977,1.5307,4.0085,-46.8877,31,0.1911,8247,3.9721,103.8757
lg,1625223274325158480,0,-0.0098,-0.8298,0.3049,306,51.3916,112.854,-70.7397,93,1.4977,1.5287,6.6284,-45.9283,31,0.1941,8256,3.9721,99.2423
lg,1625223274325179776,0,-0.1338,-0.637,0.6636,307,19.8975,139.7705,19.7144,93,1.4997,1.5307,11.1317,-45.58,31,0.1991,8272,3.9721,95.7494
lg,1625223274325197998,0,-0.5579,-0.7505,0.6609,308,-7.8125,142.8223,62.8662,93,1.5017,1.5327,17.5721,-46.5992,31,0.1941,8319,3.9721,93.2661
lg,1625223274325215887,0,-0.9072,-0.7529,0.8271,309,-12.0239,106.2622,68.4814,93,1.5017,1.5378,22.1361,-46.6485,31,0.1871,8305,3.9721,93.7004
lg,1625223274325236165,0,-0.9158,-0.5842,0.7786,310,-18.0054,-85.8765,76.8433,93,1.4897,1.5388,22.7853,-45.1406,30,0.1781,13588,3.9721,98.818
lg,1625223274325272128,0,-0.2065,-0.4817,0.8982,311,-45.9595,-258.667,59.7534,93,1.4877,1.5388,16.655,-43.088,30,0.1761,8357,3.9721,108.5413
lg,1625223274325291980,0,0.2202,-1.0793,0.6938,312,-93.9941,-305.603,41.4429,93,1.4867,1.5388,8.1153,-45.2603,30,0.1761,9606,3.9721,118.2996
lg,1625223274325309794,0,0.5674,-1.1382,0.52,313,-74.1577,-285.7666,43.8843,86,1.4867,1.5378,1.9489,-47.1659,31,0.1741,8498,3.9754,124.8552
lg,1625223274325327702,0,0.624,-1.1089,0.5071,314,-15.686,-83.252,11.2305,86,1.4867,1.5388,-0.9781,-48.1871,31,0.1751,8452,3.9754,127.6152
lg,1625223274325344924,0,0.429,-0.7952,0.5854,315,30.0903,55.1147,14.2822,86,1.4867,1.5408,0.0499,-47.1638,31,0.1761,8662,3.9754,126.3584
lg,1625223274325364257,0,0.1404,-0.8208,0.6169,316,27.2827,103.6987,-0.4272,86,1.4887,1.5428,2.5519,-46.3645,31,0.1781,8848,3.9754,123.3154
lg,1625223274325381702,0,-0.0793,-0.9072,0.6357,317,26.4893,121.2769,-5.8594,86,1.4917,1.5438,5.7856,-45.9037,31,0.1791,8479,3.9754,119.6264
lg,1625223274325399091,0,-0.2046,-0.9021,0.6272,318,28.7476,119.751,-10.6812,86,1.4957,1.5448,9.0367,-45.4559,31,0.1801,8570,3.9754,115.8445
lg,1625223274325416943,0,-0.1851,-0.7358,0.7141,319,33.3252,81.8481,-9.8877,86,1.4997,1.5438,11.1025,-44.5924,31,0.1831,8550,3.9754,113.2038
lg,1625223274325435554,0,-0.0085,-0.7236,0.6667,320,20.6299,28.0151,-21.3013,86,1.5037,1.5438,10.8846,-44.1406,31,0.1871,8578,3.9754,111.7624
lg,1625223274643917831,0,-0.1423,-0.8025,0.5229,321,0.8545,44.3726,-1.1597,86,1.5047,1.5428,12.0215,-44.8609,31,0.1951,25874,3.9754,110.3622
lg,1625223274643980368,0,-0.2932,-0.7827,0.6025,322,-18.3105,38.7573,62.3169,86,1.5067,1.5458,15.0533,-45.7178,31,0.1901,8612,3.9754,110.9649
lg,1625223274644002072,0,-0.3337,-0.7346,0.5732,323,-20.4468,23.8037,84.8389,86,1.5017,1.5468,18.4045,-46.0509,31,0.1861,7970,3.9754,112.7031
lg,1625223274644021720,0,-0.3318,-0.5862,0.9316,324,-11.2915,-2.9297,75.9277,86,1.4967,1.5468,20.4406,-45.1572,31,0.1871,7989,3.9754,115.2187
lg,1625223274644040350,0,-0.4197,-0.7625,0.6145,325,-33.0811,-95.0928,42.6636,86,1.4947,1.5448,19.0967,-45.2925,31,0.1851,8010,3.9754,119.2917
lg,1625223274644058776,0,0.0254,-0.9119,0.668,326,-35.5835,-162.9028,50.1709,86,1.4927,1.5418,15.1755,-45.1889,31,0.1831,12579,3.9754,125.4983
lg,1625223274644077424,0,0.1101,-0.9795,0.6172,327,-21.7285,-107.1777,26.6113,86,1.4927,1.5428,12.153,-45.6263,31,0.1831,8027,3.9754,129.283
lg,1625223274644096091,0,0.2673,-0.8682,0.645,328,0.6714,-51.8799,27.1606,86,1.4917,1.5438,10.4879,-45.4445,31,0.1831,10539,3.9754,131.5047
lg,1625223274644114368,0,0.2881,-0.8801,0.6453,329,8.0566,6.7749,14.8926,86,1.4927,1.5448,10.1334,-45.3949,31,0.1841,9737,3.9754,131.6719
lg,1625223274644132350,0,0.1863,-0.9111,0.6279,330,12.085,36.499,11.1694,86,1.4947,1.5458,10.9475,-45.4349,31,0.1851,8122,3.9754,130.8602
lg,1625223274644150813,0,-0.0129,-0.8508,0.6597,331,20.9961,71.8384,0.3052,86,1.4977,1.5458,12.6989,-45.2745,31,0.1881,10075,3.9754,128.7263
lg,1625223274644168554,0,-0.1301,-0.7976,0.6267,332,19.8364,67.3218,-9.6436,86,1.5017,1.5458,14.0961,-45.2576,31,0.1901,8143,3.9754,126.4199
lg,1625223274644186739,0,-0.042,-0.7224,0.604,333,22.7051,23.9868,-15.0146,86,1.5047,1.5448,13.8903,-44.814,31,0.1931,8175,3.9754,125.2334
lg,1625223274644204220,0,-0.0803,-0.7834,0.5273,334,12.2681,8.667,-20.6299,86,1.5067,1.5428,13.2638,-44.9647,31,0.1951,8235,3.9754,124.2742
lg,1625223274644222591,0,-0.0962,-0.8992,0.6333,335,6.2256,9.7046,0.1221,86,1.5067,1.5428,13.2177,-45.1683,31,0.1951,8237,3.9754,123.9048
lg,1625223274644240461,0,-0.1477,-0.8816,0.6689,336,-15.5029,10.7422,31.6772,86,1.5077,1.5438,14.199,-45.942,31,0.1991,8683,3.9754,124.4318
lg,1625223274644257665,0,-0.1809,-0.7422,0.7151,337,-12.4512,1.3428,45.4102,86,1.5067,1.5448,15.3705,-46.1093,31,0.1971,8880,3.9754,125.6943
lg,1625223274644275257,0,-0.1057,-0.7019,0.7148,338,-25.2075,-36.2549,50.2319,86,1.5047,1.5488,15.4516,-46.3642,30,0.1981,10384,3.9754,128.2422
lg,1625223274644293109,0,0.0513,-0.6919,0.8723,339,-23.1323,-48.9502,41.687,86,1.5037,1.5488,14.7896,-47.0606,30,0.1981,8303,3.9754,130.7795
lg,1625223274644310461,0,0.0024,-0.9634,0.7651,340,-34.3628,-40.2832,25.6348,86,1.4997,1.5468,13.8809,-48.121,30,0.1991,8369,3.9754,132.6821
lg,1625223274644343924,0,0.1257,-0.9124,0.5312,341,-6.6528,-25.2686,13.5498,86,1.4997,1.5468,12.824,-48.5792,31,0.1991,8386,3.9754,133.7199
lg,1625223274644364665,0,-0.1929,-0.8589,0.6375,342,12.5122,57.4341,5.249,86,1.4997,1.5458,14.3859,-48.6462,31,0.1991,8597,3.9754,132.0438
lg,1625223274644382313,0,-0.292,-0.8044,0.6631,343,16.4795,63.4766,5.6152,86,1.5007,1.5468,16.2693,-48.5319,31,0.2001,8403,3.9754,130.203
lg,1625223274644401202,0,-0.2012,-0.7671,0.6335,344,7.8125,11.4746,5.0049,86,1.4997,1.5478,16.5268,-48.3479,31,0.1991,8407,3.9754,129.9629
lg,1625223274644418961,0,-0.009,-0.8887,0.6348,345,-3.3569,-13.855,-0.2441,86,1.5037,1.5498,15.5264,-48.6046,30,0.1991,8566,3.9754,130.32
lg,1625223274644436498,0,0.022,-0.9021,0.603,346,-1.4038,-8.4229,-4.6387,86,1.5067,1.5498,14.4143,-48.8534,30,0.2001,8465,3.9754,130.1117
lg,1625223274644455609,0,0.0444,-0.8794,0.644,347,5.6763,-2.8076,-19.3481,86,1.5077,1.5478,13.1031,-48.9203,30,0.2021,8539,3.9754,129.6279
lg,1625223274644472646,0,0.0918,-0.783,0.5559,348,20.3857,2.7466,-32.4707,86,1.5077,1.5488,11.4783,-48.5308,30,0.2021,8521,3.9754,128.6146
lg,1625223274644490035,0,0.0854,-0.8374,0.5007,349,15.3809,-6.897,-43.7622,86,1.5067,1.5468,9.3489,-48.5038,31,0.2011,8600,3.9754,127.5656
lg,1625223274644506924,0,0.0879,-0.8306,0.4058,350,18.4937,-6.1035,-40.6494,86,1.5067,1.5458,8.3926,-48.6275,31,0.2021,8515,3.9754,126.757
lg,1625223274644524387,0,-0.0156,-0.9014,0.6694,351,-11.0474,29.1138,12.6343,86,1.5097,1.5478,9.2318,-49.3329,31,0.2041,9208,3.9754,126.1752
lg,1625223274644649220,0,-0.2646,-0.8638,0.6101,352,-15.2588,49.9268,61.2183,86,1.5077,1.5508,12.5691,-50.1314,31,0.1971,9236,3.9754,126.1934
lg,1625266137150090681,0,-0.1824,-0.8457,0.8521,353,-54.3213,-139.0991,16.3574,86,1.4967,1.5508,9.4153,-51.1564,31,0.1951,26077,3.9754,131.0525
lg,1625266137150134107,0,0.2158,-1.0007,0.5549,354,-33.0811,-109.9854,12.3901,86,1.4957,1.5488,6.3224,-52.3288,31,0.1921,15403,3.9754,134.7976
lg,1625266137150155292,0,0.1902,-0.8606,0.5085,355,-1.2207,-11.1084,15.0757,86,1.4947,1.5488,5.8643,-52.5662,31,0.1921,9579,3.9754,135.4911
lg,1625266137150178014,0,-0.0349,-0.8015,0.6526,356,8.4229,43.8232,24.231,86,1.4947,1.5488,7.5363,-52.243,31,0.1931,7959,3.9754,134.6906
lg,1625266137150197736,0,-0.019,-0.8005,0.6697,357,6.897,43.396,27.3438,86,1.4947,1.5488,9.1988,-51.9719,31,0.1941,7958,3.9754,133.9915
lg,1625266137150238755,0,0.0288,-0.8875,0.6929,358,-1.0986,17.395,23.6206,86,1.4967,1.5508,9.9455,-51.9999,31,0.1951,9299,3.9754,134.0231
lg,1625266137150257625,0,0.0349,-0.9338,0.6284,359,1.77,17.9443,13.4277,86,1.4997,1.5508,10.3442,-52.123,31,0.1971,8700,3.9754,133.754
lg,1625266137150275607,0,0.0164,-0.915,0.6125,360,4.8828,19.4092,9.1553,86,1.5037,1.5508,10.6638,-52.1525,31,0.1971,8029,3.9754,133.3285
lg,1625266137150293718,0,0.0496,-0.8787,0.582,361,5.7373,17.7612,7.9956,86,1.5057,1.5478,10.8231,-52.1552,31,0.2001,8086,3.9754,132.9236
lg,1625266137150311699,0,0.1174,-0.8745,0.6489,362,12.3291,19.2871,7.2632,86,1.5077,1.5488,10.8582,-51.7848,31,0.2001,8086,3.9754,132.4738
lg,1625266137150329107,0,0.1946,-0.8704,0.5442,363,19.7144,15.8081,-0.5493,86,1.5067,1.5458,9.9848,-51.571,31,0.1991,8099,3.9754,131.4826
lg,1625266137150346644,0,0.1672,-0.9519,0.5356,364,10.1929,27.832,-27.3438,86,1.5027,1.5398,9.0884,-51.7726,31,0.2021,8041,3.9754,129.8484
lg,1625266137150365403,0,0.1042,-0.866,0.353,365,31.7383,49.6216,-15.7471,86,1.5017,1.5418,9.2268,-51.4418,31,0.2021,8278,3.9754,127.7723
lg,1625266137150382884,0,0.095,-0.7419,0.562,366,20.813,88.8062,21.1182,86,1.5027,1.5428,11.5008,-51.0669,31,0.2061,8118,3.9754,125.4752
lg,1625266137150400403,0,-0.0081,-0.7722,0.6841,367,7.5684,105.7739,31.8604,86,1.5047,1.5428,14.6898,-51.2279,31,0.2021,8160,3.9754,122.9271
lg,1625266137150419236,0,-0.2295,-0.7727,0.626,368,2.8687,96.8628,55.6641,86,1.5067,1.5468,18.7551,-51.5844,31,0.1961,8196,3.9754,121.2098
lg,1625266137150437551,0,-0.4229,-0.7397,0.7573,369,1.4648,72.7539,52.3071,86,1.5057,1.5478,22.3065,-51.5961,31,0.1901,8213,3.9754,120.2491
lg,1625266137150456959,0,-0.5115,-0.7048,0.7297,370,-1.5259,46.936,43.8232,86,1.5017,1.5488,25.0129,-51.5181,31,0.1871,8197,3.9754,119.9429
lg,1625266137150475459,0,-0.2734,-0.6091,0.8784,371,-12.3291,-49.0112,34.0576,86,1.4987,1.5498,24.4514,-50.2004,31,0.1881,8242,3.9754,122.864
lg,1625266137150499792,0,-0.2085,-0.9104,0.7754,372,-34.9121,-88.9893,21.5454,86,1.4977,1.5498,22.2737,-50.133,31,0.1861,8273,3.9754,126.463
lg,1625266137150522884,0,-0.0522,-0.9463,0.7253,373,-29.48,-87.4023,26.7944,86,1.4967,1.5478,20.0982,-50.0912,31,0.1851,8275,3.9754,130.045
lg,1625266137150582347,0,-0.0205,-0.8521,0.4468,374,-8.667,-49.2554,3.6011,86,1.4967,1.5478,18.2367,-50.3753,30,0.1841,9689,3.9754,131.5774
lg,1625266137150618903,0,-0.1699,-0.8118,0.637,375,11.2915,26.062,16.2964,86,1.4977,1.5488,19.0446,-50.1047,30,0.1851,10036,3.9754,131.1507
lg,1625266137150667884,0,-0.1924,-0.7573,0.6702,376,6.3477,1.4648,9.9487,86,1.5007,1.5498,19.0556,-49.6999,30,0.1841,8394,3.9754,131.3974
lg,1625266137150689459,0,-0.1311,-0.874,0.6545,377,-3.8452,-27.9541,7.1411,86,1.5037,1.5508,17.6269,-49.7369,31,0.1851,13042,3.9754,132.7575
lg,1625266137150708810,0,-0.031,-0.8982,0.6484,378,-4.7607,-48.645,5.249,86,1.5067,1.5508,15.9077,-49.6103,31,0.1881,8380,3.9754,134.3973
lg,1625266137150729940,0,0.1147,-0.8674,0.6404,379,-0.9155,-52.9175,8.1177,86,1.5087,1.5508,13.9358,-49.3119,31,0.1881,8408,3.9754,136.2378
lg,1625266137150749533,0,0.1714,-0.8735,0.5266,380,-3.2349,-48.645,5.3711,86,1.5087,1.5508,11.9406,-49.4416,31,0.1881,8389,3.9754,137.808
lg,1625266137150766218,0,0.1509,-0.9329,0.5142,381,-13.1226,-40.9546,13.6719,86,1.5097,1.5518,10.5362,-50.0998,31,0.1831,8456,3.9754,139.3528
lg,1625266137150783625,0,0.1738,-0.824,0.771,382,-27.832,-19.7754,30.0903,86,1.5077,1.5518,10.2115,-50.8187,31,0.1871,8619,3.9754,140.7793
lg,1625266137150801070,0,-0.0586,-0.7605,0.4216,383,-0.6714,9.4604,12.3901,86,1.5047,1.5528,10.5851,-51.2376,31,0.1871,8791,3.9754,140.725
lg,1625266137150819477,0,-0.2837,-0.8379,0.6414,384,-15.1367,12.9395,15.4419,86,1.5017,1.5498,11.5622,-51.8859,31,0.1871,9152,3.9754,140.6931
lg,1625266137532245255,0,-0.5588,-0.7668,0.5261,385,-2.5024,-31.7993,21.6675,86,1.5007,1.5498,11.8677,-51.5732,31,0.1871,25435,3.9754,142.2827
lg,1625266137532310643,0,0.1736,-0.8372,0.7383,386,-17.5171,-153.8086,36.9263,86,1.5017,1.5498,8.3991,-51.1174,31,0.1891,12118,3.9754,148.1225
lg,1625266137532330718,0,0.5486,-1.0161,0.6223,387,-26.5503,-122.5586,13.6719,86,1.5047,1.5518,4.5611,-51.9577,31,0.1891,9080,3.9754,152.2991
lg,1625266137532350143,0,0.4089,-1.0542,0.6304,388,-5.6763,-11.6577,-18.6157,86,1.5077,1.5518,2.8048,-52.4481,31,0.1881,8575,3.9754,152.1941
lg,1625266137532369495,0,0.2249,-0.9143,0.6577,389,20.2637,57.373,-31.7383,86,1.5087,1.5518,2.6495,-51.822,31,0.1871,8978,3.9754,149.5921
lg,1625266137532388088,0,0.177,-0.8384,0.6194,390,26.3062,71.2891,-40.9546,86,1.5077,1.5498,2.8331,-51.1459,31,0.1901,8216,3.9754,146.324
lg,1625266137532407236,0,-0.0928,-0.9097,0.405,391,19.5312,76.2329,-57.6782,86,1.5037,1.5448,2.5293,-51.0195,31,0.1921,11096,3.9754,142.776
lg,1625266137532428143,0,-0.1152,-0.8464,0.3716,392,31.0669,48.7061,-49.4385,86,1.5017,1.5428,2.4086,-50.4823,31,0.1921,9082,3.9754,139.9903
lg,1625266137532497625,0,-0.1233,-0.7258,0.449,393,16.3574,50.8423,8.9722,86,1.5017,1.5428,4.2039,-50.1998,31,0.1941,8649,3.9754,138.6364
lg,1625266137532521143,0,-0.1963,-0.8069,0.7139,394,-10.6812,35.6445,56.6406,86,1.5057,1.5448,7.0908,-50.5132,31,0.1911,8682,3.9754,138.9843
lg,1625266137532540866,0,-0.251,-0.7625,0.613,395,-14.8315,-2.0142,78.2471,86,1.5067,1.5478,9.7439,-50.8167,31,0.1881,8679,3.9754,141.044
lg,1625266137532560606,0,-0.2722,-0.7146,0.6201,396,-17.2729,-28.5645,74.7681,86,1.5037,1.5508,11.6984,-50.9054,31,0.1831,8749,3.9754,143.8756
lg,1625266137532697143,0,-0.175,-0.6917,0.8701,397,-26.123,-75.5615,73.7915,86,1.4977,1.5508,11.9796,-50.5589,31,0.1861,8407,3.9754,148.2756
lg,1625266137532718181,0,0.115,-1.0012,0.7341,398,-48.8281,-135.498,46.936,86,1.4947,1.5498,9.382,-51.6036,31,0.1891,14187,3.9754,153.747
lg,1625266137532737347,0,0.2507,-0.9521,0.623,399,-18.0054,-91.0645,26.9775,86,1.4927,1.5488,7.1484,-52.0004,31,0.1891,8840,3.9754,157.2854
lg,1625266137532755403,0,0.1575,-0.99,0.7896,400,-7.5684,-34.3628,26.4893,86,1.4917,1.5488,6.462,-52.0765,31,0.1891,9163,3.9754,159.0341
lg,1625266137532775440,0,0.2861,-0.8247,0.7051,401,4.2725,-5.9204,23.3154,86,1.4927,1.5498,6.2261,-51.7095,31,0.1901,8115,3.9754,159.8069
lg,1625266137532795458,0,0.2151,-0.9712,0.6206,402,5.9204,36.1328,12.4512,86,1.4937,1.5508,6.8494,-51.7802,31,0.1911,10251,3.9754,158.947
lg,1625266137532814384,0,0.0349,-0.9136,0.5781,403,15.3809,73.6694,1.5869,86,1.4957,1.5518,8.3678,-51.6939,31,0.1921,9657,3.9754,156.6197
lg,1625266137532836255,0,-0.073,-0.7854,0.582,404,16.2354,72.998,1.0986,86,1.4977,1.5528,10.0403,-51.4712,31,0.1921,8590,3.9754,154.3157
lg,1625266137532855514,0,-0.1233,-0.7979,0.551,405,12.6343,59.7534,2.1973,86,1.5007,1.5528,11.1799,-51.4366,31,0.1951,8984,3.9754,152.9416
lg,1625266137532873810,0,-0.1035,-0.8474,0.5671,406,11.4136,31.0669,7.0801,86,1.5027,1.5508,11.9572,-51.3236,31,0.1951,8225,3.9754,152.0923
lg,1625266137532897403,0,-0.0479,-0.854,0.4888,407,13.4888,15.625,9.8877,86,1.5047,1.5528,12.2953,-51.1836,31,0.1961,8992,3.9754,151.7712
lg,1625266137532919699,0,-0.0193,-0.782,0.5181,408,19.104,20.6909,6.958,86,1.5087,1.5518,12.5905,-50.7275,30,0.1981,9030,3.9754,151.244
lg,1625266137532937662,0,0.0234,-0.8325,0.6162,409,19.7754,16.5405,-5.249,86,1.5087,1.5488,12.3003,-50.1815,30,0.1961,9676,3.9754,150.5577
lg,1625266137532955662,0,0.0974,-0.9216,0.6343,410,21.7896,13.4888,-16.0522,86,1.5047,1.5448,11.4797,-49.6883,30,0.1991,9091,3.9754,149.6657
lg,1625266137532996829,0,0.1304,-0.8955,0.5061,411,30.3955,28.7476,-21.1792,86,1.5027,1.5408,10.8577,-49.1785,31,0.1971,9107,3.9754,148.1239
lg,1625266137533017532,0,0.0854,-0.822,0.4307,412,31.7383,34.4238,-10.6812,86,1.5027,1.5398,10.9133,-48.469,31,0.2011,9116,3.9754,146.7183
lg,1625266137533034440,0,-0.0586,-0.8184,0.6626,413,1.8311,58.5938,39.7339,86,1.5067,1.5418,13.3367,-48.6385,31,0.1951,8441,3.9754,145.9725
lg,1625266137533051773,0,-0.3252,-0.8079,0.6675,414,-12.5732,61.5845,82.3364,86,1.5027,1.5458,17.5734,-49.113,31,0.1821,9431,3.9754,146.2693
lg,1625266137533070014,0,-0.6082,-0.6204,0.8284,415,-2.1362,40.5884,83.9233,86,1.4977,1.5468,21.6693,-48.3885,31,0.1831,8857,3.9754,147.4555
lg,1625266137533087792,0,-0.4263,-0.4177,0.6011,416,-8.3618,-100.2808,20.3247,86,1.4937,1.5478,19.935,-46.879,31,0.1861,9265,3.9754,151.4119
lg,1625266137889669773,0,0.1824,-1.0581,0.564,417,-47.8516,-166.9922,-0.9766,86,1.4897,1.5468,15.6146,-47.6452,30,0.1831,26121,3.9754,155.0009
lg,1625266137890700106,0,0.2278,-0.8882,0.5317,418,-0.1221,-0.9766,13.0005,86,1.4877,1.5468,15.0502,-47.9091,30,0.1831,12435,3.9754,155.2939
lg,1625266137890754328,0,0.0605,-0.8481,0.5754,419,7.0801,49.1333,16.8457,86,1.4877,1.5468,16.1401,-48.2228,30,0.1841,8027,3.9754,154.1566
lg,1625266137890777088,0,-0.0178,-0.8843,0.5024,420,9.8877,58.8379,16.8457,86,1.4877,1.5478,17.6113,-48.7161,30,0.1861,8029,3.9754,152.6406
lg,1625266137890798643,0,-0.0229,-0.8779,0.5601,421,14.5264,61.9507,19.165,86,1.4887,1.5478,19.1737,-48.9339,31,0.1871,7956,3.9754,151.095
lg,1625266137890822051,0,-0.0222,-0.8577,0.5576,422,14.1602,52.3071,15.0757,86,1.4907,1.5488,20.2951,-49.1198,31,0.1891,7959,3.9754,149.7228
lg,1625266137890841940,0,0.0032,-0.9146,0.585,423,14.2212,34.3628,10.7422,86,1.4947,1.5498,20.7222,-49.1745,31,0.1911,9335,3.9754,148.7894
lg,1625266137890866125,0,0.0876,-0.8816,0.5742,424,18.4326,28.0762,5.0049,92,1.4987,1.5508,20.6296,-49.0262,31,0.1931,8530,3.9699,147.9033
lg,1625266137890887995,0,0.1338,-0.8562,0.6003,425,23.2544,31.5552,1.4648,92,1.5027,1.5498,20.4356,-48.6797,31,0.1961,8049,3.9699,146.8361
lg,1625266137890908162,0,0.0923,-0.8679,0.6104,426,27.8931,57.251,-24.292,92,1.5057,1.5478,20.2343,-48.6931,31,0.1981,11965,3.9699,144.2246
lg,1625266137890930514,0,0.0732,-0.8879,0.6025,427,28.8696,67.4438,-25.2686,92,1.5047,1.5448,20.3145,-48.8275,31,0.1991,8652,3.9699,141.2462
lg,1625266137890987958,0,-0.0369,-0.8569,0.5801,428,34.79,93.4448,-21.2402,92,1.5037,1.5438,21.4035,-49.0149,31,0.1991,8139,3.9699,137.5268
lg,1625266137891013662,0,-0.1658,-0.7056,0.5325,429,29.1748,95.52,-0.2441,92,1.5027,1.5418,23.4516,-49.2011,31,0.1991,8182,3.9699,134.3304
lg,1625266137891033754,0,-0.1982,-0.7317,0.6658,430,18.0664,93.2007,19.7754,92,1.5037,1.5418,25.9808,-49.4691,31,0.2031,8108,3.9699,131.8056
lg,1625266137891054162,0,-0.3799,-0.8579,0.75,431,-3.2349,64.8193,40.0391,92,1.5057,1.5428,28.5594,-50.0455,31,0.2031,8227,3.9699,130.7516
lg,1625266137891075606,0,-0.4866,-0.77,0.6992,432,-15.4419,7.2632,67.688,92,1.5067,1.5468,30.6671,-49.6864,31,0.1971,8171,3.9699,132.5486
lg,1625266137891093773,0,-0.4883,-0.7161,0.7764,433,-17.8833,-22.1558,73.7915,92,1.5007,1.5488,32.1321,-48.4665,31,0.1891,8308,3.9699,135.7689
lg,1625266137891112588,0,-0.4551,-0.7031,0.7822,434,-34.9121,-91.8579,66.2842,92,1.4947,1.5488,31.2834,-46.7837,31,0.1901,8289,3.9699,141.2157
lg,1625266137891130662,0,-0.0369,-0.637,0.335,435,-26.9165,-187.1338,8.8501,92,1.4917,1.5478,25.357,-45.4976,31,0.1901,8328,3.9699,147.2649
lg,1625266137891149328,0,0.1633,-0.9768,0.6125,436,-59.6924,-175.293,5.4321,92,1.4907,1.5478,19.9037,-46.0754,31,0.1901,8285,3.9699,152.426
lg,1625266137891168403,0,0.1555,-0.9338,0.3267,437,-30.0293,-134.3384,-8.2397,92,1.4897,1.5478,14.9662,-47.0825,31,0.1901,8304,3.9699,155.9605
lg,1625266137891187254,0,-0.2463,-0.8567,0.4402,438,-1.4648,-19.8975,-7.9956,92,1.4887,1.5468,14.188,-47.6498,31,0.1891,8345,3.9699,156.1864
lg,1625266137891205625,0,-0.2913,-0.6509,0.6543,439,10.0098,-21.0571,26.4282,92,1.4877,1.5478,14.5233,-46.7868,31,0.1891,8360,3.9699,157.5966
lg,1625266137891225828,0,-0.1399,-0.6304,0.6638,440,-0.1831,-59.9365,31.4941,92,1.4877,1.5488,13.5578,-45.9987,31,0.1901,8370,3.9699,160.3176
lg,1625266137891242977,0,0.2458,-0.9414,0.6536,441,-19.165,-101.2573,33.2642,92,1.4897,1.5498,10.7485,-46.2886,31,0.1911,8421,3.9699,164.1674
lg,1625266137891347403,0,0.4131,-1.0083,0.5869,442,-6.2866,-47.3633,20.0195,92,1.4927,1.5508,9.9102,-46.4083,31,0.1931,12992,3.9699,164.6489
lg,1625266137891371754,0,0.3647,-0.9312,0.6255,443,17.0288,31.189,9.7656,92,1.4957,1.5518,9.9898,-46.1999,31,0.1941,8514,3.9699,163.9372
lg,1625266137891390310,0,0.1594,-0.8782,0.6248,444,23.3154,74.585,3.54,92,1.4997,1.5518,11.4331,-45.9807,31,0.1971,8547,3.9699,161.7849
lg,1625266137891409014,0,0.1052,-0.8066,0.6399,445,29.1138,83.1299,-4.8828,92,1.5047,1.5508,12.9241,-45.5785,31,0.1991,10228,3.9699,159.1555
lg,1625266137891426384,0,-0.0415,-0.8726,0.5818,446,20.752,83.252,-8.3618,92,1.5057,1.5488,14.5822,-45.8158,31,0.2011,8546,3.9699,156.3606
lg,1625266137891444699,0,-0.1848,-0.9016,0.6257,447,11.5356,84.9609,10.0708,92,1.5087,1.5508,17.0192,-46.3397,31,0.2041,10245,3.9699,154.0069
lg,1625266137891479551,0,-0.2617,-0.8569,0.679,448,-2.3193,70.5566,24.9023,92,1.5087,1.5518,19.4676,-46.9853,31,0.2021,8585,3.9699,153.652
lg,1625266138266182106,0,-0.1597,-0.6167,0.7544,449,-3.6621,-19.2261,42.4805,92,1.4997,1.5528,19.7772,-46.1848,31,0.1971,25621,3.9699,155.591
lg,1625266138266220328,0,0.0002,-0.876,0.5701,450,-22.3999,-99.1211,23.6816,92,1.4987,1.5528,16.9781,-46.3435,31,0.1971,10686,3.9699,159.1551
lg,1625266138266240569,0,-0.0703,-0.9514,0.5735,451,-13.7939,-51.6968,7.8735,92,1.4977,1.5518,15.2824,-46.8987,31,0.1971,8649,3.9699,160.8015
lg,1625266138266259773,0,-0.1387,-0.7974,0.5503,452,4.6997,-14.5264,7.5073,92,1.4977,1.5528,14.8279,-46.8739,31,0.1991,8837,3.9699,161.3649
lg,1625266138266279273,0,-0.0996,-0.748,0.5735,453,5.3711,-16.6016,4.5166,92,1.4987,1.5528,13.993,-46.7555,31,0.1981,8300,3.9699,162.1327
lg,1625266138266298032,0,-0.062,-0.8247,0.6104,454,-0.3662,-22.8882,4.3945,92,1.5017,1.5538,13.0838,-46.8426,31,0.1981,9058,3.9699,162.8798
lg,1625266138266315995,0,-0.0056,-0.9177,0.645,455,0.3662,-18.7988,-3.6011,92,1.5047,1.5538,11.9675,-47.0427,31,0.1971,8870,3.9699,163.2713
lg,1625266138266334828,0,0.0527,-0.8672,0.6589,456,10.498,-9.6436,-5.9204,92,1.5067,1.5538,10.9549,-46.8198,31,0.1991,8020,3.9699,163.3464
lg,1625266138266353050,0,0.1038,-0.8301,0.6799,457,10.437,-10.0708,-10.8032,92,1.5087,1.5518,9.4524,-46.6334,31,0.2001,8402,3.9699,162.9818
lg,1625266138266371236,0,0.1104,-0.8887,0.6318,458,10.8643,-2.1362,-29.8462,92,1.5077,1.5478,7.932,-46.6215,31,0.2001,8773,3.9699,162.1654
lg,1625266138266388643,0,0.0535,-0.908,0.4233,459,17.2729,2.8687,-37.5977,92,1.5067,1.5458,6.4987,-46.7834,31,0.2001,8055,3.9699,160.9451
lg,1625266138266406291,0,-0.0344,-0.7896,0.4302,460,16.9678,19.7144,-20.2637,92,1.5067,1.5448,6.2815,-46.7995,30,0.2011,8840,3.9699,159.7434
lg,1625266138266423995,0,-0.0488,-0.791,0.4985,461,1.5869,28.0762,15.9302,92,1.5087,1.5458,7.4678,-47.0139,30,0.2021,8472,3.9699,159.3273
lg,1625266138266441532,0,-0.332,-0.8047,0.5796,462,-18.0664,31.8604,84.1675,92,1.5067,1.5488,11.2339,-47.7774,30,0.1941,10660,3.9699,160.6406
lg,1625266138266502865,0,-0.2778,-0.5637,1.0449,463,-5.9814,-10.7422,75.5005,92,1.4987,1.5508,13.257,-46.7383,31,0.1961,13087,3.9699,163.2066
lg,1625266138266536162,0,-0.2654,-0.697,0.7275,464,-37.2925,-114.1968,25.4517,92,1.4957,1.5508,10.9614,-47.2321,31,0.1941,8994,3.9699,167.3663
lg,1625266138266556087,0,0.1025,-0.9851,0.5603,465,-44.9219,-156.0669,26.001,92,1.4937,1.5508,6.9581,-48.6919,31,0.1951,8636,3.9699,-187.325
lg,1625266138266576032,0,0.1824,-1.0303,0.6682,466,-38.9404,-122.1924,12.6953,92,1.4927,1.5498,4.4801,-49.5504,31,0.1921,9022,3.9699,-184.3779
lg,1625266138266596847,0,0.261,-0.9363,0.7144,467,-6.3477,-57.312,13.916,92,1.4917,1.5508,2.7666,-49.7793,31,0.1911,9025,3.9699,-182.2725
lg,1625266138266614791,0,0.2654,-0.853,0.6042,468,-0.3052,-2.8687,4.0283,92,1.4917,1.5508,2.1515,-49.9608,31,0.1931,9575,3.9699,-182.0902
lg,1625266138266635458,0,0.1025,-0.9636,0.5537,469,4.6997,54.9927,4.4556,92,1.4927,1.5518,3.3972,-50.2376,31,0.1931,8621,3.9699,-183.6838
lg,1625266138266677791,0,-0.0864,-0.8901,0.5498,470,16.0522,85.4492,-0.061,92,1.4927,1.5518,5.6229,-50.1112,31,0.1961,8650,3.9699,-186.3414
lg,1625266138266699939,0,-0.1753,-0.8201,0.5828,471,16.1133,73.9136,2.7466,92,1.4947,1.5528,7.7627,-49.8904,31,0.1971,9048,3.9699,171.4291
lg,1625266138266721828,0,-0.1799,-0.8228,0.5735,472,11.1694,56.2134,2.9297,92,1.4987,1.5538,9.3862,-49.8872,31,0.1971,8709,3.9699,169.7363
lg,1625266138266738939,0,-0.1404,-0.8704,0.5554,473,7.019,17.1509,3.7842,92,1.5017,1.5538,9.8764,-49.9689,31,0.1981,9125,3.9699,169.2535
lg,1625266138266757550,0,0.0305,-0.8972,0.595,474,9.1553,-6.5308,2.3804,92,1.5057,1.5538,9.3295,-49.808,31,0.1991,8789,3.9699,169.4738
lg,1625266138266778162,0,0.1782,-0.8901,0.5886,475,16.5405,-10.7422,-15.3198,92,1.5077,1.5518,7.855,-49.4128,31,0.2001,8790,3.9699,169.3592
lg,1625266138266794754,0,0.1763,-0.9795,0.5591,476,16.1133,6.5308,-33.2031,92,1.5067,1.5478,6.3673,-49.3182,31,0.2021,9198,3.9699,168.2306
lg,1625266138266811791,0,0.187,-0.9929,0.5269,477,22.3999,17.8833,-38.208,92,1.5037,1.5448,5.0626,-49.0642,31,0.1991,8517,3.9699,166.6274
lg,1625266138266830606,0,0.1885,-0.8062,0.3801,478,45.9595,39.4897,-25.2686,92,1.5017,1.5428,4.6883,-47.9818,31,0.1991,8883,3.9699,164.7066
lg,1625266138266848013,0,0.1553,-0.6548,0.5483,479,26.7334,99.8535,19.043,92,1.5027,1.5438,7.3379,-47.2425,31,0.2051,9202,3.9699,162.2383
lg,1625266138266866847,0,-0.1951,-0.8638,0.7986,480,-0.3052,138.0005,42.3584,92,1.5057,1.5458,12.369,-47.7518,31,0.2011,11264,3.9699,159.2614
lg,1625266138641196828,0,-0.6602,-0.5847,0.8438,481,-7.7515,-10.2539,66.2231,92,1.4917,1.5488,14.8385,-47.099,31,0.1861,27045,3.9699,161.5158
lg,1625266138641253124,0,-0.1853,-0.9268,0.8223,482,-58.2275,-170.8984,31.4941,92,1.4907,1.5488,10.9371,-48.1138,31,0.1851,10408,3.9699,167.5578
lg,1625266138641273661,0,0.0371,-1.0039,0.6965,483,-53.5278,-181.9458,32.2876,92,1.4907,1.5488,6.0481,-49.3169,31,0.1851,7928,3.9699,-186.8329
lg,1625266138641293217,0,0.1707,-0.959,0.4678,484,-11.7798,-61.3403,5.3101,92,1.4897,1.5488,4.0474,-50.1674,31,0.1841,8064,3.9699,-184.8688
lg,1625266138641312069,0,0.1038,-0.8613,0.5254,485,3.2349,-13.0005,15.3809,92,1.4897,1.5488,3.7992,-50.3051,31,0.1861,7941,3.9699,-184.0975
lg,1625266138641330235,0,-0.051,-0.7629,0.5498,486,5.4321,18.0054,19.2261,92,1.4897,1.5498,4.8193,-50.2366,31,0.1861,7954,3.9699,-184.1724
lg,1625266138641348717,0,-0.042,-0.8467,0.5774,487,0.6104,5.5542,28.6865,92,1.4907,1.5498,5.7438,-50.3658,31,0.1881,10067,3.9699,-183.6283
lg,1625266138641366865,0,0.0791,-0.8938,0.562,488,2.8076,-6.2256,26.3062,92,1.4927,1.5508,6.0011,-50.4498,31,0.1901,9100,3.9699,-182.7924
lg,1625266138641416235,0,0.1418,-0.9048,0.5654,489,6.2256,-2.1362,24.7803,92,1.4967,1.5518,6.1777,-50.4131,31,0.1921,8216,3.9699,-182.1247
lg,1625266138641437754,0,0.1343,-0.9075,0.5259,490,13.855,19.2871,16.4185,92,1.5017,1.5518,6.6447,-50.2428,31,0.1941,8034,3.9699,-182.3446
lg,1625266138641455550,0,0.2,-0.8301,0.6758,491,24.4751,30.0293,7.2021,92,1.5037,1.5508,6.9607,-49.3664,31,0.1951,8057,3.9699,-183.0923
lg,1625266138641473254,0,0.1885,-0.8308,0.645,492,24.353,34.9121,-1.5259,92,1.5057,1.5508,7.1554,-48.6299,31,0.1971,8078,3.9699,-184.2151
lg,1625266138641491532,0,-0.0034,-0.9507,0.5493,493,3.1738,47.6685,6.4087,92,1.5067,1.5518,8.322,-49.1158,31,0.1981,8119,3.9699,-185.5529
lg,1625266138641508809,0,-0.1265,-0.7729,0.6316,494,-0.4883,56.1523,33.2031,92,1.5047,1.5518,10.7383,-49.3286,31,0.1971,8141,3.9699,-186.4121
lg,1625266138641526884,0,-0.167,-0.6482,0.6755,495,5.4932,56.8848,37.2314,92,1.5017,1.5528,13.3158,-49.0375,31,0.1991,8104,3.9699,-187.1411
lg,1625266138641545809,0,-0.3982,-0.6873,0.6719,496,6.5918,52.3071,18.1274,92,1.5007,1.5538,15.5864,-48.9187,31,0.1981,8140,3.9699,-188.2512
lg,1625266138641564198,0,-0.3984,-0.8003,0.7671,497,-14.9536,-21.4844,21.8506,92,1.4957,1.5538,15.8476,-49.0544,31,0.1991,10632,3.9699,-186.9498
lg,1625266138641581939,0,-0.2183,-0.8174,0.7004,498,-19.043,-58.7158,17.0288,92,1.4967,1.5528,14.6584,-49.2097,31,0.2011,8212,3.9699,-184.6448
lg,1625266138641600217,0,-0.1743,-0.8687,0.6387,499,-19.2871,-54.9927,21.7285,92,1.4967,1.5528,13.5587,-49.5544,31,0.1991,8254,3.9699,-182.3725
lg,1625266138641617513,0,-0.134,-0.8718,0.6912,500,-9.5215,-36.438,15.9302,92,1.4967,1.5528,12.8378,-49.6473,31,0.1981,8304,3.9699,-180.8239
lg,1625266138641634661,0,-0.012,-0.8264,0.6934,501,-9.7656,-42.7246,4.3945,92,1.4997,1.5538,11.3907,-49.7351,31,0.1991,8268,3.9699,-179.3735
lg,1625266138641651884,0,0.0896,-0.8835,0.6638,502,-13.7329,-49.0723,-9.3994,92,1.5027,1.5548,9.022,-50.2484,31,0.1971,8299,3.9699,-178.5061
lg,1625266138641669217,0,0.1172,-0.9163,0.6162,503,-9.0332,-36.2549,-31.311,92,1.5057,1.5518,6.5498,-50.7845,31,0.1971,8302,3.9699,-178.2088
lg,1625266138641686828,0,0.061,-0.9517,0.551,504,-2.6855,-18.4326,-49.1333,92,1.5077,1.5528,4.1812,-51.3045,31,0.1961,8331,3.9699,-178.9081
lg,1625266138641703828,0,0.042,-0.8989,0.4138,505,8.4229,-17.1509,-55.7251,92,1.5087,1.5518,1.7589,-51.5495,31,0.1991,8405,3.9699,-179.7963
lg,1625266138641720902,0,0.0168,-0.8394,0.4236,506,10.1318,-18.0664,-52.3682,92,1.5107,1.5508,-0.4352,-51.6017,31,0.2011,8427,3.9699,-180.5405
lg,1625266138641738106,0,-0.1187,-0.8286,0.3579,507,-2.0752,-0.1221,-9.1553,92,1.5097,1.5528,-0.4134,-52.2564,31,0.2061,8359,3.9699,-180.7582
lg,1625266138641754717,0,-0.2446,-0.7954,0.4634,508,-20.6299,0.1831,59.5703,92,1.5077,1.5538,2.0845,-53.3346,31,0.2001,8374,3.9699,-179.3308
lg,1625266138641786013,0,-0.2556,-0.7571,0.5554,509,-19.104,-14.0381,77.8809,92,1.5017,1.5548,4.9164,-53.3212,31,0.1961,8414,3.9699,-176.9472
lg,1625266138641805884,0,-0.1245,-0.6001,1.1226,510,-1.6479,-38.6963,60.6079,92,1.4987,1.5508,5.9559,-52.152,31,0.1971,8444,3.9699,-174.1536
lg,1625266138641822809,0,-0.0071,-0.8608,0.7056,511,-54.1382,-159.729,10.498,92,1.4967,1.5528,2.2525,-53.8565,31,0.1951,8461,3.9699,-168.7721
lg,1625266138641850106,0,0.3259,-1.0349,0.4094,512,-35.4004,-152.4658,5.9204,92,1.4947,1.5518,-1.7613,-55.784,31,0.1931,9235,3.9699,-163.6601
lg,1625266138999155550,0,0.1694,-0.7458,0.5784,513,16.8457,4.0283,24.7192,92,1.4937,1.5508,-0.91,-55.266,30,0.1931,26041,3.9699,-163.3693
lg,1625266138999196735,0,0.1355,-0.9509,0.5574,514,7.1411,28.9917,31.0059,92,1.4957,1.5508,0.5662,-54.858,30,0.1961,14008,3.9699,-163.8763
lg,1625266138999217420,0,0.0942,-0.8804,0.5796,515,17.8223,44.3726,19.4092,92,1.4967,1.5528,1.995,-54.2268,31,0.1971,11137,3.9699,-164.8788
lg,1625266138999236976,0,0.092,-0.8772,0.5859,516,16.4795,43.2129,16.9067,92,1.4997,1.5538,3.329,-53.7488,31,0.1981,7978,3.9699,-165.8909
lg,1625266138999255624,0,0.082,-0.9109,0.5544,517,19.3481,40.8936,14.5874,92,1.5027,1.5538,4.458,-53.2253,31,0.2011,8058,3.9699,-166.8774
lg,1625266138999273569,0,0.2029,-0.8618,0.6897,518,28.2593,40.3442,5.9814,92,1.5067,1.5528,5.036,-52.1062,31,0.2021,8030,3.9699,-168.023
lg,1625266138999292161,0,0.2456,-0.8318,0.6338,519,31.0669,45.5933,-5.3711,92,1.5077,1.5508,5.3265,-51.1547,31,0.2021,8002,3.9699,-169.6154
lg,1625266138999310272,0,0.1616,-0.8828,0.5684,520,33.02,78.7964,-13.4888,92,1.5067,1.5478,6.3377,-50.349,31,0.2051,8241,3.9699,-172.4422
lg,1625266138999329346,0,0.0503,-0.8186,0.6399,521,38.4521,120.0562,-11.8408,92,1.5047,1.5448,8.6897,-49.3934,31,0.2041,8054,3.9699,-176.4682
lg,1625266138999347254,0,-0.1204,-0.7725,0.698,522,37.9028,138.2446,-9.5215,92,1.5027,1.5418,12.3991,-48.7798,31,0.2031,8076,3.9699,-181.0315
lg,1625266138999365328,0,-0.2371,-0.7612,0.6897,523,28.7476,144.165,9.7046,92,1.5017,1.5408,16.4898,-48.6338,31,0.2071,8089,3.9699,-185.2375
lg,1625266138999382828,0,-0.4131,-0.9177,0.8491,524,-2.1362,101.0132,40.2832,92,1.5047,1.5438,20.4039,-49.3162,31,0.2091,8096,3.9699,-187.3271
lg,1625266138999400420,0,-0.448,-0.7615,0.6948,525,-8.1787,69.1528,53.3447,92,1.5067,1.5468,23.356,-49.6912,31,0.1991,8179,3.9699,-186.9317
lg,1625266138999445754,0,-0.4741,-0.7034,0.74,526,-17.8223,18.9209,59.5093,92,1.5047,1.5488,25.7152,-49.7067,31,0.1921,8159,3.9699,-185.7783
lg,1625266138999481254,0,-0.3313,-0.6206,1.1521,527,-22.7051,-45.2881,43.457,92,1.5007,1.5498,25.4551,-48.5087,31,0.1931,8239,3.9699,-182.6075
lg,1625266138999517365,0,-0.2434,-0.7795,0.5461,528,-16.4795,-113.7085,3.1738,92,1.4987,1.5498,20.2814,-48.8132,31,0.1921,8268,3.9699,-178.4397
lg,1625266138999538457,0,0.0156,-0.9099,0.4714,529,-45.7764,-162.4756,-28.7476,92,1.4967,1.5478,14.4095,-49.8872,31,0.1911,11969,3.9699,-174.2394
lg,1625266138999567309,0,-0.1602,-0.9143,0.2327,530,-28.9917,-90.271,-59.8755,92,1.4957,1.5478,10.1513,-51.7494,30,0.1911,8326,3.9699,-173.1587
lg,1625266138999591680,0,-0.3689,-0.8862,0.2188,531,-8.2397,-38.8794,-41.5649,92,1.4947,1.5478,8.3885,-52.9139,30,0.1911,8319,3.9699,-173.0929
lg,1625266138999618531,0,-0.4753,-0.7219,0.4758,532,21.8506,-6.4697,14.5264,92,1.4937,1.5488,9.4822,-52.071,30,0.1911,8550,3.9699,-172.5372
lg,1625266138999642106,0,-0.2627,-0.5945,0.5469,533,1.8921,-94.6655,33.0811,92,1.4947,1.5508,8.5199,-51.203,30,0.1931,8520,3.9699,-168.6621
lg,1625266138999666513,0,0.1252,-0.865,0.564,534,-29.4189,-152.8931,43.8843,92,1.4967,1.5528,5.5102,-51.8659,31,0.1931,10375,3.9699,-162.7681
lg,1625266138999684624,0,0.4707,-1.0684,0.5317,535,-29.7241,-155.3955,43.0908,92,1.4987,1.5528,2.0244,-52.8434,31,0.1941,8448,3.9699,-157.1423
lg,1625266138999710291,0,0.5911,-1.0693,0.5613,536,-13.3057,-123.0469,27.8931,92,1.4997,1.5518,-1.0744,-53.6607,31,0.1951,8672,3.9699,-152.5364
lg,1625266138999730013,0,0.6282,-0.9771,0.5835,537,4.5776,-37.8418,18.5547,92,1.5037,1.5538,-2.4259,-53.7085,31,0.1981,8504,3.9699,-150.8749
lg,1625266138999771180,0,0.4758,-0.9497,0.6257,538,16.1133,26.6724,16.1743,83,1.5067,1.5538,-2.0616,-53.1416,31,0.2011,8457,3.9776,-151.3517
lg,1625266138999790828,0,0.4111,-0.8748,0.6487,539,21.7285,50.0488,12.5732,83,1.5097,1.5518,-0.7664,-52.0936,31,0.2031,8560,3.9776,-153.3365
lg,1625266138999809272,0,0.2432,-0.8635,0.6643,540,23.1934,84.9609,6.4697,83,1.5117,1.5478,1.0663,-51.1755,31,0.2071,8490,3.9776,-155.8508
lg,1625266138999826365,0,0.0825,-0.9092,0.6545,541,23.1323,104.8584,10.9863,83,1.5117,1.5468,3.8285,-50.4892,31,0.2071,8538,3.9776,-158.838
lg,1625266138999844735,0,0.0227,-0.8616,0.6838,542,22.8271,107.7271,20.813,83,1.5107,1.5448,7.0084,-49.8727,31,0.2091,8611,3.9776,-161.638
lg,1625266138999863013,0,-0.0264,-0.845,0.627,543,18.7988,102.2339,30.0903,83,1.5117,1.5448,10.53,-49.9245,31,0.2131,8661,3.9776,-163.4411
lg,1625266138999880643,0,0.01,-0.9268,0.7427,544,-0.1221,82.0312,57.5562,83,1.5137,1.5468,13.9486,-50.1983,31,0.2131,8684,3.9776,-164.5214
lg,1625266139357661679,0,-0.3096,-0.7554,0.5825,545,4.0894,88.3789,49.5605,83,1.5117,1.5498,17.8677,-50.5237,31,0.2011,27168,3.9776,-166.0649
lg,1625266139357699883,0,-0.3005,-0.814,0.6167,546,-6.6528,12.9395,48.5229,83,1.5087,1.5508,19.629,-50.587,31,0.2001,15841,3.9776,-165.215
lg,1625266139357719920,0,-0.1506,-0.7922,0.5354,547,-1.5869,-17.334,34.4238,83,1.5077,1.5508,19.8303,-50.3541,31,0.1981,7913,3.9776,-163.7902
lg,1625266139357759754,0,-0.2085,-0.8464,0.46,548,-2.9297,-21.8506,25.6348,83,1.5067,1.5508,19.8233,-50.2737,31,0.1971,7888,3.9776,-162.5124
lg,1625266139357778754,0,-0.0986,-0.8462,0.6208,549,2.6245,-23.8647,24.231,83,1.5057,1.5508,19.387,-49.8195,31,0.1971,7881,3.9776,-161.1239
lg,1625266139357797754,0,-0.0498,-0.8062,0.6299,550,1.0376,-31.6162,7.3242,83,1.5047,1.5508,18.1449,-49.4655,31,0.1961,8128,3.9776,-159.9338
lg,1625266139357816568,0,-0.0801,-0.8665,0.7163,551,3.0518,-25.2686,3.2959,83,1.5047,1.5518,17.0341,-49.1015,31,0.1971,7947,3.9776,-159.0499
lg,1625266139357834476,0,-0.0134,-0.8022,0.6001,552,7.4463,-32.6538,-6.7139,83,1.5057,1.5518,15.3424,-48.7274,31,0.1971,8133,3.9776,-158.2557
lg,1625266139357852624,0,-0.0159,-0.7798,0.5405,553,8.4839,-26.3672,-10.1929,83,1.5047,1.5518,13.7811,-48.5094,31,0.1981,8010,3.9776,-157.7845
lg,1625266139357870402,0,-0.2004,-0.77,0.4636,554,10.3149,17.7002,-7.3853,83,1.5057,1.5528,13.9823,-48.6801,31,0.1991,8047,3.9776,-158.6302
lg,1625266139357887846,0,-0.3845,-0.748,0.5596,555,18.2495,33.6914,16.1743,83,1.5057,1.5528,15.683,-48.2648,31,0.1991,8065,3.9776,-159.2708
lg,1625266139357904716,0,-0.3777,-0.7051,0.6628,556,17.7002,18.0664,26.9775,83,1.5057,1.5528,16.4593,-47.2683,31,0.1991,8257,3.9776,-157.9138
lg,1625266139357921179,0,-0.1699,-0.7368,0.7502,557,0.4272,-41.4429,34.9731,83,1.5067,1.5528,16.0624,-46.4938,31,0.1991,8118,3.9776,-155.6236
lg,1625266139357948235,0,0.0598,-0.9343,0.7039,558,-10.9253,-68.6035,33.5693,83,1.5087,1.5538,14.4175,-46.3909,31,0.1991,8064,3.9776,-152.675
lg,1625266139357966661,0,0.1152,-0.9885,0.696,559,-10.0098,-56.7627,31.0059,83,1.5107,1.5538,13.168,-46.4583,31,0.2001,8127,3.9776,-151.0245
lg,1625266139357983957,0,0.165,-0.8975,0.6785,560,5.6152,-18.8599,15.3809,83,1.5117,1.5538,12.2633,-46.2638,31,0.2011,8127,3.9776,-150.0898
lg,1625266139358001383,0,0.0918,-0.8442,0.6592,561,10.437,12.5732,5.7373,83,1.5127,1.5528,12.1044,-46.1131,31,0.2051,8187,3.9776,-150.3498
lg,1625266139358019402,0,0.0002,-0.8867,0.627,562,6.1646,20.4468,6.7749,83,1.5147,1.5538,12.7049,-46.5011,31,0.2061,8217,3.9776,-150.5234
lg,1625266139358036383,0,-0.0955,-0.9468,0.634,563,-5.7373,8.667,20.752,83,1.5117,1.5538,13.236,-47.0369,30,0.2001,8242,3.9776,-150.2848
lg,1625266139358053365,0,0.0249,-0.6667,0.9175,564,-9.8267,-2.5024,26.9165,83,1.5097,1.5548,13.3919,-46.7799,30,0.2001,8332,3.9776,-149.3525
lg,1625266139358070605,0,-0.3586,-0.864,0.6604,565,2.9297,-17.6392,5.3711,83,1.5057,1.5528,13.5339,-47.8046,30,0.1981,8268,3.9776,-149.1812
lg,1625266139358087661,0,-0.2822,-0.895,0.7661,566,-23.3154,-27.2827,15.8691,83,1.5027,1.5488,13.2772,-48.4929,30,0.1981,8260,3.9776,-147.9218
lg,1625266139358105735,0,-0.2495,-0.7961,0.5483,567,-11.4746,-51.0254,-5.9204,83,1.5027,1.5498,11.809,-48.9049,31,0.1971,8315,3.9776,-146.5675
lg,1625266139358122679,0,-0.3657,-0.7566,0.5444,568,-3.7231,-36.9873,9.7656,83,1.5017,1.5498,11.5153,-48.9598,31,0.1981,8342,3.9776,-145.203
lg,1625266139358139531,0,-0.2871,-0.7751,0.6311,569,-6.2256,-48.8892,14.8315,83,1.5007,1.5498,10.8618,-48.9007,31,0.1981,8392,3.9776,-143.3124
lg,1625266139358156494,0,0.137,-0.8501,0.7014,570,-12.085,-96.9849,19.043,83,1.5017,1.5508,8.1986,-48.8589,31,0.1991,8925,3.9776,-139.8494
lg,1625266139358172957,0,0.334,-0.9817,0.613,571,-13.4888,-61.2793,3.2349,83,1.5017,1.5518,5.7733,-49.498,31,0.1991,8437,3.9776,-137.9379
lg,1625266139358189698,0,0.2263,-0.9495,0.6138,572,5.249,12.146,-12.7563,83,1.5057,1.5538,5.0319,-49.6406,31,0.1991,8662,3.9776,-138.6714
lg,1625266139358206661,0,0.0361,-0.8857,0.6021,573,10.1929,35.8276,-18.7378,83,1.5077,1.5528,5.3292,-49.6377,31,0.1991,8472,3.9776,-140.6925
lg,1625266139358223624,0,0.009,-0.8538,0.6287,574,12.6343,50.9033,-21.5454,83,1.5107,1.5528,5.7553,-49.4858,31,0.2011,8576,3.9776,-142.8274
lg,1625266139358240013,0,0.071,-0.8508,0.616,575,17.334,38.3911,-26.9165,83,1.5117,1.5528,5.5543,-49.1508,31,0.2031,8633,3.9776,-144.7227
lg,1625266139358256754,0,0.0557,-0.8489,0.5044,576,14.5264,30.7007,-38.9404,83,1.5107,1.5498,4.8317,-49.1372,31,0.2051,8561,3.9776,-146.7162
lg,1625266139725946790,0,0.0022,-0.7798,0.4734,577,22.3999,56.3354,-7.6294,83,1.5057,1.5438,6.861,-49.2601,31,0.2101,25388,3.9776,-148.4326
lg,1625266139726015957,0,-0.3113,-0.8406,0.6096,578,-10.1929,54.1992,54.6875,83,1.5097,1.5478,10.5129,-49.8496,31,0.2001,15622,3.9776,-147.7901
lg,1625266139726039401,0,-0.3684,-0.7627,0.6184,579,-16.2354,24.4751,85.144,83,1.5077,1.5498,14.1371,-50.2138,31,0.1931,7997,3.9776,-146.3341
lg,1625266139726059124,0,-0.2712,-0.6091,1.0459,580,-11.4746,-27.5269,78.9795,83,1.5047,1.5508,15.8024,-49.1035,31,0.1931,7931,3.9776,-143.1579
lg,1625266139726091142,0,-0.2368,-0.7556,0.5195,581,-6.4087,-91.8579,41.1377,83,1.5027,1.5518,12.8098,-49.6108,31,0.1901,8403,3.9776,-138.4996
lg,1625266139726110476,0,-0.0408,-0.9573,0.7214,582,-54.3823,-153.0762,35.0342,83,1.5007,1.5518,9.5638,-50.7962,31,0.1891,7940,3.9776,-132.8135
lg,1625266139726128753,0,0.1714,-0.9526,0.5098,583,-22.4609,-129.7607,7.9346,83,1.4997,1.5518,5.8602,-51.5395,31,0.1861,9270,3.9776,-128.5965
lg,1625266139726147587,0,0.0906,-0.8687,0.627,584,4.8218,-38.6963,13.2446,83,1.4977,1.5518,4.8925,-51.2952,31,0.1871,9390,3.9776,-127.0595
lg,1625266139726166124,0,0.0342,-0.7744,0.6614,585,8.728,-7.6294,10.8643,83,1.4987,1.5528,4.7693,-50.8204,31,0.1861,8818,3.9776,-126.5423
lg,1625266139726184624,0,0.0571,-0.8308,0.655,586,5.6152,-6.1646,12.6953,83,1.4987,1.5528,4.695,-50.5788,31,0.1871,8067,3.9776,-126.0323
lg,1625266139726202679,0,0.1021,-0.8965,0.6169,587,5.7373,10.0098,12.9395,83,1.4997,1.5538,5.2329,-50.4085,30,0.1901,11226,3.9776,-126.5128
lg,1625266139726220364,0,0.0864,-0.8601,0.6272,588,13.1226,30.9448,7.9956,83,1.5007,1.5508,5.8746,-50.0846,30,0.1911,8193,3.9776,-127.28
lg,1625266139726238346,0,0.021,-0.8445,0.6145,589,13.4888,38.8794,3.6621,83,1.5037,1.5538,6.7023,-49.8099,30,0.1921,8478,3.9776,-128.4018
lg,1625266139726255772,0,-0.0291,-0.8542,0.5952,590,13.2446,36.0718,1.77,83,1.5057,1.5548,7.4808,-49.6134,30,0.1941,8893,3.9776,-129.4918
lg,1625266139726274364,0,-0.0415,-0.8503,0.5613,591,14.2822,31.7383,2.3193,83,1.5087,1.5538,8.1173,-49.3168,31,0.1941,8579,3.9776,-130.3173
lg,1625266139726293272,0,-0.0347,-0.8188,0.5796,592,18.1885,24.231,2.6245,83,1.5117,1.5518,8.5842,-48.8924,31,0.1961,8931,3.9776,-131.0208
lg,1625266139726311272,0,0.0452,-0.8184,0.6321,593,24.0479,17.7002,0.7324,83,1.5127,1.5498,8.6345,-48.1363,31,0.2001,8247,3.9776,-131.5618
lg,1625266139726329087,0,0.0906,-0.8818,0.6575,594,19.043,18.4937,-13.7329,83,1.5097,1.5458,8.1953,-47.7071,31,0.2001,8242,3.9776,-132.522
lg,1625266139726347290,0,0.1216,-0.9443,0.6567,595,18.7378,21.8506,-18.1885,83,1.5037,1.5398,7.6884,-47.404,31,0.1991,8310,3.9776,-133.713
lg,1625266139726365457,0,0.1401,-0.8191,0.437,596,37.1704,50.9033,-5.7373,83,1.5017,1.5347,8.2712,-46.7105,31,0.1991,13466,3.9776,-135.4597
lg,1625266139726382938,0,0.0486,-0.759,0.5342,597,21.1182,82.4585,33.6914,83,1.5027,1.5368,11.0596,-46.4339,31,0.2011,8360,3.9776,-137.0055
lg,1625266139726422364,0,-0.2432,-0.7983,0.658,598,-2.6855,96.9849,70.5566,83,1.5057,1.5398,15.8369,-46.9029,31,0.1891,8724,3.9776,-137.9564
lg,1625266139726443679,0,-0.365,-0.729,0.509,599,-5.6152,88.6841,91.4307,83,1.5057,1.5428,21.1648,-47.4693,31,0.1791,8359,3.9776,-138.1776
lg,1625266139726470846,0,-0.582,-0.6152,0.6626,600,2.6855,61.2793,99.9146,83,1.4997,1.5438,26.196,-46.7762,31,0.1791,9907,3.9776,-137.1143
lg,1625266139726490476,0,-0.4524,-0.4888,1.0564,601,-0.1831,-32.4707,79.2236,83,1.4957,1.5448,27.41,-44.2944,31,0.1761,9194,3.9776,-133.195
lg,1625266139726509161,0,-0.3201,-0.9011,0.9653,602,-50.5981,-145.3247,61.5234,83,1.4937,1.5448,24.4031,-43.4266,31,0.1741,8831,3.9776,-126.7154
lg,1625266139726527531,0,0.1929,-0.979,0.7593,603,-34.5459,-181.8237,34.668,83,1.4917,1.5438,18.8421,-42.7943,31,0.1701,8850,3.9776,-120.4372
lg,1625266139726560050,0,0.3137,-1.0229,0.6675,604,-16.6016,-92.9565,24.1699,83,1.4927,1.5448,15.5653,-42.9998,31,0.1691,9252,3.9776,-117.2219
lg,1625266139726581309,0,0.2061,-0.8865,0.5164,605,10.1318,-2.0142,1.0376,83,1.4937,1.5448,14.5291,-43.229,30,0.1711,10104,3.9776,-117.3112
lg,1625266139726599142,0,-0.0642,-0.7844,0.5439,606,24.7192,67.0776,-8.3618,83,1.4937,1.5468,15.8311,-43.2871,30,0.1721,10310,3.9776,-119.5949
lg,1625266139726618383,0,-0.1912,-0.7817,0.6157,607,25.0244,80.2612,-15.1978,83,1.4957,1.5468,17.5415,-43.4154,30,0.1741,8464,3.9776,-122.4537
lg,1625266139726636994,0,-0.262,-0.8135,0.6946,608,19.4092,40.4053,-25.2075,83,1.5007,1.5468,17.8652,-43.4651,30,0.1751,9276,3.9776,-124.4621
lg,1625266140105190309,0,0.0254,-0.8323,0.6582,609,3.3569,-39.6729,-27.9541,83,1.5107,1.5468,15.0962,-43.713,31,0.1831,25633,3.9776,-124.305
lg,1625266140105222290,0,0.1089,-0.877,0.4993,610,12.0239,-38.4521,-43.7012,83,1.5097,1.5458,11.9831,-43.9348,31,0.1861,8774,3.9776,-124.673
lg,1625266140105242531,0,0.0784,-0.865,0.4683,611,14.6484,-24.9023,-44.2505,83,1.5107,1.5458,9.5043,-44.1661,31,0.1871,7868,3.9776,-125.4061
lg,1625266140105261975,0,0.0676,-0.8076,0.5068,612,8.667,6.897,5.0049,83,1.5117,1.5468,9.3166,-44.3628,31,0.1911,7885,3.9776,-125.546
lg,1625266140105280642,0,-0.0698,-0.7437,0.511,613,5.249,33.4473,38.7573,83,1.5137,1.5488,11.1614,-44.5569,31,0.1861,8804,3.9776,-125.4498
lg,1625266140105298383,0,-0.3057,-0.7888,0.6726,614,12.6343,44.0063,61.4014,83,1.5127,1.5508,14.3343,-44.1167,30,0.1841,9730,3.9776,-124.9521
lg,1625266140105316049,0,-0.4097,-0.7395,0.7126,615,9.8877,23.9868,60.6079,83,1.5107,1.5518,15.3383,-43.0563,30,0.1841,8470,3.9776,-122.6655
lg,1625266140105333568,0,-0.1941,-0.7251,0.5623,616,-6.6528,-98.999,24.5361,83,1.5067,1.5518,12.9935,-42.8126,30,0.1841,13312,3.9776,-119.2329
lg,1625266140105351142,0,0.1023,-0.8801,0.5916,617,-15.686,-118.8965,30.1514,83,1.5057,1.5518,9.6455,-43.1314,30,0.1841,8025,3.9776,-115.141
lg,1625266140105368605,0,0.2087,-0.8892,0.5366,618,-9.1553,-111.3892,19.8975,83,1.5047,1.5508,6.1689,-43.5915,31,0.1841,8035,3.9776,-111.5647
lg,1625266140105385753,0,0.2258,-0.832,0.4688,619,12.6953,-32.5317,16.4795,83,1.5037,1.5498,4.9391,-43.5907,31,0.1831,8032,3.9776,-110.2535
lg,1625266140105402883,0,0.0083,-0.7302,0.4836,620,35.8887,40.5884,15.3198,83,1.5027,1.5498,6.3227,-42.7233,31,0.1821,8250,3.9776,-110.9693
lg,1625266140105420105,0,-0.1245,-0.679,0.5012,621,42.3584,64.0869,14.6484,83,1.5037,1.5498,8.8659,-41.5302,31,0.1811,8634,3.9776,-112.3034
lg,1625266140105437327,0,-0.2236,-0.7258,0.606,622,37.7197,41.3818,24.4141,83,1.5037,1.5508,10.9259,-40.4112,31,0.1821,11303,3.9776,-112.7093
lg,1625266140105454642,0,-0.1538,-0.7715,0.6685,623,35.2783,21.4233,26.7334,83,1.5047,1.5508,12.1743,-39.2844,31,0.1821,8135,3.9776,-112.5001
lg,1625266140105471272,0,0.0271,-0.8062,0.6401,624,36.499,1.6479,28.4424,83,1.5057,1.5518,12.4086,-38.129,31,0.1821,8217,3.9776,-111.7448
lg,1625266140105509809,0,0.1416,-0.8123,0.605,625,42.4805,5.9204,19.8364,83,1.5067,1.5528,12.3042,-36.9243,31,0.1821,8239,3.9776,-111.3885
lg,1625266140105527827,0,0.1536,-0.7979,0.5718,626,46.2036,16.8457,13.9771,83,1.5077,1.5528,12.3764,-35.7514,31,0.1831,8250,3.9776,-111.4941
lg,1625266140105544660,0,0.1035,-0.7881,0.5691,627,54.5654,37.5366,2.9907,83,1.5087,1.5528,12.9734,-34.4711,31,0.1831,8287,3.9776,-112.447
lg,1625266140105561679,0,0.0222,-0.7617,0.5374,628,61.5234,52.4902,-3.0518,83,1.5107,1.5528,14.1102,-33.1281,31,0.1851,8278,3.9776,-113.9455
lg,1625266140105578364,0,-0.0017,-0.7478,0.5632,629,64.9414,60.0586,-4.9438,83,1.5117,1.5528,15.5698,-31.7508,31,0.1861,8345,3.9776,-115.6643
lg,1625266140105595512,0,-0.0701,-0.7371,0.5359,630,70.8618,71.4111,-7.4463,83,1.5127,1.5538,17.456,-30.325,31,0.1881,8326,3.9776,-117.7166
lg,1625266140105612068,0,-0.1379,-0.6985,0.519,631,79.3457,75.9277,-5.6152,83,1.5147,1.5538,19.6958,-28.65,31,0.1891,8367,3.9776,-119.7875
lg,1625266140105628549,0,-0.1865,-0.686,0.5486,632,82.7637,72.876,-2.2583,83,1.5157,1.5538,21.8512,-26.6123,31,0.1891,8360,3.9776,-121.4577
lg,1625266140105644790,0,-0.1812,-0.6736,0.5569,633,87.9517,62.0117,0.6714,83,1.5157,1.5538,23.7606,-24.5157,31,0.1901,8453,3.9776,-122.9668
lg,1625266140105661457,0,-0.1904,-0.665,0.6082,634,90.4541,39.6118,4.4556,83,1.5157,1.5538,24.887,-22.0717,31,0.1901,8488,3.9776,-123.8728
lg,1625266140105678790,0,-0.1985,-0.6602,0.645,635,91.6748,8.7891,2.8687,83,1.5167,1.5548,24.8348,-19.404,31,0.1921,8459,3.9776,-124.3172
lg,1625266140105695864,0,-0.1877,-0.6396,0.6538,636,93.0786,-4.5776,3.2959,83,1.5167,1.5538,23.8269,-16.4977,31,0.1911,8441,3.9776,-124.3925
lg,1625266140105712642,0,-0.1602,-0.6199,0.6885,637,96.0693,-21.4233,4.7607,83,1.5157,1.5538,22.5954,-13.5437,31,0.1911,8513,3.9776,-124.3889
lg,1625266140105729272,0,-0.1318,-0.5955,0.6917,638,98.8159,-26.7944,9.8267,83,1.5167,1.5538,21.1709,-10.4695,31,0.1911,8478,3.9776,-124.1752
lg,1625266140105745994,0,-0.0859,-0.6235,0.7278,639,98.877,-26.2451,18.2495,83,1.5167,1.5528,19.742,-7.4109,31,0.1911,8808,3.9776,-123.6859
lg,1625266140105774272,0,-0.0623,-0.6248,0.7556,640,98.4497,-24.1699,18.9819,83,1.5157,1.5518,18.3294,-4.4877,31,0.1921,8910,3.9776,-123.2501
lg,1625266140460108994,0,-0.0452,-0.6389,0.7864,641,109.375,-50.5371,2.6245,83,1.5137,1.5508,15.8418,-1.4129,31,0.1921,26455,3.9776,-123.472
lg,1625266140460141327,0,-0.0574,-0.5469,0.7612,642,115.1733,-67.9932,-5.0049,83,1.5147,1.5518,12.7969,1.8788,31,0.1921,9581,3.9776,-124.0425
lg,1625266140460161679,0,-0.1086,-0.4287,0.8569,643,119.0186,-86.731,-5.127,83,1.5147,1.5518,9.1783,5.4456,31,0.1921,11469,3.9776,-124.7274
lg,1625266140460180882,0,-0.1221,-0.3291,0.8804,644,117.0044,-88.9893,4.0894,83,1.5157,1.5508,5.6106,9.0784,31,0.1921,7961,3.9776,-125.1797
lg,1625266140460199253,0,-0.073,-0.2871,0.9497,645,104.0039,-84.0454,19.7144,83,1.5157,1.5518,2.1431,12.2435,31,0.1931,8730,3.9776,-125.1273
lg,1625266140460227605,0,-0.0403,-0.3164,1.0137,646,95.5811,-81.1157,30.1514,83,1.5157,1.5518,-1.2681,14.9354,31,0.1921,8739,3.9776,-124.7625
lg,1625266140460245086,0,0.073,-0.4119,1.1067,647,82.7026,-81.9092,42.6636,83,1.5157,1.5518,-4.9725,16.8784,31,0.1921,8786,3.9776,-123.9943
lg,1625266140460263253,0,0.2144,-0.4944,1.0923,648,81.2378,-78.5522,43.1519,83,1.5157,1.5518,-8.7305,18.5514,31,0.1921,9203,3.9776,-123.1789
lg,1625266140460281568,0,0.2549,-0.4795,1.1091,649,83.4961,-44.1284,34.4238,88,1.5167,1.5518,-11.0594,20.2489,31,0.1921,8064,3.9754,-122.2303
lg,1625266140460299475,0,0.2039,-0.4565,1.0872,650,84.5947,-24.8413,27.71,88,1.5157,1.5518,-11.7546,21.9479,31,0.1921,8127,3.9754,-121.2007
lg,1625266140460316512,0,0.0459,-0.4387,1.1089,651,84.5947,-5.188,16.9067,88,1.5157,1.5508,-11.9605,23.6068,31,0.1911,8091,3.9754,-120.314
lg,1625266140460333753,0,-0.0659,-0.405,1.136,652,83.0688,-11.2915,12.0239,88,1.5157,1.5518,-12.1093,25.274,31,0.1921,8507,3.9754,-119.7193
lg,1625266140460351475,0,-0.0659,-0.3882,1.187,653,78.0029,-41.626,12.0239,88,1.5157,1.5518,-13.3508,26.8517,31,0.1921,8510,3.9754,-119.6845
lg,1625266140460368716,0,-0.0178,-0.4062,1.2354,654,75.4395,-59.082,7.9346,88,1.5147,1.5508,-15.1857,28.4054,31,0.1931,8195,3.9754,-120.1369
lg,1625266140460385364,0,0.1008,-0.425,1.2153,655,71.7773,-81.9702,1.4648,88,1.5157,1.5508,-17.8394,29.9776,31,0.1931,8359,3.9754,-121.2915
lg,1625266140460402345,0,0.2041,-0.4351,1.2004,656,70.9229,-85.3271,-4.9438,88,1.5157,1.5508,-20.5591,31.6548,31,0.1921,8255,3.9754,-122.7647
lg,1625266140460418790,0,0.2644,-0.4045,1.1489,657,72.5708,-81.9092,-8.1177,88,1.5157,1.5508,-23.1687,33.5319,31,0.1931,8625,3.9754,-124.3171
lg,1625266140460453105,0,0.3088,-0.3303,1.0496,658,74.4629,-67.1387,-15.686,88,1.5157,1.5508,-25.0453,35.5467,31,0.1941,9606,3.9754,-125.8155
lg,1625266140460470771,0,0.3315,-0.27,1.0193,659,77.3315,-29.6021,-19.8975,88,1.5147,1.5498,-25.5249,37.4127,31,0.1951,10773,3.9754,-126.5124
lg,1625266140460496864,0,0.2493,-0.2183,0.9976,660,73.3643,16.9067,-15.3809,88,1.5147,1.5488,-24.4933,38.5036,31,0.1951,8877,3.9754,-125.7739
lg,1625266140460513790,0,0.1113,-0.2856,1.1692,661,59.6924,47.9736,-5.5542,88,1.5127,1.5498,-22.4772,38.4858,31,0.1961,13422,3.9754,-123.84
lg,1625266140460530475,0,0.1067,-0.3247,1.3711,662,52.9785,48.4619,-2.2583,88,1.5117,1.5488,-20.613,38.175,31,0.1961,8365,3.9754,-121.9345
lg,1625266140460547123,0,0.1731,-0.3701,2.0283,663,51.1475,45.2271,-4.8828,88,1.5107,1.5478,-18.7253,38.0633,31,0.1981,8515,3.9754,-120.267
lg,1625266140460563771,0,0.1013,-0.354,1.6433,664,45.6543,-2.6245,-31.311,88,1.5097,1.5478,-17.6975,38.3904,31,0.1971,8530,3.9754,-120.774
lg,1625266140460580845,0,0.1311,-0.2805,1.1736,665,43.7012,-83.9233,-66.8945,88,1.5097,1.5468,-18.4233,39.6289,31,0.1981,8443,3.9754,-124.61
lg,1625266140460598086,0,0.1396,-0.2073,1.0215,666,44.4946,-78.3691,-61.7676,88,1.5097,1.5508,-18.7899,40.5384,31,0.1991,8805,3.9754,-126.8752
lg,1625266140460614975,0,0.1492,-0.0359,0.8762,667,36.6211,-17.9443,-16.7236,88,1.5087,1.5428,-18.7273,40.7129,31,0.2001,8841,3.9754,-127.3801
lg,1625266140460631882,0,0.1821,-0.0405,0.9167,668,1.5259,31.9214,16.4795,88,1.5097,1.5458,-18.0584,38.7168,30,0.1991,8530,3.9754,-125.4629
lg,1625266140460649105,0,0.1157,-0.2659,1.0261,669,-23.6816,38.3301,11.7188,88,1.5087,1.5448,-16.9229,35.4613,30,0.1991,8528,3.9754,-123.5105
lg,1625266140460666049,0,0.0881,-0.3235,1.0588,670,-24.9023,38.147,9.8267,88,1.5097,1.5458,-15.6217,32.5023,30,0.1991,8753,3.9754,-121.7527
lg,1625266140460682697,0,0.0178,-0.3545,1.0588,671,-7.019,28.8696,10.8032,88,1.5077,1.5418,-14.5037,30.1305,30,0.1981,8593,3.9754,-120.2576
lg,1625266140460699308,0,0.054,-0.2622,0.9907,672,9.7046,5.4321,10.498,88,1.5087,1.5448,-14.2289,28.7388,31,0.1991,8631,3.9754,-119.3547
lg,1625266140838897216,0,0.1042,-0.2195,0.9763,673,7.3853,-1.4648,3.7231,88,1.5077,1.5438,-14.1564,27.463,31,0.1991,26528,3.9754,-118.8672
lg,1625266140838936734,0,0.0637,-0.2217,1.0054,674,9.8877,-2.1362,-0.6714,88,1.5077,1.5438,-13.9927,26.5382,31,0.1991,10298,3.9754,-118.7837
lg,1625266140838957716,0,0.012,-0.1609,1.0015,675,15.4419,-14.0991,-4.8218,88,1.5077,1.5428,-13.9879,25.8913,31,0.1981,9346,3.9754,-118.8885
lg,1625266140838977530,0,0.0125,-0.064,1.0061,676,10.9253,-28.9307,2.3193,88,1.5077,1.5428,-14.6137,25.2745,31,0.1991,8040,3.9754,-119.0399
lg,1625266140838996493,0,0.0254,-0.0952,1.0613,677,-5.7373,-38.6963,12.5732,88,1.5077,1.5428,-15.7767,23.902,31,0.1981,8318,3.9754,-118.9375
lg,1625266140839018419,0,0.0808,-0.2007,1.0833,678,-11.0474,-46.814,19.8975,88,1.5077,1.5418,-17.7996,22.0295,31,0.1981,9228,3.9754,-118.5869
lg,1625266140839039086,0,0.1191,-0.2314,1.0815,679,-12.6953,-63.5986,26.1841,88,1.5087,1.5428,-20.1899,20.1609,31,0.1981,8499,3.9754,-118.1173
lg,1625266140839063938,0,0.21,-0.2607,1.0271,680,-9.0942,-70.8008,26.9165,88,1.5087,1.5418,-22.9757,18.41,31,0.1981,8027,3.9754,-117.565
lg,1625266140839095512,0,0.2683,-0.2615,0.9773,681,-5.7983,-57.4341,24.4141,88,1.5087,1.5418,-25.2598,16.7467,31,0.1981,8081,3.9754,-116.7881
lg,1625266140839117808,0,0.2871,-0.2419,0.9905,682,-6.0425,-46.0815,26.001,88,1.5127,1.5398,-27.0496,15.0251,31,0.1981,8058,3.9754,-115.7084
lg,1625266140839136012,0,0.2698,-0.2537,1.0269,683,-5.4321,-14.4043,21.4844,88,1.5087,1.5418,-27.4266,13.255,31,0.1971,12742,3.9754,-114.3854
lg,1625266140839155179,0,0.25,-0.25,1.0317,684,-4.3335,-7.1411,20.752,88,1.5097,1.5408,-27.4242,11.5675,31,0.1971,8111,3.9754,-113.0234
lg,1625266140839176456,0,0.1943,-0.2666,1.0398,685,-1.3428,-1.4038,18.7378,88,1.5097,1.5408,-27.0419,10.0416,31,0.1961,9753,3.9754,-111.7028
lg,1625266140839195753,0,0.1902,-0.2417,1.0344,686,-0.4272,-2.0142,18.3716,88,1.5097,1.5408,-26.6526,8.6783,31,0.1951,8164,3.9754,-110.4581
lg,1625266140839213660,0,0.1765,-0.2546,1.0366,687,-1.8311,-4.5166,18.3716,88,1.5097,1.5398,-26.3252,7.2993,31,0.1971,8098,3.9754,-109.2463
lg,1625266140839231401,0,0.1812,-0.2358,1.041,688,-2.3193,-4.5166,18.4326,88,1.5107,1.5408,-26.0414,5.9325,31,0.1971,8396,3.9754,-108.0147
lg,1625266140839248530,0,0.2092,-0.2598,1.0422,689,-1.709,-5.0659,19.165,88,1.5097,1.5398,-25.7739,4.6594,31,0.1961,8200,3.9754,-106.8179
lg,1625266140839265530,0,0.2234,-0.2354,1.0005,690,0.061,2.0752,17.7612,88,1.5097,1.5388,-25.25,3.5664,31,0.1961,8241,3.9754,-105.6986
lg,1625266140839283901,0,0.2034,-0.2429,1.0039,691,-0.061,6.1646,16.4795,88,1.5097,1.5388,-24.3328,2.4499,31,0.1961,8234,3.9754,-104.627
lg,1625266140839302160,0,0.1729,-0.2427,1.0247,692,-1.709,12.2681,16.4795,88,1.5107,1.5388,-23.3055,1.4195,31,0.1971,8241,3.9754,-103.6166
lg,1625266140839320345,0,0.1362,-0.2598,1.0173,693,-1.6479,13.5498,16.5405,88,1.5097,1.5378,-22.18,0.4124,31,0.1951,8344,3.9754,-102.6304
lg,1625266140839337753,0,0.1311,-0.2537,1.0273,694,-0.061,11.1694,15.0757,88,1.5107,1.5378,-21.1625,-0.426,31,0.1961,8758,3.9754,-101.7577
lg,1625266140839355512,0,0.1211,-0.2637,1.0112,695,0.9155,7.6294,15.9302,88,1.5107,1.5378,-20.2977,-1.2183,31,0.1951,8295,3.9754,-100.8696
lg,1625266140839375679,0,0.1057,-0.2607,1.0315,696,0.8545,5.5542,16.3574,88,1.5097,1.5368,-19.4993,-1.9561,31,0.1951,8318,3.9754,-99.9954
lg,1625266140839392938,0,0.0962,-0.2595,1.0281,697,-0.1221,-1.2207,14.5264,88,1.5107,1.5378,-18.9747,-2.6689,31,0.1951,8323,3.9754,-99.2112
lg,1625266140839410623,0,0.0842,-0.23,1.0156,698,-0.7324,-12.6953,15.564,88,1.5117,1.5378,-18.891,-3.3376,31,0.1951,8435,3.9754,-98.3915
lg,1625266140839427623,0,0.1042,-0.2478,1.0212,699,-0.9155,-18.0054,16.5405,88,1.5117,1.5378,-19.0968,-4.0569,31,0.1951,8447,3.9754,-97.5026
lg,1625266140839445716,0,0.1409,-0.2363,1.0154,700,-0.7935,-26.9775,18.1885,88,1.5117,1.5378,-19.6679,-4.7456,31,0.1941,8457,3.9754,-96.5245
lg,1625266140839464012,0,0.168,-0.2463,1.0239,701,-0.7324,-29.7241,19.2871,88,1.5117,1.5378,-20.3645,-5.4552,31,0.1941,8452,3.9754,-95.4727
lg,1625266140839480327,0,0.199,-0.2385,1.0164,702,0.061,-27.4048,17.0898,88,1.5107,1.5368,-21.0062,-6.0704,31,0.1941,8576,3.9754,-94.5169
lg,1625266140839497697,0,0.2192,-0.2292,1.0127,703,-0.061,-24.9023,17.7612,88,1.5117,1.5378,-21.4138,-6.7044,31,0.1931,9228,3.9754,-93.5121
lg,1625266140839518234,0,0.2202,-0.2422,1.0188,704,-0.4883,-18.6768,17.2119,88,1.5107,1.5357,-21.6919,-7.3045,31,0.1931,8869,3.9754,-92.5792
lg,1625266141195028289,0,0.2168,-0.2429,1.002,705,-0.1221,-8.2397,16.2964,88,1.5117,1.5368,-21.5435,-7.8431,31,0.1921,27776,3.9754,-91.7412
lg,1625266141195122752,0,0.2061,-0.2617,1.022,706,0.5493,-3.54,16.1133,88,1.5117,1.5368,-21.1786,-8.3474,31,0.1911,8685,3.9754,-90.9361
lg,1625266141195143752,0,0.2061,-0.2705,1.0308,707,0.8545,-0.061,14.8315,88,1.5127,1.5368,-20.6885,-8.7992,31,0.1921,14680,3.9754,-90.2134
lg,1625266141195163012,0,0.1836,-0.2627,1.0229,708,1.2207,0.6104,15.686,88,1.5127,1.5368,-20.1892,-9.2165,31,0.1911,7970,3.9754,-89.4726
lg,1625266141195181845,0,0.197,-0.2522,1.0312,709,2.5024,2.6245,16.2964,88,1.5117,1.5368,-19.5955,-9.5277,31,0.1911,7994,3.9754,-88.7433
lg,1625266141195203586,0,0.1953,-0.2305,1.0232,710,2.6245,4.7607,15.1367,88,1.5127,1.5368,-18.9463,-9.7483,31,0.1911,8188,3.9754,-88.1019
lg,1625266141195221660,0,0.1804,-0.2402,1.021,711,2.6855,5.7983,15.0757,88,1.5127,1.5368,-18.2314,-10.0033,31,0.1921,8147,3.9754,-87.4601
lg,1625266141195239567,0,0.1609,-0.2419,1.0193,712,2.4414,7.019,16.1743,88,1.5127,1.5368,-17.4644,-10.2299,31,0.1911,9103,3.9754,-86.8008
lg,1625266141195256771,0,0.1438,-0.2532,1.0227,713,2.3193,5.3711,16.9678,88,1.5137,1.5378,-16.7467,-10.4788,31,0.1911,8115,3.9754,-86.0985
lg,1625266141195273549,0,0.135,-0.2415,1.0244,714,2.0142,2.0752,17.1509,88,1.5137,1.5368,-16.1637,-10.7041,31,0.1911,8094,3.9754,-85.3795
lg,1625266141195290030,0,0.1335,-0.2385,1.0195,715,1.6479,0.3052,15.9302,88,1.5137,1.5368,-15.6778,-10.9138,31,0.1911,8115,3.9754,-84.7039
lg,1625266141195306734,0,0.1292,-0.2449,1.0266,716,1.709,-4.2725,16.3574,88,1.5137,1.5368,-15.373,-11.1321,31,0.1911,8117,3.9754,-83.9767
lg,1625266141195324771,0,0.1589,-0.2351,1.0254,717,1.6479,-7.9346,16.1743,88,1.5137,1.5368,-15.2855,-11.3265,31,0.1901,8204,3.9754,-83.2361
lg,1625266141195342734,0,0.1487,-0.231,1.0132,718,1.709,-9.7656,17.334,88,1.5137,1.5368,-15.2437,-11.5233,31,0.1901,8150,3.9754,-82.4358
lg,1625266141195360493,0,0.1641,-0.2363,1.0161,719,1.4648,-10.1929,16.7847,88,1.5117,1.5368,-15.2532,-11.727,31,0.1891,8299,3.9754,-81.6529
lg,1625266141195378271,0,0.1614,-0.2415,1.0122,720,1.3428,-9.3994,16.1743,88,1.5137,1.5368,-15.2291,-11.9322,31,0.1901,8248,3.9754,-80.8993
lg,1625266141195394993,0,0.1697,-0.2231,1.0276,721,1.709,-8.606,15.8691,88,1.5147,1.5368,-15.1856,-12.1363,30,0.1901,8334,3.9754,-80.1214
lg,1625266141195411845,0,0.1775,-0.2341,1.0151,722,1.2817,-8.2397,16.1133,88,1.5137,1.5357,-15.148,-12.3059,30,0.1901,8294,3.9754,-79.3881
lg,1625266141195428549,0,0.1555,-0.2319,1.0281,723,0.7324,-9.6436,16.6016,88,1.5147,1.5357,-15.11,-12.4876,30,0.1891,8301,3.9754,-78.6269
lg,1625266141195445530,0,0.1785,-0.2241,1.0093,724,0.3052,-9.8877,17.7612,88,1.5147,1.5368,-15.1404,-12.6841,30,0.1891,8303,3.9754,-77.819
lg,1625266141195463345,0,0.1584,-0.228,1.0078,725,0.1831,-11.8408,16.1133,88,1.5147,1.5347,-15.2003,-12.8748,31,0.1891,8359,3.9754,-77.0592
lg,1625266141195481641,0,0.1548,-0.2478,1.0342,726,-0.5493,-12.3901,17.2119,88,1.5147,1.5357,-15.2492,-13.1303,31,0.1901,8346,3.9754,-76.2429
lg,1625266141195499215,0,0.1523,-0.2488,1.0171,727,-0.2441,-16.4795,16.6016,88,1.5147,1.5368,-15.4568,-13.3802,31,0.1891,8381,3.9754,-75.41
lg,1625266141195516919,0,0.1758,-0.2515,1.009,728,-0.5493,-19.6533,17.2729,88,1.5147,1.5357,-15.8209,-13.6627,31,0.1901,12897,3.9754,-74.5156
lg,1625266141195534697,0,0.2073,-0.2349,1.0232,729,-0.3662,-20.9961,18.2495,88,1.5147,1.5357,-16.2714,-13.9053,30,0.1901,8388,3.9754,-73.5783
lg,1625266141195551660,0,0.22,-0.2275,1.0164,730,0.061,-20.2637,15.9302,88,1.5147,1.5357,-16.6803,-14.1128,30,0.1901,8482,3.9754,-72.7164
lg,1625266141195569104,0,0.2283,-0.2507,1.0129,731,0.3662,-18.8599,17.0288,88,1.5147,1.5357,-17.0039,-14.3516,30,0.1891,9994,3.9754,-71.8523
lg,1625266141195586752,0,0.2588,-0.2327,1.0103,732,0.5493,-14.8926,16.4185,88,1.5147,1.5357,-17.2924,-14.5122,31,0.1891,8455,3.9754,-71.0483
lg,1625266141195603549,0,0.2485,-0.2439,1.0327,733,0.6104,-8.4839,16.3574,88,1.5157,1.5368,-17.2878,-14.6581,31,0.1891,8909,3.9754,-70.3114
lg,1625266141195620438,0,0.2334,-0.2546,1.0195,734,1.0986,-0.9766,16.2964,88,1.5157,1.5357,-16.9668,-14.7819,31,0.1891,8493,3.9754,-69.6502
lg,1625266141195637530,0,0.208,-0.2549,1.0178,735,1.4648,4.6997,16.1133,88,1.5157,1.5357,-16.3891,-14.8623,31,0.1881,8552,3.9754,-69.06
lg,1625266141195654734,0,0.1853,-0.2371,1.0376,736,1.5259,6.2866,15.0146,88,1.5157,1.5357,-15.7317,-14.8651,31,0.1891,8600,3.9754,-68.5473
lg,1625266141563501456,0,0.1445,-0.2373,0.9976,737,1.6479,-1.4648,15.2588,88,1.5157,1.5357,-15.3233,-14.903,31,0.1891,25754,3.9754,-67.9369
lg,1625266141563620086,0,0.1667,-0.2241,1.0002,738,1.9531,-7.3242,16.2354,88,1.5157,1.5357,-15.2449,-15.0158,31,0.1891,11743,3.9754,-67.187
lg,1625266141563643271,0,0.1975,-0.2217,1.0085,739,1.3428,-11.0474,16.6016,88,1.5157,1.5357,-15.3197,-15.0592,31,0.1881,11247,3.9754,-66.4319
lg,1625266141563662789,0,0.1929,-0.248,1.001,740,0.8545,-10.5591,16.2354,88,1.5157,1.5347,-15.3657,-15.1771,31,0.1881,8016,3.9754,-65.6806
lg,1625266141563683493,0,0.2168,-0.2473,1.0117,741,1.0376,-7.9956,15.1367,88,1.5157,1.5357,-15.3677,-15.2573,31,0.1881,8004,3.9754,-65.004
lg,1625266141563706734,0,0.2273,-0.2507,1.0339,742,1.5869,-4.7607,14.4653,88,1.5157,1.5357,-15.2635,-15.2912,31,0.1881,8026,3.9754,-64.3916
lg,1625266141563725067,0,0.2236,-0.2466,1.0249,743,1.6479,-4.2114,14.4653,88,1.5157,1.5347,-15.1389,-15.3143,31,0.1881,8065,3.9754,-63.7869
lg,1625266141563742011,0,0.2209,-0.2329,1.0186,744,1.5869,-1.4648,14.6484,88,1.5167,1.5357,-14.9105,-15.305,31,0.1881,9707,3.9754,-63.2124
lg,1625266141563759160,0,0.2034,-0.248,1.0286,745,1.1597,1.0376,14.8926,88,1.5167,1.5357,-14.5502,-15.3325,31,0.1881,8170,3.9754,-62.649
lg,1625266141563777011,0,0.2048,-0.2358,1.0244,746,1.1597,1.4648,15.2588,88,1.5167,1.5368,-14.1747,-15.3244,31,0.1881,8109,3.9754,-62.1207
lg,1625266141563795789,0,0.1936,-0.2319,1.0364,747,1.0376,1.709,14.8926,88,1.5157,1.5357,-13.7965,-15.3087,31,0.1881,8150,3.9754,-61.5751
lg,1625266141563813623,0,0.165,-0.2517,1.021,748,1.8921,3.418,14.7095,88,1.5177,1.5357,-13.3136,-15.2985,31,0.1881,10581,3.9754,-61.0436
lg,1625266141563831474,0,0.1697,-0.2166,1.0037,749,1.9531,2.5024,15.3198,88,1.5167,1.5357,-12.8979,-15.2229,31,0.1881,8202,3.9754,-60.4937
lg,1625266141563848771,0,0.1584,-0.2344,1.0137,750,1.2817,0.061,14.2822,88,1.5167,1.5357,-12.6445,-15.2102,31,0.1881,8699,3.9754,-59.8888
lg,1625266141563868252,0,0.1606,-0.2224,1.0054,751,1.4648,-4.6387,15.1367,88,1.5167,1.5357,-12.5121,-15.1793,31,0.1881,8258,3.9754,-59.2651
lg,1625266141563887530,0,0.1755,-0.2222,1.0015,752,0.9155,-8.0566,15.3198,88,1.5167,1.5357,-12.5479,-15.1821,31,0.1891,8323,3.9754,-58.5968
lg,1625266141563905048,0,0.1772,-0.2412,1.0291,753,0.7324,-9.8267,16.7847,88,1.5167,1.5357,-12.6268,-15.2369,31,0.1881,8264,3.9754,-57.8453
lg,1625266141563923771,0,0.1907,-0.2397,1.0171,754,0.4883,-9.7046,16.7847,88,1.5167,1.5357,-12.7584,-15.2728,31,0.1891,9233,3.9754,-57.125
lg,1625266141563941437,0,0.1951,-0.2424,1.02,755,0.8545,-10.0098,15.7471,88,1.5177,1.5357,-12.886,-15.3209,31,0.1891,8849,3.9754,-56.4111
lg,1625266141563960178,0,0.2012,-0.2429,1.0146,756,1.1597,-8.7891,16.2964,88,1.5177,1.5357,-12.9702,-15.3621,31,0.1891,8424,3.9754,-55.688
lg,1625266141563977993,0,0.2249,-0.2361,1.0198,757,0.9155,-6.0425,15.564,88,1.5187,1.5357,-13.0008,-15.3822,31,0.1891,8400,3.9754,-55.0279
lg,1625266141563995086,0,0.2061,-0.231,1.0149,758,0.7935,-4.8828,15.2588,88,1.5177,1.5357,-12.9761,-15.4111,31,0.1881,8392,3.9754,-54.3904
lg,1625266141564012789,0,0.2083,-0.2317,1.0264,759,0.4272,-3.6621,16.4795,88,1.5167,1.5357,-12.8682,-15.4374,31,0.1881,8352,3.9754,-53.7236
lg,1625266141564031419,0,0.2048,-0.2427,1.0239,760,0.9766,-1.0986,15.5029,88,1.5177,1.5368,-12.6689,-15.4485,30,0.1881,8416,3.9754,-53.1185
lg,1625266141564049882,0,0.2002,-0.2285,1.0515,761,1.1597,-0.3052,15.7471,88,1.5177,1.5357,-12.4148,-15.4458,30,0.1881,8463,3.9754,-52.4995
lg,1625266141564068252,0,0.186,-0.2424,1.0476,762,0.3052,-1.2207,14.5874,88,1.5167,1.5337,-12.2005,-15.4585,30,0.1881,8477,3.9754,-51.9323
lg,1625266141564084660,0,0.2166,-0.2434,1.0227,763,0.9155,-5.6763,14.9536,88,1.5177,1.5347,-12.2339,-15.4736,30,0.1881,8496,3.9754,-51.2988
lg,1625266141564102326,0,0.2551,-0.2502,1.0146,764,2.9297,-3.6011,16.0522,89,1.5187,1.5368,-12.257,-15.4315,31,0.1881,8474,3.9765,-50.6408
lg,1625266141564120141,0,0.2583,-0.249,1.002,765,3.2349,0.7324,14.7095,89,1.5177,1.5357,-11.9562,-15.306,31,0.1881,8590,3.9765,-50.1028
lg,1625266141564137456,0,0.238,-0.2202,1.0142,766,2.6855,9.7656,15.3198,89,1.5177,1.5357,-11.4552,-15.1756,31,0.1881,8494,3.9765,-49.6305
lg,1625266141564154734,0,0.2095,-0.2361,1.0103,767,2.5024,16.4795,14.1602,89,1.5177,1.5357,-10.6692,-15.0651,31,0.1881,10818,3.9765,-49.2661
lg,1625266141564173974,0,0.1675,-0.207,1.0256,768,2.6245,19.043,13.7939,89,1.5187,1.5327,-9.7292,-14.8719,30,0.1891,9264,3.9765,-48.9528
lg,1625266141923976215,0,0.1443,-0.2244,1.0115,769,2.1362,6.7139,14.3433,89,1.5177,1.5357,-9.2503,-14.77,31,0.1881,27693,3.9765,-48.4771
lg,1625266141924010974,0,0.1328,-0.2178,1.0098,770,1.1597,-0.7935,16.2354,89,1.5187,1.5357,-9.0374,-14.7188,31,0.1881,15234,3.9765,-47.8502
lg,1625266141924031845,0,0.1355,-0.2361,1.0278,771,1.0376,-3.7231,15.1367,89,1.5177,1.5357,-8.9571,-14.7013,31,0.1881,10315,3.9765,-47.2307
lg,1625266141924073530,0,0.1558,-0.2302,1.0122,772,0.4272,-8.3008,16.7236,89,1.5177,1.5357,-9.0882,-14.7216,31,0.1881,8012,3.9765,-46.5024
lg,1625266141924096622,0,0.1665,-0.2224,1.0308,773,0.5493,-9.1553,16.4795,89,1.5187,1.5357,-9.2591,-14.7416,31,0.1891,8348,3.9765,-45.7743
lg,1625266141924116419,0,0.1699,-0.2249,1.0239,774,0.8545,-10.1929,16.1133,89,1.5187,1.5357,-9.4838,-14.7303,31,0.1891,8864,3.9765,-45.0529
lg,1625266141924136122,0,0.1716,-0.2415,1.0176,775,0.6714,-9.1553,15.4419,89,1.5187,1.5357,-9.6706,-14.7613,31,0.1891,8384,3.9765,-44.3622
lg,1625266141924154715,0,0.1938,-0.231,1.0125,776,0.4272,-7.019,16.1743,89,1.5187,1.5368,-9.8095,-14.7845,31,0.1891,8179,3.9765,-43.6681
lg,1625266141924173196,0,0.1851,-0.2378,1.0239,777,0.3052,-6.2256,16.6016,89,1.5197,1.5368,-9.9233,-14.8245,31,0.1891,8399,3.9765,-43.0288
lg,1625266141924191808,0,0.1948,-0.2263,1.0247,778,0.3052,-5.4321,15.564,89,1.5187,1.5357,-9.9945,-14.8301,31,0.1891,8402,3.9765,-42.3783
lg,1625266141924209419,0,0.199,-0.2266,1.0034,779,0.4272,-4.4556,14.6484,89,1.5197,1.5368,-10.0516,-14.8341,31,0.1891,8026,3.9765,-41.772
lg,1625266141924226770,0,0.189,-0.2434,1.0125,780,0.1831,-3.6011,15.7471,89,1.5187,1.5357,-10.0355,-14.8852,31,0.1881,8573,3.9765,-41.126
lg,1625266141924244252,0,0.2053,-0.231,1.0305,781,0.4272,-4.4556,15.3809,89,1.5157,1.5357,-10.085,-14.8888,31,0.1881,8139,3.9765,-40.4919
lg,1625266141924261474,0,0.1978,-0.2224,1.01,782,0.6714,-1.4038,14.8926,89,1.5187,1.5357,-10.0131,-14.8651,31,0.1891,8490,3.9765,-39.9106
lg,1625266141924278308,0,0.1833,-0.2222,1.0166,783,0.4272,1.709,15.0757,89,1.5197,1.5357,-9.7897,-14.8423,31,0.1881,10139,3.9765,-39.3552
lg,1625266141924296474,0,0.1682,-0.2251,1.0061,784,0.7935,2.6245,15.7471,89,1.5177,1.5368,-9.5044,-14.8172,31,0.1881,10638,3.9765,-38.7808
lg,1625266141924313937,0,0.1641,-0.2227,1.0203,785,-0.061,2.5024,14.5874,89,1.5197,1.5368,-9.2339,-14.8052,31,0.1891,8178,3.9765,-38.2524
lg,1625266141924331937,0,0.1499,-0.2336,1.0132,786,0.3052,1.2817,15.0146,89,1.5197,1.5368,-8.9983,-14.8045,31,0.1891,8573,3.9765,-37.6505
lg,1625266141924363659,0,0.157,-0.2405,1.0347,787,-0.2441,-1.5259,15.9302,89,1.5197,1.5368,-8.8684,-14.8413,31,0.1891,8245,3.9765,-37.0226
lg,1625266141924383326,0,0.1594,-0.2219,1.0308,788,-0.3662,-5.7373,15.3809,89,1.5207,1.5378,-8.9192,-14.8476,31,0.1891,8244,3.9765,-36.3783
lg,1625266141924401141,0,0.1729,-0.2212,1.0229,789,-0.2441,-6.897,16.1133,89,1.5197,1.5368,-9.0949,-14.8474,31,0.1891,8287,3.9765,-35.6871
lg,1625266141924418067,0,0.1689,-0.2432,1.0349,790,-0.3662,-8.4839,16.0522,89,1.5197,1.5357,-9.252,-14.9079,31,0.1891,8674,3.9765,-34.9809
lg,1625266141924435641,0,0.1775,-0.2405,1.0022,791,-0.6714,-8.8501,16.8457,89,1.5207,1.5368,-9.4371,-14.9969,31,0.1891,8352,3.9765,-34.2381
lg,1625266141924452845,0,0.1897,-0.248,1.0244,792,-0.9766,-9.0942,15.9912,89,1.5197,1.5368,-9.649,-15.0968,31,0.1891,8706,3.9765,-33.5255
lg,1625266141924469604,0,0.2,-0.25,1.0134,793,-0.3662,-9.1553,15.9302,89,1.5197,1.5368,-9.8797,-15.1807,31,0.1891,9102,3.9765,-32.8131
lg,1625266141924486567,0,0.2134,-0.2312,1.0305,794,0.061,-8.3618,15.9912,89,1.5197,1.5368,-10.0646,-15.2234,31,0.1881,8920,3.9765,-32.1108
lg,1625266141924504196,0,0.2109,-0.2427,1.032,795,0.7935,-3.6011,14.6484,89,1.5187,1.5368,-10.094,-15.2163,31,0.1891,8829,3.9765,-31.5127
lg,1625266141924520993,0,0.2,-0.2441,1.0203,796,0.4883,1.8921,15.2588,89,1.5197,1.5368,-9.8861,-15.2235,31,0.1891,8445,3.9765,-30.9481
lg,1625266141924538641,0,0.1833,-0.2288,1.0276,797,0.4883,4.8218,13.5498,89,1.5197,1.5357,-9.5562,-15.1751,31,0.1891,8795,3.9765,-30.488
lg,1625266141924555752,0,0.1492,-0.2378,1.0298,798,0.3052,4.0894,14.8926,89,1.5197,1.5368,-9.1944,-15.1512,31,0.1891,8472,3.9765,-29.9655
lg,1625266141924572900,0,0.1387,-0.2339,1.0298,799,0.1221,1.2817,15.625,89,1.5197,1.5337,-8.9119,-15.1427,31,0.1891,9212,3.9765,-29.384
lg,1625266141924590808,0,0.1462,-0.2251,1.0225,800,0.4272,-2.8076,15.2588,89,1.5177,1.5368,-8.8207,-15.1099,31,0.1891,9197,3.9765,-28.7756
lg,1625266142291092826,0,0.1638,-0.2312,1.0298,801,0.3662,-7.7515,15.7471,89,1.5197,1.5368,-9.0087,-15.1166,31,0.1891,24425,3.9765,-28.0981
lg,1625266142291156789,0,0.1787,-0.241,1.021,802,0,-7.9346,14.7095,89,1.5197,1.5357,-9.1843,-15.1441,31,0.1891,14758,3.9765,-27.4509
lg,1625266142291178307,0,0.1963,-0.2446,1.0273,803,0.1831,-7.8125,15.8691,89,1.5197,1.5368,-9.3563,-15.158,31,0.1891,7913,3.9765,-26.8102
lg,1625266142291197511,0,0.2168,-0.2163,1.0303,804,0.3662,-6.2866,15.8081,89,1.5197,1.5357,-9.5214,-15.122,31,0.1891,7921,3.9765,-26.1469
lg,1625266142291216141,0,0.2104,-0.2378,1.03,805,0,-2.0142,15.0146,89,1.5197,1.5368,-9.5088,-15.135,31,0.1891,7921,3.9765,-25.5524
lg,1625266142291233252,0,0.1978,-0.2249,1.021,806,0,-0.4883,15.3198,89,1.5197,1.5368,-9.4132,-15.1233,31,0.1891,7966,3.9765,-24.9662
lg,1625266142291250622,0,0.1677,-0.2332,1.0139,807,0.1221,1.6479,14.0381,89,1.5217,1.5448,-9.191,-15.1143,31,0.1891,8547,3.9765,-24.4493
lg,1625266142291270770,0,0.1567,-0.2424,1.0193,808,0.3662,1.5869,15.3809,89,1.5197,1.5368,-8.9403,-15.119,31,0.1891,8307,3.9765,-23.8765
lg,1625266142291289974,0,0.155,-0.2358,1.0098,809,0.3052,0.7935,15.8081,89,1.5197,1.5357,-8.7254,-15.1182,31,0.1891,7955,3.9765,-23.2801
lg,1625266142291308826,0,0.168,-0.2104,1.0374,810,-0.3052,-2.0752,15.1978,89,1.5207,1.5357,-8.6569,-15.075,31,0.1891,7940,3.9765,-22.6873
lg,1625266142291329307,0,0.1514,-0.2239,1.033,811,-0.4272,-4.9438,15.625,89,1.5197,1.5368,-8.6627,-15.0749,31,0.1891,8009,3.9765,-22.0425
lg,1625266142291348733,0,0.1716,-0.2339,1.0266,812,-0.4272,-5.6763,15.1367,89,1.5207,1.5368,-8.7451,-15.0978,31,0.1891,8070,3.9765,-21.4053
lg,1625266142291368307,0,0.1746,-0.2373,1.0278,813,-0.1221,-5.3711,15.8081,89,1.5207,1.5368,-8.8106,-15.1187,31,0.1891,8050,3.9765,-20.7442
lg,1625266142291386159,0,0.1929,-0.2507,1.0232,814,-0.1831,-4.9438,15.1978,89,1.5207,1.5368,-8.9018,-15.1682,31,0.1891,8097,3.9765,-20.1069
lg,1625266142291404974,0,0.1755,-0.2424,1.0308,815,-0.4272,-6.2866,16.4795,89,1.5227,1.5347,-8.9889,-15.2152,31,0.1891,8132,3.9765,-19.4087
lg,1625266142291426104,0,0.1868,-0.24,1.0269,816,0.061,-4.0894,15.1978,89,1.5197,1.5357,-9.0262,-15.2272,31,0.1891,12509,3.9765,-18.7847
lg,1625266142291470474,0,0.1909,-0.2522,1.0178,817,0.061,-2.8687,15.3809,89,1.5207,1.5368,-9.0236,-15.268,31,0.1891,8198,3.9765,-18.162
lg,1625266142291491326,0,0.1931,-0.249,1.0283,818,0.7935,1.3428,14.9536,89,1.5207,1.5368,-8.8646,-15.2556,31,0.1891,8220,3.9765,-17.6034
lg,1625266142291508992,0,0.1787,-0.2266,1.0137,819,0.9155,3.54,15.0146,89,1.5207,1.5368,-8.6044,-15.1935,31,0.1891,8188,3.9765,-17.0719
lg,1625266142291528381,0,0.1611,-0.2258,1.0339,820,0.7324,4.2725,14.7705,89,1.5207,1.5368,-8.2937,-15.1338,31,0.1881,8497,3.9765,-16.513
lg,1625266142291545437,0,0.1653,-0.2136,1.0237,821,0.6714,2.1973,15.0757,89,1.5197,1.5368,-8.0422,-15.0931,31,0.1881,8675,3.9765,-15.9619
lg,1625266142291561992,0,0.1477,-0.2241,1.0115,822,0.8545,-0.4272,15.0757,89,1.5207,1.5368,-7.903,-15.0344,31,0.1891,8755,3.9765,-15.3846
lg,1625266142291579585,0,0.1555,-0.228,1.0283,823,0.7324,-3.1738,14.7095,89,1.5207,1.5368,-7.8907,-14.9844,31,0.1891,8289,3.9765,-14.7922
lg,1625266142291596400,0,0.155,-0.2368,1.0286,824,0.7935,-3.479,14.7705,89,1.5197,1.5368,-7.9246,-14.9737,31,0.1891,8339,3.9765,-14.1661
lg,1625266142291613196,0,0.1636,-0.2407,1.0383,825,0.4272,-4.8828,14.8926,89,1.5207,1.5357,-7.9885,-14.9642,31,0.1891,8557,3.9765,-13.5452
lg,1625266142291629955,0,0.1665,-0.2356,1.0178,826,0,-6.1035,15.5029,89,1.5207,1.5368,-8.1037,-14.9775,31,0.1891,8380,3.9765,-12.8876
lg,1625266142291646492,0,0.1819,-0.2432,1.0247,827,0.5493,-6.5918,15.3809,89,1.5207,1.5368,-8.2635,-14.9828,31,0.1891,8506,3.9765,-12.228
lg,1625266142291663363,0,0.1711,-0.2261,1.0249,828,-0.1221,-7.7515,14.5874,89,1.5217,1.5378,-8.4299,-15.0288,31,0.1891,8435,3.9765,-11.5848
lg,1625266142291680085,0,0.1846,-0.2415,1.0261,829,0.2441,-7.9956,15.3198,89,1.5207,1.5368,-8.636,-15.0458,31,0.1881,8462,3.9765,-10.9133
lg,1625266142291697400,0,0.1929,-0.2415,1.0251,830,0.4272,-6.2866,15.0146,89,1.5207,1.5368,-8.7889,-15.053,31,0.1881,8482,3.9765,-10.2718
lg,1625266142291714363,0,0.1877,-0.2329,1.0063,831,0,-2.9907,13.855,89,1.5207,1.5368,-8.8179,-15.0569,31,0.1881,8549,3.9765,-9.7117
lg,1625266142291745641,0,0.188,-0.2473,1.0237,832,0.1221,-2.2583,13.5498,89,1.5207,1.5368,-8.8133,-15.0747,31,0.1891,8521,3.9765,-9.168
lg,1625266142649821529,0,0.1702,-0.2278,1.0181,833,0.4272,-1.0986,15.0146,89,1.5207,1.5368,-8.7154,-15.0474,31,0.1891,26609,3.9765,-8.5855
lg,1625266142649855252,0,0.1567,-0.2505,1.0178,834,0.061,0.3662,14.2822,89,1.5207,1.5368,-8.5423,-15.0757,31,0.1891,12819,3.9765,-8.0394
lg,1625266142649876011,0,0.1792,-0.2295,1.0112,835,0.3052,-0.1831,15.3198,89,1.5207,1.5368,-8.4381,-15.0578,31,0.1891,7934,3.9765,-7.4535
lg,1625266142649895603,0,0.1467,-0.238,1.0247,836,-0.2441,-1.8921,14.2822,89,1.5207,1.5368,-8.3407,-15.0693,31,0.1901,7902,3.9765,-6.8883
lg,1625266142649914770,0,0.1494,-0.2241,1.0271,837,-0.1221,-5.3711,15.4419,89,1.5207,1.5368,-8.3751,-15.0566,31,0.1901,10517,3.9765,-6.2455
lg,1625266142649933252,0,0.1538,-0.2317,1.0254,838,-0.061,-8.728,16.2354,89,1.5207,1.5368,-8.5383,-15.0697,31,0.1901,12156,3.9765,-5.5337
lg,1625266142649951159,0,0.1931,-0.2314,1.0227,839,-0.4883,-8.2397,16.2964,89,1.5207,1.5368,-8.7589,-15.1026,31,0.1901,8362,3.9765,-4.8245
lg,1625266142649970048,0,0.197,-0.2495,1.0225,840,0,-7.9346,16.1743,89,1.5207,1.5368,-8.9661,-15.1541,31,0.1901,8723,3.9765,-4.1174
lg,1625266142649988659,0,0.1982,-0.2522,1.022,841,0.3662,-5.6152,16.2354,89,1.5207,1.5368,-9.0771,-15.1934,30,0.1891,8005,3.9765,-3.4319
lg,1625266142650006363,0,0.1934,-0.2356,1.0093,842,0.4883,-2.6245,14.7705,89,1.5207,1.5368,-9.0801,-15.1844,30,0.1901,9725,3.9765,-2.8402
lg,1625266142650023400,0,0.1924,-0.2329,1.0178,843,0.3662,-2.6245,15.3809,89,1.5217,1.5368,-9.0717,-15.1745,30,0.1901,8614,3.9765,-2.2262
lg,1625266142650040215,0,0.1785,-0.2346,1.0129,844,-0.1221,-1.2207,15.9302,89,1.5217,1.5378,-8.9761,-15.1907,30,0.1901,8083,3.9765,-1.6048
lg,1625266142650057863,0,0.1804,-0.2534,1.012,845,0.3662,-0.6714,13.916,89,1.5217,1.5378,-8.8868,-15.2128,31,0.1901,8094,3.9765,-1.0616
lg,1625266142650074770,0,0.1824,-0.2407,1.0303,846,0.061,-0.2441,14.2822,89,1.5217,1.5368,-8.7587,-15.197,31,0.1901,8825,3.9765,-0.5168
lg,1625266142650111659,0,0.1658,-0.2256,1.0337,847,-0.1221,-1.2817,14.3433,89,1.5217,1.5378,-8.6616,-15.1705,31,0.1901,8475,3.9765,0.0387
lg,1625266142650131196,0,0.1519,-0.2534,1.0242,848,-0.3662,-2.3804,14.7095,89,1.5217,1.5378,-8.5781,-15.2204,31,0.1911,8148,3.9765,0.63
lg,1625266142650147937,0,0.1765,-0.2378,1.0303,849,-0.1831,-3.479,15.1367,89,1.5217,1.5368,-8.5705,-15.253,31,0.1911,8168,3.9765,1.2475
lg,1625266142650164437,0,0.1685,-0.2522,1.0159,850,0.4883,-4.3335,15.8081,89,1.5217,1.5378,-8.5912,-15.2765,31,0.1911,8205,3.9765,1.9021
lg,1625266142650182122,0,0.1738,-0.2329,1.0237,851,0.1221,-3.0518,15.4419,89,1.5217,1.5378,-8.576,-15.2653,31,0.1901,9046,3.9765,2.522
lg,1625266142650199029,0,0.1655,-0.2239,1.019,852,0.1221,-1.709,15.1978,89,1.5217,1.5368,-8.4973,-15.2334,31,0.1901,8234,3.9765,3.1154
lg,1625266142650215918,0,0.1611,-0.2515,1.0334,853,0.4272,-2.2583,13.5498,89,1.5217,1.5368,-8.4443,-15.232,31,0.1901,8285,3.9765,3.6583
lg,1625266142650232881,0,0.1816,-0.2395,1.0159,854,0.1221,-3.0518,15.625,89,1.5217,1.5368,-8.452,-15.2399,31,0.1901,8661,3.9765,4.2882
lg,1625266142650249937,0,0.1555,-0.2222,1.0054,855,0.6104,-4.1504,15.1367,89,1.5207,1.5357,-8.4563,-15.1948,31,0.1901,8686,3.9765,4.9061
lg,1625266142650266603,0,0.1797,-0.2349,1.0237,856,0.5493,-4.1504,15.564,89,1.5187,1.5368,-8.5005,-15.1752,31,0.1901,9985,3.9765,5.5436
lg,1625266142650283066,0,0.1707,-0.2422,1.0088,857,0.5493,-2.9297,14.8926,89,1.5207,1.5357,-8.4884,-15.1735,31,0.1901,10206,3.9765,6.1454
lg,1625266142650299715,0,0.1707,-0.2344,1.0354,858,0,-3.54,14.6484,89,1.5217,1.5378,-8.5081,-15.1868,31,0.1901,8409,3.9765,6.7252
