name,time,activity,ax,ay,az,batch_val,gx,gy,gz,ibat,index,middle,pitch,roll,temp,thumb,ts,vbat,yaw
rg,1625266149895232710,1,-0.2151,-0.1023,1.0146,1,0.8545,-12.8784,15.7471,68,1.1356,1.1366,2.4165,-4.8053,27,0.8384,20064,4.0755,-34.2139
rg,1625266149895307988,1,-0.2246,-0.1082,1.0181,2,0.6104,-10.6201,14.5874,68,1.1326,1.1396,2.4351,-4.8022,27,0.8404,8598,4.0755,-33.5982
rg,1625266149895329525,1,-0.2432,-0.1106,1.0247,3,1.0986,-11.3525,15.1367,68,1.1346,1.1396,2.4607,-4.7821,27,0.8374,7822,4.0755,-32.9582
rg,1625266149895348618,1,-0.2432,-0.1199,1.0276,4,1.0986,-10.9253,13.4277,68,1.1356,1.1366,2.4947,-4.7845,27,0.8384,7858,4.0755,-32.3888
rg,1625266149895366988,1,-0.2305,-0.1147,1.0254,5,1.9531,-11.9019,14.2212,68,1.1346,1.1396,2.4661,-4.741,27,0.8384,7888,4.0755,-31.7841
rg,1625266149895384544,1,-0.2249,-0.1125,1.0181,6,1.8311,-12.5732,14.6484,68,1.1346,1.1396,2.4048,-4.7008,27,0.8384,7945,4.0755,-31.1604
rg,1625266149895404210,1,-0.2344,-0.1101,1.0256,7,1.4648,-10.7422,13.1226,68,1.1346,1.1356,2.4296,-4.6727,27,0.8384,7939,4.0755,-30.6036
rg,1625266149895421914,1,-0.2253,-0.1121,1.0251,8,1.0986,-10.6812,12.8174,68,1.1346,1.1396,2.4362,-4.6651,27,0.8374,7950,4.0755,-30.0597
rg,1625266149895441618,1,-0.2341,-0.1128,1.0237,9,1.1597,-11.5356,12.6343,68,1.1346,1.1396,2.4243,-4.6598,27,0.8384,7940,4.0755,-29.5202
rg,1625266149895459562,1,-0.2231,-0.1089,1.021,10,1.2817,-12.6953,14.2822,68,1.1346,1.1376,2.3531,-4.6373,27,0.8384,8144,4.0755,-28.9111
rg,1625266149895479006,1,-0.2249,-0.1162,1.0308,11,1.4648,-10.8643,15.1367,68,1.1346,1.1396,2.3588,-4.6209,27,0.8384,8020,4.0755,-28.2745
rg,1625266149895498210,1,-0.2478,-0.1157,1.0366,12,1.8921,-8.667,12.6343,68,1.1356,1.1396,2.5005,-4.5679,27,0.8384,7992,4.0755,-27.7043
rg,1625266149895516562,1,-0.2334,-0.103,1.0081,13,3.9673,-13.4277,14.5874,68,1.1346,1.1396,2.3962,-4.4335,27,0.8384,33342,4.0755,-27.0814
rg,1625266149895533562,1,-0.2244,-0.103,1.022,14,2.9907,-12.5732,14.1602,68,1.1346,1.1396,2.3301,-4.3395,27,0.8384,8153,4.0755,-26.4792
rg,1625266149895550506,1,-0.2148,-0.1243,1.0413,15,1.5869,-12.207,13.855,68,1.1346,1.1396,2.251,-4.3472,27,0.8384,8071,4.0755,-25.8929
rg,1625266149895567784,1,-0.2244,-0.1204,1.0378,16,2.3804,-11.5967,13.0615,68,1.1346,1.1396,2.2709,-4.3278,27,0.8384,8110,4.0755,-25.3095
rg,1625266149895584840,1,-0.2329,-0.1147,1.0525,17,2.6855,-10.8643,15.9912,68,1.1346,1.1396,2.2857,-4.2662,27,0.8384,8185,4.0755,-24.641
rg,1625266149895601544,1,-0.2996,-0.114,1.0149,18,4.0894,-4.6997,16.2354,68,1.1346,1.1396,2.6972,-4.1548,27,0.8394,8152,4.0755,-23.9814
rg,1625266149895618618,1,-0.3418,-0.0979,1.0154,19,3.0518,-3.8452,18.8599,68,1.1346,1.1396,3.2682,-4.0682,27,0.8394,8175,4.0755,-23.1812
rg,1625266149895635118,1,-0.396,-0.1023,1.0295,20,1.1597,-9.2773,22.0337,68,1.1346,1.1396,3.6495,-4.0257,27,0.8394,8208,4.0755,-22.2771
rg,1625266149895651544,1,-0.436,-0.1038,1.0125,21,5.0049,-21.8506,22.644,68,1.1346,1.1376,3.6005,-3.8306,27,0.8394,8187,4.0755,-21.3142
rg,1625266149895689969,1,-0.3811,0.0046,1.0173,22,6.5308,-27.771,23.0103,68,1.1346,1.1346,2.8912,-3.4452,27,0.8384,8232,4.0755,-20.2006
rg,1625266149895708451,1,0.1643,-1.4946,0.8086,23,-79.9561,-80.2002,9.3384,193,0.7694,0.6183,-0.5273,-8.5293,27,0.8284,11153,3.9919,-19.5793
rg,1625266149895725747,1,0.2004,-1.4863,0.7097,24,-30.7617,-48.8281,2.5024,193,0.7774,0.6363,-1.1139,-10.14,27,0.8354,8358,3.9919,-19.7209
rg,1625266149895743192,1,0.0701,-1.0234,0.8938,25,29.0527,13.0615,-12.0239,193,0.7834,0.6473,-0.7694,-10.3868,27,0.8414,8139,3.9919,-20.2597
rg,1625266149895760210,1,0.0332,-0.7083,0.6357,26,49.8657,11.1084,-12.3901,193,0.7944,0.6593,-0.4751,-9.7761,27,0.8464,8274,3.9919,-20.8072
rg,1625266149895778229,1,0.2732,-0.8042,0.6182,27,30.3955,-2.1362,7.6904,193,0.8054,0.6703,-1.0824,-10.0516,27,0.8504,9118,3.9919,-20.476
rg,1625266149895795284,1,0.3716,-0.8862,0.552,28,24.9634,-1.0986,9.0332,193,0.8184,0.6813,-1.7937,-10.6536,27,0.8544,8104,3.9919,-20.0788
rg,1625266149895811673,1,0.4309,-0.905,0.4119,29,24.5361,24.0479,2.3193,193,0.8274,0.6963,-1.6986,-11.3748,27,0.8564,8318,3.9919,-20.1134
rg,1625266149895829025,1,0.3582,-0.7434,0.5015,30,-11.5356,81.665,7.4463,193,0.8214,0.7103,0.75,-13.3065,27,0.8544,8185,3.9919,-20.4657
rg,1625266149895845340,1,0.262,-0.7178,0.6365,31,-53.5889,92.5293,8.1177,193,0.7924,0.7184,3.6059,-17.7757,27,0.8474,8367,3.9919,-21.1576
rg,1625266149895862266,1,-0.0032,-0.8979,0.6313,32,-90.4541,67.627,10.0098,193,0.7714,0.7204,6.1576,-22.797,27,0.8454,8210,3.9919,-21.8067
rg,1625266150386183969,1,-0.0825,-1.3206,0.8381,33,31.4941,-26.7944,29.8462,193,0.7564,0.6223,5.5524,-22.6793,27,0.8474,25894,3.9919,-20.423
rg,1625266150386224599,1,0.0608,-0.6416,0.3728,34,115.1733,-52.6733,37.0483,193,0.7544,0.5973,4.0193,-19.1135,27,0.8474,15137,3.9919,-18.4001
rg,1625266150386244932,1,-0.0129,-0.2603,0.2107,35,127.6245,-46.1426,20.0195,193,0.7554,0.5983,2.4534,-15.1469,27,0.8494,7706,3.9919,-17.1747
rg,1625266150386264210,1,-0.0295,-0.1462,0.0444,36,92.1631,-67.9321,11.6577,193,0.7594,0.6073,0.324,-13.329,27,0.8504,7768,3.9919,-16.1274
rg,1625266150386308599,1,0.0161,-0.1494,0.0139,37,50.2319,-80.7495,15.5029,193,0.7644,0.6223,-2.9081,-13.4904,27,0.8524,7729,3.9919,-14.785
rg,1625266150386329525,1,0.1692,-0.2991,0.1755,38,-95.8862,-61.8286,33.1421,193,0.7704,0.6373,-5.8157,-18.9311,27,0.8554,7731,3.9919,-12.6986
rg,1625266150386348284,1,0.3806,-1.2019,1.8474,39,-192.4438,-13.4888,13.4888,193,0.7764,0.6583,-6.2566,-27.2124,27,0.8594,8605,3.9919,-11.9212
rg,1625266150386367025,1,0.1262,-1.5693,1.0732,40,-129.0894,5.249,-2.9907,193,0.7834,0.6713,-6.0609,-33.4072,27,0.8634,7962,3.9919,-12.0171
rg,1625266150386385247,1,-0.1653,-1.5632,0.8071,41,-9.1553,17.334,-27.771,193,0.7904,0.6803,-5.6894,-34.7415,27,0.8664,8776,3.9919,-13.2189
rg,1625266150386403302,1,-0.189,-0.9963,0.929,42,74.585,10.9253,-12.085,193,0.8004,0.6823,-5.0651,-32.1786,27,0.8694,8211,3.9919,-13.8059
rg,1625266150386420877,1,0.0554,-0.6763,0.4517,43,97.4731,-18.0664,-6.1646,193,0.8144,0.6953,-6.5705,-29.6743,27,0.8724,8100,3.9919,-13.2394
rg,1625266150386438414,1,0.0999,-0.6716,0.4138,44,56.5186,-37.4146,-13.7939,193,0.8284,0.7073,-8.1971,-28.5338,27,0.8744,8423,3.9919,-12.8646
rg,1625266150386455451,1,0.1619,-0.7126,0.4048,45,16.6016,-24.292,-6.1646,193,0.8354,0.7194,-9.326,-29.0927,27,0.8754,8988,3.9919,-12.4371
rg,1625266150386472265,1,0.2285,-0.7327,0.5835,46,-49.7437,-17.2729,-5.249,193,0.8184,0.7294,-10.2191,-31.9498,27,0.8684,8019,3.9919,-12.1208
rg,1625266150386489858,1,0.2207,-0.7986,0.7183,47,-93.811,-17.1509,-7.019,193,0.7854,0.7364,-10.9778,-37.381,27,0.8584,8387,3.9919,-11.7264
rg,1625266150386518969,1,0.158,-1.0164,0.6064,48,-115.5396,-24.7803,6.3477,193,0.7644,0.7344,-11.4533,-42.9932,27,0.8554,8529,3.9919,-10.7197
rg,1625266150386537691,1,0.4272,-1.2285,0.5657,49,-68.9697,-35.8887,52.5513,193,0.7604,0.6973,-11.2398,-47.0765,27,0.8564,8209,3.9919,-7.9963
rg,1625266150386554377,1,0.4963,-1.2688,0.8872,50,-1.77,29.8462,58.4717,193,0.7574,0.6643,-8.9776,-47.5666,28,0.8604,8091,3.9919,-7.2259
rg,1625266150386571710,1,0.3928,-1.2307,0.4001,51,64.5142,50.6592,67.8711,193,0.7544,0.6403,-5.9656,-45.9375,28,0.8594,8279,3.9919,-6.712
rg,1625266150386588932,1,0.293,-0.8335,0.4414,52,90.6982,69.0918,43.6401,193,0.7514,0.6203,-3.2364,-42.8573,28,0.8564,8128,3.9919,-7.3588
rg,1625266150386605654,1,-0.0754,-0.4451,0.2842,53,119.751,88.6841,6.897,193,0.7514,0.6093,0.0574,-38.5798,28,0.8544,8301,3.9919,-9.4191
rg,1625266150386622340,1,-0.2502,-0.2251,0.1914,54,114.2578,81.7871,4.4556,193,0.7524,0.6093,3.8534,-35.0591,27,0.8524,8600,3.9919,-10.6598
rg,1625266150386639451,1,-0.2332,-0.165,0.175,55,64.27,32.6538,20.2637,193,0.7564,0.6173,6.8482,-32.7264,27,0.8534,8202,3.9919,-10.701
rg,1625266150386667395,1,-0.1221,-0.2593,0.2542,56,-53.9551,-36.377,25.0244,193,0.7604,0.6313,6.6698,-35.1578,27,0.8534,8355,3.9919,-9.1119
rg,1625266150386684691,1,0.1133,-0.918,1.3318,57,-163.6963,-74.2188,25.5737,193,0.7674,0.6483,4.5672,-41.3884,27,0.8574,10531,3.9919,-6.4328
rg,1625266150386701840,1,0.208,-1.5645,0.7527,58,-82.7026,-47.2412,11.0474,193,0.7764,0.6633,3.069,-45.4472,27,0.8634,8875,3.9919,-4.8635
rg,1625266150386719062,1,0.0781,-1.3616,0.8738,59,2.1973,15.2588,-4.2725,193,0.7824,0.6753,3.1424,-45.8458,27,0.8674,8911,3.9919,-5.4453
rg,1625266150386737469,1,-0.0242,-1.0928,0.9116,60,33.9966,28.5645,-8.9722,193,0.7914,0.6843,3.5726,-43.8052,27,0.8714,8788,3.9919,-6.271
rg,1625266150386754173,1,-0.0452,-0.7622,0.6252,61,56.9458,8.606,-0.5493,193,0.8014,0.6893,3.7717,-41.8089,27,0.8754,8656,3.9919,-6.5391
rg,1625266150386770617,1,0.0688,-0.8406,0.5405,62,28.9917,-16.4185,5.188,193,0.8114,0.6993,3.1204,-41.2109,27,0.8794,9067,3.9919,-5.9882
rg,1625266150386787302,1,0.1711,-0.9128,0.415,63,12.5732,-23.3765,3.1738,193,0.8144,0.7123,2.0138,-41.5913,27,0.8814,8607,3.9919,-5.3222
rg,1625266150386803802,1,0.168,-0.8792,0.5498,64,-24.8413,-2.9297,3.1128,193,0.8044,0.7224,1.5726,-43.2003,27,0.8774,10007,3.9919,-5.1681
rg,1625266150746359747,1,0.1072,-1.0696,0.5945,65,-77.3926,-24.353,33.5693,193,0.7684,0.7023,1.4458,-46.9002,27,0.8684,23640,3.9919,-3.5374
rg,1625266150746392339,1,0.1116,-1.3494,0.4463,66,33.9966,-7.9956,42.7246,193,0.7624,0.6533,2.2397,-46.439,27,0.8654,13012,3.9919,-2.1594
rg,1625266150746412802,1,0.2417,-0.9607,0.4365,67,87.7686,-5.0659,50.415,193,0.7604,0.6283,2.9338,-43.5834,27,0.8624,8480,3.9919,-0.6369
rg,1625266150746431932,1,0.1064,-0.6777,0.3533,68,120.9106,23.0713,30.1514,193,0.7574,0.6143,3.7596,-38.4702,27,0.8604,8438,3.9919,-0.6281
rg,1625266150746450321,1,0.0046,-0.2161,0.1445,69,140.4419,17.2729,9.7656,193,0.7574,0.6163,4.3638,-33.5628,27,0.8594,8641,3.9919,-0.7736
rg,1625266150746467747,1,-0.0835,-0.1057,-0.0012,70,102.7222,5.4321,6.5308,193,0.7614,0.6273,6.0162,-30.9523,27,0.8584,8444,3.9919,-0.7508
rg,1625266150746505636,1,0.011,-0.1492,-0.0256,71,-22.583,-31.7383,15.7471,193,0.7654,0.6433,5.0315,-33.8505,27,0.8594,9139,3.9919,0.2501
rg,1625266150746525858,1,0.1287,-0.4688,0.4524,72,-109.4971,-36.9263,18.3105,193,0.7714,0.6563,3.5522,-41.7155,27,0.8614,8258,3.9919,1.9513
rg,1625266150746543950,1,0.3652,-1.1238,1.9146,73,-223.8159,-40.6494,14.2212,193,0.7784,0.6693,2.3375,-50.1013,27,0.8664,8960,3.9919,3.5781
rg,1625266150746562376,1,0.1069,-1.7166,0.4612,74,-67.3218,-2.2583,-4.0283,193,0.7864,0.6813,1.9336,-53.728,27,0.8714,8775,3.9919,3.518
rg,1625266150746580432,1,-0.0991,-1.397,1.0378,75,19.3481,42.3584,-19.043,193,0.7944,0.6873,2.3793,-52.9983,27,0.8754,8229,3.9919,1.703
rg,1625266150746598728,1,-0.1455,-0.8389,0.7871,76,94.2993,21.3623,-9.5215,193,0.8014,0.6953,2.8082,-49.0215,27,0.8794,8388,3.9919,0.8161
rg,1625266150746616784,1,-0.0994,-0.6714,0.5312,77,91.1255,-2.9907,-4.9438,193,0.8114,0.6973,2.7328,-45.4799,27,0.8824,8312,3.9919,0.7708
rg,1625266150746633895,1,0.041,-0.8254,0.5071,78,11.7798,-40.6494,-4.3335,193,0.8184,0.7123,1.2743,-45.4715,28,0.8844,14205,3.9919,1.7876
rg,1625266150746650691,1,0.1396,-0.9089,0.5679,79,-39.3677,-50.5981,1.2817,193,0.8084,0.7204,-0.416,-47.5095,28,0.8804,7975,3.9919,3.2882
rg,1625266150746668154,1,0.1853,-0.9324,0.6816,80,-69.9463,-63.8428,-1.1597,193,0.7914,0.7254,-2.4564,-50.5841,28,0.8724,8066,3.9919,5.2005
rg,1625266150746685562,1,0.1152,-1.0327,0.5898,81,-74.8901,-51.2085,3.479,193,0.7754,0.7224,-3.7117,-54.0338,27,0.8674,9707,3.9919,6.9303
rg,1625266150746702339,1,0.2932,-1.2122,0.6724,82,-45.4102,-39.0015,41.9922,193,0.7704,0.6853,-3.5457,-56.2467,27,0.8644,8221,3.9919,9.1952
rg,1625266150746719191,1,0.2124,-1.3298,0.6033,83,46.5698,-5.4321,46.875,193,0.7654,0.6473,-2.313,-54.8045,27,0.8634,8649,3.9919,10.4522
rg,1625266150746736339,1,0.2947,-0.9697,0.4412,84,80.1392,-26.3672,65.0024,193,0.7634,0.6233,-1.51,-51.0537,27,0.8604,8465,3.9919,12.0137
rg,1625266150746753080,1,0.1406,-0.6809,0.3337,85,138.3667,10.7422,26.3062,193,0.7594,0.6053,-0.7963,-46.0263,27,0.8574,9038,3.9919,12.3816
rg,1625266150746780636,1,-0.0278,-0.1753,0.1709,86,163.7573,16.0522,1.8311,193,0.7604,0.6053,0.008,-39.474,27,0.8574,8707,3.9919,12.0159
rg,1625266150746799062,1,-0.0564,0.0168,0.0415,87,124.1455,-31.0059,-0.1831,193,0.7644,0.6113,0.7828,-33.2773,27,0.8574,8434,3.9919,12.847
rg,1625266150746816228,1,0.0173,-0.0569,0.0098,88,-27.0996,-60.9741,15.0757,193,0.7684,0.6233,-1.5442,-35.9525,27,0.8604,8692,3.9919,14.7236
rg,1625266150746833136,1,0.1064,-0.1968,0.0996,89,-129.0894,-62.3169,30.7007,193,0.7744,0.6383,-3.4352,-45.3427,27,0.8634,8613,3.9919,17.7155
rg,1625266150746850858,1,0.6816,-1.1711,2.1335,90,-274.5972,-57.0679,30.2734,193,0.7814,0.6503,-4.4238,-55.8205,27,0.8674,8629,3.9919,20.2495
rg,1625266150746867932,1,0.178,-1.9929,0.4419,91,-84.6558,11.2915,5.3101,193,0.7884,0.6633,-4.0364,-59.9955,27,0.8724,8754,3.9919,20.0434
rg,1625266150746885024,1,-0.022,-1.4658,0.9619,92,43.2129,53.7109,-12.207,169,0.7954,0.6743,-3.1679,-57.9953,27,0.8764,8650,4.0018,17.9385
rg,1625266150746901784,1,-0.1497,-0.7332,0.7974,93,111.8164,39.6118,-1.77,169,0.8034,0.6833,-1.903,-52.8641,27,0.8814,8836,4.0018,16.5781
rg,1625266150746918469,1,-0.1233,-0.5728,0.3677,94,106.9336,9.8267,2.5635,169,0.8134,0.6863,-1.7413,-50.1947,27,0.8844,9219,4.0018,17.2661
rg,1625266150746934821,1,-0.0808,-0.6399,0.4268,95,37.7197,-42.7246,4.5776,169,0.8254,0.6973,-2.3976,-48.9695,27,0.8864,9008,4.0018,18.7003
rg,1625266150746951654,1,-0.0322,-0.8796,0.509,96,-0.4272,-67.749,1.2207,169,0.8274,0.7103,-3.9527,-49.5237,27,0.8884,8579,4.0018,20.8096
rg,1625266151107701358,1,0.3271,-1.0129,0.5354,97,-93.2617,-82.0923,22.0337,169,0.7624,0.7083,-5.7514,-53.9787,27,0.8774,26081,4.0018,23.9954
rg,1625266151107804635,1,0.6226,-1.2908,1.1448,98,-66.3452,-38.8794,55.0537,169,0.7604,0.6613,-5.3751,-56.6554,28,0.8844,9403,4.0018,26.5251
rg,1625266151107832876,1,0.6619,-1.3794,0.3977,99,2.3193,4.8828,67.8711,169,0.7534,0.6353,-3.2899,-55.6225,28,0.8834,8597,4.0018,29.0822
rg,1625266151107859228,1,0.6697,-1.1521,0.3279,100,82.9468,8.8501,71.7163,169,0.7514,0.6073,-2.0128,-51.2794,28,0.8804,9367,4.0018,27.8044
rg,1625266151107974321,1,0.259,-0.5203,0.2632,101,143.0664,91.4917,-7.4463,169,0.7504,0.5943,-0.6806,-45.9197,27,0.8794,7954,4.0018,24.8325
rg,1625266151107999765,1,-0.1169,-0.1416,0.1729,102,138.855,126.3428,-33.4473,169,0.7494,0.5933,3.1454,-40.2404,27,0.8774,8375,4.0018,20.4597
rg,1625266151108024747,1,-0.2649,-0.0854,0.0444,103,120.1782,119.9951,-21.1182,169,0.7514,0.5983,8.2589,-37.6017,27,0.8764,8215,4.0018,18.0801
rg,1625266151108059506,1,-0.2546,-0.1191,0.0039,104,16.1133,62.439,18.2495,169,0.7554,0.6073,12.6131,-37.8866,27,0.8774,8387,4.0018,16.9981
rg,1625266151108081376,1,-0.1792,-0.3594,0.2029,105,-146.8506,-13.0615,26.3062,169,0.7604,0.6173,13.3603,-44.297,27,0.8804,8146,4.0018,17.9572
rg,1625266151108133672,1,0.0598,-1.302,2.0039,106,-231.1401,-61.8286,24.8413,169,0.7684,0.6313,11.9135,-52.4744,27,0.8854,8210,4.0018,20.6714
rg,1625266151108154784,1,0.0859,-1.6865,1.1682,107,-148.2544,-64.6973,18.7988,169,0.7734,0.6443,10.5981,-54.9646,27,0.8904,8551,4.0018,22.8543
rg,1625266151108183543,1,0.1365,-1.5967,0.6116,108,4.2725,-32.1045,15.2588,169,0.7814,0.6553,9.7834,-55.0896,27,0.8924,8626,4.0018,24.1772
rg,1625266151108205580,1,-0.0139,-0.9568,0.8831,109,63.5986,8.4229,-0.8545,169,0.7944,0.6663,9.7151,-52.2392,27,0.8964,9464,4.0018,23.9364
rg,1625266151108227987,1,-0.0674,-0.7217,0.5496,110,41.3818,-39.0625,5.127,169,0.8104,0.6813,8.4919,-50.5509,27,0.8994,14911,4.0018,25.2669
rg,1625266151108245728,1,0.127,-0.9363,0.5266,111,29.8462,-66.8945,8.8501,169,0.8254,0.6883,6.4614,-49.4489,27,0.9004,8011,4.0018,27.502
rg,1625266151108269172,1,0.1829,-0.9441,0.3982,112,44.4946,-51.8188,5.3101,169,0.8444,0.6973,4.6284,-48.1806,27,0.9014,8215,4.0018,29.1276
rg,1625266151108286691,1,0.1738,-0.8799,0.3943,113,46.9971,-35.7666,4.8218,169,0.8514,0.7083,3.2085,-46.6936,27,0.9014,8057,4.0018,30.2689
rg,1625266151108303950,1,0.1729,-0.7554,0.5647,114,10.6201,-25.2686,2.9907,169,0.8274,0.7184,2.0717,-46.4754,27,0.8944,8241,4.0018,31.0715
rg,1625266151108324265,1,0.1677,-0.761,0.6626,115,-78.064,-27.4048,10.7422,169,0.7804,0.7264,1.2101,-49.644,27,0.8834,9101,4.0018,32.1834
rg,1625266151108346154,1,0.1167,-1.0872,0.5864,116,-111.8774,-45.5322,22.583,169,0.7584,0.7194,0.5506,-54.535,27,0.8804,9166,4.0018,34.1754
rg,1625266151108363747,1,0.3745,-1.3579,0.7249,117,-65.2466,-41.3208,48.0957,169,0.7564,0.6553,0.6669,-57.3844,27,0.8834,8477,4.0018,36.6288
rg,1625266151108384469,1,0.3682,-1.3149,0.9624,118,-1.0986,-6.7749,45.9595,169,0.7504,0.6103,1.5015,-57.9922,27,0.8824,8693,4.0018,37.8311
rg,1625266151108403098,1,0.4348,-0.9204,0.3376,119,107.7271,-16.9678,64.5752,169,0.7474,0.5853,2.2897,-54.0435,27,0.8814,8540,4.0018,39.7848
rg,1625266151108424802,1,0.2178,-0.4075,0.2898,120,117.3096,18.4937,-2.4414,169,0.7454,0.5733,1.6797,-49.3954,27,0.8784,8676,4.0018,39.0994
rg,1625266151108502043,1,-0.031,-0.1797,0.2256,121,88.8062,40.6494,-23.6816,169,0.7484,0.5743,2.2522,-45.4785,27,0.8784,8816,4.0018,37.2797
rg,1625266151108528413,1,-0.1582,-0.2126,0.1743,122,13.7939,41.626,11.0474,169,0.7514,0.5823,4.7822,-45.1498,27,0.8784,9202,4.0018,36.4006
rg,1625266151108548469,1,-0.0398,-0.4314,0.4011,123,-84.1064,-30.0293,22.8882,169,0.7574,0.5943,4.5941,-48.4475,27,0.8804,10523,4.0018,37.9031
rg,1625266151108791987,1,0.1887,-1.1104,1.2737,124,-133.4839,-49.4995,21.0571,169,0.7644,0.6133,3.5773,-53.3215,27,0.8864,9852,4.0018,40.0169
rg,1625266151108827561,1,0.2234,-1.3943,1.0017,125,-96.8018,-32.1045,21.2402,169,0.7714,0.6333,3.4808,-55.6341,27,0.8924,8494,4.0018,40.9354
rg,1625266151108846784,1,0.1382,-1.4385,0.8264,126,-16.1133,8.3008,13.5498,169,0.7804,0.6463,3.9331,-56.2415,27,0.8954,9607,4.0018,40.9647
rg,1625266151108872024,1,-0.0454,-1.002,0.7898,127,39.4897,23.9258,6.4697,169,0.7884,0.6553,4.6098,-54.5221,27,0.8984,8503,4.0018,40.3321
rg,1625266151108937839,1,-0.0679,-0.7773,0.677,128,39.4287,-1.4038,10.437,169,0.7984,0.6673,4.8785,-52.6903,27,0.9024,8712,4.0018,40.6434
rg,1625266151393369024,1,0.1174,-0.9409,0.5408,129,5.9814,-30.8228,-2.0142,169,0.8244,0.6933,3.6372,-52.663,27,0.9084,26249,4.0018,41.5544
rg,1625266151393414580,1,0.0908,-0.8838,0.6467,130,-15.8081,-31.9214,-3.9673,169,0.8064,0.7033,2.5086,-54.4765,27,0.9044,8877,4.0018,42.7883
rg,1625266151393436043,1,0.0959,-0.9021,0.6648,131,-75.3174,-45.2881,3.7231,169,0.7764,0.7113,1.332,-57.3826,27,0.8954,8201,4.0018,44.3837
rg,1625266151393455654,1,0.1228,-1.1038,0.4861,132,-88.623,-59.8145,14.2822,169,0.7644,0.6903,0.3295,-61.2207,27,0.8884,8342,4.0018,46.7341
rg,1625266151393475172,1,0.3137,-1.2166,0.9893,133,-37.1704,-34.8511,34.729,169,0.7624,0.6443,0.4394,-62.2797,27,0.8914,8283,4.0018,48.6229
rg,1625266151393493135,1,0.1838,-1.2578,0.6045,134,30.2734,-10.6201,42.5415,169,0.7584,0.6173,1.5668,-60.1188,27,0.8894,7982,4.0018,51.0887
rg,1625266151393510950,1,0.4314,-0.9695,0.3838,135,74.707,-26.3062,60.2417,169,0.7554,0.5993,2.1566,-57.3581,27,0.8874,8093,4.0018,53.2014
rg,1625266151393557061,1,0.1545,-0.4954,0.2012,136,118.3472,23.0103,4.4556,169,0.7534,0.5833,2.1137,-53.0487,28,0.8844,8381,4.0018,52.5018
rg,1625266151393577987,1,-0.0288,-0.165,0.0759,137,131.5308,25.3906,-9.3994,169,0.7554,0.5863,2.7429,-48.3168,28,0.8814,8187,4.0018,50.942
rg,1625266151393596320,1,-0.0764,-0.0898,0.0098,138,112.5488,40.2222,-9.0942,169,0.7604,0.5973,4.9725,-44.9211,28,0.8804,8468,4.0018,49.5154
rg,1625266151393614524,1,-0.0454,-0.1069,-0.0098,139,-14.2212,21.0571,16.9678,169,0.7654,0.6123,6.8028,-47.116,27,0.8824,9080,4.0018,49.2235
rg,1625266151393633672,1,0.2676,-1.0605,1.6848,140,-235.9009,-38.269,6.3477,169,0.7774,0.6373,5.5063,-55.7764,27,0.8874,13294,4.0018,50.6961
rg,1625266151393651987,1,0.0635,-1.7898,0.4871,141,-83.313,-23.1323,-9.6436,169,0.7864,0.6513,4.4041,-59.776,27,0.8894,8323,4.0018,51.2159
rg,1625266151393669172,1,0.1375,-1.7217,0.6025,142,-12.3291,-12.4512,-8.606,169,0.7964,0.6633,3.9865,-58.4088,27,0.8934,7994,4.0018,50.2743
rg,1625266151393686320,1,0.0481,-1.0732,0.8914,143,71.228,24.5361,-13.5498,169,0.8064,0.6743,3.8303,-55.3078,28,0.8974,8060,4.0018,49.1702
rg,1625266151393705043,1,0.1023,-0.731,0.4172,144,93.9941,-2.9297,-1.2817,169,0.8204,0.6783,3.297,-51.7371,28,0.8994,9466,4.0018,49.2075
rg,1625266151393722802,1,0.2073,-0.7344,0.4661,145,41.1377,-5.3101,2.8076,169,0.8294,0.6883,2.599,-50.2981,28,0.9014,8218,4.0018,49.4212
rg,1625266151393740432,1,0.1936,-0.7737,0.47,146,14.0991,0.9155,5.0049,169,0.8254,0.7003,2.0705,-51.7295,28,0.9014,8048,4.0018,49.9121
rg,1625266151393757302,1,0.1589,-0.842,0.5552,147,-69.1528,-26.6113,2.3193,169,0.7994,0.7103,1.0774,-54.6429,27,0.8924,8212,4.0018,50.8248
rg,1625266151393774432,1,0.0579,-0.9978,0.5298,148,-91.0645,-34.0576,7.6294,169,0.7784,0.7123,0.4289,-58.5396,27,0.8874,8159,4.0018,52.1304
rg,1625266151393791987,1,0.2756,-1.1792,0.592,149,-80.8716,-44.2505,26.6113,169,0.7694,0.6733,0.4009,-61.3782,27,0.8824,8243,4.0018,54.5731
rg,1625266151393811376,1,0.4478,-1.2332,1.05,150,-30.7617,-42.7246,47.9126,169,0.7644,0.6333,0.6648,-62.1236,27,0.8864,8756,4.0018,56.9881
rg,1625266151393842728,1,0.4817,-1.2937,0.4446,151,72.5098,-35.4614,77.2705,169,0.7604,0.6153,1.8933,-59.4873,27,0.8844,8454,4.0018,59.7033
rg,1625266151393861820,1,0.3782,-0.8948,0.2891,152,111.7554,13.0615,29.4189,169,0.7564,0.6013,2.2488,-55.4699,27,0.8834,8547,4.0018,59.8419
rg,1625266151393878672,1,0.0498,-0.2927,0.1348,153,154.48,43.0298,-18.5547,169,0.7574,0.5903,2.2657,-49.7512,27,0.8814,8970,4.0018,57.986
rg,1625266151393895820,1,-0.1086,-0.0125,0.0605,154,139.8926,56.6406,-11.2915,169,0.7594,0.5973,5.407,-43.6005,27,0.8824,9075,4.0018,56.1616
rg,1625266151393913580,1,-0.0913,0.0244,-0.0002,155,89.1724,46.5088,9.6436,169,0.7644,0.6113,8.9555,-44.2383,27,0.8824,8943,4.0018,55.8585
rg,1625266151393931969,1,-0.0437,-0.1541,0.0466,156,-90.5151,17.1509,23.9868,169,0.7694,0.6253,10.3986,-48.8875,27,0.8844,8357,4.0018,55.8412
rg,1625266151394042654,1,0.0452,-0.926,1.5378,157,-276.3672,-25.8179,18.0664,169,0.7764,0.6413,9.9468,-58.952,27,0.8884,8586,4.0018,57.2849
rg,1625266151394069969,1,-0.0444,-1.9863,0.6777,158,-118.5913,-40.7104,1.4648,169,0.7854,0.6553,8.8836,-63.9046,27,0.8934,8450,4.0018,58.695
rg,1625266151394089950,1,0.0388,-2.0007,0.4897,159,-19.7144,-42.0532,4.5166,169,0.7954,0.6653,7.8401,-64.3933,27,0.8964,8482,4.0018,60.317
rg,1625266151394112265,1,0.0234,-1.1814,0.9539,160,80.2002,6.1646,-4.6997,169,0.8054,0.6703,7.3862,-60.4573,27,0.8994,9766,4.0018,60.1006
rg,1625266151774243931,1,0.1238,-0.8335,0.4709,161,35.2173,-35.2783,-3.7842,169,0.8474,0.6963,5.9706,-58.9081,27,0.9014,25732,4.0018,61.2441
rg,1625266151774281376,1,-0.0042,-0.843,0.395,162,-5.8594,-35.2783,-3.8452,169,0.8364,0.7083,4.8935,-59.2594,27,0.8984,8823,4.0018,62.3598
rg,1625266151774301191,1,0.0498,-0.8687,0.6511,163,-46.7529,-51.3916,-2.4414,169,0.7984,0.7184,3.0702,-62.1711,27,0.8894,8215,4.0018,64.7332
rg,1625266151774320098,1,0.0176,-0.9297,0.5061,164,-96.5576,-85.2661,-5.0659,169,0.7704,0.7234,1.2501,-65.8707,28,0.8854,8223,4.0018,67.722
rg,1625266151774337542,1,0.2183,-1.175,0.5151,165,-74.8291,-93.811,36.0107,169,0.7594,0.6843,0.7168,-68.7941,28,0.8844,8243,4.0018,71.7471
rg,1625266151774354079,1,0.4873,-1.325,0.488,166,63.7207,-32.5317,74.0967,169,0.7524,0.6233,2.1889,-66.2137,28,0.8914,16210,4.0018,74.056
rg,1625266151774406135,1,0.5613,-0.9209,0.2192,167,120.6665,-28.0762,49.3164,169,0.7504,0.6043,2.2382,-61.6677,27,0.8914,7830,4.0018,75.8613
rg,1625266151774425765,1,0.3931,-0.5469,0.1501,168,152.832,3.7231,3.2959,169,0.7494,0.5913,1.0673,-55.9828,27,0.8904,7984,4.0018,75.7135
rg,1625266151774444209,1,0.1689,0.0222,0.1958,169,161.377,41.626,-37.4756,169,0.7504,0.5943,-0.5813,-48.033,27,0.8894,7828,4.0018,73.4056
rg,1625266151774462450,1,-0.0603,0.032,0.033,170,67.3218,125.4883,-3.2959,169,0.7534,0.6033,4.583,-44.0988,27,0.8894,8383,4.0018,69.7489
rg,1625266151774480135,1,-0.1233,-0.2578,0.0212,171,-17.395,130.6763,26.7334,169,0.7574,0.6163,9.366,-50.0542,27,0.8894,9205,4.0018,67.2413
rg,1625266151774498413,1,-0.1934,-0.4534,0.241,172,-195.8618,72.2046,25.9399,169,0.7614,0.6283,12.3145,-58.6393,27,0.8914,8562,4.0018,65.3613
rg,1625266151774515857,1,-0.1287,-1.6616,2.1067,173,-233.2764,-40.8325,2.0752,169,0.7684,0.6393,11.3133,-66.8033,27,0.8934,8172,4.0018,67.0807
rg,1625266151774533320,1,0.1042,-1.75,0.4238,174,-22.4609,-85.9375,9.6436,169,0.7754,0.6533,9.7747,-67.447,27,0.8974,8609,4.0018,70.3852
rg,1625266151774555024,1,0.2451,-1.4019,0.6748,175,23.6206,-50.6592,7.8735,169,0.7824,0.6633,8.6306,-64.8517,28,0.8984,8395,4.0018,71.0596
rg,1625266151774573635,1,0.1184,-0.7256,0.8118,176,56.4575,-8.1177,-11.5356,169,0.7894,0.6693,7.5156,-61.6799,28,0.9024,8662,4.0018,71.2643
rg,1625266151774590746,1,0.0171,-0.6702,0.5049,177,29.8462,-22.2778,2.0752,169,0.8004,0.6803,6.8167,-60.0269,28,0.9054,8361,4.0018,72.1317
rg,1625266151774608431,1,0.2363,-1.0234,0.5542,178,4.4556,-54.5044,6.1035,169,0.8154,0.6843,5.2281,-59.6842,28,0.9094,8481,4.0018,74.1432
rg,1625266151774625839,1,0.301,-1.0933,0.4617,179,15.9302,-55.9082,2.0142,169,0.8274,0.6973,3.4142,-59.1724,27,0.9114,8152,4.0018,76.0873
rg,1625266151774643061,1,0.3398,-0.9751,0.3999,180,43.335,-14.1602,2.9297,169,0.8324,0.7073,2.3962,-57.7244,27,0.9124,9315,4.0018,76.6011
rg,1625266151774660098,1,0.2634,-0.7444,0.4814,181,4.6997,8.1177,3.7842,169,0.8144,0.7163,1.9582,-57.5083,27,0.9084,8212,4.0018,76.4049
rg,1625266151774677431,1,0.0481,-0.7974,0.5693,182,-58.3496,15.7471,4.9438,169,0.7824,0.7244,2.2633,-59.7206,28,0.8994,8336,4.0018,75.9762
rg,1625266151774694616,1,-0.0344,-0.9424,0.5925,183,-66.1011,7.9346,15.7471,169,0.7664,0.7133,2.9458,-62.2705,28,0.8954,8243,4.0018,76.0059
rg,1625266151774727228,1,0.1907,-1.2803,0.7273,184,-58.7769,-24.353,51.3306,169,0.7654,0.6653,3.937,-64.4221,28,0.9004,8433,4.0018,77.807
rg,1625266151774746265,1,0.1594,-1.4221,0.6619,185,63.4766,-8.606,52.6123,169,0.7604,0.6303,5.2713,-61.7973,28,0.9014,8370,4.0018,79.0535
rg,1625266151774763839,1,0.2686,-1.0156,0.4714,186,123.4741,-4.1504,58.1665,169,0.7574,0.6013,6.454,-56.8514,27,0.9004,8483,4.0018,80.3387
rg,1625266151774781283,1,0.114,-0.7244,0.4009,187,145.6909,15.9302,26.5503,169,0.7534,0.5813,7.1237,-51.1834,27,0.8994,8342,4.0018,80.3974
rg,1625266151774798598,1,-0.0564,-0.178,0.2158,188,168.335,5.6152,-13.7329,169,0.7544,0.5733,7.0387,-44.0749,27,0.8974,8397,4.0018,79.9281
rg,1625266151774815950,1,-0.1897,0.0579,0.1045,189,140.1367,-0.8545,-17.1509,169,0.7564,0.5763,8.4149,-37.3722,27,0.8964,8301,4.0018,79.6869
rg,1625266151774832765,1,-0.1042,0.0723,-0.0354,190,19.4092,-42.2974,20.0806,169,0.7644,0.5933,9.4985,-35.7091,28,0.8964,12534,4.0018,81.4865
rg,1625266151774849579,1,0.0713,-0.2251,0.1206,191,-205.3223,-75.1343,32.8369,169,0.7714,0.6073,7.1265,-44.415,28,0.8984,8338,4.0018,84.3598
rg,1625266151774868376,1,0.6929,-1.574,2.7517,192,-336.9751,-81.9702,10.9863,169,0.7784,0.6273,4.6828,-56.955,28,0.9004,8481,4.0018,87.326
rg,1625266152173753875,1,0.1226,-1.5002,1.0093,193,64.0259,27.6489,-11.2305,169,0.8034,0.6553,4.5899,-54.426,27,0.9094,23180,4.0018,86.1506
rg,1625266152173796987,1,0.1697,-0.7476,0.5947,194,150.2075,12.3901,2.6855,169,0.8194,0.6643,4.4068,-48.3368,27,0.9104,8657,4.0018,85.8068
rg,1625266152173818135,1,0.1377,-0.5608,0.2285,195,135.5591,9.5215,5.7983,169,0.8304,0.6713,4.1771,-43.6709,27,0.9114,8091,4.0018,85.6073
rg,1625266152173837524,1,0.0713,-0.5056,0.2427,196,17.6392,14.5874,7.8735,169,0.8254,0.6853,4.3739,-43.7692,28,0.9094,7818,4.0018,85.371
rg,1625266152173856209,1,0.1511,-0.7688,0.6206,197,-125.3052,-39.0015,-2.3193,169,0.7974,0.6923,2.7259,-48.9741,28,0.8944,7954,4.0018,86.4408
rg,1625266152173873801,1,0.0601,-0.9675,0.5681,198,-137.5732,-47.3633,-10.2539,169,0.7754,0.7003,1.0658,-55.1446,28,0.8864,8895,4.0018,87.66
rg,1625266152173892042,1,0.187,-1.2317,0.3711,199,-78.186,-63.4766,39.1235,169,0.7694,0.6703,0.6392,-58.9067,28,0.8854,8258,4.0018,90.6382
rg,1625266152173934227,1,0.5974,-1.3391,0.5327,200,1.3428,-60.791,64.8193,169,0.7624,0.6433,1.1255,-57.0369,27,0.8914,12110,4.0018,93.6549
rg,1625266152173954709,1,0.6138,-1.1589,0.3037,201,93.2007,-12.8174,47.7905,169,0.7584,0.6213,1.3379,-53.9088,27,0.8924,10060,4.0018,95.1121
rg,1625266152173973616,1,0.4128,-0.9697,0.3372,202,116.5161,31.6162,13.4888,169,0.7554,0.6023,1.6433,-49.881,27,0.8914,7998,4.0018,94.3987
rg,1625266152173995524,1,-0.0068,-0.3899,0.1526,203,159.4849,78.2471,-20.6299,159,0.7544,0.5923,3.1303,-44.3587,27,0.8904,8029,4.0106,91.5197
rg,1625266152174015857,1,-0.1436,-0.0581,0.1177,204,165.7715,80.3833,1.0376,159,0.7574,0.5983,7.1522,-37.4505,27,0.8914,8027,4.0106,89.5642
rg,1625266152174034042,1,-0.1262,0.0027,0.0767,205,125.7324,72.2046,26.2451,159,0.7614,0.6093,11.8304,-31.7031,27,0.8914,8107,4.0106,88.973
rg,1625266152174052153,1,-0.04,-0.0681,0.1125,206,-39.0625,35.4004,39.856,159,0.7664,0.6233,14.0719,-33.0967,27,0.8934,8300,4.0106,89.5754
rg,1625266152174069653,1,-0.0789,-0.563,0.832,207,-234.6191,7.1411,19.043,159,0.7734,0.6343,14.3833,-42.3561,28,0.8964,8470,4.0106,90.0372
rg,1625266152174087783,1,-0.1355,-1.7668,1.123,208,-166.0767,0.6104,4.8218,159,0.7794,0.6503,14.1244,-49.5368,28,0.9004,8325,4.0106,90.0316
rg,1625266152174105579,1,-0.1028,-1.8513,0.4629,209,-65.4297,-11.8408,3.2959,159,0.7854,0.6573,13.5454,-53.0611,28,0.9024,8332,4.0106,90.2559
rg,1625266152174123301,1,-0.1582,-1.2065,0.9836,210,30.0903,6.4697,-24.4751,159,0.7934,0.6643,12.6182,-51.9437,28,0.9064,8566,4.0106,89.4555
rg,1625266152174140950,1,-0.0535,-0.7153,0.7991,211,67.0166,-25.4517,-12.085,159,0.8054,0.6723,11.2195,-48.7519,27,0.9104,9024,4.0106,90.0244
rg,1625266152174159079,1,0.1841,-0.7729,0.5569,212,31.1279,-63.2324,0,159,0.8254,0.6763,8.6856,-47.3859,27,0.9134,10768,4.0106,91.886
rg,1625266152174177357,1,0.3159,-0.9915,0.3989,213,28.2593,-46.2646,3.8452,159,0.8444,0.6903,6.6012,-46.8301,27,0.9134,8388,4.0106,93.2384
rg,1625266152174195079,1,0.2573,-0.8511,0.2913,214,40.9546,-13.5498,-6.5308,159,0.8544,0.7013,5.1911,-46.0681,27,0.9154,8239,4.0106,93.3424
rg,1625266152174214098,1,0.2461,-0.7258,0.3667,215,19.5312,0.061,0,159,0.8354,0.7123,4.3496,-45.9214,27,0.9084,8439,4.0106,93.2798
rg,1625266152174248857,1,0.1831,-0.6782,0.6086,216,-80.2002,-1.8921,1.2207,159,0.7914,0.7194,3.7194,-49.1876,27,0.8934,8737,4.0106,93.3794
rg,1625266152174269450,1,0.0466,-1.0112,0.5737,217,-108.0322,-22.3389,16.7236,159,0.7684,0.7224,3.4535,-53.8586,27,0.8904,8999,4.0106,94.4773
rg,1625266152174287394,1,0.4331,-1.3972,0.8035,218,-66.7725,-54.1992,62.1948,159,0.7674,0.6863,3.5458,-56.554,27,0.8954,8797,4.0106,97.6804
rg,1625266152174304820,1,0.4021,-1.5237,0.5259,219,-13.1836,-25.8179,55.7861,159,0.7624,0.6643,4.5986,-54.6537,27,0.8984,8842,4.0106,99.7874
rg,1625266152174322783,1,0.5376,-1.3491,0.5073,220,96.8628,-28.9917,76.7212,159,0.7604,0.6383,5.3922,-51.0801,27,0.8974,8742,4.0106,102.493
rg,1625266152174339913,1,0.2622,-0.7488,0.366,221,165.0391,23.9868,26.001,159,0.7584,0.6233,5.9274,-44.9801,27,0.8964,9047,4.0106,102.3772
rg,1625266152174356598,1,0.0693,-0.2275,0.1965,222,167.7856,26.4282,-7.9346,159,0.7584,0.6123,5.7672,-38.5458,27,0.8964,8990,4.0106,101.3724
rg,1625266152174373968,1,-0.093,0.0059,0.155,223,129.3945,38.147,-18.1274,159,0.7604,0.6173,7.5852,-32.272,27,0.8954,9042,4.0106,100.0762
rg,1625266152174391931,1,-0.1304,-0.0066,0.051,224,24.5972,38.6963,13.2446,159,0.7664,0.6333,11.1645,-30.9872,27,0.8974,8716,4.0106,99.7822
rg,1625266152429097690,1,-0.0642,-1.7622,1.3438,225,-270.2637,-39.2456,13.4888,159,0.7844,0.6673,8.9707,-39.147,27,0.9074,26736,4.0106,101.16
rg,1625266152429132857,1,0.0063,-1.8853,0.5383,226,-87.1582,-78.8574,1.8311,159,0.7904,0.6753,6.0432,-40.8277,27,0.9114,8720,4.0106,102.591
rg,1625266152429153227,1,0.145,-1.3347,0.9692,227,21.1182,-35.8887,-18.3105,159,0.7984,0.6793,4.053,-40.4596,27,0.9134,7920,4.0106,102.9189
rg,1625266152429172486,1,0.1379,-0.7822,0.7505,228,80.3833,-33.5693,-15.564,159,0.8114,0.6793,2.1792,-37.4498,27,0.9174,7844,4.0106,103.2543
rg,1625266152429190542,1,0.0923,-0.6738,0.4524,229,75.5005,-31.0669,-8.1787,159,0.8284,0.6903,0.4551,-35.3534,27,0.9184,7909,4.0106,103.6844
rg,1625266152429208023,1,0.2646,-0.7598,0.3635,230,30.0293,-30.2124,9.5825,159,0.8454,0.7023,-1.0007,-35.2055,27,0.9194,7949,4.0106,104.686
rg,1625266152429225727,1,0.3245,-0.9131,0.3948,231,-8.3008,-19.4092,-0.5493,159,0.8444,0.7123,-2.31,-36.6678,27,0.9184,7864,4.0106,105.1523
rg,1625266152429261801,1,0.3096,-0.9097,0.3699,232,-37.9028,-9.1553,2.1973,159,0.8074,0.7204,-3.1064,-39.093,27,0.9094,7885,4.0106,105.4947
rg,1625266152429279431,1,0.1533,-0.8696,0.4866,233,-97.168,12.6953,-4.6387,159,0.7754,0.7234,-3.079,-43.7627,27,0.8974,7824,4.0106,105.0724
rg,1625266152429295801,1,0.0374,-0.9275,0.5176,234,-68.8477,9.5825,21.4844,159,0.7654,0.7083,-2.1616,-47.1815,27,0.8924,8712,4.0106,105.4344
rg,1625266152429314764,1,0.2039,-1.0208,0.7048,235,-41.1377,8.2397,52.3682,159,0.7624,0.6733,0.0538,-47.6353,27,0.8974,7893,4.0106,106.7778
rg,1625266152429332023,1,0.5371,-1.4614,0.5964,236,53.5889,-36.6821,94.7266,159,0.7584,0.6433,1.0894,-46.191,27,0.8974,13258,4.0106,110.42
rg,1625266152429348857,1,0.3464,-1.0525,0.3772,237,149.7803,21.4233,34.9121,159,0.7544,0.6273,1.9601,-41.0837,27,0.8964,8010,4.0106,110.7851
rg,1625266152429365190,1,0.1826,-0.6028,0.2932,238,181.0913,38.9404,5.4932,159,0.7534,0.6163,2.9509,-33.9881,27,0.8944,8174,4.0106,109.9815
rg,1625266152429381764,1,-0.0557,0.0095,0.2932,239,187.8662,62.8052,-26.001,159,0.7544,0.6183,4.9271,-25.3463,28,0.8944,7898,4.0106,107.9269
rg,1625266152429399023,1,-0.1843,0.1294,0.1782,240,96.2524,87.5854,8.5449,159,0.7584,0.6293,9.6406,-20.0927,28,0.8944,8503,4.0106,107.0775
rg,1625266152429415857,1,-0.2085,0.0547,0.1067,241,9.2773,81.4819,26.2451,159,0.7644,0.6443,13.6445,-24.6756,28,0.8954,8467,4.0106,107.1597
rg,1625266152429432690,1,-0.2942,-0.3818,0.4058,242,-211.3647,17.7002,22.3999,159,0.7714,0.6543,15.2563,-33.6428,28,0.8994,8496,4.0106,107.4077
rg,1625266152429449949,1,-0.1355,-1.6753,2.22,243,-265.1367,-81.543,3.7231,159,0.7784,0.6663,12.339,-43.7875,28,0.9044,8246,4.0106,109.6327
rg,1625266152429466764,1,0.0576,-1.8896,0.6135,244,-60.6689,-97.8394,9.8877,159,0.7874,0.6763,9.3787,-46.6904,28,0.9084,9309,4.0106,112.5276
rg,1625266152429483598,1,0.1934,-1.1477,0.9468,245,-3.9673,-78.6743,-2.1362,159,0.7964,0.6813,6.7719,-45.2143,28,0.9124,8409,4.0106,113.8485
rg,1625266152429499968,1,0.1904,-0.8528,0.8574,246,68.2983,-58.4717,-11.1084,159,0.8104,0.6843,4.171,-42.3415,27,0.9154,8309,4.0106,115.1417
rg,1625266152429516653,1,0.2107,-0.7278,0.3625,247,66.7114,-56.4575,17.0288,159,0.8324,0.6903,2.2188,-40.3543,27,0.9144,8176,4.0106,117.0784
rg,1625266152429533264,1,0.3779,-0.9048,0.3188,248,26.4282,-66.4673,10.498,159,0.8574,0.7003,-0.4273,-40.3238,27,0.9134,8340,4.0106,119.0793
rg,1625266152429559357,1,0.3613,-0.9653,0.3147,249,23.6206,-51.5137,-2.6245,159,0.8724,0.7083,-2.8028,-40.5314,27,0.9134,8206,4.0106,120.3475
rg,1625266152429576357,1,0.2361,-0.8469,0.2827,250,13.4888,-15.5029,10.1318,159,0.8654,0.7194,-3.4913,-41.1576,28,0.9074,8225,4.0106,121.1182
rg,1625266152429592635,1,0.2061,-0.771,0.5061,251,-56.8237,-14.5264,16.6016,159,0.8184,0.7284,-3.8294,-44.0675,28,0.8954,8417,4.0106,122.0463
rg,1625266152429609746,1,0.0864,-0.8977,0.3933,252,-75.3174,-19.104,16.3574,159,0.7844,0.7324,-3.7481,-48.0199,28,0.8874,8297,4.0106,123.607
rg,1625266152429626098,1,0.178,-1.0005,0.4417,253,-57.4951,-30.6396,49.7437,159,0.7694,0.7344,-3.2474,-51.1403,28,0.8854,8513,4.0106,125.8824
rg,1625266152429642301,1,0.4807,-1.2126,0.6409,254,-25.3906,-16.9067,78.186,159,0.7694,0.7033,-1.8335,-52.662,27,0.8914,8354,4.0106,128.3699
rg,1625266152429658468,1,0.2673,-1.3284,0.6194,255,56.8848,46.0205,66.8945,159,0.7654,0.6803,1.0592,-50.8587,27,0.8944,8611,4.0106,128.5804
rg,1625266152429674764,1,0.3154,-1.2224,0.5332,256,92.7124,22.583,73.4253,159,0.7614,0.6613,2.6506,-46.6187,27,0.8944,8411,4.0106,128.9265
rg,1625266152840766153,1,-0.1685,0.0027,0.2544,257,142.2119,72.7539,-24.6582,159,0.7604,0.6363,5.2665,-39.7389,27,0.8944,24144,4.0106,126.3522
rg,1625266152840821616,1,-0.3115,0.0254,0.1736,258,24.6582,88.1958,7.3242,159,0.7654,0.6503,10.0753,-38.1775,27,0.8954,9595,4.0106,124.4477
rg,1625266152840842634,1,-0.3967,-0.6016,0.6389,259,-137.4512,2.6245,11.2305,159,0.7744,0.6693,9.2081,-46.6418,27,0.8994,14549,4.0106,126.2518
rg,1625266152840896468,1,-0.2468,-1.1331,1.6711,260,-253.479,-107.666,7.0801,159,0.7794,0.6803,6.6818,-55.7463,28,0.9034,7732,4.0106,129.8985
rg,1625266152840918079,1,0.1584,-1.7693,0.7131,261,-106.2622,-127.8076,12.207,159,0.7844,0.6903,3.9523,-60.0209,28,0.9084,8227,4.0106,134.4671
rg,1625266152840937227,1,0.3982,-1.3704,0.8057,262,2.4414,-66.4062,-6.1646,159,0.7914,0.6943,1.7162,-59.7835,28,0.9124,9440,4.0106,136.6467
rg,1625266152840956320,1,0.3232,-1.0801,0.8745,263,28.6865,-28.4424,-17.9443,159,0.8034,0.6963,0.2299,-57.3118,27,0.9174,8190,4.0106,137.012
rg,1625266152840977412,1,0.2126,-0.8184,0.4944,264,62.3169,-16.1743,-7.2021,159,0.8214,0.7033,-0.868,-54.8736,27,0.9194,8259,4.0106,137.3774
rg,1625266152840996320,1,0.1948,-0.8428,0.2803,265,44.0674,-6.7139,0.1221,159,0.8434,0.7133,-1.474,-53.7469,27,0.9204,8266,4.0106,137.6027
rg,1625266152841016171,1,0.1528,-0.8557,0.3259,266,36.3159,-2.7466,-7.2021,159,0.8594,0.7194,-2.0879,-52.8788,27,0.9225,7950,4.0106,137.5313
rg,1625266152841035171,1,0.1089,-0.8306,0.3586,267,31.6772,-2.6245,-6.958,159,0.8614,0.7294,-2.5386,-52.0748,28,0.9215,8480,4.0106,137.4611
rg,1625266152841052283,1,0.1477,-0.7634,0.5271,268,-29.9683,-16.7847,14.7095,159,0.8214,0.7374,-2.7313,-53.4296,28,0.9084,8515,4.0106,138.36
rg,1625266152841072023,1,0.1194,-0.9192,0.543,269,-92.4683,-34.668,13.0005,159,0.7834,0.7414,-3.2287,-57.419,28,0.8994,8062,4.0106,139.8143
rg,1625266152841089505,1,0.1721,-1.1865,0.5659,270,-56.0303,-42.0532,44.1895,159,0.7694,0.7394,-2.7537,-60.0447,28,0.8964,8527,4.0106,142.1885
rg,1625266152841113505,1,0.3464,-1.2878,0.6135,271,-29.2969,-38.3911,67.5049,159,0.7674,0.6943,-1.5743,-61.4753,27,0.8984,8091,4.0106,144.8556
rg,1625266152841133690,1,0.3389,-1.3188,0.7302,272,61.6455,7.4463,66.04,159,0.7624,0.6653,0.4246,-58.9939,27,0.8984,9667,4.0106,145.8893
rg,1625266152841152449,1,0.4268,-1.0374,0.4719,273,117.5537,-4.2114,61.9507,159,0.7604,0.6423,1.5904,-54.5071,27,0.8964,8063,4.0106,147.3461
rg,1625266152841170820,1,0.1379,-0.4958,0.3296,274,132.9346,17.2119,26.9165,159,0.7584,0.6223,1.7269,-48.6487,27,0.8954,8101,4.0106,146.2153
rg,1625266152841188616,1,0.0293,-0.2422,0.2161,275,158.0811,44.5557,-17.8223,159,0.7584,0.6113,2.1878,-42.3811,27,0.8934,8233,4.0106,144.4295
rg,1625266152841234745,1,-0.1426,0.0205,0.1875,276,129.3335,82.5806,-18.5547,159,0.7614,0.6203,5.5757,-36.0379,27,0.8894,8086,4.0106,141.8907
rg,1625266152841255708,1,-0.2537,-0.0139,0.1433,277,-8.9111,85.8154,13.1836,159,0.7644,0.6313,10.5137,-36.0382,27,0.8934,8259,4.0106,140.3374
rg,1625266152841273338,1,-0.3025,-0.1826,0.2283,278,-105.957,53.4668,13.916,159,0.7694,0.6443,13.8369,-40.5317,27,0.8954,8091,4.0106,139.3627
rg,1625266152841292023,1,-0.3787,-0.9492,1.4648,279,-260.5591,-56.7627,2.1362,159,0.7764,0.6583,12.2657,-50.2126,27,0.8994,8268,4.0106,141.1598
rg,1625266152841310153,1,-0.0569,-1.811,0.823,280,-135.9253,-117.8589,-1.2207,159,0.7874,0.6713,8.8522,-52.5135,27,0.9084,12806,4.0106,144.6497
rg,1625266152841328394,1,0.2708,-1.5056,0.8188,281,-5.9204,-84.0454,-7.5684,159,0.7954,0.6763,5.8941,-52.7676,27,0.9114,8646,4.0106,147.111
rg,1625266152841348097,1,0.2104,-0.8667,0.7783,282,53.833,-46.875,-20.6299,159,0.8064,0.6773,3.4602,-50.3466,27,0.9154,9306,4.0106,148.0791
rg,1625266152841366375,1,0.2166,-0.7708,0.4175,283,55.1758,-39.6729,-0.5493,159,0.8294,0.6873,1.7438,-48.5094,27,0.9174,8606,4.0106,149.2358
rg,1625266152841385042,1,0.2908,-0.8745,0.3093,284,27.9541,-35.7666,-0.4272,159,0.8504,0.6993,0.0469,-48.1789,27,0.9194,8858,4.0106,150.2671
rg,1625266152841402264,1,0.1899,-0.855,0.3193,285,25.0854,-27.2217,-8.8501,159,0.8574,0.7093,-1.0503,-48.4028,27,0.9194,8461,4.0106,150.4634
rg,1625266152841421116,1,0.1938,-0.7947,0.4207,286,-11.4136,-11.3525,0.4272,159,0.8294,0.7194,-1.7728,-49.3829,27,0.9114,8444,4.0106,150.8298
rg,1625266152841438671,1,0.1375,-0.803,0.5784,287,-89.6606,-18.6768,8.3618,159,0.7904,0.7264,-2.218,-53.1669,27,0.8984,8520,4.0106,151.6354
rg,1625266152841456949,1,0.0903,-1.0063,0.5359,288,-81.665,-28.7476,27.9541,159,0.7724,0.7274,-2.0501,-56.8199,27,0.8944,8452,4.0106,153.234
rg,1625266153277597449,1,0.5061,-1.2913,0.5347,289,49.5605,14.8926,68.6646,159,0.7624,0.6543,-0.0961,-54.475,27,0.8964,25346,4.0106,154.0377
rg,1625266153277631838,1,0.3567,-1.0388,0.4673,290,88.0737,48.4009,37.1704,159,0.7594,0.6323,1.5725,-51.382,27,0.8984,9054,4.0106,153.3637
rg,1625266153277652264,1,-0.0339,-0.4866,0.2791,291,128.418,75.7446,-22.3389,159,0.7594,0.6173,2.9461,-46.7074,27,0.8984,8052,4.0106,150.4816
rg,1625266153277671986,1,-0.2422,-0.0762,0.208,292,143.1885,92.3462,-25.9399,159,0.7604,0.6163,6.4787,-40.5726,28,0.8954,8598,4.0106,147.2994
rg,1625266153277690449,1,-0.293,-0.0005,0.1362,293,107.0557,91.6748,-2.5024,159,0.7644,0.6293,10.9705,-38.6517,28,0.8974,8371,4.0106,146.1651
rg,1625266153277708208,1,-0.3015,-0.1465,0.1567,294,-55.1758,28.0762,20.0195,159,0.7704,0.6473,13.9017,-40.979,28,0.8994,8766,4.0106,146.0075
rg,1625266153277725245,1,-0.0181,-1.5298,2.1223,295,-237.6709,-122.5586,9.8877,159,0.7834,0.6703,10.2386,-49.4229,27,0.9054,12907,4.0106,149.9338
rg,1625266153277765745,1,0.1921,-1.8518,0.5125,296,-42.0532,-114.8682,15.4419,159,0.7894,0.6793,7.215,-51.4443,27,0.9084,8149,4.0106,153.7555
rg,1625266153277784893,1,0.3782,-1.1196,0.7773,297,60.3027,-51.7578,-6.4697,159,0.7974,0.6843,4.8241,-49.0235,27,0.9124,8067,4.0106,155.1546
rg,1625266153277803245,1,0.3269,-0.8164,0.7324,298,86.4258,-29.48,-12.207,159,0.8124,0.6853,2.8418,-45.4954,27,0.9154,8341,4.0106,155.669
rg,1625266153277821338,1,0.2344,-0.6516,0.3223,299,77.5757,-14.4653,1.0376,159,0.8324,0.6953,1.6627,-43.049,28,0.9174,8020,4.0106,156.0515
rg,1625266153277839764,1,0.1765,-0.729,0.282,300,23.3154,0,3.6621,159,0.8444,0.7033,1.2053,-43.0706,28,0.9194,8846,4.0106,156.1292
rg,1625266153277867523,1,0.0457,-0.835,0.4729,301,-6.6528,7.8125,0.7935,159,0.8284,0.7133,1.2754,-45.644,28,0.9154,8306,4.0106,156.291
rg,1625266153277885504,1,0.0723,-0.9646,0.5952,302,-83.4961,-23.3154,5.9204,159,0.7914,0.7204,-0.124,-49.9543,27,0.9044,10367,4.0106,157.8605
rg,1625266153277902819,1,0.095,-1.0005,0.4863,303,-90.6982,-60.9131,13.6108,159,0.7754,0.7244,-1.3709,-54.1438,27,0.8994,8405,4.0106,160.1253
rg,1625266153277919893,1,0.4004,-1.075,0.512,304,-39.7949,-57.5562,55.481,159,0.7704,0.7123,-1.5289,-56.1894,27,0.8944,8104,4.0106,163.3002
rg,1625266153277936338,1,0.6257,-1.1938,0.894,305,-8.7891,9.0332,60.3027,159,0.7674,0.6713,-0.1473,-56.4335,27,0.8954,8260,4.0106,164.3275
rg,1625266153277953930,1,0.4265,-1.3164,0.6274,306,26.9775,54.6875,57.7393,159,0.7644,0.6423,2.3712,-55.6902,27,0.8914,8139,4.0106,163.7884
rg,1625266153277971301,1,0.2268,-1.2332,0.5955,307,69.2749,70.1904,41.8701,159,0.7614,0.6213,4.8876,-53.3302,27,0.8874,8195,4.0106,162.4402
rg,1625266153277988227,1,-0.1274,-0.7527,0.3533,308,130.127,64.0259,-9.0332,159,0.7574,0.5903,6.3598,-48.7955,27,0.8864,9155,4.0106,160.1781
rg,1625266153278005449,1,-0.2671,-0.2087,0.1765,309,166.1987,56.6406,-37.1094,159,0.7584,0.5783,8.2626,-42.5217,27,0.8854,8461,4.0106,157.5811
rg,1625266153278022930,1,-0.3184,-0.0376,0.1624,310,155.8228,51.7578,-26.7944,159,0.7624,0.5813,11.478,-37.7362,28,0.8854,8607,4.0106,156.5118
rg,1625266153278042171,1,-0.3145,0.019,0.0696,311,32.4097,13.5498,13.5498,159,0.7674,0.5933,14.3354,-35.9924,28,0.8874,8688,4.0106,156.7428
rg,1625266153278061301,1,-0.196,-0.3271,0.1802,312,-164.6729,-62.3169,22.3999,159,0.7744,0.6083,13.545,-42.8694,28,0.8924,8967,4.0106,158.8344
rg,1625266153278079301,1,0.1731,-1.3982,2.1799,313,-277.6489,-122.0703,11.9629,159,0.7824,0.6263,9.9965,-52.6836,28,0.8984,8680,4.0106,162.9984
rg,1625266153278097190,1,0.1794,-1.9592,0.48,314,-73.4863,-99.8535,6.4697,159,0.7904,0.6413,7.3284,-55.9849,27,0.9054,9275,4.0106,166.2927
rg,1625266153278114893,1,0.3901,-1.3037,0.7791,315,50.1099,-39.978,-15.686,159,0.7994,0.6483,5.0646,-53.993,27,0.9104,9144,4.0106,167.2205
rg,1625266153278131986,1,0.3337,-0.9341,0.7788,316,83.7402,-11.4746,-20.2637,159,0.8154,0.6503,3.8076,-49.7462,27,0.9144,8869,4.0106,166.9179
rg,1625266153278149134,1,0.241,-0.6711,0.2817,317,97.29,6.3477,0.9155,150,0.8374,0.6613,3.1469,-46.7534,28,0.9164,9312,4.0106,166.6686
rg,1625266153278178560,1,0.2021,-0.6865,0.2104,318,31.8604,11.2305,-4.4556,150,0.8444,0.6753,2.6023,-46.4617,28,0.9204,8936,4.0106,166.1621
rg,1625266153278253264,1,0.1611,-0.7935,0.4934,319,-38.5742,3.8452,2.3804,150,0.8264,0.6883,2.29,-48.445,28,0.9164,8557,4.0106,166.0998
rg,1625266153278275375,1,0.0647,-0.9077,0.488,320,-103.4546,-26.4282,5.9814,150,0.7854,0.6943,1.5798,-53.049,28,0.9074,8708,4.0106,167.0589
rg,1625266153624156301,1,0.5479,-1.1418,0.8811,321,-5.7373,-52.002,68.6646,150,0.7684,0.6633,1.6689,-53.1466,28,0.9004,24480,4.0106,170.3687
rg,1625266153624203986,1,0.6294,-1.3157,0.5137,322,46.9971,-18.8599,81.9702,150,0.7644,0.6413,2.8263,-51.7142,28,0.8994,8839,4.0106,-187.0696
rg,1625266153624264726,1,0.366,-1.0789,0.4553,323,108.3984,50.5371,45.2271,150,0.7624,0.6203,4.7233,-47.9817,27,0.8994,9470,4.0106,-187.5115
rg,1625266153624287375,1,0.021,-0.4299,0.1931,324,150.2075,81.9092,-3.9062,150,0.7604,0.6043,6.6179,-42.9229,27,0.8984,8587,4.0106,169.9598
rg,1625266153624307449,1,-0.1177,-0.2031,0.1689,325,167.4194,86.3647,-20.6909,150,0.7614,0.6063,10.4322,-36.4424,27,0.8974,8362,4.0106,167.5213
rg,1625266153624327319,1,-0.2148,0.0198,0.1208,326,112.3657,75.8667,6.5308,150,0.7664,0.6173,14.8611,-31.4475,27,0.8974,8473,4.0106,166.2389
rg,1625266153624347208,1,-0.2742,-0.1245,0.1411,327,-65.1855,34.729,20.9351,150,0.7704,0.6323,17.9519,-34.2974,28,0.8974,8133,4.0106,166.0884
rg,1625266153624367856,1,-0.3149,-0.7637,1.05,328,-251.6479,-59.4482,18.0054,150,0.7754,0.6443,16.4014,-43.7409,28,0.9014,8173,4.0106,168.2322
rg,1625266153624386912,1,-0.0864,-1.5007,2.1165,329,-257.2021,-108.0322,11.7188,150,0.7834,0.6563,13.34,-53.7159,28,0.9064,8702,4.0106,-188.2435
rg,1625266153624405319,1,0.1108,-1.8911,0.5369,330,-64.5752,-112.6099,6.7139,150,0.7914,0.6633,10.371,-56.2653,28,0.9094,8207,4.0106,-184.4862
rg,1625266153624424375,1,0.241,-1.2148,0.8708,331,30.2124,-47.9126,-12.9395,150,0.7974,0.6673,8.1082,-54.7639,27,0.9144,8561,4.0106,-183.1749
rg,1625266153624443745,1,0.1609,-0.7708,0.6233,332,68.4814,-34.2407,-12.9395,150,0.8074,0.6703,6.2046,-51.775,27,0.9184,8421,4.0106,-182.3746
rg,1625266153624479764,1,0.1819,-0.7673,0.4124,333,61.5234,-38.3301,-2.9297,150,0.8284,0.6743,4.3163,-49.7418,27,0.9204,8786,4.0106,-181.3283
rg,1625266153624503430,1,0.2524,-0.9365,0.2559,334,32.6538,-22.3999,-3.2349,150,0.8574,0.6873,2.9206,-49.3205,27,0.9225,13696,4.0106,-180.802
rg,1625266153624521356,1,0.1418,-0.8228,0.3445,335,26.8555,10.437,-0.6104,150,0.8494,0.6983,2.7466,-48.5961,27,0.9215,11751,4.0106,-181.1548
rg,1625266153624540708,1,0.1641,-0.7166,0.5366,336,-63.6597,-20.0195,16.2964,150,0.8074,0.7073,2.2164,-51.2584,27,0.9104,8080,4.0106,-180.1191
rg,1625266153624560226,1,0.0254,-0.8501,0.3716,337,-95.2148,-21.5454,11.4746,150,0.7804,0.7093,1.9267,-55.6042,27,0.9024,8085,4.0106,-179.1706
rg,1625266153624578449,1,0.0776,-0.9775,0.4636,338,-76.9653,-17.7002,37.4756,150,0.7704,0.7053,3.1214,-57.9183,27,0.8994,8257,4.0106,-176.5858
rg,1625266153624596078,1,0.5469,-1.2246,0.7651,339,-37.8418,-27.4048,84.7168,150,0.7684,0.6713,4.621,-59.1428,27,0.9054,9511,4.0106,-173.8711
rg,1625266153624613338,1,0.4368,-1.3689,0.4805,340,45.4712,17.7612,69.3359,150,0.7654,0.6483,6.5243,-57.6701,27,0.9044,8613,4.0106,-173.0749
rg,1625266153624630930,1,0.2402,-1.0413,0.4453,341,94.1772,50.415,32.0435,150,0.7614,0.6243,7.986,-54.3809,27,0.9034,8957,4.0106,-174.1069
rg,1625266153624649708,1,-0.0862,-0.4822,0.2429,342,128.7842,62.7441,-21.1792,150,0.7594,0.6043,8.8923,-49.9522,27,0.9034,8719,4.0106,-176.6813
rg,1625266153624669319,1,-0.2839,-0.1208,0.1912,343,136.5356,65.3076,-31.25,150,0.7604,0.5993,11.6874,-44.8291,27,0.9034,8657,4.0106,-179.3406
rg,1625266153624688764,1,-0.3218,-0.0579,0.1458,344,92.041,62.9883,-0.7935,150,0.7654,0.6103,15.3827,-41.4555,27,0.9024,8904,4.0106,-181.055
rg,1625266153624706782,1,-0.2715,-0.218,0.1221,345,-56.4575,-17.5171,24.353,150,0.7694,0.6293,16.748,-43.8921,28,0.9044,8670,4.0106,-179.9797
rg,1625266153624725486,1,-0.1519,-0.8208,1.0474,346,-221.9238,-115.3564,22.8271,150,0.7764,0.6433,13.9454,-51.3829,28,0.9084,10448,4.0106,-175.7156
rg,1625266153624743801,1,0.1479,-1.8459,0.9312,347,-129.3945,-124.8169,17.0898,150,0.7834,0.6543,10.865,-56.0232,28,0.9134,8984,4.0106,-171.2686
rg,1625266153624761449,1,0.3806,-1.5686,0.5881,348,24.8413,-83.9233,13.4277,150,0.7894,0.6633,8.5196,-55.0153,27,0.9184,8648,4.0106,-168.2572
rg,1625266153624779115,1,0.291,-0.812,0.6992,349,81.3599,-34.1187,-10.376,150,0.7984,0.6663,6.4635,-51.4278,27,0.9235,9577,4.0106,-167.3993
rg,1625266153624796856,1,0.2087,-0.7146,0.3154,350,79.1626,-33.8745,-1.6479,150,0.8154,0.6673,4.7298,-48.7232,27,0.9245,8524,4.0106,-166.4798
rg,1625266153624814615,1,0.229,-0.8174,0.3135,351,54.3213,-35.9497,-0.9155,150,0.8384,0.6743,2.9732,-47.7655,27,0.9255,8610,4.0106,-165.6642
rg,1625266153624833226,1,0.1438,-0.9353,0.2817,352,45.4712,-28.1982,-7.6904,150,0.8544,0.6843,1.5523,-46.8828,28,0.9255,8453,4.0106,-165.095
rg,1625266153963849263,1,0.0991,-0.8044,0.4998,353,-87.4023,-62.8052,4.3945,150,0.7784,0.7063,-0.2544,-50.777,28,0.9034,25036,4.0106,-163.0882
rg,1625266153963890189,1,0.1995,-0.9473,0.4548,354,-39.856,-53.6499,52.124,150,0.7654,0.7063,-0.3481,-52.8965,28,0.8974,9292,4.0106,-160.1057
rg,1625266153963911152,1,0.4849,-1.0657,0.4971,355,-30.6396,-47.4854,85.9375,150,0.7654,0.6723,0.4512,-54.5452,28,0.9004,7859,4.0106,-156.534
rg,1625266153963934041,1,0.605,-1.2925,0.7886,356,4.0894,30.8838,69.397,150,0.7604,0.6423,2.5619,-54.5042,28,0.9014,8031,4.0106,-155.9409
rg,1625266153963954356,1,0.4395,-1.1235,0.4473,357,68.8477,51.1475,46.936,150,0.7574,0.6203,4.4114,-52.2875,28,0.8994,8192,4.0106,-156.5138
rg,1625266153963973282,1,0.24,-0.8694,0.3418,358,95.459,70.1294,5.249,150,0.7544,0.6073,6.0581,-49.0896,27,0.8984,8211,4.0106,-158.605
rg,1625266153963991930,1,-0.1077,-0.2869,0.2522,359,123.1079,90.3931,-45.9595,150,0.7554,0.5983,7.5541,-44.6154,27,0.8964,8140,4.0106,-162.5066
rg,1625266153964010652,1,-0.366,-0.1008,0.2524,360,80.2612,114.3799,-17.0898,150,0.7574,0.6063,12.0468,-41.492,27,0.8964,8457,4.0106,-166.0633
rg,1625266153964028930,1,-0.4485,-0.3284,0.2766,361,14.4653,93.811,12.7563,150,0.7614,0.6183,15.203,-44.3555,27,0.8984,8220,4.0106,-166.6493
rg,1625266153964047393,1,-0.4475,-0.5789,0.4568,362,-134.5825,-28.3813,20.874,150,0.7674,0.6283,15.6667,-49.5904,28,0.8994,8514,4.0106,-165.2921
rg,1625266153964066652,1,-0.0781,-1.3552,1.4089,363,-181.0303,-140.0757,15.8081,150,0.7744,0.6413,12.2669,-55.3631,28,0.9054,8416,4.0106,-160.2292
rg,1625266153964084874,1,0.3416,-1.4199,0.6509,364,-48.0347,-120.8496,15.564,150,0.7844,0.6573,9.3995,-55.197,28,0.9114,9201,4.0106,-157.033
rg,1625266153964102986,1,0.219,-0.9355,0.6636,365,37.0483,-42.9688,-13.7939,150,0.7904,0.6603,7.1721,-53.5295,27,0.9164,8315,4.0106,-155.9507
rg,1625266153964121282,1,0.1772,-0.821,0.5613,366,41.1987,-36.8042,-8.9722,150,0.7994,0.6653,5.2829,-51.9818,27,0.9204,8236,4.0106,-155.0242
rg,1625266153964163615,1,0.2952,-0.9175,0.4683,367,38.5742,-46.6309,6.3477,150,0.8194,0.6663,3.503,-50.725,27,0.9235,8242,4.0106,-153.4509
rg,1625266153964186486,1,0.4019,-1.0164,0.2866,368,55.8472,-34.9731,11.3525,150,0.8464,0.6793,2.0321,-49.2697,27,0.9245,10812,4.0106,-152.1505
rg,1625266153964205467,1,0.3752,-0.856,0.2065,369,70.9839,19.8364,8.4229,150,0.8584,0.6893,1.8533,-47.3951,27,0.9245,8321,4.0106,-152.5733
rg,1625266153964223523,1,0.27,-0.6711,0.4473,370,23.1934,65.3687,18.5547,150,0.8484,0.6973,3.3759,-46.8581,27,0.9204,8327,4.0106,-154.0079
rg,1625266153964242763,1,0.2314,-0.6589,0.605,371,-32.7759,67.688,21.9116,150,0.8064,0.7043,5.0987,-49.9981,27,0.9054,8394,4.0106,-155.6259
rg,1625266153964261486,1,-0.0684,-0.8606,0.5728,372,-84.5947,61.3403,9.8267,150,0.7754,0.7103,6.8577,-53.791,27,0.8954,8647,4.0106,-157.347
rg,1625266153964280097,1,0.1487,-1.1218,0.5889,373,-51.6968,6.5308,58.6548,150,0.7674,0.7093,8.3926,-56.0259,27,0.8904,8698,4.0106,-156.238
rg,1625266153964298319,1,0.4888,-1.2173,0.9241,374,-18.4326,11.5356,57.8003,150,0.7664,0.6723,9.5666,-56.4838,27,0.8924,8632,4.0106,-155.3113
rg,1625266153964316004,1,0.2812,-1.2229,0.5505,375,60.9131,29.4189,52.063,150,0.7644,0.6533,11.1164,-54.3689,27,0.8934,8647,4.0106,-155.1788
rg,1625266153964333430,1,0.2002,-1.0415,0.4946,376,75.3784,23.1934,33.8135,150,0.7594,0.6403,12.2415,-51.8823,27,0.8944,8717,4.0106,-155.2289
rg,1625266153964351263,1,-0.074,-0.4927,0.2053,377,132.3853,22.3389,-22.8882,150,0.7594,0.6313,11.9659,-47.4794,27,0.8914,8748,4.0106,-156.6656
rg,1625266153964368782,1,-0.1887,-0.1104,0.168,378,127.9297,28.8086,-22.8271,150,0.7614,0.6343,13.313,-42.2685,27,0.8914,8875,4.0106,-158.0136
rg,1625266153964386523,1,-0.2725,-0.1191,0.0874,379,23.3154,16.4795,22.7661,150,0.7654,0.6463,16.1012,-41.4881,27,0.8934,8850,4.0106,-157.8046
rg,1625266153964404393,1,-0.1587,-0.4729,0.2957,380,-132.0801,-76.7822,35.9497,150,0.7714,0.6603,14.909,-46.5077,27,0.8964,9105,4.0106,-154.6957
rg,1625266153964422097,1,0.0627,-0.8572,1.126,381,-196.3501,-118.2251,33.5083,150,0.7774,0.6683,11.6209,-52.6193,27,0.9014,8498,4.0106,-150.0271
rg,1625266153964439523,1,0.2593,-1.7683,0.8264,382,-97.7783,-90.9424,20.5688,150,0.7834,0.6753,9.4517,-56.3477,27,0.9054,8639,4.0106,-146.6032
rg,1625266153964456967,1,0.2739,-1.4333,0.6238,383,30.3345,-31.6162,0.4883,150,0.7884,0.6783,8.0149,-55.3615,28,0.9104,8481,4.0106,-145.6037
rg,1625266153964474689,1,0.0312,-0.7957,0.8062,384,70.4956,17.395,-27.6489,150,0.7964,0.6813,7.1557,-52.2716,28,0.9154,9761,4.0106,-146.7767
rg,1625266154313169837,1,0.144,-0.8137,0.4473,385,-8.0566,-51.6357,3.418,150,0.8194,0.7013,5.3924,-52.7427,28,0.9245,25788,4.0106,-145.0832
rg,1625266154313227911,1,0.2556,-0.8616,0.4355,386,-48.8892,-66.2842,9.6436,150,0.7944,0.7113,2.9462,-56.485,28,0.9174,8666,4.0106,-142.3482
rg,1625266154313248226,1,0.3745,-0.9497,0.5017,387,-103.4546,-66.1621,-6.4087,150,0.7794,0.7143,0.5059,-60.749,28,0.9054,8406,4.0106,-140.1998
rg,1625266154313267189,1,0.3467,-0.968,0.4326,388,-30.0903,-6.0425,15.0757,150,0.7754,0.7063,0.1948,-62.13,28,0.9004,8396,4.0106,-139.6954
rg,1625266154313285430,1,0.6763,-1.0789,0.6956,389,-12.3291,30.1514,56.8237,150,0.7734,0.6833,1.6935,-62.4372,28,0.9014,8071,4.0106,-139.7134
rg,1625266154313318985,1,0.668,-1.2124,0.5767,390,4.5166,48.0347,51.3306,150,0.7704,0.6783,3.3207,-62.3535,28,0.9024,8185,4.0106,-140.4794
rg,1625266154313338837,1,0.3752,-1.1401,0.3875,391,54.7485,102.8442,17.2729,150,0.7684,0.6693,5.0712,-60.7327,28,0.9014,8332,4.0106,-143.8143
rg,1625266154313356708,1,-0.0908,-0.5942,0.2485,392,111.2061,147.2778,-22.2778,150,0.7674,0.6623,7.4397,-57.1447,28,0.8984,8454,4.0106,-149.3689
rg,1625266154313374633,1,-0.4089,-0.2246,0.2981,393,111.6943,143.4326,-13.4277,150,0.7704,0.6653,11.7291,-52.9834,28,0.8974,8871,4.0106,-154.3182
rg,1625266154313392208,1,-0.54,-0.269,0.3528,394,-0.1831,49.0112,22.7051,150,0.7774,0.6813,15.0585,-52.8191,28,0.8974,13898,4.0106,-155.278
rg,1625266154313410096,1,-0.2876,-0.7834,0.8997,395,-136.3525,-116.7603,32.2876,150,0.7824,0.6893,13.3897,-56.6257,28,0.8994,7950,4.0106,-150.4506
rg,1625266154313427633,1,0.3069,-1.5259,1.1365,396,-101.7456,-163.147,30.5176,150,0.7884,0.6963,10.1191,-59.2538,28,0.9014,7956,4.0106,-144.0922
rg,1625266154313444800,1,0.4778,-1.4353,0.6526,397,-32.4707,-134.4604,27.771,150,0.7984,0.6973,7.6653,-58.0825,28,0.9054,9738,4.0106,-140.6945
rg,1625266154313462504,1,0.4253,-1.1528,0.7202,398,55.7861,-44.6167,-5.3101,150,0.8074,0.7033,5.5583,-55.6829,28,0.9084,8050,4.0106,-139.3249
rg,1625266154313479430,1,0.1782,-0.792,0.5664,399,85.5713,1.5259,-15.3809,150,0.8244,0.7093,4.4742,-52.2443,28,0.9094,9086,4.0106,-139.7509
rg,1625266154313497059,1,-0.0039,-0.6719,0.3389,400,62.561,9.4604,0.1831,150,0.8324,0.7174,4.5529,-50.1932,28,0.9124,8299,4.0106,-140.0794
rg,1625266154313514467,1,-0.0825,-0.6091,0.3608,401,-39.4287,-23.5596,13.855,150,0.8124,0.7264,4.4798,-52.0305,28,0.9104,8566,4.0106,-139.0234
rg,1625266154313531374,1,-0.0532,-0.6587,0.4036,402,-104.4312,-72.0825,10.437,150,0.7864,0.7304,3.1204,-56.2694,28,0.8994,8715,4.0106,-136.4533
rg,1625266154313548393,1,0.0684,-0.7905,0.4648,403,-116.7603,-120.1782,6.7139,150,0.7744,0.7314,0.5743,-60.9086,28,0.8914,8626,4.0106,-132.2039
rg,1625266154313565152,1,0.5188,-1.0247,0.6089,404,-77.2705,-106.9336,69.2139,150,0.7714,0.7033,0.1335,-63.8904,28,0.8954,8490,4.0106,-127.115
rg,1625266154313582245,1,0.8577,-1.4856,0.6497,405,-27.4658,-57.1899,81.1157,150,0.7644,0.6863,1.0113,-65.0281,28,0.8964,8655,4.0106,-123.6519
rg,1625266154313600226,1,0.8994,-1.5073,0.479,406,9.8877,-27.5879,78.2471,150,0.7614,0.6683,2.5779,-63.2544,28,0.8954,8626,4.0106,-124.1255
rg,1625266154313623782,1,0.5178,-1.0452,0.29,407,85.8154,102.0508,22.9492,150,0.7584,0.6423,4.2277,-60.4066,28,0.8954,8841,4.0106,-127.3497
rg,1625266154313643059,1,-0.0718,-0.3933,0.2031,408,122.6807,182.373,-38.0249,150,0.7574,0.6283,6.9278,-56.277,27,0.8944,8855,4.0106,-134.3792
rg,1625266154313661041,1,-0.4824,-0.1938,0.2224,409,98.2056,206.2988,-12.2681,150,0.7594,0.6303,13.0286,-53.267,27,0.8944,8826,4.0106,-141.408
rg,1625266154313678911,1,-0.7112,-0.363,0.2236,410,-26.5503,106.1401,24.0479,150,0.7634,0.6383,17.8955,-55.2222,27,0.8954,9088,4.0106,-144.454
rg,1625266154313708763,1,-0.6501,-0.7798,0.6453,411,-155.4565,-82.0312,16.9678,150,0.7674,0.6463,17.3132,-60.254,28,0.8964,8580,4.0106,-141.1327
rg,1625266154313728374,1,-0.4153,-1.0803,1.1709,412,-180.2368,-152.0996,21.8506,150,0.7754,0.6553,15.2543,-65.0495,28,0.9044,8634,4.0106,-134.879
rg,1625266154313746356,1,0.335,-1.4346,0.5903,413,-25.8179,-143.2495,18.6157,150,0.7824,0.6693,12.4746,-64.8031,28,0.9074,14147,4.0106,-129.2368
rg,1625266154313763448,1,0.3796,-1.0227,0.6355,414,23.3154,-69.7021,-10.2539,150,0.7884,0.6753,9.7631,-63.1489,27,0.9114,8530,4.0106,-126.8243
rg,1625266154313781708,1,0.3088,-0.8281,0.5713,415,26.6724,-34.9121,-11.0474,150,0.7974,0.6773,7.707,-61.6177,27,0.9144,8836,4.0106,-125.7409
rg,1625266154313799967,1,0.3589,-0.9097,0.5488,416,28.6255,-25.8179,-0.8545,150,0.8144,0.6793,6.0516,-60.5016,27,0.9174,8525,4.0106,-124.8781
rg,1625266154651757781,1,0.2878,-0.8188,0.092,417,88.6841,77.3926,-8.9111,150,0.8714,0.7023,6.3608,-58.1084,27,0.9194,25734,4.0106,-127.8528
rg,1625266154651801059,1,0.0608,-0.5491,0.3108,418,59.2041,137.9395,10.9863,150,0.8734,0.7093,9.2211,-56.431,27,0.9194,8768,4.0106,-132.3207
rg,1625266154651831615,1,-0.1833,-0.5613,0.6362,419,-49.3774,82.3975,27.771,150,0.8264,0.7153,12.0489,-58.2137,27,0.9124,8504,4.0106,-134.4455
rg,1625266154651860985,1,-0.218,-0.6909,0.5908,420,-101.9287,17.4561,26.9775,150,0.7864,0.7194,13.3075,-62.3334,28,0.9004,8169,4.0106,-134.5293
rg,1625266154651888818,1,-0.0718,-1.04,0.5457,421,-108.5815,-78.2471,38.269,150,0.7704,0.7214,12.9383,-65.8371,28,0.8974,8154,4.0106,-130.9402
rg,1625266154651916374,1,0.5007,-1.3167,0.627,422,-43.1519,-109.375,84.8999,150,0.7664,0.7013,13.0769,-66.2526,28,0.8954,8432,4.0106,-125.4145
rg,1625266154651943356,1,0.5627,-1.2888,0.8672,423,17.6392,-23.1934,51.3916,150,0.7644,0.6613,13.3322,-64.7528,28,0.8994,8668,4.0106,-123.6057
rg,1625266154651969615,1,0.0781,-0.8958,0.4927,424,84.0454,33.3862,2.8687,150,0.7594,0.6223,13.3394,-61.5139,28,0.8994,16952,4.0106,-124.764
rg,1625266154651995004,1,-0.3228,-0.5291,0.2549,425,99.4263,45.8984,-30.0903,150,0.7584,0.5983,13.2343,-57.4745,28,0.8984,7990,4.0106,-127.4639
rg,1625266154652020948,1,-0.439,-0.3733,0.2039,426,128.8452,46.936,-45.8374,150,0.7594,0.5933,14.0137,-53.0492,28,0.8984,7984,4.0106,-130.0932
rg,1625266154652046541,1,-0.4587,-0.1272,0.1199,427,87.4023,4.5776,-0.9155,163,0.7624,0.6003,15.956,-49.4909,27,0.8984,7964,3.9985,-130.1758
rg,1625266154652073207,1,-0.3892,-0.0986,0.1001,428,29.1748,-45.7153,11.2305,163,0.7674,0.6103,15.0326,-50.9076,27,0.8994,8028,3.9985,-126.7698
rg,1625266154652099207,1,-0.2468,-0.4033,0.2876,429,-144.165,-140.9912,9.9487,163,0.7734,0.6253,12.4539,-55.6203,27,0.9024,8612,3.9985,-121.9217
rg,1625266154652189781,1,0.3062,-1.45,1.9097,430,-221.4355,-190.3076,19.4092,163,0.7794,0.6423,8.5133,-62.437,27,0.9074,8307,3.9985,-114.6968
rg,1625266154652216893,1,0.4973,-1.8813,0.467,431,-35.2783,-124.3896,20.2026,163,0.7854,0.6523,6.1218,-63.7229,28,0.9124,8579,3.9985,-109.9232
rg,1625266154652242800,1,0.5852,-1.1978,0.7219,432,29.48,-74.1577,6.8359,163,0.7924,0.6533,4.5231,-60.8696,28,0.9164,8734,3.9985,-109.7067
rg,1625266154652267874,1,0.4885,-0.8748,0.7026,433,92.2241,28.8696,-12.207,163,0.8064,0.6603,3.6321,-56.9181,28,0.9204,8415,3.9985,-110.962
rg,1625266154652292985,1,0.2229,-0.6838,0.1768,434,91.3696,51.9409,-3.2959,163,0.8334,0.6723,4.0444,-54.763,28,0.9225,11076,3.9985,-113.1142
rg,1625266154652341541,1,0.1321,-0.6914,0.177,435,56.4575,75.4395,-3.7231,163,0.8494,0.6823,5.1195,-53.5009,27,0.9235,8367,3.9985,-115.7225
rg,1625266154652368059,1,-0.0996,-0.8152,0.5588,436,-2.8687,86.792,4.8218,163,0.8474,0.6903,7.3374,-53.9784,27,0.9245,8492,3.9985,-118.4352
rg,1625266154652393485,1,-0.105,-0.9197,0.5991,437,-73.4863,-17.5171,15.4419,163,0.8054,0.6993,7.3749,-56.8959,27,0.9134,8994,3.9985,-117.5124
rg,1625266154652433004,1,0.0793,-0.9875,0.5601,438,-90.6372,-67.4438,18.8599,163,0.7774,0.7033,6.1755,-60.3198,28,0.9014,8741,3.9985,-114.8017
rg,1625266154652459578,1,0.1958,-1.0347,0.5762,439,-66.8335,-69.397,37.4146,163,0.7704,0.7023,5.9612,-61.5577,28,0.8994,9098,3.9985,-111.0896
rg,1625266154652484541,1,0.592,-1.1431,0.76,440,-22.9492,-59.2041,66.1621,163,0.7684,0.6793,6.066,-61.9202,28,0.9044,8427,3.9985,-107.7155
rg,1625266154652508930,1,0.574,-1.2947,0.5371,441,19.4092,-10.1318,56.0303,163,0.7654,0.6623,6.7644,-61.1783,28,0.9054,8312,3.9985,-106.3186
rg,1625266154652534263,1,0.3052,-1.0967,0.4624,442,67.4438,35.0342,17.395,163,0.7604,0.6443,7.2428,-58.8118,27,0.9054,8484,3.9985,-107.2398
rg,1625266154652559133,1,-0.0459,-0.5593,0.2437,443,111.3281,48.9502,-26.6113,163,0.7594,0.6333,7.3001,-54.9439,27,0.9054,8493,3.9985,-109.5193
rg,1625266154652677133,1,-0.2676,-0.1802,0.1655,444,131.1646,60.1807,-28.1982,163,0.7614,0.6343,9.3284,-49.8693,27,0.9054,8475,3.9985,-112.0432
rg,1625266154652705911,1,-0.2913,-0.1084,0.1323,445,97.1069,56.0913,-2.5024,163,0.7644,0.6463,12.4875,-46.0969,27,0.9054,8327,3.9985,-113.7116
rg,1625266154652732522,1,-0.2896,-0.2471,0.1011,446,-39.2456,-4.8218,23.6206,163,0.7694,0.6593,14.3613,-48.0556,28,0.9064,8586,3.9985,-113.0518
rg,1625266154652758041,1,-0.2114,-0.7612,0.7991,447,-195.6787,-108.8257,21.7285,163,0.7754,0.6693,12.2108,-54.7379,28,0.9094,9614,3.9985,-108.949
rg,1625266154652784318,1,0.2017,-1.7339,1.0728,448,-130.8594,-131.5918,18.8599,163,0.7824,0.6743,9.2983,-59.1635,28,0.9134,8855,3.9985,-104.0439
rg,1625266155004307355,1,0.3257,-0.8433,0.7227,449,66.1621,-2.5024,-17.8223,163,0.8014,0.6793,8.0557,-56.0406,27,0.9184,25778,3.9985,-104.8199
rg,1625266155004356411,1,0.1819,-0.7424,0.4519,450,64.209,16.3574,-10.1929,163,0.8224,0.6853,7.3239,-53.675,27,0.9225,8927,3.9985,-105.6277
rg,1625266155004377559,1,0.1287,-0.8591,0.3445,451,42.3584,7.9956,-8.2397,163,0.8434,0.6943,6.6623,-52.5963,28,0.9235,8171,3.9985,-106.1631
rg,1625266155004397466,1,0.0308,-0.8101,0.3247,452,43.0298,25.9399,1.2207,163,0.8574,0.6993,7.0001,-51.5757,28,0.9235,8397,3.9985,-107.0334
rg,1625266155004416966,1,0.0227,-0.7322,0.4856,453,18.6157,2.3804,10.8643,163,0.8574,0.7083,7.0626,-50.9909,28,0.9194,9245,3.9985,-106.8605
rg,1625266155004436040,1,0.2554,-0.7068,0.6458,454,-67.5659,-42.6025,25.6348,163,0.8034,0.7153,5.9833,-53.3169,28,0.9054,14358,3.9985,-104.84
rg,1625266155004454503,1,0.3547,-0.9834,0.6506,455,-129.9438,-48.8892,27.5879,163,0.7764,0.7153,4.93,-58.3934,27,0.8914,9341,3.9985,-102.5689
rg,1625266155004473929,1,0.4722,-1.2358,0.5,456,-82.3975,-34.729,53.2837,163,0.7694,0.7073,5.1496,-61.8266,27,0.8864,8028,3.9985,-100.3027
rg,1625266155004521189,1,0.5234,-1.2881,0.8784,457,-44.3115,-7.6904,59.8145,163,0.7634,0.6623,7.0306,-62.1478,27,0.8894,7925,3.9985,-101.0385
rg,1625266155004542337,1,0.3662,-1.302,0.5933,458,20.9961,63.9038,54.7485,163,0.7594,0.6423,9.3232,-61.6034,28,0.8884,8111,3.9985,-102.3033
rg,1625266155004560652,1,0.1277,-1.2493,0.5981,459,60.1807,40.1611,24.1089,163,0.7584,0.6223,10.3713,-59.4626,28,0.8874,8117,3.9985,-103.275
rg,1625266155004578503,1,-0.2034,-0.9094,0.3523,460,112.4268,24.4141,-20.0195,163,0.7554,0.6083,10.2782,-55.5583,28,0.8864,8558,3.9985,-104.6102
rg,1625266155004598466,1,-0.3398,-0.6394,0.2209,461,142.0898,19.4092,-32.8369,163,0.7554,0.6013,10.9007,-50.5201,28,0.8864,8204,3.9985,-106.0517
rg,1625266155004618003,1,-0.3157,-0.2058,0.1035,462,158.02,-17.4561,7.6904,163,0.7574,0.6083,12.2064,-44.3481,27,0.8854,8729,3.9985,-105.281
rg,1625266155004636059,1,-0.0247,-0.0591,0.0073,463,77.0874,-106.0791,40.4663,163,0.7604,0.6213,10.7336,-41.7688,27,0.8854,8237,3.9985,-101.3852
rg,1625266155004666818,1,0.2224,-0.2131,0.0742,464,-97.0459,-148.1934,36.438,163,0.7654,0.6333,5.6564,-45.6779,27,0.8884,8584,3.9985,-96.2747
rg,1625266155004686596,1,0.3801,-0.4236,0.3123,465,-193.4204,-137.5732,33.9355,163,0.7714,0.6453,2.0088,-52.5884,27,0.8934,8424,3.9985,-91.1134
rg,1625266155004705115,1,0.7598,-1.8264,1.7051,466,-204.6509,34.9731,27.5269,163,0.7804,0.6523,2.9552,-60.5404,28,0.8984,8615,3.9985,-91.6207
rg,1625266155004722763,1,0.2073,-1.8853,0.4998,467,-5.188,89.2944,7.2021,163,0.7864,0.6553,4.569,-61.4993,28,0.9024,8482,3.9985,-94.644
rg,1625266155004741429,1,-0.1316,-1.0066,0.8706,468,79.7119,109.6802,-22.0947,163,0.7944,0.6543,6.0347,-58.2114,28,0.9064,8800,3.9985,-98.8583
rg,1625266155004760355,1,-0.1631,-0.6418,0.519,469,100.0366,85.9375,-10.498,163,0.8114,0.6573,7.2694,-54.3003,28,0.9094,8705,3.9985,-100.5008
rg,1625266155004777374,1,-0.0981,-0.6794,0.4382,470,67.2607,6.5918,1.5259,163,0.8364,0.6643,7.4608,-51.74,27,0.9114,8634,3.9985,-100.6901
rg,1625266155004797059,1,0.0027,-0.7988,0.3196,471,32.8369,-33.4473,4.8828,163,0.8594,0.6713,6.4921,-50.9236,27,0.9134,8317,3.9985,-99.5991
rg,1625266155004854411,1,0.0532,-0.8184,0.3464,472,28.9917,-30.4565,7.3242,163,0.8724,0.6773,5.5678,-50.2701,27,0.9144,8444,3.9985,-98.5383
rg,1625266155004875726,1,0.1096,-0.7998,0.4285,473,15.625,-37.7808,8.9111,163,0.8714,0.6843,4.3118,-50.7179,27,0.9114,8335,3.9985,-96.9113
rg,1625266155004894226,1,0.1995,-0.6729,0.5122,474,-50.5981,-35.3394,19.2261,163,0.8274,0.6893,3.3582,-52.6961,28,0.8974,8485,3.9985,-95.3163
rg,1625266155004912800,1,0.2236,-0.8281,0.5835,475,-121.7041,-39.4287,15.8691,163,0.7924,0.6943,2.3649,-57.5384,28,0.8834,8345,3.9985,-93.6376
rg,1625266155004932466,1,0.2869,-1.0754,0.4412,476,-91.9189,-39.1846,39.6729,163,0.7754,0.6993,2.3082,-61.4955,28,0.8764,8509,3.9985,-91.4789
rg,1625266155004950207,1,0.4888,-1.1387,0.4609,477,-65.3687,-42.1753,60.6079,163,0.7724,0.6863,3.1012,-62.7669,27,0.8824,8353,3.9985,-89.8082
rg,1625266155004968503,1,0.4834,-1.2339,0.6755,478,-0.1221,52.1851,47.5464,163,0.7664,0.6573,4.8818,-62.7728,27,0.8844,8577,3.9985,-90.8032
rg,1625266155004987263,1,0.2693,-1.2886,0.6228,479,38.6963,71.3501,39.4287,163,0.7634,0.6393,6.9864,-61.457,27,0.8844,8435,3.9985,-92.618
rg,1625266155005006392,1,-0.1655,-1.0798,0.4067,480,101.0132,63.1104,-13.3667,163,0.7604,0.6263,7.8346,-58.0422,27,0.8844,8526,3.9985,-95.1244
rg,1625266155355748485,1,-0.2549,-0.0669,0.1843,481,128.7231,10.437,12.2681,163,0.7644,0.6323,10.0937,-52.0316,28,0.8844,24106,3.9985,-94.9767
rg,1625266155355794855,1,-0.1426,-0.1509,0.1548,482,-20.6909,-45.105,30.0903,163,0.7684,0.6423,10.8418,-52.1858,28,0.8864,8720,3.9985,-92.7276
rg,1625266155355817874,1,0.0037,-0.6562,0.7361,483,-111.6333,-83.374,24.1089,163,0.7744,0.6493,8.5397,-58.5653,28,0.8894,7777,3.9985,-88.2004
rg,1625266155355838244,1,0.3633,-1.3381,1.8618,484,-213.8672,-122.9858,23.8037,163,0.7794,0.6573,6.45,-65.5704,28,0.8934,8597,3.9985,-83.2053
rg,1625266155355857207,1,0.3491,-1.863,0.5398,485,-47.3633,-64.7583,26.7944,163,0.7864,0.6603,5.2604,-64.9497,28,0.8974,10598,3.9985,-81.391
rg,1625266155355909744,1,0.3032,-0.8997,0.8015,486,47.4854,-8.1177,-10.2539,163,0.7924,0.6653,4.0444,-61.5003,28,0.9004,8007,3.9985,-82.135
rg,1625266155355932762,1,0.2195,-0.7371,0.6316,487,83.1909,18.1885,-15.8691,163,0.8094,0.6683,3.2097,-57.7632,28,0.9054,9078,3.9985,-83.0739
rg,1625266155355953855,1,0.1335,-0.7263,0.2974,488,61.1572,15.1367,3.7231,163,0.8314,0.6783,3.1601,-55.7219,28,0.9074,7824,3.9985,-83.5321
rg,1625266155355972374,1,0.0122,-0.7666,0.3245,489,38.269,30.2124,7.4463,163,0.8494,0.6893,3.9326,-54.6802,28,0.9104,7982,3.9985,-84.3846
rg,1625266155355990651,1,-0.0522,-0.7812,0.3953,490,28.0151,22.3389,10.9253,163,0.8564,0.6943,4.7851,-53.9211,28,0.9134,7912,3.9985,-84.8815
rg,1625266155356009800,1,0.0352,-0.7241,0.4006,491,-19.6533,-38.3301,25.2686,163,0.8324,0.6993,4.4341,-54.8274,28,0.9104,8249,3.9985,-83.0618
rg,1625266155356028077,1,0.1409,-0.7288,0.5442,492,-100.1587,-50.7812,23.3154,163,0.7884,0.7033,3.586,-58.5939,28,0.8944,8896,3.9985,-80.8256
rg,1625266155356045874,1,0.1309,-0.9478,0.5334,493,-111.0229,-44.7998,24.353,163,0.7714,0.7073,3.5252,-62.5715,28,0.8864,8444,3.9985,-78.2461
rg,1625266155356063725,1,0.3242,-1.0474,0.5842,494,-79.7119,-69.0918,58.4717,163,0.7694,0.6983,3.698,-65.4523,28,0.8904,8793,3.9985,-74.7141
rg,1625266155356082985,1,0.5916,-1.2834,0.5293,495,-13.3057,-36.1938,69.2749,163,0.7644,0.6733,4.6037,-65.8705,28,0.8924,8659,3.9985,-72.2566
rg,1625266155356121170,1,0.5122,-1.2207,0.4631,496,30.3345,32.2876,46.2646,163,0.7624,0.6573,5.8181,-64.8083,28,0.8914,8479,3.9985,-72.6881
rg,1625266155356144337,1,0.0886,-0.9221,0.4563,497,69.6411,104.126,2.6855,163,0.7604,0.6383,7.3233,-62.3941,28,0.8924,8711,3.9985,-76.4031
rg,1625266155356162540,1,-0.1497,-0.7129,0.3562,498,86.1816,109.436,-19.7144,163,0.7594,0.6293,8.8682,-59.5806,28,0.8914,8297,3.9985,-80.6565
rg,1625266155356181762,1,-0.386,-0.3855,0.2163,499,108.1543,75.8057,-19.043,163,0.7614,0.6313,11.041,-55.8015,28,0.8914,8327,3.9985,-83.631
rg,1625266155356200281,1,-0.3591,-0.2488,0.1433,500,49.0112,27.0386,10.437,163,0.7644,0.6403,13.467,-54.0787,28,0.8924,8226,3.9985,-84.2863
rg,1625266155356218262,1,-0.208,-0.71,0.7881,501,-90.4541,-60.1807,15.5029,163,0.7714,0.6563,11.5267,-58.6377,28,0.8944,14247,3.9985,-80.0831
rg,1625266155356310374,1,0.0483,-1.1787,1.3848,502,-161.1328,-138.916,18.3105,163,0.7774,0.6643,9.0154,-63.3856,28,0.8984,8181,3.9985,-74.6207
rg,1625266155356330503,1,0.3403,-1.5999,0.6357,503,-46.4478,-107.7881,17.5171,163,0.7844,0.6663,6.9946,-64.8269,28,0.9024,8445,3.9985,-70.4147
rg,1625266155356348874,1,0.4368,-1.2039,0.7056,504,32.7759,-42.9077,-9.5215,163,0.7914,0.6713,4.9704,-63.1644,28,0.9044,8269,3.9985,-69.0194
rg,1625266155356367577,1,0.3804,-0.9622,0.719,505,54.0771,-11.9019,-18.1274,163,0.8024,0.6763,3.683,-60.281,28,0.9084,8699,3.9985,-69.6154
rg,1625266155356385318,1,0.3118,-0.8442,0.5452,506,59.3872,17.7612,-10.1929,163,0.8274,0.6823,2.8848,-57.8266,28,0.9114,8485,3.9985,-70.4469
rg,1625266155356402466,1,0.2734,-1.0161,0.3857,507,48.0957,21.5454,-15.1367,163,0.8544,0.6903,2.1792,-56.3771,28,0.9124,8593,3.9985,-71.532
rg,1625266155356419114,1,0.0457,-0.8716,0.2158,508,72.4487,52.6733,-11.9629,163,0.8754,0.6943,2.7786,-54.3272,28,0.9124,8286,3.9985,-73.5738
rg,1625266155356436614,1,-0.0588,-0.7236,0.2634,509,78.3081,70.7397,-6.5918,163,0.8864,0.6973,4.6284,-52.0624,27,0.9114,8543,3.9985,-75.5334
rg,1625266155356453614,1,-0.1853,-0.499,0.3733,510,38.9404,28.3203,2.9297,163,0.8764,0.7013,5.8905,-50.614,27,0.9074,8627,3.9985,-76.3455
rg,1625266155356471022,1,-0.1831,-0.4937,0.449,511,-82.2144,-47.9126,12.7563,163,0.8274,0.7053,5.4958,-53.5903,27,0.8954,8430,3.9985,-74.5055
rg,1625266155356489503,1,0.1895,-0.9675,0.7402,512,-163.6353,-123.291,43.1519,163,0.7904,0.7093,3.6842,-59.6599,27,0.8834,8693,3.9985,-69.3964
rg,1625266157211518947,1,0.8638,-1.3418,0.5298,513,-7.3853,-38.8184,61.5845,163,0.7684,0.6783,3.7498,-60.0707,27,0.8774,23775,3.9985,-66.8333
rg,1625266157211578076,1,0.4517,-1.1509,0.6475,514,52.4902,106.7505,50.415,163,0.7634,0.6493,6.7739,-58.2281,27,0.8764,8967,3.9985,-69.5033
rg,1625266157211598502,1,0.1504,-1.2073,0.6443,515,54.5044,98.5107,24.8413,163,0.7624,0.6343,9.2018,-56.5783,28,0.8774,8410,3.9985,-72.347
rg,1625266157211617798,1,-0.2712,-0.9993,0.3481,516,108.8867,65.1245,-24.353,163,0.7624,0.6243,10.5921,-53.2595,28,0.8774,12950,3.9985,-75.1469
rg,1625266157211636798,1,-0.4075,-0.4338,0.2087,517,167.5415,29.48,-27.5879,163,0.7624,0.6223,11.6197,-47.2113,28,0.8774,8080,3.9985,-76.7839
rg,1625266157211655113,1,-0.2456,-0.0669,0.1738,518,122.1313,-18.9209,14.4653,163,0.7664,0.6293,12.9964,-41.4931,28,0.8784,7804,3.9985,-75.6109
rg,1625266157211672558,1,-0.1667,-0.0479,0.1272,519,65.7959,-52.1851,20.2637,163,0.7704,0.6413,11.4237,-41.7216,28,0.8804,7997,3.9985,-72.9451
rg,1625266157211690798,1,-0.0259,-0.271,0.1506,520,-97.5342,-102.7832,12.085,163,0.7754,0.6523,8.5625,-45.792,28,0.8844,7905,3.9985,-69.8416
rg,1625266157211708724,1,0.2737,-1.0515,1.5239,521,-220.5811,-104.5532,11.6577,163,0.7814,0.6603,5.5904,-53.6999,28,0.8914,9286,3.9985,-66.2159
rg,1625266157211750910,1,0.2444,-1.7366,0.5938,522,-89.4775,-50.0488,16.1743,163,0.7864,0.6623,4.4939,-57.75,28,0.8964,8175,3.9985,-64.2379
rg,1625266157211771298,1,0.3542,-1.3433,0.8159,523,5.7983,-23.7427,-13.3057,163,0.7934,0.6673,2.8693,-57.5107,28,0.9034,10238,3.9985,-63.7222
rg,1625266157211810243,1,0.3162,-1.0474,0.8652,524,32.8369,-4.0894,-15.9912,163,0.8034,0.6723,1.585,-55.9497,28,0.9084,8001,3.9985,-63.9327
rg,1625266157211829910,1,0.2839,-0.842,0.5024,525,59.2651,2.9297,0.9155,163,0.8224,0.6783,0.9906,-53.6967,28,0.9114,8217,3.9985,-64.0263
rg,1625266157211847669,1,0.2249,-0.8569,0.323,526,37.5977,19.5312,1.2817,163,0.8434,0.6873,0.9176,-52.7902,27,0.9154,8534,3.9985,-64.6394
rg,1625266157211864854,1,0.0386,-0.7939,0.3201,527,33.6914,36.9263,1.0986,163,0.8564,0.6943,1.7096,-52.0571,27,0.9174,8173,3.9985,-65.7966
rg,1625266157211885113,1,-0.0422,-0.7483,0.3347,528,29.0527,33.5083,3.7842,163,0.8594,0.7013,2.703,-51.4656,27,0.9164,8550,3.9985,-66.7744
rg,1625266157211904039,1,-0.0579,-0.6736,0.4839,529,-32.5928,-18.4326,17.2119,163,0.8254,0.7083,2.8469,-52.8182,27,0.9114,8737,3.9985,-65.7741
rg,1625266157211922261,1,0.1843,-0.894,0.6406,530,-115.1733,-78.4302,32.6538,163,0.7934,0.7073,1.6478,-57.3312,28,0.9014,8274,3.9985,-62.438
rg,1625266157211940669,1,0.3579,-1.1907,0.4468,531,-95.1538,-98.2666,46.0815,163,0.7774,0.7073,0.5728,-61.4911,28,0.8924,9705,3.9985,-58.1097
rg,1625266157211958947,1,0.7158,-1.2886,0.6611,532,-52.3682,-83.8013,61.0962,163,0.7744,0.6953,1.2307,-61.8623,28,0.8894,8154,3.9985,-55.099
rg,1625266157211976521,1,0.646,-1.2939,0.7273,533,27.4048,24.8413,72.2046,163,0.7704,0.6623,4.1873,-60.1293,28,0.8864,9726,3.9985,-55.8239
rg,1625266157211995484,1,0.449,-1.3032,0.6526,534,63.9038,71.0449,64.27,163,0.7694,0.6463,7.0134,-57.8007,28,0.8854,8378,3.9985,-56.9765
rg,1625266157212015206,1,-0.0369,-1.1414,0.5608,535,126.0986,99.8535,18.7988,163,0.7684,0.6373,9.6587,-53.4194,28,0.8834,8365,3.9985,-59.9197
rg,1625266157212036039,1,-0.3674,-0.6345,0.2737,536,172.7905,79.5898,-9.7046,163,0.7664,0.6223,12.0924,-47.4993,28,0.8814,8968,3.9985,-62.7078
rg,1625266157212056761,1,-0.4351,-0.3948,0.2024,537,182.9834,72.2046,-10.1929,163,0.7674,0.6173,15.6561,-40.5851,28,0.8814,8464,3.9985,-64.0176
rg,1625266157212077835,1,-0.3647,0.0156,0.1011,538,161.8652,8.0566,25.2075,163,0.7694,0.6223,18.4935,-33.4187,28,0.8814,8870,3.9985,-63.1132
rg,1625266157212095243,1,-0.2598,0.0298,-0.0144,539,15.686,-88.9893,22.3999,163,0.7734,0.6333,18.201,-31.7379,28,0.8834,8820,3.9985,-60.2048
rg,1625266157212112317,1,-0.0327,-0.269,0.1516,540,-193.4204,-146.7285,36.1328,163,0.7784,0.6463,13.8869,-39.2458,28,0.8874,8847,3.9985,-55.7711
rg,1625266157212129521,1,0.6299,-1.4709,2.4048,541,-310.791,-151.5503,29.2358,153,0.7844,0.6543,9.4573,-50.2333,27,0.8924,8792,4.0018,-50.4219
rg,1625266157212147243,1,0.3196,-2.0259,0.3923,542,-93.811,-77.5757,7.3242,153,0.7934,0.6553,7.1332,-54.6499,27,0.9004,9131,4.0018,-47.9091
rg,1625266157212164780,1,0.4055,-1.7913,0.5791,543,-17.4561,-57.1899,-6.0425,153,0.8014,0.6603,4.7941,-55.2373,27,0.9064,8673,4.0018,-46.1691
rg,1625266157212182984,1,0.3433,-0.9062,0.8855,544,49.0112,11.0474,-13.5498,153,0.8094,0.6633,3.8403,-52.9558,27,0.9114,8840,4.0018,-46.832
rg,1625266157417311872,1,0.2578,-0.3262,1.1475,545,17.0288,-23.6206,19.4092,74,0.8024,0.5263,-18.7322,24.8229,28,0.9094,20154,4.0557,24.3324
rg,1625266157417349187,1,0.2852,-0.3174,1.1052,546,10.498,-24.4751,17.8223,74,0.8024,0.5263,-19.8876,23.6231,28,0.9084,8478,4.0557,25.0901
rg,1625266157417370076,1,0.2688,-0.3257,1.0691,547,4.5166,-18.7988,16.2354,74,0.8024,0.5253,-20.7489,22.1549,28,0.9084,7731,4.0557,25.9411
rg,1625266157417389150,1,0.2512,-0.3237,1.0603,548,2.5635,-16.4185,16.4185,74,0.8024,0.5223,-21.4476,20.6117,28,0.9084,7741,4.0557,26.874
rg,1625266157417407687,1,0.228,-0.3267,1.0269,549,-0.2441,-12.8174,16.7236,74,0.8034,0.5233,-21.9428,18.9367,28,0.9084,7787,4.0557,27.9089
rg,1625266157417426280,1,0.2249,-0.3174,1.0042,550,0.1221,-12.5122,17.7612,74,0.8034,0.5223,-22.3578,17.2637,28,0.9084,7869,4.0557,28.9972
rg,1625266157417443483,1,0.2034,-0.3096,0.9783,551,-2.7466,-11.3525,18.1885,74,0.8024,0.5213,-22.6983,15.5391,28,0.9084,7871,4.0557,30.1388
rg,1625266157417460372,1,0.1987,-0.3318,0.9766,552,-2.8687,-11.4136,19.8364,74,0.8024,0.5213,-23.0129,13.785,28,0.9084,7824,4.0557,31.3732
rg,1625266157417477706,1,0.207,-0.3269,0.9832,553,-3.1128,-10.7422,19.5923,74,0.8034,0.5183,-23.2655,12.0904,28,0.9074,8022,4.0557,32.6017
rg,1625266157417495669,1,0.2102,-0.3262,1.0071,554,-3.54,-8.1787,19.7144,74,0.7994,0.5183,-23.3726,10.4288,28,0.9084,7894,4.0557,33.8538
rg,1625266157417513539,1,0.1895,-0.3379,1.002,555,-3.8452,-5.0659,19.4092,74,0.8034,0.5173,-23.2828,8.7777,28,0.9084,8114,4.0557,35.1188
rg,1625266157417531391,1,0.1746,-0.3516,1.0027,556,-4.3335,-3.9673,19.5923,74,0.8034,0.5163,-23.0729,7.1128,28,0.9084,7930,4.0557,36.3999
rg,1625266157417548983,1,0.1516,-0.3518,1.001,557,-1.8311,-5.127,18.4937,74,0.7994,0.5153,-22.8553,5.6507,28,0.9084,7968,4.0557,37.5981
rg,1625266157417565928,1,0.1555,-0.3428,0.9841,558,0.7324,-7.9346,16.2354,74,0.8034,0.5153,-22.7357,4.397,27,0.9084,8296,4.0557,38.6661
rg,1625266157417583521,1,0.1882,-0.3455,0.9844,559,1.9531,-9.7046,16.0522,74,0.8034,0.5153,-22.7371,3.2429,27,0.9084,12656,4.0557,39.7092
rg,1625266157417617095,1,0.2053,-0.3418,0.9653,560,5.5542,-5.3711,17.395,74,0.8034,0.5143,-22.5943,2.2467,27,0.9084,8470,4.0557,40.8121
rg,1625266157417636780,1,0.1865,-0.3147,0.9607,561,9.1553,4.3335,18.7378,74,0.8034,0.5143,-21.9192,1.4951,28,0.9084,8240,4.0557,41.9978
rg,1625266157417654798,1,0.1643,-0.3074,0.9792,562,11.5356,7.5073,22.9492,74,0.8034,0.5123,-21.1734,0.8096,28,0.9084,10950,4.0557,43.2831
rg,1625266157417672446,1,0.1633,-0.3032,1.0029,563,10.6812,8.9722,23.8647,74,0.8034,0.5133,-20.3715,0.1463,28,0.9074,8141,4.0557,44.57
rg,1625266157417689169,1,0.1697,-0.312,1.0132,564,10.8032,7.8125,24.1699,74,0.8034,0.5112,-19.6424,-0.4818,28,0.9074,8263,4.0557,45.8448
rg,1625266157417706280,1,0.1792,-0.3347,1.0176,565,10.6812,5.127,23.9868,74,0.8034,0.5092,-19.0547,-1.1135,28,0.9074,8215,4.0557,47.102
rg,1625266157417723391,1,0.1777,-0.3269,1.0134,566,10.7422,5.4321,22.583,74,0.8034,0.5072,-18.5318,-1.7072,28,0.9074,8318,4.0557,48.2691
rg,1625266157417740613,1,0.1526,-0.3267,1.01,567,10.1318,0.3662,20.9961,74,0.8024,0.5082,-18.1034,-2.2408,28,0.9064,8688,4.0557,49.3631
rg,1625266157417757724,1,0.1499,-0.3379,0.9937,568,9.8267,-6.958,18.6768,74,0.8024,0.5062,-17.9782,-2.7677,27,0.9074,8723,4.0557,50.3704
rg,1625266157417774446,1,0.1624,-0.3347,0.9856,569,10.6812,-12.207,17.0898,74,0.8054,0.5052,-18.0904,-3.2209,27,0.9084,8370,4.0557,51.3164
rg,1625266157417791521,1,0.1851,-0.3391,0.9822,570,11.3525,-15.5029,17.8833,74,0.8044,0.5052,-18.4211,-3.603,27,0.9074,8206,4.0557,52.2715
rg,1625266157417808298,1,0.2307,-0.3389,0.9836,571,12.8784,-14.3433,18.4326,74,0.8034,0.5042,-18.7286,-3.9694,27,0.9074,8412,4.0557,53.2852
rg,1625266157417825002,1,0.2529,-0.3242,0.9805,572,14.7705,-6.1035,19.7144,74,0.8034,0.5042,-18.7351,-4.2282,28,0.9034,8232,4.0557,54.3206
rg,1625266157417842632,1,0.2375,-0.3225,1.0056,573,14.4653,4.4556,21.3623,74,0.8044,0.5042,-18.2683,-4.4782,28,0.9074,8451,4.0557,55.3817
rg,1625266157417870558,1,0.2234,-0.3123,1.0098,574,14.8926,10.5591,21.7896,74,0.8044,0.5032,-17.5411,-4.6663,28,0.9074,8324,4.0557,56.4213
rg,1625266157417907261,1,0.2029,-0.3049,1.0359,575,13.7329,17.5171,25.5737,74,0.8024,0.5042,-16.4969,-4.8861,28,0.9074,8360,4.0557,57.5699
rg,1625266157417928835,1,0.1907,-0.3088,1.04,576,12.8784,21.9116,26.6113,74,0.8044,0.5032,-15.2847,-5.1208,28,0.9074,8407,4.0557,58.7266
rg,1625266157762211835,1,0.1108,-0.3176,1.012,577,5.7983,22.2778,22.522,74,0.8054,0.5022,-13.9585,-5.5972,28,0.9064,27055,4.0557,59.6979
rg,1625266157762251391,1,0.0933,-0.3108,1.0139,578,5.5542,17.1509,22.0337,74,0.8054,0.5022,-12.8437,-6.0274,27,0.9074,8617,4.0557,60.6384
rg,1625266157762271946,1,0.0862,-0.3167,0.9895,579,5.3101,13.6108,17.334,74,0.8054,0.5032,-11.9164,-6.4223,27,0.9074,12635,4.0557,61.3877
rg,1625266157762291187,1,0.1223,-0.2991,0.9937,580,6.7749,7.3853,17.7612,74,0.8064,0.5032,-11.3656,-6.674,27,0.9084,12315,4.0557,62.2052
rg,1625266157762310280,1,0.1296,-0.3013,1.0093,581,8.4839,9.2163,18.3716,74,0.8064,0.5022,-10.7457,-6.8644,28,0.9074,7710,4.0557,62.9827
rg,1625266157762328168,1,0.1348,-0.2932,1.0088,582,10.498,12.085,17.6392,74,0.8064,0.5022,-10.0495,-6.9333,28,0.9084,7971,4.0557,63.7052
rg,1625266157762346668,1,0.1201,-0.2861,1.0222,583,10.437,13.6719,17.7612,74,0.8064,0.5022,-9.2822,-6.9704,28,0.9084,7807,4.0557,64.4139
rg,1625266157762364557,1,0.0994,-0.2737,1.0354,584,8.9111,15.1978,18.0664,74,0.8064,0.5022,-8.4363,-7.0252,28,0.9084,7824,4.0557,65.1151
rg,1625266157762381798,1,0.0918,-0.2881,1.0422,585,7.9346,14.4653,19.165,74,0.8054,0.5022,-7.6291,-7.1389,28,0.9084,10318,4.0557,65.8603
rg,1625266157762399057,1,0.0889,-0.2913,1.0322,586,7.2021,14.2212,20.2026,74,0.8064,0.5032,-6.8521,-7.2842,28,0.9084,8452,4.0557,66.6416
rg,1625266157762415798,1,0.0862,-0.2893,1.0308,587,7.3242,13.4888,19.5923,74,0.8074,0.5042,-6.1077,-7.4182,28,0.9084,7929,4.0557,67.3957
rg,1625266157762433428,1,0.064,-0.2979,1.0271,588,7.0801,12.085,18.1885,74,0.8044,0.5052,-5.4302,-7.5469,28,0.9084,8101,4.0557,68.0941
rg,1625266157762449983,1,0.0486,-0.3018,1.0273,589,7.0801,7.6904,18.8599,74,0.8084,0.5042,-4.9154,-7.6756,27,0.9084,7938,4.0557,68.8369
rg,1625266157762480372,1,0.0437,-0.3091,1.0298,590,7.3853,5.7373,17.7002,74,0.8094,0.5042,-4.4921,-7.7914,27,0.9094,7926,4.0557,69.5404
rg,1625266157762499243,1,0.051,-0.3113,1.0339,591,8.0566,1.2817,17.2729,74,0.8084,0.5032,-4.2776,-7.8742,27,0.9094,7995,4.0557,70.2476
rg,1625266157762516391,1,0.0608,-0.3088,1.0227,592,8.5449,-2.5024,17.6392,74,0.8084,0.5032,-4.2398,-7.9371,27,0.9084,8062,4.0557,70.9886
rg,1625266157762533705,1,0.0598,-0.3088,1.0283,593,10.376,-2.0142,16.3574,74,0.8084,0.5022,-4.1883,-7.9166,28,0.9094,8070,4.0557,71.6753
rg,1625266157762550761,1,0.0537,-0.2864,1.0234,594,11.7798,-3.0518,16.3574,74,0.8094,0.5022,-4.1685,-7.7985,28,0.9094,8567,4.0557,72.3644
rg,1625266157762606131,1,0.0625,-0.2754,1.0266,595,11.5967,-5.3101,17.6392,74,0.8064,0.5022,-4.2517,-7.673,28,0.9094,9825,4.0557,73.115
rg,1625266157762626817,1,0.0911,-0.2488,1.0095,596,10.1929,-5.3101,18.4326,74,0.8094,0.5022,-4.3934,-7.5655,28,0.9094,8114,4.0557,73.8942
rg,1625266157762644983,1,0.1106,-0.2358,1.0161,597,8.606,-4.1504,18.9819,74,0.8094,0.5032,-4.5551,-7.4956,28,0.9094,8121,4.0557,74.6874
rg,1625266157762663131,1,0.1206,-0.2397,1.0232,598,2.5635,3.479,18.9209,74,0.8104,0.5032,-4.3963,-7.6729,28,0.9094,8244,4.0557,75.4393
rg,1625266157762681243,1,0.0471,-0.2651,1.032,599,-0.9766,7.3853,16.7236,74,0.8104,0.5022,-3.9395,-8.0217,28,0.9094,8126,4.0557,76.0834
rg,1625266157762701317,1,0.0308,-0.2754,1.0344,600,-1.4648,6.5308,15.9302,74,0.8104,0.5022,-3.6235,-8.3914,28,0.9104,8153,4.0557,76.7303
rg,1625266157762719261,1,0.022,-0.2834,1.0298,601,-1.5869,-1.4648,15.9912,74,0.8104,0.5012,-3.4891,-8.7692,28,0.9094,8228,4.0557,77.39
rg,1625266157762737613,1,0.0498,-0.291,1.0161,602,-1.0986,-7.5684,18.7988,74,0.8104,0.5022,-3.6388,-9.1449,28,0.9054,8248,4.0557,78.1989
rg,1625266157762754854,1,0.0544,-0.3049,1.0254,603,0.3052,-4.7607,16.2964,74,0.8104,0.5012,-3.6921,-9.4666,28,0.9104,8274,4.0557,78.8929
rg,1625266157762781835,1,0.0413,-0.3035,1.0242,604,1.0986,-4.2725,17.4561,74,0.8104,0.5012,-3.685,-9.7449,28,0.9104,8266,4.0557,79.6292
rg,1625266157762813483,1,0.0366,-0.2952,1.0271,605,3.3569,-5.9814,16.5405,74,0.8114,0.5002,-3.7387,-9.9023,28,0.9104,8818,4.0557,80.3395
rg,1625266157762833983,1,0.0427,-0.29,1.0276,606,2.9297,-10.0708,16.4795,74,0.8104,0.4992,-3.9623,-10.0632,28,0.9104,8314,4.0557,81.0753
rg,1625266157762851557,1,0.0483,-0.291,1.0295,607,2.6245,-10.8032,16.6626,74,0.8114,0.4992,-4.1927,-10.2239,28,0.9104,8367,4.0557,81.7094
rg,1625266157762870946,1,0.05,-0.2756,1.0291,608,2.6855,-10.6812,13.3667,74,0.8114,0.4992,-4.456,-10.3487,28,0.9114,8471,4.0557,82.3274
rg,1625266158127260131,1,0.0386,-0.2683,1.0229,609,0.9155,-13.7329,13.6719,74,0.8114,0.4972,-4.8216,-10.5721,28,0.9104,28492,4.0557,82.9744
rg,1625266158127294335,1,0.0696,-0.2786,1.0281,610,-0.2441,-19.165,14.4043,74,0.8114,0.4982,-5.4216,-10.8243,28,0.9104,13909,4.0557,83.7013
rg,1625266158127314872,1,0.0815,-0.2791,1.0139,611,-0.7324,-17.0898,13.3057,74,0.8114,0.4982,-5.9492,-11.0964,28,0.9104,8094,4.0557,84.3743
rg,1625266158127333687,1,0.0535,-0.2913,1.0203,612,-1.709,-14.3433,12.8174,74,0.8124,0.4982,-6.2878,-11.4196,28,0.9104,9347,4.0557,85.0125
rg,1625266158127351631,1,0.0549,-0.2988,1.022,613,-0.8545,-14.5264,12.3291,74,0.8114,0.4972,-6.6233,-11.7124,28,0.9104,7762,4.0557,85.6372
rg,1625266158127369279,1,0.053,-0.3015,1.0308,614,0.2441,-17.4561,14.4043,74,0.8114,0.4962,-7.0348,-11.967,28,0.9104,7796,4.0557,86.3705
rg,1625266158127386835,1,0.0603,-0.2991,1.0234,615,2.0142,-19.165,14.7095,74,0.8124,0.4962,-7.5075,-12.1494,28,0.9074,9425,4.0557,87.1332
rg,1625266158127404835,1,0.0674,-0.291,1.0215,616,2.5635,-19.2871,14.6484,74,0.8124,0.4962,-7.9363,-12.2733,28,0.9114,7857,4.0557,87.8557
rg,1625266158127421631,1,0.0732,-0.2856,1.0217,617,2.9297,-17.0288,13.916,74,0.8114,0.4962,-8.3212,-12.3851,28,0.9104,7843,4.0557,88.5705
rg,1625266158127438409,1,0.0715,-0.2913,1.022,618,2.6855,-17.2729,14.8315,74,0.8114,0.4962,-8.687,-12.5243,28,0.9104,7857,4.0557,89.3273
rg,1625266158127454742,1,0.072,-0.2856,1.0222,619,1.6479,-16.6626,14.1602,74,0.8124,0.4962,-9.0282,-12.6787,28,0.9114,7884,4.0557,90.0512
rg,1625266158127473353,1,0.0667,-0.2913,1.0225,620,2.5024,-16.9678,13.0005,74,0.8094,0.4962,-9.3561,-12.8107,28,0.9104,7892,4.0557,90.737
rg,1625266158127491039,1,0.0684,-0.2903,1.0278,621,2.3804,-16.6626,13.5498,74,0.8124,0.4962,-9.6556,-12.9443,27,0.9114,7915,4.0557,91.4426
rg,1625266158127507557,1,0.0698,-0.2969,1.0215,622,2.5635,-15.625,11.9629,74,0.8124,0.4952,-9.9195,-13.074,27,0.9104,7954,4.0557,92.0804
rg,1625266158127523409,1,0.0757,-0.2952,1.0225,623,3.2349,-16.7236,12.8784,74,0.8134,0.4962,-10.2182,-13.179,27,0.9114,7987,4.0557,92.7651
rg,1625266158127539798,1,0.0803,-0.293,1.0242,624,3.7842,-16.2354,13.916,74,0.8134,0.4952,-10.4851,-13.2624,27,0.9114,7978,4.0557,93.4868
rg,1625266158127557187,1,0.075,-0.2898,1.0203,625,4.8218,-13.6719,12.6953,74,0.8124,0.4962,-10.6419,-13.2864,28,0.9114,8091,4.0557,94.1364
rg,1625266158127575539,1,0.0496,-0.2651,1.0105,626,3.9062,-14.0381,14.0991,74,0.8134,0.4952,-10.7412,-13.3121,28,0.9114,8024,4.0557,94.8369
rg,1625266158127592242,1,0.0569,-0.271,1.0334,627,-0.3052,-15.3198,14.8315,74,0.8124,0.4952,-10.9839,-13.585,28,0.9104,12741,4.0557,95.6292
rg,1625266158127609853,1,0.0757,-0.2834,1.0266,628,-1.2817,-17.8833,15.686,74,0.8124,0.4942,-11.2514,-13.8599,28,0.9114,8121,4.0557,96.437
rg,1625266158127626909,1,0.0679,-0.2947,1.0178,629,-0.9766,-18.1274,13.7329,74,0.8124,0.4942,-11.5174,-14.1298,28,0.9114,8084,4.0557,97.1771
rg,1625266158127792779,1,0.064,-0.2839,1.019,630,-0.1221,-17.2729,12.6343,74,0.8134,0.4952,-11.7822,-14.3606,28,0.9114,8103,4.0557,97.8748
rg,1625266158127812613,1,0.0771,-0.2896,1.02,631,-0.1831,-20.0806,14.5264,74,0.8134,0.4942,-12.108,-14.5855,28,0.9104,8315,4.0557,98.667
rg,1625266158127830631,1,0.1025,-0.3044,1.0186,632,0.3662,-20.3857,13.3667,74,0.8134,0.4952,-12.4945,-14.8077,28,0.9114,10630,4.0557,99.4251
rg,1625266158127849909,1,0.095,-0.2773,1.0088,633,2.0142,-16.3574,11.7188,74,0.8134,0.4942,-12.7127,-14.885,28,0.9114,8556,4.0557,100.0659
rg,1625266158127866465,1,0.0903,-0.2935,1.0122,634,1.2207,-17.0288,12.9395,74,0.8144,0.4942,-12.923,-15.0379,28,0.9114,8868,4.0557,100.7702
rg,1625266158127931613,1,0.0969,-0.2905,1.0134,635,1.77,-17.0898,13.7329,74,0.8144,0.4942,-13.0098,-15.1213,28,0.9114,8273,4.0557,101.4508
rg,1625266158127950224,1,0.0991,-0.2883,1.0168,636,3.1738,-13.1836,14.8926,74,0.8144,0.4932,-13.0558,-15.1844,28,0.9124,8277,4.0557,102.1886
rg,1625266158127968446,1,0.0994,-0.2854,1.0146,637,2.9907,-12.4512,17.0288,74,0.8154,0.4942,-13.0495,-15.265,28,0.9114,8309,4.0557,103.0019
rg,1625266158127985946,1,0.0955,-0.2871,1.0188,638,4.0894,-10.7422,17.7002,74,0.8154,0.4942,-12.9607,-15.3009,28,0.9124,8311,4.0557,103.823
rg,1625266158128002446,1,0.0955,-0.2849,1.0195,639,4.7607,-9.2163,15.8081,74,0.8144,0.4942,-12.8216,-15.2776,28,0.9124,8380,4.0557,104.5501
rg,1625266158128019650,1,0.0847,-0.2817,1.0227,640,4.0894,-10.1318,16.6626,74,0.8144,0.4932,-12.7064,-15.2854,28,0.9114,8373,4.0557,105.3197
rg,1625266158472503316,1,0.0801,-0.2898,1.0127,641,2.8076,-12.146,17.0288,74,0.8144,0.4932,-12.66,-15.3737,28,0.9114,26939,4.0557,106.1303
rg,1625266158472537372,1,0.0813,-0.2905,1.0188,642,4.3335,-12.4512,15.9912,74,0.8144,0.4932,-12.6089,-15.4121,28,0.9124,8736,4.0557,106.9067
rg,1625266158472557927,1,0.0789,-0.2869,1.022,643,3.6621,-11.7798,15.625,74,0.8144,0.4922,-12.5621,-15.4353,28,0.9114,7839,4.0557,107.6545
rg,1625266158472614242,1,0.0728,-0.269,1.0027,644,4.7607,-13.4888,15.1367,74,0.8144,0.4922,-12.5788,-15.3867,28,0.9124,8062,4.0557,108.3957
rg,1625266158472634853,1,0.0747,-0.2664,1.0166,645,2.6855,-12.8784,17.2729,87,0.8144,0.4922,-12.551,-15.4259,28,0.9124,7754,4.0524,109.2118
rg,1625266158472653372,1,0.0874,-0.2761,1.0237,646,1.709,-12.5732,17.2119,87,0.8144,0.4912,-12.5376,-15.5177,28,0.9114,7794,4.0524,110.0255
rg,1625266158472671483,1,0.0798,-0.2866,1.0339,647,-0.1831,-11.6577,15.8691,87,0.8144,0.4922,-12.4842,-15.6833,28,0.9124,7800,4.0524,110.7793
rg,1625266158472690927,1,0.0696,-0.3003,1.0254,648,0.4883,-13.5498,15.1367,87,0.8154,0.4902,-12.4721,-15.8167,28,0.9124,7836,4.0524,111.5252
rg,1625266158472786131,1,0.0659,-0.2778,1.0286,649,0.4883,-16.2354,15.4419,87,0.8144,0.4892,-12.57,-15.9359,28,0.9124,9036,4.0524,112.3092
rg,1625266158472804761,1,0.0835,-0.3127,1.0283,650,1.4648,-16.0522,14.8315,87,0.8154,0.4902,-12.6972,-16.0803,28,0.9124,8163,4.0524,113.0833
rg,1625266158472821927,1,0.075,-0.2942,1.0164,651,3.54,-14.6484,13.916,87,0.8154,0.4902,-12.7595,-16.095,28,0.9124,8136,4.0524,113.7984
rg,1625266158472839372,1,0.0872,-0.2869,1.02,652,4.3945,-16.3574,14.8926,87,0.8154,0.4912,-12.8995,-16.0714,28,0.9124,7956,4.0524,114.5678
rg,1625266158472856224,1,0.0969,-0.2888,1.0183,653,4.2114,-15.8081,14.7705,87,0.8154,0.4912,-13.0353,-16.0607,28,0.9124,8042,4.0524,115.3278
rg,1625266158472873038,1,0.0862,-0.2825,1.0154,654,4.2114,-15.4419,15.1367,87,0.8154,0.4902,-13.126,-16.0425,28,0.9114,8109,4.0524,116.0956
rg,1625266158472889946,1,0.0989,-0.2759,1.0115,655,3.9062,-17.1509,14.9536,87,0.8154,0.4902,-13.3088,-16.0302,28,0.9134,7995,4.0524,116.8734
rg,1625266158472907538,1,0.1045,-0.2803,1.02,656,2.0142,-15.7471,14.2822,87,0.8114,0.4902,-13.4476,-16.0906,28,0.9124,8156,4.0524,117.6103
rg,1625266158472924538,1,0.1003,-0.2883,1.0117,657,1.6479,-12.6343,12.6953,87,0.8154,0.4902,-13.471,-16.1635,28,0.9124,8015,4.0524,118.254
rg,1625266158472941520,1,0.0981,-0.2944,1.0156,658,1.6479,-11.5967,14.2822,87,0.8154,0.4902,-13.4087,-16.2536,28,0.9124,8087,4.0524,118.9501
rg,1625266158472958353,1,0.0862,-0.2927,1.0205,659,2.1362,-11.7188,15.1367,87,0.8124,0.4912,-13.3378,-16.3234,28,0.9134,8143,4.0524,119.6797
rg,1625266158472974890,1,0.084,-0.2874,1.0142,660,3.1128,-10.7422,14.6484,87,0.8154,0.4902,-13.234,-16.3358,28,0.9124,8225,4.0524,120.3765
rg,1625266158472992112,1,0.0974,-0.2817,1.0122,661,2.8076,-10.7422,14.2212,87,0.8154,0.4902,-13.147,-16.3265,28,0.9134,8160,4.0524,121.142
rg,1625266158473008909,1,0.0981,-0.2825,1.0205,662,2.8076,-10.1929,15.3809,87,0.8164,0.4912,-13.0505,-16.3396,28,0.9134,8139,4.0524,121.8575
rg,1625266158473025353,1,0.0854,-0.2822,1.0151,663,3.0518,-8.7891,15.1367,87,0.8164,0.4912,-12.881,-16.3376,28,0.9134,8188,4.0524,122.5474
rg,1625266158473055279,1,0.0708,-0.2781,1.0205,664,2.2583,-9.2773,14.0381,87,0.8154,0.4902,-12.7514,-16.317,28,0.9134,8188,4.0524,123.2121
rg,1625266158473073779,1,0.0813,-0.2766,1.0227,665,2.4414,-11.8408,14.4653,87,0.8154,0.4902,-12.7085,-16.3229,28,0.9124,8227,4.0524,123.9069
rg,1625266158473091094,1,0.0842,-0.2742,1.0193,666,2.8076,-12.2681,14.7095,87,0.8164,0.4902,-12.6877,-16.3136,28,0.9124,8313,4.0524,124.6154
rg,1625266158473107520,1,0.0933,-0.2812,1.0129,667,2.2583,-11.5967,14.2822,87,0.8164,0.4902,-12.6666,-16.3397,28,0.9134,8285,4.0524,125.3035
rg,1625266158473134631,1,0.0864,-0.2842,1.0178,668,2.6855,-10.5591,14.0381,87,0.8154,0.4912,-12.5913,-16.3699,28,0.9134,8379,4.0524,125.9698
rg,1625266158473152298,1,0.0825,-0.2903,1.0208,669,2.4414,-10.376,13.6108,87,0.8154,0.4912,-12.5222,-16.412,28,0.9134,9422,4.0524,126.6291
rg,1625266158473170650,1,0.0884,-0.2869,1.0188,670,3.3569,-10.8643,13.0615,87,0.8164,0.4892,-12.481,-16.3844,28,0.9134,8463,4.0524,127.2618
rg,1625266158473188538,1,0.0918,-0.2837,1.0098,671,3.54,-11.6577,14.4653,87,0.8164,0.4912,-12.4651,-16.3628,28,0.9134,8404,4.0524,127.9587
rg,1625266158473206779,1,0.0903,-0.2832,1.0181,672,4.2114,-9.5825,13.3057,87,0.8164,0.4902,-12.3795,-16.2938,28,0.9134,8405,4.0524,128.5847
rg,1625266158841566872,1,0.0813,-0.2673,1.012,673,4.3945,-12.5122,15.9912,87,0.8164,0.4902,-12.3628,-16.2192,28,0.9134,26991,4.0524,129.3436
rg,1625266158841607927,1,0.0911,-0.2703,1.022,674,1.8311,-13.4888,16.2964,87,0.8164,0.4902,-12.3998,-16.2556,28,0.9134,10311,4.0524,130.1262
rg,1625266158841628853,1,0.0933,-0.2764,1.0134,675,1.77,-14.3433,16.7236,87,0.8164,0.4912,-12.4684,-16.3172,28,0.9134,7707,4.0524,130.9394
rg,1625266158841648316,1,0.0889,-0.2727,1.0232,676,1.8311,-13.7329,15.4419,87,0.8164,0.4902,-12.5139,-16.3491,28,0.9134,7765,4.0524,131.6922
rg,1625266158841667316,1,0.0869,-0.28,1.0151,677,1.709,-13.6719,14.1602,87,0.8164,0.4902,-12.5943,-16.4248,28,0.9144,9487,4.0524,132.4327
rg,1625266158841685464,1,0.0906,-0.2761,1.021,678,0.7935,-13.916,14.0381,87,0.8164,0.4892,-12.6599,-16.4924,28,0.9134,7753,4.0524,133.1343
rg,1625266158841719094,1,0.0908,-0.2805,1.0112,679,0.4883,-13.2446,15.2588,87,0.8134,0.4902,-12.6843,-16.594,28,0.9144,9708,4.0524,133.8793
rg,1625266158841738001,1,0.0891,-0.2876,1.0188,680,0.6104,-11.5356,13.6108,87,0.8164,0.4902,-12.6549,-16.6786,28,0.9144,7835,4.0524,134.5414
rg,1625266158841831297,1,0.0906,-0.292,1.0208,681,0.8545,-12.0239,14.1602,87,0.8174,0.4882,-12.6405,-16.7639,28,0.9144,7893,4.0524,135.2322
rg,1625266158841851112,1,0.0994,-0.2852,1.0159,682,1.2817,-13.4888,15.1367,87,0.8174,0.4882,-12.6902,-16.8297,27,0.9144,7869,4.0524,135.976
rg,1625266158841869334,1,0.0913,-0.2817,1.0164,683,2.3193,-10.437,14.2212,87,0.8174,0.4882,-12.6149,-16.8281,27,0.9144,7906,4.0524,136.6456
rg,1625266158841888631,1,0.0823,-0.2869,1.0176,684,2.8076,-10.7422,14.7705,87,0.8164,0.4872,-12.5282,-16.8217,27,0.9134,7931,4.0524,137.3424
rg,1625266158841906575,1,0.0808,-0.2856,1.02,685,2.6245,-12.0239,14.9536,87,0.8164,0.4872,-12.4884,-16.8228,28,0.9094,7930,4.0524,138.0607
rg,1625266158841924001,1,0.093,-0.2847,1.022,686,2.7466,-12.5122,15.3198,87,0.8174,0.4882,-12.4899,-16.82,28,0.9134,9225,4.0524,138.7985
rg,1625266158841941409,1,0.0967,-0.2786,1.0105,687,1.77,-11.9019,14.8315,87,0.8174,0.4872,-12.4842,-16.8437,28,0.9144,8748,4.0524,139.5504
rg,1625266158841959242,1,0.0874,-0.2764,1.0081,688,2.2583,-11.0474,14.8926,87,0.8174,0.4872,-12.4258,-16.8422,28,0.9144,7924,4.0524,140.2518
rg,1625266158841976409,1,0.0864,-0.2871,1.0139,689,1.9531,-11.5967,14.8926,87,0.8174,0.4872,-12.3868,-16.8732,28,0.9144,8031,4.0524,140.9638
rg,1625266158841994538,1,0.0825,-0.2837,1.0051,690,2.9297,-11.2915,14.7095,87,0.8174,0.4882,-12.3365,-16.8669,28,0.9144,8005,4.0524,141.7125
rg,1625266158842013057,1,0.0894,-0.2795,1.0239,691,2.5635,-12.2681,15.9302,87,0.8174,0.4882,-12.3194,-16.8601,28,0.9144,8080,4.0524,142.4682
rg,1625266158842030853,1,0.0933,-0.2812,1.0195,692,2.8687,-11.9629,15.5029,87,0.8174,0.4882,-12.3053,-16.843,28,0.9144,8086,4.0524,143.2049
rg,1625266158842048649,1,0.1003,-0.2834,1.0137,693,2.1973,-11.1084,14.8926,87,0.8174,0.4882,-12.2786,-16.8142,28,0.9144,8272,4.0524,143.9054
rg,1625266158842081705,1,0.0925,-0.2773,1.0208,694,2.8076,-11.7188,16.0522,87,0.8174,0.4862,-12.2495,-16.7957,28,0.9144,8079,4.0524,144.6588
rg,1625266158842100279,1,0.0947,-0.2798,1.0142,695,2.5635,-11.7798,15.5029,87,0.8174,0.4892,-12.2361,-16.792,28,0.9144,13591,4.0524,145.3935
rg,1625266158842128168,1,0.0894,-0.2742,1.0203,696,2.7466,-11.9019,16.2354,87,0.8174,0.4882,-12.2075,-16.7718,28,0.9154,8839,4.0524,146.1549
rg,1625266158842148538,1,0.0879,-0.2756,1.0237,697,2.9907,-11.4746,16.2964,87,0.8184,0.4882,-12.1596,-16.7427,28,0.9144,8293,4.0524,146.9139
rg,1625266158842165760,1,0.0857,-0.2781,1.0254,698,2.5635,-11.2915,15.1978,87,0.8184,0.4882,-12.1145,-16.7258,28,0.9144,8226,4.0524,147.6287
rg,1625266158842183520,1,0.0947,-0.2776,1.0159,699,2.6245,-11.8408,14.4653,87,0.8184,0.4892,-12.1215,-16.7068,28,0.9154,8279,4.0524,148.3222
rg,1625266158842200446,1,0.0967,-0.2764,1.019,700,0.9155,-11.2915,15.8081,87,0.8184,0.4892,-12.0952,-16.7618,27,0.9154,9754,4.0524,149.061
rg,1625266158842217927,1,0.1033,-0.2705,1.0132,701,2.0142,-11.6577,16.0522,87,0.8184,0.4882,-12.0661,-16.7574,27,0.9144,8312,4.0524,149.81
rg,1625266158842235446,1,0.0808,-0.2759,1.0203,702,0.5493,-10.1318,15.5029,87,0.8184,0.4882,-11.9669,-16.8166,27,0.9144,8303,4.0524,150.5223
rg,1625266158842254334,1,0.0703,-0.2817,1.0278,703,0.3052,-10.6201,13.6719,87,0.8184,0.4882,-11.8873,-16.8764,27,0.9154,8356,4.0524,151.17
rg,1625266158842275205,1,0.0784,-0.2876,1.0154,704,1.8921,-13.4277,14.8926,87,0.8184,0.4882,-11.9216,-16.9067,28,0.9154,8422,4.0524,151.9028
rg,1625266159193278445,1,0.0959,-0.2776,1.0054,705,1.6479,-13.855,15.1367,87,0.8184,0.4862,-12.0073,-16.934,28,0.9154,28438,4.0524,152.6472
rg,1625266159193323538,1,0.1006,-0.2759,1.0078,706,2.5024,-12.9395,15.0146,87,0.8174,0.4862,-12.0657,-16.9189,28,0.9144,11939,4.0524,153.3747
rg,1625266159193345334,1,0.1023,-0.2839,1.0195,707,2.9907,-13.1226,13.7939,87,0.8184,0.4862,-12.144,-16.8864,28,0.9154,7679,4.0524,154.059
rg,1625266159193365649,1,0.1055,-0.2646,1.0381,708,3.6621,-14.5264,14.0381,87,0.8184,0.4862,-12.2751,-16.7845,28,0.9154,7903,4.0524,154.759
rg,1625266159193385834,1,0.1033,-0.2817,1.0073,709,2.2583,-16.4185,13.3667,87,0.8184,0.4872,-12.4817,-16.7972,28,0.9154,10413,4.0524,155.4671
rg,1625266159193404964,1,0.104,-0.2683,1.0061,710,4.2114,-11.8408,14.5264,87,0.8184,0.4862,-12.4954,-16.7031,28,0.9154,7785,4.0524,156.1602
rg,1625266159193423112,1,0.1082,-0.2847,1.0183,711,2.8076,-13.4277,15.0146,87,0.8184,0.4862,-12.5055,-16.7399,28,0.9154,7743,4.0524,156.9147
rg,1625266159193441334,1,0.103,-0.2856,1.0212,712,3.418,-11.0474,16.7236,87,0.8184,0.4872,-12.4566,-16.7242,28,0.9154,7752,4.0524,157.6909
rg,1625266159193458964,1,0.104,-0.2717,1.0061,713,2.6855,-11.2305,15.7471,87,0.8194,0.4872,-12.4341,-16.7094,28,0.9154,7810,4.0524,158.4266
rg,1625266159193476890,1,0.092,-0.2749,1.0146,714,2.0752,-8.4839,15.3198,87,0.8194,0.4872,-12.2853,-16.7096,28,0.9154,8086,4.0524,159.1132
rg,1625266159193495316,1,0.072,-0.2793,1.0237,715,2.0752,-8.4839,15.3198,87,0.8194,0.4872,-12.0984,-16.7117,28,0.9154,7898,4.0524,159.8005
rg,1625266159193514464,1,0.0691,-0.2739,1.02,716,1.6479,-9.0942,15.564,87,0.8194,0.4842,-11.9338,-16.7229,28,0.9154,7908,4.0524,160.5024
rg,1625266159193535908,1,0.0859,-0.2903,1.0137,717,1.2207,-12.085,16.5405,87,0.8194,0.4872,-11.9138,-16.8029,28,0.9154,12386,4.0524,161.2856
rg,1625266159193555112,1,0.0823,-0.2908,1.0188,718,1.2207,-12.2681,16.6016,87,0.8194,0.4882,-11.8912,-16.8784,28,0.9154,7926,4.0524,162.0726
rg,1625266159193574445,1,0.0723,-0.2817,1.0195,719,1.5259,-11.7188,13.6108,87,0.8194,0.4882,-11.8619,-16.8935,28,0.9154,7938,4.0524,162.7318
rg,1625266159193592260,1,0.0916,-0.2808,1.0154,720,2.0142,-12.9395,16.1133,87,0.8194,0.4882,-11.9051,-16.8998,28,0.9154,8118,4.0524,163.4786
rg,1625266159193611297,1,0.103,-0.2805,1.0144,721,1.5259,-14.0991,15.625,87,0.8204,0.4882,-12.0083,-16.9377,28,0.9154,7940,4.0524,164.2452
rg,1625266159193629723,1,0.1021,-0.2812,1.0132,722,3.0518,-11.9629,14.2822,87,0.8194,0.4882,-12.0397,-16.9002,28,0.9154,9104,4.0524,164.9341
rg,1625266159193648316,1,0.0955,-0.2795,1.01,723,3.0518,-11.9019,14.4653,87,0.8204,0.4882,-12.0526,-16.8641,28,0.9154,8986,4.0524,165.6292
rg,1625266159193731723,1,0.1006,-0.2776,1.0103,724,2.3193,-13.3057,15.9302,87,0.8204,0.4892,-12.1127,-16.8702,28,0.9154,8079,4.0524,166.3978
rg,1625266159193756927,1,0.1006,-0.2781,1.0144,725,3.0518,-12.146,15.5029,87,0.8204,0.4882,-12.1304,-16.8397,28,0.9154,8083,4.0524,167.1354
rg,1625266159193777205,1,0.0977,-0.2808,1.0161,726,2.9907,-10.6812,15.3198,87,0.8204,0.4892,-12.0873,-16.8121,28,0.9164,8106,4.0524,167.8496
rg,1625266159193798742,1,0.0999,-0.2729,1.0056,727,4.6997,-10.7422,15.686,87,0.8204,0.4892,-12.0521,-16.7097,28,0.9164,8147,4.0524,168.5767
rg,1625266159193817982,1,0.095,-0.2776,1.0149,728,4.1504,-10.8032,16.2964,87,0.8214,0.4902,-12.0021,-16.6423,28,0.9164,8169,4.0524,169.3297
rg,1625266159193835834,1,0.0903,-0.2759,1.0237,729,4.1504,-10.376,16.4185,87,0.8184,0.4902,-11.926,-16.568,28,0.9164,8148,4.0524,170.0809
rg,1625266159193854482,1,0.084,-0.2715,1.0095,730,3.9062,-9.8267,16.7847,87,0.8214,0.4892,-11.8179,-16.5056,28,0.9164,8152,4.0524,170.84
rg,1625266159193872871,1,0.0889,-0.2695,1.0176,731,3.54,-10.2539,17.0288,87,0.8214,0.4902,-11.7748,-16.4581,28,0.9164,8308,4.0524,-188.4159
rg,1625266159193893316,1,0.0911,-0.2659,1.0212,732,3.6011,-11.2915,15.7471,87,0.8204,0.4902,-11.7552,-16.3874,28,0.9164,8246,4.0524,-187.6839
rg,1625266159193912279,1,0.0986,-0.2651,1.0132,733,1.709,-10.6201,15.2588,87,0.8214,0.4912,-11.7343,-16.3922,28,0.9164,8286,4.0524,-186.9781
rg,1625266159193930723,1,0.0923,-0.2708,1.0159,734,1.6479,-10.9253,14.9536,87,0.8214,0.4912,-11.7293,-16.396,28,0.9164,8295,4.0524,-186.2403
rg,1625266159193950594,1,0.0806,-0.2678,1.0176,735,1.9531,-10.0708,14.6484,87,0.8214,0.4892,-11.6558,-16.3871,28,0.9164,8316,4.0524,-185.5642
rg,1625266159193969853,1,0.0718,-0.2881,1.0176,736,1.4648,-10.8032,14.0991,87,0.8204,0.4902,-11.5996,-16.4373,28,0.9164,8356,4.0524,-184.8924
rg,1625266159549092297,1,0.0994,-0.2781,1.0063,737,2.7466,-11.9019,14.8926,87,0.8204,0.4902,-11.6395,-16.4288,28,0.9164,25773,4.0524,-184.1799
rg,1625266159549168741,1,0.0928,-0.2739,1.0151,738,2.6245,-11.4136,14.4653,87,0.8214,0.4912,-11.6487,-16.4072,28,0.9174,12639,4.0524,-183.4926
rg,1625266159549201001,1,0.0918,-0.2749,1.011,739,1.8921,-11.2915,15.0146,87,0.8214,0.4902,-11.6454,-16.4243,28,0.9174,10616,4.0524,-182.7843
rg,1625266159549231260,1,0.0957,-0.2759,1.0166,740,2.6855,-12.207,15.8691,87,0.8214,0.4902,-11.6746,-16.417,28,0.9174,8324,4.0524,-182.0321
rg,1625266159549258630,1,0.0945,-0.2729,1.0178,741,3.0518,-11.9019,16.1133,87,0.8214,0.4902,-11.6858,-16.39,28,0.9174,9298,4.0524,-181.2752
rg,1625266159549360982,1,0.0886,-0.2769,1.0173,742,3.7231,-11.5967,15.4419,87,0.8214,0.4902,-11.6581,-16.3774,28,0.9174,7766,4.0524,-180.5401
rg,1625266159549395223,1,0.094,-0.2766,1.0229,743,3.479,-11.2915,15.0757,87,0.8214,0.4902,-11.6568,-16.3298,28,0.9174,7786,4.0524,-179.8298
rg,1625266159549423797,1,0.0872,-0.2793,1.0188,744,4.0894,-11.1084,14.8926,87,0.8214,0.4912,-11.6374,-16.2657,28,0.9174,8391,4.0524,-179.1271
rg,1625266159549450630,1,0.0886,-0.2759,1.022,745,3.3569,-11.5967,16.1133,87,0.8224,0.4912,-11.6272,-16.235,28,0.9184,8359,4.0524,-178.3725
rg,1625266159549478593,1,0.0867,-0.27,1.0217,746,3.6011,-10.6812,15.0757,87,0.8214,0.4892,-11.5907,-16.1729,28,0.9174,7867,4.0524,-177.6715
rg,1625266159549505056,1,0.0933,-0.2593,1.0151,747,3.1128,-11.5356,15.686,87,0.8214,0.4912,-11.598,-16.1202,28,0.9174,7844,4.0524,-176.9405
rg,1625266159549560575,1,0.0876,-0.262,1.0205,748,3.2349,-10.5591,15.7471,87,0.8214,0.4912,-11.5789,-16.0981,28,0.9174,7854,4.0524,-176.195
rg,1625266159549590667,1,0.0833,-0.27,1.033,749,1.9531,-11.3525,15.3809,87,0.8214,0.4912,-11.5588,-16.1044,28,0.9174,7916,4.0524,-175.4752
rg,1625266159549618316,1,0.0806,-0.2734,1.0237,750,2.1362,-13.0615,15.8081,87,0.8214,0.4922,-11.5957,-16.1227,28,0.9184,8020,4.0524,-174.7167
rg,1625266159549647890,1,0.0879,-0.2686,1.0151,751,2.2583,-11.8408,14.6484,87,0.8214,0.4922,-11.6221,-16.1226,28,0.9174,7944,4.0524,-174.0179
rg,1625266159549674464,1,0.0955,-0.2625,1.0183,752,1.5869,-11.9019,15.3198,87,0.8194,0.4922,-11.6504,-16.1363,28,0.9184,7980,4.0524,-173.2958
rg,1625266159549700019,1,0.0947,-0.2678,1.0164,753,2.1362,-11.9019,15.9912,87,0.8214,0.4922,-11.6684,-16.1456,28,0.9174,7959,4.0524,-172.5449
rg,1625266159549726686,1,0.0938,-0.27,1.0249,754,1.6479,-10.6812,15.0757,87,0.8224,0.4932,-11.6487,-16.172,28,0.9184,7995,4.0524,-171.8422
rg,1625266159549752445,1,0.0903,-0.2773,1.0244,755,1.2207,-10.376,13.7939,87,0.8194,0.4922,-11.621,-16.2107,28,0.9184,8230,4.0524,-171.1918
rg,1625266159549777816,1,0.0908,-0.2764,1.0259,756,1.8311,-11.9629,13.916,87,0.8224,0.4922,-11.6543,-16.2253,28,0.9184,8065,4.0524,-170.5192
rg,1625266159549827593,1,0.0872,-0.2788,1.0203,757,1.2817,-11.8408,15.0757,87,0.8224,0.4932,-11.6834,-16.2796,28,0.9184,8048,4.0524,-169.8007
rg,1625266159549857612,1,0.0989,-0.272,1.0154,758,2.4414,-12.6343,14.8926,87,0.8184,0.4932,-11.7475,-16.2742,28,0.9184,8079,4.0524,-169.0829
rg,1625266159549883760,1,0.1006,-0.2744,1.0171,759,3.6621,-11.5356,15.3809,87,0.8224,0.4922,-11.765,-16.2263,28,0.9184,8119,4.0524,-168.3576
rg,1625266159549912593,1,0.0974,-0.2656,1.0112,760,3.3569,-10.8643,14.9536,87,0.8234,0.4922,-11.7481,-16.1725,28,0.9184,8121,4.0524,-167.6597
rg,1625266159549939075,1,0.0903,-0.2681,1.012,761,2.8076,-9.9487,13.6108,95,0.8224,0.4922,-11.7024,-16.1124,28,0.9184,9849,4.0502,-167.0222
rg,1625266159549968334,1,0.0847,-0.2644,1.019,762,3.1128,-10.8643,15.1978,95,0.8234,0.4912,-11.6666,-16.0666,28,0.9184,8137,4.0502,-166.3158
rg,1625266159549995871,1,0.0862,-0.2725,1.0203,763,2.5635,-10.437,14.1602,95,0.8234,0.4942,-11.6301,-16.0512,28,0.9184,12920,4.0502,-165.6516
rg,1625266159550022890,1,0.0916,-0.2729,1.0139,764,3.2349,-11.6577,15.625,95,0.8234,0.4932,-11.6188,-15.9835,28,0.9184,8234,4.0502,-164.9242
rg,1625266159550050019,1,0.0867,-0.2612,1.0208,765,3.9673,-13.916,14.4043,95,0.8234,0.4932,-11.7178,-15.9014,28,0.9184,8254,4.0502,-164.2157
rg,1625266159550075482,1,0.0911,-0.2607,1.0195,766,2.0752,-12.5122,14.5264,95,0.8234,0.4932,-11.7678,-15.8964,28,0.9184,8264,4.0502,-163.518
rg,1625266159550101538,1,0.1038,-0.2654,1.0088,767,2.6245,-11.1694,15.625,95,0.8234,0.4942,-11.801,-15.9248,28,0.9184,8303,4.0502,-162.8063
rg,1625266159550127945,1,0.092,-0.2771,1.0403,768,1.3428,-11.0474,15.0757,95,0.8234,0.4932,-11.7825,-15.9727,28,0.9184,8936,4.0502,-162.0988
rg,1625266159903539482,1,0.1001,-0.272,1.0024,769,2.1973,-13.6108,16.2964,95,0.8234,0.4932,-11.8733,-16.0115,28,0.9194,27191,4.0502,-161.3122
rg,1625266159903585630,1,0.0908,-0.2747,1.0137,770,1.8921,-9.2163,15.564,95,0.8244,0.4952,-11.7776,-16.0441,27,0.9194,14204,4.0502,-160.6044
rg,1625266159903606649,1,0.0706,-0.283,1.0105,771,2.6855,-10.2539,15.625,95,0.8244,0.4952,-11.6814,-16.0648,27,0.9194,7804,4.0502,-159.8788
rg,1625266159903625778,1,0.074,-0.2749,1.0249,772,2.3804,-9.8267,14.4043,95,0.8244,0.4952,-11.5916,-16.0597,27,0.9194,7730,4.0502,-159.2115
rg,1625266159903646686,1,0.082,-0.2771,1.0171,773,2.5635,-11.4136,14.0381,95,0.8244,0.4952,-11.5884,-16.0567,27,0.9194,7724,4.0502,-158.5387
rg,1625266159903692834,1,0.0881,-0.2766,1.0186,774,2.8076,-12.4512,15.0146,95,0.8254,0.4952,-11.6264,-16.0196,28,0.9194,7711,4.0502,-157.8701
rg,1625266159903712686,1,0.0913,-0.2632,1.021,775,2.8687,-11.2305,13.916,95,0.8244,0.4952,-11.6366,-15.9735,28,0.9194,8949,4.0502,-157.2104
rg,1625266159903732278,1,0.092,-0.27,1.0171,776,2.0142,-11.1694,14.8315,95,0.8244,0.4962,-11.636,-15.9872,28,0.9194,8313,4.0502,-156.5119
rg,1625266159903750149,1,0.0859,-0.2732,1.0129,777,2.6245,-11.5356,14.6484,95,0.8254,0.4952,-11.639,-15.9845,28,0.9204,7918,4.0502,-155.8147
rg,1625266159903768278,1,0.0864,-0.2651,1.0125,778,1.709,-12.7563,15.3198,95,0.8254,0.4962,-11.6826,-16.0099,27,0.9204,9924,4.0502,-155.0807
rg,1625266159903786038,1,0.0908,-0.2668,1.0144,779,2.1362,-11.4746,14.5264,95,0.8254,0.4962,-11.6871,-16.0092,27,0.9204,7823,4.0502,-154.3921
rg,1625266159903803926,1,0.0859,-0.2708,1.0264,780,2.1973,-11.2305,14.4043,95,0.8224,0.4962,-11.6766,-16.0078,27,0.9204,7869,4.0502,-153.7105
rg,1625266159903822538,1,0.0964,-0.2717,1.0146,781,2.3193,-10.8643,13.6719,95,0.8254,0.4962,-11.6849,-16.0036,27,0.9204,7919,4.0502,-153.06
rg,1625266159903839463,1,0.0933,-0.272,1.021,782,1.9531,-12.3291,14.7705,95,0.8254,0.4962,-11.7289,-16.0235,28,0.9204,7937,4.0502,-152.3504
rg,1625266159903856389,1,0.0967,-0.2656,1.0132,783,1.8311,-11.3525,15.0757,95,0.8264,0.4972,-11.7392,-16.039,28,0.9204,7929,4.0502,-151.6417
rg,1625266159903874297,1,0.0911,-0.2698,1.0188,784,1.4648,-9.9487,14.5874,95,0.8254,0.4972,-11.6873,-16.0667,28,0.9215,7947,4.0502,-150.967
rg,1625266159903892204,1,0.0837,-0.2751,1.0264,785,0.7935,-9.9487,13.9771,95,0.8254,0.4972,-11.6266,-16.1216,28,0.9204,13405,4.0502,-150.3151
rg,1625266159903909501,1,0.0808,-0.2776,1.0125,786,1.3428,-11.3525,14.8926,95,0.8264,0.4982,-11.6072,-16.1755,28,0.9204,8069,4.0502,-149.6089
rg,1625266159903926149,1,0.0959,-0.2693,1.0186,787,2.7466,-11.7798,14.9536,95,0.8254,0.4982,-11.6484,-16.182,28,0.9204,8035,4.0502,-148.883
rg,1625266159903942908,1,0.0972,-0.2708,1.019,788,0.9155,-12.146,15.1367,95,0.8264,0.4992,-11.6597,-16.2491,28,0.9204,9505,4.0502,-148.1547
rg,1625266159903972945,1,0.0811,-0.2712,1.0164,789,2.7466,-11.5356,14.8926,95,0.8254,0.4992,-11.6451,-16.2272,27,0.9204,8075,4.0502,-147.4499
rg,1625266159903991760,1,0.0828,-0.2705,1.0234,790,3.0518,-10.376,12.6343,95,0.8254,0.4992,-11.615,-16.1676,27,0.9204,8789,4.0502,-146.8481
rg,1625266159904009260,1,0.0986,-0.2676,1.0117,791,1.5869,-12.146,15.3198,95,0.8264,0.5002,-11.66,-16.1946,27,0.9215,8732,4.0502,-146.1204
rg,1625266159904026593,1,0.1042,-0.2683,1.0178,792,2.1973,-12.085,15.3809,95,0.8264,0.5002,-11.6835,-16.1953,27,0.9215,8153,4.0502,-145.3914
rg,1625266159904043371,1,0.0918,-0.2639,1.0195,793,2.5024,-8.3618,12.0239,95,0.8244,0.5002,-11.602,-16.1378,28,0.9215,8197,4.0502,-144.8387
rg,1625266159904060315,1,0.0867,-0.2712,1.0171,794,1.6479,-11.2305,14.3433,95,0.8264,0.5002,-11.5971,-16.158,28,0.9215,8162,4.0502,-144.1588
rg,1625266159904076815,1,0.0881,-0.2678,1.0193,795,2.4414,-11.7188,15.0757,95,0.8274,0.5012,-11.5845,-16.1529,28,0.9215,8249,4.0502,-143.4662
rg,1625266159904093056,1,0.0942,-0.2729,1.0156,796,2.1362,-11.4746,14.4653,95,0.8264,0.4992,-11.6044,-16.1589,28,0.9215,8603,4.0502,-142.7779
rg,1625266159904109704,1,0.0884,-0.269,1.0168,797,2.7466,-11.7188,14.5874,95,0.8264,0.5012,-11.6191,-16.1331,28,0.9215,8775,4.0502,-142.0838
rg,1625266159904126112,1,0.0952,-0.2686,1.0186,798,2.5635,-10.9253,13.2446,95,0.8264,0.5012,-11.6324,-16.1014,28,0.9215,8593,4.0502,-141.4517
rg,1625266159904142371,1,0.0916,-0.2632,1.0142,799,2.9907,-10.9863,14.9536,95,0.8274,0.5022,-11.6223,-16.0587,28,0.9215,8324,4.0502,-140.7536
rg,1625266159904171834,1,0.0884,-0.2671,1.0198,800,2.0142,-10.8643,14.8926,95,0.8264,0.5032,-11.5771,-16.05,28,0.9204,8389,4.0502,-140.1352
rg,1625266160263114111,1,0.0815,-0.2747,1.0156,801,1.9531,-11.6577,13.4888,95,0.8274,0.5042,-11.5763,-16.081,28,0.9215,26726,4.0502,-139.4209
rg,1625266160263149426,1,0.1001,-0.2651,1.0168,802,2.0142,-10.3149,13.855,95,0.8264,0.5032,-11.5725,-16.0698,28,0.9204,11677,4.0502,-138.773
rg,1625266160263169852,1,0.0818,-0.2666,1.0178,803,1.1597,-10.0708,14.8315,95,0.8274,0.5052,-11.5094,-16.1024,28,0.9215,7701,4.0502,-138.089
rg,1625266160263188852,1,0.0767,-0.2747,1.0178,804,1.0986,-10.437,14.6484,95,0.8274,0.5052,-11.4941,-16.1496,28,0.9215,7665,4.0502,-137.3854
rg,1625266160263206778,1,0.0771,-0.2688,1.0234,805,1.5259,-11.9629,14.7095,95,0.8284,0.5052,-11.4962,-16.1687,28,0.9215,9377,4.0502,-136.6847
rg,1625266160263243815,1,0.1008,-0.2727,1.0256,806,2.1973,-12.5732,14.4653,95,0.8274,0.5062,-11.5736,-16.1673,28,0.9215,7759,4.0502,-135.9852
rg,1625266160263261315,1,0.0986,-0.2729,1.0178,807,1.9531,-11.8408,14.0381,95,0.8284,0.5052,-11.6214,-16.1763,28,0.9215,11076,4.0502,-135.3097
rg,1625266160263278074,1,0.0874,-0.2708,1.0266,808,2.9907,-10.376,12.8174,95,0.8284,0.5062,-11.5999,-16.1212,28,0.9215,7809,4.0502,-134.7008
rg,1625266160263294723,1,0.0964,-0.2751,1.0168,809,2.6855,-11.8408,14.9536,95,0.8284,0.5062,-11.6326,-16.1155,28,0.9215,7825,4.0502,-133.9882
rg,1625266160263311185,1,0.0974,-0.2737,1.0125,810,2.1973,-11.1694,14.6484,95,0.8294,0.5062,-11.6446,-16.1253,28,0.9215,7810,4.0502,-133.2952
rg,1625266160263328093,1,0.0942,-0.27,1.0139,811,3.54,-11.5356,14.8926,95,0.8294,0.5072,-11.6608,-16.0754,28,0.9225,7845,4.0502,-132.5903
rg,1625266160263344408,1,0.0901,-0.2673,1.0127,812,2.6245,-10.7422,13.855,95,0.8294,0.5072,-11.6382,-16.0195,28,0.9225,8186,4.0502,-131.9134
rg,1625266160263360797,1,0.0911,-0.2695,1.0237,813,3.1128,-9.7656,13.3667,95,0.8284,0.5062,-11.5966,-15.9678,28,0.9215,7924,4.0502,-131.2894
rg,1625266160263378667,1,0.0906,-0.271,1.0164,814,3.1128,-10.7422,15.1367,95,0.8284,0.5072,-11.5751,-15.9412,28,0.9215,8434,4.0502,-130.5833
rg,1625266160263395537,1,0.085,-0.272,1.0217,815,3.9673,-9.8877,14.0991,95,0.8294,0.5072,-11.5208,-15.87,28,0.9225,7965,4.0502,-129.9277
rg,1625266160263412926,1,0.085,-0.2693,1.0166,816,3.8452,-10.3149,14.7095,95,0.8304,0.5052,-11.4801,-15.809,28,0.9225,7955,4.0502,-129.2437
rg,1625266160263429852,1,0.084,-0.2676,1.0198,817,4.2114,-10.376,15.4419,95,0.8294,0.5052,-11.4337,-15.7356,28,0.9225,8002,4.0502,-128.5312
rg,1625266160263446000,1,0.084,-0.2671,1.0178,818,3.7842,-12.146,16.4185,95,0.8294,0.5082,-11.4475,-15.6936,28,0.9194,7991,4.0502,-127.7603
rg,1625266160263462130,1,0.0867,-0.269,1.0166,819,3.1128,-11.5967,15.8691,95,0.8294,0.5082,-11.4518,-15.6794,28,0.9225,8041,4.0502,-127.0161
rg,1625266160263478537,1,0.0852,-0.2661,1.0186,820,3.7231,-11.7798,16.2964,95,0.8294,0.5072,-11.4554,-15.638,28,0.9225,8047,4.0502,-126.2544
rg,1625266160263494852,1,0.0933,-0.2656,1.0173,821,2.7466,-11.1694,14.2822,95,0.8294,0.5082,-11.4749,-15.6199,28,0.9194,8057,4.0502,-125.5786
rg,1625266160263522482,1,0.0886,-0.2625,1.0176,822,2.0752,-11.6577,15.1978,95,0.8304,0.5092,-11.4928,-15.6308,28,0.9235,8113,4.0502,-124.8627
rg,1625266160263540130,1,0.0881,-0.2639,1.0134,823,2.3804,-11.9629,14.8926,95,0.8304,0.5092,-11.5245,-15.6331,28,0.9235,8125,4.0502,-124.1543
rg,1625266160263556611,1,0.0942,-0.2688,1.0164,824,2.0752,-12.8174,14.8926,95,0.8294,0.5082,-11.5998,-15.6589,28,0.9215,8176,4.0502,-123.4345
rg,1625266160263573260,1,0.1003,-0.2651,1.0127,825,1.6479,-12.7563,14.3433,95,0.8304,0.5092,-11.6892,-15.6915,28,0.9225,8132,4.0502,-122.7381
rg,1625266160263589852,1,0.0884,-0.2705,1.0186,826,2.3193,-11.8408,13.4277,95,0.8304,0.5092,-11.7228,-15.6955,28,0.9225,8207,4.0502,-122.0862
rg,1625266160263606797,1,0.095,-0.2668,1.0117,827,2.4414,-11.3525,12.8784,95,0.8294,0.5092,-11.7578,-15.6855,28,0.9235,8215,4.0502,-121.4621
rg,1625266160263622963,1,0.0996,-0.2612,1.0229,828,2.7466,-11.2915,13.6719,95,0.8314,0.5092,-11.7888,-15.6522,28,0.9245,8259,4.0502,-120.8111
rg,1625266160263639241,1,0.1067,-0.2605,1.0168,829,3.2349,-12.4512,14.5264,95,0.8304,0.5092,-11.804,-15.6455,28,0.9235,8291,4.0502,-120.1864
rg,1625266160263655537,1,0.0933,-0.261,1.0234,830,2.0142,-7.3853,12.6343,95,0.8304,0.5092,-11.6813,-15.6248,28,0.9235,8253,4.0502,-119.6196
rg,1625266160263672241,1,0.082,-0.2732,1.0161,831,2.6245,-8.606,13.6108,95,0.8314,0.5092,-11.5768,-15.6198,28,0.9245,8307,4.0502,-118.9947
rg,1625266160263689056,1,0.0867,-0.2656,1.0203,832,2.1973,-9.3384,15.7471,95,0.8314,0.5082,-11.4909,-15.6309,28,0.9245,8514,4.0502,-118.2817
rg,1625266160613539870,1,0.0735,-0.2634,1.0181,833,2.6855,-9.4604,13.855,95,0.8304,0.5092,-11.4061,-15.6031,28,0.9245,27579,4.0502,-117.6425
rg,1625266160613584445,1,0.075,-0.2678,1.02,834,2.3804,-11.7798,14.0381,95,0.8304,0.5082,-11.5006,-15.5687,28,0.9235,13339,4.0502,-116.9798
rg,1625266160613606963,1,0.0884,-0.2581,1.0205,835,1.8921,-13.3057,14.3433,95,0.8314,0.5092,-11.5897,-15.5757,28,0.9245,7758,4.0502,-116.2813
rg,1625266160613627000,1,0.0923,-0.2659,1.0176,836,2.2583,-13.3057,15.3198,95,0.8314,0.5102,-11.6731,-15.5949,28,0.9245,7733,4.0502,-115.5405
rg,1625266160613645445,1,0.1064,-0.2568,1.0156,837,2.2583,-13.1226,15.4419,95,0.8304,0.5102,-11.7758,-15.597,28,0.9245,7751,4.0502,-114.8006
rg,1625266160613694815,1,0.0884,-0.2715,1.0154,838,1.709,-10.7422,12.8784,95,0.8314,0.5102,-11.7711,-15.6268,28,0.9245,7724,4.0502,-114.1812
rg,1625266160613716685,1,0.0999,-0.2729,1.0159,839,2.5024,-12.2681,14.9536,95,0.8304,0.5092,-11.8268,-15.6472,28,0.9245,8913,4.0502,-113.4628
rg,1625266160613734722,1,0.0964,-0.2664,1.0142,840,2.0142,-11.1084,14.5874,95,0.8314,0.5092,-11.8337,-15.6557,28,0.9245,8260,4.0502,-112.7769
rg,1625266160613753519,1,0.0977,-0.2661,1.0264,841,2.9297,-11.9019,15.7471,95,0.8294,0.5092,-11.8579,-15.6437,28,0.9245,7759,4.0502,-112.0355
rg,1625266160613771759,1,0.094,-0.2659,1.0168,842,3.2959,-9.2773,13.4277,95,0.8314,0.5112,-11.7997,-15.5975,28,0.9245,7805,4.0502,-111.4135
rg,1625266160613791519,1,0.0872,-0.2622,1.0239,843,2.2583,-10.376,15.1367,95,0.8314,0.5102,-11.7524,-15.5984,28,0.9245,7852,4.0502,-110.7143
rg,1625266160613809185,1,0.0818,-0.2583,1.021,844,2.7466,-10.1318,14.9536,95,0.8314,0.5102,-11.689,-15.5703,28,0.9215,7861,4.0502,-110.0266
rg,1625266160613826963,1,0.0876,-0.2595,1.02,845,1.9531,-10.6812,15.0757,95,0.8314,0.5112,-11.6471,-15.6006,28,0.9255,7866,4.0502,-109.3803
rg,1625266160613844574,1,0.0825,-0.2654,1.0242,846,1.77,-10.6812,14.1602,95,0.8314,0.5112,-11.6178,-15.6186,28,0.9235,7890,4.0502,-108.7151
rg,1625266160613862945,1,0.0781,-0.2646,1.0208,847,0.8545,-10.0708,13.1836,95,0.8314,0.5102,-11.5677,-15.6631,28,0.9245,7920,4.0502,-108.0951
rg,1625266160613882352,1,0.084,-0.2605,1.0161,848,1.8311,-10.8032,13.4888,95,0.8324,0.5112,-11.5833,-15.7207,28,0.9255,7949,4.0502,-107.3884
rg,1625266160613900852,1,0.0933,-0.2566,1.0112,849,1.8921,-12.3901,15.1367,95,0.8314,0.5112,-11.6359,-15.7287,28,0.9245,7934,4.0502,-106.6686
rg,1625266160613918408,1,0.092,-0.2637,1.0178,850,0.4883,-11.0474,14.1602,95,0.8314,0.5112,-11.6408,-15.7934,28,0.9255,7970,4.0502,-105.9998
rg,1625266160613935963,1,0.085,-0.2637,1.0308,851,0.6104,-11.1084,14.0381,95,0.8324,0.5112,-11.6222,-15.8627,28,0.9245,8043,4.0502,-105.3328
rg,1625266160613954167,1,0.0828,-0.2678,1.0261,852,0.061,-11.8408,13.5498,95,0.8314,0.5112,-11.6418,-15.9402,28,0.9245,9032,4.0502,-104.6787
rg,1625266160614002815,1,0.0911,-0.2686,1.0183,853,1.4038,-11.8408,13.5498,95,0.8324,0.5092,-11.6789,-15.9674,28,0.9255,10048,4.0502,-104.0235
rg,1625266160614040556,1,0.1089,-0.2712,1.0125,854,2.1973,-12.207,14.9536,95,0.8314,0.5112,-11.7518,-15.9836,28,0.9245,12794,4.0502,-103.3073
rg,1625266160614060370,1,0.095,-0.2666,1.0212,855,1.709,-9.5215,11.5356,95,0.8324,0.5112,-11.7255,-15.9707,28,0.9245,8118,4.0502,-102.7587
