name,time,activity,ax,ay,az,batch_val,gx,gy,gz,ibat,index,middle,pitch,roll,temp,thumb,ts,vbat,yaw
rg,1625222839531960756,1,0.1287,0.0193,1.0437,1,2.2583,-10.8032,13.7939,90,1.1296,1.4237,-18.3681,-1.673,30,1.1306,19496,4.0711,-94.5596
rg,1625222839532020989,1,0.1321,0.0234,1.0422,2,1.77,-12.0239,14.8926,90,1.1306,1.4227,-18.3873,-1.6819,30,1.1306,8528,4.0711,-93.9561
rg,1625222839532041875,1,0.1243,0.0269,1.0356,3,1.0986,-12.2681,14.4653,90,1.1296,1.4237,-18.4012,-1.7037,30,1.1306,7973,4.0711,-93.3731
rg,1625222839532062651,1,0.1262,0.0271,1.0469,4,1.2207,-12.146,14.1602,90,1.1306,1.4237,-18.4283,-1.7184,30,1.1306,8030,4.0711,-92.7663
rg,1625222839532081815,1,0.1292,0.0269,1.0454,5,1.2817,-12.207,15.0757,90,1.1306,1.4237,-18.4448,-1.7406,30,1.1306,8171,4.0711,-92.1575
rg,1625222839532099831,1,0.1257,0.0276,1.0464,6,2.1973,-13.5498,15.8081,90,1.1306,1.4237,-18.5057,-1.7346,30,1.1306,8067,4.0711,-91.5166
rg,1625222839532116866,1,0.1323,0.0283,1.0417,7,2.0752,-13.6108,15.1978,90,1.1306,1.4237,-18.5691,-1.7313,30,1.1306,8059,4.0711,-90.9212
rg,1625222839532135660,1,0.1404,0.0254,1.0486,8,2.0142,-13.6108,14.5264,90,1.1306,1.4227,-18.6592,-1.7226,30,1.1306,8104,4.0711,-90.3324
rg,1625222839532152417,1,0.1438,0.0271,1.0393,9,1.77,-13.0005,15.625,90,1.1306,1.4237,-18.7301,-1.7352,30,1.1306,8099,4.0711,-89.6992
rg,1625222839532189820,1,0.1423,0.0312,1.04,10,2.0142,-11.6577,14.8315,90,1.1306,1.4237,-18.7084,-1.7516,30,1.1306,8118,4.0711,-89.1106
rg,1625222839532210669,1,0.1328,0.0347,1.0481,11,0.6104,-10.6201,15.4419,90,1.1306,1.4227,-18.6571,-1.7888,30,1.1306,8289,4.0711,-88.494
rg,1625222839532229889,1,0.125,0.0278,1.0457,12,1.4038,-11.0474,14.2212,90,1.1306,1.4237,-18.6102,-1.7914,30,1.1306,8102,4.0711,-87.9237
rg,1625222839532246720,1,0.1155,0.0232,1.0496,13,1.2207,-11.2915,14.4043,90,1.1306,1.4227,-18.6163,-1.8026,30,1.1306,8115,4.0711,-87.3243
rg,1625222839532263829,1,0.1162,0.0305,1.0518,14,1.4648,-13.916,14.9536,90,1.1296,1.4227,-18.6645,-1.8075,30,1.1306,8123,4.0711,-86.7211
rg,1625222839532280031,1,0.1123,0.0242,1.0413,15,2.0142,-15.4419,15.9302,90,1.1306,1.4227,-18.8193,-1.8798,30,1.1306,8319,4.0711,-86.0457
rg,1625222839532297159,1,0.1003,-0.2148,0.1462,16,123.1689,107.4219,0,176,0.7404,0.5213,-14.3519,2.4697,30,0.9144,14076,4.0095,-85.8361
rg,1625222839532315138,1,-0.0193,0.032,0.1475,17,54.0161,97.9614,-9.6436,176,0.7434,0.5253,-9.6017,5.0346,30,0.9134,8248,4.0095,-86.0447
rg,1625222839532337339,1,-0.2483,-0.2734,0.1289,18,-83.9844,62.1948,-21.1182,176,0.7444,0.5313,-5.5634,0.1395,30,0.9134,7994,4.0095,-86.5689
rg,1625222839532355522,1,-0.3044,-0.5569,0.3564,19,-149.5972,30.0903,-6.1646,176,0.7484,0.5353,-5.2206,-9.1098,30,0.9164,8103,4.0095,-85.676
rg,1625222839532373483,1,-0.0232,-1.5557,1.4714,20,-167.1753,-20.6909,36.438,176,0.7534,0.5313,-5.4917,-17.296,30,0.9204,7992,4.0095,-83.9516
rg,1625222839532394054,1,0.1277,-1.6643,0.6416,21,-14.7095,-62.8052,20.3247,176,0.7614,0.5393,-7.626,-19.8444,30,0.9255,8286,4.0095,-82.1961
rg,1625222839532448029,1,0.208,-1.415,0.7256,22,25.0244,-58.96,2.8687,176,0.7694,0.5473,-9.1735,-19.0727,30,0.9335,8067,4.0095,-81.6226
rg,1625222839532468286,1,0.2324,-0.9023,0.771,23,73.6694,-21.8506,-2.3804,176,0.7824,0.5583,-10.155,-17.3044,30,0.9395,8232,4.0095,-81.2556
rg,1625222839532489024,1,0.1111,-0.7893,0.479,24,79.2236,-19.165,-11.1084,176,0.7974,0.5733,-10.9838,-15.6206,30,0.9455,8081,4.0095,-81.1973
rg,1625222839532508096,1,-0.0691,-0.7588,0.4546,25,73.3032,-15.1978,-11.1084,176,0.8054,0.5863,-11.0058,-14.4032,30,0.9505,8275,4.0095,-81.1391
rg,1625222839532526964,1,-0.136,-0.6995,0.4587,26,53.2837,-22.7661,-6.2256,176,0.8034,0.5913,-11.2732,-13.8088,30,0.9525,8150,4.0095,-80.8585
rg,1625222839532547628,1,-0.0979,-0.6638,0.4624,27,-48.9502,-115.4785,0.2441,176,0.7824,0.6023,-15.0888,-17.5713,30,0.9515,8402,4.0095,-79.2824
rg,1625222839532566662,1,0.1858,-0.8049,0.5491,28,-116.6382,-181.9458,8.5449,176,0.7584,0.5853,-21.6428,-24.6354,30,0.9405,8751,4.0095,-75.811
rg,1625222839532585512,1,0.2966,-0.9539,0.5906,29,-115.4785,-176.6357,21.8506,176,0.7464,0.5553,-26.7449,-32.245,30,0.9285,8248,4.0095,-69.9511
rg,1625222839532603399,1,0.7615,-1.3179,0.9277,30,-77.8198,-156.4331,72.2046,176,0.7444,0.5293,-30.0773,-39.4863,30,0.9255,9326,4.0095,-62.7167
rg,1625222839532620878,1,0.863,-1.5396,0.4045,31,27.1606,-70.6177,89.7827,176,0.7434,0.5203,-29.9475,-42.3831,30,0.9174,8351,4.0095,-56.7633
rg,1625222839532637709,1,0.7229,-1.0767,0.2795,32,124.0234,25.0854,45.105,176,0.7434,0.5062,-28.3006,-39.0107,30,0.9104,8726,4.0095,-55.3684
rg,1625222839800751013,1,0.0654,0.1616,0.1604,33,135.437,83.6792,-30.4565,176,0.7454,0.4952,-26.6069,-29.6543,30,0.8974,23729,4.0095,-59.8368
rg,1625222839800823264,1,-0.124,0.0286,-0.012,34,-0.7324,55.603,-28.2593,176,0.7474,0.5012,-23.4483,-28.3585,30,0.8984,9240,4.0095,-62.2622
rg,1625222839800857333,1,-0.1504,-0.425,0.0388,35,-179.2603,13.1226,17.7002,176,0.7494,0.5102,-21.4152,-37.5097,30,0.8994,7935,4.0095,-61.2605
rg,1625222839800877683,1,0.094,-0.8354,0.9407,36,-254.5776,-1.2817,39.3677,176,0.7534,0.5133,-18.9932,-47.8183,30,0.9024,7775,4.0095,-60.3266
rg,1625222839800898828,1,0.1328,-1.9148,1.2458,37,-139.7705,39.6729,46.936,176,0.7584,0.5153,-15.9321,-53.7256,30,0.9084,8065,4.0095,-60.2891
rg,1625222839800983614,1,0.1001,-1.5979,0.5586,38,21.7896,-28.9307,-0.5493,176,0.7644,0.5153,-16.1592,-53.7993,30,0.9164,8277,4.0095,-59.1407
rg,1625222839801009055,1,0.1453,-0.9224,0.9246,39,67.627,4.8828,-2.0142,176,0.7774,0.5233,-15.7194,-50.6708,30,0.9265,8390,4.0095,-59.4458
rg,1625222839801030886,1,0.1733,-0.7729,0.7603,40,85.4492,-2.0752,2.8076,176,0.7924,0.5373,-15.4244,-47.0788,30,0.9355,8055,4.0095,-59.356
rg,1625222839801050050,1,0.2454,-0.8667,0.5471,41,64.3921,-22.4609,-6.4087,176,0.8104,0.5603,-16.1586,-45.0563,30,0.9405,8182,4.0095,-58.754
rg,1625222839801068196,1,0.2283,-0.9739,0.4048,42,68.6646,-15.1367,-1.77,176,0.8424,0.5753,-16.5293,-43.2973,30,0.9455,8610,4.0095,-58.1195
rg,1625222839801086564,1,0.1562,-0.7854,0.3643,43,78.4302,-2.2583,-5.4321,176,0.8584,0.6043,-16.5387,-40.9968,30,0.9485,12753,4.0095,-57.9733
rg,1625222839801106914,1,0.0034,-0.4438,0.4395,44,-18.3716,-46.1426,5.4321,176,0.8494,0.6183,-17.1296,-42.3154,30,0.9505,12234,4.0095,-56.477
rg,1625222839801124912,1,0.1411,-0.5471,0.5168,45,-77.2705,-92.1021,15.9912,176,0.8084,0.6203,-19.0349,-46.552,30,0.9505,8045,4.0095,-53.2394
rg,1625222839801144465,1,0.3884,-0.8752,0.5601,46,-146.9727,-138.855,28.8696,176,0.7674,0.6143,-21.6963,-54.6987,30,0.9485,8065,4.0095,-47.7401
rg,1625222839801164925,1,0.6062,-1.2937,0.4348,47,-138.5498,-132.019,59.082,176,0.7454,0.5813,-22.4751,-63.1931,30,0.9405,8227,4.0095,-41.3072
rg,1625222839801205939,1,0.7261,-1.365,0.4412,48,-116.1499,-95.9473,68.0542,176,0.7384,0.5423,-21.658,-70.022,30,0.9265,8167,4.0095,-36.2128
rg,1625222839801229973,1,0.7764,-1.2729,0.8394,49,-20.0806,34.2407,72.5708,176,0.7384,0.5183,-18.7042,-70.1967,30,0.9235,8779,4.0095,-36.7363
rg,1625222839801248489,1,0.4265,-1.2112,0.4541,50,83.4961,72.5098,63.1104,176,0.7404,0.5072,-15.2834,-66.2792,30,0.9134,9441,4.0095,-38.5985
rg,1625222839801290262,1,0.1433,-0.7812,0.3328,51,124.5117,58.0444,-3.479,176,0.7384,0.4962,-14.1557,-60.7613,30,0.9084,8826,4.0095,-40.7972
rg,1625222839801310148,1,-0.1472,-0.2646,0.1633,52,165.1001,70.9839,-36.377,176,0.7404,0.4882,-12.4028,-53.3517,30,0.9054,8801,4.0095,-43.9777
rg,1625222839801327646,1,-0.1997,-0.0652,0.1924,53,145.874,72.937,-32.959,176,0.7404,0.4902,-9.6863,-46.0167,30,0.9034,8302,4.0095,-47.1872
rg,1625222839801345718,1,-0.312,0.0334,0.1184,54,45.0439,13.7329,-8.4839,176,0.7434,0.4962,-7.3886,-43.3879,30,0.9044,8846,4.0095,-47.8927
rg,1625222839801380861,1,-0.1843,-0.3689,0.1047,55,-109.436,-107.2998,21.1182,176,0.7464,0.5052,-8.5143,-49.3064,30,0.9074,8246,4.0095,-44.0925
rg,1625222839801411080,1,0.5413,-1.3606,1.8743,56,-185.9741,-152.4658,34.1187,176,0.7514,0.5102,-10.6691,-58.2465,30,0.9114,8320,4.0095,-38.3059
rg,1625222839801429763,1,0.5637,-1.7559,1.3547,57,-133.5449,-88.9282,47.7295,176,0.7594,0.5112,-10.911,-60.6592,30,0.9204,9884,4.0095,-35.1879
rg,1625222839801448409,1,0.5706,-1.624,0.5649,58,19.6533,-62.439,9.9487,176,0.7694,0.5213,-12.0746,-60.7334,30,0.9275,8404,4.0095,-32.6932
rg,1625222839801467147,1,0.5305,-1.0359,0.8599,59,72.876,27.3438,-18.0054,176,0.7844,0.5343,-12.5051,-57.1308,30,0.9385,8981,4.0095,-34.1305
rg,1625222839801486774,1,0.3145,-0.7922,0.512,60,94.4824,60.5469,-18.8599,176,0.8044,0.5523,-11.9743,-52.8204,30,0.9455,8770,4.0095,-36.6163
rg,1625222839801504402,1,0.0852,-0.8196,0.4546,61,70.9839,74.585,-18.3105,176,0.8264,0.5693,-10.4281,-49.7522,30,0.9505,8760,4.0095,-39.3849
rg,1625222839801521344,1,0.0017,-0.8269,0.4807,62,62.439,73.7915,-12.0239,176,0.8404,0.5863,-8.4961,-47.6413,30,0.9545,8832,4.0095,-41.2747
rg,1625222839801539286,1,-0.1418,-0.6926,0.502,63,33.5083,21.4844,-6.7139,176,0.8344,0.5983,-7.4132,-46.4341,30,0.9555,8610,4.0095,-42.0501
rg,1625222839801558191,1,-0.0547,-0.6287,0.4653,64,-65.4907,-96.3135,3.0518,176,0.7984,0.6023,-9.4296,-49.7522,30,0.9535,9086,4.0095,-39.0417
rg,1625222840189484941,1,0.8293,-1.3838,0.561,65,-112.6099,-136.3525,78.4302,176,0.7424,0.5383,-9.5803,-53.9454,30,0.9365,29309,4.0095,-34.573
rg,1625222840189516233,1,0.864,-1.5469,0.6458,66,2.3804,20.752,73.1201,176,0.7424,0.5203,-6.3241,-52.2673,30,0.9325,9143,4.0095,-34.6802
rg,1625222840189536675,1,0.4048,-1.0054,0.4084,67,126.3428,92.8955,15.1367,176,0.7424,0.5062,-4.0499,-47.5662,30,0.9275,10814,4.0095,-37.1104
rg,1625222840189556155,1,-0.04,-0.355,0.1487,68,181.3354,117.8589,-44.7388,176,0.7424,0.4942,-1.5604,-40.8692,30,0.9245,7812,4.0095,-41.6036
rg,1625222840189574430,1,-0.1196,-0.0645,0.1448,69,180.542,120.0562,-49.0112,176,0.7424,0.4922,1.4637,-33.0001,30,0.9235,7872,4.0095,-45.473
rg,1625222840189592039,1,-0.3159,0.1262,0.0869,70,119.0796,52.4902,-60.73,176,0.7444,0.4972,4.082,-27.4074,30,0.9245,7733,4.0095,-48.4987
rg,1625222840189609926,1,-0.3943,-0.1338,-0.1042,71,-34.5459,-56.8237,-13.7939,176,0.7494,0.5062,3.9174,-29.6287,30,0.9275,10485,4.0095,-47.9943
rg,1625222840189627591,1,-0.1357,-0.5288,0.1697,72,-214.2944,-154.541,51.3916,176,0.7554,0.5123,0.4437,-39.4535,30,0.9325,7896,4.0095,-42.9483
rg,1625222840189663753,1,0.5005,-1.1541,1.832,73,-279.9072,-185.73,68.9697,176,0.7614,0.5112,-2.0668,-48.2995,30,0.9395,7939,4.0095,-37.1052
rg,1625222840189682825,1,0.5503,-1.9302,0.6489,74,-67.5659,-78.8574,57.8613,176,0.7704,0.5233,-2.8174,-52.0045,30,0.9455,7920,4.0095,-33.1532
rg,1625222840189700823,1,0.7024,-1.5898,0.5874,75,57.5562,-68.7866,-11.2915,176,0.7804,0.5343,-5.6494,-50.4747,30,0.9535,8233,4.0095,-31.262
rg,1625222840189717988,1,0.4695,-0.8833,0.7581,76,83.252,2.4414,-31.3721,176,0.7974,0.5463,-5.9592,-45.46,30,0.9585,8158,4.0095,-33.5127
rg,1625222840189734912,1,0.3057,-0.7034,0.5181,77,136.0474,61.2793,-23.8647,176,0.8194,0.5633,-5.3434,-40.0942,30,0.9635,9156,4.0095,-35.8847
rg,1625222840189751706,1,0.0168,-0.5317,0.2732,78,93.75,80.6885,-16.6016,176,0.8334,0.5763,-3.117,-37.0368,30,0.9675,7887,4.0095,-38.3404
rg,1625222840189768426,1,-0.1965,-0.5735,0.478,79,25.6958,56.1523,-6.5308,176,0.8394,0.5893,-0.7897,-36.4496,30,0.9695,8134,4.0095,-39.8653
rg,1625222840189785573,1,-0.2134,-0.6018,0.5332,80,-12.8174,-0.6714,3.2349,176,0.8244,0.5993,-0.1222,-37.4093,30,0.9715,8030,4.0095,-39.7435
rg,1625222840189802330,1,0.0398,-0.7634,0.5234,81,-110.4736,-141.1743,11.0474,176,0.7874,0.6043,-4.2263,-42.6644,30,0.9685,7989,4.0095,-35.7635
rg,1625222840189819050,1,0.3826,-1.0249,0.603,82,-135.3149,-190.1245,31.0059,176,0.7564,0.5943,-9.1095,-49.4302,30,0.9615,8536,4.0095,-29.3184
rg,1625222840189835604,1,0.7668,-1.3086,0.5815,83,-122.8638,-178.5889,54.5044,159,0.7464,0.5533,-10.6708,-55.0844,30,0.9545,8475,4.0205,-23.0717
rg,1625222840189852250,1,0.9624,-1.3276,0.7676,84,-55.6641,-67.5049,90.9424,159,0.7444,0.5303,-9.9371,-58.2372,30,0.9535,8785,4.0205,-18.704
rg,1625222840189869007,1,0.8564,-1.3584,0.2944,85,64.0259,35.9497,96.1914,159,0.7434,0.5183,-6.7918,-56.4486,30,0.9475,8440,4.0205,-17.7457
rg,1625222840189885339,1,0.5974,-0.8728,0.2515,86,119.6289,71.8384,16.2964,159,0.7434,0.5052,-5.6231,-52.0214,30,0.9425,8145,4.0205,-19.6883
rg,1625222840189911762,1,0.0994,-0.2715,0.1387,87,145.5688,81.3599,-35.1562,159,0.7424,0.4982,-5.9658,-45.2701,30,0.9375,8808,4.0205,-23.9365
rg,1625222840189929297,1,0.0015,-0.0125,0.1816,88,158.7524,84.5947,-78.2471,159,0.7444,0.5002,-5.3187,-36.9845,30,0.9345,8619,4.0205,-28.6758
rg,1625222840189945943,1,-0.2629,0.092,0.1235,89,69.3359,133.3008,-51.8799,159,0.7464,0.5042,-0.1812,-32.8909,30,0.9335,8483,4.0205,-33.4597
rg,1625222840189963608,1,-0.3467,-0.209,0.0071,90,-88.8062,40.7715,17.0288,159,0.7504,0.5112,3.4752,-37.4005,30,0.9355,8170,4.0205,-33.9149
rg,1625222840189980143,1,-0.269,-0.4111,0.092,91,-174.6826,-42.9688,30.2734,159,0.7554,0.5153,0.8779,-47.728,30,0.9395,8301,4.0205,-29.5402
rg,1625222840189997400,1,0.5732,-1.5557,2.3403,92,-279.48,-153.3203,45.9595,159,0.7634,0.5243,-1.7919,-58.3549,30,0.9455,8503,4.0205,-23.5092
rg,1625222840190013972,1,0.4016,-1.8826,0.4121,93,-40.0391,-96.0083,38.6963,159,0.7734,0.5323,-2.783,-60.8238,30,0.9545,8371,4.0205,-19.3811
rg,1625222840190030526,1,0.7588,-1.4067,0.6943,94,63.5986,-83.313,-0.2441,159,0.7874,0.5433,-5.3454,-58.5793,30,0.9635,8509,4.0205,-16.5141
rg,1625222840190047153,1,0.7112,-1.0103,0.7263,95,91.7969,-24.8413,-9.3994,159,0.8034,0.5603,-6.1988,-53.6889,30,0.9695,8358,4.0205,-17.2958
rg,1625222840190063726,1,0.4419,-0.6194,0.3081,96,113.7085,41.3818,0,159,0.8234,0.5633,-6.1851,-49.326,30,0.9735,8461,4.0205,-18.6078
rg,1625222840584571989,1,-0.0068,-0.8591,0.5349,97,-20.6909,29.48,4.4556,159,0.8444,0.5933,-5.0355,-50.4106,30,0.9795,24490,4.0205,-19.3659
rg,1625222840584622206,1,-0.0261,-0.8496,0.498,98,-41.626,-21.4844,10.2539,159,0.8164,0.6003,-6.3091,-54.0033,30,0.9805,8780,4.0205,-16.3658
rg,1625222840584645740,1,0.2437,-0.8782,0.551,99,-106.1401,-113.3423,29.2969,159,0.7794,0.5973,-8.0891,-58.9386,30,0.9765,8465,4.0205,-11.879
rg,1625222840584666979,1,0.4082,-1.0945,0.459,100,-117.8589,-126.9531,39.0625,159,0.7554,0.5733,-9.5146,-64.7568,30,0.9685,8777,4.0205,-6.5444
rg,1625222840584686939,1,0.6497,-1.2842,0.4565,101,-83.313,-76.9043,73.1812,159,0.7464,0.5463,-8.6492,-68.915,30,0.9575,8395,4.0205,-2.4691
rg,1625222840584706048,1,0.5742,-1.2935,0.2793,102,81.9702,51.6968,73.5474,159,0.7464,0.5153,-5.7383,-65.8529,30,0.9515,15883,4.0205,-3.234
rg,1625222840584724324,1,0.3677,-0.9104,0.3289,103,125.1221,48.4009,20.0806,159,0.7464,0.5072,-4.7527,-60.8762,30,0.9475,8149,4.0205,-4.6267
rg,1625222840584743303,1,0.1797,-0.6438,0.2727,104,148.3154,56.6406,-13.7939,159,0.7464,0.4992,-3.9591,-54.9477,30,0.9445,7824,4.0205,-6.8279
rg,1625222840584762838,1,-0.0842,-0.1572,0.1255,105,179.3213,78.186,-38.8184,159,0.7454,0.4962,-2.2077,-47.4823,30,0.9425,8022,4.0205,-10.1772
rg,1625222840584914080,1,-0.1821,0.0669,0.1108,106,108.5815,67.688,-13.2446,159,0.7474,0.4962,1.1897,-41.8402,30,0.9425,7878,4.0205,-12.4105
rg,1625222840584963963,1,-0.2134,-0.0554,-0.0176,107,-26.9775,5.127,20.874,159,0.7504,0.5042,4.0878,-43.439,30,0.9445,9281,4.0205,-11.9736
rg,1625222840585017901,1,-0.1223,-0.2629,0.0071,108,-120.9717,-49.6216,36.7432,159,0.7534,0.5102,4.6363,-49.5307,30,0.9475,8045,4.0205,-9.6661
rg,1625222840585041250,1,0.5737,-1.2197,1.8777,109,-272.2168,-114.6851,48.7061,159,0.7604,0.5153,2.8554,-59.4256,30,0.9535,8758,4.0205,-4.6972
rg,1625222840585060655,1,0.4492,-1.9773,0.6333,110,-75.5615,-14.8926,48.4619,159,0.7704,0.5253,3.6742,-62.8261,30,0.9615,8559,4.0205,-3.2501
rg,1625222840585080264,1,0.5652,-1.5852,0.7083,111,55.4199,-4.5776,3.1738,159,0.7814,0.5363,2.8594,-60.7059,30,0.9675,8513,4.0205,-3.0534
rg,1625222840585100206,1,0.458,-1.1191,0.7998,112,90.6982,47.0581,-9.2773,159,0.7964,0.5503,2.741,-56.6826,30,0.9745,8606,4.0205,-4.8621
rg,1625222840585118445,1,0.1936,-0.6384,0.4785,113,134.8267,75.8057,-3.7231,159,0.8134,0.5643,3.7498,-51.3015,30,0.9795,8305,4.0205,-7.4325
rg,1625222840585137554,1,-0.0449,-0.5518,0.3203,114,73.4253,69.9463,1.5259,159,0.8264,0.5683,5.5917,-48.8703,30,0.9835,8063,4.0205,-9.5714
rg,1625222840585156737,1,-0.0996,-0.5679,0.4648,115,36.6211,45.7153,-0.3052,159,0.8274,0.5803,5.4837,-49.0097,30,0.9865,8281,4.0205,-9.3016
rg,1625222840585175457,1,-0.1509,-0.7256,0.4636,116,-55.7251,-62.1948,9.0332,159,0.8084,0.5863,4.3554,-51.3663,30,0.9865,8153,4.0205,-7.1825
rg,1625222840585193899,1,0.2051,-0.9226,0.5645,117,-122.9858,-152.3438,21.8506,159,0.7744,0.5843,0.9021,-56.2929,30,0.9805,10104,4.0205,-1.7424
rg,1625222840585213138,1,0.4734,-1.1467,0.5159,118,-116.333,-170.0439,35.4614,159,0.7564,0.5653,-2.2083,-61.351,30,0.9695,8756,4.0205,4.8315
rg,1625222840585231950,1,0.8164,-1.2808,0.5598,119,-52.2461,-113.8306,65.918,159,0.7514,0.5443,-3.016,-63.8336,30,0.9695,8836,4.0205,10.1137
rg,1625222840585267261,1,0.8076,-1.324,0.2949,120,41.5039,1.8311,74.4019,159,0.7504,0.5303,-1.39,-62.6731,30,0.9665,8981,4.0205,11.3899
rg,1625222840585288110,1,0.748,-1.2107,0.2844,121,63.8428,31.311,67.1387,159,0.7504,0.5203,0.4962,-60.4462,30,0.9625,8641,4.0205,11.5426
rg,1625222840585305979,1,0.4109,-0.824,0.3232,122,102.5391,82.4585,4.6387,159,0.7484,0.5123,1.3879,-56.6781,30,0.9585,8806,4.0205,8.7841
rg,1625222840585324106,1,0.0132,-0.3376,0.1418,123,132.0801,101.4404,-39.978,159,0.7484,0.5052,2.3046,-51.9475,30,0.9555,8834,4.0205,4.5405
rg,1625222840585342974,1,-0.2041,-0.0908,0.1121,124,97.9614,113.7085,-31.7993,159,0.7494,0.5022,6.0297,-48.0481,30,0.9555,8800,4.0205,0.308
rg,1625222840585360324,1,-0.2764,-0.1243,0.0732,125,-3.9062,58.7158,9.5825,159,0.7544,0.5082,9.7561,-48.6166,30,0.9585,8791,4.0205,-1.2363
rg,1625222840585378044,1,-0.093,-0.5779,0.488,126,-79.895,4.3945,22.0337,159,0.7614,0.5173,9.2825,-54.628,30,0.9615,8734,4.0205,1.1653
rg,1625222840585398024,1,0.29,-1.1831,1.6023,127,-208.1909,-84.2285,37.2925,159,0.7674,0.5253,8.1265,-61.6481,30,0.9665,8466,4.0205,5.0052
rg,1625222840585463535,1,0.3679,-1.8474,0.738,128,-62.2559,-45.4102,40.2832,159,0.7784,0.5373,8.011,-64.0391,30,0.9735,8766,4.0205,7.3559
rg,1625222840869636882,1,0.1687,-0.6416,0.4167,129,121.9482,47.7905,-12.3901,159,0.8164,0.5643,7.6848,-59.1537,30,0.9865,25086,4.0205,5.4249
rg,1625222840869688431,1,0.0479,-0.5647,0.3616,130,94.4214,55.0537,-8.4839,159,0.8244,0.5733,8.3136,-57.0608,30,0.9905,9022,4.0205,3.6193
rg,1625222840869711207,1,-0.1392,-0.6201,0.4844,131,12.146,13.3667,-3.479,159,0.8224,0.5803,8.5556,-56.4414,30,0.9925,7932,4.0205,3.121
rg,1625222840869735019,1,0.0452,-0.8101,0.5786,132,-97.1069,-107.9712,10.9253,159,0.7954,0.5863,6.2226,-59.7176,30,0.9915,8426,4.0205,7.077
rg,1625222840869754813,1,0.2908,-1.0383,0.5403,133,-132.5684,-163.8794,7.5684,159,0.7724,0.5843,2.68,-64.6436,30,0.9855,8743,4.0205,13.0486
rg,1625222840869775569,1,0.3953,-1.1619,0.5378,134,-112.9761,-151.001,16.1133,159,0.7584,0.5643,0.1511,-69.0141,30,0.9765,8272,4.0205,18.8781
rg,1625222840869908110,1,0.7412,-1.293,0.5491,135,-52.002,-114.0747,65.1855,159,0.7544,0.5443,-0.01,-70.9984,30,0.9755,8380,4.0205,24.0659
rg,1625222840869931922,1,0.8096,-1.3303,0.2915,136,46.6309,-24.5972,69.0308,159,0.7534,0.5333,1.0923,-69.3321,30,0.9715,8483,4.0205,25.9001
rg,1625222840869951401,1,0.6489,-0.9939,0.2424,137,94.1772,35.7056,26.7334,159,0.7514,0.5143,1.3658,-65.8123,30,0.9655,8513,4.0205,24.9365
rg,1625222840869969269,1,0.0334,-0.2034,0.0657,138,148.3154,103.8818,-48.7061,159,0.7514,0.5002,1.0972,-60.2264,30,0.9625,12616,4.0205,20.3296
rg,1625222840869987286,1,-0.1616,-0.0237,0.0176,139,106.9946,120.6665,-29.7241,159,0.7524,0.5032,4.8313,-56.1459,30,0.9615,8069,4.0205,15.6861
rg,1625222840870005339,1,-0.2046,-0.0344,-0.0244,140,56.9458,98.5107,-4.5776,159,0.7564,0.5062,8.554,-58.0467,30,0.9625,8028,4.0205,13.9116
rg,1625222840870024189,1,-0.1804,-0.3,0.0476,141,-110.4126,5.0049,30.1514,159,0.7604,0.5163,10.5698,-63.1501,30,0.9645,8086,4.0205,14.1801
rg,1625222840870042187,1,0.415,-1.3059,1.9607,142,-242.6147,-79.0405,46.0815,159,0.7664,0.5233,10.319,-71.0232,30,0.9695,8023,4.0205,18.116
rg,1625222840870060796,1,0.3545,-1.8755,0.5122,143,-46.6919,-33.5083,46.9971,159,0.7744,0.5343,10.8852,-72.6634,30,0.9755,9161,4.0205,19.9883
rg,1625222840870079775,1,0.4885,-1.7559,0.4509,144,26.7944,-49.8657,23.1934,159,0.7854,0.5483,10.1602,-71.2895,30,0.9825,8365,4.0205,22.1739
rg,1625222840870099439,1,0.3674,-0.9888,0.7415,145,89.7827,28.1372,-19.8975,159,0.7984,0.5603,8.8061,-67.2319,30,0.9875,8867,4.0205,20.9082
rg,1625222840870121511,1,0.1006,-0.6147,0.4719,146,106.5674,58.4717,-13.4277,159,0.8114,0.5723,8.6731,-62.7491,30,0.9915,8145,4.0205,18.5993
rg,1625222840870144971,1,-0.1343,-0.6392,0.4558,147,75.4395,56.7627,-10.1929,159,0.8204,0.5753,9.0534,-61.0408,30,0.9955,8208,4.0205,17.2284
rg,1625222840870228684,1,-0.1804,-0.7358,0.5388,148,8.9722,-8.606,-7.2632,159,0.8224,0.5793,8.7191,-60.3588,30,0.9975,8183,4.0205,17.4378
rg,1625222840870255088,1,-0.0032,-0.8625,0.5127,149,-60.1196,-114.8071,8.7891,159,0.8044,0.5893,6.4998,-62.14,30,0.9975,8216,4.0205,21.6857
rg,1625222840870289214,1,0.3823,-1.0002,0.5684,150,-122.6807,-185.791,15.9302,159,0.7724,0.5873,2.9261,-66.3877,30,0.9925,8191,4.0205,28.712
rg,1625222840870310008,1,0.4546,-1.1018,0.5269,151,-131.7139,-178.2227,12.6953,159,0.7554,0.5483,-0.0359,-71.388,30,0.9815,8364,4.0205,35.5773
rg,1625222840870413885,1,0.7563,-1.2659,0.8113,152,-72.5708,-113.9526,46.2646,159,0.7494,0.5353,-0.6384,-73.8034,30,0.9875,8325,4.0205,40.4931
rg,1625222840870440567,1,0.8521,-1.4712,0.2976,153,49.3164,-44.0063,92.1631,159,0.7504,0.5253,1.2659,-71.9695,30,0.9825,8291,4.0205,43.2297
rg,1625222840870463046,1,0.9058,-1.3354,0.2886,154,72.7539,-21.4844,82.8857,159,0.7494,0.5133,1.8754,-67.6173,30,0.9805,8285,4.0205,42.6346
rg,1625222840870483895,1,0.4949,-0.7554,0.1902,155,157.7148,59.8145,2.3193,159,0.7484,0.5032,1.6956,-61.6558,30,0.9775,8487,4.0205,40.4316
rg,1625222840870505596,1,0.1382,-0.1426,0.0725,156,180.8472,90.9424,-40.5884,159,0.7484,0.4992,0.697,-54.5642,30,0.9765,8317,4.0205,36.3917
rg,1625222840870527446,1,-0.0791,0.0112,-0.0059,157,119.4458,110.6567,-26.3062,159,0.7504,0.5022,4.7942,-49.9437,30,0.9765,9889,4.0205,32.3434
rg,1625222840870546480,1,-0.0684,-0.064,-0.126,158,-3.2959,52.063,23.4375,159,0.7534,0.5072,7.8404,-52.1937,30,0.9775,8368,4.0205,31.1149
rg,1625222840870566626,1,-0.0129,-0.1946,-0.0562,159,-97.229,11.7798,32.4707,159,0.7584,0.5082,9.1168,-57.8608,30,0.9805,8572,4.0205,31.2221
rg,1625222840870587957,1,0.5481,-0.9946,1.6216,160,-274.231,-28.2593,46.4478,159,0.7644,0.5163,9.3367,-67.4927,30,0.9835,8404,4.0205,33.3267
rg,1625222841214653340,1,0.1421,-1.2139,0.9004,161,57.9834,84.7778,-27.2217,159,0.7894,0.5453,9.1183,-65.1743,30,0.9955,25295,4.0205,29.8178
rg,1625222841214689948,1,-0.0042,-0.698,0.4463,162,92.5293,45.6543,-8.728,159,0.8174,0.5603,9.2712,-61.447,30,1.0015,15088,4.0205,28.0449
rg,1625222841214710371,1,-0.0483,-0.7141,0.4011,163,65.1855,17.4561,-11.1084,159,0.8314,0.5723,8.9957,-58.934,30,1.0045,7776,4.0205,27.2091
rg,1625222841214729721,1,-0.1028,-0.7766,0.4102,164,45.3491,-29.1748,-16.5405,159,0.8434,0.5853,7.7297,-57.1447,30,1.0065,7858,4.0205,27.8394
rg,1625222841214747978,1,-0.1506,-0.7456,0.3787,165,30.2124,-69.519,-9.6436,159,0.8504,0.5963,5.9852,-55.9044,30,1.0085,7763,4.0205,29.9377
rg,1625222841214766143,1,-0.1147,-0.6929,0.3755,166,3.7231,-96.0693,0.7935,159,0.8404,0.6033,3.9585,-55.6863,30,1.0075,7902,4.0205,33.129
rg,1625222841214806861,1,0.2061,-0.7307,0.5195,167,-90.8813,-174.8657,22.8882,159,0.8014,0.6093,0.3263,-59.0226,30,1.0035,8908,4.0205,39.5337
rg,1625222841214826451,1,0.3867,-1.0015,0.5012,168,-121.7041,-195.0684,22.0337,159,0.7684,0.6023,-3.324,-64.2284,30,1.0005,8054,4.0205,46.8395
rg,1625222841214844394,1,0.5305,-1.1814,0.4543,169,-106.5674,-188.1714,40.8325,159,0.7504,0.5653,-4.3081,-68.5303,30,0.9905,8605,4.0205,53.844
rg,1625222841214861910,1,0.8499,-1.3396,0.4226,170,-68.8477,-108.4595,87.0361,159,0.7474,0.5293,-3.5214,-71.7614,30,0.9905,8508,4.0205,59.1433
rg,1625222841214879816,1,0.77,-1.281,0.3396,171,63.0493,27.1606,82.2754,159,0.7444,0.5052,-1.0863,-69.3485,30,0.9865,8113,4.0205,59.1849
rg,1625222841214897351,1,0.6829,-0.9331,0.2729,172,115.7227,28.9307,49.3164,159,0.7444,0.4882,-0.0972,-64.8535,30,0.9815,8360,4.0205,58.828
rg,1625222841214914238,1,0.4844,-0.6992,0.2056,173,132.9956,44.5557,4.5776,159,0.7434,0.4692,-0.3679,-59.8162,30,0.9785,8011,4.0205,57.2744
rg,1625222841214930773,1,0.1206,-0.2588,0.0923,174,150.6348,68.2983,-42.5415,159,0.7434,0.4592,-1.2119,-54.1306,30,0.9755,8540,4.0205,54.0158
rg,1625222841214952549,1,-0.0718,-0.0061,0.1086,175,105.6519,115.5396,-30.5786,159,0.7454,0.4642,1.9758,-48.47,30,0.9745,8317,4.0205,49.6836
rg,1625222841214970288,1,-0.1199,-0.0066,0.1018,176,54.1992,115.7227,-7.2021,159,0.7474,0.4732,6.6657,-49.1211,30,0.9755,8066,4.0205,47.2097
rg,1625222841214987434,1,-0.1538,-0.2312,0.1177,177,-86.2427,50.415,21.4844,159,0.7514,0.4832,9.5136,-53.1768,30,0.9775,7862,4.0205,46.0785
rg,1625222841215004839,1,0.1743,-1.0706,1.5134,178,-220.459,-36.5601,26.6724,159,0.7564,0.4892,9.0628,-60.9509,30,0.9815,8055,4.0205,48.0613
rg,1625222841215022078,1,0.3071,-1.6653,1.75,179,-187.9272,-21.1182,33.7524,159,0.7634,0.5022,9.305,-68.4102,30,0.9865,7914,4.0205,49.4232
rg,1625222841215038669,1,0.3267,-1.7737,0.5955,180,-7.0801,-32.959,27.0386,159,0.7714,0.5123,9.0814,-68.5335,30,0.9915,8177,4.0205,51.0472
rg,1625222841215055575,1,0.3892,-1.1841,0.8721,181,64.7583,-2.5635,-7.3242,159,0.7834,0.5223,7.8616,-65.3693,30,0.9965,7971,4.0205,51.0921
rg,1625222841215072406,1,0.3455,-0.9448,0.7932,182,96.0693,10.6201,-7.3853,159,0.8014,0.5403,6.8858,-61.196,30,1.0015,8172,4.0205,50.5964
rg,1625222841215089330,1,0.1851,-0.7319,0.4021,183,104.7974,16.6626,-5.9204,159,0.8204,0.5493,6.2682,-57.0844,30,1.0055,8022,4.0205,49.8701
rg,1625222841215106199,1,0.0305,-0.678,0.3521,184,72.0825,31.6162,-3.2959,159,0.8344,0.5603,6.5273,-54.539,30,1.0095,8209,4.0205,48.7104
rg,1625222841215122808,1,-0.0557,-0.6914,0.4739,185,32.0435,-14.2822,-4.9438,159,0.8424,0.5773,5.9243,-53.251,30,1.0115,10125,4.0205,49.054
rg,1625222841215151823,1,-0.0188,-0.7053,0.522,186,-53.772,-79.895,10.1929,159,0.8304,0.5873,4.2117,-55.143,30,1.0125,8870,4.0205,51.9013
rg,1625222841215169414,1,0.1445,-0.7881,0.5781,187,-95.9473,-120.2393,21.6064,159,0.7904,0.5883,1.8342,-58.6658,30,1.0105,8437,4.0205,56.4274
rg,1625222841215186338,1,0.3877,-1.0342,0.4966,188,-134.9487,-170.5933,20.4468,159,0.7594,0.5813,-1.4711,-64.238,30,1.0025,9085,4.0205,62.8328
rg,1625222841215213095,1,0.6753,-1.2532,0.4243,189,-91.6748,-149.1089,50.354,159,0.7484,0.5383,-2.9812,-68.3768,30,0.9925,8783,4.0205,69.1385
rg,1625222841215230907,1,0.9814,-1.2517,0.6899,190,-4.8218,-31.7383,78.6133,159,0.7454,0.5143,-1.7131,-68.4146,30,0.9935,8560,4.0205,71.4541
rg,1625222841215248498,1,0.834,-1.1926,0.3445,191,47.7295,24.6582,78.7354,159,0.7434,0.5012,0.206,-66.0747,30,0.9855,8647,4.0205,71.1099
rg,1625222841215266293,1,0.6738,-1.071,0.3782,192,74.4629,62.2559,30.7617,159,0.7434,0.4882,1.2058,-63.2633,30,0.9805,8921,4.0205,69.3467
rg,1625222841715767405,1,-0.2527,-0.0867,0.1487,193,113.5254,151.4282,-50.1709,159,0.7474,0.4632,4.2342,-58.3272,30,0.9785,23992,4.0205,63.1852
rg,1625222841715802994,1,-0.3352,-0.2275,0.1587,194,-69.458,0.1831,15.3198,159,0.7524,0.4832,6.4017,-60.9799,30,0.9825,15246,4.0205,63.4611
rg,1625222841715823510,1,-0.2698,-0.4524,0.3066,195,-149.1699,-75.3784,19.2261,159,0.7584,0.4932,4.913,-68.121,30,0.9855,7793,4.0205,68.843
rg,1625222841715842915,1,0.3301,-1.5605,1.8494,196,-213.623,-144.104,40.2222,140,0.7654,0.5012,4.1718,-75.0978,30,0.9905,7825,4.0293,74.9413
rg,1625222841715861487,1,0.4578,-1.7971,0.4509,197,-25.6958,-115.5396,36.6821,140,0.7714,0.5153,3.7399,-75.7972,30,0.9945,7798,4.0293,79.7919
rg,1625222841715879578,1,0.5986,-1.5593,0.5217,198,27.771,-107.2388,6.8359,140,0.7824,0.5273,1.184,-72.8247,30,0.9985,7864,4.0293,82.2535
rg,1625222841715898483,1,0.5554,-0.8828,0.7239,199,80.9937,-26.2451,-28.0151,140,0.7994,0.5413,-1.2429,-68.806,30,1.0035,8130,4.0293,82.8573
rg,1625222841715916722,1,0.4031,-0.699,0.3916,200,78.186,11.4136,-19.165,140,0.8204,0.5523,-2.7477,-65.3591,30,1.0075,8430,4.0293,82.1008
rg,1625222841715934109,1,0.2371,-0.7822,0.3154,201,40.5273,25.8789,-17.2729,140,0.8374,0.5653,-3.4388,-63.7624,30,1.0115,8154,4.0293,80.8637
rg,1625222841715950755,1,0.1641,-0.7896,0.3333,202,37.9028,35.7056,-12.3291,140,0.8554,0.5813,-3.5276,-62.2745,30,1.0135,8326,4.0293,79.3664
rg,1625222841715969216,1,0.072,-0.7566,0.4895,203,24.5361,32.2266,-2.2583,140,0.8634,0.5923,-3.0412,-61.0082,30,1.0155,8413,4.0293,78.1715
rg,1625222841715987214,1,0.0056,-0.6897,0.4509,204,-20.752,-45.0439,9.6436,140,0.8544,0.5973,-3.4534,-61.7577,30,1.0165,8427,4.0293,79.9322
rg,1625222841716004713,1,0.3511,-0.7908,0.5742,205,-93.689,-117.7979,40.9546,140,0.8134,0.6013,-4.6975,-65.5505,30,1.0135,8586,4.0293,84.8917
rg,1625222841716022081,1,0.5007,-1.0681,0.4565,206,-117.7979,-133.4839,41.3208,140,0.7634,0.5923,-5.7061,-70.8572,30,1.0065,8448,4.0293,90.3036
rg,1625222841716039246,1,0.5825,-1.2236,0.3931,207,-103.7598,-110.3516,57.9224,140,0.7464,0.5523,-5.5976,-75.5525,30,0.9985,8424,4.0293,95.2522
rg,1625222841716056151,1,0.8604,-1.239,0.7222,208,-54.5654,-20.813,88.2568,140,0.7434,0.5133,-3.3473,-77.3175,30,1.0025,8216,4.0293,96.8417
rg,1625222841716093351,1,0.6406,-1.2988,0.3455,209,70.8618,51.5137,89.2944,140,0.7414,0.4912,-0.2542,-74.3566,30,0.9985,8126,4.0293,95.6745
rg,1625222841716111571,1,0.5027,-1.0007,0.3633,210,88.501,28.9917,81.9092,140,0.7414,0.4732,0.9007,-69.9715,30,0.9965,8101,4.0293,94.7753
rg,1625222841716128347,1,0.3267,-0.7871,0.3359,211,130.9204,47.0581,5.188,140,0.7404,0.4562,0.9666,-64.645,30,0.9935,8172,4.0293,93.0775
rg,1625222841716145068,1,0.0381,-0.2966,0.1265,212,155.5786,64.4531,-34.3628,140,0.7404,0.4512,0.6717,-58.5554,30,0.9915,8036,4.0293,90.142
rg,1625222841716161936,1,-0.1396,0.0078,0.126,213,119.751,97.7173,-21.4844,140,0.7424,0.4512,3.8247,-52.5728,30,0.9905,8268,4.0293,86.5418
rg,1625222841716178175,1,-0.1479,0.0447,0.0942,214,70.4956,81.9092,3.479,140,0.7454,0.4582,7.6523,-51.9372,30,0.9905,8516,4.0293,85.595
rg,1625222841716195729,1,-0.0901,-0.1768,0.0859,215,-97.4121,7.2021,25.6958,140,0.7494,0.4712,9.3143,-56.1998,30,0.9925,8454,4.0293,85.8851
rg,1625222841716213801,1,0.2307,-1.0864,1.5212,216,-256.0425,-50.9033,22.7051,140,0.7564,0.4832,8.5168,-65.2386,30,0.9965,8433,4.0293,88.3053
rg,1625222841716230595,1,0.1616,-1.9282,0.7451,217,-110.8398,6.6528,29.6631,140,0.7644,0.4942,9.1973,-69.7518,30,1.0015,8747,4.0293,88.5116
rg,1625222841716246742,1,0.2139,-1.5771,0.7178,218,-25.3906,-12.5122,15.8691,140,0.7744,0.5092,8.0726,-68.5993,30,1.0045,8464,4.0293,89.058
rg,1625222841716263110,1,0.1714,-1.1599,0.8723,219,56.8237,-7.0801,-18.9819,140,0.7904,0.5223,6.635,-65.4671,30,1.0095,9122,4.0293,89.1282
rg,1625222841716279757,1,0.1826,-0.7053,0.5759,220,94.9097,-26.7944,-11.3525,140,0.8094,0.5363,5.0576,-61.0216,30,1.0155,8572,4.0293,89.9252
rg,1625222841716296422,1,0.2356,-0.7185,0.3411,221,53.4668,-44.0063,-4.8828,140,0.8284,0.5463,3.1817,-58.9091,30,1.0195,8686,4.0293,91.3286
rg,1625222841716313124,1,0.2573,-0.8284,0.353,222,31.311,-37.9639,-8.667,140,0.8434,0.5603,1.3542,-57.9077,30,1.0225,8749,4.0293,92.4193
rg,1625222841716329714,1,0.1836,-0.8242,0.3767,223,26.062,-40.3442,-11.7798,140,0.8484,0.5753,-0.3664,-57.8681,30,1.0245,8699,4.0293,93.8157
rg,1625222841716364785,1,0.2375,-0.7812,0.4622,224,-28.5645,-56.3965,8.4229,140,0.8284,0.5843,-1.8103,-59.0946,30,1.0235,8384,4.0293,95.9221
rg,1625222842053568973,1,0.5063,-1.1118,0.3538,225,-63.7207,-78.125,50.293,140,0.7504,0.5413,-2.4147,-62.2425,30,1.0005,24363,4.0293,99.6666
rg,1625222842053607654,1,0.7166,-1.1211,0.5422,226,-17.7002,-8.728,84.5337,140,0.7464,0.4992,-0.6246,-63.0543,30,0.9955,8611,4.0293,101.5286
rg,1625222842053628041,1,0.7043,-1.0981,0.6338,227,32.4707,25.0244,83.0688,140,0.7434,0.4792,1.6919,-61.634,30,0.9925,8223,4.0293,102.1558
rg,1625222842053647687,1,0.5718,-0.9805,0.2761,228,94.4824,12.4512,58.6548,140,0.7424,0.4642,2.7985,-58.2572,30,0.9875,7830,4.0293,102.8426
rg,1625222842053666278,1,0.2983,-0.5295,0.1797,229,122.6196,27.2217,-16.9678,140,0.7414,0.4492,1.68,-53.8559,30,0.9835,8205,4.0293,101.4905
rg,1625222842053683832,1,0.1438,-0.2993,0.1306,230,136.0474,37.5366,-38.0249,140,0.7434,0.4472,0.4521,-48.9108,30,0.9815,7961,4.0293,99.3128
rg,1625222842053702367,1,-0.021,-0.0215,0.1753,231,77.1484,79.5898,-28.5645,140,0.7444,0.4522,2.0472,-44.385,30,0.9805,8159,4.0293,96.2358
rg,1625222842053722624,1,-0.1089,-0.1895,0.2222,232,-54.6875,77.6367,20.4468,140,0.7504,0.4602,5.5093,-46.5201,30,0.9825,8088,4.0293,94.5811
rg,1625222842053740493,1,-0.0261,-0.4905,0.4983,233,-124.0234,41.687,35.9497,140,0.7554,0.4722,6.6293,-53.134,30,0.9845,8321,4.0293,95.2352
rg,1625222842053759176,1,0.2188,-1.5457,1.3933,234,-159.3018,2.1973,37.9028,140,0.7624,0.4822,7.439,-59.172,30,0.9915,8054,4.0293,96.058
rg,1625222842053791469,1,0.2612,-1.762,0.6562,235,-19.7144,-27.8931,22.8882,140,0.7714,0.4982,7.071,-60.1745,30,0.9975,8649,4.0293,97.4459
rg,1625222842053810689,1,0.3145,-1.1499,0.7502,236,71.9604,-11.7188,-0.4272,140,0.7834,0.5102,6.0381,-57.1181,30,1.0045,8250,4.0293,97.8347
rg,1625222842053827410,1,0.2878,-0.8748,0.6794,237,91.0645,-1.5259,-4.6387,140,0.7994,0.5283,4.9429,-53.3618,30,1.0105,8794,4.0293,97.725
rg,1625222842053843964,1,0.1538,-0.6719,0.4185,238,71.8994,-0.7935,-10.0708,140,0.8204,0.5363,4.1562,-51.76,30,1.0175,9985,4.0293,97.4423
rg,1625222842053861999,1,0.0256,-0.9177,0.5083,239,-33.5083,-51.3306,2.3193,140,0.8194,0.5573,2.7711,-53.3495,30,1.0205,17119,4.0293,99.1113
rg,1625222842053948620,1,0.1431,-0.9795,0.5747,240,-61.8286,-89.1113,7.6904,140,0.7924,0.5653,0.4105,-56.0517,30,1.0185,8083,4.0293,102.1983
rg,1625222842053970691,1,0.3,-1.0388,0.4575,241,-84.5337,-129.6997,11.2305,140,0.7714,0.5633,-2.5322,-59.8879,30,1.0125,8150,4.0293,106.8514
rg,1625222842053988838,1,0.446,-1.1028,0.4126,242,-47.7295,-109.9243,29.9683,140,0.7574,0.5413,-4.2966,-62.4019,30,1.0025,8051,4.0293,111.3172
rg,1625222842054006817,1,0.5513,-1.1145,0.4763,243,-28.0762,-84.8999,51.5747,140,0.7524,0.5082,-3.6784,-62.5958,30,1.0015,8253,4.0293,114.6232
rg,1625222842054025241,1,0.6941,-1.2166,0.5044,244,42.9077,-14.9536,75.1953,140,0.7484,0.4882,-2.2378,-61.1416,30,0.9955,8922,4.0293,116.5594
rg,1625222842054044980,1,0.624,-1.092,0.3293,245,94.2993,5.8594,56.1523,140,0.7474,0.4732,-1.2004,-57.8099,30,0.9905,8616,4.0293,117.4757
rg,1625222842054061960,1,0.2715,-0.6677,0.2986,246,134.0332,46.1426,-6.4087,140,0.7454,0.4602,-1.1112,-52.7157,30,0.9875,8855,4.0293,115.7826
rg,1625222842054079328,1,-0.0325,-0.1978,0.1311,247,149.4751,81.9092,-31.4331,140,0.7454,0.4552,0.3799,-46.8687,30,0.9865,8709,4.0293,112.4927
rg,1625222842054096956,1,-0.1418,-0.0457,0.1313,248,138.916,95.459,-24.1699,140,0.7484,0.4552,4.4247,-40.4587,30,0.9875,8435,4.0293,109.2804
rg,1625222842054114084,1,-0.1572,0.0432,0.0542,249,61.7676,38.208,20.752,140,0.7534,0.4612,8.1797,-37.1139,30,0.9885,8340,4.0293,109.1003
rg,1625222842054131045,1,-0.0098,-0.187,0.0552,250,-127.8076,-74.2188,39.3677,140,0.7584,0.4742,6.7796,-43.1468,30,0.9905,9105,4.0293,112.0561
rg,1625222842054148321,1,0.7019,-1.2341,1.9119,251,-283.9966,-107.9712,51.6968,140,0.7664,0.4862,4.5745,-53.5995,30,0.9955,8801,4.0293,116.7884
rg,1625222842054193484,1,0.4683,-1.9612,0.4636,252,-102.7222,10.3149,52.063,140,0.7744,0.4972,5.8467,-58.467,30,1.0015,11320,4.0293,117.5653
rg,1625222842054216426,1,0.4297,-1.5706,0.7854,253,18.1274,26.7944,-9.9487,140,0.7844,0.5102,5.306,-58.0332,30,1.0065,8833,4.0293,116.415
rg,1625222842054233850,1,0.1711,-0.8359,0.7576,254,86.6699,65.6738,-18.3716,140,0.7984,0.5263,5.5999,-54.4102,30,1.0115,8830,4.0293,113.8301
rg,1625222842054251626,1,0.0566,-0.6641,0.4873,255,88.8062,54.9927,-11.9019,140,0.8114,0.5393,6.3158,-51.2494,30,1.0155,8377,4.0293,111.7535
rg,1625222842054271605,1,0.0039,-0.5974,0.3464,256,38.5742,-3.418,-14.5874,140,0.8184,0.5453,5.5184,-50.0691,30,1.0195,8635,4.0293,111.4492
rg,1625222842746800530,1,0.2407,-1.0198,0.5271,257,-95.3979,-112.1826,23.1934,140,0.7794,0.5643,2.7317,-54.2025,30,1.0135,23235,4.0293,115.5371
rg,1625222842746848062,1,0.3682,-1.1206,0.3662,258,-87.7075,-142.4561,13.7939,140,0.7634,0.5473,-0.7253,-58.2631,30,1.0015,8586,4.0293,120.5746
rg,1625222842746869116,1,0.6628,-1.1077,0.6045,259,-20.4468,-87.9517,47.3633,140,0.7584,0.5143,-1.9481,-59.2693,30,1.0035,7982,4.0293,124.5722
rg,1625222842746889021,1,0.6697,-1.2007,0.5229,260,34.3628,-34.8511,65.1245,140,0.7544,0.4962,-0.4053,-57.5042,30,1.0005,7936,4.0293,127.0374
rg,1625222842746907334,1,0.7542,-1.1487,0.2705,261,70.8008,-6.7749,82.1533,140,0.7524,0.4842,0.9684,-55.2892,30,0.9965,8058,4.0293,129.0512
rg,1625222842746926147,1,0.438,-0.7715,0.2456,262,130.4321,46.814,8.3618,140,0.7494,0.4692,1.2423,-50.6871,30,0.9925,8055,4.0293,127.6966
rg,1625222842746946608,1,0.092,-0.2397,0.1306,263,146.2402,83.0688,-28.1982,140,0.7504,0.4642,1.8436,-45.3327,30,0.9885,9238,4.0293,124.4255
rg,1625222842746965310,1,-0.0369,-0.0818,0.1274,264,127.5024,109.6191,-30.8228,140,0.7504,0.4632,5.8285,-39.5266,30,0.9865,8162,4.0293,120.6697
rg,1625222842746983845,1,-0.1577,-0.0156,0.1023,265,42.5415,99.6094,9.0332,140,0.7534,0.4702,10.9258,-37.4959,30,0.9855,8118,4.0293,118.5457
rg,1625222842747004324,1,-0.0752,-0.2825,0.1982,266,-119.6899,10.376,31.5552,140,0.7574,0.4802,12.1179,-42.7952,30,0.9865,8861,4.0293,119.1229
rg,1625222842747022693,1,0.417,-1.3401,1.7778,267,-227.1118,-42.2974,34.729,140,0.7654,0.4902,11.118,-51.1457,30,0.9885,8113,4.0293,121.4608
rg,1625222842747040283,1,0.4004,-1.7434,1.2805,268,-160.7056,-13.0615,39.1846,140,0.7774,0.5012,11.2742,-58.0685,30,0.9965,8684,4.0293,122.7094
rg,1625222842747058226,1,0.28,-1.0447,0.79,269,69.7021,40.2832,-14.6484,140,0.7964,0.5253,10.7617,-55.3983,30,1.0035,16426,4.0293,121.0273
rg,1625222842747075335,1,0.1797,-0.8047,0.6143,270,88.9282,40.8325,-13.916,140,0.8114,0.5383,10.4642,-52.0412,30,1.0075,8045,4.0293,119.3484
rg,1625222842747130145,1,0.0623,-0.6689,0.3652,271,55.3589,7.9346,-10.6812,140,0.8264,0.5443,9.7416,-50.2863,30,1.0115,8128,4.0293,118.7488
rg,1625222842747154716,1,0.0859,-0.8132,0.4272,272,14.9536,-41.5039,-9.2163,140,0.8384,0.5573,7.8173,-49.994,30,1.0135,8108,4.0293,119.7204
rg,1625222842747174029,1,0.1755,-0.8916,0.3564,273,4.2725,-76.1108,-1.5869,140,0.8474,0.5753,5.1359,-50.2539,30,1.0155,10130,4.0293,121.9402
rg,1625222842747192768,1,0.2385,-0.8875,0.3687,274,-9.3384,-91.1255,3.479,140,0.8424,0.5833,2.2152,-51.0807,30,1.0145,8124,4.0293,124.8035
rg,1625222842747211692,1,0.3735,-0.9211,0.4368,275,-56.0303,-115.4785,15.0757,140,0.8084,0.5863,-0.9653,-53.7617,30,1.0115,8358,4.0293,128.8331
rg,1625222842747229209,1,0.4399,-1.0601,0.2747,276,-72.5098,-127.6855,23.4985,140,0.7764,0.5813,-3.857,-57.6264,30,1.0045,8186,4.0293,133.6235
rg,1625222842747247725,1,0.5188,-1.1428,0.2876,277,-61.1572,-109.314,35.5835,140,0.7574,0.5423,-4.1924,-60.1102,30,0.9945,8213,4.0293,136.9034
rg,1625222842747265816,1,0.6033,-1.1472,0.4082,278,-12.4512,-9.3994,68.6646,140,0.7524,0.5102,-2.8449,-61.0642,30,0.9895,8637,4.0293,138.6067
rg,1625222842747284759,1,0.4905,-1.1008,0.4963,279,85.4492,61.2793,81.1768,140,0.7484,0.4892,0.4321,-57.8014,30,0.9875,8698,4.0293,138.1203
rg,1625222842747302553,1,0.4377,-0.9153,0.3064,280,128.2349,17.7612,55.9692,140,0.7484,0.4752,1.7198,-53.1513,30,0.9845,8767,4.0293,138.7518
rg,1625222842747321607,1,0.3174,-0.7502,0.3047,281,136.7798,25.0244,17.395,140,0.7484,0.4562,1.8988,-47.6985,30,0.9805,8166,4.0293,136.9114
rg,1625222842747340383,1,0.001,-0.3887,0.2329,282,148.1323,71.4722,-26.2451,140,0.7484,0.4472,3.0862,-42.3493,30,0.9765,8404,4.0293,134.1267
rg,1625222842747359677,1,-0.1831,-0.0764,0.2124,283,114.3188,104.248,-11.2915,140,0.7494,0.4452,7.3112,-37.3756,30,0.9755,8249,4.0293,131.1932
rg,1625222842747378101,1,-0.1956,-0.0112,0.2153,284,18.0664,39.4287,12.5732,140,0.7514,0.4492,10.2022,-35.7663,30,0.9765,8433,4.0293,130.794
rg,1625222842747396655,1,-0.1353,-0.3127,0.3542,285,-130.7373,-61.7676,10.9863,140,0.7574,0.4632,8.773,-40.8752,30,0.9785,10804,4.0293,132.6509
rg,1625222842747416023,1,0.364,-1.3088,1.645,286,-202.0874,-94.6655,17.7002,140,0.7644,0.4722,6.4166,-49.0297,30,0.9825,8466,4.0293,135.9573
rg,1625222842747433966,1,0.4207,-1.7002,1.2295,287,-159.4849,-50.1709,35.2783,140,0.7734,0.4842,5.6143,-55.3094,30,0.9895,8428,4.0293,138.4328
rg,1625222842747502699,1,0.4951,-1.7307,0.7419,288,-27.8931,-25.3296,5.4321,140,0.7814,0.5012,4.4465,-56.7639,30,0.9965,8601,4.0293,139.365
rg,1625222843091624562,1,0.3206,-1.3508,0.7625,289,-8.0566,-71.3501,3.1738,148,0.7804,0.5112,3.4823,-57.657,30,0.9985,21426,4.0194,163.7176
rg,1625222843091673835,1,0.302,-0.8987,0.6492,290,38.7573,-60.6689,-16.4185,148,0.7954,0.5283,0.8857,-55.8999,30,1.0045,8573,4.0194,165.3894
rg,1625222843091704684,1,0.3301,-0.8245,0.4294,291,34.5459,-64.3311,-7.019,148,0.8114,0.5323,-1.589,-54.7662,30,1.0095,7699,4.0194,167.3363
rg,1625222843091733959,1,0.3513,-0.8423,0.3438,292,27.3438,-65.4297,-1.77,148,0.8274,0.5453,-3.9141,-54.2417,30,1.0135,7750,4.0194,169.4395
rg,1625222843091761623,1,0.3889,-0.8716,0.2407,293,26.062,-50.2319,0.3052,148,0.8354,0.5583,-5.8323,-54.0567,30,1.0165,8102,4.0194,171.13
rg,1625222843091789065,1,0.3667,-0.8125,0.2725,294,-4.6997,-25.6348,11.4136,148,0.8374,0.5683,-6.7365,-54.9841,30,1.0175,7792,4.0194,-187.6958
rg,1625222843091816118,1,0.373,-0.7976,0.3394,295,-41.1987,-29.1748,20.9961,148,0.8164,0.5733,-7.3357,-57.2324,30,1.0175,7778,4.0194,-186.187
rg,1625222843091843782,1,0.3557,-0.9229,0.3442,296,-81.8481,-42.4805,24.1699,148,0.7864,0.5763,-7.8634,-61.2105,30,1.0125,7984,4.0194,-184.1425
rg,1625222843091870409,1,0.3818,-1.0371,0.2922,297,-74.646,-37.7197,32.7759,148,0.7674,0.5573,-7.0606,-63.9995,30,1.0075,7842,4.0194,-182.074
rg,1625222843091895647,1,0.4656,-1.0693,0.3494,298,-31.311,-14.2212,72.1436,148,0.7554,0.5373,-5.2972,-65.7174,30,1.0015,8139,4.0194,-180.289
rg,1625222843091920756,1,0.5022,-1.2004,0.415,299,77.7588,40.7104,74.4629,148,0.7524,0.4992,-2.5569,-62.7784,30,0.9985,19166,4.0194,-180.474
rg,1625222843091946717,1,0.4373,-1.1245,0.446,300,85.2661,37.1704,54.2603,148,0.7504,0.4862,-0.4796,-59.4458,30,0.9955,7950,4.0194,-180.7486
rg,1625222843091973788,1,0.1174,-0.696,0.3301,301,128.0518,59.3262,-5.4932,148,0.7494,0.4752,0.2959,-54.5225,30,0.9945,8033,4.0194,-182.8723
rg,1625222843091999841,1,-0.1099,-0.1663,0.1958,302,140.1367,86.0596,-26.7944,148,0.7504,0.4692,2.4643,-48.4918,30,0.9935,7879,4.0194,-186.18
rg,1625222843092026153,1,-0.2014,-0.0234,0.2346,303,108.5205,100.0977,-18.6768,148,0.7534,0.4772,6.1083,-43.2328,30,0.9925,7902,4.0194,170.538
rg,1625222843092051744,1,-0.2764,-0.0818,0.2722,304,-27.3438,60.1807,23.3154,148,0.7584,0.4892,9.9008,-43.7207,30,0.9935,9462,4.0194,169.6202
rg,1625222843092077112,1,-0.1531,-0.7346,0.8809,305,-188.5986,-32.4097,34.3628,148,0.7644,0.5002,9.9436,-50.7424,30,0.9965,8705,4.0194,-188.4362
rg,1625222843092102905,1,0.0884,-1.6843,1.1782,306,-161.5601,-55.3589,38.9404,148,0.7714,0.5112,9.4119,-56.8779,30,1.0015,8439,4.0194,-185.6974
rg,1625222843092128403,1,0.28,-1.6169,0.7234,307,-27.2827,-74.2188,13.1836,148,0.7794,0.5253,7.5532,-57.8932,30,1.0065,8992,4.0194,-182.9315
rg,1625222843092154289,1,0.3213,-1.321,0.8347,308,4.6997,-64.0259,-8.728,148,0.7954,0.5363,5.093,-57.2628,30,1.0135,8935,4.0194,-180.9176
rg,1625222843092179380,1,0.2734,-0.8025,0.4351,309,48.2788,-55.481,-17.5781,148,0.8124,0.5403,2.4463,-55.3906,30,1.0185,10793,4.0194,-179.4827
rg,1625222843092204637,1,0.2722,-0.7729,0.3213,310,38.5132,-52.6733,-14.1602,148,0.8274,0.5543,-0.0116,-54.4408,30,1.0215,8519,4.0194,-178.1149
rg,1625222843092237300,1,0.2563,-0.7925,0.2188,311,25.0854,-40.3442,-11.3525,148,0.8334,0.5673,-1.9895,-54.193,30,1.0245,8727,4.0194,-177.0686
rg,1625222843092263668,1,0.2583,-0.7566,0.208,312,-15.0146,-45.6543,2.1362,148,0.8264,0.5763,-3.5997,-55.611,30,1.0255,8815,4.0194,-175.489
rg,1625222843092289369,1,0.3462,-0.8328,0.3401,313,-89.0503,-69.397,7.2632,148,0.7914,0.5803,-5.5054,-59.8026,30,1.0205,8923,4.0194,-172.9273
rg,1625222843092343290,1,0.2976,-1.0149,0.2532,314,-97.7173,-66.2842,9.2163,148,0.7684,0.5683,-6.2,-63.9975,30,1.0095,8291,4.0194,-170.1741
rg,1625222843092371028,1,0.3989,-1.1069,0.2588,315,-59.7534,-58.7769,51.3916,148,0.7564,0.5483,-5.813,-67.167,30,0.9995,8542,4.0194,-167.1078
rg,1625222843092395989,1,0.7183,-1.2473,0.6047,316,10.9863,-23.1323,87.8296,148,0.7534,0.5253,-3.7785,-66.7947,30,0.9975,8413,4.0194,-164.9018
rg,1625222843092421968,1,0.6904,-1.2742,0.2593,317,94.9097,11.4136,82.4585,148,0.7514,0.5092,-1.5363,-63.4441,30,0.9905,10145,4.0194,-163.9418
rg,1625222843092447706,1,0.417,-0.9312,0.3184,318,152.1606,46.7529,13.1226,148,0.7474,0.4932,-0.9983,-57.6088,30,0.9855,8932,4.0194,-165.3519
rg,1625222843092473018,1,0.0713,-0.3101,0.1516,319,181.4575,88.562,-39.4287,148,0.7474,0.4742,-0.6312,-50.5554,30,0.9805,8758,4.0194,-169.1631
rg,1625222843092500479,1,-0.1968,0.0166,0.1172,320,181.6406,123.4741,-47.9126,148,0.7484,0.4702,4.3247,-43.1627,30,0.9785,8803,4.0194,-174.0931
rg,1625222844871587489,1,-0.2744,-0.2861,0.2537,321,-165.5273,-14.9536,25.3296,148,0.7614,0.4972,5.8241,-49.8208,30,0.9805,24814,4.0194,-173.0391
rg,1625222844871625596,1,0.2192,-1.647,2.4924,322,-287.4146,-87.5244,34.9121,148,0.7684,0.5112,4.6037,-60.2878,30,0.9845,8787,4.0194,-169.2693
rg,1625222844871646280,1,0.2136,-1.9946,0.5066,323,-62.0728,-72.7539,40.4663,148,0.7774,0.5233,4.2459,-63.086,30,0.9925,8351,4.0194,-165.9707
rg,1625222844871665611,1,0.4045,-1.802,0.6707,324,4.3335,-80.8105,9.9487,148,0.7874,0.5333,2.4399,-62.5564,30,0.9995,8957,4.0194,-162.898
rg,1625222844871684369,1,0.3032,-0.9519,0.8145,325,68.7866,-30.7007,-43.396,148,0.8004,0.5423,-0.29,-59.2924,30,1.0065,8133,4.0194,-162.66
rg,1625222844871702441,1,0.2141,-0.6416,0.3601,326,79.7729,-39.1846,-28.9917,148,0.8184,0.5453,-2.7206,-56.1668,30,1.0095,8625,4.0194,-161.9675
rg,1625222844871719588,1,0.2961,-0.7581,0.312,327,23.8037,-52.7344,-16.3574,148,0.8344,0.5593,-5.1045,-55.7248,30,1.0125,8562,4.0194,-160.5633
rg,1625222844871736698,1,0.3118,-0.8433,0.2898,328,13.3057,-54.6265,-15.0146,148,0.8524,0.5773,-7.3483,-56.0286,30,1.0155,8731,4.0194,-159.0177
rg,1625222844871753529,1,0.2668,-0.8728,0.2932,329,-15.0757,-48.4619,-0.4272,148,0.8344,0.5893,-8.7727,-57.4329,30,1.0165,10846,4.0194,-157.3101
rg,1625222844871792007,1,0.3447,-0.9009,0.365,330,-76.1719,-80.8716,16.7236,148,0.7854,0.5933,-10.2545,-61.3838,30,1.0105,9985,4.0194,-154.0677
rg,1625222844871810543,1,0.3591,-1.0356,0.375,331,-72.998,-92.6514,33.5693,148,0.7624,0.5793,-11.0099,-65.3563,30,1.0035,8019,4.0194,-150.0186
rg,1625222844871828504,1,0.5823,-1.1675,0.3911,332,-41.626,-80.2612,60.6079,148,0.7504,0.5513,-9.1012,-66.9611,30,0.9955,8250,4.0194,-146.6534
rg,1625222844871845429,1,0.738,-1.1685,0.5881,333,2.2583,-13.0615,107.8491,148,0.7484,0.5223,-6.1295,-67.0198,30,0.9975,8054,4.0194,-144.5044
rg,1625222844871863038,1,0.6152,-1.2532,0.4019,334,92.5903,42.3584,96.6187,148,0.7474,0.5102,-2.664,-63.5008,30,0.9915,8217,4.0194,-144.4451
rg,1625222844871880685,1,0.46,-0.9016,0.3552,335,136.0474,25.6958,34.79,148,0.7444,0.4932,-1.8327,-58.2278,30,0.9875,9150,4.0194,-144.7058
rg,1625222844871897979,1,0.1411,-0.2729,0.1748,336,181.3354,35.1562,-33.9966,148,0.7434,0.4732,-2.9644,-50.8735,30,0.9835,8982,4.0194,-146.6947
rg,1625222844871915145,1,0.0383,-0.0208,0.1982,337,170.8374,59.3262,-46.4478,148,0.7464,0.4752,-2.0337,-41.8379,30,0.9845,8703,4.0194,-149.7448
rg,1625222844871931939,1,-0.1584,0.105,0.2209,338,58.8989,129.7607,-16.3574,148,0.7484,0.4862,2.7706,-37.7497,30,0.9835,8925,4.0194,-153.5849
rg,1625222844871949160,1,-0.2761,-0.2424,0.2212,339,-122.3755,68.9697,28.9307,148,0.7544,0.4952,6.9773,-43.0009,30,0.9845,8532,4.0194,-154.5733
rg,1625222844871966418,1,-0.0071,-1.2891,1.7708,340,-266.1133,-51.5137,30.0903,148,0.7574,0.5052,6.2416,-53.0441,30,0.9885,8696,4.0194,-152.1715
rg,1625222844871984194,1,0.0667,-1.8757,0.6521,341,-105.1636,-68.8477,31.8604,148,0.7664,0.5143,5.4176,-57.6083,30,0.9945,8797,4.0194,-149.2313
rg,1625222844872001915,1,0.2373,-1.77,0.5632,342,-29.48,-86.2427,20.6909,148,0.7754,0.5273,3.0276,-57.0438,30,1.0005,8831,4.0194,-146.7442
rg,1625222844872018987,1,0.262,-0.7573,0.6663,343,59.9976,-55.8472,-19.5312,148,0.7884,0.5353,0.4481,-54.2734,30,1.0085,10903,4.0194,-145.3362
rg,1625222844872037671,1,0.2397,-0.6604,0.4355,344,61.2183,-61.3403,-13.0615,148,0.8064,0.5363,-2.0818,-52.9384,30,1.0145,9224,4.0194,-143.5239
rg,1625222844872055188,1,0.3176,-0.791,0.2856,345,27.4048,-63.4155,-3.9673,148,0.8244,0.5483,-4.46,-52.5734,30,1.0175,8408,4.0194,-141.5752
rg,1625222844872094425,1,0.3767,-0.9578,0.2505,346,23.8647,-45.105,-3.9673,148,0.8404,0.5653,-6.3268,-52.5625,30,1.0205,8680,4.0194,-140.1679
rg,1625222844872113368,1,0.2854,-0.8708,0.1851,347,44.7388,-16.6626,-4.6387,148,0.8504,0.5803,-7.3523,-51.7519,30,1.0215,8473,4.0194,-139.6528
rg,1625222844872130625,1,0.2598,-0.7637,0.3503,348,41.1987,-5.4932,0.2441,148,0.8534,0.5903,-7.5923,-51.4794,30,1.0225,8622,4.0194,-139.1507
rg,1625222844872148031,1,0.2695,-0.7495,0.4241,349,-17.5171,-20.9351,23.3154,148,0.8214,0.5983,-7.7561,-52.6771,30,1.0225,8481,4.0194,-137.8592
rg,1625222844872165715,1,0.2869,-0.9292,0.3608,350,-89.7827,-54.1382,32.3486,148,0.7744,0.5993,-8.2666,-57.2157,30,1.0135,8501,4.0194,-135.2258
rg,1625222844872185343,1,0.3679,-1.1316,0.416,351,-66.1011,-37.3535,49.6826,148,0.7554,0.5623,-7.679,-60.6453,30,1.0035,8735,4.0194,-132.8247
rg,1625222844872203693,1,0.5906,-1.1523,0.6975,352,-2.4414,20.752,97.1069,148,0.7494,0.5303,-4.5198,-60.789,30,1.0005,8594,4.0194,-131.6657
rg,1625222845119027508,1,0.0669,-0.7043,0.4854,353,-38.5132,72.3877,8.9722,125,0.8434,0.5863,-1.1318,-49.9234,30,1.0145,20381,4.0348,-40.2138
rg,1625222845119066171,1,-0.0618,-0.8789,0.5308,354,-105.7739,-13.4888,24.0479,125,0.8094,0.5913,-0.5206,-54.499,30,1.0135,8445,4.0348,-39.1999
rg,1625222845119086799,1,0.0913,-0.9868,0.6006,355,-126.5259,-86.0596,29.6021,125,0.7814,0.5893,-1.5383,-59.7631,30,1.0065,7918,4.0348,-35.6596
rg,1625222845119108372,1,0.3804,-1.0881,0.4656,356,-104.0649,-163.6353,41.1987,125,0.7594,0.5633,-3.7512,-64.4794,30,0.9935,7803,4.0348,-29.0736
rg,1625222845119127037,1,0.7747,-1.0615,0.3774,357,-31.25,-133.7891,75.5615,125,0.7504,0.5413,-4.3738,-66.3435,30,0.9835,7950,4.0348,-22.9146
rg,1625222845119145702,1,0.999,-1.0027,0.5088,358,-3.3569,-77.1484,85.3271,125,0.7474,0.5153,-3.8411,-66.6719,30,0.9825,7844,4.0348,-18.7295
rg,1625222845119164089,1,0.937,-1.1694,0.4341,359,14.8926,64.3311,67.0776,125,0.7484,0.5032,-1.606,-66.0981,30,0.9785,7996,4.0348,-20.0289
rg,1625222845119181828,1,0.4619,-1.3027,0.4868,360,7.8735,105.3467,35.2783,125,0.7484,0.4932,-0.2543,-65.146,30,0.9755,7881,4.0348,-24.7733
rg,1625222845119199086,1,0.1882,-1.1812,0.4622,361,58.5938,131.7139,-34.4849,125,0.7474,0.4782,0.4685,-62.9388,30,0.9715,8026,4.0348,-30.1191
rg,1625222845119216455,1,-0.21,-0.5088,0.2109,362,158.3862,122.3145,-78.0029,125,0.7484,0.4752,0.9969,-56.8536,30,0.9655,8074,4.0348,-35.8598
rg,1625222845119234139,1,-0.3723,-0.0283,0.2378,363,172.4243,126.9531,-73.7915,125,0.7494,0.4722,4.301,-50.3305,30,0.9685,7883,4.0348,-40.9592
rg,1625222845119251286,1,-0.4429,0.0146,0.1992,364,99.3652,103.6987,-14.8315,125,0.7544,0.4742,8.6206,-45.9803,30,0.9685,7891,4.0348,-44.3264
rg,1625222845119288468,1,-0.2747,-0.4524,0.2043,365,-150.5737,-91.5527,51.3306,125,0.7604,0.4822,8.58,-52.037,30,0.9725,12661,4.0348,-40.3167
rg,1625222845119308225,1,0.5701,-1.5413,2.0747,366,-223.6938,-171.936,67.4438,125,0.7694,0.4922,6.8629,-56.4884,30,0.9775,11123,4.0348,-34.7163
rg,1625222845119326168,1,0.4822,-1.7593,0.3987,367,-21.4233,-120.9717,43.396,125,0.7804,0.4922,4.875,-57.5964,30,0.9865,8785,4.0348,-29.7732
rg,1625222845119355036,1,0.6921,-1.2661,0.7021,368,57.373,-92.9565,-20.9351,125,0.7914,0.4992,0.9918,-55.2819,30,0.9945,8104,4.0348,-27.1649
rg,1625222845119373201,1,0.5283,-0.7812,0.5581,369,94.9097,-13.6108,-22.2778,125,0.8054,0.5123,-1.1725,-51.4547,30,1.0035,8044,4.0348,-27.2972
rg,1625222845119390274,1,0.4219,-0.7036,0.3284,370,87.8906,4.2725,-16.2354,125,0.8224,0.5293,-2.5208,-48.557,30,1.0075,8228,4.0348,-27.8586
rg,1625222845119407180,1,0.3184,-0.7507,0.2932,371,41.3818,22.8271,-13.1836,125,0.8394,0.5413,-3.0516,-47.572,30,1.0095,8530,4.0348,-28.8686
rg,1625222845119424290,1,0.2385,-0.8462,0.3921,372,23.5596,34.2407,-4.3945,125,0.8544,0.5543,-2.7084,-47.229,30,1.0105,8105,4.0348,-29.9665
rg,1625222845119441899,1,0.1526,-0.8516,0.4165,373,25.1465,26.7944,-1.6479,125,0.8624,0.5663,-2.6257,-46.8353,30,1.0115,8300,4.0348,-30.257
rg,1625222845119458676,1,0.1055,-0.7961,0.4236,374,14.7095,-4.5166,9.5825,125,0.8484,0.5763,-2.6323,-46.8463,30,1.0135,8111,4.0348,-29.8366
rg,1625222845119475767,1,0.134,-0.7375,0.4092,375,-63.3545,-54.8706,37.7197,125,0.8004,0.5853,-3.2056,-50.0466,30,1.0115,8310,4.0348,-27.1591
rg,1625222845119493395,1,0.2737,-0.9268,0.3997,376,-121.9482,-121.8262,35.1562,125,0.7694,0.5813,-5.469,-55.892,30,1.0025,8222,4.0348,-22.3546
rg,1625222845119510708,1,0.4077,-1.0457,0.4219,377,-96.6797,-134.6436,43.1519,125,0.7504,0.5383,-7.6173,-60.8447,30,0.9885,8492,4.0348,-16.7553
rg,1625222845119528744,1,0.8467,-1.1614,0.4797,378,-32.1045,-79.5288,96.9238,125,0.7464,0.5052,-6.697,-62.9203,30,0.9875,8242,4.0348,-12.0512
rg,1625222845119546446,1,1.0107,-1.3567,0.5295,379,37.1704,65.0635,107.7881,125,0.7454,0.4892,-2.7583,-61.5866,30,0.9825,8459,4.0348,-12.3582
rg,1625222845119563871,1,0.7026,-1.3188,0.4167,380,58.8989,99.3652,92.8955,125,0.7454,0.4742,0.3257,-58.7407,30,0.9795,8288,4.0348,-15.1967
rg,1625222845119582276,1,0.4844,-1.1838,0.4312,381,108.7646,112.1826,0.6714,125,0.7464,0.4652,1.9589,-54.8768,30,0.9745,8468,4.0348,-18.9737
rg,1625222845119599979,1,-0.0166,-0.6086,0.4058,382,167.1143,132.6294,-84.9609,125,0.7474,0.4582,2.5352,-48.5096,30,0.9725,8367,4.0348,-25.236
rg,1625222845119617736,1,-0.3657,-0.1421,0.2517,383,177.124,179.5654,-74.4019,70,0.7474,0.4542,7.1828,-41.59,30,0.9705,8329,4.0711,-32.2946
rg,1625222845119635105,1,-0.4233,0.0098,0.2615,384,146.9727,154.541,-43.5791,70,0.7484,0.4552,12.275,-37.2942,30,0.9715,8541,4.0711,-35.715
rg,1625222845488509015,1,-0.292,-0.6025,0.5447,385,-230.896,-157.2876,47.7295,70,0.7584,0.4772,9.1655,-45.831,30,0.9775,23994,4.0711,-30.1365
rg,1625222845488546697,1,0.4897,-1.7856,1.761,386,-210.4492,-186.5234,65.4297,70,0.7644,0.4922,5.5673,-53.2334,30,0.9835,10284,4.0711,-22.6734
rg,1625222845488567917,1,0.5867,-1.7576,0.4243,387,-0.6714,-182.0068,25.8789,70,0.7754,0.5012,0.9596,-53.3964,30,0.9915,12414,4.0711,-16.2607
rg,1625222845488587897,1,0.5938,-0.7551,0.7505,388,51.2695,-104.9805,-33.6304,70,0.7854,0.5042,-2.7418,-50.6854,30,0.9995,10757,4.0711,-14.9717
rg,1625222845488607062,1,0.4756,-0.6619,0.5107,389,70.8008,-37.4756,-18.3105,70,0.7964,0.5022,-5.2914,-47.9514,30,1.0065,7928,4.0711,-14.3323
rg,1625222845488625949,1,0.4761,-0.7771,0.2268,390,35.8887,-10.6201,1.8311,70,0.8164,0.5173,-6.5043,-47.4035,30,1.0115,7968,4.0711,-13.8949
rg,1625222845488644874,1,0.5422,-0.8701,0.2551,391,23.3154,0.2441,-0.3662,70,0.8344,0.5323,-7.4149,-47.3295,30,1.0135,7801,4.0711,-13.8169
rg,1625222845488663002,1,0.4153,-0.8618,0.2183,392,27.771,50.354,-6.3477,70,0.8504,0.5483,-6.9568,-46.9909,30,1.0155,7924,4.0711,-15.3591
rg,1625222845488681408,1,0.2334,-0.729,0.2837,393,30.2734,86.1206,4.2114,70,0.8574,0.5623,-4.8826,-46.3341,30,1.0165,9451,4.0711,-17.673
rg,1625222845488720034,1,0.0801,-0.6313,0.4124,394,-16.2354,73.7915,28.8696,70,0.8514,0.5703,-2.0828,-47.3007,30,1.0165,7998,4.0711,-19.0094
rg,1625222845488739458,1,0.0564,-0.6729,0.4434,395,-53.5278,36.8652,36.2549,70,0.8154,0.5753,-0.104,-49.7894,30,1.0165,7885,4.0711,-19.1452
rg,1625222845488757198,1,0.2029,-0.9126,0.5322,396,-106.5063,-47.1191,47.7295,70,0.7814,0.5743,-0.1731,-54.4194,30,1.0105,8056,4.0711,-16.472
rg,1625222845488775196,1,0.4038,-1.1255,0.3921,397,-91.3086,-81.8481,68.5425,70,0.7574,0.5623,-0.4009,-58.6795,30,1.0015,7889,4.0711,-12.2086
rg,1625222845488792324,1,0.5911,-1.1543,0.3882,398,-62.9883,-76.4771,76.5381,70,0.7484,0.5403,-0.2352,-61.6568,30,0.9895,7978,4.0711,-8.0127
rg,1625222845488808915,1,0.8674,-1.1321,0.8201,399,1.5869,13.4277,71.167,70,0.7474,0.5002,1.3274,-61.3193,30,0.9895,7954,4.0711,-7.1423
rg,1625222845488825803,1,0.6709,-1.3311,0.5476,400,29.3579,68.2983,66.04,70,0.7464,0.5052,3.9932,-60.4048,30,0.9905,7935,4.0711,-8.9764
rg,1625222845488842468,1,0.4929,-1.396,0.5618,401,41.1987,95.3979,26.7944,70,0.7464,0.4932,5.965,-59.2786,30,0.9885,8179,4.0711,-11.7854
rg,1625222845488859059,1,0.075,-1.1265,0.4307,402,125.6104,87.9517,-41.9312,70,0.7454,0.4842,6.079,-55.0506,30,0.9845,7980,4.0711,-15.7234
rg,1625222845488875891,1,-0.2173,-0.4021,0.2354,403,185.3638,97.6562,-79.6509,70,0.7454,0.4742,6.7201,-48.3809,30,0.9865,8235,4.0711,-20.7529
rg,1625222845488893057,1,-0.3,-0.1399,0.2373,404,182.4341,108.5205,-70.8618,70,0.7464,0.4712,9.258,-41.3286,30,0.9865,8633,4.0711,-25.7073
rg,1625222845488909703,1,-0.406,0.0623,0.2034,405,116.6992,76.355,-21.0571,70,0.7514,0.4802,12.9799,-36.2416,30,0.9875,10127,4.0711,-28.087
rg,1625222845488926517,1,-0.3818,-0.1545,0.1211,406,-39.2456,-18.1885,23.7427,70,0.7534,0.4912,14.7106,-37.7999,30,0.9895,8099,4.0711,-26.9402
rg,1625222845488957366,1,-0.179,-0.5933,0.5312,407,-197.876,-130.9204,46.0205,70,0.7604,0.5012,11.946,-44.9402,30,0.9915,8270,4.0711,-22.0708
rg,1625222845488977401,1,0.3423,-1.2192,1.8606,408,-242.0654,-162.2925,55.481,70,0.7674,0.5102,9.3189,-51.1697,30,0.9955,8231,4.0711,-16.618
rg,1625222845488995789,1,0.3906,-1.8027,0.636,409,-66.8945,-105.7129,45.7764,70,0.7754,0.5062,7.4234,-53.9073,30,1.0015,8423,4.0711,-12.204
rg,1625222845489013732,1,0.5461,-1.0479,0.7966,410,49.1333,-107.7881,-22.583,70,0.7894,0.5193,3.3183,-50.9407,30,1.0105,8253,4.0711,-11.1797
rg,1625222845489031563,1,0.468,-0.8042,0.7561,411,89.9658,-35.5835,-39.6729,70,0.8074,0.5313,0.1915,-47.1882,30,1.0155,8568,4.0711,-11.165
rg,1625222845489048562,1,0.3809,-0.6892,0.3706,412,78.9795,-10.9863,-12.146,70,0.8284,0.5463,-1.4599,-44.5396,30,1.0185,8304,4.0711,-11.2137
rg,1625222845489065264,1,0.4028,-0.7595,0.3347,413,33.1421,6.2256,-9.0942,70,0.8464,0.5623,-2.4786,-43.9487,30,1.0205,8268,4.0711,-11.6361
rg,1625222845489082337,1,0.2476,-0.7532,0.3401,414,23.9868,33.0811,-9.0332,70,0.8644,0.5773,-2.3423,-43.739,30,1.0215,9606,4.0711,-12.7836
rg,1625222845489111427,1,0.1604,-0.7009,0.3604,415,21.7896,41.2598,-3.7842,70,0.8744,0.5893,-1.2374,-43.7424,30,1.0225,8737,4.0711,-13.6506
rg,1625222845489129611,1,0.021,-0.6187,0.418,416,-2.8076,23.6816,15.686,70,0.8594,0.5993,-0.1401,-44.3217,30,1.0225,9065,4.0711,-13.8503
rg,1625222845827459335,1,0.457,-1.0618,0.3831,417,-128.479,-147.2168,54.8706,70,0.7614,0.5683,-3.3258,-50.5344,30,1.0055,24921,4.0711,-7.9896
rg,1625222845827505257,1,0.78,-1.1208,0.3506,418,-61.5845,-89.2334,82.3975,70,0.7454,0.5303,-4.0417,-54.0052,30,0.9885,9417,4.0711,-3.0723
rg,1625222845827526811,1,0.9363,-1.0627,0.4321,419,-39.7949,-40.0391,91.4307,70,0.7444,0.4952,-3.2651,-55.8238,30,0.9865,7861,4.0711,0.3581
rg,1625222845827547032,1,0.687,-1.2732,0.5142,420,26.6724,98.0225,52.8564,70,0.7444,0.4762,-0.2206,-55.1145,30,0.9825,11091,4.0711,-1.6688
rg,1625222845827566049,1,0.2966,-1.3557,0.5605,421,58.6548,114.7461,-5.6152,70,0.7454,0.4592,1.821,-53.2941,30,0.9785,10596,4.0711,-5.5341
rg,1625222845827585751,1,-0.1179,-1.0132,0.5469,422,129.2114,119.0796,-46.7529,70,0.7464,0.4522,3.5066,-48.6833,30,0.9765,9409,4.0711,-10.4171
rg,1625222845827605194,1,-0.2625,-0.7229,0.4307,423,164.1846,116.8823,-50.9644,70,0.7464,0.4482,5.8278,-42.9135,30,0.9745,8035,4.0711,-15.1945
rg,1625222845827625858,1,-0.3562,-0.2141,0.2295,424,173.2788,88.3789,-29.8462,70,0.7484,0.4482,9.3046,-36.4137,30,0.9755,7915,4.0711,-18.3017
rg,1625222845827645024,1,-0.3228,-0.0271,0.1184,425,101.9287,12.085,2.1362,70,0.7514,0.4502,11.7198,-32.0415,30,0.9765,8003,4.0711,-18.3727
rg,1625222845827663911,1,-0.2793,-0.0469,0.0784,426,34.3628,-36.438,9.5215,70,0.7554,0.4562,10.6842,-34.0043,30,0.9775,9074,4.0711,-16.1828
rg,1625222845827682613,1,-0.1592,-0.312,0.1694,427,-122.5586,-122.4976,21.9727,70,0.7604,0.4652,7.8598,-39.2613,30,0.9815,7987,4.0711,-12.7099
rg,1625222845827701148,1,0.4441,-1.1907,1.6812,428,-221.6187,-156.4941,44.1284,70,0.7674,0.4752,3.7789,-47.362,30,0.9865,7885,4.0711,-7.0432
rg,1625222845827720017,1,0.5459,-1.6318,1.3589,429,-160.5225,-111.6333,48.0957,70,0.7734,0.4842,1.9195,-50.8111,30,0.9905,8289,4.0711,-3.3951
rg,1625222845827737849,1,0.5405,-1.6318,0.491,430,-7.9956,-94.2383,9.8877,70,0.7804,0.4962,-0.863,-51.9176,30,0.9975,8029,4.0711,-0.2223
rg,1625222845827755848,1,0.5371,-1.01,0.7522,431,51.2695,-42.4805,-30.4565,70,0.7894,0.5022,-3.7291,-49.9329,30,1.0045,8030,4.0711,0.3178
rg,1625222845827775161,1,0.374,-0.6643,0.45,432,64.27,-6.2256,-19.104,70,0.8064,0.5143,-5.289,-47.5453,30,1.0125,12275,4.0711,-0.0041
rg,1625222845827792659,1,0.3201,-0.7034,0.3572,433,21.8506,-0.6104,-14.2212,70,0.8204,0.5303,-6.3849,-47.1914,30,1.0175,8300,4.0711,-0.3243
rg,1625222845827883281,1,0.2979,-0.8308,0.4175,434,10.9863,6.1035,-5.3101,70,0.8314,0.5423,-6.8311,-47.3093,30,1.0205,8035,4.0711,-0.584
rg,1625222845827917575,1,0.1887,-0.821,0.4219,435,22.1558,9.8877,3.8452,70,0.8384,0.5553,-6.6463,-46.9912,30,1.0245,8168,4.0711,-0.7022
rg,1625222845827939777,1,0.1414,-0.7849,0.4563,436,20.813,2.1362,12.3901,70,0.8424,0.5643,-6.3194,-46.6834,30,1.0265,8108,4.0711,-0.3679
rg,1625222845827961997,1,0.179,-0.6899,0.4827,437,-17.7002,-40.6494,32.5317,70,0.8164,0.5693,-6.6849,-47.9403,30,1.0265,8222,4.0711,1.7599
rg,1625222845827984199,1,0.3655,-0.8064,0.4973,438,-93.0786,-100.0366,44.5557,70,0.7774,0.5603,-8.4207,-52.5905,30,1.0185,8276,4.0711,6.0772
rg,1625222845828004105,1,0.5576,-0.9541,0.3867,439,-119.3848,-115.7227,52.124,70,0.7544,0.5143,-9.7051,-58.8275,30,0.9995,8360,4.0711,11.2358
rg,1625222845828027103,1,0.7202,-1.0063,0.5417,440,-87.6465,-77.3926,59.2041,70,0.7524,0.4862,-9.9942,-63.0861,30,0.9965,8337,4.0711,15.1899
rg,1625222845828047138,1,0.8381,-1.2036,0.583,441,6.4697,18.5547,79.4067,70,0.7514,0.4682,-7.6869,-62.9728,30,0.9895,10166,4.0711,15.9691
rg,1625222845828064951,1,0.6023,-1.3125,0.5288,442,16.9067,70.0073,64.3921,70,0.7494,0.4572,-4.7307,-62.3283,30,0.9875,8254,4.0711,14.6652
rg,1625222845828084228,1,0.314,-1.3098,0.4783,443,75.5005,93.4448,33.0811,70,0.7534,0.4502,-2.0906,-59.4378,30,0.9845,8432,4.0711,12.0464
rg,1625222845828102245,1,0.1604,-1.1763,0.5623,444,95.8862,91.9189,8.3008,70,0.7544,0.4462,-0.6816,-54.3807,30,0.9805,8293,4.0711,8.8518
rg,1625222845828120910,1,-0.1646,-0.8464,0.4683,445,151.4893,64.27,-24.353,70,0.7564,0.4402,0.552,-48.5835,30,0.9785,8440,4.0711,6.2602
rg,1625222845828139464,1,-0.2246,-0.519,0.2729,446,151.7944,0.7324,-6.958,70,0.7584,0.4392,1.1625,-43.024,30,0.9765,8257,4.0711,6.0816
rg,1625222845828157573,1,-0.144,-0.3276,0.2014,447,110.9009,-57.0679,10.3149,70,0.7594,0.4372,0.4752,-39.1291,30,0.9755,8279,4.0711,7.9109
rg,1625222845828175609,1,-0.0884,-0.2869,0.2217,448,76.2939,-78.6743,17.0288,70,0.7624,0.4372,-1.4558,-36.4509,30,0.9765,8427,4.0711,10.3809
rg,1625222846180044755,1,0.2437,-0.8945,0.6523,449,-50.9644,-106.3232,23.4985,70,0.7684,0.4372,-4.6501,-39.32,30,0.9775,25310,4.0711,13.7686
rg,1625222846180106620,1,0.3682,-1.0066,0.6025,450,-23.6206,-85.9375,9.2773,70,0.7714,0.4382,-7.5271,-41.2581,30,0.9795,11363,4.0711,16.3597
rg,1625222846180127822,1,0.3669,-0.8777,0.5444,451,2.2583,-44.9219,-6.5918,70,0.7724,0.4372,-9.5213,-41.9387,30,0.9785,10077,4.0711,17.4538
rg,1625222846180147691,1,0.3005,-0.7556,0.521,452,3.9673,-17.2119,-8.7891,70,0.7744,0.4362,-10.6111,-42.3166,30,0.9805,7770,4.0711,17.7436
rg,1625222846180168078,1,0.2798,-0.7332,0.4729,453,-5.7983,-13.7939,-7.9346,70,0.7764,0.4352,-11.5226,-43.1314,30,0.9805,7893,4.0711,17.9936
rg,1625222846180188262,1,0.2808,-0.7444,0.4585,454,-9.2163,-15.4419,-5.7983,70,0.7774,0.4362,-12.3958,-44.1531,30,0.9815,8974,4.0711,18.3818
rg,1625222846180207094,1,0.3,-0.7795,0.4631,455,-7.019,-13.0615,-3.1128,70,0.7794,0.4362,-13.0986,-45.0631,30,0.9815,8153,4.0711,18.7923
rg,1625222846180229037,1,0.3311,-0.8027,0.4807,456,1.2817,-16.1133,-0.3052,70,0.7814,0.4342,-13.8202,-45.6423,30,0.9835,7898,4.0711,19.3763
rg,1625222846180247109,1,0.3589,-0.8066,0.4934,457,6.2866,-19.2871,-0.6714,70,0.7834,0.4352,-14.6578,-46.0057,30,0.9845,7888,4.0711,20.0448
rg,1625222846180265478,1,0.3977,-0.8306,0.5242,458,15.8691,-23.1323,0.6714,70,0.7854,0.4352,-15.5767,-45.9904,30,0.9875,7861,4.0711,20.8651
rg,1625222846180283310,1,0.4097,-0.8501,0.5386,459,25.2075,-16.7847,1.5259,70,0.7874,0.4372,-16.2666,-45.565,30,0.9895,9690,4.0711,21.526
rg,1625222846180301772,1,0.3743,-0.8367,0.5449,460,35.0342,-5.9204,0,70,0.7884,0.4392,-16.6108,-44.6422,30,0.9915,9263,4.0711,21.8197
rg,1625222846180375062,1,0.353,-0.8269,0.5432,461,38.5742,-5.249,1.77,70,0.7904,0.4392,-16.8459,-43.4575,30,0.9935,8022,4.0711,22.1809
rg,1625222846180409337,1,0.3284,-0.7949,0.554,462,43.8232,-10.2539,1.709,70,0.7924,0.4402,-17.1826,-42.254,30,0.9945,7923,4.0711,22.6544
rg,1625222846180428243,1,0.3137,-0.771,0.5193,463,43.6401,-19.5923,-0.4883,70,0.7924,0.4402,-17.8504,-41.1997,30,0.9965,8111,4.0711,23.3438
rg,1625222846180456815,1,0.2966,-0.7532,0.4995,464,45.6543,-24.1699,-1.0376,70,0.7934,0.4412,-18.7651,-40.1938,30,0.9955,7949,4.0711,24.2274
rg,1625222846180517033,1,0.29,-0.7131,0.481,465,42.9077,-30.1514,-1.0986,70,0.7934,0.4412,-19.7324,-39.3514,30,0.9965,7919,4.0711,25.2097
rg,1625222846180538531,1,0.3098,-0.7131,0.4854,466,37.7197,-33.5083,0.6714,70,0.7934,0.4412,-20.7762,-38.8008,30,0.9965,8176,4.0711,26.351
rg,1625222846180559881,1,0.3228,-0.7266,0.499,467,35.5225,-33.9966,0.5493,70,0.7944,0.4432,-21.8033,-38.4869,30,0.9985,8011,4.0711,27.5152
rg,1625222846180579620,1,0.373,-0.7751,0.5273,468,32.3486,-29.1138,2.3193,70,0.7954,0.4422,-22.6801,-38.1893,30,0.9985,8016,4.0711,28.6266
rg,1625222846180597397,1,0.3774,-0.7966,0.5222,469,33.8135,-18.5547,1.9531,70,0.7954,0.4422,-23.2089,-37.7806,30,0.9995,8017,4.0711,29.4713
rg,1625222846180617321,1,0.3655,-0.7888,0.5222,470,36.0718,-13.7329,1.77,70,0.7964,0.4432,-23.419,-37.0771,30,0.9995,8189,4.0711,29.9359
rg,1625222846180637653,1,0.3293,-0.7737,0.533,471,36.6821,-7.6294,0.1831,70,0.7984,0.4452,-23.5345,-36.4223,30,0.9995,8090,4.0711,30.4341
rg,1625222846180655985,1,0.3125,-0.7649,0.5251,472,38.9404,-10.3149,-3.9062,70,0.7974,0.4452,-23.8067,-35.68,30,1.0005,8253,4.0711,30.8695
rg,1625222846180678705,1,0.3123,-0.7612,0.5024,473,39.3677,-14.7705,-5.6152,70,0.7974,0.4452,-24.5137,-34.9647,30,0.9995,8367,4.0711,31.4661
rg,1625222846180697963,1,0.3115,-0.7605,0.5137,474,42.5415,-24.4751,-11.9019,70,0.7974,0.4452,-25.4126,-34.1852,30,0.9995,8279,4.0711,32.0025
rg,1625222846180719331,1,0.3293,-0.759,0.5391,475,46.4478,-28.4424,-14.0381,70,0.7984,0.4462,-26.4845,-33.2354,30,1.0005,8171,4.0711,32.546
rg,1625222846180740126,1,0.3325,-0.7908,0.6062,476,53.9551,-27.3438,-12.3901,70,0.7974,0.4462,-27.4011,-31.963,30,0.9995,8556,4.0711,33.1007
rg,1625222846180757699,1,0.322,-0.7957,0.6208,477,58.4106,-26.6724,-12.0239,70,0.7974,0.4472,-28.194,-30.5379,30,0.9995,8333,4.0711,33.6537
rg,1625222846180777808,1,0.2856,-0.7678,0.6282,478,69.7021,-30.6396,-9.7046,70,0.7974,0.4452,-29.0299,-28.7591,30,0.9995,8888,4.0711,34.3759
rg,1625222846180798936,1,0.2808,-0.6943,0.5959,479,75.7446,-37.7197,-7.9346,70,0.7984,0.4452,-30.1007,-26.8542,30,0.9995,8985,4.0711,35.3002
rg,1625222846180845359,1,0.3232,-0.636,0.5984,480,73.4253,-45.3491,-3.9673,70,0.7974,0.4452,-31.4668,-25.1563,30,0.9945,8727,4.0711,36.4935
rg,1625222846544750291,1,0.449,-0.6523,0.5957,481,63.2324,-44.0674,-4.0894,70,0.7984,0.4432,-32.9083,-23.7982,30,0.9995,25336,4.0711,37.5029
rg,1625222846544791695,1,0.4712,-0.6372,0.5894,482,66.2231,-32.0435,-6.4087,70,0.7984,0.4432,-33.7746,-22.0795,30,0.9985,8570,4.0711,38.1761
rg,1625222846544812434,1,0.4978,-0.6274,0.6431,483,69.458,-16.9678,-8.0566,70,0.7974,0.4432,-34.4046,-20.0905,30,0.9985,7957,4.0711,38.4652
rg,1625222846544830914,1,0.458,-0.637,0.6709,484,71.7163,-3.418,-13.2446,70,0.7984,0.4432,-34.4816,-17.8982,30,0.9975,10263,4.0711,38.4734
rg,1625222846544849283,1,0.4326,-0.6453,0.6943,485,71.6553,2.8076,-12.7563,70,0.7984,0.4412,-34.2402,-15.7436,30,0.9985,7776,4.0711,38.4503
rg,1625222846544867245,1,0.3936,-0.6206,0.7014,486,77.4536,6.8359,-9.1553,70,0.7974,0.4402,-33.7378,-13.4692,30,0.9985,7927,4.0711,38.5679
rg,1625222846544885169,1,0.3618,-0.5759,0.7156,487,82.3364,4.9438,-5.4321,70,0.7984,0.4382,-33.2265,-11.1057,30,0.9975,9447,4.0711,38.8774
rg,1625222846544903112,1,0.3579,-0.5552,0.7258,488,82.3364,3.418,-3.418,70,0.7984,0.4372,-32.8546,-8.8496,30,0.9975,7985,4.0711,39.3054
rg,1625222846544921037,1,0.3562,-0.5317,0.7278,489,78.6133,-4.6997,-2.0752,70,0.7984,0.4362,-32.7363,-6.8334,30,0.9975,8050,4.0711,39.8743
rg,1625222846544938295,1,0.3921,-0.5317,0.7195,490,75.5005,-15.8691,-4.9438,70,0.7984,0.4352,-33.1756,-4.9647,30,0.9975,8013,4.0711,40.3895
rg,1625222846544955904,1,0.4207,-0.5415,0.7524,491,72.0825,-18.7378,-9.0942,70,0.7994,0.4342,-33.7598,-3.1566,30,0.9975,7860,4.0711,40.7215
rg,1625222846544972996,1,0.417,-0.5439,0.7732,492,71.4722,-15.9912,-11.8408,70,0.7984,0.4332,-34.1988,-1.3352,30,0.9965,8083,4.0711,40.9289
rg,1625222846544990735,1,0.4131,-0.5386,0.8262,493,71.5332,-15.5029,-14.5874,70,0.7984,0.4322,-34.547,0.5715,30,0.9995,7964,4.0711,40.9903
rg,1625222846545007808,1,0.4246,-0.5283,0.8708,494,71.7773,-22.4609,-17.334,70,0.7974,0.4312,-35.1344,2.5799,30,0.9965,8060,4.0711,40.8924
rg,1625222846545046008,1,0.4487,-0.511,0.8784,495,71.5942,-25.8179,-17.2119,70,0.7974,0.4302,-35.8653,4.5826,30,0.9965,7981,4.0711,40.7766
rg,1625222846545064414,1,0.5591,-0.4648,0.8616,496,71.5332,-27.5879,-12.207,90,0.7984,0.4282,-36.8926,6.4413,30,0.9965,11057,4.059,40.9292
rg,1625222846545082820,1,0.5994,-0.4517,0.866,497,66.8335,-29.0527,-10.7422,90,0.7974,0.4262,-37.9719,8.178,30,0.9965,8179,4.059,41.0323
rg,1625222846545100486,1,0.6418,-0.45,0.8647,498,59.1431,-15.7471,-13.6719,90,0.7974,0.4252,-38.5422,9.6262,30,0.9965,8147,4.059,41.0947
rg,1625222846545117688,1,0.6064,-0.4609,0.8933,499,52.1851,7.5684,-15.4419,90,0.7964,0.4232,-38.0842,10.6514,30,0.9975,8086,4.059,41.3263
rg,1625222846545135798,1,0.5552,-0.4702,0.9355,500,50.1099,15.3198,-16.9067,90,0.7964,0.4252,-37.1024,11.4997,30,0.9965,8217,4.059,41.6155
rg,1625222846545152370,1,0.4426,-0.4873,1.0056,501,52.7344,6.2256,-14.6484,90,0.7964,0.4232,-36.393,12.387,30,0.9955,9119,4.059,41.9428
rg,1625222846545169351,1,0.4468,-0.4561,1.012,502,56.1523,-18.3105,-11.5967,90,0.7964,0.4202,-36.6796,13.5106,30,0.9965,8409,4.059,42.1174
rg,1625222846545189164,1,0.4802,-0.4414,1.0105,503,56.0303,-28.6865,-10.0098,90,0.7964,0.4202,-37.4251,14.6678,30,0.9965,8164,4.059,42.233
rg,1625222846545206848,1,0.5496,-0.4124,0.9968,504,52.6123,-42.7246,-7.9346,90,0.7964,0.4192,-38.8196,15.7989,30,0.9965,8186,4.059,42.2265
rg,1625222846545224180,1,0.6133,-0.4038,0.9751,505,48.0957,-47.3633,-7.019,90,0.7964,0.4182,-40.4698,16.7941,30,0.9965,8228,4.059,42.1854
rg,1625222846545244048,1,0.6741,-0.3926,0.9492,506,46.0205,-42.2363,-3.7842,90,0.7974,0.4172,-42.0193,17.5891,30,0.9965,9930,4.059,42.3754
rg,1625222846545261769,1,0.7046,-0.3789,0.9128,507,46.0815,-27.4048,-0.1831,90,0.7974,0.4182,-43.0811,18.1157,30,0.9975,8258,4.059,43.0045
rg,1625222846545280120,1,0.7083,-0.3601,0.9011,508,45.8984,-17.8833,2.3804,90,0.7974,0.4192,-43.7658,18.4551,30,0.9975,8385,4.059,43.9327
rg,1625222846545300174,1,0.6758,-0.3374,0.8896,509,45.8984,7.9346,6.3477,90,0.7984,0.4182,-43.4941,18.3316,30,0.9975,8288,4.059,45.5415
rg,1625222846545364594,1,0.6338,-0.3284,0.9067,510,39.3066,21.3623,2.8687,90,0.7974,0.4192,-42.5903,17.9314,30,0.9925,8452,4.059,47.1798
rg,1625222846545388111,1,0.532,-0.3113,0.905,511,36.0718,28.6255,5.3711,90,0.7984,0.4192,-41.296,17.2626,30,0.9975,8370,4.059,49.0234
rg,1625222846545405128,1,0.5056,-0.3147,0.9219,512,34.5459,27.0386,6.1035,90,0.7994,0.4202,-39.9949,16.5953,30,0.9975,8555,4.059,50.7958
rg,1625222846909418367,1,0.5134,-0.3611,0.8987,513,26.4282,-2.6245,6.7139,90,0.8014,0.4232,-39.9621,15.8206,30,0.9985,25260,4.059,52.1551
rg,1625222846909456586,1,0.5063,-0.3777,0.8765,514,23.9258,-1.9531,0.2441,90,0.8034,0.4262,-39.8431,15.1269,30,0.9975,14636,4.059,53.2137
rg,1625222846909477214,1,0.4856,-0.3862,0.8574,515,24.7192,-4.8218,-3.479,90,0.8044,0.4282,-39.7819,14.593,30,0.9995,10223,4.059,54.0548
rg,1625222846909497046,1,0.4814,-0.3835,0.8391,516,26.6113,-7.3853,-3.7842,90,0.8064,0.4322,-39.8047,14.333,30,0.9985,7709,4.059,54.6104
rg,1625222846909515711,1,0.4917,-0.3838,0.8438,517,29.1748,-9.3384,-9.2773,90,0.8084,0.4352,-39.881,14.2298,30,0.9995,7833,4.059,55.0824
rg,1625222846909533858,1,0.499,-0.3879,0.8347,518,35.7056,-5.6763,-14.0381,90,0.8104,0.4352,-39.7925,14.5056,30,0.9995,8017,4.059,55.3664
rg,1625222846909551708,1,0.4897,-0.3745,0.8179,519,39.978,-3.3569,-14.2822,90,0.8134,0.4382,-39.4537,15.2,30,1.0005,8121,4.059,55.569
rg,1625222846909569059,1,0.4744,-0.3516,0.8159,520,47.6685,2.6855,-17.2729,90,0.8164,0.4402,-38.8788,16.2201,30,1.0015,9243,4.059,55.759
rg,1625222846909586280,1,0.4358,-0.2769,0.7976,521,54.7485,9.0942,-17.8833,90,0.8204,0.4452,-38.1039,17.3632,30,1.0025,8017,4.059,55.9699
rg,1625222846909603130,1,0.3887,-0.1721,0.8015,522,47.6685,25.8179,-6.6528,90,0.8244,0.4472,-36.7037,17.9375,30,1.0035,13514,4.059,56.8452
rg,1625222846909619814,1,0.3977,-0.1665,0.8347,523,42.1753,29.9072,-0.8545,90,0.8264,0.4492,-35.2399,18.0875,30,1.0045,8053,4.059,58.0406
rg,1625222846909636479,1,0.4307,-0.2256,0.9163,524,27.771,26.6113,6.897,90,0.8294,0.4502,-34.0636,17.455,30,1.0055,7865,4.059,59.5326
rg,1625222846909673884,1,0.4866,-0.2981,0.9395,525,23.4375,18.0054,11.0474,90,0.8324,0.4522,-33.3946,16.5541,30,1.0055,7938,4.059,61.0936
rg,1625222846909692697,1,0.5122,-0.3132,0.9414,526,25.2075,14.2822,14.0381,90,0.8334,0.4542,-32.9791,15.7129,30,1.0065,8058,4.059,62.7013
rg,1625222846909709307,1,0.5352,-0.3118,0.9443,527,28.0151,18.6768,14.5264,90,0.8354,0.4582,-32.4053,15.0093,30,1.0075,8945,4.059,64.3368
rg,1625222846909728157,1,0.5159,-0.2876,0.9392,528,31.5552,27.5269,14.3433,90,0.8374,0.4622,-31.4599,14.4846,30,1.0075,8381,4.059,66.0056
rg,1625222846909744878,1,0.4812,-0.2844,0.948,529,32.7759,35.5835,18.0664,90,0.8384,0.4642,-30.1895,13.9281,30,1.0085,8049,4.059,67.8818
rg,1625222846909761266,1,0.4712,-0.2903,0.9441,530,33.2031,39.6729,18.3105,90,0.8394,0.4652,-28.7411,13.4074,30,1.0085,8210,4.059,69.7566
rg,1625222846909777876,1,0.4482,-0.2908,0.95,531,36.8652,41.9922,19.5923,90,0.8404,0.4682,-27.2457,13.0754,30,1.0085,8010,4.059,71.6369
rg,1625222846909794115,1,0.427,-0.2698,0.9316,532,41.3208,43.9453,20.0806,90,0.8434,0.4712,-25.6985,12.9978,30,1.0095,9324,4.059,73.482
rg,1625222846909810799,1,0.4109,-0.2275,0.9177,533,41.3818,43.1519,20.3857,90,0.8444,0.4752,-24.2123,13.0533,30,1.0105,8030,4.059,75.2462
rg,1625222846909827131,1,0.3882,-0.209,0.917,534,40.0391,42.5415,20.5688,90,0.8444,0.4782,-22.7608,13.0247,30,1.0095,8231,4.059,76.9383
rg,1625222846909844222,1,0.3865,-0.2114,0.9314,535,32.8369,40.6494,21.1792,90,0.8464,0.4812,-21.4188,12.8587,30,1.0095,8102,4.059,78.6117
rg,1625222846909860869,1,0.3794,-0.2163,0.9478,536,27.1606,36.5601,19.165,90,0.8484,0.4842,-20.2331,12.5495,30,1.0075,8278,4.059,80.1209
rg,1625222846909877646,1,0.3818,-0.2256,0.9812,537,26.4282,27.771,16.4185,90,0.8484,0.4842,-19.3812,12.3113,30,1.0115,8187,4.059,81.3984
rg,1625222846909893922,1,0.3914,-0.2146,0.9958,538,26.1841,24.7192,17.2119,90,0.8484,0.4872,-18.687,12.1188,30,1.0105,8356,4.059,82.6451
rg,1625222846909911032,1,0.4172,-0.1948,1.0361,539,22.0947,25.3906,21.2402,90,0.8494,0.4892,-18.0356,11.7901,30,1.0125,8170,4.059,84.0236
rg,1625222846909939511,1,0.4692,-0.1909,1.0659,540,17.334,34.1187,29.4189,90,0.8504,0.4912,-17.192,11.2092,30,1.0125,8416,4.059,85.7777
rg,1625222846909958565,1,0.4482,-0.1804,1.0515,541,16.2354,43.8843,28.6865,90,0.8504,0.4932,-15.8998,10.6367,30,1.0125,8290,4.059,87.5371
rg,1625222846909975675,1,0.3674,-0.1682,1.0293,542,12.085,59.3262,26.3062,90,0.8504,0.4932,-13.9309,9.972,30,1.0125,8295,4.059,89.2598
rg,1625222846909993729,1,0.2673,-0.1667,1.0137,543,2.8076,69.519,23.0103,90,0.8514,0.4942,-11.4014,9.0298,30,1.0135,8290,4.059,90.8441
rg,1625222846910011857,1,0.1663,-0.1965,1.0107,544,-2.9297,58.8379,16.3574,90,0.8524,0.4942,-9.1133,7.9514,30,1.0145,8296,4.059,92.0113
rg,1625222847279302001,1,0.0864,-0.2468,1.0293,545,-0.7935,-1.2207,12.146,90,0.8524,0.5002,-9.0704,7.005,30,1.0135,25614,4.059,92.6255
rg,1625222847279349960,1,0.1614,-0.2322,1.0166,546,4.8218,-27.8931,10.8032,90,0.8534,0.5012,-10.2322,6.3716,30,1.0145,9368,4.059,93.052
rg,1625222847279371422,1,0.2402,-0.2063,0.9922,547,8.3618,-40.8325,8.667,90,0.8544,0.5032,-12.0877,6.023,30,1.0145,11663,4.059,93.34
rg,1625222847279391050,1,0.2825,-0.168,0.9829,548,9.2773,-42.5415,8.7891,90,0.8544,0.5032,-13.9713,5.7438,30,1.0145,9520,4.059,93.6485
rg,1625222847279411289,1,0.3091,-0.1509,0.9832,549,5.3101,-37.4146,10.8643,90,0.8544,0.5022,-15.6399,5.3177,30,1.0155,7998,4.059,94.0837
rg,1625222847279431103,1,0.3323,-0.1611,1.0037,550,1.4648,-35.0342,10.6201,90,0.8544,0.5022,-17.1788,4.7254,30,1.0155,9496,4.059,94.5503
rg,1625222847279448398,1,0.3376,-0.1892,0.9941,551,0.1831,-34.2407,10.437,90,0.8544,0.4952,-18.6368,4.0324,30,1.0145,7847,4.059,95.0615
rg,1625222847279468304,1,0.3359,-0.1919,0.9824,552,-0.6714,-33.3252,9.8877,90,0.8554,0.4962,-20.0016,3.3028,30,1.0155,7788,4.059,95.5811
rg,1625222847279486080,1,0.3311,-0.2073,0.9741,553,0.1831,-33.2031,9.5215,90,0.8514,0.4972,-21.2981,2.5838,30,1.0155,9623,4.059,96.1246
rg,1625222847279586110,1,0.323,-0.2029,0.9663,554,1.1597,-32.4707,8.0566,90,0.8544,0.4982,-22.4956,1.9411,30,1.0155,7834,4.059,96.6286
rg,1625222847279611330,1,0.3276,-0.2065,0.9578,555,1.0376,-32.6538,7.6904,90,0.8554,0.4982,-23.6641,1.2967,30,1.0155,7846,4.059,97.1425
rg,1625222847279631125,1,0.345,-0.2134,0.9612,556,1.0376,-35.0342,8.5449,90,0.8554,0.4992,-24.9105,0.6335,30,1.0155,8046,4.059,97.7182
rg,1625222847279651031,1,0.3762,-0.2148,0.96,557,3.6621,-35.4004,8.3618,90,0.8554,0.4982,-26.1814,0.0854,30,1.0155,7928,4.059,98.3078
rg,1625222847279670233,1,0.3845,-0.2136,0.96,558,4.8218,-35.2783,9.9487,90,0.8554,0.4972,-27.4091,-0.4433,30,1.0155,8065,4.059,98.9889
rg,1625222847279688398,1,0.4019,-0.2021,0.9517,559,6.8359,-30.8838,9.7046,90,0.8554,0.5012,-28.4498,-0.8592,30,1.0175,7938,4.059,99.6649
rg,1625222847279706230,1,0.4243,-0.1914,0.9514,560,7.1411,-24.9023,11.5356,90,0.8564,0.5022,-29.2499,-1.2721,30,1.0165,8089,4.059,100.4211
rg,1625222847279726322,1,0.4248,-0.1904,0.9529,561,7.019,-19.8364,12.2681,90,0.8564,0.5032,-29.8111,-1.6977,30,1.0175,8009,4.059,101.2137
rg,1625222847279747320,1,0.4246,-0.2,0.9622,562,4.9438,-11.1694,13.1226,90,0.8574,0.5042,-29.9901,-2.2295,30,1.0165,8147,4.059,102.0463
rg,1625222847279768152,1,0.3972,-0.1975,0.9639,563,5.127,-3.54,11.5967,90,0.8564,0.5042,-29.8004,-2.6886,30,1.0175,8101,4.059,102.786
rg,1625222847279785576,1,0.3784,-0.2,0.9729,564,5.188,-2.0752,12.3901,90,0.8564,0.5042,-29.5094,-3.1435,30,1.0175,8248,4.059,103.5493
rg,1625222847279803408,1,0.3438,-0.1902,0.9797,565,7.2632,0,12.8174,90,0.8544,0.5062,-29.068,-3.4756,30,1.0185,8165,4.059,104.3021
rg,1625222847279822703,1,0.3301,-0.1824,0.9771,566,7.2632,-3.418,13.7939,90,0.8574,0.5062,-28.7479,-3.7976,30,1.0185,8405,4.059,105.0892
rg,1625222847279841813,1,0.3301,-0.175,0.9775,567,6.958,-4.6387,15.1978,90,0.8574,0.5072,-28.5192,-4.1408,30,1.0185,8110,4.059,105.9531
rg,1625222847279860145,1,0.3357,-0.1658,0.9905,568,3.3569,-5.4932,16.9067,90,0.8574,0.5102,-28.287,-4.6075,30,1.0175,12249,4.059,106.8474
rg,1625222847279896068,1,0.3191,-0.1768,0.9924,569,1.8921,-4.9438,17.334,90,0.8574,0.5133,-28.0072,-5.1617,30,1.0175,8315,4.059,107.7167
rg,1625222847279914289,1,0.3188,-0.1838,0.9849,570,0.9155,-7.3853,17.2119,90,0.8584,0.5133,-27.8258,-5.7351,30,1.0185,9606,4.059,108.5931
rg,1625222847279932158,1,0.3057,-0.1982,0.9866,571,1.0986,-7.5684,15.9302,90,0.8574,0.5123,-27.626,-6.2791,30,1.0175,8252,4.059,109.456
rg,1625222847279950916,1,0.2981,-0.2063,0.9839,572,2.6855,-7.3853,13.855,90,0.8584,0.5143,-27.4157,-6.7117,30,1.0185,8310,4.059,110.2241
rg,1625222847279969100,1,0.2996,-0.1982,0.9915,573,4.2725,-13.3667,14.9536,90,0.8584,0.5143,-27.4388,-7.0769,30,1.0165,9123,4.059,111.0554
rg,1625222847279991635,1,0.3154,-0.1936,0.98,574,5.0659,-18.9819,15.1367,90,0.8594,0.5163,-27.7171,-7.4108,30,1.0185,9030,4.059,111.9212
rg,1625222847280010449,1,0.335,-0.1914,0.9761,575,5.6763,-19.4092,13.9771,90,0.8584,0.5163,-28.0456,-7.6857,30,1.0185,8483,4.059,112.7363
rg,1625222847280029336,1,0.365,-0.1753,0.9629,576,6.2256,-20.752,14.4653,90,0.8554,0.5173,-28.4796,-7.9148,30,1.0185,8360,4.059,113.5672
rg,1625222847619662357,1,0.3818,-0.1897,0.9551,577,1.3428,-10.437,14.1602,90,0.8604,0.5193,-28.5259,-8.3343,30,1.0185,25805,4.059,114.3381
rg,1625222847619699576,1,0.3613,-0.1868,0.9705,578,3.479,-7.5073,14.0381,90,0.8604,0.5203,-28.3991,-8.6263,30,1.0185,11474,4.059,115.0712
rg,1625222847619720112,1,0.3518,-0.1785,0.9775,579,2.1973,-8.1787,16.1743,90,0.8604,0.5213,-28.2638,-8.9804,30,1.0195,7682,4.059,115.888
rg,1625222847619739981,1,0.3572,-0.1746,0.9717,580,2.4414,-8.9722,16.1743,90,0.8604,0.5213,-28.1762,-9.3044,30,1.0195,11111,4.059,116.7007
rg,1625222847619758887,1,0.3591,-0.1802,0.9714,581,0.8545,-7.9346,15.7471,90,0.8604,0.5223,-28.0532,-9.6779,30,1.0195,10376,4.059,117.4871
rg,1625222847619777330,1,0.3577,-0.1824,0.9739,582,0.9766,-6.5918,15.5029,90,0.8614,0.5233,-27.8694,-10.042,30,1.0195,7732,4.059,118.2558
rg,1625222847619795439,1,0.3462,-0.1848,0.9797,583,1.0986,-4.3945,14.6484,90,0.8614,0.5243,-27.5868,-10.3415,30,1.0195,7707,4.059,118.9536
rg,1625222847619863397,1,0.3357,-0.189,0.9824,584,2.1362,-5.6152,14.4653,90,0.8614,0.5253,-27.338,-10.5931,30,1.0195,7789,4.059,119.6502
rg,1625222847619887340,1,0.3203,-0.187,0.9812,585,2.6245,-5.8594,14.0381,90,0.8614,0.5253,-27.0794,-10.7996,30,1.0195,8004,4.059,120.322
rg,1625222847619907394,1,0.3235,-0.1787,0.9739,586,3.9062,-9.3384,13.916,90,0.8604,0.5253,-26.9784,-10.9385,30,1.0195,9255,4.059,121.006
rg,1625222847619929467,1,0.3374,-0.1699,0.979,587,2.3193,-12.9395,14.8315,90,0.8604,0.5263,-27.0393,-11.144,30,1.0195,9251,4.059,121.7487
rg,1625222847619950132,1,0.3555,-0.1724,0.9731,588,1.2207,-13.7939,14.8926,90,0.8624,0.5273,-27.1682,-11.4001,30,1.0195,7925,4.059,122.5039
rg,1625222847619970760,1,0.3577,-0.1748,0.9702,589,0.8545,-13.3057,14.7095,90,0.8624,0.5263,-27.2775,-11.6641,30,1.0195,8092,4.059,123.2478
rg,1625222847619989185,1,0.3401,-0.1992,0.9773,590,0.9766,-10.8032,12.207,90,0.8614,0.5273,-27.242,-11.9039,30,1.0195,10963,4.059,123.8627
rg,1625222847620008461,1,0.335,-0.1982,0.9819,591,1.0986,-10.5591,12.3901,90,0.8614,0.5273,-27.1979,-12.1302,30,1.0185,8006,4.059,124.4957
rg,1625222847620027422,1,0.3362,-0.1953,0.969,592,1.709,-11.2915,13.1226,90,0.8614,0.5283,-27.1872,-12.3401,30,1.0185,8023,4.059,125.1645
rg,1625222847620047236,1,0.3374,-0.1899,0.9788,593,2.9297,-11.0474,14.4043,90,0.8614,0.5293,-27.1373,-12.4913,30,1.0195,8237,4.059,125.884
rg,1625222847620063679,1,0.3376,-0.1846,0.9805,594,3.3569,-10.2539,13.7939,90,0.8624,0.5293,-27.0766,-12.5979,30,1.0195,8097,4.059,126.5525
rg,1625222847620081900,1,0.3308,-0.1836,0.9802,595,3.479,-10.6201,15.3198,90,0.8614,0.5303,-27.0045,-12.7243,30,1.0185,8270,4.059,127.2887
rg,1625222847620099510,1,0.3303,-0.1758,0.9785,596,2.3193,-9.8877,14.5264,90,0.8624,0.5303,-26.9137,-12.8537,30,1.0195,8308,4.059,127.9724
rg,1625222847620116953,1,0.3274,-0.1833,0.9832,597,2.5635,-9.8877,14.3433,90,0.8624,0.5303,-26.858,-13.0489,30,1.0185,8264,4.059,128.6795
rg,1625222847620134840,1,0.3242,-0.1843,0.9863,598,1.0376,-10.6201,14.4653,90,0.8634,0.5313,-26.7794,-13.2332,30,1.0185,8138,4.059,129.3703
rg,1625222847620183300,1,0.3223,-0.189,0.9822,599,1.0986,-12.8784,14.6484,90,0.8624,0.5313,-26.7856,-13.4342,30,1.0175,8359,4.059,130.0957
rg,1625222847620218945,1,0.3315,-0.1912,0.9768,600,0.9155,-14.0381,14.0991,90,0.8634,0.5323,-26.8612,-13.6379,30,1.0205,8326,4.059,130.811
rg,1625222847620240388,1,0.334,-0.1858,0.9756,601,0.9766,-14.2822,14.4043,90,0.8634,0.5323,-26.9449,-13.8274,30,1.0195,8365,4.059,131.5346
rg,1625222847620259202,1,0.3354,-0.1843,0.9751,602,1.6479,-14.7705,13.9771,90,0.8634,0.5323,-27.0499,-13.9749,30,1.0195,8234,4.059,132.2418
rg,1625222847620277200,1,0.3445,-0.1887,0.969,603,2.9297,-17.0898,14.7705,90,0.8634,0.5323,-27.2528,-14.1089,30,1.0195,8269,4.059,133.0145
rg,1625222847620295421,1,0.3438,-0.1865,0.9707,604,2.6855,-15.625,14.1602,90,0.8634,0.5333,-27.415,-14.2029,30,1.0205,8457,4.059,133.7309
rg,1625222847620313013,1,0.3562,-0.1812,0.9753,605,2.2583,-15.1978,13.7939,90,0.8634,0.5333,-27.5582,-14.3102,30,1.0195,8467,4.059,134.4297
rg,1625222847620431430,1,0.3657,-0.1797,0.9597,606,3.1128,-14.0381,14.4043,90,0.8634,0.5353,-27.6746,-14.3918,30,1.0195,8856,4.059,135.1433
rg,1625222847620455039,1,0.3621,-0.1755,0.9717,607,2.0142,-12.4512,13.3667,90,0.8644,0.5353,-27.7194,-14.47,30,1.0185,9406,4.059,135.7856
rg,1625222847620475056,1,0.3577,-0.1748,0.9658,608,3.2959,-12.3901,15.3809,90,0.8644,0.5343,-27.7348,-14.5358,30,1.0205,8600,4.059,136.5146
rg,1625222847964516623,1,0.3589,-0.1702,0.9651,609,2.8076,-9.0332,15.9912,95,0.8644,0.5353,-27.6173,-14.6017,30,1.0185,26238,4.059,137.2257
rg,1625222847964568897,1,0.3499,-0.186,0.9844,610,2.9907,-7.1411,16.3574,95,0.8654,0.5363,-27.3922,-14.6811,30,1.0195,8844,4.059,137.9426
rg,1625222847964599709,1,0.3298,-0.1892,0.9814,611,1.0376,-6.7749,15.9302,95,0.8644,0.5373,-27.1684,-14.7773,30,1.0205,12127,4.059,138.6307
rg,1625222847964628726,1,0.3262,-0.189,0.9871,612,3.2349,-8.7891,14.0381,95,0.8654,0.5383,-26.9966,-14.801,30,1.0195,11252,4.059,139.2634
rg,1625222847964655724,1,0.3206,-0.1819,0.9878,613,2.9297,-11.5356,15.686,95,0.8654,0.5393,-26.9097,-14.8637,30,1.0195,7685,4.059,139.9906
rg,1625222847964711386,1,0.3289,-0.1892,0.9824,614,3.6011,-12.4512,14.7705,95,0.8654,0.5393,-26.8889,-14.9033,30,1.0195,7886,4.059,140.6971
rg,1625222847964741347,1,0.3411,-0.1841,0.9751,615,3.479,-14.4653,15.5029,95,0.8654,0.5393,-26.9689,-14.9636,30,1.0205,9474,4.059,141.4547
rg,1625222847964768956,1,0.3462,-0.1848,0.9739,616,3.7231,-14.3433,15.0146,95,0.8654,0.5403,-27.0434,-14.9992,30,1.0195,7945,4.059,142.161
rg,1625222847964795787,1,0.3499,-0.1838,0.9814,617,3.1128,-13.916,15.4419,95,0.8654,0.5393,-27.109,-15.0654,30,1.0205,9153,4.059,142.9076
rg,1625222847964820915,1,0.3469,-0.1709,0.9749,618,3.2349,-13.0615,15.4419,95,0.8644,0.5403,-27.14,-15.0924,30,1.0195,8527,4.059,143.6307
rg,1625222847964846469,1,0.3552,-0.1711,0.9631,619,4.0283,-11.6577,15.7471,95,0.8654,0.5403,-27.1374,-15.0919,30,1.0205,7806,4.059,144.3531
rg,1625222847964871671,1,0.3491,-0.1733,0.9724,620,3.7842,-11.5356,15.8691,95,0.8664,0.5423,-27.1297,-15.0907,30,1.0195,8037,4.059,145.0738
rg,1625222847964896928,1,0.3533,-0.1724,0.9827,621,1.9531,-9.3994,15.3809,95,0.8644,0.5433,-27.0264,-15.1469,30,1.0195,7915,4.059,145.7506
rg,1625222847964923111,1,0.3425,-0.1863,0.9805,622,2.9297,-7.6294,15.3198,95,0.8664,0.5433,-26.8363,-15.1825,30,1.0205,8055,4.059,146.4178
rg,1625222847964949109,1,0.3403,-0.1853,0.981,623,2.0752,-7.6294,15.4419,95,0.8654,0.5423,-26.6341,-15.2311,30,1.0195,7907,4.059,147.0802
rg,1625222847964974015,1,0.3269,-0.1843,0.9851,624,3.9062,-9.0332,15.5029,95,0.8654,0.5423,-26.4768,-15.2227,30,1.0205,8808,4.059,147.766
rg,1625222847964999291,1,0.3342,-0.1792,0.9797,625,4.8218,-10.8032,15.0757,95,0.8664,0.5453,-26.4177,-15.1686,30,1.0195,8093,4.059,148.4501
rg,1625222847965024548,1,0.3381,-0.1819,0.9817,626,4.0894,-11.5356,14.4653,95,0.8664,0.5463,-26.402,-15.1431,30,1.0195,8110,4.059,149.1198
rg,1625222847965050435,1,0.345,-0.1758,0.9817,627,3.6011,-11.5967,15.1978,95,0.8674,0.5463,-26.3968,-15.1383,30,1.0195,8030,4.059,149.8157
rg,1625222847965075563,1,0.3433,-0.1787,0.9773,628,3.8452,-12.3901,13.7329,95,0.8664,0.5473,-26.4366,-15.109,30,1.0195,8180,4.059,150.4619
rg,1625222847965116264,1,0.3445,-0.1824,0.9731,629,3.479,-12.8174,13.6108,95,0.8664,0.5473,-26.4973,-15.1066,30,1.0205,8033,4.059,151.1131
rg,1625222847965143132,1,0.3433,-0.1775,0.9763,630,3.6621,-12.4512,13.916,95,0.8674,0.5483,-26.5348,-15.0885,30,1.0205,8221,4.059,151.7675
rg,1625222847965168353,1,0.3508,-0.1763,0.9741,631,3.7842,-11.7188,13.2446,95,0.8674,0.5483,-26.567,-15.0485,30,1.0205,8083,4.059,152.3839
rg,1625222847965193203,1,0.345,-0.1697,0.9678,632,3.3569,-11.5967,13.855,95,0.8674,0.5503,-26.5811,-15.0253,30,1.0205,8424,4.059,153.0199
rg,1625222847965217979,1,0.3459,-0.1689,0.9656,633,4.4556,-11.1084,13.0615,95,0.8684,0.5503,-26.585,-14.9672,30,1.0205,8127,4.059,153.6401
rg,1625222847965242384,1,0.3491,-0.166,0.9768,634,4.2725,-11.6577,14.2822,95,0.8674,0.5503,-26.6003,-14.9072,30,1.0195,8302,4.059,154.2907
rg,1625222847965267327,1,0.3464,-0.1626,0.9741,635,4.6387,-9.9487,15.3809,95,0.8684,0.5503,-26.5357,-14.8399,30,1.0205,8153,4.059,154.9666
rg,1625222847965292788,1,0.3403,-0.1614,0.979,636,4.0894,-9.3384,17.0898,95,0.8684,0.5513,-26.337,-14.8675,30,1.0205,8381,4.059,155.5899
rg,1625222847965318712,1,0.3433,-0.1611,0.9883,637,0.7935,-6.958,16.7236,95,0.8684,0.5513,-26.1378,-14.9515,30,1.0205,8775,4.059,156.2843
rg,1625222847965344025,1,0.3311,-0.1775,0.99,638,0.9155,-7.2021,16.0522,95,0.8644,0.5513,-25.9328,-15.0498,30,1.0205,8383,4.059,156.9671
rg,1625222847965369819,1,0.3203,-0.1787,0.9871,639,0.9766,-9.7046,16.4185,95,0.8684,0.5523,-25.8071,-15.1624,30,1.0195,8239,4.059,157.6944
rg,1625222847965395077,1,0.3218,-0.1758,0.9885,640,1.0986,-10.0098,15.1367,95,0.8694,0.5533,-25.7478,-15.1859,30,1.0205,8301,4.059,158.3863
rg,1625222848309655373,1,0.3486,-0.1775,0.9678,641,2.2583,-12.6953,14.8926,95,0.8684,0.5543,-25.8296,-15.2352,30,1.0195,24953,4.059,159.0846
rg,1625222848309691260,1,0.3472,-0.1777,0.9712,642,1.1597,-11.5967,15.2588,95,0.8694,0.5553,-25.856,-15.3271,30,1.0205,17148,4.059,159.7848
rg,1625222848309711221,1,0.3525,-0.1765,0.969,643,1.8311,-11.9019,15.9912,95,0.8694,0.5563,-25.897,-15.403,30,1.0205,7711,4.059,160.5182
rg,1625222848309750089,1,0.3494,-0.1729,0.9734,644,2.9907,-11.4746,16.3574,95,0.8684,0.5563,-25.8808,-15.46,30,1.0205,7892,4.059,161.2014
rg,1625222848309769384,1,0.3503,-0.1719,0.9785,645,2.1973,-9.3384,15.4419,95,0.8694,0.5573,-25.8171,-15.4768,30,1.0195,7739,4.059,161.872
rg,1625222848309788124,1,0.3398,-0.1772,0.9792,646,2.1973,-8.667,16.1133,95,0.8694,0.5583,-25.6999,-15.5123,30,1.0205,7946,4.059,162.568
rg,1625222848309806215,1,0.3367,-0.1677,0.9834,647,2.4414,-7.4463,15.1367,95,0.8694,0.5583,-25.539,-15.4953,30,1.0205,8333,4.059,163.2001
rg,1625222848309823806,1,0.3279,-0.1721,0.9858,648,2.7466,-9.2163,16.1743,95,0.8684,0.5583,-25.4257,-15.4927,30,1.0205,8589,4.059,163.8975
rg,1625222848309840546,1,0.3328,-0.1738,0.9858,649,1.0376,-9.8877,15.1367,95,0.8694,0.5593,-25.3629,-15.5459,30,1.0215,7787,4.059,164.5603
rg,1625222848309857378,1,0.333,-0.1711,0.9861,650,1.6479,-10.376,15.1367,95,0.8694,0.5593,-25.3242,-15.5846,30,1.0195,8005,4.059,165.2327
rg,1625222848309874858,1,0.332,-0.1729,0.9863,651,2.6245,-11.7188,15.9912,95,0.8664,0.5593,-25.3242,-15.5923,30,1.0195,7870,4.059,165.9515
rg,1625222848309891968,1,0.3396,-0.167,0.9792,652,1.1597,-11.8408,14.6484,95,0.8694,0.5603,-25.3643,-15.6244,30,1.0205,8248,4.059,166.6102
rg,1625222848309908282,1,0.3394,-0.1755,0.9824,653,1.77,-11.6577,15.0146,95,0.8704,0.5603,-25.3893,-15.665,30,1.0205,7931,4.059,167.294
rg,1625222848309925151,1,0.3416,-0.1787,0.9866,654,1.0376,-11.7188,15.2588,95,0.8654,0.5603,-25.4112,-15.7346,30,1.0235,8097,4.059,167.9869
rg,1625222848309942002,1,0.343,-0.1755,0.9785,655,2.9907,-11.0474,14.8315,95,0.8704,0.5603,-25.4199,-15.7088,30,1.0215,8083,4.059,168.651
rg,1625222848309958556,1,0.3477,-0.1704,0.9836,656,3.1738,-11.2305,15.4419,95,0.8714,0.5603,-25.4374,-15.6667,30,1.0215,8105,4.059,169.334
rg,1625222848309974833,1,0.3433,-0.1694,0.9851,657,1.5259,-11.4746,16.7236,95,0.8674,0.5613,-25.4386,-15.7221,30,1.0205,7968,4.059,170.0774
rg,1625222848309991350,1,0.3418,-0.1775,0.981,658,1.5869,-9.9487,15.8081,95,0.8714,0.5613,-25.3887,-15.7683,30,1.0215,8195,4.059,170.7714
rg,1625222848310018885,1,0.3379,-0.1729,0.981,659,3.2349,-8.7891,15.5029,95,0.8694,0.5603,-25.2928,-15.7235,30,1.0205,10591,4.059,171.4328
rg,1625222848310036032,1,0.3301,-0.167,0.9792,660,3.2959,-9.4604,16.1743,95,0.8704,0.5603,-25.2255,-15.6683,30,1.0215,8228,4.059,-187.8711
rg,1625222848310052161,1,0.3325,-0.1624,0.988,661,3.479,-9.9487,15.564,95,0.8704,0.5603,-25.1677,-15.595,30,1.0205,8198,4.059,-187.2039
rg,1625222848310068641,1,0.3367,-0.1653,0.98,662,2.0142,-11.6577,16.4185,95,0.8714,0.5613,-25.1819,-15.6174,30,1.0205,10011,4.059,-186.4743
rg,1625222848310086270,1,0.3389,-0.1707,0.9807,663,0.9155,-11.4746,15.625,95,0.8714,0.5613,-25.1994,-15.68,30,1.0215,8106,4.059,-185.7757
rg,1625222848310103657,1,0.3372,-0.1775,0.9795,664,1.0986,-10.6812,15.686,95,0.8704,0.5613,-25.1803,-15.7463,30,1.0205,8771,4.059,-185.0777
rg,1625222848310120508,1,0.3335,-0.1807,0.9824,665,0.9766,-10.3149,14.8926,95,0.8714,0.5623,-25.1503,-15.8005,30,1.0215,8709,4.059,-184.418
rg,1625222848310136655,1,0.3354,-0.1763,0.9907,666,0.9766,-11.5356,15.8081,95,0.8704,0.5623,-25.1527,-15.865,30,1.0205,8342,4.059,-183.7095
rg,1625222848310153098,1,0.3398,-0.1743,0.979,667,1.4648,-11.9019,15.5029,95,0.8714,0.5623,-25.1888,-15.9051,30,1.0215,8239,4.059,-183.0099
rg,1625222848310169264,1,0.3494,-0.1746,0.9871,668,1.8921,-12.0239,15.7471,95,0.8704,0.5623,-25.2233,-15.9498,30,1.0205,8262,4.059,-182.3385
rg,1625222848310186078,1,0.345,-0.1741,0.9878,669,1.0376,-11.1084,15.0757,95,0.8704,0.5613,-25.2346,-15.9885,30,1.0205,8428,4.059,-181.6695
rg,1625222848310202410,1,0.3342,-0.1765,0.9839,670,1.0986,-8.3618,13.916,95,0.8714,0.5633,-25.1331,-15.994,30,1.0215,8333,4.059,-181.0813
rg,1625222848310219038,1,0.3308,-0.1733,0.9785,671,1.5869,-9.2163,13.916,95,0.8714,0.5633,-25.0657,-15.978,30,1.0215,8474,4.059,-180.485
rg,1625222848310235704,1,0.3262,-0.1711,0.9844,672,2.1973,-11.0474,15.3198,95,0.8714,0.5633,-25.0445,-15.9697,30,1.0215,8357,4.059,-179.8077
rg,1625222848665172434,1,0.3433,-0.1704,0.9739,673,1.8921,-11.5967,14.3433,95,0.8704,0.5643,-25.0963,-15.9582,30,1.0205,25293,4.059,-179.1654
rg,1625222848665214542,1,0.3396,-0.1726,0.9707,674,1.0986,-11.9019,15.4419,95,0.8714,0.5643,-25.1396,-16.0071,30,1.0215,10852,4.059,-178.4697
rg,1625222848665235281,1,0.3357,-0.1667,0.9817,675,2.7466,-10.6201,15.625,95,0.8714,0.5643,-25.1186,-16.0473,30,1.0205,7739,4.059,-177.7883
rg,1625222848665254965,1,0.335,-0.1704,0.9812,676,1.0376,-10.7422,15.1978,95,0.8714,0.5643,-25.1026,-16.0745,30,1.0205,7836,4.059,-177.1228
rg,1625222848665299758,1,0.3376,-0.1672,0.9834,677,1.8311,-11.0474,14.3433,95,0.8714,0.5643,-25.113,-16.047,30,1.0215,7808,4.059,-176.4937
rg,1625222848665320590,1,0.3303,-0.1733,0.9827,678,1.9531,-11.8408,15.0146,95,0.8714,0.5653,-25.1304,-16.0461,30,1.0215,7868,4.059,-175.8199
rg,1625222848665339848,1,0.3433,-0.1758,0.9807,679,1.0986,-13.1836,16.1743,95,0.8714,0.5653,-25.2115,-16.1036,30,1.0215,8781,4.059,-175.0819
rg,1625222848665358773,1,0.3428,-0.1733,0.989,680,1.2207,-12.146,15.1367,95,0.8724,0.5663,-25.2555,-16.1331,30,1.0205,7896,4.059,-174.4005
rg,1625222848665389937,1,0.345,-0.1733,0.9814,681,2.1973,-11.4136,16.1133,95,0.8724,0.5653,-25.2683,-16.1403,30,1.0215,12039,4.059,-173.6854
rg,1625222848665409436,1,0.3438,-0.165,0.9834,682,1.8921,-11.4746,16.6016,95,0.8714,0.5663,-25.2754,-16.1484,30,1.0205,8004,4.059,-172.9577
rg,1625222848665427398,1,0.335,-0.176,0.9829,683,3.1738,-10.2539,15.5029,95,0.8724,0.5673,-25.2281,-16.1036,30,1.0215,8154,4.059,-172.2812
rg,1625222848665444786,1,0.335,-0.1697,0.9822,684,2.7466,-10.8032,14.8926,95,0.8724,0.5663,-25.2125,-16.0452,30,1.0215,8086,4.059,-171.6334
rg,1625222848665462618,1,0.3289,-0.1709,0.9868,685,2.8076,-11.7798,15.7471,95,0.8714,0.5663,-25.2106,-16.0168,30,1.0215,8041,4.059,-170.9324
rg,1625222848665480135,1,0.3308,-0.1763,0.9829,686,2.1362,-11.4746,15.2588,95,0.8724,0.5673,-25.208,-16.0202,30,1.0205,8610,4.059,-170.2493
rg,1625222848665497282,1,0.3345,-0.1721,0.9734,687,2.6855,-12.207,15.3809,95,0.8714,0.5673,-25.2257,-15.9793,30,1.0205,8468,4.059,-169.609
rg,1625222848665515244,1,0.3401,-0.1753,0.9802,688,1.9531,-12.8784,14.7705,95,0.8724,0.5663,-25.3027,-15.9902,30,1.0205,8155,4.059,-168.929
rg,1625222848665532650,1,0.3411,-0.1621,0.9709,689,2.6245,-12.4512,16.2354,95,0.8714,0.5683,-25.3554,-15.9724,30,1.0165,8082,4.059,-168.2035
rg,1625222848665550315,1,0.3406,-0.1628,0.9741,690,2.8687,-11.4136,15.1367,95,0.8734,0.5683,-25.3604,-15.981,30,1.0225,8176,4.059,-167.5391
rg,1625222848665568573,1,0.3418,-0.1636,0.9812,691,0.9766,-10.8643,16.2964,95,0.8734,0.5663,-25.3434,-16.0215,30,1.0205,8099,4.059,-166.8309
rg,1625222848665585831,1,0.333,-0.1682,0.9775,692,1.5259,-10.8643,16.0522,95,0.8724,0.5683,-25.3129,-16.0456,30,1.0205,8170,4.059,-166.1285
rg,1625222848665620551,1,0.334,-0.1711,0.9807,693,1.0376,-11.4746,15.4419,95,0.8724,0.5693,-25.3127,-16.0856,30,1.0215,8141,4.059,-165.4425
rg,1625222848665640124,1,0.3345,-0.168,0.9836,694,0.7324,-11.7798,15.3198,95,0.8724,0.5693,-25.3249,-16.1269,30,1.0225,8272,4.059,-164.7622
rg,1625222848665656789,1,0.3367,-0.1736,0.9814,695,2.0142,-11.5967,15.1978,95,0.8724,0.5693,-25.3353,-16.1268,30,1.0215,8153,4.059,-164.0836
rg,1625222848665674473,1,0.3354,-0.1653,0.9807,696,1.709,-11.8408,16.0522,95,0.8724,0.5693,-25.345,-16.1367,30,1.0215,8207,4.059,-163.374
rg,1625222848665691380,1,0.3394,-0.1636,0.9868,697,1.6479,-11.8408,15.9302,95,0.8734,0.5703,-25.3538,-16.1478,30,1.0215,8353,4.059,-162.6691
rg,1625222848665708601,1,0.3357,-0.167,0.9907,698,0.9155,-11.5356,15.1978,95,0.8724,0.5673,-25.3539,-16.1712,30,1.0205,8236,4.059,-162
rg,1625222848665725748,1,0.3342,-0.1702,0.9773,699,1.0376,-12.9395,15.8691,95,0.8724,0.5693,-25.4048,-16.2219,30,1.0215,10037,4.059,-161.2793
rg,1625222848665743320,1,0.3345,-0.1709,0.9766,700,1.8921,-12.5732,15.1978,95,0.8724,0.5703,-25.4478,-16.225,30,1.0195,8697,4.059,-160.5915
rg,1625222848665760560,1,0.3425,-0.1633,0.9731,701,1.709,-13.1226,15.564,95,0.8734,0.5703,-25.5263,-16.2302,30,1.0225,8476,4.059,-159.8879
rg,1625222848665779688,1,0.3398,-0.1648,0.9773,702,1.77,-12.4512,15.625,95,0.8724,0.5703,-25.5668,-16.2325,30,1.0215,8361,4.059,-159.1895
rg,1625222848665796983,1,0.3394,-0.1611,0.9712,703,0.9155,-13.0615,15.8081,95,0.8734,0.5713,-25.6307,-16.27,30,1.0215,8505,4.059,-158.4782
rg,1625222848665814390,1,0.3445,-0.1743,0.9822,704,1.6479,-10.8032,14.7705,95,0.8734,0.5713,-25.6171,-16.2726,30,1.0225,8448,4.059,-157.8284
rg,1625222849021126289,1,0.3274,-0.1782,0.9773,705,0.9766,-10.7422,15.0757,95,0.8734,0.5713,-25.5571,-16.2903,30,1.0215,25130,4.059,-157.1735
rg,1625222849021167527,1,0.3359,-0.1672,0.9878,706,0.7935,-11.4746,16.0522,95,0.8734,0.5713,-25.538,-16.3327,30,1.0215,10664,4.059,-156.4696
rg,1625222849021188266,1,0.3376,-0.1765,0.9763,707,1.9531,-11.6577,15.5029,95,0.8734,0.5723,-25.5414,-16.3448,30,1.0215,8881,4.059,-155.7756
rg,1625222849021208654,1,0.3425,-0.1665,0.978,708,1.8921,-11.4136,15.564,95,0.8734,0.5723,-25.5457,-16.3349,30,1.0215,7725,4.059,-155.0926
rg,1625222849021227078,1,0.3391,-0.1628,0.9832,709,1.8311,-11.6577,16.1743,95,0.8734,0.5723,-25.5428,-16.3293,30,1.0215,7886,4.059,-154.3852
rg,1625222849021244948,1,0.3374,-0.1624,0.9788,710,1.0376,-12.146,16.6016,95,0.8744,0.5713,-25.5533,-16.3667,30,1.0215,7788,4.059,-153.6532
rg,1625222849021287889,1,0.3359,-0.1765,0.9822,711,0.9766,-11.3525,16.0522,95,0.8744,0.5723,-25.5304,-16.4221,30,1.0205,8167,4.059,-152.9413
rg,1625222849021309758,1,0.3352,-0.1748,0.9795,712,1.0376,-11.7188,16.9067,95,0.8734,0.5723,-25.5126,-16.4874,30,1.0215,7888,4.059,-152.1905
rg,1625222849021328202,1,0.3425,-0.1738,0.9854,713,2.0752,-11.7188,15.1367,95,0.8744,0.5723,-25.5264,-16.472,30,1.0215,8048,4.059,-151.5176
rg,1625222849021346034,1,0.344,-0.166,0.9785,714,1.8921,-10.2539,16.6016,95,0.8734,0.5723,-25.4766,-16.468,30,1.0215,8162,4.059,-150.8075
rg,1625222849021364236,1,0.3403,-0.1638,0.9863,715,2.7466,-10.5591,16.3574,95,0.8744,0.5713,-25.4313,-16.4179,30,1.0225,7825,4.059,-150.1077
rg,1625222849021381013,1,0.3311,-0.1707,0.9849,716,1.0986,-10.0098,16.6016,95,0.8744,0.5723,-25.3449,-16.4519,30,1.0225,9350,4.059,-149.3971
rg,1625222849021398271,1,0.325,-0.1709,0.9844,717,1.2817,-9.9487,15.3198,95,0.8754,0.5723,-25.2617,-16.4527,30,1.0215,9713,4.059,-148.7421
rg,1625222849021417381,1,0.332,-0.1714,0.9827,718,2.8076,-12.0239,16.2964,95,0.8744,0.5723,-25.2655,-16.4235,30,1.0225,8043,4.059,-148.0183
rg,1625222849021434787,1,0.333,-0.1672,0.9819,719,2.0142,-10.9863,14.8926,95,0.8744,0.5723,-25.26,-16.3948,30,1.0215,7939,4.059,-147.3499
rg,1625222849021453101,1,0.3357,-0.1692,0.9902,720,1.1597,-11.7188,14.9536,95,0.8744,0.5723,-25.2708,-16.3995,30,1.0215,8111,4.059,-146.6897
rg,1625222849021470692,1,0.3433,-0.167,0.9829,721,2.1973,-11.4746,15.625,95,0.8744,0.5733,-25.2849,-16.3723,30,1.0215,8069,4.059,-146.0048
rg,1625222849021487895,1,0.3369,-0.168,0.9824,722,2.5635,-10.9863,15.0757,95,0.8744,0.5733,-25.2651,-16.3702,30,1.0225,8130,4.059,-145.3015
rg,1625222849021505727,1,0.3308,-0.1692,0.9849,723,1.0376,-11.5967,15.9302,95,0.8764,0.5733,-25.2537,-16.3995,30,1.0205,8008,4.059,-144.6003
rg,1625222849021523485,1,0.335,-0.1643,0.979,724,2.0752,-11.3525,15.3198,95,0.8744,0.5733,-25.2538,-16.3654,30,1.0215,8179,4.059,-143.9321
rg,1625222849021541484,1,0.3362,-0.1677,0.9819,725,2.0752,-12.8784,16.5405,95,0.8744,0.5733,-25.2646,-16.3234,30,1.0225,8057,4.0645,-143.1959
rg,1625222849021574778,1,0.3401,-0.1707,0.9851,726,2.9297,-11.3525,15.9302,85,0.8744,0.5743,-25.2631,-16.282,30,1.0225,8205,4.0645,-142.4954
rg,1625222849021595332,1,0.3394,-0.1719,0.9868,727,2.8687,-10.437,16.2354,85,0.8744,0.5743,-25.2208,-16.2471,30,1.0225,8129,4.0645,-141.7921
rg,1625222849021612998,1,0.3318,-0.167,0.9863,728,2.3804,-9.5825,15.1978,85,0.8744,0.5733,-25.1457,-16.1973,30,1.0225,12301,4.0645,-141.1481
rg,1625222849021631515,1,0.3333,-0.1687,0.9802,729,0.9766,-11.8408,15.7471,85,0.8744,0.5733,-25.1604,-16.2335,30,1.0215,8111,4.0645,-140.4491
rg,1625222849021649366,1,0.3286,-0.1714,0.9827,730,1.6479,-11.2305,15.686,85,0.8744,0.5733,-25.1401,-16.242,30,1.0215,8356,4.0645,-139.7587
rg,1625222849021667328,1,0.332,-0.1689,0.9814,731,2.0752,-11.0474,15.686,85,0.8744,0.5733,-25.1218,-16.2271,30,1.0215,8260,4.0645,-139.0729
rg,1625222849021684734,1,0.3318,-0.165,0.9812,732,1.709,-10.8643,15.1367,85,0.8744,0.5733,-25.1041,-16.2072,30,1.0215,8391,4.0645,-138.4163
rg,1625222849021702103,1,0.3267,-0.1707,0.9775,733,2.2583,-11.8408,16.4185,85,0.8744,0.5743,-25.1009,-16.2086,30,1.0215,8225,4.0645,-137.6868
rg,1625222849021720176,1,0.3367,-0.1677,0.9814,734,1.5869,-12.7563,15.2588,85,0.8744,0.5743,-25.1226,-16.2363,30,1.0225,8427,4.0645,-137.0156
rg,1625222849021737934,1,0.3352,-0.1714,0.9858,735,1.8311,-10.6201,14.2212,85,0.8704,0.5743,-25.1231,-16.2006,30,1.0215,9568,4.0645,-136.3979
rg,1625222849021757266,1,0.3313,-0.168,0.9893,736,2.1362,-11.3525,15.7471,85,0.8754,0.5743,-25.0703,-16.1568,30,1.0225,10742,4.0645,-135.7657
rg,1625222849373005098,1,0.3293,-0.1746,0.9775,737,1.1597,-10.376,14.6484,85,0.8754,0.5743,-25.0538,-16.148,30,1.0225,25563,4.0645,-135.1211
rg,1625222849373086537,1,0.3396,-0.1653,0.9871,738,2.3193,-11.3525,15.9302,85,0.8754,0.5753,-25.0614,-16.1217,30,1.0215,10637,4.0645,-134.4243
rg,1625222849373107628,1,0.3381,-0.1638,0.9814,739,2.2583,-11.9629,16.4185,85,0.8744,0.5743,-25.0675,-16.1304,30,1.0215,7803,4.0645,-133.7647
rg,1625222849373128738,1,0.3403,-0.1658,0.9849,740,1.8311,-10.376,14.5874,85,0.8744,0.5753,-25.0551,-16.0972,30,1.0215,7830,4.0645,-133.1359
rg,1625222849373147015,1,0.335,-0.1677,0.9812,741,2.6855,-10.3149,14.8315,85,0.8744,0.5753,-25.0298,-16.0408,30,1.0215,7812,4.0645,-132.4946
rg,1625222849373167291,1,0.3354,-0.166,0.9792,742,1.0986,-10.2539,14.9536,85,0.8744,0.5753,-24.987,-16.0297,30,1.0215,7875,4.0645,-131.8305
rg,1625222849373184512,1,0.3264,-0.1604,0.9868,743,1.8921,-10.1318,14.3433,85,0.8744,0.5723,-24.944,-15.9769,30,1.0225,8086,4.0645,-131.2199
rg,1625222849373258248,1,0.3318,-0.1633,0.9834,744,1.0376,-12.2681,16.7236,85,0.8754,0.5763,-24.9707,-16.0223,30,1.0185,7977,4.0645,-130.4778
rg,1625222849373281525,1,0.3271,-0.165,0.9788,745,0.9155,-11.5967,15.625,85,0.8744,0.5763,-24.9725,-16.0602,30,1.0215,7905,4.0645,-129.7673
rg,1625222849373299894,1,0.3298,-0.1628,0.99,746,1.0376,-11.4746,15.8691,85,0.8744,0.5763,-24.9682,-16.0791,30,1.0225,7869,4.0645,-129.0739
rg,1625222849373317319,1,0.3311,-0.1648,0.9829,747,1.0376,-12.146,15.8691,85,0.8754,0.5763,-24.9962,-16.1086,30,1.0215,7850,4.0645,-128.3692
rg,1625222849373335984,1,0.3308,-0.167,0.9824,748,1.0376,-10.9863,14.7095,85,0.8754,0.5763,-25.0114,-16.1231,30,1.0225,8052,4.0645,-127.7262
rg,1625222849373354705,1,0.3284,-0.1692,0.9885,749,1.0986,-11.5967,15.686,85,0.8754,0.5773,-25.0082,-16.1502,30,1.0225,7928,4.0645,-127.0333
rg,1625222849373371574,1,0.3267,-0.1685,0.9819,750,0.9155,-12.4512,15.7471,85,0.8754,0.5763,-25.045,-16.193,30,1.0225,11721,4.0645,-126.326
rg,1625222849373391703,1,0.3374,-0.1643,0.9858,751,0.9155,-12.207,15.2588,85,0.8754,0.5773,-25.089,-16.2115,30,1.0225,7893,4.0645,-125.6485
rg,1625222849373411701,1,0.3328,-0.165,0.9854,752,1.6479,-11.4746,14.8926,85,0.8754,0.5763,-25.0981,-16.1916,30,1.0225,7907,4.0645,-124.9952
rg,1625222849373429793,1,0.3398,-0.1658,0.9836,753,1.9531,-12.146,15.3809,85,0.8754,0.5753,-25.1425,-16.1759,30,1.0225,8110,4.0645,-124.3112
rg,1625222849373447495,1,0.3374,-0.1682,0.9854,754,0.9155,-12.146,15.8691,85,0.8754,0.5763,-25.173,-16.2162,30,1.0225,9884,4.0645,-123.6043
rg,1625222849373466902,1,0.335,-0.165,0.9792,755,1.8311,-11.3525,15.1367,85,0.8754,0.5753,-25.1798,-16.1963,30,1.0235,9417,4.0645,-122.9409
rg,1625222849373484493,1,0.3342,-0.1611,0.978,756,1.709,-11.7798,15.3809,85,0.8754,0.5773,-25.2003,-16.1803,30,1.0205,8012,4.0645,-122.2654
rg,1625222849373502270,1,0.3335,-0.1658,0.9792,757,0.8545,-12.0239,15.5029,85,0.8754,0.5773,-25.2246,-16.213,30,1.0225,8216,4.0645,-121.5769
rg,1625222849373520861,1,0.3362,-0.1672,0.9841,758,1.2207,-11.9019,15.686,85,0.8744,0.5763,-25.2428,-16.2343,30,1.0225,8142,4.0645,-120.882
rg,1625222849373541786,1,0.3276,-0.1731,0.9795,759,2.3804,-10.498,14.8315,85,0.8744,0.5763,-25.2007,-16.2005,30,1.0205,8140,4.0645,-120.2346
rg,1625222849373582931,1,0.3337,-0.1704,0.9851,760,1.4648,-10.9863,14.2822,85,0.8764,0.5783,-25.1945,-16.1887,30,1.0235,8292,4.0645,-119.6077
rg,1625222849373603948,1,0.3318,-0.1663,0.9893,761,2.3193,-11.2915,15.8691,85,0.8764,0.5783,-25.1771,-16.1618,30,1.0225,8157,4.0645,-118.9143
rg,1625222849373623114,1,0.3372,-0.1697,0.9795,762,2.0142,-11.8408,15.564,85,0.8734,0.5783,-25.2014,-16.1582,30,1.0225,8334,4.0645,-118.2214
rg,1625222849373640224,1,0.3379,-0.1672,0.9805,763,1.9531,-10.6201,15.3809,85,0.8764,0.5783,-25.1816,-16.1413,30,1.0235,8208,4.0645,-117.5539
rg,1625222849373659611,1,0.3313,-0.1675,0.9844,764,2.0142,-10.9863,15.0146,85,0.8754,0.5783,-25.1414,-16.1078,30,1.0215,8401,4.0645,-116.9171
rg,1625222849373677980,1,0.3279,-0.1628,0.9844,765,2.6245,-11.0474,15.2588,85,0.8754,0.5793,-25.1205,-16.0528,30,1.0225,8264,4.0645,-116.2544
rg,1625222849373695146,1,0.3318,-0.1697,0.9866,766,2.3193,-11.9019,16.3574,85,0.8754,0.5793,-25.1262,-16.0515,30,1.0175,8411,4.0645,-115.5273
rg,1625222849373713626,1,0.3318,-0.1685,0.9827,767,2.3804,-11.8408,15.4419,85,0.8764,0.5793,-25.1425,-16.03,30,1.0235,8292,4.0645,-114.8402
rg,1625222849373730903,1,0.3362,-0.1636,0.9807,768,2.8687,-10.498,14.8315,85,0.8754,0.5793,-25.1252,-15.9616,30,1.0225,8500,4.0645,-114.1998
rg,1625222849723483887,1,0.3367,-0.1592,0.9707,769,2.1973,-11.4136,14.3433,85,0.8754,0.5793,-25.1582,-15.9127,30,1.0225,24744,4.0645,-113.5705
rg,1625222849723536106,1,0.3335,-0.1667,0.9736,770,1.1597,-12.2681,15.4419,85,0.8754,0.5803,-25.2006,-15.9481,30,1.0225,10569,4.0645,-112.8764
rg,1625222849723558197,1,0.3416,-0.1658,0.979,771,2.5024,-12.207,14.7095,85,0.8764,0.5803,-25.2342,-15.9251,30,1.0215,8159,4.0645,-112.2245
rg,1625222849723579232,1,0.3372,-0.1626,0.9832,772,0.9766,-11.2305,15.0757,85,0.8754,0.5803,-25.2399,-15.9426,30,1.0225,10443,4.0645,-111.5646
rg,1625222849723605712,1,0.3379,-0.1641,0.9839,773,0.9155,-12.0239,16.4185,85,0.8764,0.5803,-25.2612,-15.9937,30,1.0225,7779,4.0645,-110.8366
rg,1625222849723624785,1,0.3323,-0.1699,0.9856,774,1.9531,-11.2915,15.0146,85,0.8754,0.5803,-25.2552,-15.9847,30,1.0225,7761,4.0645,-110.1727
rg,1625222849723643321,1,0.3372,-0.1643,0.9817,775,1.8921,-10.6812,15.0757,85,0.8764,0.5813,-25.1862,-15.9408,30,1.0225,7819,4.0645,-109.5655
rg,1625222849723663375,1,0.3296,-0.1602,0.9917,776,0.9766,-10.9863,15.5029,85,0.8764,0.5813,-25.1592,-15.9535,30,1.0225,7970,4.0645,-108.8949
rg,1625222849723679874,1,0.324,-0.168,0.988,777,0.9766,-11.3525,15.5029,85,0.8774,0.5813,-25.1363,-15.9865,30,1.0185,8554,4.0645,-108.2118
rg,1625222849723767165,1,0.3303,-0.1646,0.9792,778,1.0376,-11.6577,15.0757,85,0.8764,0.5813,-25.1513,-15.9755,30,1.0235,7795,4.0645,-107.5306
rg,1625222849723790404,1,0.332,-0.1624,0.9807,779,0.9766,-11.7188,14.4043,85,0.8754,0.5813,-25.1771,-15.9805,30,1.0225,7838,4.0645,-106.894
rg,1625222849723807384,1,0.3381,-0.1626,0.9861,780,0.7324,-12.3291,15.3809,85,0.8764,0.5823,-25.223,-16.0152,30,1.0235,8225,4.0645,-106.2088
rg,1625222849723823957,1,0.344,-0.1592,0.9773,781,0.8545,-11.8408,15.5029,85,0.8774,0.5813,-25.2358,-16.0741,30,1.0225,7888,4.0645,-105.4858
rg,1625222849723840438,1,0.3362,-0.1638,0.9783,782,0.9155,-10.376,15.564,85,0.8764,0.5813,-25.2027,-16.0972,30,1.0225,7915,4.0645,-104.8155
rg,1625222849723858511,1,0.3337,-0.1619,0.9819,783,0.9155,-11.1084,16.2354,85,0.8774,0.5823,-25.1842,-16.1286,30,1.0235,7940,4.0645,-104.1107
rg,1625222849723876898,1,0.3298,-0.165,0.9795,784,0.9766,-10.1929,14.8315,85,0.8774,0.5823,-25.1286,-16.1324,30,1.0205,7969,4.0645,-103.4746
rg,1625222849723894138,1,0.3337,-0.1641,0.9849,785,0.8545,-10.7422,15.9302,85,0.8734,0.5823,-25.0997,-16.1603,30,1.0225,7970,4.0645,-102.7862
rg,1625222849723912229,1,0.3315,-0.1711,0.98,786,0.9766,-11.2305,16.0522,85,0.8774,0.5813,-25.0859,-16.2052,30,1.0225,8003,4.0645,-102.0791
rg,1625222849723930154,1,0.3301,-0.1667,0.9805,787,1.0376,-10.9863,15.8081,85,0.8774,0.5823,-25.0753,-16.2208,30,1.0225,7973,4.0645,-101.3941
rg,1625222849723948783,1,0.332,-0.1628,0.9897,788,0.9766,-10.498,15.625,85,0.8744,0.5833,-25.0353,-16.2278,30,1.0225,8052,4.0645,-100.7251
rg,1625222849723965485,1,0.3301,-0.1721,0.9973,789,1.0986,-10.6812,15.3198,85,0.8774,0.5823,-24.9965,-16.2427,30,1.0225,8198,4.0645,-100.0592
rg,1625222849723982669,1,0.3301,-0.168,0.9893,790,0.9155,-10.5591,14.7705,85,0.8774,0.5823,-24.9676,-16.2556,30,1.0225,8096,4.0645,-99.4173
rg,1625222849724004501,1,0.3313,-0.1628,0.9961,791,0.9155,-11.7798,13.855,85,0.8774,0.5833,-24.9948,-16.2351,30,1.0215,8876,4.0645,-98.8089
rg,1625222849724026537,1,0.3298,-0.167,0.9805,792,0.9155,-12.3291,14.4043,85,0.8774,0.5833,-25.0422,-16.2445,30,1.0235,9713,4.0645,-98.1633
rg,1625222849724066405,1,0.3301,-0.1626,0.9773,793,0.9766,-13.7329,14.7095,85,0.8774,0.5833,-25.1413,-16.256,30,1.0225,8165,4.0645,-97.491
rg,1625222849724084885,1,0.334,-0.1484,0.9724,794,0.9766,-12.085,12.6343,85,0.8774,0.5833,-25.2481,-16.2347,30,1.0225,8120,4.0645,-96.8499
rg,1625222849724101495,1,0.3337,-0.1504,0.9841,795,1.0376,-13.855,14.9536,85,0.8774,0.5813,-25.3471,-16.2208,30,1.0215,8218,4.0645,-96.1788
rg,1625222849724118790,1,0.3425,-0.1626,0.9739,796,-0.061,-12.3901,14.5874,85,0.8774,0.5833,-25.412,-16.2715,30,1.0225,8198,4.0645,-95.5268
rg,1625222849724136548,1,0.3486,-0.1782,0.9822,797,1.0986,-11.3525,16.4185,85,0.8784,0.5843,-25.4167,-16.3357,30,1.0215,8361,4.0645,-94.7962
rg,1625222849724153288,1,0.3416,-0.1824,0.9861,798,0.9766,-10.437,16.2964,85,0.8784,0.5853,-25.3691,-16.402,30,1.0225,8246,4.0645,-94.0801
rg,1625222849724171972,1,0.3328,-0.1755,0.9875,799,1.0376,-8.728,16.2354,85,0.8744,0.5853,-25.2411,-16.4347,30,1.0215,8355,4.0645,-93.3966
rg,1625222849724189971,1,0.3188,-0.1655,0.9893,800,0.8545,-8.7891,15.1978,85,0.8784,0.5853,-25.105,-16.4282,30,1.0215,8261,4.0645,-92.7679
rg,1625222850080183722,1,0.3274,-0.1636,0.9805,801,0.9766,-11.8408,16.6016,85,0.8794,0.5863,-25.0982,-16.4574,30,1.0215,24922,4.0645,-92.041
rg,1625222850080215017,1,0.325,-0.1685,0.9783,802,1.4038,-12.4512,16.2964,85,0.8794,0.5873,-25.1135,-16.4785,30,1.0215,10680,4.0645,-91.3146
rg,1625222850080235386,1,0.3306,-0.1726,0.9873,803,0.9766,-12.207,15.4419,85,0.8794,0.5873,-25.133,-16.5055,30,1.0215,7724,4.0645,-90.625
rg,1625222850080253903,1,0.3381,-0.1665,0.9814,804,1.8311,-11.7188,14.1602,85,0.8794,0.5883,-25.1682,-16.4611,30,1.0225,7829,4.0645,-90.0008
rg,1625222850080272124,1,0.3391,-0.1697,0.9836,805,1.0376,-12.6953,15.686,85,0.8794,0.5883,-25.2218,-16.4898,30,1.0215,7932,4.0645,-89.2963
rg,1625222850080289697,1,0.3413,-0.1726,0.9834,806,1.0376,-10.9253,15.4419,85,0.8794,0.5883,-25.2123,-16.5109,30,1.0215,7970,4.0645,-88.6218
rg,1625222850080306585,1,0.3384,-0.1616,0.9739,807,0.9155,-10.6201,15.2588,85,0.8804,0.5883,-25.1857,-16.4871,30,1.0215,7992,4.0645,-87.9506
rg,1625222850080368600,1,0.3328,-0.1567,0.9883,808,3.3569,-10.6812,15.7471,85,0.8804,0.5893,-25.1486,-16.3798,30,1.0215,8020,4.0645,-87.2833
rg,1625222850080386747,1,0.3315,-0.1619,0.9907,809,1.8921,-10.0098,15.8691,85,0.8804,0.5893,-25.0814,-16.3439,30,1.0215,10966,4.0645,-86.6133
rg,1625222850080403635,1,0.3271,-0.1682,0.9807,810,1.0376,-8.667,14.2212,85,0.8814,0.5893,-24.9806,-16.3244,30,1.0185,7987,4.0645,-86.0216
rg,1625222850080420967,1,0.3223,-0.1746,0.9885,811,1.0376,-11.0474,16.3574,85,0.8814,0.5893,-24.9148,-16.3485,30,1.0215,7878,4.0645,-85.3645
rg,1625222850080437892,1,0.3225,-0.1636,0.9893,812,1.8921,-10.6201,15.8081,85,0.8814,0.5883,-24.8634,-16.3168,30,1.0215,8296,4.0645,-84.6876
rg,1625222850080454447,1,0.3218,-0.1638,0.9839,813,0.9766,-11.5967,15.625,85,0.8814,0.5893,-24.8554,-16.3271,30,1.0165,7923,4.0645,-84.0047
rg,1625222850080470853,1,0.3276,-0.166,0.9868,814,0.9766,-13.0005,15.3198,85,0.8814,0.5903,-24.9283,-16.3647,30,1.0215,8063,4.0645,-83.2825
rg,1625222850080486926,1,0.3328,-0.1692,0.9883,815,1.0376,-13.9771,15.5029,85,0.8814,0.5883,-25.0278,-16.394,30,1.0215,7940,4.0645,-82.5703
rg,1625222850080503129,1,0.3333,-0.1729,0.9829,816,1.0376,-13.3667,15.3809,85,0.8824,0.5903,-25.1047,-16.4289,30,1.0215,7943,4.0645,-81.8665
rg,1625222850080519369,1,0.334,-0.1624,0.9846,817,0.9155,-12.146,14.4653,85,0.8824,0.5913,-25.1767,-16.4269,30,1.0215,8116,4.0645,-81.195
rg,1625222850080535553,1,0.3367,-0.1609,0.9875,818,1.8311,-12.0239,13.6719,85,0.8824,0.5903,-25.2225,-16.3631,30,1.0215,7959,4.0645,-80.5935
rg,1625222850080551774,1,0.3447,-0.1624,0.9766,819,0.9766,-12.3291,14.8926,85,0.8824,0.5913,-25.2879,-16.369,30,1.0205,13097,4.0645,-79.9318
rg,1625222850080567829,1,0.3459,-0.1692,0.98,820,1.0376,-11.9629,13.4888,85,0.8824,0.5913,-25.322,-16.367,30,1.0215,8184,4.0645,-79.3252
rg,1625222850080583939,1,0.3362,-0.168,0.9868,821,0.9766,-10.9253,15.1367,85,0.8834,0.5923,-25.3018,-16.3784,30,1.0215,8137,4.0645,-78.6674
rg,1625222850080600160,1,0.3284,-0.1611,0.9788,822,0.9155,-11.1084,13.7329,85,0.8824,0.5923,-25.2961,-16.3539,30,1.0215,8235,4.0645,-78.0728
rg,1625222850080627918,1,0.3276,-0.1648,0.9824,823,1.0376,-11.5967,14.3433,85,0.8834,0.5923,-25.2913,-16.3437,30,1.0215,8074,4.0645,-77.4439
rg,1625222850080645213,1,0.3252,-0.1677,0.9819,824,0.9766,-11.1694,15.3809,85,0.8834,0.5923,-25.26,-16.3619,30,1.0205,8587,4.0645,-76.7722
rg,1625222850080662249,1,0.3259,-0.1699,0.9878,825,0.9155,-11.5967,15.3198,85,0.8844,0.5923,-25.2439,-16.3854,30,1.0215,8900,4.0645,-76.0968
rg,1625222850080679285,1,0.3252,-0.1663,0.988,826,1.5869,-12.146,15.1978,85,0.8844,0.5933,-25.2499,-16.3731,30,1.0215,8194,4.0645,-75.4238
rg,1625222850080695969,1,0.3291,-0.1699,0.989,827,1.4038,-12.9395,15.3198,85,0.8844,0.5933,-25.2924,-16.3695,30,1.0215,8375,4.0645,-74.7378
rg,1625222850080712357,1,0.3318,-0.1604,0.9885,828,0.9766,-14.2822,16.8457,85,0.8844,0.5933,-25.3738,-16.4115,30,1.0215,8538,4.0645,-73.9732
rg,1625222850080729541,1,0.3394,-0.1714,0.9827,829,1.0376,-13.1226,15.3198,85,0.8834,0.5923,-25.4411,-16.4451,30,1.0215,10029,4.0645,-73.276
rg,1625222850080746503,1,0.3467,-0.1646,0.9766,830,1.0986,-12.3901,16.1743,85,0.8844,0.5933,-25.4883,-16.4747,30,1.0215,8299,4.0645,-72.5576
rg,1625222850080763798,1,0.3474,-0.1626,0.9717,831,1.4038,-10.2539,15.8691,85,0.8844,0.5943,-25.4606,-16.4715,30,1.0215,8617,4.0645,-71.8807
rg,1625222850080780631,1,0.3408,-0.1641,0.9895,832,0.9155,-9.3994,16.4185,85,0.8854,0.5943,-25.3428,-16.4856,30,1.0215,8355,4.0645,-71.2181
rg,1625222850434280134,1,0.3203,-0.1716,0.9861,833,2.5635,-9.8267,15.564,85,0.8864,0.5933,-25.2415,-16.4382,30,1.0205,25229,4.0645,-70.5544
rg,1625222850434334279,1,0.3354,-0.1709,0.9875,834,1.8921,-11.7798,16.2964,85,0.8864,0.5943,-25.2406,-16.4414,30,1.0215,14343,4.0645,-69.8349
rg,1625222850434356370,1,0.3289,-0.1687,0.9868,835,2.8076,-10.6812,15.9912,85,0.8864,0.5943,-25.2261,-16.479,30,1.0205,7707,4.0645,-69.1056
rg,1625222850434379183,1,0.3267,-0.1699,0.9934,836,2.6245,-10.0708,15.0757,85,0.8874,0.5953,-25.153,-16.414,30,1.0205,7831,4.0645,-68.4624
rg,1625222850434398034,1,0.3237,-0.1677,0.9912,837,2.0752,-10.8032,16.2354,85,0.8874,0.5953,-25.0941,-16.3931,30,1.0215,7758,4.0645,-67.7619
rg,1625222850434416181,1,0.3306,-0.1738,0.9961,838,2.6855,-12.3291,16.4795,85,0.8874,0.5953,-25.1026,-16.3734,30,1.0215,7935,4.0645,-67.0262
rg,1625222850434433939,1,0.3337,-0.1672,0.9863,839,2.9297,-12.6343,17.4561,85,0.8874,0.5953,-25.1438,-16.3342,30,1.0215,8002,4.0623,-66.2579
rg,1625222850434451975,1,0.3357,-0.1624,0.9885,840,2.8076,-12.085,17.2119,90,0.8884,0.5943,-25.1513,-16.3016,30,1.0215,7944,4.0623,-65.5032
rg,1625222850434469159,1,0.3318,-0.1677,0.9851,841,1.0376,-11.6577,16.1743,90,0.8884,0.5943,-25.1469,-16.3335,30,1.0215,11843,4.0623,-64.7917
rg,1625222850434486029,1,0.3384,-0.165,0.9802,842,2.1362,-13.0005,16.3574,90,0.8884,0.5943,-25.209,-16.3275,30,1.0205,7952,4.0623,-64.0574
rg,1625222850434502769,1,0.3462,-0.1592,0.9788,843,1.5869,-12.9395,17.7002,90,0.8894,0.5953,-25.2691,-16.3561,30,1.0215,7871,4.0623,-63.272
rg,1625222850434520230,1,0.3489,-0.1624,0.9734,844,0.9766,-10.6812,17.334,90,0.8894,0.5943,-25.2528,-16.3995,30,1.0215,8046,4.0623,-62.5266
rg,1625222850434537229,1,0.3386,-0.1738,0.9773,845,0.9155,-9.5825,17.2119,90,0.8894,0.5943,-25.1698,-16.4592,30,1.0215,7921,4.0623,-61.7906
rg,1625222850434556247,1,0.3286,-0.1748,0.9849,846,1.77,-8.5449,16.2964,90,0.8894,0.5953,-25.035,-16.457,30,1.0205,10147,4.0623,-61.1084
rg,1625222850434574579,1,0.3325,-0.1741,0.9866,847,1.0376,-10.3149,16.6626,90,0.8904,0.5973,-24.9758,-16.4966,30,1.0215,7875,4.0623,-60.3893
rg,1625222850434592208,1,0.3318,-0.166,0.9866,848,2.0142,-10.1929,16.2354,90,0.8894,0.5963,-24.9192,-16.4678,30,1.0205,8246,4.0623,-59.6983
rg,1625222850434609429,1,0.3296,-0.1638,0.9822,849,1.0986,-10.3149,16.5405,90,0.8904,0.5973,-24.8651,-16.4787,30,1.0185,7983,4.0623,-58.9941
rg,1625222850434626206,1,0.3269,-0.1631,0.9841,850,1.77,-9.5825,15.4419,90,0.8904,0.5983,-24.7912,-16.4353,30,1.0215,8145,4.0623,-58.347
rg,1625222850434644167,1,0.3357,-0.1624,0.9849,851,2.0752,-10.9863,16.4185,90,0.8904,0.5983,-24.7807,-16.4044,30,1.0205,8042,4.0623,-57.6408
rg,1625222850434661259,1,0.3381,-0.1602,0.9856,852,1.0376,-10.8032,17.2729,90,0.8904,0.5983,-24.759,-16.4248,30,1.0205,8211,4.0623,-56.9026
rg,1625222850434717515,1,0.3347,-0.1587,0.9861,853,2.3804,-8.9111,17.5781,90,0.8904,0.5983,-24.6556,-16.3817,30,1.0205,8062,4.0623,-56.1773
rg,1625222850434741328,1,0.3333,-0.1567,0.991,854,2.1973,-8.4229,17.334,90,0.8914,0.5993,-24.5352,-16.3326,30,1.0205,8257,4.0623,-55.4707
rg,1625222850434760123,1,0.3259,-0.1614,0.9824,855,1.4648,-7.4463,16.3574,90,0.8914,0.5983,-24.3833,-16.3044,30,1.0205,8122,4.0623,-54.8112
rg,1625222850434778900,1,0.3142,-0.166,0.9915,856,0.9155,-8.9111,16.9678,90,0.8924,0.5993,-24.2559,-16.3215,30,1.0205,8294,4.0623,-54.1049
