name,time,activity,ax,ay,az,batch_val,gx,gy,gz,ibat,index,middle,pitch,roll,temp,thumb,ts,vbat,yaw
lg,1624568650061191281,0,-0.2161,-0.2034,1.0588,1,0.4883,40.3442,15.2588,60,1.3176,1.3126,12.2432,-9.0433,32,0.07,20148,3.8346,83.0602
lg,1624568650061238537,0,-0.3359,-0.1814,1.0405,2,2.4414,41.5649,19.104,60,1.3166,1.3126,14.2085,-8.8595,32,0.069,8478,3.8346,83.5629
lg,1624568650061259147,0,-0.4309,-0.1746,1.0332,3,1.8921,34.9121,18.1885,60,1.3156,1.3126,15.5307,-8.6846,33,0.07,8276,3.8346,84.1371
lg,1624568650061278312,0,-0.4341,-0.1487,1.0342,4,-0.4883,6.0425,20.9961,60,1.3146,1.3136,16.1674,-8.4568,33,0.07,8306,3.8346,84.9695
lg,1624568650061296274,0,0.1794,-0.7405,0.834,5,4.4556,-32.7148,27.6489,151,1.1185,1.2586,14.1753,-9.1938,32,0.055,14678,3.7554,85.9596
lg,1624568650061314829,0,0.2622,-0.7202,0.8855,6,9.0332,-18.9209,4.0283,151,1.1416,1.2586,12.4929,-9.896,32,0.053,8529,3.7554,85.9782
lg,1624568650061334531,0,0.2163,-0.7344,0.8391,7,9.5215,-9.2163,-10.9863,151,1.1526,1.2556,11.7072,-11.1528,32,0.052,8662,3.7554,84.7012
lg,1624568650061353974,0,0.1016,-0.8154,0.7224,8,9.5825,12.085,-28.3813,151,1.1476,1.2486,11.3705,-12.412,32,0.053,8312,3.7554,83.1861
lg,1624568650061372214,0,0.0334,-0.7708,0.7205,9,16.7236,43.2129,-28.7476,151,1.1326,1.2356,12.3492,-13.3714,32,0.045,8746,3.7554,81.3881
lg,1624568650061391027,0,-0.0645,-0.75,0.71,10,18.0054,63.8428,-15.5029,151,1.1255,1.2176,14.4,-14.2121,32,0.047,10224,3.7554,79.8687
lg,1624568650061409619,0,0.0203,-0.6609,0.7422,11,14.7095,48.3398,12.207,151,1.1316,1.2016,15.838,-14.7069,32,0.05,8777,3.7554,79.5875
lg,1624568650061427821,0,0.0681,-0.6387,0.7637,12,10.1929,42.4194,22.0337,151,1.1376,1.1906,16.9866,-15.1777,32,0.053,8066,3.7554,79.7443
lg,1624568650061445394,0,-0.0159,-0.7485,0.8076,13,4.0283,45.9595,29.8462,151,1.1416,1.1836,18.5085,-15.9076,32,0.053,8805,3.7554,80.111
lg,1624568650061462652,0,-0.1577,-0.6912,0.8311,14,2.3193,36.0718,37.9639,151,1.1446,1.1826,19.9639,-16.4032,33,0.057,8832,3.7554,80.9234
lg,1624568650061479855,0,-0.2344,-0.6187,0.8792,15,-6.897,2.8687,46.936,151,1.1476,1.1866,20.3408,-16.7836,33,0.056,8117,3.7554,82.5457
lg,1624568650061496595,0,-0.2205,-0.6082,0.8311,16,-12.3291,-22.8271,49.9268,151,1.1486,1.1966,19.7674,-17.2606,33,0.055,8521,3.7554,84.591
lg,1624568650061514260,0,-0.1931,-0.6829,0.8315,17,-31.0669,-62.1948,57.9224,151,1.1456,1.2086,17.7874,-18.3733,33,0.054,8913,3.7554,87.4275
lg,1624568650061531870,0,-0.0129,-0.7036,0.7771,18,-42.8467,-95.459,69.5801,151,1.1306,1.2206,14.493,-19.9032,33,0.054,8908,3.7554,91.1841
lg,1624568650061548851,0,0.0679,-0.718,0.7651,19,-45.4712,-76.7212,70.6787,151,1.0985,1.2276,11.9728,-21.7496,33,0.049,8581,3.7554,94.7988
lg,1624568650061566553,0,-0.002,-0.7817,0.7566,20,-44.0063,-57.6782,66.9556,151,1.0605,1.2286,10.1337,-23.2683,33,0.047,8598,3.7554,98.1404
lg,1624568650061583682,0,0.1074,-0.498,0.7478,21,-28.6255,-48.4009,25.2686,151,1.0555,1.2246,8.1224,-24.54,33,0.049,8959,3.7554,99.8068
lg,1624568650061601773,0,0.0071,-0.7539,1.0515,22,-29.541,-51.5747,22.2168,151,1.0505,1.2236,6.3139,-25.9376,33,0.048,8241,3.7554,101.4473
lg,1624568650061619365,0,0.0193,-0.7634,0.6487,23,-18.6157,-41.2598,2.9907,151,1.0505,1.2246,4.6256,-27.5074,33,0.049,9006,3.7554,102.2047
lg,1624568650061637401,0,0.0188,-0.793,0.7581,24,-10.8643,-16.6016,5.7983,151,1.0525,1.2276,3.8602,-28.5821,33,0.049,8713,3.7554,102.6707
lg,1624568650061655122,0,0.0862,-0.7319,0.7429,25,2.6855,0.9766,14.8315,151,1.0535,1.2306,3.8462,-29.0588,32,0.049,9426,3.7554,103.1311
lg,1624568650061672306,0,0.0911,-0.7112,0.729,26,4.8218,18.4326,14.9536,151,1.0555,1.2326,4.43,-29.4428,32,0.049,8286,3.7554,103.2524
lg,1624568650061794946,0,0.0117,-0.7063,0.7356,27,11.7188,33.3862,15.1367,151,1.0565,1.2346,5.6884,-29.5457,32,0.049,8358,3.7554,103.0752
lg,1624568650061814426,0,-0.0657,-0.7092,0.7578,28,15.2588,37.3535,15.8081,151,1.0625,1.2386,7.3756,-29.3729,32,0.052,9306,3.7554,102.8169
lg,1624568650061833703,0,-0.0737,-0.7014,0.7695,29,18.9209,29.7241,13.7939,151,1.0845,1.2446,8.5519,-29.1382,33,0.054,11688,3.7554,102.6481
lg,1624568650061851683,0,-0.0227,-0.7236,0.8069,30,16.9067,14.4043,6.958,151,1.1115,1.2486,8.9043,-28.9692,33,0.052,9113,3.7554,102.5342
lg,1624568650061869886,0,0.0518,-0.7266,0.7856,31,17.5171,8.7891,2.6245,151,1.1366,1.2486,8.5462,-28.7952,33,0.054,9541,3.7554,102.0685
lg,1624568650061889588,0,0.0334,-0.7522,0.7241,32,18.7988,9.0942,-14.5874,151,1.1496,1.2446,8.2675,-28.8967,32,0.049,9197,3.7554,101.2617
lg,1624568650436864669,0,-0.0134,-0.7905,0.74,33,13.3057,35.0952,-9.7656,151,1.1516,1.2296,9.0146,-29.2239,32,0.046,27155,3.7554,100.1233
lg,1624568650436921647,0,-0.0908,-0.6892,0.8101,34,3.1128,19.4702,17.9443,151,1.1576,1.2186,9.8827,-29.4959,32,0.047,20012,3.7554,100.2997
lg,1624568650436955886,0,-0.1689,-0.7087,0.8652,35,-5.4321,0.6714,26.1841,151,1.1596,1.2166,10.3765,-29.9338,32,0.054,7957,3.7554,101.1433
lg,1624568650436989254,0,-0.1387,-0.7385,0.8599,36,-15.5029,-35.4004,32.6538,151,1.1656,1.2206,9.687,-30.6441,32,0.056,9900,3.7554,102.9395
lg,1624568650437022085,0,-0.0767,-0.6892,0.7812,37,-16.2964,-50.9644,36.9263,151,1.1706,1.2276,8.4949,-31.3439,32,0.057,7937,3.7554,105.2158
lg,1624568650437053306,0,-0.0303,-0.7078,0.8196,38,-24.9634,-54.1382,38.147,151,1.1726,1.2366,7.1985,-32.3718,32,0.055,8178,3.7554,107.6262
lg,1624568650437082248,0,0.0476,-0.7571,0.7073,39,-26.6724,-71.0449,41.748,151,1.1636,1.2466,5.3559,-33.6767,32,0.055,8662,3.7554,110.5266
lg,1624568650437112469,0,0.1409,-0.73,0.7126,40,-26.8555,-65.1245,43.9453,151,1.1376,1.2506,3.7194,-34.9419,32,0.051,8373,3.7554,113.4215
lg,1624568650437143189,0,0.0176,-0.7036,0.6736,41,-26.2451,-22.9492,36.5601,151,1.0995,1.2516,3.6419,-36.3146,33,0.05,8088,3.7554,115.1213
lg,1624568650437171909,0,-0.05,-0.5103,0.677,42,-16.7236,-15.4419,-1.8921,151,1.0965,1.2486,3.0924,-36.9818,33,0.049,8405,3.7554,115.4298
lg,1624568650437200389,0,-0.4368,-0.7019,0.644,43,-13.6719,-11.4746,-21.1182,151,1.0905,1.2466,2.5117,-37.637,33,0.048,8425,3.7554,116.342
lg,1624568650437230683,0,-0.0747,-0.7456,0.7148,44,-8.8501,-32.3486,6.5308,151,1.0895,1.2476,1.7219,-38.2815,33,0.048,12864,3.7554,117.3315
lg,1624568650437260496,0,-0.0488,-0.7012,0.7703,45,5.9814,-0.6714,16.9678,151,1.0895,1.2506,2.1584,-38.1742,32,0.048,9516,3.7554,117.8763
lg,1624568650437289587,0,0.041,-0.665,0.6953,46,2.8076,-10.6812,19.2871,151,1.0905,1.2526,2.1193,-38.2396,32,0.05,8826,3.7554,118.7389
lg,1624568650437318511,0,0.0356,-0.6982,0.7388,47,1.2207,-7.5073,18.6768,151,1.0915,1.2556,2.1866,-38.3171,32,0.05,8497,3.7554,119.5054
lg,1624568650437348194,0,0.0244,-0.6995,0.7705,48,8.728,7.5684,25.6348,151,1.0945,1.2576,2.9169,-38.087,33,0.051,8893,3.7554,120.1165
lg,1624568650437377489,0,0.0688,-0.6982,0.7651,49,12.8174,5.0049,27.0386,151,1.1015,1.2606,3.4719,-37.6955,33,0.052,9074,3.7554,120.8368
lg,1624568650437406357,0,0.0632,-0.7622,0.751,50,12.2681,4.4556,16.7847,151,1.1145,1.2636,3.7512,-37.4757,33,0.054,8734,3.7554,121.2406
lg,1624568650437434633,0,0.0095,-0.7361,0.8345,51,13.1836,9.1553,11.1694,151,1.1376,1.2666,4.0394,-37.0835,33,0.056,8238,3.7554,121.0329
lg,1624568650437463150,0,0.0154,-0.7358,0.8469,52,14.0991,11.1694,-6.5918,151,1.1576,1.2656,4.0453,-36.7006,32,0.054,8246,3.7554,120.5409
lg,1624568650437492741,0,-0.0393,-0.7844,0.7349,53,13.0615,1.6479,-22.2168,151,1.1666,1.2616,3.4919,-36.6217,32,0.048,8286,3.7554,119.7598
lg,1624568650437522739,0,-0.0063,-0.8088,0.7314,54,11.2915,3.2959,-26.062,151,1.1536,1.2496,2.8521,-36.657,32,0.047,8390,3.7554,118.8174
lg,1624568650437552829,0,-0.0168,-0.8154,0.7134,55,8.1177,9.4604,-28.9917,151,1.1356,1.2316,2.3968,-36.9271,32,0.042,8704,3.7554,117.6346
lg,1624568650437582198,0,-0.0215,-0.7495,0.623,56,8.8501,11.3525,-8.9111,151,1.1296,1.2126,2.5002,-37.1125,32,0.048,8330,3.7554,117.054
lg,1624568650437610455,0,0.0955,-0.7178,0.7395,57,1.6479,6.1646,26.4282,151,1.1326,1.2046,3.0267,-37.2812,32,0.049,8800,3.7554,117.7341
lg,1624568650437639472,0,0.0974,-0.7502,0.7727,58,-2.9907,17.8223,50.8423,151,1.1366,1.2066,4.5016,-37.5849,32,0.056,9161,3.7554,118.9007
lg,1624568650437776611,0,-0.2485,-0.677,0.8713,59,2.0142,37.0483,47.8516,151,1.1416,1.2146,7.1578,-37.4423,32,0.055,9460,3.7554,119.5157
lg,1624568650437848422,0,-0.322,-0.6284,0.8188,60,-2.6245,8.5449,55.4199,151,1.1456,1.2236,8.3641,-37.5799,32,0.057,9473,3.7554,122.0856
lg,1624568650437882494,0,-0.3579,-0.6526,0.8232,61,-24.1089,-50.293,66.9556,151,1.1406,1.2326,8.8336,-38.0569,32,0.047,9121,3.7554,125.4677
lg,1624568650437913732,0,-0.1902,-0.7231,0.844,62,-40.7104,-104.4312,78.0029,151,1.1225,1.2406,7.5594,-39.0442,32,0.05,9170,3.7554,130.548
lg,1624568650437945471,0,0.116,-0.7996,0.7693,63,-43.2739,-122.9858,90.332,151,1.0935,1.2456,5.5701,-40.3577,33,0.042,9243,3.7554,136.4753
lg,1624568650437975265,0,0.5308,-0.7285,0.6672,64,-29.6631,-93.9941,44.1895,151,1.0875,1.2456,2.6396,-41.509,33,0.043,10550,3.7554,140.271
lg,1624568650820619452,0,-0.0264,-0.7129,0.6926,65,12.146,69.397,-26.3672,151,1.0895,1.2496,3.968,-41.3371,32,0.048,28073,3.7554,137.6291
lg,1624568650820655986,0,-0.3647,-0.5732,0.6499,66,25.3906,69.7632,-4.0894,151,1.0955,1.2566,6.6905,-40.4988,32,0.046,15891,3.7554,135.6731
lg,1624568650820676670,0,-0.2986,-0.584,0.8127,67,15.3198,32.7759,12.7563,151,1.1045,1.2606,8.4064,-39.754,32,0.048,7965,3.7554,135.2376
lg,1624568650820696373,0,-0.1938,-0.6772,0.8477,68,11.4746,7.1411,18.7378,151,1.1185,1.2646,8.2697,-39.277,33,0.048,8734,3.7554,136.0945
lg,1624568650820715723,0,-0.0103,-0.7224,0.853,69,7.3242,-22.0947,12.085,151,1.1366,1.2676,7.584,-38.8847,33,0.046,7932,3.7554,137.0307
lg,1624568650820733574,0,0.0198,-0.73,0.885,70,0.6104,-31.311,-2.2583,151,1.1546,1.2696,6.2169,-38.7893,33,0.051,8046,3.7554,137.7501
lg,1624568650820752091,0,0.0325,-0.7573,0.7659,71,0.5493,-45.0439,-19.5312,151,1.1686,1.2676,4.0176,-38.9449,33,0.053,10267,3.7554,138.2538
lg,1624568650820770460,0,0.0486,-0.7593,0.7644,72,-3.418,-31.4331,-25.1465,151,1.1636,1.2606,2.152,-39.303,32,0.047,9236,3.7554,138.2548
lg,1624568650820788330,0,0.0088,-0.8022,0.7114,73,-4.4556,-24.7192,-26.3062,151,1.1566,1.2536,0.6512,-39.9641,32,0.048,8796,3.7554,138.0603
lg,1624568650820806810,0,-0.0576,-0.7947,0.5923,74,2.5024,-5.8594,0.9766,151,1.1596,1.2526,0.6046,-40.3752,32,0.055,8119,3.7554,138.2357
lg,1624568650820825420,0,0.0854,-0.7886,0.6714,75,-8.667,-4.0894,46.2036,151,1.1706,1.2576,1.4753,-41.0463,32,0.056,7971,3.7554,139.738
lg,1624568650820843400,0,0.0759,-0.7144,0.7478,76,-9.8267,8.3618,53.894,151,1.1786,1.2626,3.1445,-41.3072,32,0.056,8092,3.7554,141.1395
lg,1624568650820860955,0,-0.1555,-0.7402,0.7915,77,-10.9253,17.6392,64.8193,151,1.1676,1.2666,5.5843,-41.6902,32,0.049,8142,3.7554,142.6092
lg,1624568650820878120,0,-0.3647,-0.7139,0.7646,78,-20.813,-4.2114,80.4443,151,1.1366,1.2686,8.1434,-42.2597,32,0.047,8115,3.7554,145.1211
lg,1624568650820895138,0,-0.3367,-0.658,0.8423,79,-32.1045,-32.7759,86.3037,151,1.1135,1.2646,9.0693,-42.1366,32,0.045,8177,3.7554,148.7189
lg,1624568650820912803,0,-0.0325,-0.718,0.7529,80,-40.7715,-103.6377,48.7671,151,1.1005,1.2586,7.0699,-43.2103,33,0.042,8996,3.7554,153.0009
lg,1624568650820931117,0,0.614,-0.9028,0.7593,81,-32.959,-124.6338,53.9551,151,1.0955,1.2536,3.6943,-44.28,33,0.044,9859,3.7554,158.0095
lg,1624568650820948283,0,0.4856,-1.002,0.6326,82,-15.625,-1.0986,8.3008,151,1.0955,1.2536,2.9067,-45.3678,33,0.044,8621,3.7554,158.2518
lg,1624568650820965152,0,0.2007,-0.7986,0.6257,83,24.5972,96.9849,9.1553,151,1.0985,1.2546,5.3357,-44.8102,32,0.044,9062,3.7554,155.7337
lg,1624568650820982891,0,-0.0176,-0.6541,0.6169,84,31.1279,126.5869,6.1035,151,1.1025,1.2576,8.932,-44.0539,32,0.048,9039,3.7554,152.3231
lg,1624568650821000890,0,-0.1848,-0.7092,0.6926,85,28.8696,126.1597,4.5776,151,1.1115,1.2616,12.3469,-43.5998,32,0.048,9106,3.7554,149.2044
lg,1624568650821018260,0,-0.2429,-0.7219,0.6804,86,27.5879,97.0459,3.1128,151,1.1225,1.2666,15.2883,-43.2455,32,0.048,8709,3.7554,146.5196
lg,1624568650821035758,0,-0.313,-0.6594,0.7756,87,28.1372,68.4204,9.3994,151,1.1366,1.2716,17.6061,-42.4669,33,0.051,9098,3.7554,144.8943
lg,1624568650821052868,0,-0.0974,-0.689,0.7996,88,14.5264,-6.5918,10.437,151,1.1636,1.2766,17.2022,-41.6542,33,0.045,14611,3.7554,145.4244
lg,1624568650821069960,0,0.0156,-0.771,0.7505,89,7.019,-26.2451,-9.3384,151,1.1746,1.2776,15.4686,-41.4123,33,0.049,8781,3.7554,145.8103
lg,1624568650821087996,0,0.0569,-0.8118,0.7263,90,8.7891,-13.3057,-21.4844,151,1.1656,1.2706,13.7858,-41.4045,32,0.047,10026,3.7554,145.437
lg,1624568650821105310,0,0.0547,-0.8064,0.7415,91,10.9863,1.9531,-24.8413,151,1.1496,1.2596,13.1553,-41.3952,32,0.047,9135,3.7554,144.1375
lg,1624568650821122031,0,-0.031,-0.7725,0.6904,92,16.2354,31.189,-15.564,151,1.1446,1.2516,13.2259,-41.3172,32,0.045,9552,3.7554,142.747
lg,1624568650821139270,0,-0.135,-0.7249,0.6321,93,13.0615,34.9731,11.0474,151,1.1476,1.2496,14.2584,-41.0799,32,0.053,10704,3.8016,142.1039
lg,1624568650821156380,0,-0.1084,-0.7393,0.7637,94,-3.2959,11.9019,42.4805,78,1.1566,1.2536,15.395,-41.0665,32,0.048,9188,3.8016,143.0737
lg,1624568650821261040,0,-0.2031,-0.696,0.8582,95,-6.7139,11.2305,47.9736,78,1.1626,1.2596,16.7892,-40.9087,32,0.049,9523,3.8016,144.295
lg,1624568650821282946,0,-0.3796,-0.6189,0.844,96,-10.7422,-12.6953,53.3447,78,1.1596,1.2636,17.9198,-40.5353,32,0.045,8862,3.8016,146.391
lg,1624568651186479015,0,0.1416,-0.8118,0.7676,97,-42.5415,-123.6572,54.3213,78,1.1185,1.2716,14.6503,-41.0435,32,0.044,28926,3.8016,151.4012
lg,1624568651186514384,0,0.229,-0.8765,0.5984,98,-13.0005,-37.1094,14.5264,78,1.1135,1.2716,12.917,-41.7815,32,0.047,13426,3.8016,152.7221
lg,1624568651186535086,0,0.2759,-0.7776,0.7573,99,-2.3193,5.4321,9.0332,78,1.1135,1.2696,12.2804,-41.993,33,0.049,8163,3.8016,152.8148
lg,1624568651186554511,0,0.0969,-0.8008,0.6736,100,5.9814,49.8657,-6.5918,78,1.1145,1.2696,12.8889,-42.4071,33,0.048,8005,3.8016,151.1731
lg,1624568651186626840,0,0.0188,-0.8013,0.6794,101,12.6343,64.6362,-8.2397,78,1.1155,1.2696,14.0155,-42.6658,33,0.05,7974,3.8016,149.0577
lg,1624568651186649098,0,-0.1445,-0.7185,0.6108,102,23.5596,81.0547,-8.1787,78,1.1165,1.2716,15.9554,-42.6501,33,0.048,8042,3.8016,146.4625
lg,1624568651186667782,0,-0.3064,-0.6016,0.6646,103,31.5552,82.1533,2.6855,78,1.1195,1.2746,18.5535,-42.0239,33,0.048,8216,3.8016,144.2315
lg,1624568651186686559,0,-0.355,-0.5955,0.6909,104,30.1514,67.1387,8.3008,78,1.1266,1.2776,20.7965,-41.2061,33,0.053,8347,3.8016,142.6482
lg,1624568651186704187,0,-0.269,-0.6399,0.7852,105,20.1416,10.8032,8.9111,78,1.1416,1.2816,21.1157,-40.3141,33,0.052,8067,3.8016,142.665
lg,1624568651186721816,0,-0.1016,-0.6902,0.8623,106,12.6953,-28.3813,-2.4414,78,1.1646,1.2846,19.5623,-39.4875,33,0.052,8076,3.8016,143.3871
lg,1624568651186739204,0,-0.0415,-0.7039,0.8416,107,10.2539,-40.8936,-11.1084,78,1.1806,1.2856,16.7989,-39.1332,33,0.052,8462,3.8016,144.0291
lg,1624568651186758202,0,0.0369,-0.7695,0.7883,108,5.7983,-51.6357,-23.0713,78,1.1806,1.2826,13.8937,-38.9445,33,0.046,8164,3.8016,144.578
lg,1624568651186776312,0,0.0415,-0.7705,0.6768,109,6.0425,-37.1094,-27.0996,78,1.1706,1.2756,11.9701,-39.0596,33,0.037,12655,3.8016,144.3772
lg,1624568651186793997,0,0.0281,-0.7197,0.6702,110,7.3853,-7.9346,-13.3057,78,1.1646,1.2706,10.8582,-39.1197,33,0.041,8181,3.8016,144.0951
lg,1624568651186811310,0,0.0337,-0.803,0.8381,111,-6.1035,3.6011,16.4185,78,1.1666,1.2696,10.8915,-39.4606,33,0.048,8135,3.8016,144.4854
lg,1624568651186829032,0,0.0349,-0.7898,0.7556,112,-4.4556,13.6719,28.9917,78,1.1736,1.2726,11.5498,-39.7948,33,0.05,8164,3.8016,144.9878
lg,1624568651186846160,0,-0.0898,-0.7229,0.7993,113,-1.709,30.0293,33.3252,78,1.1826,1.2786,13.0497,-39.8917,33,0.053,8245,3.8016,145.2263
lg,1624568651186864363,0,-0.282,-0.6345,0.874,114,-8.3618,18.3716,45.105,78,1.1786,1.2836,14.8267,-39.8335,33,0.049,9207,3.8016,146.2017
lg,1624568651186881640,0,-0.353,-0.7673,0.9138,115,-32.4097,-45.3491,45.6543,78,1.1526,1.2876,14.6856,-40.4473,33,0.045,8602,3.8016,148.8557
lg,1624568651186899675,0,0.1245,-0.6387,0.9041,116,-50.4761,-112.9761,45.4102,78,1.1346,1.2866,11.6553,-41.2254,33,0.046,8307,3.8016,153.3639
lg,1624568651186917323,0,-0.1658,-0.853,0.4194,117,-42.1143,-117.3096,10.7422,78,1.1316,1.2856,8.407,-42.9077,33,0.044,8310,3.8016,154.664
lg,1624568651186934951,0,0.1013,-0.8323,0.8555,118,-25.5737,-71.2891,-2.0752,78,1.1296,1.2846,5.7657,-43.7333,32,0.046,8691,3.8016,156.5754
lg,1624568651186952376,0,0.1384,-0.7473,0.5066,119,-14.0991,-47.9126,-21.8506,78,1.1286,1.2856,3.227,-44.703,32,0.047,8340,3.8016,157.2488
lg,1624568651186997966,0,-0.0049,-0.7214,0.6433,120,11.4746,22.7661,-7.2021,78,1.1286,1.2866,3.5534,-44.4262,32,0.046,8324,3.8016,156.3941
lg,1624568651187020335,0,-0.2009,-0.6609,0.5833,121,16.5405,44.1895,0.9766,78,1.1286,1.2886,5.6018,-44.005,32,0.046,9100,3.8016,155.1766
lg,1624568651187119329,0,-0.1997,-0.6167,0.6523,122,14.0991,38.0249,17.0898,78,1.1306,1.2906,7.4396,-43.4715,32,0.047,9093,3.8016,154.617
lg,1624568651187143161,0,0.0432,-0.7527,0.803,123,5.249,4.3945,34.1797,78,1.1356,1.2946,8.1196,-43.1192,32,0.049,9467,3.8016,155.4981
lg,1624568651187164567,0,0.2117,-0.866,0.7417,124,7.6904,-5.7983,29.7852,78,1.1436,1.2966,8.0379,-42.9038,32,0.05,9099,3.8016,156.4995
lg,1624568651187183381,0,0.1462,-0.8086,0.7207,125,14.0381,15.1367,17.395,78,1.1536,1.2976,8.336,-42.5329,33,0.054,9122,3.8016,156.5667
lg,1624568651187201398,0,0.1057,-0.7073,0.7776,126,15.9912,25.5127,9.4604,78,1.1686,1.2986,8.7873,-41.9365,33,0.054,9140,3.8016,156.1528
lg,1624568651187221267,0,0.0532,-0.6912,0.7764,127,16.9067,25.2075,5.188,78,1.1836,1.2966,8.9108,-41.3402,33,0.051,9147,3.8016,155.2428
lg,1624568651187255117,0,-0.0017,-0.7412,0.7463,128,16.2964,26.7334,-14.7095,78,1.1846,1.2906,8.975,-40.9996,33,0.048,9224,3.8016,154.0589
lg,1624568651560888213,0,-0.1252,-0.813,0.6614,129,9.4604,26.062,-10.498,78,1.1486,1.2506,9.3981,-41.166,32,0.042,27803,3.8016,152.983
lg,1624568651560925970,0,-0.0154,-0.7246,0.7983,130,1.6479,13.0005,27.5879,78,1.1536,1.2396,10.1718,-41.0484,32,0.048,13601,3.8016,153.4708
lg,1624568651560946339,0,-0.0708,-0.7659,0.7849,131,-5.0659,4.2725,36.8042,78,1.1596,1.2376,11.0091,-41.1844,32,0.051,8080,3.8016,154.4606
lg,1624568651560966486,0,-0.2141,-0.6863,0.7993,132,-7.7515,-6.2866,41.9312,78,1.1696,1.2416,11.9405,-41.1719,32,0.051,8747,3.8016,155.9218
lg,1624568651560986096,0,-0.2261,-0.6724,0.7844,133,-12.5122,-27.4048,48.2788,78,1.1756,1.2486,12.4031,-41.1685,32,0.049,7987,3.8016,158.1531
lg,1624568651561005373,0,-0.238,-0.7383,0.8645,134,-31.1279,-64.7583,54.2603,78,1.1706,1.2566,11.8798,-41.6537,32,0.044,8055,3.8016,161.5793
lg,1624568651561052278,0,-0.0786,-0.7905,0.7656,135,-40.7104,-109.2529,57.8003,78,1.1496,1.2656,9.8945,-42.5443,32,0.044,8814,3.8016,166.2788
lg,1624568651561071369,0,0.4417,-0.606,0.8904,136,-36.7432,-106.8726,56.4575,78,1.1276,1.2686,7.1006,-43.0116,32,0.043,8686,3.8016,170.9473
lg,1624568651561089757,0,0.4541,-0.5901,0.6589,137,-25.0244,-83.8013,15.7471,78,1.1266,1.2716,3.832,-43.695,32,0.045,8053,3.8016,-186.2669
lg,1624568651561119199,0,0.3149,-0.9097,0.8374,138,-15.686,-21.6675,14.7095,78,1.1245,1.2726,2.9154,-44.3913,32,0.044,8076,3.8016,-185.2453
lg,1624568651561138587,0,0.1875,-0.7703,0.5876,139,-2.9907,-7.8125,-2.1362,78,1.1235,1.2736,2.9561,-44.6247,32,0.047,8218,3.8016,-186.7063
lg,1624568651561157734,0,0.0549,-0.772,0.7234,140,10.437,69.6411,-12.2681,78,1.1235,1.2746,4.3516,-44.4334,32,0.047,8166,3.8016,170.9772
lg,1624568651561175844,0,-0.2004,-0.6931,0.657,141,19.4092,91.5527,-3.1128,78,1.1235,1.2756,7.169,-43.9966,32,0.049,8139,3.8016,168.3123
lg,1624568651561193899,0,-0.208,-0.6589,0.6628,142,16.7847,62.8662,15.5029,78,1.1215,1.2766,9.6137,-43.5394,32,0.049,8195,3.8016,167.0002
lg,1624568651561211212,0,-0.1772,-0.6714,0.688,143,14.8926,49.6216,25.8789,78,1.1225,1.2786,11.7896,-43.0796,32,0.052,8188,3.8016,166.373
lg,1624568651561229637,0,-0.0232,-0.6819,0.7761,144,15.1367,20.2026,31.4331,78,1.1266,1.2826,12.8156,-42.3115,32,0.052,8219,3.8016,166.7677
lg,1624568651561247766,0,0.1255,-0.7654,0.7671,145,11.4136,-2.7466,19.2871,78,1.1356,1.2856,12.4936,-41.8076,32,0.047,8245,3.8016,167.4027
lg,1624568651561265765,0,0.1211,-0.7991,0.8113,146,11.2305,-0.4883,10.8032,78,1.1526,1.2886,12.041,-41.3882,33,0.047,8247,3.8016,167.7197
lg,1624568651561283079,0,0.0933,-0.7458,0.8733,147,14.5264,10.9863,-3.1128,78,1.1716,1.2896,11.6344,-40.8438,33,0.05,8274,3.8016,167.333
lg,1624568651561300707,0,-0.074,-0.781,0.7424,148,15.564,20.5688,-29.541,78,1.1826,1.2856,11.1776,-40.7279,33,0.052,8326,3.8016,165.8274
lg,1624568651561318780,0,-0.1833,-0.7485,0.7302,149,17.5171,20.0806,-35.6445,78,1.1726,1.2756,10.6807,-40.628,33,0.05,9170,3.8016,164.1122
lg,1624568651561340538,0,-0.2275,-0.7654,0.6697,150,12.8174,13.4277,-41.626,78,1.1556,1.2636,10.0795,-40.7233,32,0.041,9066,3.8016,162.416
lg,1624568651561358704,0,-0.2097,-0.7234,0.5466,151,9.2773,-12.3291,-20.4468,78,1.1526,1.2546,8.9771,-40.82,32,0.039,10564,3.8016,162.0427
lg,1624568651561376332,0,0.0273,-0.6958,0.7007,152,1.1597,-26.4893,23.1934,78,1.1566,1.2546,8.7313,-40.9524,32,0.045,10449,3.8016,163.9025
lg,1624568651561409238,0,0.0964,-0.8347,0.8018,153,-12.8784,-21.4233,49.1333,78,1.1656,1.2546,8.8514,-41.3473,33,0.054,8867,3.8016,165.9394
lg,1624568651561428977,0,-0.2769,-0.7126,0.8188,154,-6.3477,-14.4653,46.2036,78,1.1776,1.2646,9.852,-41.2863,33,0.056,13273,3.8016,167.7355
lg,1624568651561446495,0,-0.3909,-0.675,0.8467,155,-27.2827,-64.8193,66.2842,78,1.1656,1.2716,10.0648,-41.6108,33,0.045,9485,3.8016,-188.4856
lg,1624568651561464808,0,-0.1248,-0.6814,0.7773,156,-37.9639,-101.0132,67.627,78,1.1366,1.2766,8.0305,-42.5401,32,0.05,9135,3.8016,-182.5745
lg,1624568651561482493,0,0.0911,-0.7297,0.7915,157,-50.2319,-147.0947,73.4253,78,1.1165,1.2766,5.2656,-43.8198,32,0.043,8837,3.8016,-176.3627
lg,1624568651561500584,0,0.4995,-0.8484,0.553,158,-36.0107,-119.0796,30.7617,78,1.1095,1.2756,1.5774,-45.4552,32,0.045,9571,3.8016,-172.1592
lg,1624568651561518824,0,0.6921,-0.9673,0.751,159,-11.9019,-27.71,28.7476,78,1.1055,1.2736,0.4615,-46.124,32,0.045,10075,3.8016,-170.5651
lg,1624568651561536489,0,0.3623,-0.8115,0.6306,160,12.6953,87.4023,4.0894,78,1.1055,1.2726,2.2206,-45.8884,33,0.046,8843,3.8016,-172.9781
lg,1624568651932095417,0,-0.3611,-0.6365,0.688,161,33.3252,133.9722,14.4653,78,1.1105,1.2776,7.1077,-44.7095,33,0.052,26435,3.8016,-176.3829
lg,1624568651932130822,0,-0.2617,-0.6416,0.7419,162,28.2593,71.2891,30.3955,78,1.1235,1.2836,9.4539,-43.6491,32,0.05,13163,3.8016,-176.6399
lg,1624568651932151562,0,-0.0405,-0.7327,0.8359,163,14.4043,-5.0659,23.9258,78,1.1396,1.2886,9.6691,-42.826,32,0.046,9911,3.8016,-175.7782
lg,1624568651932170838,0,0.0435,-0.752,0.8372,164,12.7563,-15.564,16.8457,78,1.1616,1.2906,9.1975,-42.1186,32,0.053,8004,3.8016,-174.8444
lg,1624568651932189596,0,0.0703,-0.7493,0.8105,165,10.8643,-18.6768,-13.0615,78,1.1786,1.2896,7.7892,-41.6841,32,0.052,7953,3.8016,-174.7365
lg,1624568651932208003,0,-0.021,-0.7939,0.6902,166,9.2773,-16.4795,-25.0244,78,1.1816,1.2846,6.4001,-41.607,32,0.048,7962,3.8016,-175.3609
lg,1624568651932226224,0,-0.0273,-0.7627,0.6716,167,12.5122,-1.0376,-29.7241,78,1.1646,1.2736,5.3898,-41.4658,32,0.037,8228,3.8016,-176.257
lg,1624568651932243704,0,-0.1426,-0.7363,0.6538,168,11.2305,17.2119,-23.1323,78,1.1526,1.2576,5.4474,-41.3532,32,0.042,10480,3.8016,-177.4322
lg,1624568651932261759,0,-0.1753,-0.7605,0.6538,169,5.0049,14.0381,6.1035,78,1.1506,1.2496,6.205,-41.474,33,0.047,8045,3.8016,-177.6515
lg,1624568651932280258,0,0.0193,-0.7871,0.7773,170,-3.1738,-14.4043,46.9971,78,1.1566,1.2516,6.7349,-41.5422,33,0.048,8034,3.8016,-175.8686
lg,1624568651932297960,0,0.0247,-0.7314,0.8098,171,-3.9062,-6.1646,56.7017,78,1.1656,1.2586,7.7343,-41.4732,33,0.054,8095,3.8016,-173.9971
lg,1624568651932316644,0,-0.2991,-0.7263,0.8091,172,-6.7139,-3.6621,46.936,78,1.1726,1.2656,9.1682,-41.5243,33,0.056,8264,3.8016,-172.4805
lg,1624568651932334977,0,-0.4343,-0.6667,0.8196,173,-20.0806,-57.5562,57.312,78,1.1696,1.2736,9.4928,-41.6932,32,0.046,8174,3.8016,-169.1781
lg,1624568651932353309,0,-0.4536,-0.6892,0.7751,174,-31.5552,-92.5293,54.4434,78,1.1376,1.2796,8.7644,-42.282,32,0.04,8146,3.8016,-165.0293
lg,1624568651932374974,0,0.3484,-0.5813,0.9209,175,-48.584,-176.7578,65.0024,78,1.1215,1.2816,4.3492,-43.0634,32,0.043,14207,3.8016,-158.2222
lg,1624568651932396843,0,0.3235,-0.9541,0.6292,176,-30.8838,-109.2529,15.0757,78,1.1175,1.2826,0.8553,-44.6367,32,0.046,8218,3.8016,-154.7823
lg,1624568651932414935,0,0.5061,-0.8728,0.6685,177,-22.7051,-63.6597,28.9917,78,1.1155,1.2826,-0.5332,-45.0834,32,0.045,8849,3.8016,-153.6561
lg,1624568651932444100,0,0.3408,-0.781,0.6196,178,5.6763,31.311,-2.4414,78,1.1155,1.2826,-0.4375,-45.0815,32,0.048,8218,3.8016,-154.6135
lg,1624568651932464876,0,0.0315,-0.7634,0.6819,179,13.7939,88.6841,-4.8828,78,1.1155,1.2826,1.8713,-44.6778,32,0.049,8167,3.8016,-157.2592
lg,1624568651932511170,0,-0.0972,-0.7188,0.6995,180,19.043,92.7124,-3.6011,78,1.1155,1.2826,4.5495,-44.102,32,0.051,9419,3.8016,-159.9654
lg,1624568651932533835,0,-0.1475,-0.696,0.6545,181,23.1323,90.8203,1.9531,78,1.1165,1.2846,7.6989,-43.3054,32,0.05,8490,3.8016,-162.1327
lg,1624568651932551778,0,-0.2893,-0.6619,0.6777,182,26.9165,84.9609,17.8833,78,1.1195,1.2866,11.0228,-42.5549,32,0.048,8331,3.8016,-163.9546
lg,1624568651932571055,0,-0.2131,-0.6282,0.7288,183,21.8506,31.4941,25.7568,78,1.1266,1.2906,12.6978,-41.6184,32,0.049,8317,3.8016,-164.0237
lg,1624568651932589054,0,-0.0142,-0.7458,0.8069,184,10.5591,-18.4326,18.1274,78,1.1416,1.2946,12.152,-41.0059,32,0.047,8378,3.8016,-162.9788
lg,1624568651932619663,0,0.0735,-0.7466,0.8262,185,10.2539,-26.062,12.146,78,1.1626,1.2966,11.0571,-40.4164,32,0.052,8383,3.8016,-161.9195
lg,1624568651932638496,0,0.0618,-0.7791,0.8081,186,7.6294,-27.0386,-15.3809,78,1.1836,1.2976,9.2805,-40.203,32,0.05,9740,3.8016,-161.7104
lg,1624568651932656494,0,-0.0596,-0.781,0.6868,187,9.7656,-21.0571,-35.5225,78,1.1816,1.2886,7.5498,-40.2576,32,0.045,11003,3.8016,-162.313
lg,1624568651932674530,0,-0.1074,-0.7617,0.6599,188,7.5073,-11.3525,-32.5317,78,1.1676,1.2776,6.3077,-40.3824,32,0.039,9093,3.8016,-163.0589
lg,1624568651932692215,0,-0.0981,-0.7393,0.6536,189,5.9204,-8.8501,-8.9111,78,1.1596,1.2686,5.7848,-40.4621,32,0.039,9138,3.8016,-163.1344
lg,1624568651932709899,0,0.0781,-0.7456,0.7258,190,1.9531,-12.8174,18.2495,78,1.1616,1.2636,5.4728,-40.4973,32,0.05,8771,3.8016,-162.2633
lg,1624568651932727509,0,0.0957,-0.8188,0.8071,191,-2.0752,3.2349,38.0249,78,1.1676,1.2656,6.1555,-40.6559,32,0.049,9182,3.8016,-161.2072
lg,1624568651932746526,0,-0.1711,-0.7676,0.8296,192,1.2207,20.1416,35.2173,78,1.1806,1.2716,7.9069,-40.6589,32,0.056,9329,3.8016,-160.6417
lg,1624568652291145225,0,-0.2922,-0.6943,0.7913,193,-30.9448,-74.5239,57.6782,78,1.1436,1.2916,7.2772,-41.4565,32,0.042,26471,3.8016,-156.9193
lg,1624568652291180575,0,0.3125,-0.5278,1.0344,194,-40.1611,-124.6338,32.959,78,1.1235,1.2886,3.303,-43.0453,32,0.045,14115,3.8016,-153.8922
lg,1624568652291201129,0,0.2686,-0.8364,0.6841,195,-15.8081,-65.4297,11.3525,78,1.1195,1.2856,1.0531,-43.8796,32,0.046,10052,3.8016,-151.771
lg,1624568652291220869,0,0.1287,-0.7329,0.5454,196,-5.0049,-27.2827,-2.6245,78,1.1175,1.2846,-0.1561,-44.4337,32,0.045,8040,3.8016,-151.0898
lg,1624568652291240035,0,-0.0793,-0.7368,0.7295,197,6.1035,27.6489,7.3853,78,1.1185,1.2856,1.0161,-44.2173,32,0.046,7996,3.8016,-151.6528
lg,1624568652291258182,0,0.0002,-0.71,0.6995,198,7.8735,21.1792,16.2354,78,1.1195,1.2886,2.0316,-43.9436,32,0.046,8103,3.8016,-151.779
lg,1624568652291276422,0,0.0493,-0.7534,0.7214,199,7.9346,21.6675,24.7192,78,1.1205,1.2906,3.1494,-43.7023,32,0.047,8071,3.8016,-151.6725
lg,1624568652291322937,0,0.1016,-0.7771,0.7654,200,15.7471,26.6113,30.6396,78,1.1255,1.2936,4.4247,-43.1216,33,0.047,8095,3.8016,-151.5228
lg,1624568652291344029,0,0.1902,-0.7556,0.7412,201,18.0054,17.6392,25.0244,78,1.1336,1.2966,5.0454,-42.4673,33,0.049,8339,3.8016,-151.2808
lg,1624568652291361917,0,0.1731,-0.7693,0.7478,202,18.1885,20.0806,18.0054,78,1.1536,1.2996,5.5623,-41.8637,33,0.046,8153,3.8016,-151.3037
lg,1624568652291382175,0,0.1133,-0.7603,0.8264,203,20.9351,32.4707,-1.4648,78,1.1766,1.3006,6.1474,-41.0761,33,0.048,10398,3.8016,-152.2132
lg,1624568652291399859,0,0.0327,-0.7764,0.8179,204,14.8315,29.2358,-23.6206,79,1.1916,1.2976,6.0988,-40.7302,32,0.048,8153,3.8115,-153.7131
lg,1624568652291418617,0,-0.0259,-0.8191,0.677,205,14.8926,26.3672,-26.8555,79,1.1916,1.2926,6.01,-40.6703,32,0.042,8229,3.8115,-155.2646
lg,1624568652291436783,0,-0.0532,-0.7698,0.637,206,13.2446,32.7759,-24.9023,79,1.1826,1.2846,6.7409,-40.8347,32,0.038,8244,3.8115,-156.9624
lg,1624568652291454449,0,-0.1555,-0.7634,0.6028,207,9.0332,40.6494,-9.6436,79,1.1786,1.2796,7.8054,-41.0636,32,0.041,8323,3.8115,-158.3817
lg,1624568652291473114,0,-0.0024,-0.7761,0.7283,208,-2.7466,9.5825,32.5928,79,1.1826,1.2796,8.6463,-41.288,32,0.05,8283,3.8115,-157.678
lg,1624568652291490113,0,0.0234,-0.7039,0.7644,209,-4.1504,3.6621,41.626,79,1.1926,1.2836,9.8007,-41.2935,32,0.054,8282,3.8115,-156.7354
lg,1624568652291507557,0,-0.0757,-0.7148,0.7854,210,-4.1504,20.2026,46.0205,79,1.1986,1.2896,11.3896,-41.3306,32,0.055,8299,3.8115,-155.8814
lg,1624568652291524834,0,-0.2598,-0.6511,0.863,211,-10.376,-1.2207,49.6826,79,1.1926,1.2946,12.7457,-41.2384,32,0.047,8377,3.8115,-154.2883
lg,1624568652291543296,0,-0.2412,-0.7083,0.783,212,-30.2734,-60.1807,51.3916,79,1.1716,1.2986,12.3159,-41.7737,33,0.047,8351,3.8115,-151.082
lg,1624568652291561109,0,-0.1538,-0.7327,0.7852,213,-36.3159,-80.4443,49.3164,79,1.1486,1.2976,10.5272,-42.1362,33,0.043,8420,3.8115,-147.3126
lg,1624568652291578831,0,0.2344,-0.6572,0.7678,214,-37.5977,-98.0835,20.1416,79,1.1466,1.2966,7.291,-43.0542,33,0.044,8445,3.8115,-144.0027
lg,1624568652291596070,0,0.1755,-0.8953,0.7754,215,-19.4092,-71.0449,13.855,79,1.1426,1.2966,5.0049,-43.8021,33,0.044,8454,3.8115,-141.6563
lg,1624568652291613569,0,0.1294,-0.7124,0.5608,216,-7.6294,-61.5845,5.127,79,1.1406,1.2966,3.671,-44.2268,33,0.045,8505,3.8115,-141.227
lg,1624568652291631716,0,0.0017,-0.7637,0.6748,217,3.2349,11.9629,-2.3804,79,1.1416,1.2966,3.7959,-44.2843,33,0.047,8497,3.8115,-141.6413
lg,1624568652291665252,0,-0.1121,-0.7043,0.6711,218,14.5264,27.8931,10.5591,79,1.1416,1.2986,4.9956,-43.813,33,0.047,8554,3.8115,-142.1215
lg,1624568652291685362,0,-0.0461,-0.6848,0.6648,219,16.3574,29.0527,21.1182,79,1.1446,1.3006,6.3254,-43.2493,32,0.048,9655,3.8115,-142.3206
lg,1624568652291702750,0,-0.0195,-0.7451,0.7573,220,19.7144,33.6304,31.1279,79,1.1516,1.3036,7.9419,-42.504,32,0.05,9177,3.8115,-142.3342
lg,1624568652291720304,0,0.1128,-0.76,0.783,221,20.813,24.231,30.2734,79,1.1606,1.3056,8.5887,-41.6432,32,0.046,8468,3.8115,-142.021
lg,1624568652291737914,0,0.1707,-0.7783,0.7793,222,20.874,15.1978,21.4844,79,1.1786,1.3086,8.8855,-40.9373,32,0.051,9562,3.8115,-142.0934
lg,1624568652291755469,0,0.0835,-0.7229,0.8123,223,20.0806,23.0103,4.5776,79,1.1956,1.3076,8.9418,-40.2451,33,0.054,9268,3.8115,-143.038
lg,1624568652291773320,0,-0.002,-0.7358,0.7769,224,22.1558,29.541,-18.3716,79,1.2006,1.3026,9.0207,-39.6892,33,0.05,8907,3.8115,-144.3987
lg,1624568652663756789,0,-0.1323,-0.7637,0.6873,225,6.6528,25.4517,-6.0425,79,1.1726,1.2776,9.5792,-39.8816,32,0.046,26672,3.8115,-145.2992
lg,1624568652663817026,0,0.0183,-0.7749,0.7588,226,-4.5166,0.6714,50.293,79,1.1856,1.2826,10.4742,-40.012,32,0.055,14231,3.8115,-143.7908
lg,1624568652663837729,0,-0.1228,-0.7419,0.8728,227,-6.8359,21.1792,56.8237,79,1.1936,1.2896,12.405,-40.0468,32,0.052,7929,3.8115,-142.577
lg,1624568652663858468,0,-0.2256,-0.6858,0.7983,228,-4.8828,12.146,58.96,79,1.1876,1.2946,14.2738,-39.9011,33,0.044,7954,3.8115,-141.0478
lg,1624568652663877042,0,-0.4019,-0.626,0.8301,229,-18.9819,-23.5596,61.5845,79,1.1676,1.2976,15.4013,-39.8765,33,0.048,8312,3.8115,-138.4387
lg,1624568652663898337,0,-0.1394,-0.6301,0.8828,230,-41.0767,-97.0459,67.8101,79,1.1476,1.2966,13.8656,-40.1325,33,0.043,9960,3.8115,-133.6614
lg,1624568652663916206,0,0.0693,-0.8899,0.604,231,-38.8794,-122.0093,30.0903,79,1.1406,1.2946,10.3077,-41.4212,33,0.044,9890,3.8115,-129.6096
lg,1624568652663934946,0,0.5042,-0.8594,0.6746,232,-16.9678,-81.7871,32.5928,79,1.1376,1.2916,7.446,-41.9748,33,0.044,8697,3.8115,-126.4829
lg,1624568652663953334,0,0.3508,-0.8401,0.6003,233,-9.0942,-22.7051,12.3291,79,1.1366,1.2906,6.1118,-42.6798,33,0.045,7963,3.8115,-125.5552
lg,1624568652663972481,0,0.001,-0.7593,0.6492,234,10.2539,50.415,8.606,79,1.1386,1.2906,7.5759,-42.6643,33,0.046,8836,3.8115,-126.7093
lg,1624568652663996831,0,-0.0918,-0.6711,0.6545,235,17.395,55.9692,9.3384,79,1.1406,1.2926,9.3902,-42.266,33,0.046,8390,3.8115,-127.9785
lg,1624568652664061790,0,-0.0608,-0.6709,0.6602,236,19.5923,57.0679,13.855,79,1.1446,1.2946,11.3368,-41.8169,32,0.05,8055,3.8115,-129.1406
lg,1624568652664084345,0,-0.1431,-0.7566,0.74,237,23.2544,57.1899,18.4326,79,1.1536,1.2986,13.3822,-41.2439,32,0.052,8844,3.8115,-130.1628
lg,1624568652664102566,0,-0.1145,-0.7073,0.7451,238,23.9868,34.4238,12.6953,79,1.1646,1.3016,14.4695,-40.4973,32,0.054,8473,3.8115,-130.7203
lg,1624568652664121676,0,-0.0486,-0.7358,0.8298,239,17.5781,12.3291,5.6152,79,1.1856,1.3046,14.5153,-39.8683,32,0.045,11395,3.8115,-130.8851
lg,1624568652664141786,0,0.0115,-0.7085,0.8064,240,17.8833,1.77,-13.4888,79,1.1976,1.3006,13.6305,-39.32,32,0.053,11289,3.8115,-131.3762
lg,1624568652664160433,0,-0.0371,-0.7861,0.7427,241,10.437,-1.8921,-23.9868,79,1.1866,1.2916,12.5066,-39.3517,32,0.049,8250,3.8115,-132.1563
lg,1624568652664178673,0,-0.0288,-0.7905,0.6963,242,8.3618,7.2632,-27.3438,79,1.1676,1.2806,11.6073,-39.6025,32,0.046,8247,3.8115,-133.2871
lg,1624568652664197024,0,-0.0769,-0.7705,0.6555,243,8.4839,17.7002,-21.9116,79,1.1606,1.2736,11.4034,-39.8608,32,0.049,8445,3.8115,-134.5114
lg,1624568652664214837,0,-0.0442,-0.833,0.7344,244,-0.1831,14.0991,22.3999,79,1.1656,1.2746,12.0508,-40.1432,32,0.053,8259,3.8115,-134.251
lg,1624568652664232911,0,-0.02,-0.7319,0.7686,245,-2.3804,19.2871,37.6587,79,1.1806,1.2806,13.174,-40.2223,32,0.058,8492,3.8115,-133.6134
lg,1624568652664250872,0,-0.2896,-0.6179,0.7805,246,-2.2583,24.0479,42.7246,79,1.1836,1.2866,15.0231,-39.9786,32,0.054,8671,3.8115,-132.6994
lg,1624568652664268297,0,-0.4194,-0.6055,0.8381,247,-9.0332,3.2959,43.2739,79,1.1766,1.2906,16.5096,-39.8195,33,0.048,8286,3.8115,-131.3652
lg,1624568652664286759,0,-0.3706,-0.676,0.8765,248,-37.1094,-84.7778,44.9829,79,1.1586,1.2946,15.1581,-40.1945,33,0.046,8830,3.8115,-127.6367
lg,1624568652664303981,0,0.2517,-0.6348,1.1443,249,-53.1006,-141.9067,40.1001,79,1.1506,1.2946,10.9179,-40.7229,33,0.046,8387,3.8115,-122.48
lg,1624568652664322128,0,0.2192,-0.8137,0.5945,250,-45.7153,-142.7612,4.6997,79,1.1466,1.2966,7.2429,-42.4642,33,0.044,8429,3.8115,-119.5886
lg,1624568652664339442,0,0.3982,-0.9084,0.7556,251,-26.9165,-93.0786,12.8784,79,1.1436,1.2936,3.8988,-43.5356,32,0.044,8374,3.8115,-116.6842
lg,1624568652664357292,0,0.2009,-0.7644,0.5837,252,-6.897,-3.8452,-12.146,79,1.1426,1.2916,2.8397,-44.1668,32,0.047,9103,3.8115,-116.9488
lg,1624568652664374866,0,-0.1472,-0.6885,0.6082,253,10.6812,49.0723,-11.2915,79,1.1426,1.2916,4.1751,-44.0052,32,0.049,9182,3.8115,-118.6515
lg,1624568652664405827,0,-0.2944,-0.6189,0.626,254,16.1133,46.2036,1.0376,79,1.1436,1.2926,6.0918,-43.489,32,0.049,9153,3.8115,-119.9047
lg,1624568652664425622,0,-0.2358,-0.6179,0.6694,255,14.8926,29.1138,13.4277,79,1.1486,1.2956,7.387,-43.0116,32,0.054,8798,3.8115,-120.3239
lg,1624568652664442917,0,-0.0535,-0.75,0.7292,256,15.0146,3.9673,29.48,79,1.1566,1.2996,8.1241,-42.4103,32,0.054,9208,3.8115,-119.5747
lg,1624568653020448742,0,0.1699,-0.7627,0.7485,257,21.1182,8.1787,8.8501,79,1.1926,1.3076,7.9315,-41.6757,32,0.047,26715,3.8115,-119.5536
lg,1624568653020498240,0,0.0603,-0.7632,0.7168,258,21.1792,14.9536,-11.2915,79,1.1996,1.3016,7.5694,-41.3214,32,0.052,11562,3.8115,-120.5521
lg,1624568653020528960,0,0.0127,-0.7681,0.7048,259,17.2729,25.5127,-17.6392,79,1.1866,1.2926,7.5429,-41.027,32,0.045,8139,3.8115,-121.799
lg,1624568653020558125,0,0.0044,-0.7583,0.7056,260,15.8081,35.2783,-16.1743,79,1.1716,1.2816,7.8725,-40.8188,33,0.042,8053,3.8115,-123.2584
lg,1624568653020586865,0,-0.0952,-0.7695,0.7334,261,11.9629,50.9644,5.0049,79,1.1646,1.2756,9.4289,-40.7328,33,0.05,7994,3.8115,-124.485
lg,1624568653020614956,0,-0.0991,-0.7908,0.7097,262,4.9438,34.6069,33.7524,79,1.1736,1.2786,11.1907,-40.7983,33,0.054,11094,3.8115,-124.4161
lg,1624568653020643010,0,-0.1628,-0.6819,0.8403,263,0.1831,32.8979,54.0161,79,1.1856,1.2846,13.4831,-40.5399,33,0.057,8054,3.8115,-123.6068
lg,1624568653020669805,0,-0.23,-0.6721,0.8777,264,-4.3335,19.8975,56.6406,79,1.1866,1.2906,15.4817,-40.2658,33,0.049,8047,3.8115,-122.3312
lg,1624568653020696896,0,-0.4048,-0.6819,0.8123,265,-19.2871,-25.8179,54.9316,79,1.1686,1.2956,16.3287,-40.3467,33,0.049,8069,3.8115,-119.8899
lg,1624568653020725191,0,-0.2698,-0.658,0.8254,266,-38.269,-100.3418,52.5513,79,1.1476,1.2956,14.5744,-40.6281,33,0.047,9616,3.8115,-115.5019
lg,1624568653020752245,0,0.1477,-0.7051,0.6548,267,-40.9546,-133.8501,17.5171,79,1.1436,1.2946,10.13,-41.6223,33,0.045,8326,3.8115,-111.4104
lg,1624568653020804520,0,0.0022,-0.968,0.7156,268,-39.6729,-108.8867,11.8408,79,1.1416,1.2946,6.2914,-43.0661,33,0.043,8117,3.8115,-108.1384
lg,1624568653020833074,0,0.3452,-0.7905,0.6375,269,-15.686,-80.3833,4.3335,79,1.1406,1.2956,3.1281,-43.7917,33,0.042,8313,3.8115,-105.8187
lg,1624568653020859850,0,0.1165,-0.7781,0.7031,270,2.8687,6.2256,8.3618,79,1.1416,1.2956,3.1644,-43.825,33,0.043,8172,3.8115,-105.7596
lg,1624568653020889627,0,0.0962,-0.7446,0.697,271,7.9346,21.0571,16.4795,79,1.1416,1.2966,4.0264,-43.4807,33,0.043,8160,3.8115,-106.0188
lg,1624568653020917533,0,0.2175,-0.7864,0.7017,272,13.9771,44.1895,22.2168,79,1.1416,1.2976,5.2999,-43.1452,32,0.045,8224,3.8115,-106.6067
lg,1624568653020960327,0,0.0762,-0.7656,0.6841,273,29.2358,85.2051,22.7051,79,1.1446,1.2996,8.0274,-42.3628,32,0.047,8205,3.8115,-108.2926
lg,1624568653020988103,0,-0.0659,-0.7007,0.7058,274,33.2642,94.7876,21.1792,79,1.1496,1.3026,11.1144,-41.4114,32,0.05,8247,3.8115,-110.3123
lg,1624568653021016527,0,-0.1357,-0.6775,0.7791,275,34.79,87.0361,17.2119,79,1.1616,1.3056,13.7571,-40.4398,32,0.052,8772,3.8115,-111.8933
lg,1624568653021042970,0,-0.1416,-0.6909,0.8196,276,28.3813,66.1011,13.4277,79,1.1786,1.3066,15.8655,-39.6266,32,0.047,8330,3.8115,-113.2295
lg,1624568653021068673,0,-0.1069,-0.6687,0.8335,277,23.9868,40.4663,-5.249,79,1.1906,1.3046,16.5746,-38.9698,32,0.051,8311,3.8115,-114.4597
lg,1624568653021094227,0,-0.1399,-0.7317,0.7639,278,14.8315,18.1885,-15.625,79,1.1946,1.3016,16.3871,-38.8441,32,0.049,8293,3.8115,-115.4988
lg,1624568653021257644,0,-0.1282,-0.7156,0.7234,279,12.3291,12.207,-18.9819,79,1.1856,1.2966,15.9259,-38.8415,33,0.045,8462,3.8115,-116.4992
lg,1624568653021289291,0,-0.2539,-0.7842,0.6677,280,4.8828,17.7002,-16.6626,79,1.1776,1.2926,15.9764,-39.3403,33,0.048,8392,3.8115,-117.6176
lg,1624568653021319345,0,-0.2007,-0.7007,0.7173,281,-5.0659,-12.5122,25.3296,79,1.1826,1.2946,16.048,-39.4176,33,0.054,8524,3.8115,-116.5261
lg,1624568653021346992,0,-0.1165,-0.667,0.7915,282,-13.5498,-30.2124,40.5884,79,1.1926,1.2996,15.8145,-39.5722,33,0.055,8434,3.8115,-114.3238
lg,1624568653021374194,0,-0.1558,-0.7063,0.813,283,-20.874,-34.3018,48.1567,79,1.1866,1.3046,15.7325,-39.7267,32,0.044,9514,3.8115,-111.8701
lg,1624568653021406303,0,-0.2627,-0.6797,0.8767,284,-30.1514,-46.1426,45.105,79,1.1646,1.3076,15.383,-40.1257,32,0.046,9125,3.8115,-109.1793
lg,1624568653021432524,0,-0.2664,-0.6589,0.8206,285,-38.3301,-84.5337,41.687,79,1.1466,1.3046,13.8523,-40.6867,32,0.05,9180,3.8115,-105.582
lg,1624568653021459486,0,0.0181,-0.7612,0.6243,286,-42.6636,-121.6431,6.1646,79,1.1426,1.3006,9.8072,-42.0648,32,0.046,8432,3.8115,-102.1904
lg,1624568653021490188,0,0.2949,-0.8833,0.6707,287,-26.6724,-94.4824,13.9771,79,1.1406,1.2986,6.4748,-43.1059,33,0.043,9219,3.8115,-99.2501
lg,1624568653021518501,0,0.073,-0.803,0.6282,288,-14.9536,-50.5371,-0.9155,79,1.1406,1.2986,6.1529,-43.6806,33,0.043,9584,3.8115,-99.2244
lg,1624568653397967203,0,0.0574,-0.7922,0.6821,289,4.9438,24.7192,19.3481,79,1.1486,1.3036,7.031,-43.7096,32,0.048,25768,3.8115,-99.3754
lg,1624568653398010145,0,-0.0476,-0.7715,0.7065,290,12.8174,27.6489,19.7144,79,1.1556,1.3066,8.1946,-43.365,32,0.051,15317,3.8115,-99.5888
lg,1624568653398030847,0,0.0408,-0.7761,0.7366,291,12.0239,15.686,19.2261,79,1.1666,1.3096,8.7649,-42.9808,32,0.056,8625,3.8115,-99.477
lg,1624568653398050550,0,0.1221,-0.8022,0.77,292,13.7329,16.8457,12.8174,79,1.1816,1.3106,9.0145,-42.563,33,0.053,9422,3.8115,-99.5827
lg,1624568653398069938,0,0.0918,-0.7612,0.7388,293,16.2354,26.7334,-10.5591,79,1.1916,1.3096,8.9664,-42.2006,33,0.054,8634,3.8115,-100.6518
lg,1624568653398088863,0,-0.0293,-0.7749,0.667,294,16.7236,31.3721,-17.7002,79,1.1876,1.3046,9.0951,-42.0509,33,0.05,9401,3.8115,-102.2067
lg,1624568653398140249,0,-0.0386,-0.7817,0.675,295,15.3198,34.3628,-22.0947,79,1.1706,1.2946,9.2456,-41.9699,33,0.051,8950,3.8115,-103.8494
lg,1624568653398163044,0,-0.1172,-0.7725,0.636,296,14.4043,37.7197,-16.0522,79,1.1596,1.2856,9.8324,-41.9753,33,0.052,8358,3.8115,-105.412
lg,1624568653398181414,0,-0.1514,-0.782,0.7241,297,9.0942,32.4097,21.7285,79,1.1626,1.2856,11.3016,-41.8514,33,0.06,8782,3.8115,-105.673
lg,1624568653398199672,0,-0.0986,-0.7366,0.8203,298,0,18.0664,40.2222,79,1.1766,1.2916,12.5787,-41.8364,33,0.056,8413,3.8115,-104.2995
lg,1624568653398217726,0,-0.1128,-0.6904,0.8093,299,-9.5215,-2.3193,53.4058,79,1.1796,1.2966,13.6715,-41.7643,33,0.05,8013,3.8115,-102.5901
lg,1624568653398236837,0,-0.3662,-0.6353,0.8818,300,-18.4326,-13.4277,44.3115,79,1.1636,1.3016,14.6491,-41.8331,33,0.05,8851,3.8115,-100.8018
lg,1624568653398257002,0,-0.2693,-0.5662,0.8254,301,-34.0576,-83.8013,46.0815,79,1.1426,1.3006,13.4163,-41.9871,33,0.05,8458,3.8115,-97.0009
lg,1624568653398275927,0,0.0669,-0.457,1.085,302,-38.7573,-111.9995,27.3438,79,1.1386,1.2986,10.2121,-41.9669,33,0.051,8090,3.8115,-92.9271
lg,1624568653398294500,0,0.0852,-0.9089,0.8521,303,-40.2832,-109.6191,15.4419,79,1.1356,1.2976,6.8673,-43.2433,32,0.049,8340,3.8115,-89.4899
lg,1624568653398313407,0,0.3169,-0.8245,0.5745,304,-17.334,-67.2607,-6.5308,79,1.1336,1.2976,3.8214,-44.2166,32,0.049,8217,3.8115,-87.8544
lg,1624568653398331054,0,0.2134,-0.8201,0.6851,305,-4.0283,-8.667,-3.9673,79,1.1336,1.2966,3.1729,-44.4882,32,0.05,8173,3.8115,-87.7324
lg,1624568653398349627,0,-0.074,-0.73,0.6582,306,13.4277,48.2178,0.7935,79,1.1336,1.2986,4.6111,-44.1692,32,0.049,8564,3.8115,-89.0705
lg,1624568653398367515,0,-0.1887,-0.6721,0.675,307,13.9771,31.9824,17.0288,79,1.1346,1.2986,6.2586,-43.6659,32,0.056,13073,3.8115,-89.4718
lg,1624568653398385940,0,-0.1338,-0.7085,0.7009,308,12.6953,21.9116,24.231,79,1.1366,1.3006,7.6106,-43.2013,32,0.058,8253,3.8115,-89.3785
lg,1624568653398404013,0,0.0254,-0.7512,0.7205,309,13.9771,1.5259,28.6865,79,1.1416,1.3036,8.0791,-42.643,32,0.058,8443,3.8115,-88.5914
lg,1624568653398421790,0,0.1992,-0.7891,0.759,310,15.0757,-3.6011,21.3013,79,1.1516,1.3066,7.8293,-42.067,32,0.058,8671,3.8115,-87.8819
lg,1624568653398452659,0,0.1968,-0.8088,0.7764,311,16.5405,12.085,4.3945,79,1.1706,1.3096,7.6105,-41.5852,32,0.046,10910,3.8115,-88.1015
lg,1624568653398473972,0,0.1279,-0.7292,0.7664,312,19.104,28.0151,-17.395,79,1.1846,1.3086,7.4183,-41.0592,32,0.054,8826,3.8115,-89.389
lg,1624568653398513396,0,-0.0537,-0.7473,0.6895,313,21.0571,36.9873,-24.5361,79,1.1886,1.3056,7.8167,-40.6769,32,0.052,9115,3.8115,-91.3114
lg,1624568653398537136,0,-0.1042,-0.7461,0.6926,314,21.5454,42.9077,-24.7192,79,1.1776,1.2976,8.3952,-40.3297,33,0.041,9101,3.8115,-93.2324
lg,1624568653398555116,0,-0.1685,-0.7439,0.7146,315,15.9912,41.8701,-24.1699,79,1.1616,1.2856,9.0767,-40.1917,33,0.044,8425,3.8115,-95.1076
lg,1624568653398573467,0,-0.2041,-0.7708,0.7207,316,8.9722,21.5454,3.3569,79,1.1576,1.2816,9.8925,-40.1647,33,0.047,9172,3.8115,-95.6094
lg,1624568653398592929,0,-0.0378,-0.7078,0.7605,317,-3.9673,-11.1084,31.7383,79,1.1656,1.2856,10.0632,-40.2034,33,0.054,8492,3.8115,-94.3527
lg,1624568653398610854,0,-0.0964,-0.6924,0.7722,318,-6.4087,-8.3618,36.377,79,1.1776,1.2936,10.8137,-40.2967,33,0.054,8881,3.8192,-93.0196
lg,1624568653398630649,0,-0.3162,-0.6912,0.7717,319,-10.1929,-20.5078,46.6309,79,1.1796,1.3006,11.6389,-40.3653,33,0.047,8892,3.8192,-91.0391
lg,1624568653398650315,0,-0.3455,-0.6294,0.8779,320,-25.5127,-65.2466,51.2695,79,1.1676,1.3046,11.2327,-40.5323,33,0.047,8549,3.8192,-87.6792
lg,1624568653757574749,0,0.4023,-0.9727,0.6548,321,-31.189,-106.7505,22.2778,79,1.1416,1.3056,7.4949,-41.773,33,0.047,26796,3.8192,-84.2508
lg,1624568653757646820,0,0.4297,-0.8662,0.5713,322,2.6855,-1.4648,13.1836,79,1.1386,1.3036,6.6764,-42.1444,33,0.048,11959,3.8192,-83.8857
lg,1624568653757677355,0,-0.0039,-0.7322,0.6802,323,21.9727,97.168,8.9722,79,1.1406,1.3036,9.5343,-41.7881,33,0.049,10446,3.8192,-86.2711
lg,1624568653757708168,0,-0.1448,-0.6729,0.6843,324,23.8037,90.8203,16.4185,79,1.1426,1.3046,12.6327,-41.3129,33,0.052,8011,3.8192,-88.249
lg,1624568653757736796,0,-0.0911,-0.7598,0.8091,325,19.8975,73.0591,28.5034,79,1.1476,1.3066,15.2549,-40.8496,33,0.052,8028,3.8192,-89.3657
lg,1624568653757765610,0,-0.0422,-0.7812,0.7988,326,20.9351,62.1948,29.9683,79,1.1556,1.3086,17.3958,-40.3578,33,0.052,8066,3.8192,-90.15
lg,1624568653757791553,0,-0.041,-0.7512,0.759,327,17.8833,43.5791,21.4233,79,1.1696,1.3106,18.6755,-39.969,32,0.054,8299,3.8192,-90.7033
lg,1624568653757819570,0,-0.0498,-0.7195,0.7842,328,10.437,17.1509,11.4136,79,1.1806,1.3126,18.8624,-39.6808,32,0.057,13114,3.8192,-90.8334
lg,1624568653757847272,0,-0.0798,-0.7654,0.7319,329,3.7231,5.188,16.6626,79,1.1826,1.3146,18.8798,-39.7001,32,0.056,8119,3.8192,-90.5308
lg,1624568653757874345,0,-0.0916,-0.718,0.7712,330,-8.0566,-2.8076,22.3999,79,1.1786,1.3176,18.8177,-39.8871,32,0.055,8341,3.8192,-89.7694
lg,1624568653757974062,0,-0.144,-0.5925,0.823,331,-5.0659,-1.4648,18.9819,79,1.1756,1.3186,18.8334,-39.696,32,0.053,8122,3.8192,-89.0568
lg,1624568653758006801,0,-0.355,-0.646,0.7673,332,-4.5166,-6.2256,8.1177,79,1.1726,1.3186,18.4958,-39.9338,32,0.049,8199,3.8192,-88.0347
lg,1624568653758036133,0,-0.2791,-0.6316,0.8252,333,-17.0898,-54.3213,8.3008,79,1.1706,1.3176,16.9118,-39.9772,32,0.051,9581,3.8192,-86.2637
lg,1624568653758064594,0,-0.1418,-0.741,0.7849,334,-22.2778,-75.1343,13.7329,79,1.1696,1.3176,14.6068,-40.3271,32,0.049,8336,3.8192,-83.8465
lg,1624568653758119350,0,0.0112,-0.7698,0.6926,335,-10.9253,-51.8799,15.9302,79,1.1696,1.3176,12.8557,-40.6177,32,0.05,8225,3.8192,-82.0349
lg,1624568653758148330,0,0.0588,-0.7422,0.7292,336,-4.6387,-28.2593,18.7988,79,1.1716,1.3176,11.7646,-40.6637,32,0.051,8241,3.8192,-80.7305
lg,1624568653758176977,0,0.1501,-0.7812,0.7627,337,3.6011,4.5776,19.8364,79,1.1746,1.3186,11.6568,-40.6117,32,0.051,8248,3.8192,-80.2802
lg,1624568653758206772,0,0.1687,-0.8101,0.7012,338,7.6904,20.2026,12.4512,79,1.1786,1.3186,11.794,-40.6654,33,0.055,8381,3.8192,-80.5025
lg,1624568653758233215,0,0.0051,-0.8167,0.6914,339,8.667,31.0059,4.4556,79,1.1836,1.3176,12.4406,-40.79,33,0.055,8341,3.8192,-81.4671
lg,1624568653758259973,0,-0.043,-0.7925,0.6929,340,11.2915,35.8276,2.6245,79,1.1886,1.3156,13.1912,-40.8506,33,0.059,8275,3.8192,-82.4185
lg,1624568653758287249,0,-0.0203,-0.749,0.7561,341,13.5498,28.2593,2.4414,79,1.1926,1.3106,13.629,-40.6166,33,0.051,8354,3.8192,-83.139
lg,1624568653758314062,0,-0.0164,-0.7817,0.7061,342,13.4888,18.4937,-9.4604,79,1.1876,1.3026,13.4423,-40.5505,32,0.054,8362,3.8192,-84
lg,1624568653758341691,0,-0.0122,-0.8057,0.675,343,9.6436,13.0005,-12.8174,79,1.1706,1.2916,13.003,-40.7117,32,0.052,8375,3.8192,-84.836
lg,1624568653758367615,0,0.0171,-0.7688,0.5708,344,10.1929,10.7422,-11.9629,79,1.1596,1.2846,12.4733,-40.952,32,0.051,8394,3.8192,-85.6092
lg,1624568653758394169,0,0.0457,-0.8291,0.7129,345,6.1646,27.9541,30.3955,79,1.1606,1.2846,13.5291,-40.9922,32,0.056,8470,3.8192,-85.496
lg,1624568653758421409,0,-0.0815,-0.8208,0.7302,346,0.7935,32.7759,47.8516,79,1.1716,1.2886,15.9061,-41.1353,33,0.058,8472,3.8192,-85.1875
lg,1624568653758466147,0,-0.3083,-0.6357,0.7747,347,5.3101,40.4663,63.7817,79,1.1766,1.2956,18.8338,-40.5701,33,0.052,11068,3.8192,-84.2594
lg,1624568653758495534,0,-0.448,-0.5251,0.7256,348,2.3193,23.8647,64.0869,79,1.1586,1.2996,21.0273,-39.9739,33,0.05,9138,3.8192,-82.2133
lg,1624568653758521496,0,-0.53,-0.4265,0.9421,349,-22.0337,-46.936,57.4341,79,1.1456,1.2986,21.311,-39.1078,33,0.048,8553,3.8192,-78.8134
lg,1624568653758547680,0,-0.3438,-0.7329,0.803,350,-50.2319,-157.2266,30.0903,79,1.1366,1.2976,17.0835,-39.5188,33,0.05,9252,3.8192,-73.6476
lg,1624568653758574086,0,0.3633,-0.8623,0.6748,351,-42.7246,-184.3872,29.4189,79,1.1326,1.2976,10.913,-40.2883,33,0.049,9573,3.8192,-67.9751
lg,1624568653758602844,0,0.4207,-0.9285,0.7612,352,-16.3574,-60.0586,15.564,79,1.1316,1.2976,8.3668,-40.9722,33,0.049,8896,3.8192,-65.9749
lg,1624568654133181400,0,-0.0044,-0.7432,0.677,353,14.7705,59.7534,4.7607,79,1.1406,1.3046,9.9677,-40.8706,33,0.054,27750,3.8192,-67.4582
lg,1624568654133237101,0,-0.1548,-0.7402,0.6868,354,21.9116,58.7769,5.7983,79,1.1496,1.3076,11.8422,-40.4977,33,0.053,11660,3.8192,-68.8863
lg,1624568654133258692,0,-0.1758,-0.7417,0.6973,355,22.3389,50.8423,7.5684,79,1.1586,1.3096,13.4994,-40.0909,32,0.056,7876,3.8192,-70.0519
lg,1624568654133284839,0,-0.1494,-0.7314,0.667,356,20.1416,24.7803,8.4839,79,1.1696,1.3116,14.2805,-39.674,32,0.06,8017,3.8192,-70.5109
lg,1624568654133303579,0,-0.0601,-0.7034,0.7539,357,19.8364,6.7749,6.2256,79,1.1816,1.3116,14.2135,-39.0044,32,0.055,8704,3.8192,-70.5253
lg,1624568654133323133,0,0.0166,-0.718,0.7822,358,17.9443,2.3804,-0.5493,79,1.1856,1.3066,13.3977,-38.661,32,0.054,8946,3.8192,-70.8095
lg,1624568654133342873,0,0.012,-0.7769,0.7268,359,12.6343,-2.3193,-12.8174,79,1.1766,1.2986,12.4574,-38.5607,32,0.052,8118,3.8192,-71.2379
lg,1624568654133364409,0,-0.0481,-0.8083,0.6875,360,9.8267,4.5776,-15.0757,79,1.1716,1.2946,11.8404,-38.7305,32,0.054,8785,3.8192,-71.9312
lg,1624568654133383686,0,-0.0056,-0.8203,0.6584,361,2.1973,2.2583,32.5317,79,1.1816,1.3006,12.2798,-38.9321,32,0.057,8424,3.8192,-71.0567
lg,1624568654133401963,0,-0.0063,-0.7119,0.7163,362,4.2725,12.7563,40.1611,79,1.1886,1.3066,13.2133,-38.7802,32,0.052,8034,3.8192,-70.1561
lg,1624568654133420332,0,-0.2627,-0.5979,0.7673,363,3.54,25.6348,46.1426,79,1.1796,1.3126,15.2325,-38.3915,33,0.05,8822,3.8192,-69.3214
lg,1624568654133438480,0,-0.4807,-0.561,0.9167,364,-5.188,1.4038,42.8467,79,1.1556,1.3116,16.6843,-37.9526,33,0.052,10560,3.8192,-67.8849
lg,1624568654133502458,0,-0.2297,-0.5781,1.0947,365,-28.9917,-80.6274,35.4614,79,1.1446,1.3096,14.7853,-37.8183,33,0.047,8964,3.8192,-64.541
lg,1624568654133531290,0,0.0642,-0.884,0.8484,366,-40.7715,-126.2207,32.1045,79,1.1396,1.3066,10.952,-38.8255,33,0.048,8165,3.8192,-60.3729
lg,1624568654133571214,0,0.321,-0.8733,0.7551,367,-24.5361,-71.0449,15.0757,79,1.1366,1.3036,8.1397,-39.81,33,0.051,8989,3.8192,-58.1385
lg,1624568654133592268,0,0.1926,-0.8718,0.6721,368,-9.1553,-17.2729,11.9019,79,1.1356,1.3016,7.2228,-40.5473,33,0.052,8186,3.8192,-57.387
lg,1624568654133611619,0,-0.0618,-0.6665,0.6248,369,12.6343,41.3818,14.3433,79,1.1356,1.3026,8.7146,-40.3739,33,0.053,8899,3.8192,-58.0655
lg,1624568654133628878,0,-0.0654,-0.6812,0.7058,370,8.7891,29.2358,21.1792,79,1.1386,1.3036,9.9542,-40.1757,33,0.056,8220,3.8192,-58.2012
lg,1624568654133648766,0,-0.0581,-0.7605,0.6936,371,10.498,23.9868,25.3296,79,1.1446,1.3056,11.0715,-40.0172,33,0.057,8953,3.8192,-58.0959
lg,1624568654133666468,0,-0.0266,-0.7659,0.7288,372,11.7188,19.8364,25.3906,79,1.1586,1.3096,11.9482,-39.7434,33,0.059,12006,3.8192,-57.8725
lg,1624568654133683727,0,0.0796,-0.751,0.7771,373,12.6343,9.8877,20.3857,79,1.1736,1.3106,12.137,-39.3225,33,0.063,9572,3.8192,-57.5264
lg,1624568654133704226,0,0.1006,-0.7876,0.7842,374,15.7471,10.9253,11.8408,79,1.1826,1.3086,12.0829,-38.9451,33,0.051,8379,3.8192,-57.9573
lg,1624568654133722225,0,0.0708,-0.8179,0.7698,375,17.395,23.9258,-4.6997,79,1.1786,1.3016,12.0945,-38.7163,33,0.054,9024,3.8192,-58.7891
lg,1624568654133742076,0,0.0203,-0.8098,0.7073,376,17.6392,34.5459,-16.6016,79,1.1636,1.2906,12.2392,-38.7111,33,0.053,8705,3.8192,-60.2905
lg,1624568654133761427,0,-0.1897,-0.7998,0.697,377,13.6108,45.9595,-4.1504,79,1.1616,1.2906,13.4818,-38.8581,32,0.057,10132,3.8192,-61.6925
lg,1624568654133779370,0,-0.0537,-0.7468,0.7056,378,0.8545,23.4375,41.626,79,1.1746,1.2976,14.8406,-38.9518,32,0.055,9085,3.8192,-61.0398
lg,1624568654133798036,0,-0.3086,-0.6101,0.7175,379,4.4556,34.9121,35.0342,79,1.1766,1.3036,16.9274,-38.7583,32,0.052,9100,3.8192,-60.8319
lg,1624568654133816554,0,-0.6067,-0.5471,0.8569,380,1.4038,27.2217,38.208,79,1.1626,1.3066,18.4447,-38.5102,32,0.055,9128,3.8192,-59.8037
lg,1624568654133836201,0,-0.5942,-0.499,0.9319,381,-20.3857,-42.3584,31.189,79,1.1496,1.3066,18.3322,-38.2634,32,0.055,8820,3.8192,-57.5382
lg,1624568654133856107,0,-0.0503,-0.9131,0.8965,382,-51.5137,-141.0522,7.1411,79,1.1446,1.3066,13.5202,-39.5288,32,0.05,11498,3.8192,-53.7031
lg,1624568654133873921,0,0.2393,-0.8955,0.7551,383,-42.2363,-151.7334,3.2959,79,1.1416,1.3046,8.0422,-40.8432,32,0.051,8962,3.8192,-49.6942
lg,1624568654133925734,0,0.2615,-0.8613,0.6514,384,-16.9067,-46.9971,-10.5591,79,1.1386,1.3026,5.527,-41.8615,32,0.052,8902,3.8192,-48.8177
lg,1624568654513365169,0,0.0254,-0.7266,0.7017,385,12.5122,45.7153,14.7095,79,1.1466,1.3076,6.9707,-41.6802,32,0.056,26560,3.8192,-49.6294
lg,1624568654513404963,0,-0.0166,-0.8115,0.7295,386,20.9351,56.3965,15.1367,79,1.1536,1.3106,8.8114,-41.2334,32,0.057,8706,3.8192,-50.7151
lg,1624568654513425925,0,-0.0515,-0.7705,0.772,387,21.0571,44.4946,11.2305,79,1.1616,1.3136,10.1995,-40.671,32,0.064,7918,3.8192,-51.5808
lg,1624568654513445609,0,-0.0334,-0.7861,0.7634,388,16.7847,30.0903,11.7188,79,1.1726,1.3156,11.0798,-40.2796,32,0.063,7908,3.8192,-52.053
lg,1624568654513464460,0,0.0596,-0.7593,0.7683,389,14.8926,12.8784,6.5308,79,1.1856,1.3166,11.0803,-39.8785,32,0.051,8234,3.8192,-52.2241
lg,1624568654513483459,0,0.0225,-0.7029,0.741,390,18.1885,21.2402,-13.9771,79,1.1806,1.3106,10.8876,-39.478,32,0.058,9228,3.8192,-53.2449
lg,1624568654513501199,0,-0.0781,-0.762,0.686,391,12.6953,26.123,-28.1372,79,1.1566,1.2956,10.7173,-39.5961,32,0.049,8843,3.8192,-54.8694
lg,1624568654513519217,0,-0.1326,-0.7622,0.6572,392,12.8174,23.6816,-32.1045,79,1.1466,1.2806,10.5822,-39.8306,32,0.052,8020,3.8192,-56.574
lg,1624568654513536716,0,-0.0908,-0.6877,0.679,393,14.8926,22.7661,9.9487,79,1.1506,1.2616,11.3268,-39.502,32,0.05,13167,3.8192,-56.8965
lg,1624568654513554363,0,-0.1111,-0.7214,0.835,394,10.7422,19.6533,21.7896,79,1.1546,1.2566,12.2594,-39.1809,32,0.056,8078,3.8192,-56.5186
lg,1624568654513571900,0,-0.1248,-0.7671,0.8413,395,0.8545,2.4414,35.9497,79,1.1596,1.2586,13.0014,-39.0288,32,0.056,8092,3.8192,-55.4664
lg,1624568654513589658,0,-0.1799,-0.7661,0.8562,396,-8.2397,-18.3716,45.3491,79,1.1676,1.2656,13.4099,-39.0202,32,0.052,8070,3.8192,-53.5683
lg,1624568654513607342,0,-0.3936,-0.6167,0.835,397,-7.3242,-27.2217,42.8467,79,1.1676,1.2746,13.771,-38.825,33,0.046,8149,3.8192,-51.2357
lg,1624568654513624212,0,-0.5049,-0.6201,0.8406,398,-19.2261,-55.2979,43.7622,79,1.1496,1.2836,12.2641,-39.1174,33,0.048,9716,3.8192,-47.3385
lg,1624568654513642229,0,-0.3171,-0.6472,0.7134,399,-41.626,-143.1885,42.7246,79,1.1326,1.2866,7.5218,-39.9482,33,0.05,10080,3.8192,-41.6901
lg,1624568654513660469,0,0.3528,-0.6101,0.9041,400,-44.3726,-172.9126,16.8457,79,1.1296,1.2876,1.7589,-41.0789,33,0.051,8166,3.8192,-36.6293
lg,1624568654513705245,0,0.3342,-0.989,0.7791,401,-31.0669,-86.1206,9.2773,79,1.1276,1.2876,-1.1914,-42.7008,33,0.052,8252,3.8192,-34.0538
lg,1624568654513725799,0,0.344,-0.9077,0.6367,402,-10.9253,-49.9878,-2.4414,79,1.1255,1.2886,-1.885,-42.9514,33,0.054,8205,3.8192,-34.6892
lg,1624568654513743724,0,-0.0217,-0.7156,0.6616,403,16.2964,49.0723,-12.5122,79,1.1245,1.2886,-0.6639,-42.4227,33,0.052,8578,3.8192,-36.3845
lg,1624568654513761446,0,-0.2576,-0.6399,0.6599,404,20.1416,54.9927,2.9907,79,1.1245,1.2906,1.6777,-41.6858,32,0.055,8208,3.8192,-37.7664
lg,1624568654513779704,0,-0.1338,-0.6829,0.7424,405,10.437,19.043,21.5454,79,1.1276,1.2926,3.0475,-41.2896,32,0.055,9000,3.8192,-37.6273
lg,1624568654513797666,0,-0.0056,-0.7253,0.7896,406,7.6904,7.3853,29.2969,79,1.1326,1.2946,3.6946,-41.0633,32,0.055,8313,3.8192,-36.9488
lg,1624568654513819295,0,0.1973,-0.8057,0.782,407,10.2539,-2.8687,26.6113,79,1.1396,1.2986,3.7686,-40.7743,32,0.058,8328,3.8192,-36.0829
lg,1624568654513838609,0,0.179,-0.7996,0.7883,408,13.916,11.1694,10.437,79,1.1506,1.3016,3.8734,-40.3892,32,0.057,8715,3.8192,-36.0719
lg,1624568654513855923,0,0.1162,-0.7681,0.8423,409,16.0522,29.2969,-1.4648,79,1.1666,1.3036,4.3439,-39.8745,32,0.045,9092,3.8192,-36.8832
lg,1624568654513873644,0,-0.0042,-0.7717,0.7783,410,16.5405,36.7432,-7.9956,79,1.1786,1.3036,5.0396,-39.4459,32,0.051,9108,3.8192,-38.5463
lg,1624568654513892476,0,-0.0642,-0.7488,0.7317,411,21.7896,47.7905,-21.7896,79,1.1816,1.3006,5.9017,-38.994,32,0.05,8431,3.8192,-40.462
lg,1624568654513910050,0,-0.136,-0.7268,0.7,412,16.2964,42.8467,-19.2261,79,1.1706,1.2926,6.8167,-38.8001,33,0.045,9474,3.8192,-42.1765
lg,1624568654513927456,0,-0.1577,-0.7009,0.7017,413,10.7422,32.0435,-14.3433,79,1.1626,1.2836,7.5393,-38.7622,33,0.041,9522,3.8192,-43.4655
lg,1624568654513944529,0,-0.1187,-0.7192,0.6606,414,8.1177,19.7754,6.4087,79,1.1616,1.2756,8.2904,-38.8126,33,0.041,9146,3.8192,-43.8098
lg,1624568654513961843,0,-0.0852,-0.7107,0.731,415,4.3335,11.6577,25.3296,79,1.1656,1.2736,9.1466,-38.7683,33,0.051,9196,3.8192,-43.3387
lg,1624568654513994860,0,-0.1064,-0.7593,0.8203,416,-2.9297,5.4932,41.0156,79,1.1756,1.2776,10.1034,-39.066,32,0.057,8859,3.8192,-41.3797
lg,1624568654905389820,0,-0.4553,-0.6462,0.7981,417,-16.9678,-38.5742,57.8613,79,1.1506,1.2946,10.9121,-39.2168,32,0.048,25784,3.8192,-38.5618
lg,1624568654905431003,0,-0.2839,-0.5835,0.7908,418,-38.7573,-115.7227,71.167,79,1.1245,1.2966,9.3696,-39.725,32,0.048,9389,3.8192,-33.3181
lg,1624568654905451187,0,0.3533,-1.0317,0.895,419,-45.2881,-119.5068,33.0811,79,1.1195,1.2966,5.7001,-41.3361,32,0.046,10556,3.8192,-29.2146
lg,1624568654905471186,0,0.5884,-1.0571,0.7271,420,-30.0293,-90.5151,29.541,79,1.1185,1.2956,2.6766,-42.7882,32,0.047,8065,3.8192,-25.9387
lg,1624568654905490278,0,0.2036,-0.825,0.6714,421,8.728,47.3022,-7.1411,79,1.1175,1.2966,3.333,-42.8225,33,0.048,7980,3.8192,-27.4541
lg,1624568654905509517,0,-0.2595,-0.6606,0.6077,422,26.3062,100.2197,-5.7983,79,1.1175,1.2966,6.6169,-42.1876,33,0.052,8025,3.8192,-30.3548
lg,1624568654905527591,0,-0.3672,-0.6184,0.6211,423,26.062,87.8906,1.0986,79,1.1185,1.2986,9.8769,-41.5721,33,0.053,8022,3.8192,-32.7036
lg,1624568654905545960,0,-0.2781,-0.6396,0.7158,424,10.7422,31.189,17.5171,79,1.1215,1.3006,11.5161,-41.1979,33,0.054,8383,3.8192,-33.0095
lg,1624568654905564255,0,-0.0627,-0.729,0.7236,425,7.2021,-5.0049,27.0996,79,1.1266,1.3036,11.7587,-40.8669,33,0.055,8506,3.8192,-32.0738
lg,1624568654905582662,0,0.1445,-0.7502,0.7532,426,8.4839,-16.4795,25.5127,79,1.1346,1.3076,10.9499,-40.4265,33,0.053,8452,3.8192,-30.9938
lg,1624568654905600735,0,0.1853,-0.7791,0.7698,427,9.4604,-14.5264,12.085,79,1.1476,1.3096,10.0232,-40.0973,33,0.05,8396,3.8192,-30.2761
lg,1624568654905618142,0,0.1621,-0.7527,0.8428,428,13.855,0.7324,-5.0049,79,1.1656,1.3116,9.207,-39.6313,33,0.042,8548,3.8192,-30.4652
lg,1624568654905637289,0,0.0781,-0.7522,0.7712,429,17.0288,17.395,-27.9541,86,1.1796,1.3096,8.5055,-39.3321,33,0.051,8345,3.8049,-31.817
lg,1624568654905655362,0,-0.0134,-0.7537,0.7197,430,20.3247,29.9683,-36.8042,86,1.1796,1.3036,8.5721,-39.0455,33,0.046,8756,3.8049,-34.0527
lg,1624568654905673750,0,-0.1431,-0.7461,0.7444,431,18.7988,45.5322,-39.856,86,1.1676,1.2916,8.9454,-38.8925,33,0.042,8297,3.8049,-36.501
lg,1624568654905693064,0,-0.1741,-0.729,0.6689,432,18.6157,35.1562,-29.7852,86,1.1606,1.2776,9.3313,-38.7687,33,0.039,8267,3.8049,-38.3861
lg,1624568654905711045,0,-0.1516,-0.6763,0.6052,433,11.4746,16.6626,0.7935,86,1.1616,1.2666,9.8768,-38.7392,33,0.037,8530,3.8049,-38.8445
lg,1624568654905756524,0,-0.0867,-0.6562,0.7019,434,4.7607,5.0659,22.0337,86,1.1656,1.2646,10.3966,-38.6126,33,0.044,8331,3.8049,-38.3046
lg,1624568654905777634,0,-0.0864,-0.7598,0.8218,435,-10.1929,-12.8784,52.6733,86,1.1746,1.2706,11.0752,-38.8028,33,0.055,8755,3.8049,-36.3339
lg,1624568654905796485,0,-0.1594,-0.7686,0.9182,436,-14.1602,-30.8228,56.7627,86,1.1786,1.2786,11.4024,-38.8975,33,0.047,8391,3.8049,-33.7507
lg,1624568654905814539,0,-0.3796,-0.6396,0.7795,437,-13.9771,-42.4805,57.8613,86,1.1686,1.2866,11.7486,-39.0649,33,0.043,8429,3.8049,-30.7017
lg,1624568654905843483,0,-0.4727,-0.6248,0.7915,438,-27.3438,-65.5518,55.8472,86,1.1386,1.2916,10.5006,-39.7133,33,0.046,9920,3.8049,-26.2023
lg,1624568654905862093,0,-0.2759,-0.6428,0.7698,439,-51.0254,-152.3438,67.1997,86,1.1155,1.2936,7.8009,-40.7798,33,0.048,8824,3.8049,-20.1381
lg,1624568654905881166,0,0.4802,-0.752,0.7761,440,-56.2744,-186.1572,45.7764,86,1.1075,1.2916,2.2961,-42.5798,33,0.045,8909,3.8049,-13.7986
lg,1624568654905899702,0,0.7642,-1.1008,0.7534,441,-31.5552,-100.0366,40.9546,86,1.1035,1.2906,-0.6738,-44.2141,33,0.047,8881,3.8049,-9.8609
lg,1624568654905917812,0,0.426,-0.8501,0.5786,442,10.1318,58.0444,-0.4883,86,1.1035,1.2906,0.1226,-44.2127,33,0.049,9259,3.8049,-11.4949
lg,1624568654905936052,0,-0.1052,-0.6707,0.6033,443,27.2827,133.1787,-9.8877,86,1.1055,1.2916,3.9285,-43.4039,33,0.049,8857,3.8049,-15.4728
lg,1624568654905954051,0,-0.2358,-0.6296,0.6301,444,26.3672,124.7559,-9.4604,86,1.1085,1.2946,7.684,-42.6892,33,0.049,8680,3.8049,-19.1733
lg,1624568654905972532,0,-0.1794,-0.6675,0.7266,445,17.2729,72.876,4.0894,86,1.1155,1.2986,9.9541,-42.3981,33,0.052,9999,3.8049,-21.0656
lg,1624568654905991179,0,-0.1541,-0.7781,0.7236,446,19.104,46.9971,13.855,86,1.1245,1.3026,11.6424,-41.9748,33,0.055,8660,3.8049,-21.968
lg,1624568654906009974,0,-0.1299,-0.7168,0.7427,447,21.9727,29.7852,10.6812,86,1.1356,1.3066,12.6323,-41.2704,33,0.054,8699,3.8049,-22.4694
lg,1624568654906028103,0,-0.0264,-0.688,0.7524,448,18.9209,1.77,13.3057,86,1.1526,1.3086,12.592,-40.4737,32,0.047,9980,3.8049,-22.1177
lg,1624568655246707820,0,0.0376,-0.7756,0.6707,449,13.0005,13.5498,-11.2305,86,1.1836,1.3056,12.1382,-40.448,32,0.049,26340,3.8049,-22.9043
lg,1624568655246744263,0,-0.0046,-0.7422,0.6931,450,13.3667,30.3955,-11.5356,86,1.1796,1.3006,12.7984,-40.44,33,0.043,8786,3.8049,-24.2962
lg,1624568655246764762,0,-0.0852,-0.7019,0.719,451,12.0239,44.7388,-4.6997,86,1.1766,1.2976,13.7158,-40.4145,33,0.046,8007,3.8049,-25.672
lg,1624568655246784705,0,-0.198,-0.8171,0.7568,452,-0.5493,24.4141,20.813,86,1.1826,1.3006,14.8507,-40.6992,33,0.052,8066,3.8049,-25.7402
lg,1624568655246803890,0,-0.1924,-0.7285,0.7681,453,-13.0615,-6.3477,58.4106,86,1.1826,1.3126,15.9998,-40.788,32,0.045,15539,3.8049,-23.7616
lg,1624568655246822592,0,-0.3118,-0.6838,0.8237,454,-11.2305,2.1362,59.4482,86,1.1506,1.3136,17.6194,-40.654,32,0.049,8151,3.8049,-21.9259
lg,1624568655246861924,0,-0.1733,-0.3884,1.1584,455,-24.8413,-50.7812,54.5044,86,1.1406,1.3096,17.1533,-39.8165,32,0.046,8096,3.8049,-18.5361
lg,1624568655246880664,0,-0.1919,-0.7864,0.792,456,-41.626,-133.9111,7.0801,86,1.1336,1.3036,12.9782,-40.6765,32,0.044,8341,3.8049,-14.7776
lg,1624568655246898219,0,0.2178,-0.8308,0.8394,457,-42.6025,-161.9263,16.0522,86,1.1306,1.2996,7.4969,-41.8391,33,0.044,8305,3.8049,-10.0093
lg,1624568655246915884,0,0.1572,-0.8499,0.6804,458,-26.123,-77.3926,-22.644,86,1.1296,1.2996,4.0028,-43.0983,33,0.046,8635,3.8049,-8.6164
lg,1624568655246933328,0,-0.0618,-0.6003,0.7004,459,12.8174,5.6763,-3.2959,86,1.1326,1.3006,4.5891,-42.4147,33,0.047,12372,3.8049,-8.7496
lg,1624568655246950864,0,0.0315,-0.6238,0.7341,460,6.7139,12.5122,12.8174,86,1.1356,1.3036,5.0459,-42.0511,32,0.047,8496,3.8049,-8.7018
lg,1624568655246968456,0,0.1409,-0.7961,0.7253,461,3.2959,10.0708,7.8735,86,1.1406,1.3066,5.0625,-42.134,32,0.051,8411,3.8049,-8.759
lg,1624568655246986011,0,0.0415,-0.7703,0.7024,462,12.3291,27.71,-1.8311,86,1.1466,1.3106,5.542,-41.9246,32,0.053,8160,3.8049,-9.5804
lg,1624568655247003066,0,-0.0298,-0.7451,0.7383,463,14.3433,30.2734,-1.8921,86,1.1536,1.3126,6.2343,-41.5641,32,0.052,8510,3.8049,-10.4624
lg,1624568655247024490,0,-0.0872,-0.7568,0.699,464,12.9395,20.5688,4.2725,86,1.1616,1.3146,6.9051,-41.3124,32,0.055,9314,3.8049,-10.9072
lg,1624568655247042119,0,-0.009,-0.7515,0.7014,465,10.6201,3.7231,11.9019,86,1.1716,1.3166,7.0766,-41.0723,32,0.058,8434,3.8049,-10.6733
lg,1624568655247059359,0,0.0977,-0.7627,0.7793,466,5.5542,0.061,12.6953,86,1.1826,1.3156,6.9305,-40.9256,32,0.053,9256,3.8049,-10.3063
lg,1624568655247077340,0,0.136,-0.7532,0.748,467,9.5825,5.0659,-2.9297,86,1.1926,1.3106,6.4475,-40.7285,32,0.055,8713,3.8049,-10.5507
lg,1624568655247094561,0,0.0754,-0.7827,0.71,468,7.4463,12.5732,-11.1694,86,1.1916,1.3026,6.1205,-40.7753,32,0.05,8593,3.8049,-11.2531
lg,1624568655247111635,0,0.0566,-0.8015,0.7126,469,6.7749,19.2871,-9.5825,86,1.1796,1.2916,6.0906,-40.8813,32,0.046,8890,3.8049,-12.0846
lg,1624568655247129319,0,0.0391,-0.8176,0.728,470,7.0801,33.2642,-7.2632,86,1.1656,1.2746,6.5793,-41.0059,32,0.039,9091,3.8049,-13.2154
lg,1624568655247147096,0,-0.0059,-0.7979,0.6438,471,14.2212,41.9312,7.5073,86,1.1646,1.2596,7.7909,-40.9398,33,0.036,10878,3.8049,-14.1445
lg,1624568655247178595,0,-0.0093,-0.7439,0.6846,472,15.686,48.7671,38.8184,86,1.1706,1.2566,9.9865,-40.5769,33,0.049,8411,3.8049,-14.2841
lg,1624568655247197483,0,-0.1436,-0.7756,0.8015,473,-0.9155,50.5981,60.73,86,1.1816,1.2586,12.9869,-40.6356,33,0.055,8771,3.8049,-13.7765
lg,1624568655247214834,0,-0.2434,-0.7539,0.8191,474,-3.6621,36.9263,63.8428,86,1.1836,1.2646,15.7335,-40.6006,33,0.046,8797,3.8049,-12.7905
lg,1624568655247231666,0,-0.4766,-0.5432,0.7097,475,-3.7842,4.1504,69.7021,86,1.1596,1.2736,18.1422,-40.0093,32,0.047,8834,3.8049,-10.6467
lg,1624568655247248832,0,-0.6531,-0.5459,0.77,476,-34.668,-65.2466,78.0029,86,1.1225,1.2776,18.7967,-39.8613,32,0.045,8829,3.8049,-6.3029
lg,1624568655247266239,0,0.0623,-0.4812,1.1833,477,-58.6548,-172.4243,75.0122,86,1.1085,1.2756,14.6288,-39.4582,32,0.046,9263,3.8049,0.9336
lg,1624568655247284256,0,0.447,-1.0432,0.8914,478,-59.6924,-203.9795,46.7529,86,1.1005,1.2756,8.7812,-40.9577,32,0.044,8487,3.8049,7.7764
lg,1624568655247301422,0,0.7402,-1.0129,0.7244,479,-40.2222,-169.0063,38.9404,86,1.1005,1.2746,3.3597,-42.4049,33,0.043,8578,3.8049,13.4105
lg,1624568655247319125,0,0.4805,-0.9265,0.7402,480,-4.5776,4.3945,-1.0986,86,1.1015,1.2776,2.4859,-42.9117,33,0.045,10126,3.8049,13.2419
lg,1624568655736668553,0,-0.2153,-0.6628,0.6782,481,20.9351,98.1445,-13.9771,86,1.1145,1.2836,5.3848,-42.3325,33,0.048,25751,3.8049,10.1619
lg,1624568655736710662,0,-0.3506,-0.6499,0.6982,482,24.4141,52.7954,1.0376,86,1.1276,1.2916,7.5527,-41.5275,33,0.053,16482,3.8049,8.7736
lg,1624568655736732291,0,-0.1973,-0.6526,0.7234,483,16.1133,-4.2114,14.3433,86,1.1356,1.2946,7.9562,-40.821,33,0.052,7956,3.8049,9.3208
lg,1624568655736752938,0,-0.0542,-0.6919,0.72,484,10.0708,-26.8555,17.7612,86,1.1456,1.2986,7.1787,-40.422,33,0.052,7931,3.8049,10.5453
lg,1624568655736772122,0,0.1311,-0.7566,0.8,485,9.0332,-33.6914,12.085,86,1.1586,1.3006,5.9179,-40.0277,33,0.045,7959,3.8049,11.7775
lg,1624568655736791251,0,0.1838,-0.7715,0.8298,486,8.4229,-18.0664,-9.5215,86,1.1716,1.3016,4.5289,-39.7798,33,0.046,7999,3.8049,11.938
lg,1624568655736891117,0,0.1138,-0.7944,0.7744,487,11.1084,-10.8032,-24.231,86,1.1786,1.2976,3.2543,-39.5723,33,0.045,9057,3.8049,10.9046
lg,1624568655736914412,0,0.0569,-0.8049,0.7375,488,12.146,12.6343,-37.6587,86,1.1736,1.2916,2.4381,-39.4653,32,0.038,8574,3.8049,9.4023
lg,1624568655736935244,0,-0.1091,-0.8098,0.5566,489,14.2822,36.377,-39.5508,86,1.1676,1.2836,2.7055,-39.6058,32,0.038,8548,3.8049,7.2276
lg,1624568655736953688,0,-0.1345,-0.7158,0.6418,490,12.4512,30.6396,9.3994,86,1.1736,1.2846,4.0932,-39.4616,32,0.051,8490,3.8049,6.7194
lg,1624568655736972428,0,-0.0554,-0.728,0.7192,491,-2.5024,18.1885,37.5366,86,1.1886,1.2896,5.8385,-39.8317,32,0.055,8334,3.8049,7.7025
lg,1624568655736990594,0,-0.1418,-0.7217,0.8564,492,-6.1646,20.1416,49.8047,86,1.1856,1.2976,7.7832,-39.9582,32,0.043,8641,3.8049,8.717
lg,1624568655737008297,0,-0.3274,-0.5645,0.8818,493,-5.4932,1.0986,54.8096,86,1.1676,1.3026,9.5971,-39.6338,32,0.042,8432,3.8049,10.4307
lg,1624568655737025759,0,-0.4709,-0.592,0.8933,494,-33.0811,-68.9697,39.7949,86,1.1466,1.3046,9.0674,-40.2286,32,0.047,8475,3.8049,13.5015
lg,1624568655737043276,0,-0.2852,-0.6155,0.8965,495,-47.1191,-119.0186,42.9688,86,1.1386,1.3056,6.1534,-41.2024,32,0.051,8591,3.8049,18.0037
lg,1624568655737060442,0,0.1001,-0.8787,0.6997,496,-53.7109,-167.3584,15.8691,86,1.1326,1.3066,1.2201,-43.4189,32,0.049,8460,3.8049,22.9562
lg,1624568655737079812,0,0.6174,-0.9138,0.6785,497,-31.4331,-107.9102,21.6064,86,1.1286,1.3046,-2.3744,-45.0452,32,0.048,10572,3.8049,26.5952
lg,1624568655737098422,0,0.2622,-0.8376,0.6006,498,5.0659,49.4995,8.667,86,1.1286,1.3036,-1.2084,-45.1532,32,0.049,8316,3.8049,25.4468
lg,1624568655737116069,0,-0.0994,-0.6838,0.6345,499,16.4795,96.3135,3.9673,86,1.1296,1.3036,1.9057,-44.5789,32,0.05,8300,3.8049,22.8397
lg,1624568655737134143,0,-0.0974,-0.6555,0.6814,500,13.855,77.5146,9.1553,86,1.1316,1.3046,4.5229,-44.0952,32,0.049,8323,3.8049,20.9289
lg,1624568655737152253,0,-0.0515,-0.8357,0.7222,501,9.3384,58.5938,18.5547,86,1.1366,1.3066,6.6392,-44.0208,32,0.051,8377,3.8049,19.8067
lg,1624568655737169622,0,-0.0747,-0.7981,0.6587,502,17.8223,50.1099,22.2168,86,1.1436,1.3096,8.5922,-43.6556,32,0.054,8503,3.8049,19.0188
lg,1624568655737204010,0,-0.0837,-0.7422,0.6804,503,19.165,43.2129,21.3623,86,1.1546,1.3126,9.935,-43.15,33,0.057,8410,3.8049,18.7079
lg,1624568655737225527,0,0.0254,-0.741,0.7107,504,13.0615,7.4463,18.2495,86,1.1686,1.3146,10.2001,-42.6822,33,0.051,12650,3.8049,19.0208
lg,1624568655737244619,0,0.1096,-0.7402,0.7344,505,12.5732,3.9673,7.6904,86,1.1816,1.3156,9.8888,-42.2515,33,0.049,8988,3.8049,19.1215
lg,1624568655737275543,0,0.0637,-0.7744,0.7166,506,13.1226,8.4839,-1.0986,86,1.1896,1.3116,9.6571,-41.9711,33,0.051,8848,3.8049,18.4972
lg,1624568655737293913,0,0.0396,-0.7629,0.7009,507,16.1133,23.2544,-6.5918,86,1.1866,1.3046,9.7561,-41.6169,33,0.045,8854,3.8049,17.6402
lg,1624568655737311468,0,-0.0466,-0.7488,0.7637,508,16.8457,45.9595,-11.2305,86,1.1756,1.2946,10.54,-41.3265,33,0.048,8795,3.8049,16.04
lg,1624568655737328837,0,-0.2397,-0.7563,0.6592,509,19.104,42.1753,-1.6479,86,1.1746,1.2886,11.8747,-41.082,33,0.054,8987,3.8049,14.8011
lg,1624568655737346874,0,-0.207,-0.7053,0.6597,510,0.3052,2.9297,44.7998,86,1.1886,1.2956,13.1465,-41.0074,33,0.056,9049,3.8049,16.058
lg,1624568655737364002,0,-0.2637,-0.7117,0.8557,511,-14.7705,-11.2915,58.7769,86,1.1866,1.3056,14.3534,-41.0292,33,0.046,9358,3.8049,18.2005
lg,1624568655737381687,0,-0.4233,-0.5835,0.8127,512,-11.3525,-23.1323,65.3076,86,1.1606,1.3086,15.5806,-40.495,33,0.048,8686,3.8049,21.1261
lg,1624568656086757544,0,-0.0093,-0.8601,0.8428,513,-54.0771,-167.1143,36.9873,86,1.1235,1.2976,10.9452,-41.5507,33,0.047,24151,3.8049,26.7323
lg,1624568656086845818,0,0.5376,-0.9033,0.625,514,-34.2407,-136.2305,16.9678,86,1.1195,1.2926,6.0292,-42.7735,33,0.047,9050,3.8049,30.861
lg,1624568656086970739,0,0.2761,-0.9019,0.6782,515,-22.522,-54.5654,6.5308,86,1.1185,1.2906,5.4378,-43.1774,33,0.047,7982,3.8049,30.8616
lg,1624568656087048606,0,0.1682,-0.7639,0.6257,516,16.6016,37.9028,2.9297,86,1.1205,1.2916,6.0295,-42.8939,33,0.05,8079,3.8049,29.8752
lg,1624568656087078882,0,-0.0095,-0.6785,0.6418,517,20.0195,65.918,3.0518,86,1.1235,1.2936,7.8237,-42.4386,33,0.051,8076,3.8049,28.1452
lg,1624568656087108177,0,-0.0579,-0.7732,0.6965,518,18.6157,64.5142,4.7607,86,1.1306,1.2976,9.4779,-42.0929,33,0.051,8164,3.8049,26.6357
lg,1624568656087186026,0,-0.0811,-0.7446,0.6833,519,21.2402,55.2368,0.1221,86,1.1386,1.3016,10.9224,-41.7152,33,0.052,8106,3.8049,25.1012
lg,1624568656087215765,0,-0.0906,-0.7512,0.7192,520,24.0479,40.6494,-5.3711,86,1.1476,1.3056,11.7562,-41.1764,33,0.056,8069,3.8049,23.8022
lg,1624568656087244301,0,-0.0979,-0.7336,0.7114,521,23.8037,30.3345,-1.77,86,1.1556,1.3106,12.1822,-40.5772,32,0.059,8102,3.8049,23.1378
lg,1624568656087272781,0,-0.0801,-0.7383,0.7075,522,21.7896,17.5171,-0.7324,86,1.1656,1.3136,12.3902,-40.0296,32,0.059,8096,3.8049,22.6013
lg,1624568656087300817,0,0.0198,-0.6885,0.8223,523,19.4092,12.8174,0,86,1.1776,1.3146,12.2519,-39.3141,32,0.049,8166,3.8049,22.2638
lg,1624568656087330871,0,0.0366,-0.7092,0.7856,524,15.0757,11.0474,-9.3994,86,1.1866,1.3136,11.51,-39.0049,32,0.053,8094,3.8049,21.2826
lg,1624568656087358889,0,-0.0024,-0.7366,0.7612,525,15.625,14.4043,-25.9399,86,1.1876,1.3096,10.8561,-38.8074,33,0.047,8174,3.8049,20.0502
lg,1624568656087388832,0,-0.103,-0.7256,0.7373,526,11.9019,40.3442,-25.4517,86,1.1666,1.2916,11.263,-38.906,33,0.044,15916,3.8049,18.1673
lg,1624568656087419108,0,-0.2065,-0.7205,0.6799,527,11.2305,41.1377,-8.2397,86,1.1656,1.2836,12.35,-39.0244,33,0.05,8303,3.8049,16.7876
lg,1624568656087458884,0,-0.1614,-0.751,0.7249,528,2.2583,15.8081,43.6401,86,1.1756,1.2856,13.7959,-38.9822,32,0.054,8274,3.8049,17.7094
lg,1624568656087489476,0,-0.1614,-0.7234,0.8088,529,-7.2632,16.1743,59.082,86,1.1896,1.2926,15.5677,-39.0016,32,0.052,8296,3.8049,19.1574
lg,1624568656087517789,0,-0.3857,-0.6541,0.835,530,-11.7798,-1.8311,62.0728,86,1.1816,1.2986,17.2406,-38.8424,32,0.046,8289,3.8049,21.2288
lg,1624568656087546621,0,-0.6194,-0.5466,0.7305,531,-22.4609,-41.3818,71.0449,86,1.1556,1.3006,18.3898,-38.6118,32,0.05,9101,3.8049,24.6706
lg,1624568656087575176,0,-0.3137,-0.4624,1.0334,532,-36.9263,-82.2754,74.4019,86,1.1376,1.3006,16.0344,-38.2431,33,0.049,8643,3.8049,31.0098
lg,1624568656087605915,0,0.001,-0.6216,0.9092,533,-59.8755,-198.2422,64.0869,86,1.1286,1.2976,10.5379,-39.4085,33,0.049,9161,3.8049,38.0538
lg,1624568656087674245,0,0.6702,-1.0354,0.741,534,-59.1431,-212.4634,67.4438,86,1.1255,1.2966,4.449,-41.2891,33,0.049,8873,3.8049,45.5889
lg,1624568656087709725,0,0.7166,-1.0828,0.72,535,-24.4141,-53.1616,18.5547,86,1.1245,1.2966,2.1299,-42.652,33,0.049,8676,3.8049,47.5401
lg,1624568656087739798,0,0.3311,-0.8303,0.5867,536,14.6484,67.8711,-8.728,86,1.1276,1.2986,3.0986,-42.6074,33,0.05,8699,3.8049,45.4199
lg,1624568656087767852,0,-0.0212,-0.7156,0.5498,537,23.0103,98.0225,-17.7002,86,1.1316,1.3006,5.7148,-42.2476,33,0.052,8875,3.8049,41.8992
lg,1624568656087795907,0,-0.1216,-0.7029,0.5867,538,23.7427,110.0464,-16.8457,86,1.1386,1.3036,8.5825,-42.0354,33,0.054,8719,3.8049,38.3846
lg,1624568656087824794,0,-0.2305,-0.7461,0.6758,539,25.6958,86.9751,-8.728,86,1.1476,1.3076,11.0967,-41.6748,32,0.055,8851,3.8049,35.7284
lg,1624568656087851830,0,-0.1873,-0.7256,0.6763,540,27.2827,50.0488,-2.9907,86,1.1586,1.3116,12.4947,-41.0834,32,0.057,9240,3.8049,34.2422
lg,1624568656087877737,0,-0.1311,-0.6826,0.6562,541,25.0854,17.7612,-0.4272,86,1.1696,1.3156,12.8357,-40.3825,32,0.056,9003,3.8049,33.709
lg,1624568656087905754,0,-0.0261,-0.6733,0.741,542,19.4092,-4.6387,-2.4414,137,1.1826,1.3176,12.1833,-39.6651,33,0.044,9147,3.7653,33.7364
lg,1624568656087932253,0,0.0557,-0.6731,0.7781,543,11.5356,-17.2119,-16.7847,137,1.1936,1.3166,10.6277,-39.2603,33,0.047,10947,3.7653,33.6445
lg,1624568656087960103,0,0.0413,-0.7012,0.6636,544,13.7939,-2.9297,-21.0571,137,1.1976,1.3136,9.4939,-39.0965,33,0.045,8748,3.7653,33.0033
lg,1624568656431145583,0,-0.1985,-0.7512,0.7166,545,6.4087,10.7422,29.1138,137,1.2126,1.3176,10.6122,-39.0049,33,0.052,26439,3.7653,33.5987
lg,1624568656431197433,0,-0.1919,-0.6763,0.856,546,-2.5635,6.2256,51.6357,137,1.2046,1.3216,12.073,-38.7782,33,0.049,8784,3.7653,35.0825
lg,1624568656431217858,0,-0.3672,-0.5676,0.8809,547,0.2441,1.6479,53.5889,137,1.1836,1.3246,13.7418,-38.1536,33,0.046,9019,3.7653,36.8118
lg,1624568656431238005,0,-0.2192,-0.4963,1.0771,548,-25.2075,-64.5142,56.3354,137,1.1746,1.3236,12.9861,-37.8176,32,0.051,8529,3.7653,40.3998
lg,1624568656431264263,0,-0.1533,-0.6711,0.8342,549,-36.1938,-114.8071,39.7339,137,1.1686,1.3216,10.1796,-38.4533,32,0.049,8293,3.7653,44.5675
lg,1624568656431283429,0,0.3237,-0.8953,0.7571,550,-42.1143,-145.874,42.5415,137,1.1646,1.3196,5.779,-39.8548,32,0.049,8750,3.7653,49.5548
lg,1624568656431302040,0,0.3909,-0.9114,0.7373,551,-19.165,-48.1567,23.6816,137,1.1646,1.3186,4.0044,-40.8595,32,0.049,8442,3.7653,51.4972
lg,1624568656431352537,0,0.239,-0.7339,0.7007,552,0,4.8218,22.2778,137,1.1666,1.3186,4.9457,-40.5825,33,0.047,8324,3.7653,50.9971
lg,1624568656431372685,0,0.2007,-0.7258,0.7139,553,15.5029,54.8096,13.3057,137,1.1706,1.3206,6.3211,-40.2459,33,0.053,8762,3.7653,49.9527
lg,1624568656431391628,0,0.0308,-0.8145,0.7056,554,17.1509,74.4019,1.709,137,1.1786,1.3246,8.3135,-40.1443,33,0.055,8505,3.7653,48.025
lg,1624568656431410368,0,-0.1335,-0.7786,0.7283,555,23.3154,84.2896,-2.0142,137,1.1876,1.3276,10.7843,-39.8487,33,0.06,8507,3.7653,45.7219
lg,1624568656431428201,0,-0.2756,-0.739,0.6726,556,23.8037,75.8057,-3.418,137,1.2036,1.3306,12.7375,-39.551,32,0.059,8661,3.7653,43.9864
lg,1624568656431446682,0,-0.1943,-0.6692,0.7107,557,18.7988,15.3198,0.3052,137,1.2106,1.3296,12.9523,-38.9373,32,0.043,8463,3.7653,43.5843
lg,1624568656431464736,0,-0.0728,-0.7126,0.6953,558,5.3101,-19.6533,-7.9956,137,1.2096,1.3256,11.798,-38.9348,32,0.051,8191,3.7653,43.7771
lg,1624568656431482310,0,-0.0081,-0.7383,0.5464,559,4.7607,-24.5361,-8.3618,137,1.2006,1.3176,10.3966,-39.2469,32,0.048,8269,3.7653,44.0275
lg,1624568656431500327,0,0.0415,-0.7375,0.634,560,3.1128,-15.3198,-4.3335,137,1.1946,1.3126,10.0191,-39.6428,32,0.048,8245,3.7653,44.1513
lg,1624568656431518234,0,-0.0063,-0.8674,0.665,561,-4.2114,1.2817,25.2686,137,1.2026,1.3156,10.2629,-40.1413,32,0.05,9735,3.7653,44.8238
lg,1624568656431535844,0,-0.0693,-0.7629,0.7888,562,6.5308,24.292,51.9409,137,1.2096,1.3216,12.073,-39.8371,32,0.05,8588,3.7653,45.7774
lg,1624568656431553288,0,-0.373,-0.5708,0.7329,563,6.0425,23.9258,68.1763,137,1.1906,1.3256,14.9231,-39.1533,33,0.049,9142,3.7653,47.3303
lg,1624568656431570491,0,-0.4116,-0.4421,0.9133,564,-10.3149,-11.3525,79.2847,137,1.1686,1.3256,16.8452,-38.2641,33,0.055,8558,3.7653,50.3312
lg,1624568656431587731,0,-0.3501,-0.7004,0.9058,565,-22.7051,-49.4385,63.5376,137,1.1556,1.3226,14.7523,-38.488,33,0.049,8710,3.7653,54.4183
lg,1624568656431604767,0,0.0232,-0.822,0.9402,566,-45.166,-139.5874,58.8989,137,1.1446,1.3206,10.1063,-39.0149,33,0.049,9328,3.7653,59.9244
lg,1624568656431621896,0,0.4006,-0.8962,0.8337,567,-35.4004,-104.9194,36.1328,137,1.1396,1.3176,6.7391,-40.1598,33,0.052,8783,3.7653,63.712
lg,1624568656431639970,0,0.3284,-0.8596,0.8081,568,-4.4556,-6.7139,23.5596,137,1.1396,1.3146,6.2848,-40.4796,33,0.051,8802,3.7653,64.5809
lg,1624568656431656858,0,0.1282,-0.7268,0.7368,569,6.7139,50.9033,-2.9297,137,1.1426,1.3156,7.2239,-40.5327,33,0.054,11358,3.7653,63.1383
lg,1624568656431687134,0,-0.1848,-0.7407,0.658,570,13.916,79.2236,-9.2773,137,1.1466,1.3166,9.5095,-40.6204,33,0.052,8986,3.7653,60.7281
lg,1624568656431706467,0,-0.3269,-0.665,0.6731,571,19.8975,74.4019,-3.1128,137,1.1546,1.3206,12.0542,-40.3563,33,0.058,9679,3.7653,58.638
lg,1624568656431724558,0,-0.3062,-0.7117,0.7063,572,9.6436,23.6816,2.0142,137,1.1626,1.3226,13.0182,-40.2728,33,0.061,8680,3.7653,58.0342
lg,1624568656431741891,0,-0.1855,-0.8044,0.637,573,4.3335,-20.752,3.1738,137,1.1706,1.3256,12.3679,-40.3981,33,0.06,8672,3.7653,58.5852
lg,1624568656431759242,0,-0.124,-0.7922,0.6375,574,6.5918,-26.062,7.1411,137,1.1796,1.3286,11.5544,-40.3668,33,0.062,8678,3.7653,59.408
lg,1624568656431776297,0,-0.0403,-0.7793,0.6401,575,10.376,-24.9634,10.9253,137,1.1896,1.3296,10.7182,-40.1608,33,0.058,8718,3.7653,60.3244
lg,1624568656431793463,0,0.1221,-0.7444,0.7546,576,14.2822,-32.4097,3.8452,137,1.1996,1.3286,9.1515,-39.5933,33,0.052,9076,3.7653,61.2537
lg,1624568656776789180,0,0.158,-0.8625,0.6814,577,13.6108,16.4185,-44.3726,137,1.1706,1.2986,7.8511,-39.7845,33,0.043,25712,3.7653,59.3749
lg,1624568656776828900,0,-0.0876,-0.8186,0.5413,578,18.7988,41.0767,-47.4854,137,1.1656,1.2876,8.7627,-39.7706,33,0.042,8962,3.7653,56.5711
lg,1624568656776849621,0,-0.136,-0.7305,0.6064,579,31.4331,67.2607,-1.77,137,1.1706,1.2886,10.7622,-39.2274,33,0.049,8138,3.7653,54.7124
lg,1624568656776869121,0,-0.1257,-0.6152,0.7446,580,16.1133,58.0444,45.5322,137,1.1816,1.2946,13.5668,-38.5973,33,0.056,8456,3.7653,54.662
lg,1624568656776887268,0,-0.3352,-0.6221,0.9211,581,6.897,40.3442,54.3823,137,1.1876,1.3026,16.2981,-37.9439,33,0.045,8395,3.7653,55.4348
lg,1624568656776905823,0,-0.4597,-0.5388,0.9082,582,4.8828,20.3247,53.4668,137,1.1786,1.3056,18.5262,-37.0857,33,0.042,8227,3.7653,56.7732
lg,1624568656776923822,0,-0.7036,-0.4946,0.9573,583,-17.7002,-36.499,43.1519,137,1.1616,1.3096,18.9757,-36.6746,33,0.046,8560,3.7653,59.2727
lg,1624568656776942617,0,-0.4866,-0.5842,0.8962,584,-47.7295,-148.3765,52.002,137,1.1426,1.3106,15.7021,-36.8033,33,0.048,8549,3.7653,64.7887
lg,1624568656776989708,0,0.2878,-0.7253,0.915,585,-61.4014,-197.6929,45.7764,137,1.1346,1.3126,9.4462,-37.9136,33,0.044,9973,3.7653,71.185
lg,1624568656777011225,0,0.7183,-0.9224,0.6155,586,-20.9961,-66.2842,26.6113,137,1.1316,1.3086,6.5263,-38.9954,33,0.044,17881,3.7653,73.6059
lg,1624568656777047150,0,0.3069,-0.8354,0.6172,587,7.5073,66.8335,0.9155,137,1.1326,1.3076,7.7294,-39.4465,33,0.045,8248,3.7653,71.8659
lg,1624568656777066205,0,-0.0967,-0.771,0.5723,588,13.6719,93.6279,-4.0283,137,1.1346,1.3076,10.6733,-39.7857,33,0.048,8219,3.7653,68.9165
lg,1624568656777086407,0,-0.1648,-0.7466,0.6021,589,16.8457,95.5811,-3.9673,137,1.1386,1.3086,13.4549,-40.104,33,0.051,8329,3.7653,66.1943
lg,1624568656777107092,0,-0.2036,-0.7666,0.6099,590,16.6626,66.1011,11.4746,137,1.1436,1.3086,15.6987,-40.2352,33,0.052,9754,3.7653,64.685
lg,1624568656777127091,0,-0.1582,-0.7634,0.543,591,17.0288,34.3628,27.4048,137,1.1456,1.3106,17.2229,-40.1391,33,0.057,8525,3.7653,64.4734
lg,1624568656777146201,0,-0.0774,-0.7246,0.605,592,13.1226,11.6577,34.1797,137,1.1476,1.3116,17.9694,-39.7811,33,0.056,8461,3.7653,65.133
lg,1624568656777166441,0,-0.0374,-0.7544,0.6504,593,11.1084,2.9297,36.5601,137,1.1516,1.3126,18.3777,-39.375,33,0.059,8441,3.7653,66.1163
lg,1624568656777187755,0,0.0986,-0.6714,0.7864,594,21.3013,5.7373,37.3535,137,1.1596,1.3136,18.5705,-38.2241,33,0.058,8434,3.7653,67.1668
lg,1624568656777210421,0,0.1636,-0.6077,0.854,595,31.7993,14.5874,24.1699,137,1.1756,1.3156,18.5693,-36.6975,33,0.048,8635,3.7653,67.6228
lg,1624568656777230697,0,0.0156,-0.6318,0.916,596,23.9258,22.644,-18.3105,137,1.1916,1.3166,18.1043,-36.0216,33,0.05,9101,3.7653,66.4597
lg,1624568656777248660,0,-0.0837,-0.6526,0.9258,597,20.752,24.9023,-36.8042,137,1.1936,1.3116,17.5355,-36.0052,33,0.04,8682,3.7653,64.2658
lg,1624568656777270677,0,-0.2607,-0.7534,0.917,598,16.9678,28.3203,-49.3774,137,1.1786,1.3016,17.0775,-36.1625,33,0.039,8911,3.7653,61.8562
lg,1624568656777292787,0,-0.3735,-0.7283,0.6816,599,15.9302,23.6816,-44.8608,137,1.1706,1.2926,16.9164,-36.5462,33,0.033,8711,3.7653,59.6378
lg,1624568656777331434,0,-0.3403,-0.6611,0.8164,600,2.0142,0.1221,-0.3052,137,1.1706,1.2886,16.9504,-36.5569,33,0.038,8836,3.7653,59.599
lg,1624568656777354229,0,-0.1736,-0.728,0.7778,601,-11.0474,-48.3398,30.0293,137,1.1796,1.2916,15.8176,-36.6317,33,0.049,9126,3.7653,61.7318
lg,1624568656777376673,0,-0.2021,-0.6943,0.8132,602,-13.7329,-45.166,35.2173,137,1.1926,1.2976,15.1082,-36.649,33,0.053,8594,3.7653,64.0024
lg,1624568656777396153,0,-0.2524,-0.6243,0.7981,603,-16.7847,-63.2324,54.6875,137,1.1936,1.3036,14.3422,-36.5055,33,0.047,8631,3.7653,67.3664
lg,1624568656777418171,0,-0.2717,-0.6267,0.8359,604,-31.189,-94.7876,49.6216,137,1.1826,1.3076,12.507,-36.8328,33,0.042,8694,3.7653,71.3324
lg,1624568656777439096,0,-0.0513,-0.7742,0.772,605,-47.6074,-147.583,42.7856,137,1.1676,1.3096,8.5033,-38.1339,33,0.043,9662,3.7653,76.302
lg,1624568656777457410,0,0.3723,-0.9055,0.7886,606,-46.2646,-133.1177,45.8984,137,1.1596,1.3096,4.5608,-39.8306,33,0.046,8782,3.7653,81.0632
lg,1624568656777520204,0,0.4084,-0.9834,0.5667,607,-24.4141,-47.0581,16.7236,137,1.1546,1.3096,2.6489,-41.4256,33,0.045,9258,3.7653,82.754
lg,1624568656777542240,0,0.3416,-0.8259,0.5591,608,5.0049,19.3481,13.855,137,1.1526,1.3096,2.7607,-41.7595,33,0.047,9272,3.7653,82.6284
lg,1624568657119144920,0,0.0115,-0.7329,0.6631,609,15.686,73.6694,9.0332,137,1.1556,1.3126,5.0557,-41.4805,33,0.048,24911,3.7653,80.9204
lg,1624568657119199085,0,-0.0237,-0.7087,0.678,610,19.2261,65.4907,13.0615,137,1.1586,1.3146,7.2127,-41.0373,33,0.05,9143,3.7653,79.5561
lg,1624568657119220806,0,-0.0745,-0.7114,0.7576,611,21.9116,62.561,16.7847,137,1.1666,1.3176,9.4116,-40.4038,33,0.056,8227,3.7653,78.4048
lg,1624568657119241083,0,-0.0889,-0.7009,0.7966,612,21.4233,45.7764,14.7095,137,1.1756,1.3216,10.9987,-39.7081,33,0.055,9594,3.7653,77.655
lg,1624568657119260693,0,-0.0435,-0.6797,0.7944,613,21.1792,35.2783,11.1694,137,1.1896,1.3246,11.9661,-38.9552,33,0.051,8423,3.7653,77.0922
lg,1624568657119280285,0,0.0276,-0.6733,0.8369,614,16.7847,24.8413,-2.8076,137,1.2036,1.3266,12.1372,-38.4224,33,0.034,8377,3.7653,76.3654
lg,1624568657119299173,0,-0.0454,-0.7244,0.7415,615,12.3291,27.3438,-19.7144,137,1.2116,1.3246,12.2702,-38.5727,33,0.045,9069,3.7653,74.8754
lg,1624568657119318765,0,-0.1721,-0.6606,0.6948,616,11.4746,39.5508,-17.0898,137,1.2076,1.3216,12.9897,-38.6451,33,0.043,8568,3.7653,73.2738
lg,1624568657119336820,0,-0.2361,-0.6699,0.7666,617,6.1035,41.3818,-10.0098,137,1.2076,1.3196,14.1017,-38.811,33,0.045,8148,3.7653,71.8658
lg,1624568657119354801,0,-0.2791,-0.7607,0.7446,618,-6.958,9.9487,18.0664,137,1.2156,1.3226,14.8871,-39.2672,33,0.051,8148,3.7653,72.1213
lg,1624568657119374244,0,-0.2551,-0.6826,0.8687,619,-12.0239,-5.6763,36.438,137,1.2226,1.3256,15.5568,-39.3461,33,0.051,8161,3.7653,73.4516
lg,1624568657119391910,0,-0.2429,-0.6814,0.876,620,-17.334,-26.001,51.8799,137,1.2116,1.3286,15.9404,-39.3292,33,0.044,9355,3.7653,75.8217
lg,1624568657119409984,0,-0.2388,-0.6335,0.8591,621,-20.6299,-34.0576,50.8423,137,1.1946,1.3306,16.0451,-39.3254,33,0.044,8550,3.7653,78.3912
lg,1624568657119427372,0,-0.0879,-0.6655,0.8579,622,-33.3252,-69.1528,44.1284,137,1.1836,1.3296,14.5928,-39.726,33,0.047,8848,3.7653,81.651
lg,1624568657119445760,0,-0.0205,-0.8621,0.6558,623,-38.8184,-77.2705,12.146,137,1.1776,1.3276,12.0496,-41.2258,33,0.046,8641,3.7653,83.9713
lg,1624568657119463296,0,0.2068,-0.8225,0.7012,624,-26.3062,-60.6079,14.5874,137,1.1726,1.3246,9.7571,-42.1985,33,0.048,8562,3.7653,85.9989
lg,1624568657119481610,0,0.1555,-0.7993,0.6316,625,-19.8975,-26.7944,6.2256,137,1.1706,1.3206,9.5979,-42.9124,33,0.047,8846,3.7653,86.0306
lg,1624568657119527053,0,0.0061,-0.7817,0.6204,626,-0.1831,23.4985,11.2915,137,1.1716,1.3196,10.1988,-43.3103,32,0.048,8866,3.7653,85.6549
lg,1624568657119547256,0,-0.0376,-0.7197,0.5984,627,9.7656,36.7432,13.5498,137,1.1736,1.3206,11.322,-43.3064,32,0.05,8706,3.7653,84.9779
lg,1624568657119565088,0,-0.0361,-0.7385,0.6172,628,14.4043,38.0249,17.4561,137,1.1786,1.3236,12.541,-43.1087,32,0.048,9568,3.7653,84.3761
lg,1624568657119582680,0,-0.0547,-0.7766,0.6069,629,14.5264,24.4751,17.0898,137,1.1846,1.3266,13.3526,-42.9164,33,0.051,9188,3.7653,84.1231
lg,1624568657119600531,0,-0.0386,-0.7339,0.6348,630,19.7754,17.5171,18.8599,137,1.1936,1.3296,13.9404,-42.3509,33,0.051,8799,3.7653,84.1437
lg,1624568657119618660,0,0.0793,-0.7424,0.739,631,22.644,9.8877,19.7144,137,1.2046,1.3317,14.0453,-41.4716,33,0.055,10712,3.7653,84.442
lg,1624568657119637697,0,0.1628,-0.7141,0.7869,632,22.8882,10.0708,16.2964,137,1.2176,1.3327,13.7022,-40.5293,33,0.047,8515,3.7653,84.3076
lg,1624568657119655640,0,0.1199,-0.7471,0.8025,633,20.5078,19.2871,-5.6763,137,1.2236,1.3306,13.3645,-39.9624,33,0.052,8583,3.7653,83.5888
lg,1624568657119672436,0,-0.1133,-0.7383,0.697,634,23.5596,41.3818,-14.8926,137,1.2166,1.3236,14.2479,-39.7586,33,0.044,11879,3.7653,81.6458
lg,1624568657119690380,0,-0.2046,-0.7034,0.7031,635,21.1792,56.3965,-12.146,137,1.2106,1.3196,15.7751,-39.5048,33,0.043,9136,3.7653,79.7398
lg,1624568657119707768,0,-0.3613,-0.7144,0.7961,636,6.5308,40.8325,15.564,137,1.2196,1.3206,17.5351,-39.4953,33,0.054,9757,3.7653,79.1301
lg,1624568657119724749,0,-0.2412,-0.7029,0.7917,637,-4.2114,-1.77,50.1709,137,1.2266,1.3256,18.5622,-39.2178,33,0.052,9287,3.7653,80.7832
lg,1624568657119741840,0,-0.2822,-0.5845,0.8901,638,-6.1646,2.7466,56.3965,137,1.2086,1.3296,19.9148,-38.6244,33,0.049,9128,3.7653,82.6452
lg,1624568657119758877,0,-0.4429,-0.5632,0.8218,639,-16.4185,-28.5645,49.7437,137,1.1876,1.3306,20.4184,-38.2728,33,0.047,9386,3.7653,85.1221
lg,1624568657119776061,0,-0.1455,-0.5571,0.9797,640,-36.0107,-96.5576,25.0854,137,1.1816,1.3296,17.5153,-38.2473,32,0.042,9241,3.7653,88.6174
lg,1624568657465832296,0,0.1091,-0.7932,0.6807,641,-23.7427,-61.0962,3.54,137,1.1746,1.3256,14.8112,-39.1616,32,0.045,24868,3.7653,90.1983
lg,1624568657465870424,0,0.061,-0.7471,0.6675,642,-6.2866,-18.1274,5.7373,137,1.1746,1.3236,13.6911,-39.6082,33,0.048,9092,3.7653,90.766
lg,1624568657465891682,0,0.0627,-0.7473,0.6206,643,-0.5493,0.3052,-0.7935,137,1.1756,1.3226,13.0085,-40.0591,33,0.049,8195,3.7653,90.6336
lg,1624568657465934829,0,-0.0923,-0.7661,0.6572,644,8.1177,27.4658,0.4272,137,1.1796,1.3236,13.5507,-40.2654,33,0.051,8603,3.7653,89.8337
lg,1624568657465954513,0,-0.1011,-0.7588,0.6521,645,11.4746,19.5923,5.0659,137,1.1846,1.3246,13.9727,-40.2499,33,0.05,10198,3.7653,89.385
lg,1624568657465973068,0,-0.0427,-0.825,0.6555,646,11.5967,3.479,7.2021,137,1.1886,1.3256,13.813,-40.2028,33,0.052,8336,3.7653,89.4082
lg,1624568657465991197,0,0.0183,-0.8069,0.6311,647,15.5029,-3.2959,8.5449,137,1.1946,1.3276,13.3599,-39.9674,33,0.054,8058,3.7653,89.6496
lg,1624568657466009196,0,0.021,-0.7441,0.6116,648,20.2026,-2.8687,10.5591,137,1.1986,1.3286,12.9763,-39.4884,33,0.055,8079,3.7653,89.9568
lg,1624568657466026936,0,0.0413,-0.7383,0.6138,649,21.9116,-2.5024,11.7798,137,1.2036,1.3296,12.6578,-38.8738,33,0.06,9409,3.7653,90.3525
lg,1624568657466044861,0,0.0544,-0.7065,0.6245,650,24.5972,-1.6479,14.7095,137,1.2086,1.3306,12.3531,-38.1622,33,0.06,8317,3.7653,90.7763
lg,1624568657466062064,0,0.0713,-0.7039,0.7026,651,27.771,5.3711,16.1743,137,1.2136,1.3317,12.2767,-37.2409,33,0.059,9190,3.7653,91.1
lg,1624568657466079471,0,0.0388,-0.6875,0.7207,652,31.5552,14.5264,17.7002,137,1.2186,1.3327,12.5958,-36.1846,33,0.06,8356,3.7356,91.2635
lg,1624568657466096915,0,0.0083,-0.6245,0.7485,653,33.6914,20.6909,18.1274,169,1.2226,1.3317,13.1724,-34.9565,33,0.061,8426,3.7356,91.3351
lg,1624568657466114580,0,-0.0266,-0.6338,0.7578,654,33.9966,22.9492,14.5874,169,1.2276,1.3317,13.8718,-33.7762,33,0.061,8780,3.7356,91.2524
lg,1624568657466132783,0,-0.0649,-0.6064,0.7585,655,35.8276,23.4375,14.0991,169,1.2296,1.3306,14.6117,-32.5348,33,0.06,9990,3.7356,91.1612
lg,1624568657466150875,0,-0.0979,-0.6096,0.7637,656,36.8042,23.0103,17.5171,169,1.2306,1.3286,15.4094,-31.2775,33,0.062,9431,3.7356,91.2059
lg,1624568657466168504,0,-0.1213,-0.6211,0.7605,657,37.3535,24.7192,15.4419,169,1.2306,1.3266,16.2437,-30.0971,33,0.061,8727,3.7356,91.1426
lg,1624568657466185578,0,-0.1213,-0.6245,0.7249,658,39.978,29.541,16.6016,169,1.2296,1.3246,17.2469,-28.9316,33,0.062,8635,3.7356,91.0111
lg,1624568657466215799,0,-0.1648,-0.6077,0.6992,659,43.457,36.5601,16.6626,169,1.2266,1.3216,18.573,-27.7177,33,0.062,9672,3.7356,90.7475
lg,1624568657466234761,0,-0.1846,-0.5986,0.6921,660,45.8984,40.0391,16.1133,169,1.2236,1.3196,20.1238,-26.4036,33,0.062,8572,3.7356,90.3377
lg,1624568657466252223,0,-0.1909,-0.6096,0.7112,661,49.6826,45.2881,13.0005,169,1.2186,1.3176,21.6545,-25.1227,33,0.061,8445,3.7356,89.7884
lg,1624568657466269926,0,-0.2263,-0.613,0.7173,662,49.4995,36.5601,10.8643,169,1.2146,1.3156,22.8632,-23.8628,33,0.064,8457,3.7356,89.321
lg,1624568657466287203,0,-0.2563,-0.6091,0.72,663,48.0957,15.7471,7.3853,169,1.2116,1.3136,23.2851,-22.6008,33,0.064,8510,3.7356,89.0809
lg,1624568657466305165,0,-0.2554,-0.5957,0.7231,664,45.8374,0.8545,4.9438,169,1.2086,1.3126,22.6161,-21.2853,33,0.064,8933,3.7356,89.3089
lg,1624568657466323591,0,-0.2241,-0.5654,0.7305,665,42.4194,-26.7944,9.2773,169,1.2066,1.3136,21.426,-19.9707,33,0.064,8748,3.7356,89.8286
lg,1624568657466341275,0,-0.1741,-0.5898,0.7195,666,39.4287,-47.9126,13.6108,169,1.2056,1.3126,19.4237,-18.7566,33,0.064,9053,3.7356,90.7631
lg,1624568657466358885,0,-0.0769,-0.5977,0.731,667,42.6025,-61.9507,17.4561,169,1.2046,1.3136,16.7629,-17.4207,33,0.065,9066,3.7356,91.9879
lg,1624568657466376459,0,0.0017,-0.6523,0.7285,668,43.0908,-61.0352,19.8364,169,1.2036,1.3136,14.0659,-16.2674,33,0.067,9003,3.7356,93.2229
lg,1624568657466394051,0,0.062,-0.6731,0.7241,669,44.6167,-53.894,20.752,169,1.2056,1.3146,11.9301,-15.0581,33,0.068,8889,3.7356,94.1707
lg,1624568657466411143,0,0.1011,-0.7046,0.7139,670,54.9316,-32.6538,18.0054,169,1.2056,1.3146,10.7281,-13.6915,33,0.068,9449,3.7356,94.6844
lg,1624568657466428383,0,0.114,-0.6897,0.7239,671,68.9087,-1.4038,11.2305,169,1.2056,1.3156,10.1587,-12.0021,33,0.069,9138,3.7356,94.9185
lg,1624568657466446419,0,0.0676,-0.5916,0.6987,672,93.9941,45.5933,6.7139,169,1.2066,1.3146,11.4798,-9.3597,33,0.069,9026,3.7356,94.6356
lg,1624568657842349501,0,-0.4426,-0.4392,0.8508,673,98.0225,67.0776,-1.4038,169,1.2056,1.3156,14.662,-6.1955,33,0.065,25819,3.7356,94.0901
lg,1624568657842412350,0,-0.5229,-0.4509,0.9392,674,80.0781,-44.6167,-16.1743,169,1.2036,1.3156,13.3345,-3.817,33,0.065,15338,3.7356,93.4205
lg,1624568657842434312,0,-0.4866,-0.4629,0.9355,675,73.5474,-82.6416,-18.3105,169,1.2036,1.3166,8.8764,-2.1324,33,0.065,8629,3.7356,92.6789
lg,1624568657842454719,0,-0.2063,-0.5061,0.9146,676,55.0537,-181.2744,-19.2261,169,1.2046,1.3166,1.7685,-0.9972,33,0.067,11030,3.7356,91.952
lg,1624568657842494902,0,-0.0986,-0.5005,0.9182,677,49.5605,-198.6084,-20.813,169,1.2056,1.3176,-5.9934,-0.0376,33,0.067,8538,3.7356,91.1614
lg,1624568657842516124,0,0.1086,-0.5149,0.9275,678,48.1567,-193.7866,-8.728,169,1.2076,1.3176,-13.7268,0.8442,33,0.068,7806,3.7356,90.8691
lg,1624568657842535364,0,0.2854,-0.54,0.9026,679,52.2461,-168.7012,0.4883,169,1.2096,1.3176,-20.5739,1.7644,33,0.068,8970,3.7356,91.0159
lg,1624568657842555566,0,0.4321,-0.4844,0.9421,680,57.0679,-144.8975,2.3804,169,1.2126,1.3176,-25.2468,3.1464,33,0.068,8994,3.7356,91.4246
lg,1624568657842582880,0,0.4795,-0.4807,0.9712,681,66.7114,-78.7354,6.2866,169,1.2146,1.3166,-28.4315,4.6698,33,0.068,9642,3.7356,91.9449
lg,1624568657842602213,0,0.4253,-0.4485,1.0186,682,73.1201,-8.728,1.709,169,1.2166,1.3166,-28.6098,6.4135,33,0.067,9003,3.7356,92.5398
lg,1624568657842620990,0,0.2778,-0.46,1.0405,683,79.4678,39.7339,-2.5024,169,1.2166,1.3156,-26.592,8.267,33,0.067,8212,3.7356,93.2727
lg,1624568657842639082,0,0.1162,-0.4006,1.0686,684,82.4585,61.1572,-11.8408,169,1.2186,1.3156,-23.4372,10.3777,33,0.066,9821,3.7356,93.7532
lg,1624568657842657192,0,-0.0415,-0.3767,1.1216,685,78.6743,47.9126,-16.4795,169,1.2206,1.3166,-20.5792,12.4299,33,0.066,9166,3.7356,93.9589
lg,1624568657842677524,0,-0.0378,-0.3499,1.1509,686,74.0356,32.1045,-18.1274,169,1.2216,1.3166,-18.3869,14.3429,33,0.064,8492,3.7356,93.9588
lg,1624568657842695931,0,-0.0825,-0.4058,1.1416,687,61.7065,-4.0894,-25.2686,169,1.2216,1.3156,-17.5455,15.8004,33,0.064,8640,3.7356,93.3208
lg,1624568657842713523,0,0.0132,-0.4055,1.1494,688,57.1289,-32.959,-21.6064,169,1.2226,1.3156,-18.0271,17.0847,33,0.066,9487,3.7356,92.4821
lg,1624568657842730411,0,0.1135,-0.3645,1.0498,689,56.0913,-44.5557,-19.3481,169,1.2236,1.3166,-19.1396,18.3379,33,0.066,8700,3.7356,91.5751
lg,1624568657842749392,0,0.1545,-0.2966,1.0122,690,57.9834,-33.02,-11.2305,169,1.2236,1.3156,-19.9439,19.5914,33,0.067,8975,3.7356,91.1206
lg,1624568657842767095,0,0.1558,-0.2363,1.0234,691,53.894,-31.9824,-8.728,169,1.2226,1.3146,-20.7338,20.5639,33,0.067,9005,3.7356,90.8952
lg,1624568657842798983,0,0.2046,-0.2126,1.0813,692,43.5791,-26.2451,-0.4883,169,1.2236,1.3136,-21.3233,20.7329,33,0.067,10127,3.7356,91.1652
lg,1624568657842817574,0,0.2244,-0.2834,1.176,693,33.2642,-21.5454,3.418,169,1.2226,1.3126,-21.8858,20.7736,33,0.067,8971,3.7356,91.4706
lg,1624568657842836203,0,0.1924,-0.3035,1.2092,694,31.4331,-11.0474,4.0894,169,1.2236,1.3126,-21.9864,20.6426,33,0.067,8362,3.7356,91.9871
lg,1624568657842854536,0,0.1904,-0.3013,1.1948,695,29.48,-2.8687,7.9346,169,1.2236,1.3116,-21.8317,20.3318,32,0.067,9042,3.7356,92.7854
lg,1624568657842872776,0,0.1885,-0.303,1.1611,696,25.7568,5.0049,8.7891,169,1.2246,1.3106,-21.403,19.8156,32,0.067,9078,3.7356,93.733
lg,1624568657842890016,0,0.1858,-0.3086,1.1528,697,24.353,9.4604,8.9722,169,1.2246,1.3106,-20.7819,19.1955,32,0.068,9108,3.7356,94.7494
lg,1624568657842907386,0,0.1262,-0.3467,1.1179,698,23.2544,18.4326,9.5825,169,1.2266,1.3096,-19.7878,18.4693,33,0.069,9114,3.7356,95.9006
lg,1624568657842925126,0,0.0518,-0.3069,1.072,699,23.8037,23.1323,8.9722,169,1.2246,1.3096,-18.4844,17.8392,33,0.068,9721,3.7356,97.0297
lg,1624568657842942217,0,-0.0193,-0.2944,1.0427,700,22.2778,12.085,6.6528,169,1.2266,1.3096,-17.463,17.274,33,0.068,10222,3.7356,97.8704
lg,1624568657842961383,0,-0.0347,-0.2725,1.0381,701,16.6016,-15.686,8.2397,169,1.2266,1.3096,-17.5045,16.6316,33,0.068,9195,3.7356,98.387
lg,1624568657842982531,0,0.009,-0.2676,1.0383,702,10.6812,-41.687,8.606,169,1.2266,1.3096,-18.6232,15.8666,33,0.068,9191,3.7356,98.613
lg,1624568657843001493,0,0.0601,-0.2769,1.0349,703,6.958,-58.7769,11.9019,169,1.2266,1.3096,-20.4995,14.9677,33,0.069,9662,3.7356,98.8286
lg,1624568657843023010,0,0.1292,-0.2786,1.0308,704,5.6763,-70.4346,13.916,169,1.2266,1.3086,-22.92,14.0421,33,0.068,9642,3.7356,99.0735
lg,1624568658260295408,0,0.2925,-0.3115,1.0098,705,4.9438,-63.0493,19.043,169,1.2276,1.3106,-25.4208,12.9613,33,0.069,25681,3.7356,99.7122
lg,1624568658260385146,0,0.3635,-0.2876,1.0125,706,11.9019,-20.5078,20.9961,169,1.2286,1.3096,-26.2524,11.972,33,0.07,13972,3.7356,100.9245
lg,1624568658260409756,0,0.3643,-0.2412,1.0417,707,13.7329,6.7749,15.625,169,1.2286,1.3096,-25.8998,11.1789,33,0.07,8666,3.7356,102.119
lg,1624568658260430811,0,0.2996,-0.2397,1.0945,708,12.5732,22.8882,11.0474,169,1.2286,1.3096,-24.7283,10.4233,33,0.07,9034,3.7356,103.2158
lg,1624568658260450606,0,0.2466,-0.2476,1.1116,709,10.8032,27.4048,10.2539,169,1.2286,1.3086,-23.1489,9.6108,33,0.07,8639,3.7356,104.2901
lg,1624568658260470309,0,0.1819,-0.26,1.1594,710,8.8501,30.2124,9.9487,169,1.2286,1.3086,-21.5171,8.8042,33,0.07,8702,3.7356,105.2861
lg,1624568658260489364,0,0.1272,-0.2415,1.0928,711,6.1035,26.123,15.1367,169,1.2286,1.3066,-20.0359,7.8873,33,0.07,9786,3.7356,106.4098
lg,1624568658260508622,0,0.1279,-0.2207,1.0505,712,3.9673,20.3857,20.0195,169,1.2276,1.3076,-18.8524,6.9196,33,0.07,9304,3.7356,107.6397
lg,1624568658260526992,0,0.1477,-0.249,0.9988,713,2.5635,18.4326,25.0244,169,1.2296,1.3076,-17.8537,5.8192,33,0.069,8557,3.7356,109.0469
lg,1624568658260545028,0,0.1545,-0.2825,0.9919,714,3.1738,20.9961,24.1699,169,1.2296,1.3066,-16.784,4.7513,33,0.07,8994,3.7356,110.4033
lg,1624568658260562620,0,0.1506,-0.2612,1.03,715,3.8452,20.9351,23.1934,169,1.2296,1.3066,-15.5392,3.9492,33,0.07,9391,3.7356,111.5358
lg,1624568658260579860,0,0.1282,-0.2415,1.0066,716,5.6763,24.6582,18.9209,169,1.2306,1.3066,-14.2943,3.259,33,0.07,8392,3.7356,112.5692
lg,1624568658260597545,0,0.1055,-0.2163,1.0164,717,7.1411,23.7427,15.3809,169,1.2306,1.3066,-13.0619,2.7696,33,0.07,9459,3.7356,113.4045
lg,1624568658260616600,0,0.083,-0.2026,0.988,718,8.3618,20.3247,12.3291,169,1.2306,1.3066,-11.9579,2.4112,33,0.071,8877,3.7356,114.0771
lg,1624568658260635136,0,0.0471,-0.1809,1.0234,719,5.7983,16.2964,11.2305,169,1.2306,1.3066,-10.965,2.0479,33,0.071,11544,3.7356,114.6642
lg,1624568658260653580,0,0.0134,-0.2051,1.0398,720,2.9907,9.3384,12.0239,169,1.2306,1.3056,-10.213,1.5477,33,0.071,8533,3.7356,115.2648
lg,1624568658260672746,0,0.0134,-0.2527,1.0596,721,0.9155,-5.4321,13.0615,169,1.2306,1.3056,-10.0764,0.8965,33,0.071,8918,3.7356,115.8953
lg,1624568658260710967,0,0.053,-0.2671,1.0383,722,0.9155,-13.6719,13.3667,169,1.2316,1.3056,-10.4729,0.21,32,0.071,8869,3.7356,116.5432
lg,1624568658260734021,0,0.1299,-0.292,1.0112,723,1.77,-18.6768,14.5264,169,1.2316,1.3056,-11.093,-0.4742,32,0.071,8918,3.7356,117.254
lg,1624568658260753409,0,0.1741,-0.3047,1.02,724,3.6011,-13.4888,13.0005,169,1.2316,1.3046,-11.5656,-1.0716,32,0.071,9865,3.7356,117.915
lg,1624568658260772427,0,0.1702,-0.283,1.0203,725,5.6763,-4.4556,10.9863,169,1.2316,1.3046,-11.6476,-1.506,32,0.07,9237,3.7356,118.4827
lg,1624568658260791445,0,0.1396,-0.262,1.0266,726,7.0801,3.6621,10.8643,169,1.2316,1.3036,-11.3333,-1.8196,32,0.071,8882,3.7356,119.025
lg,1624568658260810833,0,0.1145,-0.2397,1.0208,727,6.897,6.2256,11.1694,169,1.2316,1.3036,-10.8739,-2.0842,32,0.072,9248,3.7356,119.561
lg,1624568658260830684,0,0.0808,-0.2153,1.0232,728,5.3711,5.3711,11.2915,169,1.2316,1.3036,-10.4022,-2.3713,32,0.071,9203,3.7356,120.1657
lg,1624568658260849443,0,0.0615,-0.2175,1.0393,729,4.8218,4.3945,15.3809,169,1.2316,1.3046,-9.923,-2.6649,33,0.071,8722,3.7356,120.8504
lg,1624568658260868868,0,0.0569,-0.2314,1.0325,730,2.6245,1.9531,16.5405,169,1.2316,1.3046,-9.5448,-3.0701,33,0.071,8952,3.7356,121.5851
lg,1624568658260886534,0,0.0645,-0.2192,1.0327,731,2.7466,-2.5024,16.6016,169,1.2316,1.3046,-9.3694,-3.4268,33,0.071,9190,3.7356,122.3218
lg,1624568658260904126,0,0.0471,-0.2107,1.0183,732,2.1362,-7.8125,15.3809,169,1.2316,1.3046,-9.3753,-3.7752,33,0.071,8835,3.7356,123.0175
lg,1624568658260922366,0,0.0425,-0.2004,1.0356,733,1.3428,-10.5591,14.7705,169,1.2316,1.3046,-9.6324,-4.1583,33,0.07,9268,3.7356,123.7841
lg,1624568658260940662,0,0.0366,-0.2231,1.0332,734,-0.8545,-19.4702,15.3198,169,1.2316,1.3046,-10.0583,-4.6288,33,0.071,8878,3.7356,124.518
lg,1624568658260959642,0,0.0881,-0.2166,1.0396,735,-2.0142,-28.0151,14.9536,169,1.2316,1.3046,-10.9102,-5.1213,33,0.071,9299,3.7356,125.2706
lg,1624568658260978049,0,0.1499,-0.2336,1.0393,736,-2.7466,-30.7617,15.9912,169,1.2316,1.3046,-11.9563,-5.6827,33,0.072,8967,3.7356,126.0957
lg,1624568658613824123,0,0.1409,-0.2322,1.02,737,-0.061,-19.3481,8.8501,169,1.2316,1.3036,-12.4639,-6.0311,33,0.072,25261,3.7356,126.5503
lg,1624568658613880158,0,0.1367,-0.238,1.0144,738,0.7324,-17.7002,6.2256,169,1.2316,1.3036,-12.9415,-6.3612,33,0.072,8894,3.7356,126.9446
lg,1624568658613912453,0,0.1033,-0.2451,1.04,739,0.061,-17.7612,4.8828,169,1.2316,1.3036,-13.3296,-6.6996,33,0.071,8761,3.7356,127.289
lg,1624568658613932915,0,0.1064,-0.2217,1.0195,740,0.4272,-22.3389,6.4087,169,1.2316,1.3036,-13.8856,-6.9933,33,0.073,8331,3.7356,127.7123
lg,1624568658613953026,0,0.1147,-0.2444,1.0164,741,1.5869,-27.5269,6.1646,169,1.2316,1.3046,-14.6423,-7.2894,33,0.072,9016,3.7356,128.1695
lg,1624568658613974840,0,0.1472,-0.2407,1.033,742,1.5259,-32.4097,4.6387,169,1.2316,1.3046,-15.6317,-7.558,33,0.072,14792,3.7356,128.5936
lg,1624568658614001413,0,0.1333,-0.2388,1.0466,743,1.709,-33.4473,3.8452,169,1.2316,1.3036,-16.6899,-7.7776,33,0.072,8973,3.7356,128.9908
lg,1624568658614018949,0,0.1733,-0.2104,1.02,744,1.8921,-35.2173,3.418,169,1.2326,1.3036,-17.7724,-7.9603,33,0.073,8163,3.7356,129.3803
lg,1624568658614035763,0,0.1748,-0.187,1.021,745,0.7935,-32.5317,3.2959,169,1.2326,1.3036,-18.7093,-8.1288,33,0.072,8152,3.7356,129.7399
lg,1624568658614053411,0,0.1707,-0.1777,1.021,746,-0.6714,-32.2876,5.7983,169,1.2336,1.3036,-19.6309,-8.4909,32,0.072,8099,3.7356,130.2679
lg,1624568658614071725,0,0.1958,-0.2056,1.0117,747,-2.7466,-33.7524,7.6904,169,1.2316,1.3026,-20.5674,-8.9688,32,0.072,9755,3.7356,130.8714
lg,1624568658614106168,0,0.1946,-0.2554,1.0085,748,-4.7607,-33.3252,10.2539,169,1.2336,1.3036,-21.4161,-9.6113,32,0.072,8567,3.7356,131.6109
lg,1624568658614143574,0,0.2463,-0.2805,1.0144,749,-4.9438,-30.2734,14.5874,169,1.2326,1.3036,-22.1754,-10.3612,33,0.072,8644,3.7356,132.5433
lg,1624568658614162740,0,0.269,-0.2742,1.0063,750,-0.9766,-24.8413,15.564,169,1.2326,1.3026,-22.7254,-10.9275,33,0.072,8220,3.7356,133.4795
lg,1624568658614181739,0,0.2744,-0.2798,1.0115,751,0.5493,-19.7144,13.7329,169,1.2326,1.3026,-23.0675,-11.3826,33,0.072,8212,3.7356,134.3022
lg,1624568658614213220,0,0.2593,-0.2834,1.0168,752,1.4648,-10.1318,10.5591,169,1.2336,1.3036,-23.0091,-11.7063,33,0.072,8220,3.7356,134.9077
lg,1624568658614232978,0,0.2471,-0.2554,1.0198,753,1.77,-4.6387,10.376,169,1.2336,1.3036,-22.7142,-11.9179,33,0.073,8289,3.7356,135.4272
lg,1624568658614272532,0,0.2539,-0.2622,1.0295,754,2.0752,-1.6479,10.376,169,1.2326,1.3026,-22.3211,-12.1045,33,0.073,8292,3.7356,135.9185
lg,1624568658614296994,0,0.2515,-0.2466,1.0322,755,2.1973,3.2349,13.3057,169,1.2336,1.3026,-21.7227,-12.2681,33,0.072,8298,3.7356,136.4699
lg,1624568658614317271,0,0.2544,-0.2634,1.0122,756,2.5635,10.7422,14.7705,169,1.2336,1.3036,-20.8553,-12.4471,33,0.072,8367,3.7356,137.0246
lg,1624568658614335234,0,0.2583,-0.2456,1.0208,757,3.418,14.4043,14.2212,169,1.2336,1.3026,-19.7408,-12.5254,33,0.073,8355,3.7356,137.5369
lg,1624568658614352937,0,0.2427,-0.2451,1.0188,758,3.9062,21.4233,14.4653,169,1.2336,1.3026,-18.5123,-12.5385,33,0.073,8361,3.7356,137.9502
lg,1624568658614386028,0,0.1987,-0.2341,1.0122,759,4.0283,27.2217,15.4419,169,1.2336,1.3026,-17.0115,-12.5118,33,0.073,8615,3.7356,138.34
lg,1624568658614404453,0,0.1445,-0.2314,1.0208,760,4.3945,30.2124,15.3198,169,1.2336,1.3026,-15.3386,-12.4419,33,0.073,8472,3.7356,138.6928
lg,1624568658614422175,0,0.1108,-0.2283,1.0366,761,4.2725,29.6021,15.4419,169,1.2336,1.3036,-13.6804,-12.3576,33,0.073,8457,3.7356,139.0517
lg,1624568658614439859,0,0.0923,-0.2261,1.0232,762,3.6621,22.0337,17.2119,169,1.2336,1.3036,-12.3309,-12.3243,33,0.073,9248,3.7356,139.5485
lg,1624568658614457970,0,0.083,-0.2202,1.0237,763,2.8687,12.4512,15.7471,169,1.2346,1.3036,-11.3975,-12.3237,33,0.073,10668,3.7356,140.07
lg,1624568658614475876,0,0.0886,-0.1992,1.0212,764,1.2207,-0.6104,13.6719,142,1.2346,1.3036,-11.0438,-12.3271,33,0.073,9428,3.762,140.6091
lg,1624568658614493802,0,0.1011,-0.2212,1.0229,765,0,-8.8501,15.3198,142,1.2346,1.3036,-11.0354,-12.4502,33,0.073,8774,3.762,141.2949
lg,1624568658614525949,0,0.1096,-0.2173,1.0229,766,-0.7324,-13.3057,15.4419,142,1.2346,1.3036,-11.2165,-12.5989,33,0.072,8457,3.762,142.0231
lg,1624568658614547188,0,0.1379,-0.2224,1.0325,767,-2.0142,-16.8457,15.8081,142,1.2346,1.3036,-11.58,-12.8123,33,0.072,8873,3.762,142.7997
lg,1624568658614565651,0,0.1582,-0.2351,1.021,768,-2.3804,-18.1274,15.7471,142,1.2336,1.3026,-12.0215,-13.0721,33,0.072,9785,3.762,143.5936
lg,1624568659007009667,0,0.1978,-0.2644,1.021,769,-1.8311,-15.8081,15.1367,142,1.2336,1.3036,-12.4378,-13.3582,33,0.073,25053,3.762,144.3564
lg,1624568659007047721,0,0.1997,-0.2542,1.0234,770,-1.4648,-14.7095,14.6484,142,1.2346,1.3036,-12.6954,-13.5179,33,0.073,9347,3.762,145.0689
lg,1624568659007068424,0,0.1919,-0.2375,1.0312,771,-0.1831,-11.5356,14.5874,142,1.2336,1.3026,-12.9061,-13.6531,33,0.072,8529,3.762,145.7563
lg,1624568659007087849,0,0.1902,-0.2397,1.0378,772,-0.3662,-10.6201,15.0146,142,1.2356,1.3036,-13.0574,-13.7945,33,0.073,8771,3.762,146.4693
lg,1624568659007109737,0,0.189,-0.2395,1.0122,773,-0.3052,-9.4604,15.3809,142,1.2356,1.3036,-13.1633,-13.9438,33,0.073,10849,3.762,147.1706
lg,1624568659007128811,0,0.2068,-0.2346,1.0222,774,0.061,-8.5449,14.8926,142,1.2346,1.3046,-13.2506,-14.0687,33,0.072,8001,3.762,147.8432
lg,1624568659007148032,0,0.2085,-0.2261,1.0295,775,0.1831,-7.9346,15.686,142,1.2356,1.3036,-13.3194,-14.1523,33,0.073,8124,3.762,148.5317
lg,1624568659007166883,0,0.2231,-0.2524,1.0129,776,-1.0376,-7.019,14.7705,142,1.2356,1.3046,-13.392,-14.3359,33,0.073,8042,3.762,149.1891
lg,1624568659007208826,0,0.2373,-0.2307,1.0068,777,-1.4038,-5.5542,14.6484,142,1.2346,1.3036,-13.4313,-14.496,33,0.073,8134,3.762,149.8192
lg,1624568659007228196,0,0.2227,-0.2546,1.0154,778,0.1831,0.7935,14.0381,142,1.2356,1.3036,-13.1998,-14.5949,33,0.073,8388,3.762,150.3646
lg,1624568659007246547,0,0.2029,-0.2441,1.012,779,1.5869,4.9438,14.4653,142,1.2346,1.3036,-12.774,-14.6042,33,0.073,8612,3.762,150.8775
lg,1624568659007264305,0,0.1765,-0.2339,1.022,780,1.8311,7.8735,14.0381,142,1.2356,1.3036,-12.1985,-14.5615,33,0.074,8638,3.762,151.3366
lg,1624568659007281842,0,0.1323,-0.229,1.0356,781,0.9766,7.2632,15.0757,142,1.2356,1.3036,-11.5628,-14.542,33,0.073,8743,3.762,151.8395
lg,1624568659007298989,0,0.1333,-0.2288,1.0391,782,0.5493,4.4556,15.9302,142,1.2356,1.3036,-11.0333,-14.5837,33,0.073,8523,3.762,152.4124
lg,1624568659007317711,0,0.1357,-0.2383,1.0342,783,0.3662,-2.8687,16.4185,142,1.2356,1.3036,-10.8274,-14.6292,33,0.074,8514,3.762,153.076
lg,1624568659007335636,0,0.1406,-0.2322,1.0139,784,0.4272,-6.1646,15.4419,142,1.2356,1.3046,-10.7825,-14.665,33,0.074,8556,3.762,153.7342
lg,1624568659007353135,0,0.157,-0.2231,1.0273,785,0.061,-9.3384,15.7471,142,1.2356,1.3046,-10.8898,-14.6972,33,0.074,11870,3.762,154.4324
lg,1624568659007370375,0,0.1743,-0.2437,1.0122,786,-0.8545,-13.5498,15.7471,142,1.2366,1.3046,-11.1939,-14.8269,33,0.073,8307,3.762,155.1845
lg,1624568659007387986,0,0.2063,-0.2546,1.0308,787,-1.0986,-12.3291,15.0757,142,1.2366,1.3046,-11.5029,-14.9714,33,0.074,8339,3.762,155.9004
lg,1624568659007407744,0,0.2129,-0.2402,1.0383,788,-0.5493,-10.0098,15.2588,142,1.2356,1.3046,-11.7192,-15.0546,33,0.074,8434,3.762,156.592
lg,1624568659007429318,0,0.2024,-0.2439,1.0178,789,-0.1221,-6.4697,15.0757,142,1.2366,1.3046,-11.7775,-15.1278,33,0.074,8387,3.762,157.242
lg,1624568659007448391,0,0.2017,-0.2327,1.0225,790,-0.061,-5.5542,15.9912,142,1.2356,1.3046,-11.786,-15.1754,33,0.074,9366,3.762,157.9124
lg,1624568659007467761,0,0.2024,-0.2305,1.011,791,0.061,-3.7231,15.686,142,1.2356,1.3036,-11.7327,-15.2104,33,0.074,8820,3.762,158.5509
lg,1624568659007486167,0,0.1924,-0.2507,1.0215,792,0.1221,-3.3569,18.1274,142,1.2366,1.3046,-11.569,-15.2371,33,0.074,8794,3.762,159.2318
lg,1624568659007504130,0,0.1941,-0.2268,1.019,793,0.1831,-1.2817,15.2588,142,1.2356,1.3036,-11.4142,-15.2413,33,0.074,8942,3.762,159.824
lg,1624568659007523759,0,0.1853,-0.2258,1.0239,794,0.6104,-1.2817,16.5405,142,1.2356,1.3036,-11.2321,-15.2319,33,0.074,8831,3.762,160.4657
lg,1624568659007564794,0,0.1726,-0.2314,1.0066,795,0.7935,-1.8311,16.9678,142,1.2356,1.3036,-11.0525,-15.2381,33,0.074,9073,3.762,161.1341
lg,1624568659007586219,0,0.1875,-0.2332,1.0239,796,0.2441,-2.6245,16.9678,142,1.2366,1.3046,-10.9356,-15.2612,32,0.074,8811,3.762,161.81
lg,1624568659007604422,0,0.1704,-0.2334,1.0417,797,0.2441,-3.6621,17.0898,142,1.2366,1.3046,-10.8848,-15.26,32,0.074,8579,3.762,162.4805
lg,1624568659007625125,0,0.1667,-0.2339,1.012,798,-0.1831,-5.0659,15.8081,142,1.2356,1.3046,-10.8406,-15.3011,32,0.073,9508,3.762,163.1383
lg,1624568659007644198,0,0.1777,-0.2456,1.011,799,-0.4272,-6.0425,16.7847,142,1.2356,1.3046,-10.8471,-15.3848,32,0.073,8599,3.762,163.8496
lg,1624568659007663809,0,0.1689,-0.2327,1.022,800,-0.3662,-6.6528,16.0522,142,1.2356,1.3046,-10.8628,-15.4257,33,0.073,8988,3.762,164.5319
lg,1624568659418283536,0,0.2065,-0.2534,1.0237,801,-0.7324,-6.958,16.0522,142,1.2356,1.3046,-10.9647,-15.5242,33,0.073,26640,3.762,165.2257
lg,1624568659418356626,0,0.1924,-0.2437,1.0269,802,-0.4883,-5.6152,15.9912,142,1.2366,1.3056,-10.9218,-15.5647,33,0.073,9338,3.762,165.9114
lg,1624568659418380143,0,0.1892,-0.2366,1.0186,803,0.061,-3.7231,15.0146,142,1.2366,1.3056,-10.8747,-15.5784,33,0.073,8075,3.762,166.5217
lg,1624568659418400106,0,0.1982,-0.2349,1.0259,804,0.6104,-3.2349,13.916,142,1.2366,1.3056,-10.839,-15.5531,33,0.073,7964,3.762,167.082
lg,1624568659418418883,0,0.1743,-0.2344,1.0239,805,0.2441,-4.0283,16.2354,142,1.2366,1.3056,-10.761,-15.561,33,0.073,8357,3.762,167.7421
lg,1624568659418438030,0,0.1833,-0.2383,1.0149,806,0.4272,-4.3945,16.4795,142,1.2366,1.3056,-10.7208,-15.5436,33,0.073,8351,3.762,168.4121
lg,1624568659418457141,0,0.1892,-0.2278,1.0256,807,0.2441,-5.6763,15.9302,142,1.2366,1.3056,-10.7456,-15.5378,33,0.073,15059,3.762,169.0757
lg,1624568659418473955,0,0.1931,-0.2385,1.0156,808,-0.5493,-6.1646,15.564,142,1.2366,1.3056,-10.8025,-15.5902,33,0.072,8107,3.762,169.7356
lg,1624568659418491547,0,0.1907,-0.251,1.0139,809,-0.5493,-6.0425,15.3198,142,1.2366,1.3056,-10.8367,-15.6646,33,0.072,8093,3.762,170.4324
lg,1624568659418508750,0,0.1929,-0.2422,1.0139,810,-0.2441,-5.9814,16.7236,142,1.2366,1.3056,-10.8688,-15.7176,33,0.072,8236,3.762,171.1366
lg,1624568659418546452,0,0.1882,-0.2361,1.0105,811,-0.6104,-4.8218,16.2964,142,1.2366,1.3056,-10.8512,-15.7662,33,0.072,8127,3.762,-188.1914
lg,1624568659418568951,0,0.2021,-0.252,1.0237,812,-0.4883,-3.2349,15.1978,142,1.2366,1.3056,-10.8073,-15.8233,33,0.072,8827,3.762,-187.5753
lg,1624568659418587747,0,0.1934,-0.2405,1.0166,813,0.1831,-3.0518,16.9678,142,1.2366,1.3066,-10.708,-15.8517,33,0.072,8392,3.762,-186.8947
lg,1624568659418605598,0,0.1941,-0.2349,1.0159,814,0.4272,-2.1973,16.1743,142,1.2366,1.3056,-10.6068,-15.8399,33,0.072,8720,3.762,-186.2588
lg,1624568659418624209,0,0.1819,-0.2427,1.0273,815,0.1831,-2.5024,16.8457,142,1.2356,1.3056,-10.4835,-15.8529,33,0.072,8606,3.762,-185.5912
lg,1624568659418643301,0,0.1863,-0.2505,1.0154,816,0.5493,-2.3804,17.0898,142,1.2376,1.3046,-10.3702,-15.8734,33,0.073,8386,3.762,-184.9115
lg,1624568659418662930,0,0.1785,-0.2434,1.0186,817,0.7324,-2.4414,17.0288,142,1.2376,1.3066,-10.2475,-15.8675,33,0.073,8605,3.762,-184.2367
lg,1624568659418679910,0,0.1692,-0.2251,1.0183,818,0.061,-2.9297,17.0288,142,1.2376,1.3056,-10.1309,-15.8492,33,0.073,8300,3.762,-183.5635
lg,1624568659418696799,0,0.1809,-0.2412,1.0227,819,-0.061,-3.9673,16.9678,142,1.2376,1.3066,-10.0809,-15.8693,33,0.073,8816,3.762,-182.8751
lg,1624568659418714891,0,0.1843,-0.238,1.0044,820,0.1831,-4.7607,15.3198,142,1.2376,1.3066,-10.1051,-15.8707,33,0.073,8352,3.762,-182.1772
lg,1624568659418731223,0,0.1855,-0.2419,1.0071,821,-0.061,-5.6763,16.9067,142,1.2376,1.3066,-10.1373,-15.9026,33,0.073,8395,3.762,-181.4706
lg,1624568659418749056,0,0.1924,-0.2493,1.03,822,-0.2441,-5.7983,15.8081,142,1.2376,1.3066,-10.1897,-15.9375,33,0.073,8363,3.762,-180.805
lg,1624568659418767500,0,0.1904,-0.2358,1.0198,823,-0.3662,-7.3242,18.1274,142,1.2376,1.3066,-10.2737,-15.9728,33,0.073,8420,3.762,-180.036
lg,1624568659418787833,0,0.199,-0.2473,1.0242,824,-0.5493,-7.2632,16.4795,142,1.2386,1.3066,-10.4201,-15.9929,33,0.073,8468,3.762,-179.3342
lg,1624568659418806462,0,0.2168,-0.2461,1.0232,825,-0.7324,-6.2866,17.0288,142,1.2376,1.3066,-10.5189,-16.0543,33,0.073,8429,3.762,-178.6163
lg,1624568659418823868,0,0.2046,-0.2446,1.0251,826,-0.3662,-3.7842,17.0288,142,1.2376,1.3066,-10.4914,-16.0896,33,0.073,8430,3.762,-177.9279
lg,1624568659418841368,0,0.2205,-0.2349,1.02,827,0.1831,-2.4414,17.2119,142,1.2386,1.3066,-10.4475,-16.0822,33,0.074,9176,3.762,-177.2512
lg,1624568659418860219,0,0.1978,-0.2354,1.0232,828,0.6714,-1.709,15.8081,142,1.2386,1.3066,-10.3158,-16.0852,33,0.073,8830,3.762,-176.6299
lg,1624568659418879144,0,0.1951,-0.2307,1.0168,829,0.3052,-1.2207,15.1978,142,1.2376,1.3066,-10.2034,-16.0463,33,0.074,8465,3.762,-176.0469
lg,1624568659418896477,0,0.1733,-0.2388,1.0212,830,0.8545,-1.4038,16.9678,142,1.2376,1.3056,-10.0426,-16.0717,33,0.074,11625,3.762,-175.3793
lg,1624568659418913310,0,0.1851,-0.2517,1.019,831,1.0986,-1.709,16.8457,142,1.2386,1.3056,-9.9176,-16.0539,33,0.074,9657,3.762,-174.7188
lg,1624568659418932976,0,0.1912,-0.2515,1.0127,832,0.8545,-3.0518,16.4185,142,1.2386,1.3066,-9.8689,-16.0481,33,0.073,9655,3.762,-174.0592
lg,1624568659814267820,0,0.1912,-0.2329,1.0376,833,0.6104,-3.9673,15.8691,142,1.2386,1.3066,-9.8565,-15.9988,33,0.074,24505,3.762,-173.4194
lg,1624568659814297078,0,0.1934,-0.238,1.0098,834,0.3662,-5.0049,16.9067,142,1.2376,1.3066,-9.8915,-15.9615,33,0.074,8791,3.762,-172.8051
lg,1624568659814337447,0,0.1956,-0.239,1.0217,835,0.4883,-4.4556,14.9536,142,1.2386,1.3066,-9.9221,-15.9364,33,0.073,8164,3.762,-172.1914
lg,1624568659814357224,0,0.2031,-0.2229,1.0217,836,0.061,-2.2583,16.0522,142,1.2386,1.3066,-9.8731,-15.8986,33,0.073,7944,3.762,-171.5652
lg,1624568659814375501,0,0.2034,-0.2556,0.9922,837,0.1831,-1.5869,16.7847,142,1.2386,1.3066,-9.7598,-15.8807,33,0.074,7980,3.762,-170.914
lg,1624568659814392963,0,0.2053,-0.2373,1.02,838,0.7324,-0.6714,16.7847,142,1.2386,1.3066,-9.6527,-15.8492,33,0.074,8298,3.762,-170.271
lg,1624568659814410092,0,0.1711,-0.2366,1.0139,839,0.4883,-0.9155,16.0522,142,1.2386,1.3056,-9.4979,-15.8238,33,0.074,7986,3.762,-169.6535
lg,1624568659814426907,0,0.1738,-0.2571,1.0029,840,0.5493,-1.0986,15.9912,142,1.2386,1.3066,-9.3645,-15.8446,33,0.074,8017,3.762,-169.0278
lg,1624568659814443610,0,0.178,-0.2334,1.0066,841,0.5493,-1.5869,15.7471,142,1.2386,1.3066,-9.2677,-15.8104,33,0.074,8039,3.762,-168.4151
lg,1624568659814460961,0,0.1741,-0.2461,1.0176,842,0.3662,-3.7231,16.8457,142,1.2386,1.3066,-9.2315,-15.8161,32,0.074,8132,3.762,-167.732
lg,1624568659814477849,0,0.178,-0.2468,1.0193,843,0.3662,-4.2725,14.5874,142,1.2386,1.3066,-9.25,-15.809,32,0.074,8105,3.762,-167.1308
lg,1624568659814494552,0,0.1929,-0.2576,1.032,844,0.2441,-4.4556,14.6484,142,1.2386,1.3076,-9.2996,-15.8242,32,0.074,15904,3.762,-166.5225
lg,1624568659814511478,0,0.2051,-0.2314,1.0181,845,0.2441,-3.6621,13.855,142,1.2396,1.3076,-9.359,-15.7856,33,0.075,8161,3.762,-165.9618
lg,1624568659814528070,0,0.1978,-0.2529,1.0051,846,0.8545,-3.418,15.8081,142,1.2386,1.3076,-9.3729,-15.7884,33,0.074,8218,3.762,-165.3189
lg,1624568659814544680,0,0.1995,-0.2437,1.0222,847,0.5493,-3.1128,16.5405,142,1.2386,1.3076,-9.3646,-15.779,33,0.074,8184,3.762,-164.6555
lg,1624568659814561235,0,0.1897,-0.2339,1.0249,848,0.4272,-2.3193,17.5171,142,1.2386,1.3076,-9.2954,-15.7572,33,0.074,8236,3.762,-163.9663
lg,1624568659814577623,0,0.2034,-0.2463,1.0154,849,0.6714,-0.061,16.6016,142,1.2376,1.3066,-9.1834,-15.7468,33,0.074,8918,3.762,-163.3326
lg,1624568659814604400,0,0.1919,-0.2351,1.032,850,0.8545,0.6714,15.5029,142,1.2386,1.3076,-9.0345,-15.6981,33,0.074,8378,3.762,-162.7988
lg,1624568659814622288,0,0.1819,-0.2263,1.0203,851,0.6714,0.8545,15.9912,142,1.2376,1.3076,-8.8604,-15.6367,33,0.074,9026,3.762,-162.2056
lg,1624568659814639380,0,0.1731,-0.2524,1.0261,852,1.1597,1.5259,13.7939,142,1.2386,1.3076,-8.6687,-15.5938,33,0.074,9903,3.762,-161.6965
lg,1624568659814656584,0,0.1548,-0.2642,1.0229,853,1.2817,0.061,16.1743,142,1.2386,1.3066,-8.4771,-15.5883,33,0.074,8604,3.762,-161.0744
lg,1624568659814673676,0,0.1743,-0.2383,1.0273,854,0.4883,-1.9531,17.0288,142,1.2396,1.3076,-8.4032,-15.5652,33,0.075,8662,3.762,-160.4055
lg,1624568659814690638,0,0.1765,-0.2524,1.0247,855,0,-2.7466,14.4653,142,1.2386,1.3076,-8.3945,-15.5796,33,0.075,8394,3.762,-159.823
lg,1624568659814707360,0,0.1606,-0.249,1.0139,856,-0.3662,-4.3945,15.5029,142,1.2396,1.3076,-8.4304,-15.5877,33,0.075,9093,3.762,-159.1864
lg,1624568659814724748,0,0.1831,-0.2495,1.0088,857,-0.5493,-5.9814,17.2729,142,1.2396,1.3076,-8.5338,-15.6474,33,0.075,8442,3.762,-158.459
lg,1624568659814742043,0,0.1831,-0.2671,1.021,858,-0.4883,-5.6763,17.1509,142,1.2386,1.3076,-8.6157,-15.7326,33,0.075,8463,3.762,-157.7353
lg,1624568659814758895,0,0.1934,-0.2319,1.0171,859,-0.3052,-4.6387,14.8315,142,1.2386,1.3086,-8.7057,-15.7215,33,0.074,8481,3.762,-157.1247
lg,1624568659814775524,0,0.2148,-0.2495,1.0056,860,-0.3662,-4.5776,18.3105,142,1.2386,1.3076,-8.7995,-15.778,33,0.075,8500,3.762,-156.3725
lg,1624568659814791968,0,0.1926,-0.2549,0.999,861,0.2441,-2.0752,16.4795,142,1.2396,1.3086,-8.768,-15.8079,33,0.075,8816,3.762,-155.7175
lg,1624568659814808449,0,0.1841,-0.2375,1.0159,862,0.1831,0.2441,16.1743,142,1.2386,1.3076,-8.6297,-15.7868,33,0.075,8506,3.762,-155.1073
lg,1624568659814825096,0,0.1807,-0.2314,1.0288,863,0.3052,0.1831,16.2354,142,1.2386,1.3066,-8.4877,-15.7415,33,0.075,8896,3.762,-154.4967
lg,1624568659814841410,0,0.1782,-0.2429,1.0139,864,0.7935,-0.1831,15.625,142,1.2396,1.3076,-8.385,-15.6692,32,0.075,9240,3.762,-153.8879
lg,1624568660538117770,0,0.1768,-0.249,1.0044,865,0.3052,-2.9297,17.5171,142,1.2396,1.3076,-8.3578,-15.6879,32,0.075,24309,3.762,-153.1848
