name,time,activity,ax,ay,az,batch_val,gx,gy,gz,ibat,index,middle,pitch,roll,temp,thumb,ts,vbat,yaw
rg,1624568682956007123,1,-0.1682,-0.1848,1.0527,1,-7.5684,-35.8276,11.9019,65,0.9965,0.4612,-0.8017,-12.0756,33,0.5373,19049,4.0172,-50.7712
rg,1624568682956050382,1,-0.1631,-0.1821,1.0623,2,-9.7046,-34.729,11.5356,65,1.0005,0.4612,-1.7471,-12.4822,33,0.5373,7989,4.0172,-50.0005
rg,1624568682956071252,1,-0.1506,-0.198,1.0918,3,-13.6719,-33.8745,11.0474,65,0.9975,0.4612,-2.5928,-12.9651,33,0.5363,7435,4.0172,-49.2737
rg,1624568682956091103,1,-0.1714,-0.2048,1.0691,4,-15.0757,-33.9355,10.1318,65,0.9965,0.4592,-3.4183,-13.5993,33,0.5373,7484,4.0172,-48.621
rg,1624568682956109307,1,-0.1753,-0.2075,1.0781,5,-18.6157,-38.269,8.4229,65,0.9975,0.4602,-4.333,-14.2977,33,0.5363,9361,4.0172,-47.9304
rg,1624568682956127881,1,-0.1768,-0.2219,1.0723,6,-18.5547,-42.9077,3.7842,65,1.0005,0.4602,-5.4187,-14.9808,33,0.5363,7444,4.0172,-47.3575
rg,1624568682956145473,1,-0.2056,-0.2341,1.0718,7,-18.7988,-46.0815,1.5259,65,0.9975,0.4602,-6.7081,-15.8005,33,0.5373,7475,4.0172,-46.8782
rg,1624568682956162695,1,-0.2178,-0.2319,1.0774,8,-23.0713,-54.0771,-2.9907,65,0.9965,0.4602,-8.113,-16.6363,33,0.5353,7512,4.0172,-46.4046
rg,1624568682956179862,1,-0.2158,-0.2385,1.0913,9,-24.9634,-61.5234,-7.3853,65,1.0015,0.4612,-9.802,-17.5266,33,0.5363,7546,4.0172,-45.9862
rg,1624568682956197454,1,-0.1951,-0.2358,1.0906,10,-25.0244,-66.7725,-7.3853,65,0.9965,0.4602,-11.658,-18.4106,33,0.5343,7609,4.0172,-45.473
rg,1624568682956231862,1,-0.1587,-0.25,1.0889,11,-25.5737,-69.519,-10.8643,65,0.9985,0.4612,-13.6528,-19.3139,33,0.5353,7523,4.0172,-45.0212
rg,1624568682956251102,1,-0.1472,-0.2498,1.0913,12,-26.123,-68.9697,-12.3291,65,0.9995,0.4612,-15.5875,-20.211,33,0.5343,7562,4.0172,-44.6024
rg,1624568682956268435,1,-0.1311,-0.2773,1.0593,13,-29.4189,-72.5708,-25.4517,65,0.9995,0.4622,-17.7856,-21.1715,33,0.5323,32955,4.0172,-44.5916
rg,1624568682956285787,1,-0.113,-0.2734,1.0342,14,-33.2031,-83.374,-30.5176,65,1.0015,0.4622,-20.4062,-22.2567,33,0.5343,7743,4.0172,-44.5725
rg,1624568682956302879,1,-0.1001,-0.2817,1.0259,15,-35.0952,-88.9893,-32.5928,65,1.0015,0.4632,-23.2174,-23.4666,33,0.5333,7696,4.0172,-44.4718
rg,1624568682956320453,1,-0.0806,-0.3044,1.0156,16,-37.5977,-99.9756,-36.377,65,1.0025,0.4632,-26.3958,-24.8014,33,0.5333,7685,4.0172,-44.2581
rg,1624568682956338250,1,-0.0576,-0.3154,0.999,17,-38.6353,-107.9102,-39.856,65,1.0025,0.4632,-29.8421,-26.227,33,0.5333,7734,4.0172,-43.9362
rg,1624568682956355657,1,-0.0405,-0.3274,1.0024,18,-38.8184,-112.1826,-39.978,65,1.0015,0.4612,-33.3465,-27.757,33,0.5323,7787,4.0172,-43.4181
rg,1624568682956372472,1,-0.011,-0.3516,0.9968,19,-39.6118,-116.8823,-40.7104,65,1.0035,0.4632,-36.9465,-29.4836,33,0.5313,7996,4.0172,-42.6642
rg,1624568682956388768,1,0.0369,-0.3606,0.9934,20,-39.0625,-117.3096,-40.6494,65,1.0045,0.4632,-40.5026,-31.3485,33,0.5353,7807,4.0172,-41.6555
rg,1624568682956405953,1,0.0598,-0.3657,0.9998,21,-39.2456,-117.7368,-39.4897,65,1.0025,0.4642,-43.9462,-33.3622,33,0.5333,7954,4.0172,-40.4642
rg,1624568682956423434,1,0.1228,-0.385,0.9902,22,-38.6963,-111.6333,-37.3535,65,1.0025,0.4632,-47.0979,-35.5113,33,0.5343,7826,4.0172,-39.1133
rg,1624568682956440397,1,0.1968,-0.373,0.9917,23,-37.9639,-103.2104,-34.3018,65,1.0025,0.4652,-49.9003,-37.6572,33,0.5343,9063,4.0172,-37.7239
rg,1624568682956457712,1,0.1011,-0.5303,0.3877,24,98.5718,43.6401,0.4883,133,0.7163,0.1641,-47.0726,-33.5898,33,0.4942,13810,3.993,-38.4478
rg,1624568682956486285,1,-0.1887,-0.5024,0.438,25,51.3916,12.3291,-5.8594,133,0.7364,0.1681,-44.8313,-31.9192,33,0.4952,8062,3.993,-38.4654
rg,1624568682956504415,1,-0.1638,-0.6824,0.5989,26,0.4272,-58.2886,16.6626,133,0.7464,0.1691,-44.5934,-34.5889,33,0.4962,7890,3.993,-35.2828
rg,1624568682956521915,1,0.0237,-0.7346,0.5876,27,-15.0146,-102.2949,26.1841,133,0.7454,0.1731,-45.697,-39.3709,33,0.4972,8029,3.993,-30.0179
rg,1624568682956633858,1,0.5896,-0.7778,0.5645,28,-58.5938,-143.0054,38.0859,133,0.7153,0.1761,-48.2069,-47.794,33,0.4952,9046,3.993,-22.1341
rg,1624568682956688117,1,0.8586,-0.9839,0.6409,29,-87.8296,-94.2993,14.2212,133,0.6593,0.1751,-49.5935,-55.4975,33,0.4942,10048,3.993,-16.7951
rg,1624568682956709672,1,0.7939,-1.0679,0.5493,30,-85.6323,-12.6953,32.2266,133,0.6283,0.1711,-48.1356,-60.5097,33,0.4872,7981,3.993,-14.8772
rg,1624568682956729080,1,0.6934,-1.0562,0.5493,31,-81.4209,21.7285,39.1846,133,0.6163,0.1671,-44.8467,-62.2994,33,0.4712,8144,3.993,-16.3309
rg,1624568682956748672,1,0.3608,-0.9917,0.718,32,-52.4292,70.3735,38.8184,133,0.6203,0.1541,-41.1191,-62.2923,33,0.4682,8068,3.993,-19.0853
rg,1624568683488390254,1,0.0559,-0.6807,0.3931,33,79.5288,55.481,46.9971,133,0.6223,0.1321,-37.0364,-58.2173,33,0.4572,25676,3.993,-20.4032
rg,1624568683488478586,1,0.0903,-0.2017,0.0449,34,72.5708,22.0337,11.8408,133,0.6223,0.1331,-35.7089,-55.8121,33,0.4572,8913,3.993,-20.4845
rg,1624568683488513401,1,-0.0239,-0.0542,0.1079,35,44.6167,-12.6343,-12.9395,133,0.6243,0.1351,-36.2805,-55.1969,33,0.4562,8509,3.993,-19.759
rg,1624568683488550012,1,0.0925,-0.6367,0.7441,36,-86.0596,-72.3877,-0.2441,133,0.6273,0.1431,-36.211,-60.296,33,0.4602,15165,3.993,-16.9436
rg,1624568683488584345,1,0.4734,-1.3118,0.8896,37,-63.7207,-47.8516,19.4702,133,0.6303,0.1451,-35.6479,-64.0917,33,0.4632,7809,3.993,-14.563
rg,1624568683488616548,1,0.4731,-1.1833,0.9182,38,-2.1362,-6.2256,1.8921,133,0.6313,0.1471,-35.004,-63.7963,33,0.4672,9687,3.993,-14.5754
rg,1624568683488646307,1,0.3086,-0.8516,0.7432,39,24.4141,19.165,4.5166,133,0.6333,0.1501,-33.7623,-61.7191,33,0.4712,7603,3.993,-15.6915
rg,1624568683488676289,1,0.3247,-0.8308,0.7109,40,22.644,17.1509,8.7891,133,0.6403,0.1541,-32.4718,-59.9721,33,0.4782,7673,3.993,-16.5113
rg,1624568683488704974,1,0.4182,-0.9924,0.7292,41,40.8325,18.6768,10.6201,133,0.6553,0.1581,-31.188,-57.7947,33,0.4862,7587,3.993,-17.1543
rg,1624568683488734844,1,0.2888,-0.8342,0.4753,42,60.1807,18.8599,3.7842,133,0.6803,0.1631,-30.2673,-54.534,33,0.4902,7715,3.9688,-17.7832
rg,1624568683488764751,1,0.2332,-0.6843,0.4604,43,82.0923,15.8081,-2.5635,133,0.7103,0.1661,-29.3975,-50.9976,33,0.4922,8305,3.9688,-18.3879
rg,1624568683488794566,1,0.0537,-0.5952,0.4412,44,58.2886,-7.4463,-6.2256,133,0.7314,0.1711,-28.8067,-48.8191,33,0.4922,8361,3.9688,-18.2373
rg,1624568683488823158,1,0.0359,-0.7034,0.5774,45,32.4097,-18.6157,0.6104,133,0.7414,0.1721,-28.591,-49.109,33,0.4922,7666,3.9688,-16.6666
rg,1624568683488851935,1,0.2532,-0.7715,0.5344,46,-5.0659,-77.8198,16.1743,133,0.7534,0.1751,-29.5445,-51.1245,33,0.4932,11113,3.9688,-13.3371
rg,1624568683488882176,1,0.4053,-0.7366,0.5151,47,-15.1978,-84.4116,20.2026,133,0.7514,0.1761,-30.7328,-53.7214,33,0.4922,7682,3.9688,-9.5958
rg,1624568683488947250,1,0.6416,-0.7766,0.6143,48,-65.6128,-74.707,19.4702,133,0.7264,0.1791,-31.833,-58.0188,33,0.4912,7915,3.9688,-6.2288
rg,1624568683488984397,1,0.6575,-1.0076,0.5374,49,-89.2334,-65.7959,15.564,133,0.6823,0.1781,-32.2502,-63.0304,33,0.4882,7714,3.9688,-4.2856
rg,1624568683489015416,1,0.5483,-1.0164,0.4639,50,-91.8579,-16.1133,7.9346,133,0.6443,0.1751,-31.9826,-67.23,33,0.4852,7975,3.9688,-3.4009
rg,1624568683489045897,1,0.3369,-0.8665,0.5161,51,-76.0498,19.7144,23.1323,133,0.6253,0.1721,-30.3184,-69.6535,33,0.4762,7818,3.9688,-4.0741
rg,1624568683489075841,1,0.1479,-0.9202,0.5537,52,-75.4395,26.9165,28.1982,133,0.6213,0.1591,-27.9144,-71.6604,33,0.4602,7956,3.9688,-4.9688
rg,1624568683489105045,1,0.0789,-1.0222,0.9336,53,-48.645,28.8696,35.1562,133,0.6243,0.1471,-25.3739,-72.2168,33,0.4612,7769,3.9688,-6.2143
rg,1624568683489133267,1,0.21,-1.0964,0.2849,54,41.0156,-12.6953,61.4624,133,0.6243,0.1371,-22.6176,-71.2615,33,0.4582,8254,3.9688,-4.7918
rg,1624568683489162470,1,0.2954,-0.9956,0.5322,55,38.5132,-23.9868,60.4248,133,0.6243,0.1341,-20.86,-68.8323,33,0.4572,7846,3.9688,-3.9199
rg,1624568683489192526,1,0.2842,-0.5947,0.2068,56,87.7075,-15.625,33.02,133,0.6243,0.1341,-20.0159,-65.7959,33,0.4542,8031,3.9688,-2.7464
rg,1624568683489221025,1,0.2319,-0.1582,0.0862,57,59.021,-11.4746,-0.6714,133,0.6253,0.1361,-21.4394,-63.4559,33,0.4542,7875,3.9688,-2.3878
rg,1624568683489251210,1,0.1348,-0.1152,0.1577,58,24.5972,-15.1978,-10.8032,133,0.6273,0.1391,-21.8154,-61.5651,33,0.4542,8087,3.9688,-2.3987
rg,1624568683489280340,1,0.2153,-0.9226,0.8438,59,-68.9697,-25.0854,7.6294,133,0.6303,0.1431,-21.5504,-64.1284,33,0.4572,12800,3.9688,-1.5204
rg,1624568683489310321,1,0.4231,-1.2625,0.8557,60,-24.231,-15.0146,11.7798,133,0.6323,0.1461,-21.1474,-65.0345,33,0.4622,8799,3.9688,-0.8528
rg,1624568683489341061,1,0.4421,-1.1382,0.853,61,2.9907,-0.4272,8.4229,133,0.6353,0.1491,-20.7401,-64.3556,33,0.4662,8433,3.9688,-0.9074
rg,1624568683489370672,1,0.3953,-0.8848,0.7957,62,25.2075,25.6958,13.3057,133,0.6383,0.1511,-19.74,-62.4371,33,0.4742,8119,3.9688,-1.8704
rg,1624568683489400524,1,0.4141,-0.9836,0.7268,63,32.4097,33.8745,11.1084,133,0.6483,0.1551,-18.6711,-60.4349,33,0.4832,8037,3.9688,-3.0333
rg,1624568683489431487,1,0.4175,-1.0793,0.7051,64,45.105,35.2173,6.7139,133,0.6683,0.1611,-17.6192,-58.2432,33,0.4882,8240,3.9688,-4.1776
rg,1624568683673190098,1,-0.1116,-0.5181,0.4617,65,49.5605,0.3052,-5.7373,133,0.7314,0.1741,-16.7878,-55.8112,33,0.4912,26027,3.9688,-4.4207
rg,1624568683673230727,1,-0.0693,-0.6584,0.5195,66,-1.5869,-69.1528,8.3618,133,0.7394,0.1771,-17.2065,-56.4524,33,0.4912,8237,3.9688,-1.8752
rg,1624568683673251227,1,0.3662,-0.7888,0.5737,67,-28.8696,-116.8213,21.6064,133,0.7404,0.1791,-19.0843,-58.9436,33,0.4922,8024,3.9688,2.7412
rg,1624568683673270542,1,0.5476,-0.8203,0.6074,68,-46.6309,-119.4458,23.4985,133,0.7143,0.1831,-21.1505,-62.3885,33,0.4932,8325,3.9688,7.648
rg,1624568683673289227,1,0.8735,-1.0427,0.6243,69,-89.3555,-99.8535,19.2871,133,0.6663,0.1821,-22.6969,-67.428,33,0.4932,8330,3.9688,11.8807
rg,1624568683673307134,1,0.7043,-1.1721,0.5569,70,-92.4683,-18.7988,15.8691,133,0.6333,0.1791,-22.5929,-71.3891,33,0.4892,8149,3.9688,12.8444
rg,1624568683673324467,1,0.5706,-1.1396,0.593,71,-78.6133,22.522,29.4189,133,0.6213,0.1721,-21.0293,-73.9173,33,0.4712,7963,3.9688,12.13
rg,1624568683673342097,1,0.2783,-1.1511,0.6736,72,-44.3726,69.7632,38.9404,142,0.6243,0.1501,-18.4412,-74.2796,33,0.4662,7635,3.9688,9.5079
rg,1624568683673359615,1,0.0232,-1.1931,0.3721,73,57.251,73.7915,64.5142,142,0.6233,0.1391,-14.4434,-71.3079,33,0.4632,7878,3.9688,7.3484
rg,1624568683673378522,1,0.1743,-1.1091,0.3904,74,79.2847,23.2544,86.3037,142,0.6233,0.1331,-10.6567,-68.1716,33,0.4612,7655,3.9688,7.6637
rg,1624568683673396226,1,0.1233,-0.6213,0.2886,75,132.3242,23.9258,43.5181,142,0.6223,0.1281,-8.665,-62.7284,33,0.4592,7707,3.9688,7.4838
rg,1624568683673412911,1,0.1523,-0.033,-0.0249,76,129.7607,-22.3999,-2.0142,142,0.6233,0.1281,-11.2969,-58.2054,33,0.4572,9703,3.9688,8.2259
rg,1624568683673450522,1,0.0327,0.1575,-0.0195,77,112.854,-57.8613,-34.729,142,0.6253,0.1301,-14.9766,-54.8841,33,0.4572,8401,3.9688,10.3518
rg,1624568683673469281,1,0.0815,0.2952,-0.1335,78,5.9814,-104.9805,-13.5498,142,0.6263,0.1341,-18.9031,-55.1821,33,0.4592,7686,3.9688,13.5224
rg,1624568683673486799,1,0.4497,-0.3774,0.3777,79,-173.645,-86.9751,38.8794,142,0.6283,0.1371,-20.1689,-63.1346,33,0.4622,7841,3.9688,17.4815
rg,1624568683673504540,1,0.9785,-1.3635,2.2915,80,-231.5063,-21.9727,51.2695,142,0.6303,0.1391,-18.7589,-71.7123,33,0.4642,7724,3.9688,18.7533
rg,1624568683673521947,1,0.4453,-1.8572,0.5505,81,-65.7959,49.1943,19.5923,142,0.6333,0.1411,-17.2041,-73.8559,33,0.4682,7922,3.9688,17.0311
rg,1624568683673538965,1,0.0764,-1.0557,0.9895,82,17.0898,58.3496,-10.7422,142,0.6343,0.1421,-16.4341,-71.3696,33,0.4712,8642,3.9688,14.2567
rg,1624568683673556058,1,0.0327,-0.6399,0.793,83,38.6963,51.2695,8.1787,142,0.6353,0.1441,-14.9428,-68.037,33,0.4732,8000,3.9688,12.0251
rg,1624568683673573336,1,0.1006,-0.7366,0.6531,84,-23.2544,-8.4839,14.2822,142,0.6443,0.1461,-14.2115,-68.3053,33,0.4872,8683,3.9688,12.362
rg,1624568683673590113,1,0.4304,-1.1404,0.5808,85,-3.9673,-29.48,17.334,142,0.6703,0.1541,-14.3355,-67.3601,33,0.4932,10654,3.9688,13.5269
rg,1624568683673607298,1,0.4084,-0.8977,0.5183,86,50.7812,-9.5825,-6.0425,142,0.7063,0.1611,-14.9929,-65.1017,33,0.4972,9062,3.9688,13.7098
rg,1624568683673624835,1,0.2151,-0.7637,0.405,87,46.5088,-8.4229,-11.8408,142,0.7264,0.1631,-15.5206,-63.1349,33,0.4962,8131,3.9688,13.7771
rg,1624568683673642539,1,0.1206,-0.7058,0.3896,88,37.2925,-10.8032,-11.0474,142,0.7404,0.1641,-15.7213,-62.1634,33,0.4962,8044,3.9688,14.2723
rg,1624568683673660224,1,0.0403,-0.6694,0.4275,89,8.728,-33.8135,-5.6763,142,0.7474,0.1671,-16.0454,-61.9172,33,0.4952,7932,3.9688,15.3524
rg,1624568683673678816,1,0.3071,-0.7449,0.4106,90,-17.7002,-75.0122,7.6904,142,0.7494,0.1681,-17.2847,-63.4217,33,0.4942,8106,3.9688,18.2752
rg,1624568683673695964,1,0.583,-0.8218,0.51,91,-63.8428,-70.9229,15.625,142,0.7214,0.1721,-18.4452,-66.6906,33,0.4932,9194,3.9688,21.2111
rg,1624568683673714205,1,0.6399,-0.9695,0.5312,92,-83.374,-60.1807,12.5732,142,0.6693,0.1701,-19.1923,-70.7862,33,0.4922,8714,3.9688,23.766
rg,1624568683673730964,1,0.572,-1.083,0.4917,93,-81.4819,-12.207,20.0806,142,0.6363,0.1661,-18.832,-74.0763,33,0.4872,8147,3.9688,24.4496
rg,1624568683673747723,1,0.4631,-1.0376,0.4873,94,-46.6919,41.9312,46.936,142,0.6213,0.1621,-16.7226,-75.2113,33,0.4712,8240,3.9688,23.1457
rg,1624568683673783964,1,0.3484,-1.0176,0.4875,95,-38.6963,61.3403,54.0771,142,0.6243,0.1501,-13.6147,-74.3957,33,0.4662,8129,3.9688,20.444
rg,1624568683673803260,1,0.0613,-1.1121,0.6118,96,27.5269,86.1206,54.0771,142,0.6233,0.1381,-10.1561,-72.1871,33,0.4632,8277,3.9688,17.5797
rg,1624568684109897304,1,0.0708,-0.4673,0.2175,97,114.8682,-22.0947,10.6201,142,0.6253,0.1291,-9.9662,-67.4747,33,0.4582,25497,3.9688,18.5208
rg,1624568684109940415,1,-0.0325,-0.0903,0.0864,98,75.4395,-49.0723,-14.2822,142,0.6263,0.1281,-10.3627,-63.9248,33,0.4562,8655,3.9688,19.9917
rg,1624568684109961341,1,0.001,-0.0073,0.0413,99,41.8701,-80.2612,-6.3477,142,0.6283,0.1301,-13.9745,-62.7403,33,0.4582,8021,3.9688,22.7683
rg,1624568684109980748,1,0.6362,-0.6667,0.8826,100,-92.6514,-88.7451,31.0669,142,0.6303,0.1351,-15.0336,-66.5207,33,0.4602,11633,3.9688,26.4347
rg,1624568684110010618,1,0.7793,-1.1274,1.0305,101,-97.229,-31.189,36.2549,142,0.6333,0.1371,-14.3736,-69.0818,33,0.4662,8661,3.9688,26.4188
rg,1624568684110029507,1,0.3137,-1.3091,0.9524,102,-11.3525,38.9404,-17.5171,142,0.6363,0.1401,-14.3498,-68.482,33,0.4702,8643,3.9688,24.5055
rg,1624568684110047026,1,0.1418,-0.8901,0.7544,103,26.2451,42.1753,6.0425,142,0.6403,0.1421,-13.2173,-66.3125,33,0.4792,12557,3.9688,22.8106
rg,1624568684110066229,1,0.2617,-0.9414,0.6929,104,22.7661,13.0005,9.7046,142,0.6513,0.1461,-12.6369,-64.8176,33,0.4882,8334,3.9688,22.3698
rg,1624568684110093303,1,0.395,-1.0605,0.6455,105,37.2314,4.5166,11.2915,142,0.6713,0.1541,-12.3514,-63.0864,33,0.4912,7655,3.9688,22.3461
rg,1624568684110111895,1,0.3528,-0.9067,0.4385,106,70.3125,13.0615,-5.6763,142,0.7003,0.1571,-12.5775,-60.1803,33,0.4932,7575,3.9688,21.7629
rg,1624568684110129673,1,0.2278,-0.752,0.3923,107,76.355,10.9863,-15.686,142,0.7234,0.1601,-12.6378,-57.1361,33,0.4942,7685,3.9688,21.0228
rg,1624568684110150043,1,-0.0164,-0.5403,0.373,108,57.6172,10.1929,-7.5073,142,0.7374,0.1631,-12.1055,-54.6435,33,0.4942,7635,3.9688,20.5003
rg,1624568684110172080,1,-0.0398,-0.5962,0.5061,109,0.5493,-39.917,3.1128,142,0.7444,0.1651,-12.3321,-54.7062,33,0.4942,7789,3.9688,21.8655
rg,1624568684110197025,1,0.1257,-0.6724,0.4741,110,-24.9634,-75.6226,11.1694,142,0.7444,0.1661,-13.5171,-56.3247,33,0.4962,7915,3.9688,24.6832
rg,1624568684110216432,1,0.6077,-0.8652,0.5461,111,-80.5664,-104.0649,25.0854,142,0.7133,0.1691,-15.4872,-60.639,33,0.4952,7595,3.9688,28.9243
rg,1624568684110249857,1,0.717,-1.0061,0.4761,112,-92.1021,-49.6826,10.376,142,0.6683,0.1671,-16.6882,-65.0155,33,0.4912,7837,3.9688,31.0216
rg,1624568684110269931,1,0.6809,-0.9944,0.4033,113,-87.9517,-14.4653,16.7236,142,0.6383,0.1651,-16.9088,-68.8617,33,0.4812,7749,3.9688,31.895
rg,1624568684110288024,1,0.6133,-0.9036,0.4424,114,-62.7441,55.4199,40.2832,142,0.6263,0.1631,-15.2121,-70.7422,33,0.4692,7873,3.9688,30.2541
rg,1624568684110306283,1,0.4434,-0.9358,0.5645,115,-55.6641,87.9517,41.687,142,0.6293,0.1531,-12.3147,-71.3182,33,0.4692,7755,3.9688,27.1241
rg,1624568684110323801,1,0.0676,-1.2332,0.5022,116,6.958,106.2622,42.8467,142,0.6283,0.1451,-8.947,-70.2369,33,0.4662,7941,3.9688,23.5784
rg,1624568684110341320,1,0.1333,-1.2617,0.6541,117,33.3862,37.9639,44.4336,142,0.6283,0.1381,-6.6178,-68.4761,33,0.4662,7773,3.9688,22.7225
rg,1624568684110369634,1,0.0701,-1.1106,0.4956,118,73.6084,35.5225,34.6069,142,0.6273,0.1351,-4.664,-65.3462,33,0.4622,7972,3.9688,21.9399
rg,1624568684110388097,1,0.052,-0.4419,0.2029,119,110.5957,9.0332,6.0425,142,0.6293,0.1351,-4.3433,-60.9,33,0.4602,7881,3.9688,21.7217
rg,1624568684110405653,1,-0.0056,0.0471,0.0142,120,110.1685,1.8311,-7.6294,142,0.6303,0.1361,-4.864,-55.9656,33,0.4612,7983,3.9688,22.1384
rg,1624568684110423097,1,0.0232,0.1382,-0.0271,121,39.7949,-50.5981,-2.3193,142,0.6313,0.1381,-8.2962,-54.4199,33,0.4622,9216,3.9688,23.7122
rg,1624568684110441115,1,0.2969,-0.3887,0.5466,122,-90.6372,-91.5527,13.0615,142,0.6343,0.1421,-10.513,-57.8957,33,0.4642,8951,3.9688,27.0088
rg,1624568684110458708,1,0.532,-1.386,0.9827,123,-92.1631,-13.1836,30.9448,142,0.6383,0.1451,-9.9801,-61.6341,33,0.4702,7954,3.9688,28.0853
rg,1624568684110494171,1,0.3923,-1.4146,0.939,124,-45.6543,-9.3994,17.7612,142,0.6413,0.1471,-10.3613,-61.9671,33,0.4732,8122,3.9688,28.3523
rg,1624568684110513411,1,0.291,-1.116,0.9211,125,12.207,7.019,1.0376,142,0.6443,0.1501,-10.2376,-60.9726,33,0.4802,7986,3.9688,28.0364
rg,1624568684110542078,1,0.2844,-0.8564,0.7349,126,32.959,3.8452,7.9956,142,0.6553,0.1531,-10.0445,-59.1967,33,0.4882,8150,3.9688,27.9758
rg,1624568684110569596,1,0.376,-0.98,0.7051,127,37.1704,-5.3101,7.6904,142,0.6753,0.1601,-10.1028,-57.3278,33,0.4922,7989,3.9688,28.2073
rg,1624568684110594133,1,0.3364,-0.9763,0.4441,128,66.7114,6.5918,2.8687,142,0.7063,0.1601,-10.1537,-54.938,33,0.4922,8160,3.9688,28.0955
rg,1624568684363357027,1,-0.0605,-0.4937,0.4294,129,-2.6245,-55.9692,5.249,142,0.7424,0.1671,-10.6512,-55.151,33,0.4952,25548,3.9688,30.0425
rg,1624568684363408786,1,0.3733,-0.7397,0.4495,130,-76.8433,-117.5537,32.7148,142,0.7204,0.1681,-12.5726,-59.3007,33,0.4972,10322,3.9688,34.8411
rg,1624568684363439563,1,0.7419,-1.0327,0.5505,131,-102.0508,-126.6479,28.9307,142,0.6773,0.1671,-14.7777,-64.7381,33,0.4992,7722,3.9688,39.0748
rg,1624568684363469156,1,0.7393,-1.0566,0.4871,132,-100.1587,-65.2466,15.5029,142,0.6443,0.1651,-15.8963,-69.4762,33,0.4932,7533,3.9688,41.8466
rg,1624568684363497581,1,0.7695,-0.9805,0.468,133,-67.0166,20.6909,51.4526,142,0.6283,0.1621,-14.4441,-71.9489,33,0.4802,7602,3.9688,41.6987
rg,1624568684363541489,1,0.6855,-0.98,0.4919,134,-58.4106,58.8989,55.603,142,0.6313,0.1591,-12.3274,-73.5944,33,0.4802,7524,3.9688,39.9836
rg,1624568684363570433,1,0.3293,-1.2219,0.4592,135,10.376,119.812,55.1147,142,0.6303,0.1501,-8.9106,-72.2609,33,0.4802,8370,3.9688,35.9326
rg,1624568684363598488,1,0.2793,-1.2566,0.6582,136,22.3389,89.7827,55.7861,142,0.6313,0.1451,-6.1906,-70.3093,33,0.4792,7646,3.9688,33.1896
rg,1624568684363625988,1,0.1079,-1.1453,0.5232,137,70.6787,95.9473,29.4189,142,0.6313,0.1411,-3.6655,-67.0073,33,0.4782,8254,3.9688,30.0054
rg,1624568684363651951,1,-0.0889,-0.6216,0.2732,138,113.6475,65.8569,-8.3008,142,0.6313,0.1411,-2.4108,-62.2944,33,0.4772,7692,3.9688,27.4958
rg,1624568684363713024,1,-0.1875,-0.2993,0.1155,139,124.3286,53.0396,-25.8179,142,0.6313,0.1421,-0.4666,-57.8568,33,0.4762,7651,3.9688,26.2395
rg,1624568684363744246,1,-0.1858,0.144,-0.0359,140,81.7261,-18.6157,-13.855,142,0.6333,0.1441,0.4228,-54.161,33,0.4762,7925,3.9688,26.608
rg,1624568684363772487,1,-0.1111,0.0237,-0.0566,141,-45.166,-95.6421,-1.2207,142,0.6363,0.1471,0.2161,-56.5257,33,0.4792,7664,3.9688,29.6918
rg,1624568684363799783,1,0.5164,-1.2805,1.8052,142,-158.6914,-88.8062,36.9263,142,0.6393,0.1511,-0.8367,-62.0668,33,0.4872,13370,3.9688,33.5229
rg,1624568684363826431,1,0.6245,-1.7163,0.7014,143,-27.771,-49.0723,29.541,142,0.6443,0.1531,-1.9088,-61.5445,33,0.4912,10781,3.9688,34.6131
rg,1624568684363853949,1,0.4607,-1.0725,0.8979,144,37.9028,15.3809,3.9062,142,0.6513,0.1551,-2.112,-59.5714,33,0.4952,7758,3.9688,34.1247
rg,1624568684363880338,1,0.4155,-0.7825,0.6948,145,64.9414,33.5693,14.9536,142,0.6663,0.1581,-1.661,-56.5288,33,0.5002,8046,3.9688,33.26
rg,1624568684363907467,1,0.332,-0.8401,0.6001,146,54.5044,37.1094,6.5918,142,0.6943,0.1621,-1.2395,-54.2351,33,0.5032,7773,3.9688,32.1681
rg,1624568684363934486,1,0.1777,-0.8606,0.4473,147,64.0869,32.8979,7.0801,142,0.7204,0.1651,-0.5897,-51.9734,33,0.5032,8057,3.9688,31.2816
rg,1624568684363960189,1,-0.0132,-0.6736,0.437,148,62.6221,11.6577,-0.6104,142,0.7384,0.1661,-0.2555,-49.6592,33,0.5012,8618,3.9688,30.9075
rg,1624568684363987300,1,-0.073,-0.5764,0.4756,149,43.9453,-8.667,-0.9766,142,0.7494,0.1641,-0.8882,-48.811,33,0.5002,8408,3.9688,32.166
rg,1624568684364018559,1,0.0432,-0.5781,0.4858,150,-7.5684,-68.4814,12.085,142,0.7514,0.1661,-2.4032,-49.2154,33,0.5012,7985,3.9688,34.5555
rg,1624568684364046485,1,0.4324,-0.759,0.5208,151,-63.4155,-104.0649,32.8979,142,0.7374,0.1691,-4.8801,-52.222,33,0.5022,10701,3.9688,38.6494
rg,1624568684364073725,1,0.782,-1.0537,0.5757,152,-96.0083,-92.2241,24.9634,142,0.6913,0.1691,-7.2666,-56.732,33,0.5032,8690,3.9688,42.3166
rg,1624568684364100873,1,0.647,-0.9697,0.4065,153,-83.374,-6.1035,20.6299,142,0.6523,0.1661,-7.625,-60.4925,33,0.4992,8460,3.9688,43.0306
rg,1624568684364126744,1,0.5923,-0.9053,0.4702,154,-77.5757,26.001,34.79,142,0.6313,0.1641,-5.931,-63.338,33,0.4862,8053,3.9688,41.9217
rg,1624568684364152762,1,0.3276,-1.0132,0.5718,155,-71.2891,67.5659,39.4897,142,0.6313,0.1611,-3.7465,-65.9159,33,0.4842,7963,3.9688,40.1384
rg,1624568684364178503,1,0.0432,-1.3223,0.541,156,5.5542,89.7217,45.5322,142,0.6303,0.1501,-0.5522,-65.6577,33,0.4852,8166,3.9688,37.6065
rg,1624568684364204706,1,0.1577,-1.4155,0.5222,157,19.8364,34.9121,53.2837,142,0.6313,0.1441,1.7027,-64.6839,33,0.4842,8035,3.9688,37.2216
rg,1624568684364253354,1,0.0688,-1.2761,0.5588,158,66.1621,22.1558,21.7896,142,0.6313,0.1401,2.6937,-62.1097,33,0.4822,9263,3.9688,36.8096
rg,1624568684364283224,1,-0.0518,-0.7954,0.3479,159,116.0889,-13.6719,-13.7329,142,0.6313,0.1391,1.9762,-57.6235,33,0.4792,8594,3.9688,37.0029
rg,1624568684364314205,1,-0.1934,-0.1567,0.0247,160,136.0474,-41.1987,-43.5791,142,0.6333,0.1401,1.3197,-52.7481,33,0.4782,8076,3.9919,37.4253
rg,1624568684701791517,1,0.261,-0.1692,-0.1646,161,-116.7603,-158.1421,44.7998,142,0.6393,0.1481,-2.4055,-58.978,33,0.4852,25665,3.9919,43.7065
rg,1624568684701832369,1,1.1494,-1.6289,1.9055,162,-178.1006,-8.1787,64.6973,142,0.6423,0.1511,-1.1366,-65.4583,33,0.4892,8949,3.9919,45.2127
rg,1624568684701853499,1,0.7583,-1.7725,0.647,163,-83.1299,39.4897,52.063,142,0.6453,0.1521,0.5795,-68.927,33,0.4922,7679,3.9919,44.5813
rg,1624568684701873332,1,0.3337,-1.009,0.9077,164,16.7236,36.5601,-4.6997,142,0.6573,0.1551,1.3952,-65.9789,33,0.5022,11733,3.9919,42.1023
rg,1624568684701891961,1,0.3047,-0.7969,0.6631,165,83.6182,63.2324,18.3105,142,0.6783,0.1571,2.4561,-62.1011,33,0.5072,8290,3.9919,40.1329
rg,1624568684701910294,1,0.2578,-0.7356,0.4941,166,64.6362,43.335,11.5356,142,0.7063,0.1611,2.9704,-59.3412,33,0.5082,7667,3.9919,38.8325
rg,1624568684701927572,1,0.2009,-0.8186,0.479,167,54.8706,37.6587,7.2021,142,0.7324,0.1651,3.5485,-57.2988,33,0.5072,7464,3.9919,37.6836
rg,1624568684701946146,1,0.0217,-0.7502,0.4731,168,49.4995,23.0103,5.7373,142,0.7474,0.1641,3.7815,-55.4986,33,0.5042,9454,3.9919,37.3405
rg,1624568684701963887,1,0.0178,-0.6589,0.5142,169,36.8042,-5.7983,5.9204,142,0.7564,0.1651,3.6429,-53.8583,33,0.5042,7594,3.9919,37.6737
rg,1624568684701981572,1,0.1528,-0.6523,0.4873,170,-0.4883,-48.8892,13.0005,142,0.7594,0.1661,2.3553,-53.7427,33,0.5032,7684,3.9919,39.5634
rg,1624568684701999405,1,0.2937,-0.6877,0.479,171,-17.5171,-59.4482,22.1558,142,0.7594,0.1671,0.848,-54.4142,33,0.5032,7567,3.9919,42.0122
rg,1624568684702017201,1,0.5476,-0.8657,0.5857,172,-68.4814,-56.9458,32.2266,142,0.7334,0.1701,-0.4408,-57.18,33,0.5032,7562,3.9919,44.6425
rg,1624568684702034312,1,0.5625,-1.0972,0.5332,173,-90.6372,-28.2593,13.2446,142,0.6633,0.1691,-1.4957,-61.0556,33,0.5022,11728,3.9919,45.9152
rg,1624568684702068201,1,0.5415,-1.0688,0.5361,174,-70.0073,17.2729,31.6772,142,0.6353,0.1661,-0.9392,-63.9218,33,0.4932,7841,3.9919,45.9048
rg,1624568684702097200,1,0.335,-1.0649,0.571,175,-50.354,64.3921,46.7529,142,0.6243,0.1611,1.2625,-65.8428,33,0.4752,7785,3.9919,44.3648
rg,1624568684702128404,1,0.2102,-1.1079,0.8013,176,-38.0859,75.5615,49.4995,142,0.6283,0.1491,3.8759,-66.982,33,0.4762,7696,3.9919,42.3897
rg,1624568684702147608,1,0.0146,-1.1711,0.2622,177,48.2788,58.4106,50.1709,142,0.6273,0.1391,6.4599,-65.5727,33,0.4732,8067,3.9919,41.0146
rg,1624568684702166311,1,0.0229,-0.95,0.5591,178,65.4907,15.1367,39.978,142,0.6263,0.1331,7.854,-62.6835,33,0.4712,9457,3.9919,41.1838
rg,1624568684702184922,1,0.0864,-0.4214,0.1228,179,107.1167,-12.7563,23.1323,142,0.6273,0.1291,7.6791,-58.7082,33,0.4692,9230,3.9919,42.0021
rg,1624568684702205126,1,0.0764,-0.1577,0.0286,180,92.5293,-19.8975,9.4604,142,0.6263,0.1301,6.3461,-55.643,33,0.4662,7705,3.9919,42.7475
rg,1624568684702222626,1,0.0791,0.1111,0.0042,181,16.8457,-70.6787,3.7231,142,0.6283,0.1311,3.6992,-53.6642,33,0.4672,7870,3.9919,45.2509
rg,1624568684702261033,1,0.1597,-0.0381,0.1025,182,-49.7437,-98.0835,7.2021,142,0.6293,0.1361,0.6251,-54.9245,33,0.4672,7787,3.9919,48.6579
rg,1624568684702280440,1,0.5415,-1.1074,1.1938,183,-134.5825,-57.1899,20.874,142,0.6323,0.1371,-0.6335,-59.8322,33,0.4692,7954,3.9919,51.0684
rg,1624568684702299458,1,0.3994,-1.5942,0.8279,184,-67.8101,-9.0332,2.3804,142,0.6343,0.1391,-1.1908,-62.6384,33,0.4722,7891,3.9919,51.4423
rg,1624568684702316792,1,0.2468,-1.4382,0.936,185,-31.1279,-7.9956,-14.0991,142,0.6363,0.1401,-2.1127,-63.6455,33,0.4752,7833,3.9919,51.4715
rg,1624568684702334884,1,0.126,-0.8506,0.6887,186,9.3384,-5.7373,0.3662,142,0.6403,0.1431,-2.3801,-62.7719,33,0.4802,8076,3.9919,51.6626
rg,1624568684702352643,1,0.2207,-0.8862,0.6165,187,-2.5635,-17.5781,5.4932,142,0.6473,0.1461,-3.1617,-63.036,33,0.4902,7849,3.9919,52.8557
rg,1624568684702370254,1,0.2961,-1.0203,0.592,188,-4.6997,-43.0298,2.0142,142,0.6583,0.1481,-4.2911,-63.1908,33,0.4962,7920,3.9919,54.4244
rg,1624568684702387439,1,0.4646,-1.1152,0.4875,189,38.6963,-36.8042,-1.1597,105,0.6823,0.1551,-5.6528,-61.8623,33,0.5022,8147,3.9919,55.7143
rg,1624568684702405421,1,0.2651,-0.7898,0.3215,190,56.8848,-23.7427,-9.2163,105,0.7093,0.1571,-6.9593,-59.3661,33,0.5032,7983,3.9919,55.9934
rg,1624568684702422939,1,0.1477,-0.6567,0.2976,191,69.2139,-15.7471,-15.9302,105,0.7264,0.1611,-8.0127,-56.86,33,0.5042,8157,3.9919,56.2195
rg,1624568684702473698,1,0.04,-0.5808,0.3521,192,25.4517,-29.7241,-6.3477,105,0.7384,0.1631,-8.691,-56.033,33,0.5052,8007,3.9919,57.0925
rg,1624568685032725458,1,0.5869,-0.9182,0.4875,193,-51.3916,-61.2793,19.3481,105,0.6833,0.1691,-9.818,-59.0743,33,0.5042,25687,3.9919,58.7855
rg,1624568685032768865,1,0.4932,-0.9968,0.4219,194,-60.73,-9.3384,14.7095,105,0.6473,0.1691,-10.0462,-61.8237,33,0.4982,8525,3.9919,59.4577
rg,1624568685032790346,1,0.5291,-1.0068,0.4961,195,-33.6304,38.147,47.3633,105,0.6273,0.1671,-7.3809,-62.6484,33,0.4802,7801,3.9919,58.2646
rg,1624568685032810272,1,0.1768,-1.0898,1.0046,196,11.1694,104.187,48.2178,105,0.6303,0.1521,-3.7281,-61.3196,33,0.4802,9784,3.9919,55.3903
rg,1624568685032828865,1,0.0371,-1.0815,0.4187,197,56.6406,99.4263,49.4385,105,0.6273,0.1451,0.0132,-59.2617,33,0.4772,7535,3.9919,52.9262
rg,1624568685032846624,1,0.0547,-0.9368,0.5532,198,74.707,51.6357,49.9878,105,0.6273,0.1391,2.6787,-56.2893,33,0.4762,7666,3.9919,52.2341
rg,1624568685032864661,1,-0.0295,-0.7798,0.4673,199,100.2808,42.7246,32.4097,105,0.6283,0.1341,4.6854,-52.4259,33,0.4732,7473,3.9919,51.5883
rg,1624568685032884068,1,0.0059,-0.2231,0.0845,200,109.1309,0.5493,10.3149,105,0.6283,0.1331,4.7853,-48.7004,33,0.4712,7704,3.9919,51.7717
rg,1624568685032901179,1,0.0112,0.083,0.0261,201,86.1816,-21.2402,1.6479,105,0.6303,0.1351,3.0916,-44.8206,33,0.4712,7487,3.9919,53.6287
rg,1624568685032919531,1,0.0823,0.0884,0.0168,202,-11.5967,-89.1724,3.6621,105,0.6323,0.1391,-0.6589,-44.9917,33,0.4732,9375,3.9919,56.2666
rg,1624568685032940364,1,0.417,-0.6572,0.9382,203,-123.5352,-105.957,12.6953,105,0.6353,0.1411,-3.8884,-49.6776,33,0.4742,7525,3.9919,59.7557
rg,1624568685032958308,1,0.5425,-1.4929,0.8291,204,-133.4229,-58.0444,21.3623,105,0.6383,0.1411,-4.1199,-53.8668,33,0.4812,7584,3.9919,60.8746
rg,1624568685032975456,1,0.4802,-1.5776,0.8826,205,-50.1709,-11.7798,2.1362,105,0.6403,0.1441,-4.7419,-56.157,33,0.4842,7771,3.9919,61.3371
rg,1624568685032993919,1,0.176,-1.0999,0.875,206,6.7749,8.4839,-9.7046,105,0.6433,0.1461,-4.9686,-55.6473,33,0.4892,7654,3.9919,60.8199
rg,1624568685033011549,1,0.1665,-0.8989,0.7776,207,16.6626,0.7935,4.6387,105,0.6503,0.1481,-4.9176,-54.7202,33,0.4962,7779,3.9919,60.8749
rg,1624568685033029234,1,0.2388,-0.9768,0.6519,208,11.1084,-15.8081,6.8359,105,0.6633,0.1521,-5.3181,-54.3855,33,0.5022,7604,3.9919,61.5544
rg,1624568685033046900,1,0.3608,-1.0374,0.4775,209,24.6582,-22.1558,5.5542,105,0.6873,0.1591,-6.0603,-53.2952,33,0.5052,7817,3.9919,62.2419
rg,1624568685033091418,1,0.335,-0.9463,0.4312,210,50.0488,-10.498,-0.8545,105,0.7123,0.1611,-6.8097,-51.7809,33,0.5062,7713,3.9919,62.5973
rg,1624568685033120233,1,0.1743,-0.72,0.3611,211,51.8799,-12.4512,-7.9346,105,0.7304,0.1651,-7.5853,-50.1709,33,0.5062,7825,3.9919,62.8359
rg,1624568685033142048,1,0.0996,-0.6487,0.3625,212,38.208,-12.085,-6.8359,105,0.7394,0.1681,-8.1102,-49.0798,33,0.5062,7766,3.9919,63.0844
rg,1624568685033160325,1,0.1438,-0.7244,0.4819,213,-9.7656,-40.4053,3.6621,105,0.7454,0.1691,-9.0923,-49.946,33,0.5062,7901,3.9919,64.4657
rg,1624568685033178233,1,0.4326,-0.8352,0.4609,214,-56.8237,-65.7349,21.0571,105,0.7354,0.1701,-10.6604,-53.0618,33,0.5082,7775,3.9919,67.1664
rg,1624568685033197455,1,0.5576,-0.9216,0.4932,215,-82.1533,-64.5142,19.5312,105,0.6913,0.1711,-12.1635,-57.1638,33,0.5052,7953,3.9919,69.8617
rg,1624568685033215862,1,0.4619,-1.0049,0.4016,216,-98.2056,-26.6724,4.8218,105,0.6453,0.1691,-12.9681,-61.7118,33,0.4982,8530,3.9919,71.0049
rg,1624568685033233880,1,0.5212,-0.9502,0.4568,217,-58.2886,21.7896,41.8701,105,0.6303,0.1661,-11.6086,-64.1206,33,0.4852,8064,3.9919,71.0133
rg,1624568685033252047,1,0.4187,-1.1001,0.6038,218,-39.0015,56.4575,52.3071,105,0.6313,0.1551,-9.0358,-65.345,33,0.4792,7859,3.9919,69.8135
rg,1624568685033269788,1,0.1936,-1.2532,0.2651,219,38.5742,60.791,44.4336,105,0.6313,0.1471,-6.3944,-64.0942,33,0.4792,10092,3.9919,68.4296
rg,1624568685033287880,1,0.3003,-1.2222,0.4817,220,50.7202,25.3296,46.2646,105,0.6313,0.1431,-4.5496,-62.2186,33,0.4772,7980,3.9919,68.3671
rg,1624568685033305787,1,-0.0032,-0.9275,0.3982,221,107.2998,35.6445,11.9019,105,0.6323,0.1391,-3.6287,-57.4689,33,0.4742,8128,3.9919,67.8254
rg,1624568685033323843,1,-0.0767,-0.3853,0.1343,222,126.5869,13.2446,-3.0518,105,0.6313,0.1371,-2.8747,-52.893,33,0.4722,8067,3.9919,67.3758
rg,1624568685033341917,1,-0.0725,-0.0388,0.0347,223,79.7729,-23.9258,3.418,105,0.6323,0.1391,-1.4555,-49.6288,33,0.4722,8144,3.9919,68.2634
rg,1624568685033360713,1,-0.0146,0.0222,0.0259,224,42.3584,-61.0352,4.9438,105,0.6353,0.1431,-4.4502,-49.2612,33,0.4742,8019,3.9919,70.9299
rg,1624568685375536718,1,0.4299,-1.3157,0.8184,225,-60.6689,9.7656,13.3667,105,0.6413,0.1491,-4.2265,-52.0123,33,0.4822,23933,3.9919,71.0002
rg,1624568685375574143,1,0.188,-1.1689,0.9451,226,-13.0615,7.3242,-14.4043,105,0.6443,0.1501,-4.6171,-52.4382,33,0.4882,8856,3.9919,70.4111
rg,1624568685375617458,1,0.1699,-0.8879,0.792,227,15.3809,-6.1035,0.061,105,0.6563,0.1531,-4.9026,-51.6641,33,0.5002,11682,3.9919,70.5906
rg,1624568685375638402,1,0.3484,-0.9734,0.6343,228,26.9775,-20.813,5.9204,105,0.6723,0.1581,-5.6989,-50.849,34,0.5042,7532,3.9919,71.4041
rg,1624568685375656976,1,0.3831,-0.9644,0.5505,229,33.02,-16.8457,4.5166,105,0.6953,0.1631,-6.5119,-49.941,34,0.5072,7395,3.9919,72.0714
rg,1624568685375674643,1,0.2783,-0.8467,0.4714,230,38.5132,-8.3618,-10.8032,105,0.7163,0.1651,-7.434,-48.8063,34,0.5072,7598,3.9919,72.0868
rg,1624568685375692494,1,0.2136,-0.7681,0.4707,231,33.8135,-9.3384,-9.0332,105,0.7334,0.1701,-8.0328,-47.7444,34,0.5082,7449,3.9919,72.1626
rg,1624568685375709772,1,0.1025,-0.687,0.4902,232,8.4839,-24.5972,-5.4321,105,0.7404,0.1701,-8.8074,-47.7483,33,0.5082,7648,3.9919,72.7894
rg,1624568685375726716,1,0.2002,-0.783,0.4944,233,-23.3765,-53.2227,3.418,105,0.7434,0.1721,-10.2418,-49.3437,33,0.5092,7601,3.9919,74.5624
rg,1624568685375744253,1,0.3391,-0.8259,0.4751,234,-37.7808,-64.0259,12.3901,105,0.7294,0.1721,-12.0563,-51.6642,33,0.5102,7795,3.9919,76.9755
rg,1624568685375765086,1,0.5916,-0.9749,0.5044,235,-74.0967,-66.2231,16.4185,105,0.6883,0.1731,-13.7242,-55.5827,33,0.5092,9072,3.9919,79.6652
rg,1624568685375783549,1,0.5137,-1.0266,0.4316,236,-86.6699,-20.813,8.2397,105,0.6523,0.1721,-14.3255,-59.6811,33,0.5022,7582,3.9919,80.6863
rg,1624568685375801845,1,0.3933,-0.9795,0.4434,237,-40.9546,28.2593,32.4707,105,0.6363,0.1721,-12.8734,-61.4484,33,0.4902,7935,3.9919,80.3814
rg,1624568685375819642,1,0.3601,-0.9995,0.3828,238,-29.7241,34.8511,43.8232,105,0.6303,0.1661,-10.9088,-62.8265,33,0.4782,7583,3.9919,80.0168
rg,1624568685375836308,1,0.239,-1.1436,0.8469,239,2.0752,49.5605,46.3867,105,0.6343,0.1531,-8.3089,-62.207,33,0.4812,7659,3.9919,79.0212
rg,1624568685375853771,1,0.1819,-1.1475,0.2561,240,55.481,42.0532,49.9268,105,0.6323,0.1471,-5.9995,-60.3049,33,0.4792,7686,3.9919,78.5454
rg,1624568685375871049,1,0.2244,-0.9683,0.478,241,79.895,12.5732,44.1284,105,0.6313,0.1441,-4.4611,-57.2794,33,0.4762,7772,3.9919,79.0324
rg,1624568685375888493,1,0.0823,-0.6404,0.2649,242,116.4551,5.6152,25.5127,105,0.6323,0.1401,-3.5924,-53.0499,33,0.4762,7647,3.9919,79.4558
rg,1624568685375906363,1,0.0664,-0.4077,0.1665,243,109.0088,2.2583,15.8081,105,0.6313,0.1381,-3.2464,-49.2804,33,0.4742,7977,3.9919,79.8091
rg,1624568685375935289,1,0.0139,-0.0835,0.0398,244,72.3877,-17.6392,14.5264,105,0.6343,0.1401,-3.4961,-47.0255,33,0.4752,7816,3.9919,80.7521
rg,1624568685375954067,1,0.3718,-0.509,0.7222,245,-23.3765,-62.0728,21.8506,105,0.6363,0.1431,-4.988,-49.6422,33,0.4782,14276,3.9919,83.112
rg,1624568685375971604,1,0.5085,-0.9856,1.0239,246,-91.5527,-27.9541,29.7852,105,0.6393,0.1461,-5.326,-53.2172,33,0.4812,7745,3.9919,84.7311
rg,1624568685375988677,1,0.4077,-1.3882,0.885,247,-53.2837,10.9253,4.6387,105,0.6413,0.1501,-5.2603,-55.4743,33,0.4842,7884,3.9919,84.502
rg,1624568685376006270,1,0.2527,-1.3032,0.9988,248,-27.771,16.1133,-10.437,105,0.6443,0.1501,-5.3846,-56.3831,33,0.4882,7786,3.9919,83.7198
rg,1624568685376023085,1,0.1221,-0.9429,0.8577,249,4.8828,6.1646,0.5493,105,0.6483,0.1521,-5.2345,-55.815,33,0.4962,8042,3.9919,83.4925
rg,1624568685376040288,1,0.2097,-0.9966,0.7483,250,-0.6104,-15.8081,6.7749,105,0.6593,0.1541,-5.5334,-55.7837,33,0.5032,8178,3.9919,84.1597
rg,1624568685376057140,1,0.322,-1.0679,0.6714,251,13.6719,-25.0244,6.5308,105,0.6783,0.1591,-6.3466,-55.5383,33,0.5072,8344,3.9919,85.1568
rg,1624568685376074232,1,0.3882,-0.9902,0.5254,252,44.5557,-17.2729,-4.1504,105,0.7053,0.1641,-7.3789,-54.0483,33,0.5082,7898,3.9919,85.6484
rg,1624568685376090992,1,0.2881,-0.8452,0.4563,253,50.8423,-11.5967,-13.7939,105,0.7274,0.1661,-8.4643,-52.3015,33,0.5072,8028,3.9919,85.7206
rg,1624568685376108954,1,0.2256,-0.7634,0.394,254,48.0957,-13.3667,-11.9629,105,0.7424,0.1681,-9.215,-50.8115,33,0.5052,8303,3.9919,85.9054
rg,1624568685376126658,1,0.0835,-0.689,0.3955,255,28.3203,-18.0664,-5.3101,105,0.7524,0.1701,-9.7114,-50.111,33,0.5042,9736,3.9919,86.3941
rg,1624568685376144825,1,0.1279,-0.7524,0.4709,256,0.9766,-43.6401,3.1738,105,0.7564,0.1691,-10.6609,-50.6287,33,0.5042,7978,3.9919,87.896
rg,1624568685707160662,1,0.4399,-0.9978,0.4182,257,-79.1626,-48.7671,15.5029,105,0.6683,0.1721,-11.216,-54.5484,33,0.4972,25291,3.9919,89.0616
rg,1624568685707233884,1,0.4578,-0.968,0.489,258,-64.0869,-1.8921,26.6724,105,0.6333,0.1721,-9.8921,-56.6283,33,0.4872,8681,3.9919,89.4769
rg,1624568685707255106,1,0.3252,-0.991,0.5129,259,-23.8647,45.166,49.8047,105,0.6283,0.1631,-7.5005,-57.7324,33,0.4742,12271,3.9919,89.0652
rg,1624568685707274347,1,0.1304,-1.1353,0.8899,260,11.5967,57.0068,43.5181,105,0.6313,0.1461,-4.7241,-56.9202,33,0.4752,10044,3.9919,88.0412
rg,1624568685707350495,1,0.0913,-1.1536,0.3799,261,57.0679,33.6914,44.6777,105,0.6313,0.1421,-2.722,-54.9033,33,0.4742,7503,3.9919,87.9379
rg,1624568685707371365,1,0.1313,-0.9692,0.5334,262,71.0449,-1.709,29.541,105,0.6303,0.1391,-1.9731,-52.3329,33,0.4722,7639,3.9919,88.6989
rg,1624568685707389957,1,0.0684,-0.5374,0.2983,263,98.1445,-20.1416,11.1084,105,0.6313,0.1361,-2.3124,-48.7771,33,0.4702,7486,3.9919,89.6094
rg,1624568685707409124,1,0.0525,-0.2883,0.179,264,91.98,-26.1841,0.1831,105,0.6313,0.1351,-3.8326,-45.8794,33,0.4702,7616,3.9919,90.4758
rg,1624568685707426901,1,0.0706,-0.009,0.0752,265,39.4897,-50.9644,3.0518,105,0.6333,0.1371,-6.6416,-43.3837,33,0.4692,9209,3.9919,91.8969
rg,1624568685707444198,1,0.2861,-0.3379,0.4924,266,-65.8569,-60.3638,12.207,105,0.6363,0.1411,-8.744,-45.9594,33,0.4722,7492,3.9919,93.9393
rg,1624568685707463846,1,0.4641,-1.1819,0.9612,267,-95.2759,-14.8315,21.2402,105,0.6393,0.1451,-8.8287,-50.0954,33,0.4782,13031,3.9919,94.9976
rg,1624568685707483346,1,0.3242,-1.3845,0.8823,268,-36.9873,-3.9673,-2.2583,105,0.6433,0.1491,-9.0908,-51.8609,33,0.4832,7551,3.9919,95.1096
rg,1624568685707501475,1,0.1934,-0.9592,0.8079,269,-7.2021,4.4556,-3.8452,105,0.6483,0.1521,-8.7791,-51.1124,33,0.4912,7777,3.9919,94.9969
rg,1624568685707520271,1,0.2219,-0.8347,0.6973,270,25.7568,-2.6855,9.2773,105,0.6583,0.1561,-8.6676,-50.0823,33,0.4992,7550,3.9919,95.3095
rg,1624568685707541604,1,0.4041,-0.9255,0.5703,271,27.4048,-10.5591,14.2212,105,0.6763,0.1611,-8.968,-49.394,33,0.5042,7779,3.9919,96.0487
rg,1624568685707560901,1,0.3428,-0.9128,0.4453,272,33.7524,-4.2114,8.5449,105,0.7043,0.1661,-9.4307,-48.2998,33,0.5072,8943,3.9919,96.095
rg,1624568685707579382,1,0.2463,-0.8474,0.4141,273,45.8984,0.1831,-9.5825,105,0.7244,0.1691,-9.9266,-47.0129,33,0.5082,8380,3.9919,95.9228
rg,1624568685707598660,1,0.0955,-0.7175,0.4385,274,34.79,-4.6997,-2.1362,105,0.7394,0.1731,-9.9867,-46.0863,33,0.5082,7726,3.9919,96.0814
rg,1624568685707616752,1,0.1047,-0.7212,0.4763,275,20.6909,-17.0288,-0.1221,105,0.7474,0.1741,-10.7979,-46.5649,33,0.5092,7927,3.9919,97.2474
rg,1624568685707636030,1,0.2058,-0.7717,0.488,276,-10.0098,-51.6968,8.9111,105,0.7494,0.1771,-12.0141,-47.745,33,0.5082,7866,3.993,99.1252
rg,1624568685707678752,1,0.4736,-0.8162,0.4683,277,-28.9917,-62.439,22.4609,105,0.7444,0.1801,-13.5537,-49.9022,33,0.5092,7831,3.993,101.763
rg,1624568685707702807,1,0.5698,-0.8574,0.5273,278,-50.415,-55.0537,25.8179,105,0.7093,0.1801,-14.6874,-52.906,33,0.5082,7953,3.993,104.3101
rg,1624568685707721288,1,0.4705,-1.0403,0.4727,279,-81.4209,-21.4844,11.3525,105,0.6663,0.1791,-15.1156,-56.8788,33,0.5042,7814,3.993,105.4368
rg,1624568685707740455,1,0.3528,-0.9783,0.4624,280,-58.96,7.2632,31.6162,105,0.6373,0.1741,-14.0075,-59.633,33,0.4972,8067,3.993,105.9441
rg,1624568685707759529,1,0.3389,-0.9465,0.4629,281,-45.2271,19.7144,41.687,105,0.6273,0.1661,-12.3234,-61.6236,33,0.4792,7887,3.993,106.1123
rg,1624568685707791232,1,0.3013,-1.0635,0.8638,282,-27.2217,38.7573,50.5371,105,0.6313,0.1511,-9.8302,-62.1948,33,0.4802,8050,3.993,105.5875
rg,1624568685707810843,1,0.3298,-1.1335,0.2495,283,55.1147,15.1978,65.6738,105,0.6293,0.1441,-7.4908,-60.6775,33,0.4782,7984,3.993,106.4044
rg,1624568685707829140,1,0.4539,-1.0962,0.5847,284,52.3682,-1.2817,62.9272,105,0.6293,0.1381,-5.8394,-58.7729,33,0.4762,8145,3.993,107.7145
rg,1624568685707847306,1,0.1724,-0.8472,0.3218,285,99.9756,17.2119,18.3716,105,0.6303,0.1371,-5.0512,-55.1586,33,0.4752,8011,3.993,107.5678
rg,1624568685707865065,1,0.052,-0.26,0.1318,286,108.9478,4.3335,-12.4512,105,0.6313,0.1371,-5.5472,-51.0683,33,0.4752,8172,3.993,107.1481
rg,1624568685707883361,1,-0.0176,-0.0728,0.0703,287,89.9048,0.8545,-12.0239,105,0.6323,0.1381,-5.2857,-47.2402,33,0.4742,8025,3.993,106.8086
rg,1624568685707901546,1,0.0159,-0.0945,0.1619,288,-8.667,-34.1797,9.1553,105,0.6353,0.1441,-5.9322,-47.0348,33,0.4762,8217,3.993,108.0049
rg,1624568686049151775,1,0.3711,-1.4041,0.8474,289,-36.499,-8.7891,26.5503,105,0.6423,0.1551,-6.1615,-47.8129,33,0.4882,25261,3.993,108.4017
rg,1624568686049202867,1,0.2131,-0.8018,0.7124,290,44.6167,11.2305,10.6201,105,0.6533,0.1591,-5.7463,-46.0389,34,0.4982,15053,3.993,108.3594
rg,1624568686049233793,1,0.2839,-0.9895,0.6738,291,47.6685,-4.4556,2.3804,105,0.6733,0.1611,-6.1054,-44.52,34,0.5022,7495,3.993,108.5861
rg,1624568686049263089,1,0.2822,-1.0149,0.5632,292,60.8521,-4.8218,-0.6714,105,0.7043,0.1671,-6.5702,-42.7225,34,0.5052,7472,3.993,108.7615
rg,1624568686049291033,1,0.2466,-0.8396,0.4463,293,83.1299,4.2114,-0.3662,105,0.7294,0.1691,-6.7827,-40.1114,34,0.5042,7482,3.993,108.7128
rg,1624568686049318126,1,0.2012,-0.6982,0.436,294,81.9092,3.3569,-2.8076,105,0.7454,0.1701,-6.9881,-37.8074,33,0.5022,7501,3.993,108.483
rg,1624568686049345811,1,0.0046,-0.5188,0.4346,295,49.4385,-3.2959,-7.2021,105,0.7574,0.1681,-7.0111,-36.2929,33,0.5002,9179,3.993,108.3942
rg,1624568686049372996,1,-0.0107,-0.6191,0.5454,296,-3.8452,-38.3911,5.3101,105,0.7654,0.1701,-7.8081,-37.067,33,0.5002,7595,3.993,109.5509
rg,1624568686049434514,1,0.1125,-0.699,0.5254,297,-18.9819,-64.5752,12.3901,105,0.7684,0.1731,-9.9725,-38.8246,33,0.5002,7409,3.993,111.6578
rg,1624568686049466014,1,0.5215,-0.7559,0.5461,298,-39.0015,-87.2803,29.541,105,0.7654,0.1751,-12.6184,-41.5399,33,0.4972,7608,3.993,114.9865
rg,1624568686049494032,1,0.7278,-0.9326,0.6416,299,-59.9976,-74.8901,29.2969,105,0.7384,0.1771,-14.3284,-45.9322,33,0.4962,7493,3.993,117.2197
rg,1624568686049521717,1,0.6692,-1.0359,0.6179,300,-104.248,-29.7241,10.6812,105,0.6913,0.1761,-15.3726,-50.8681,33,0.4932,7626,3.993,118.573
rg,1624568686049548772,1,0.5537,-1.0964,0.5015,301,-97.1069,9.7046,17.5781,105,0.6533,0.1731,-14.9549,-55.3022,33,0.4892,7597,3.993,118.8412
rg,1624568686049575402,1,0.4636,-1.0615,0.5513,302,-77.8809,36.8042,25.9399,105,0.6293,0.1711,-13.5357,-58.506,33,0.4802,7738,3.993,118.2233
rg,1624568686049602735,1,0.2449,-1.0352,0.5654,303,-52.1851,66.2842,40.7715,105,0.6233,0.1641,-10.7243,-60.3759,33,0.4672,7631,3.993,116.7508
rg,1624568686049628828,1,0.0525,-1.2222,0.9985,304,-40.3442,65.918,43.457,105,0.6283,0.1491,-7.5517,-60.0542,33,0.4692,7833,3.993,114.9572
rg,1624568686049655513,1,0.0134,-1.2783,0.4026,305,43.6401,48.8281,52.3071,105,0.6263,0.1421,-4.4991,-58.7271,33,0.4662,7649,3.993,114.3977
rg,1624568686049681679,1,0.1287,-1.1201,0.5371,306,78.9795,-2.2583,46.936,94,0.6273,0.1391,-3.0271,-55.8562,33,0.4662,7870,3.993,115.5007
rg,1624568686049706864,1,0.0564,-0.8677,0.3689,307,120.6665,-11.9019,28.6255,94,0.6263,0.1371,-2.4042,-51.517,33,0.4642,7667,3.993,116.5829
rg,1624568686049733475,1,0.1157,-0.188,0.01,308,137.207,-39.4287,5.188,94,0.6273,0.1361,-4.3878,-47.2353,33,0.4632,7871,3.993,117.9204
rg,1624568686049759234,1,0.0593,0.1948,0.0125,309,124.6948,-60.9131,-13.6108,94,0.6293,0.1361,-7.8545,-42.3907,33,0.4632,7673,3.993,119.6499
rg,1624568686049787567,1,0.1074,0.186,-0.0544,310,28.8086,-89.2334,0.061,94,0.6303,0.1401,-11.83,-40.6089,33,0.4642,7868,3.993,121.8893
rg,1624568686049820419,1,0.4421,-0.343,0.4065,311,-127.2583,-50.0488,41.687,94,0.6323,0.1411,-13.1874,-46.2455,33,0.4672,8463,3.993,124.5839
rg,1624568686049848604,1,0.5315,-1.4656,1.2324,312,-147.4609,75.9888,50.5981,94,0.6353,0.1421,-9.7775,-52.0609,33,0.4702,7762,3.993,123.6156
rg,1624568686049875122,1,0.293,-1.6567,0.7646,313,-88.8672,64.3921,23.9868,94,0.6363,0.1481,-7.4792,-55.8808,33,0.4742,8011,3.993,122.1602
rg,1624568686049901678,1,-0.0398,-1.293,1.0337,314,-4.8828,22.9492,-13.916,94,0.6393,0.1471,-7.0773,-55.7457,33,0.4822,8047,3.993,121.0552
rg,1624568686049927733,1,0.0764,-0.8313,0.7732,315,27.8931,-11.5356,20.752,94,0.6463,0.1521,-6.5336,-54.3772,33,0.4942,8512,3.993,121.8712
rg,1624568686049954751,1,0.1721,-0.8638,0.7183,316,19.043,-30.7617,15.7471,94,0.6573,0.1541,-6.8285,-53.6018,33,0.5012,7849,3.993,123.2259
rg,1624568686049980436,1,0.3931,-1.0212,0.5505,317,31.25,-38.8794,12.0239,94,0.6773,0.1581,-7.8368,-52.844,33,0.5052,8027,3.993,124.8041
rg,1624568686050004992,1,0.3398,-0.8892,0.446,318,50.0488,-17.2119,-3.9673,94,0.7053,0.1611,-8.8201,-51.2957,33,0.5092,7922,3.993,125.3015
rg,1624568686050051880,1,0.2307,-0.7964,0.4177,319,52.7954,-13.0615,-9.7046,94,0.7244,0.1631,-9.6748,-49.6284,33,0.5092,8060,3.993,125.5213
rg,1624568686050082065,1,0.071,-0.6482,0.3987,320,35.9497,-22.2778,-7.3242,94,0.7384,0.1671,-10.3064,-48.6176,33,0.5092,7941,3.993,126.0722
rg,1624568686398117231,1,0.564,-0.9133,0.4885,321,-52.7344,-71.167,21.7285,94,0.6793,0.1721,-12.2209,-52.9408,33,0.5062,24827,3.993,128.9638
rg,1624568686398151416,1,0.5122,-1.0518,0.4211,322,-98.0835,-21.0571,13.1226,94,0.6393,0.1721,-12.749,-57.6236,33,0.4932,10682,3.993,130.114
rg,1624568686398171879,1,0.5195,-0.9578,0.4331,323,-49.6216,46.814,46.9971,94,0.6293,0.1721,-10.7138,-59.7558,33,0.4772,7507,3.993,129.5407
rg,1624568686398191064,1,0.4663,-0.9363,0.4773,324,-40.6494,73.7305,54.8706,94,0.6313,0.1541,-7.3377,-60.2604,33,0.4772,7557,3.993,127.3356
rg,1624568686398209805,1,0.1382,-1.1707,0.6511,325,3.0518,101.1353,43.5791,94,0.6303,0.1481,-3.7711,-59.8943,33,0.4762,7410,3.993,124.6798
rg,1624568686398228971,1,0.134,-1.2329,0.6121,326,42.1143,32.4707,37.7197,94,0.6303,0.1441,-1.8881,-58.3291,33,0.4752,7551,3.993,124.3413
rg,1624568686398246545,1,0.0186,-1.104,0.5088,327,71.8994,30.2734,15.9302,94,0.6313,0.1401,-0.582,-55.7479,33,0.4722,8795,3.993,123.6817
rg,1624568686398264341,1,-0.0557,-0.3538,0.1201,328,132.0801,19.4702,-13.0615,94,0.6323,0.1421,-0.1843,-51.0601,34,0.4712,7640,3.993,122.7673
rg,1624568686398282582,1,-0.157,0.1816,-0.0381,329,100.4639,-12.085,-6.7749,94,0.6313,0.1441,0.7525,-46.2706,34,0.4712,10594,3.993,123.0151
rg,1624568686398300860,1,-0.0649,0.0178,-0.1477,330,-47.1191,-100.8301,12.5122,94,0.6353,0.1471,-0.6374,-49.4751,34,0.4732,7440,3.993,126.3041
rg,1624568686398317897,1,0.0796,-0.4285,0.3464,331,-134.5215,-144.7754,24.4751,94,0.6373,0.1441,-3.678,-55.0897,34,0.4772,7533,3.993,131.4982
rg,1624568686398361915,1,0.6562,-1.7729,1.1008,332,-119.0796,-52.8564,56.3354,94,0.6413,0.1501,-3.4417,-60.1302,33,0.4822,7551,3.993,134.5201
rg,1624568686398380396,1,0.7432,-1.8521,0.5151,333,-23.8647,-37.9028,53.5889,94,0.6443,0.1531,-3.0832,-61.2781,33,0.4882,7969,3.993,136.9003
rg,1624568686398398174,1,0.4976,-1.0498,0.822,334,56.2744,34.3628,4.7607,94,0.6473,0.1531,-2.9151,-58.6139,33,0.4912,7573,3.993,135.7649
rg,1624568686398415526,1,0.2314,-0.5898,0.6199,335,55.0537,55.0537,16.6626,94,0.6563,0.1541,-1.6556,-55.7737,33,0.4992,7897,3.993,134.2263
rg,1624568686398432637,1,0.126,-0.7854,0.6477,336,30.9448,45.4712,6.7749,94,0.6673,0.1551,-0.6126,-54.2914,33,0.5032,7787,3.993,132.8777
rg,1624568686398449544,1,0.0667,-1.0208,0.4829,337,49.1333,10.6812,10.8032,94,0.6923,0.1611,-0.1233,-52.7267,33,0.5052,7753,3.993,132.7921
rg,1624568686398466210,1,0.0161,-0.7129,0.408,338,71.3501,-9.8877,7.3853,94,0.7234,0.1651,-0.1771,-50.1643,33,0.5062,12086,3.993,133.285
rg,1624568686398483136,1,0.0171,-0.5708,0.4348,339,44.0063,-42.1143,9.3994,94,0.7354,0.1671,-1.0298,-48.5129,33,0.5062,9135,3.993,134.8092
rg,1624568686398500229,1,0.241,-0.6018,0.4131,340,-26.001,-80.3833,21.7285,94,0.7354,0.1661,-3.1313,-49.9126,33,0.5072,7704,3.993,137.8269
rg,1624568686398517766,1,0.4214,-0.7122,0.499,341,-70.7397,-88.501,23.6206,94,0.7073,0.1691,-5.4536,-53.1597,33,0.5072,7808,3.993,141.2291
rg,1624568686398546191,1,0.5024,-1.0735,0.5823,342,-109.6802,-60.0586,9.0332,94,0.6693,0.1711,-7.1597,-58.0765,33,0.5012,7772,3.993,143.4849
rg,1624568686398564006,1,0.5916,-1.0288,0.3833,343,-73.4863,-16.8457,35.7056,94,0.6433,0.1741,-7.0836,-61.5655,33,0.4882,8977,3.993,144.8641
rg,1624568686398581062,1,0.6416,-0.939,0.3835,344,-53.2837,14.7705,43.5181,94,0.6323,0.1731,-6.2383,-63.9247,33,0.4732,8379,3.993,145.174
rg,1624568686398598450,1,0.5159,-1.0012,0.7246,345,-38.5132,88.0127,47.1191,94,0.6353,0.1581,-3.6806,-64.8858,33,0.4742,7944,3.993,142.7582
rg,1624568686398615691,1,0.1611,-1.3059,0.4661,346,10.0708,92.7124,48.8281,94,0.6343,0.1511,-0.4684,-64.5939,33,0.4742,7849,3.993,140.2397
rg,1624568686398632783,1,0.1284,-1.323,0.603,347,23.2544,64.209,42.6025,94,0.6353,0.1461,1.9895,-63.7079,33,0.4732,7981,3.993,138.6618
rg,1624568686398650061,1,-0.1145,-1.0356,0.4773,348,83.9844,48.7061,8.3008,94,0.6343,0.1461,3.3334,-60.4748,33,0.4722,7908,3.993,137.0941
rg,1624568686398667580,1,-0.2214,-0.3694,0.158,349,119.4458,25.8789,-9.0332,94,0.6353,0.1461,4.5455,-55.9886,33,0.4712,8489,3.993,136.0507
rg,1624568686398685154,1,-0.1494,0.0605,-0.0188,350,111.5723,3.2959,-1.8311,94,0.6353,0.1471,6.2244,-52.6408,33,0.4722,7880,3.993,137.3066
rg,1624568686398702746,1,-0.1106,0.0962,-0.0049,351,14.2212,-64.8804,8.0566,94,0.6393,0.1521,6.7177,-50.9717,33,0.4732,8074,3.993,139.6872
rg,1624568686398719820,1,0.1499,-0.7866,1.0979,352,-123.5352,-118.1641,16.5405,94,0.6413,0.1501,3.9171,-54.8989,33,0.4782,8003,3.993,143.9639
rg,1624568686751909898,1,0.4968,-1.1787,0.8601,353,12.7563,-26.3062,0.3052,94,0.6513,0.1591,3.034,-53.3988,33,0.4952,25002,3.993,143.883
rg,1624568686751949490,1,0.2395,-0.8303,0.7063,354,18.9819,-2.5635,4.3335,94,0.6693,0.1611,2.5126,-52.6814,33,0.5042,15372,3.993,144.0612
rg,1624568686751969731,1,0.2827,-1.1003,0.613,355,27.1606,-14.5874,-0.1831,94,0.6893,0.1671,1.5596,-51.8855,33,0.5062,7388,3.993,144.5003
rg,1624568686751991509,1,0.1824,-0.8901,0.4624,356,44.5557,-13.7329,-2.2583,94,0.7143,0.1711,0.5993,-49.9893,33,0.5072,7548,3.993,144.6756
rg,1624568686752010305,1,0.0872,-0.7388,0.439,357,60.2417,-13.855,-9.3384,94,0.7304,0.1741,-0.2959,-47.9381,33,0.5072,9084,3.993,144.8411
rg,1624568686752053138,1,-0.0156,-0.553,0.438,358,30.2124,-39.5508,-5.8594,94,0.7374,0.1761,-1.4702,-46.8825,33,0.5082,7369,3.993,145.8517
rg,1624568686752073693,1,0.2063,-0.6514,0.4595,359,-33.1421,-93.3228,9.9487,94,0.7384,0.1761,-4.1805,-48.6471,33,0.5102,8144,3.993,148.9046
rg,1624568686752092675,1,0.408,-0.7417,0.4741,360,-70.0684,-108.9478,19.5923,94,0.6833,0.1771,-7.1366,-52.1322,33,0.5062,8233,3.993,152.827
rg,1624568686752111008,1,0.6602,-1.0298,0.4253,361,-109.4971,-53.2227,15.9302,94,0.6493,0.1771,-8.7443,-57.314,33,0.4952,13020,3.993,155.0567
rg,1624568686752128971,1,0.7241,-0.958,0.4199,362,-81.9092,-14.8315,33.6914,94,0.6343,0.1751,-8.8827,-61.0597,33,0.4782,7703,3.993,156.3416
rg,1624568686752147045,1,0.6506,-0.9526,0.6108,363,-52.9175,75.5615,50.9644,94,0.6343,0.1601,-6.4917,-62.8017,33,0.4772,7476,3.993,154.5974
rg,1624568686752164600,1,0.4319,-1.1951,1.0515,364,-40.6494,110.1685,50.6592,94,0.6343,0.1541,-2.5841,-62.8954,33,0.4762,7687,3.993,151.722
rg,1624568686752181841,1,0.343,-1.4695,0.6157,365,18.1885,76.2939,62.561,94,0.6343,0.1511,0.6474,-62.2985,33,0.4762,7592,3.993,150.158
rg,1624568686752200100,1,0.073,-1.2095,0.5049,366,83.9233,88.8062,17.5171,94,0.6333,0.1491,2.8252,-59.2177,33,0.4742,8043,3.993,147.3879
rg,1624568686752217785,1,-0.2156,-0.4998,0.1943,367,138.5498,70.5566,-31.7993,94,0.6343,0.1471,4.0422,-54.2087,33,0.4722,9457,3.993,144.3458
rg,1624568686752235766,1,-0.3262,-0.2107,0.0239,368,137.3901,55.603,-31.25,94,0.6333,0.1481,6.2419,-49.5494,33,0.4702,7797,3.993,141.8533
rg,1624568686752253155,1,-0.3303,0.1074,-0.0874,369,74.7681,-29.48,-3.9673,94,0.6353,0.1511,7.5157,-46.4492,33,0.4712,7739,3.993,142.6981
rg,1624568686752270562,1,-0.2617,0.0598,-0.1143,370,9.9487,-88.3179,3.8452,94,0.6383,0.1521,6.7488,-47.0522,33,0.4722,7875,3.993,145.2225
rg,1624568686752287785,1,0.009,-0.5344,0.5942,371,-127.1362,-174.1333,25.0854,94,0.6413,0.1491,2.7033,-51.4236,33,0.4752,7669,3.993,151.2045
rg,1624568686752304914,1,0.5708,-1.5557,0.8518,372,-89.6606,-84.1675,55.2979,94,0.6443,0.1541,1.6811,-55.2021,33,0.4802,7882,3.993,155.2325
rg,1624568686752322747,1,0.6975,-1.613,0.4915,373,-18.6157,-66.9556,49.0112,94,0.6473,0.1581,0.882,-56.5046,33,0.4822,7737,3.993,158.5379
rg,1624568686752340488,1,0.4543,-1.0371,0.8325,374,34.668,-5.249,-12.8174,94,0.6523,0.1601,-0.4255,-54.9118,33,0.4882,7859,3.993,158.4144
rg,1624568686752358525,1,0.3267,-0.8081,0.7324,375,47.7295,11.4746,-5.8594,94,0.6593,0.1601,-0.5182,-53.0128,33,0.4962,7771,3.993,157.8049
rg,1624568686752392784,1,0.1816,-0.9141,0.6448,376,34.4849,11.9629,-4.6387,94,0.6733,0.1641,-0.7182,-51.6889,33,0.5012,7798,3.993,157.3079
rg,1624568686752413691,1,0.2334,-1.0789,0.4885,377,65.0635,0.9766,3.3569,94,0.7003,0.1691,-1.0013,-49.6186,33,0.5002,7788,3.993,157.3605
rg,1624568686752432247,1,0.2095,-0.9395,0.3977,378,80.0781,4.2114,3.418,94,0.7224,0.1741,-1.2073,-47.0785,33,0.4982,7892,3.993,157.3261
rg,1624568686752449987,1,0.0916,-0.5989,0.3831,379,79.2236,4.2725,-3.7231,94,0.7374,0.1751,-1.4381,-44.305,33,0.4972,8015,3.993,157.1016
rg,1624568686752467117,1,-0.0559,-0.4541,0.3838,380,35.2173,-19.5312,-2.5635,94,0.7474,0.1731,-1.8014,-43.1189,33,0.4972,7917,3.993,157.5776
rg,1624568686752484839,1,-0.0325,-0.4846,0.4221,381,6.2256,-41.0156,4.2725,94,0.7494,0.1721,-2.6898,-43.1391,33,0.4972,8256,3.993,158.8347
rg,1624568686752502913,1,0.2471,-0.6399,0.4626,382,-45.8984,-86.792,26.5503,94,0.7424,0.1751,-4.9904,-45.5888,33,0.4992,7936,3.993,162.0608
rg,1624568686752520505,1,0.7388,-1.0051,0.6223,383,-109.1309,-103.6377,36.9873,94,0.6993,0.1771,-7.663,-50.8136,33,0.5012,8121,3.993,166.2416
rg,1624568686752538450,1,0.8191,-1.1147,0.5356,384,-118.4082,-84.7778,22.7051,94,0.6593,0.1721,-9.9163,-56.4872,33,0.4992,8049,3.993,169.655
rg,1624568687104170479,1,0.3057,-1.0759,0.7837,385,-57.8003,121.0327,31.0669,94,0.6343,0.1561,-6.3998,-58.1935,33,0.4752,25605,3.993,166.1893
rg,1624568687104218238,1,0.1089,-1.4622,0.6062,386,16.4185,92.5293,38.3301,94,0.6353,0.1441,-4.1015,-57.2248,33,0.4732,8984,3.993,165.9308
rg,1624568687104239572,1,0.0474,-1.3247,0.6567,387,58.7769,24.4141,21.9116,94,0.6353,0.1431,-3.3629,-53.5065,33,0.4722,7839,3.993,165.7753
rg,1624568687104259534,1,-0.0491,-0.7891,0.3687,388,125.3662,-9.5825,1.3428,94,0.6353,0.1381,-3.1339,-49.0785,33,0.4712,7660,3.993,166.1593
rg,1624568687104279219,1,-0.1118,-0.1616,0.0203,389,135.9253,-25.5737,-16.2354,94,0.6353,0.1381,-2.9389,-44.7093,33,0.4712,7558,3.993,166.5783
rg,1624568687104298201,1,-0.0491,0.1443,-0.0447,390,116.9434,-54.8706,-8.7891,94,0.6373,0.1421,-5.1054,-40.9692,33,0.4722,7431,3.993,168.9609
rg,1624568687104316330,1,-0.002,0.1055,-0.0945,391,13.6108,-118.3472,3.8452,94,0.6393,0.1421,-8.7409,-40.5402,33,0.4742,7621,3.993,-187.8289
rg,1624568687104335515,1,0.5745,-0.6841,0.9917,392,-137.9395,-115.7227,44.0063,94,0.6413,0.1471,-11.5139,-46.6205,33,0.4772,7477,3.993,-183.2954
rg,1624568687104354645,1,0.8228,-1.363,1.575,393,-145.0195,-40.3442,58.7769,94,0.6443,0.1491,-9.918,-50.9001,33,0.4822,8867,3.993,-181.8351
rg,1624568687104373552,1,0.5906,-1.6787,0.7722,394,-30.7007,-5.7373,23.8037,94,0.6463,0.1511,-9.6269,-52.7931,33,0.4882,7503,3.9985,-180.9597
rg,1624568687104392904,1,0.2683,-1.0859,0.8865,395,34.729,32.7759,4.4556,94,0.6523,0.1521,-8.7307,-51.1653,33,0.4982,7671,3.9985,-181.9135
rg,1624568687104411682,1,0.2566,-0.8958,0.7532,396,56.7017,31.9214,17.334,94,0.6623,0.1541,-7.5267,-48.7662,33,0.5042,7576,3.9985,-182.4666
rg,1624568687104431422,1,0.2544,-0.8508,0.5979,397,52.002,18.7988,7.9956,94,0.6823,0.1581,-7.0347,-46.8732,33,0.5092,7764,3.9985,-182.7885
rg,1624568687104449070,1,0.1785,-0.8403,0.4934,398,50.7812,15.0146,3.0518,94,0.7063,0.1611,-6.6708,-45.2884,33,0.5102,7572,3.9985,-183.0828
rg,1624568687104533737,1,0.011,-0.7415,0.4341,399,46.6919,7.5684,-1.6479,94,0.7244,0.1641,-6.2755,-43.9525,33,0.5102,7947,3.9985,-183.276
rg,1624568687104574884,1,-0.0256,-0.6475,0.4949,400,17.0898,-32.5317,4.2725,94,0.7334,0.1641,-6.7734,-43.721,33,0.5102,7665,3.9985,-182.2048
rg,1624568687104596440,1,0.0598,-0.6233,0.5066,401,-5.3101,-58.5327,7.9346,94,0.7354,0.1651,-8.1257,-44.4502,33,0.5112,7810,3.9985,-180.2965
rg,1624568687104617199,1,0.384,-0.7573,0.5374,402,-80.3833,-98.3276,21.9116,94,0.7153,0.1641,-10.7405,-48.6004,33,0.5123,7648,3.9985,-176.7186
rg,1624568687104638606,1,0.6296,-0.9783,0.6211,403,-117.0044,-109.436,22.644,94,0.6743,0.1661,-13.4388,-54.6015,33,0.5112,7883,3.9985,-172.5108
rg,1624568687104686680,1,0.6157,-1.0662,0.4316,404,-104.6143,-42.2974,9.7046,94,0.6483,0.1631,-14.6038,-59.6539,33,0.4992,7675,3.9985,-170.6947
rg,1624568687104708217,1,0.6208,-0.8708,0.3496,405,-58.8379,25.1465,33.1421,94,0.6363,0.1621,-13.6992,-62.2236,33,0.4842,7879,3.9985,-170.8574
rg,1624568687104728013,1,0.5669,-0.8298,0.386,406,-56.5796,52.3071,33.1421,94,0.6363,0.1601,-12.2881,-64.2767,33,0.4812,8248,3.9985,-172.1379
rg,1624568687104754754,1,0.2026,-1.1882,0.6602,407,-18.9819,105.4077,30.7007,94,0.6353,0.1501,-9.2202,-64.2661,33,0.4812,9806,3.9985,-175.5001
rg,1624568687104774976,1,0.127,-1.3975,0.625,408,3.0518,64.8193,30.6396,94,0.6373,0.1491,-6.82,-63.9421,33,0.4812,7817,3.9985,-177.3122
rg,1624568687104793272,1,-0.0396,-1.1604,0.4536,409,74.0356,40.0391,12.3291,94,0.6373,0.1441,-5.3103,-61.0336,33,0.4802,11745,3.9985,-178.4841
rg,1624568687104812068,1,-0.1147,-0.4905,0.1042,410,122.1313,2.3804,-20.9351,94,0.6373,0.1431,-5.2785,-56.7511,33,0.4792,7889,3.9985,-178.9103
rg,1624568687104830642,1,-0.1472,-0.1824,-0.0054,411,125.7324,-9.1553,-23.3154,94,0.6383,0.1481,-4.2942,-53.2473,33,0.4772,8058,3.9985,-178.2371
rg,1624568687104849549,1,-0.1633,0.075,-0.0569,412,57.9224,-54.8706,-7.0801,94,0.6403,0.1511,-3.9802,-51.0669,33,0.4792,7869,3.9985,-176.6275
rg,1624568687104868216,1,-0.0439,-0.2344,0.053,413,-60.6079,-128.6011,16.4185,94,0.6423,0.1531,-5.9836,-54.8554,33,0.4832,8060,3.9985,-172.055
rg,1624568687104886401,1,0.3264,-0.8386,1.0669,414,-117.6758,-141.2354,32.7148,94,0.6443,0.1551,-6.6527,-59.3047,33,0.4882,8642,3.9985,-167.6851
rg,1624568687104904901,1,0.73,-1.5918,0.6658,415,-41.3818,-55.6641,67.4438,94,0.6483,0.1571,-6.0355,-61.6033,33,0.4942,8724,3.9985,-164.3589
rg,1624568687104923753,1,0.8142,-1.2664,0.8306,416,38.6353,-8.0566,16.2964,94,0.6513,0.1551,-6.4818,-59.9417,33,0.5012,8009,3.9985,-163.7915
rg,1624568687429847448,1,0.2212,-0.9226,0.5664,417,63.1714,68.6646,12.2681,94,0.7023,0.1611,-4.6527,-57.2789,33,0.5112,24991,3.9985,-165.8879
rg,1624568687429889115,1,0.0212,-0.8062,0.4507,418,77.6367,46.9971,10.6812,94,0.7234,0.1621,-3.1181,-54.2177,33,0.5102,8692,3.9985,-167.1934
rg,1624568687429910392,1,-0.1741,-0.6248,0.4846,419,64.6973,14.8315,6.1646,94,0.7354,0.1631,-1.9587,-51.5316,33,0.5112,7425,3.9985,-167.5083
rg,1624568687429929929,1,-0.1213,-0.5847,0.5435,420,18.0664,-54.1382,19.5312,94,0.7434,0.1611,-2.2842,-50.7058,33,0.5112,12103,3.9985,-165.3312
rg,1624568687429949855,1,0.2756,-0.6719,0.5408,421,-27.1606,-107.1777,32.959,94,0.7384,0.1631,-4.5175,-52.0443,33,0.5133,10027,3.9985,-161.1443
rg,1624568687429970577,1,0.677,-0.9055,0.6501,422,-90.332,-104.5532,35.2173,94,0.7033,0.1651,-6.8312,-56.1382,33,0.5153,7429,3.9985,-156.8719
rg,1624568687429989614,1,0.7881,-1.0447,0.6172,423,-112.6709,-85.2661,28.6865,90,0.6633,0.1641,-8.6088,-61.2155,33,0.5112,7601,3.9985,-153.2777
rg,1624568687430008984,1,0.6611,-0.9717,0.405,424,-98.0835,-7.6904,23.6816,90,0.6393,0.1631,-8.8046,-65.4402,33,0.4982,7767,3.9985,-152.5112
rg,1624568687430029077,1,0.4722,-0.8162,0.4253,425,-70.4346,67.8711,30.0903,90,0.6333,0.1621,-7.3522,-67.8497,33,0.4832,9162,3.9985,-154.5581
rg,1624568687430047095,1,0.1416,-1.1667,0.9871,426,-52.5513,96.9238,20.9351,90,0.6373,0.1501,-5.095,-68.8681,33,0.4842,9181,3.9985,-157.9709
rg,1624568687430065113,1,0.0398,-1.3308,0.4402,427,-13.916,78.125,26.062,90,0.6353,0.1411,-2.8838,-69.3442,33,0.4832,7721,3.9985,-160.5219
rg,1624568687430083502,1,0.0439,-1.3528,0.5696,428,30.0903,17.5171,22.0337,90,0.6363,0.1401,-1.766,-68.0278,33,0.4832,7734,3.9985,-160.8624
rg,1624568687430103650,1,0.0032,-1.2129,0.4675,429,75.9888,1.5869,13.4277,90,0.6363,0.1381,-1.7661,-63.9316,33,0.4812,7753,3.9985,-160.1073
rg,1624568687430220224,1,-0.0066,-0.6279,0.2649,430,116.6992,-20.874,-7.5684,90,0.6363,0.1381,-2.3324,-59.4078,33,0.4792,7602,3.9985,-159.5067
rg,1624568687430288779,1,-0.0452,-0.1165,-0.0237,431,112.915,-33.02,-7.9956,90,0.6373,0.1381,-2.4309,-56.3575,33,0.4802,7749,3.9985,-158.4709
rg,1624568687430317742,1,0.03,0.0337,-0.0286,432,22.3389,-70.9229,5.9204,90,0.6403,0.1411,-5.1583,-55.8585,33,0.4812,11171,3.9985,-155.9758
rg,1624568687430338853,1,0.1069,-0.1384,0.1631,433,-43.335,-85.3882,13.3057,90,0.6423,0.1451,-7.1066,-57.1913,33,0.4822,7804,3.9985,-152.8742
rg,1624568687430362741,1,0.5161,-1.1497,1.176,434,-109.9243,-17.395,42.9688,90,0.6453,0.1471,-6.3998,-61.2579,33,0.4882,7650,3.9985,-151.4392
rg,1624568687430382223,1,0.3984,-1.4604,0.7417,435,-32.1655,14.0991,22.4609,90,0.6483,0.1491,-5.6316,-62.592,33,0.4922,9552,3.9985,-151.5086
rg,1624568687430403482,1,0.2751,-1.3005,0.9119,436,-4.8828,15.564,-0.3662,90,0.6503,0.1511,-5.2416,-61.2982,33,0.4972,7727,3.9985,-152.2993
rg,1624568687430424852,1,0.1519,-0.9097,0.7756,437,25.3296,16.1743,9.6436,90,0.6573,0.1511,-4.6728,-59.7799,33,0.5052,8840,3.9985,-152.7212
rg,1624568687430447000,1,0.2473,-1.0637,0.7397,438,24.4751,-10.8643,4.2725,90,0.6693,0.1551,-4.9888,-58.6486,33,0.5102,8157,3.9985,-152.2775
rg,1624568687430465000,1,0.2871,-0.9949,0.4568,439,62.1948,-12.207,2.1362,90,0.6913,0.1561,-5.5602,-56.4517,33,0.5112,7919,3.9985,-151.8043
rg,1624568687430483370,1,0.22,-0.835,0.4092,440,72.2046,-12.3291,-2.8687,90,0.7133,0.1601,-6.2408,-53.8793,33,0.5102,7749,3.9985,-151.4433
rg,1624568687430501907,1,0.0449,-0.5586,0.3899,441,58.0444,-18.7378,-6.1646,90,0.7294,0.1611,-6.7882,-51.6495,33,0.5112,7918,3.9985,-150.985
rg,1624568687430518833,1,-0.0105,-0.5234,0.4058,442,32.8369,-33.2642,-2.6855,90,0.7374,0.1611,-7.4595,-50.4957,33,0.5123,7829,3.9985,-150.0002
rg,1624568687430537259,1,0.1226,-0.6384,0.4568,443,-26.6113,-83.8623,9.3994,90,0.7384,0.1601,-9.3036,-52.1218,33,0.5123,7976,3.9985,-147.0928
rg,1624568687430555462,1,0.5981,-0.885,0.5679,444,-87.4634,-114.6851,32.4097,90,0.7053,0.1621,-11.6884,-56.6192,33,0.5133,8248,3.9985,-142.476
rg,1624568687430575999,1,0.8787,-1.1216,0.5005,445,-114.502,-80.8105,18.0054,90,0.6663,0.1621,-13.6162,-62.2011,33,0.5102,8043,3.9985,-139.1453
rg,1624568687430594962,1,0.7996,-1.0127,0.311,446,-97.5952,-29.3579,18.2495,90,0.6443,0.1601,-14.3621,-66.7847,33,0.4972,7927,3.9985,-137.616
rg,1624568687430619277,1,0.6785,-0.7405,0.3215,447,-59.3872,70.4956,34.9121,90,0.6383,0.1591,-12.9984,-68.6324,33,0.4812,8105,3.9985,-139.7553
rg,1624568687430639018,1,0.3274,-1.0171,0.8176,448,-60.4858,114.8682,33.9355,90,0.6393,0.1551,-10.18,-69.5771,33,0.4812,7970,3.9985,-143.8054
rg,1624568687780631307,1,0.019,-1.3574,0.5684,449,53.5889,44.9219,24.7192,90,0.6393,0.1411,-8.2339,-67.1191,33,0.4782,25176,3.9985,-145.1421
rg,1624568687780674511,1,-0.1353,-0.5728,0.1836,450,122.5586,-0.9766,-18.5547,90,0.6393,0.1401,-8.112,-62.3771,33,0.4772,15084,3.9985,-145.3606
rg,1624568687780695436,1,-0.1506,-0.0583,-0.0046,451,104.248,-22.3999,-5.5542,90,0.6403,0.1411,-6.5533,-58.7504,33,0.4772,7455,3.9985,-144.5433
rg,1624568687780715066,1,-0.0894,-0.0093,0.0293,452,12.146,-78.2471,8.667,90,0.6423,0.1451,-5.6887,-58.0814,33,0.4782,9188,3.9985,-141.713
rg,1624568687780733751,1,0.0159,-0.2729,0.3555,453,-55.4199,-101.9897,16.6626,90,0.6453,0.1481,-7.072,-59.908,33,0.4812,7502,3.9985,-137.9295
rg,1624568687780752325,1,0.4783,-1.3259,1.1421,454,-90.5762,-52.2461,45.4102,90,0.6483,0.1521,-6.7885,-63.4325,33,0.4852,7534,3.9985,-135.2544
rg,1624568687780770769,1,0.5503,-1.4875,0.842,455,-3.7842,-27.1606,21.1182,90,0.6523,0.1531,-6.9484,-63.621,33,0.4912,10803,3.9985,-133.9119
rg,1624568687780814047,1,0.4619,-1.2217,0.9014,456,26.4282,-6.1646,4.5166,90,0.6573,0.1531,-7.3161,-62.1314,33,0.4992,7552,3.9985,-133.672
rg,1624568687780834417,1,0.3599,-0.8938,0.6973,457,59.5093,15.3809,5.4321,90,0.6693,0.1551,-7.2361,-59.3029,33,0.5072,7533,3.9985,-134.1694
rg,1624568687780853454,1,0.3086,-0.9685,0.5398,458,68.6035,22.3389,3.2959,90,0.6903,0.1581,-6.981,-56.5245,33,0.5062,7569,3.9985,-134.8663
rg,1624568687780871010,1,0.2334,-0.8887,0.4365,459,77.0874,22.644,0.061,90,0.7163,0.1601,-6.7142,-53.6287,33,0.5052,7501,3.9985,-135.5881
rg,1624568687780888435,1,0.0398,-0.623,0.354,460,79.895,10.2539,-6.5918,90,0.7354,0.1601,-6.5332,-50.6411,33,0.5022,8607,3.9985,-136.0427
rg,1624568687780919787,1,-0.1167,-0.4465,0.4097,461,64.3311,-0.6104,-3.1738,90,0.7454,0.1591,-6.2712,-49.094,33,0.5012,7583,3.9985,-135.4974
rg,1624568687780938935,1,-0.0295,-0.5525,0.4387,462,-20.752,-86.1816,14.4043,90,0.7534,0.1551,-7.702,-50.3765,33,0.5032,10943,3.9985,-132.4618
rg,1624568687780956676,1,0.207,-0.6533,0.4468,463,-46.5088,-119.6899,28.1372,90,0.7484,0.1551,-10.0358,-53.1215,33,0.5032,7606,3.9985,-127.9174
rg,1624568687780982935,1,0.7983,-0.9966,0.6335,464,-103.8818,-138.2446,39.0625,90,0.7163,0.1541,-12.7477,-58.5139,33,0.5052,7782,3.9985,-122.2931
rg,1624568687781002324,1,0.9646,-1.1184,0.5361,465,-116.0278,-113.9526,32.1655,90,0.6753,0.1521,-14.1774,-63.8472,33,0.5022,7616,3.9985,-119.3793
rg,1624568687781020601,1,0.8401,-0.9358,0.2859,466,-88.1958,-0.1831,24.292,90,0.6503,0.1521,-14.3074,-67.7515,33,0.4902,7886,3.9985,-118.8649
rg,1624568687781040157,1,0.5417,-0.7505,0.4275,467,-69.7632,98.7549,34.1187,90,0.6383,0.1511,-12.3144,-69.5166,33,0.4802,7653,3.9985,-122.1997
rg,1624568687781058416,1,0.3616,-0.8411,0.5137,468,-77.0264,119.5068,33.02,90,0.6373,0.1511,-9.8114,-71.371,33,0.4762,7872,3.9985,-126.4324
rg,1624568687781076860,1,-0.0022,-1.3596,0.7329,469,-28.9917,133.4839,40.5884,90,0.6383,0.1471,-6.2131,-71.4868,33,0.4782,7690,3.9985,-131.0955
rg,1624568687781094434,1,-0.0076,-1.4675,0.6936,470,-0.1221,89.5996,48.645,90,0.6383,0.1441,-3.776,-70.7424,33,0.4782,7895,3.9985,-132.915
rg,1624568687781112064,1,-0.0581,-1.3752,0.6228,471,40.5273,46.2646,28.1372,90,0.6373,0.1421,-1.8541,-68.8401,33,0.4762,7814,3.9985,-134.2792
rg,1624568687781130804,1,-0.0598,-1.0796,0.4934,472,75.8057,-4.2725,8.7891,90,0.6393,0.1391,-1.4082,-65.6718,33,0.4762,7842,3.9985,-133.9855
rg,1624568687781148378,1,-0.1011,-0.9119,0.385,473,89.2944,-19.2261,-9.2163,90,0.6393,0.1381,-1.6499,-62.367,33,0.4762,8013,3.9985,-133.434
rg,1624568687781166082,1,-0.1033,-0.4189,0.0864,474,115.9058,-47.6685,-19.9585,90,0.6403,0.1381,-2.6832,-58.3853,33,0.4752,7830,3.9985,-132.1265
rg,1624568687781183971,1,-0.0671,-0.0437,0.0366,475,82.7637,-91.4307,-16.4795,90,0.6423,0.1421,-3.4282,-55.0068,33,0.4772,8018,3.9985,-129.3745
rg,1624568687781201267,1,-0.0198,-0.0244,0.0432,476,44.7998,-116.9434,-10.376,90,0.6443,0.1461,-5.5518,-52.5748,33,0.4802,7904,3.9985,-125.8612
rg,1624568687781219433,1,0.3574,-0.5168,0.5266,477,-50.4761,-101.6846,30.8838,90,0.6473,0.1471,-7.7381,-54.7572,33,0.4832,8108,3.9985,-121.8406
rg,1624568687781237600,1,0.6543,-1.186,0.8545,478,-48.9502,-10.8643,57.8003,90,0.6503,0.1501,-6.7085,-56.892,33,0.4902,7911,3.9985,-120.1682
rg,1624568687781256155,1,0.6331,-1.2639,0.7617,479,-20.874,2.8687,43.396,90,0.6533,0.1531,-5.8307,-57.8804,33,0.4992,8124,3.9985,-119.3175
rg,1624568687781274359,1,0.4802,-1.1582,0.8567,480,31.4941,25.0244,7.5684,90,0.6653,0.1551,-5.5323,-56.3772,33,0.5072,7996,3.9985,-120.0257
rg,1624568688121348060,1,0.0559,-0.6814,0.4546,481,70.3125,37.5366,3.418,90,0.7274,0.1591,-4.8861,-53.7985,33,0.5112,24549,3.9985,-121.0665
rg,1624568688121393745,1,-0.1814,-0.5889,0.4526,482,31.3721,7.5073,-0.1831,90,0.7414,0.1601,-3.9882,-52.4641,33,0.5123,12542,3.9985,-121.3073
rg,1624568688121414930,1,-0.1353,-0.5544,0.4353,483,-11.4136,-70.1904,14.9536,90,0.7384,0.1591,-4.6166,-53.0798,33,0.5143,9964,3.9985,-118.7038
rg,1624568688121475097,1,0.3784,-0.729,0.6003,484,-105.7739,-147.2168,32.4097,90,0.7013,0.1611,-7.5352,-57.7941,33,0.5163,7380,3.9985,-113.0734
rg,1624568688121496374,1,0.6587,-0.9639,0.5979,485,-139.8315,-167.4194,27.771,90,0.6623,0.1611,-10.6386,-64.4122,33,0.5133,7625,3.9985,-106.5531
rg,1624568688121515744,1,0.843,-1.0051,0.3123,486,-103.6987,-85.3271,30.8228,90,0.6423,0.1581,-11.8914,-69.528,33,0.4992,7469,3.9985,-102.7693
rg,1624568688121533930,1,0.9167,-0.8745,0.2178,487,-72.5708,-25.1465,49.9878,90,0.6363,0.1571,-10.772,-72.2861,33,0.4842,7630,3.9985,-103.1541
rg,1624568688121552874,1,0.8562,-0.9045,0.7866,488,-73.5474,79.2236,41.9922,90,0.6373,0.1531,-9.2442,-74.0201,33,0.4862,8121,3.9985,-105.8773
rg,1624568688121570874,1,0.4224,-1.5198,0.5308,489,-20.0195,112.854,47.8516,90,0.6383,0.1451,-6.4045,-74.1527,33,0.4832,8253,3.9985,-109.7605
rg,1624568688121589189,1,0.2866,-1.5791,0.646,490,-4.0894,113.4033,43.396,90,0.6373,0.1421,-3.4179,-73.8107,33,0.4842,7608,3.9985,-113.6813
rg,1624568688121608318,1,0.043,-1.3606,0.5068,491,74.646,101.0742,27.771,90,0.6393,0.1391,-1.0734,-70.5076,33,0.4822,7737,3.9985,-117.2052
rg,1624568688121625707,1,-0.217,-0.9175,0.3921,492,117.0654,53.6499,-20.813,90,0.6383,0.1381,-0.5282,-65.6462,33,0.4812,7586,3.9985,-119.4837
rg,1624568688121643818,1,-0.2866,-0.6052,0.1792,493,136.7188,31.0669,-26.123,90,0.6373,0.1391,0.0565,-60.4538,33,0.4802,7761,3.9985,-121.0131
rg,1624568688121662707,1,-0.2495,-0.0725,0.0159,494,129.2725,-16.1133,-3.418,90,0.6393,0.1391,1.7743,-55.4742,33,0.4812,7838,3.9985,-120.4371
rg,1624568688121681929,1,-0.2073,0.0657,0.0229,495,89.2334,-55.2979,1.4038,90,0.6413,0.1451,2.6583,-51.1894,33,0.4822,7612,3.9985,-118.5187
rg,1624568688121700280,1,-0.1111,-0.1067,0.1401,496,-30.7617,-106.6284,15.8691,90,0.6443,0.1481,1.639,-51.8053,33,0.4852,7877,3.9985,-114.76
rg,1624568688121718910,1,0.4187,-1.1958,1.4661,497,-113.7695,-65.5518,53.4668,90,0.6463,0.1501,1.273,-55.7633,33,0.4882,7671,3.9985,-111.3515
rg,1624568688121737762,1,0.4128,-1.4746,0.9595,498,-72.3267,-22.9492,64.3311,90,0.6473,0.1511,2.3702,-58.6147,33,0.4932,7943,3.9985,-109.1785
rg,1624568688121756410,1,0.4614,-1.4231,0.9536,499,11.9019,-30.2734,16.9067,90,0.6523,0.1511,1.6321,-57.9851,33,0.5002,7788,3.9985,-107.7933
rg,1624568688121774947,1,0.3188,-0.887,0.7612,500,40.8936,-11.2305,7.3853,90,0.6603,0.1511,1.2233,-55.1858,33,0.5092,7923,3.9985,-107.5028
rg,1624568688121835298,1,0.3508,-0.8643,0.7361,501,64.7583,-0.4272,10.6812,90,0.6803,0.1561,0.8414,-52.3725,33,0.5123,8474,3.9985,-107.2524
rg,1624568688121858206,1,0.283,-0.9277,0.55,502,57.4341,6.1646,2.4414,90,0.7093,0.1571,0.4622,-50.3369,33,0.5102,9655,3.9985,-107.4009
rg,1624568688121877613,1,0.0869,-0.6543,0.4202,503,66.7114,-1.6479,-3.2349,90,0.7364,0.1611,0.0518,-47.9365,33,0.5082,12265,3.9985,-107.4439
rg,1624568688121895502,1,-0.0151,-0.5286,0.4402,504,50.9644,-7.3853,-6.5918,90,0.7474,0.1581,-0.2932,-45.9816,33,0.5072,7860,3.9985,-107.4061
rg,1624568688121914520,1,-0.166,-0.5132,0.4675,505,-4.0283,-48.8892,-0.7324,90,0.7524,0.1561,-1.123,-46.2138,33,0.5072,7863,3.9985,-106.0135
rg,1624568688121933113,1,-0.0544,-0.5847,0.437,506,-27.5269,-90.6372,11.1084,90,0.7534,0.1561,-4.1938,-48.8883,33,0.5072,7929,3.9985,-101.6045
rg,1624568688121951464,1,0.4885,-0.7366,0.5557,507,-86.3037,-137.085,35.9497,90,0.7264,0.1591,-7.42,-52.9945,33,0.5082,7970,3.9985,-96.3752
rg,1624568688121969131,1,0.927,-1.0513,0.4761,508,-137.8784,-122.6807,22.3389,90,0.6783,0.1591,-10.5554,-59.6141,33,0.5052,8105,3.9985,-91.6284
rg,1624568688121987057,1,0.9082,-0.9285,0.2737,509,-134.6436,-78.9795,10.0708,90,0.6503,0.1591,-11.7205,-64.6495,33,0.4942,8182,3.9985,-90.6292
rg,1624568688122018594,1,0.8027,-0.8389,0.4124,510,-87.8906,54.5654,18.1885,90,0.6383,0.1581,-11.2815,-67.7804,33,0.4782,8236,3.9985,-92.3525
rg,1624568688122038853,1,0.3384,-1.0483,0.6558,511,-77.3315,133.5449,28.8086,90,0.6363,0.1551,-8.4611,-69.6809,33,0.4652,7985,3.9985,-97.0611
rg,1624568688122056853,1,0.0471,-1.4138,0.7451,512,-12.5122,123.5962,43.7622,90,0.6373,0.1471,-4.8522,-69.3988,33,0.4672,8220,3.9985,-101.1604
rg,1624568688491834273,1,-0.0049,-1.1426,0.5093,513,82.6416,20.2637,11.1694,90,0.6393,0.1371,-3.9339,-65.9039,33,0.4642,25239,3.9985,-101.7498
rg,1624568688491897680,1,-0.199,-0.4573,0.1594,514,134.6436,-35.4004,-17.334,90,0.6393,0.1371,-4.1771,-60.7675,33,0.4632,11971,3.9985,-100.7304
rg,1624568688491929143,1,-0.144,0.0786,0.0049,515,135.9863,-49.0112,-8.5449,90,0.6403,0.1371,-3.6497,-55.4455,33,0.4632,7823,3.9985,-98.0618
rg,1624568688491959735,1,-0.1172,0.2258,-0.0063,516,85.8154,-97.0459,10.0708,90,0.6423,0.1391,-4.6927,-51.1793,33,0.4652,7861,3.9985,-94.7297
rg,1624568688491987957,1,0.0508,0.0103,-0.0962,517,-51.0864,-129.8828,42.4194,90,0.6453,0.1401,-7.5874,-55.2202,33,0.4692,8073,3.9985,-89.3692
rg,1624568688492016716,1,0.375,-0.4299,0.4839,518,-136.1694,-136.2305,61.8286,90,0.6493,0.1441,-9.2189,-61.0612,33,0.4742,7529,3.9985,-83.4006
rg,1624568688492044549,1,0.782,-1.7061,1.1594,519,-121.46,-7.8125,73.6084,90,0.6563,0.1501,-8.2462,-63.3312,33,0.4872,10914,3.9985,-82.1185
rg,1624568688492071697,1,0.6079,-1.7371,0.9417,520,9.2163,-9.0332,4.0894,90,0.6643,0.1521,-8.6106,-62.9392,33,0.4982,9120,3.9985,-81.732
rg,1624568688492099549,1,0.2876,-0.9543,0.7,521,98.6328,53.0396,9.7046,90,0.6763,0.1551,-7.4434,-58.3966,33,0.5042,7430,3.9985,-83.4751
rg,1624568688492125845,1,0.1267,-0.6538,0.5051,522,81.0547,41.748,-2.8687,90,0.6953,0.1571,-6.676,-54.7278,33,0.5062,8334,3.9985,-84.9794
rg,1624568688492152234,1,-0.0247,-0.6382,0.4443,523,57.373,29.7241,-12.3901,90,0.7174,0.1591,-6.0359,-52.3036,33,0.5072,7816,3.9985,-86.2298
rg,1624568688492177975,1,-0.1636,-0.6887,0.4453,524,25.2075,-5.4932,-0.4272,90,0.7314,0.1631,-5.5086,-51.4905,33,0.5072,7620,3.9985,-86.0409
rg,1624568688492204160,1,-0.1462,-0.7124,0.5046,525,9.3384,-33.0811,5.4321,90,0.7404,0.1641,-5.5694,-51.3453,33,0.5092,7848,3.9985,-84.8504
rg,1624568688492229956,1,0.3918,-0.6929,0.5242,526,-33.8745,-111.5112,12.085,90,0.7414,0.1661,-8.6231,-53.2201,33,0.5102,13274,3.9985,-80.9788
rg,1624568688492255659,1,0.7798,-0.937,0.5835,527,-98.5718,-90.7593,30.0293,90,0.7113,0.1691,-10.6831,-57.9345,33,0.5112,8433,3.9985,-77.191
rg,1624568688492290511,1,0.856,-1.0725,0.5442,528,-119.0186,-68.5425,17.1509,90,0.6683,0.1661,-12.3631,-63.4078,33,0.5042,8303,3.9985,-74.336
rg,1624568688492318104,1,0.5884,-0.9507,0.2871,529,-100.8301,16.4185,4.8828,90,0.6433,0.1631,-12.6295,-67.6522,33,0.4902,10148,3.9985,-74.7709
rg,1624568688492344733,1,0.3772,-0.7007,0.3738,530,-59.6924,93.6279,24.4141,90,0.6363,0.1611,-10.865,-69.1634,33,0.4762,7998,3.9985,-78.0107
rg,1624568688492397399,1,0.1484,-1.1299,0.8044,531,-56.7017,94.2993,27.1606,90,0.6393,0.1491,-8.3828,-70.2974,33,0.4752,9821,3.9985,-81.3375
rg,1624568688492427788,1,0.1707,-1.3994,0.4795,532,15.0757,50.7202,49.3164,90,0.6383,0.1431,-5.774,-69.5591,33,0.4752,8410,3.9985,-82.5803
rg,1624568688492456251,1,0.2078,-1.3457,0.5649,533,30.9448,30.5786,41.5039,90,0.6373,0.1401,-3.8846,-68.1704,33,0.4732,8579,3.9985,-83.1429
rg,1624568688492483066,1,0.1011,-1.0405,0.407,534,77.2705,25.5127,9.7046,90,0.6383,0.1401,-3.1786,-65.0402,33,0.4722,8090,3.9985,-83.9302
rg,1624568688492509714,1,-0.1028,-0.5271,0.1675,535,107.3608,19.3481,-21.9727,90,0.6393,0.1401,-3.0751,-60.968,33,0.4732,8246,3.9985,-84.9823
rg,1624568688492536917,1,-0.1685,-0.2966,0.0654,536,104.8584,7.8735,-17.5781,90,0.6403,0.1411,-2.3169,-57.3121,33,0.4742,8150,3.9985,-85.5401
rg,1624568688492662898,1,-0.1587,-0.1062,0.0518,537,44.4946,-42.8467,2.1973,90,0.6423,0.1431,-1.3096,-55.7346,33,0.4752,8301,3.9985,-84.0217
rg,1624568688492709435,1,0.1143,-0.5752,0.6875,538,-47.3022,-95.0317,19.5312,90,0.6453,0.1461,-2.9827,-57.1304,33,0.4802,8978,3.9985,-80.4298
rg,1624568688492740731,1,0.4517,-1.179,0.7249,539,-37.2925,-58.8989,39.7949,90,0.6483,0.1501,-3.4653,-58.8162,33,0.4842,8933,3.9985,-77.5759
rg,1624568688492767675,1,0.5298,-1.0991,0.7759,540,4.2114,-25.5737,16.4185,90,0.6503,0.1521,-4.1349,-58.5671,33,0.4902,8220,3.9985,-76.3716
rg,1624568688492797434,1,0.4236,-0.9336,0.7939,541,15.9302,0.061,8.728,90,0.6553,0.1551,-4.2896,-57.5754,33,0.4962,8777,3.9985,-76.2214
rg,1624568688492824619,1,0.2742,-0.9373,0.7559,542,19.165,13.9771,9.3384,87,0.6643,0.1581,-4.0118,-56.5279,33,0.5032,8263,3.9985,-76.5137
rg,1624568688492853027,1,0.2878,-1.0698,0.6694,543,39.3066,6.1035,9.8877,87,0.6823,0.1601,-3.8967,-55.0027,33,0.5092,8435,3.9985,-76.4969
rg,1624568688492878452,1,0.2703,-0.9546,0.5417,544,53.7109,4.8828,6.2256,87,0.7093,0.1641,-4.0809,-52.6313,33,0.5112,8318,3.9985,-76.7008
rg,1624568688820775009,1,0.0303,-0.6387,0.4453,545,39.2456,-2.1973,0.3662,87,0.7484,0.1651,-4.0492,-51.1568,33,0.5112,25590,3.9985,-76.615
rg,1624568688820886416,1,0.1467,-0.6978,0.4546,546,2.8076,-38.0859,6.3477,87,0.7544,0.1671,-5.3873,-52.0092,33,0.5123,9070,3.9985,-74.5457
rg,1624568688820909286,1,0.4006,-0.7366,0.5039,547,-41.0156,-67.627,17.5781,87,0.7394,0.1691,-7.1707,-54.0522,33,0.5123,10849,3.9985,-71.9215
rg,1624568688820930860,1,0.6096,-0.9829,0.5886,548,-102.0508,-63.5376,23.6206,87,0.6983,0.1691,-8.5868,-58.6602,33,0.5102,7363,3.9985,-69.2061
rg,1624568688820950064,1,0.6201,-1.0762,0.5002,549,-115.7227,-47.1191,16.7847,87,0.6613,0.1651,-9.6341,-63.8162,33,0.5022,7423,3.9985,-67.1425
rg,1624568688820967749,1,0.5188,-0.9363,0.4941,550,-75.8667,24.1089,27.2217,87,0.6413,0.1631,-8.8905,-66.7074,33,0.4902,7477,3.9985,-67.5702
rg,1624568688820988582,1,0.4387,-0.8643,0.5476,551,-55.9082,58.5938,35.9497,87,0.6353,0.1591,-7.0095,-68.392,33,0.4782,7468,3.9985,-69.2558
rg,1624568688821006582,1,0.2881,-1.1738,0.6584,552,-40.7715,66.2231,42.3584,87,0.6363,0.1481,-4.6944,-69.5162,33,0.4732,8840,3.9985,-71.1739
rg,1624568688821023286,1,0.1511,-1.2766,0.408,553,32.1045,59.8145,53.4058,87,0.6353,0.1391,-1.9229,-68.2436,33,0.4712,8160,3.9985,-72.6401
rg,1624568688821043748,1,0.1716,-1.2009,0.5127,554,46.4478,23.6816,51.6357,87,0.6353,0.1381,-0.3732,-65.5655,33,0.4692,7480,3.9985,-72.7042
rg,1624568688821061656,1,0.0686,-0.8652,0.3789,555,88.0127,17.2729,30.5786,87,0.6343,0.1351,0.874,-62.0687,33,0.4672,7484,3.9985,-72.7936
rg,1624568688821078767,1,-0.0291,-0.5894,0.2566,556,91.1865,2.6855,18.5547,87,0.6343,0.1291,1.6379,-58.5832,33,0.4652,10011,3.9985,-72.5219
rg,1624568688821096119,1,-0.0349,-0.4714,0.2307,557,82.4585,-13.916,18.8599,87,0.6343,0.1261,1.805,-56.0579,33,0.4652,7427,3.9985,-70.6
rg,1624568688821113859,1,0.0544,-0.4844,0.2761,558,47.6685,-62.6221,36.8652,87,0.6353,0.1231,1.3004,-54.2318,33,0.4642,7618,3.9985,-67.7115
rg,1624568688821131192,1,0.2705,-0.6404,0.4548,559,14.5264,-79.6509,39.1235,87,0.6353,0.1231,-0.0865,-53.6174,33,0.4642,7443,3.9985,-64.2209
rg,1624568688821149489,1,0.3376,-0.7417,0.564,560,4.0894,-69.9463,32.4707,87,0.6363,0.1221,-1.4639,-53.4512,33,0.4642,7608,3.9985,-61.2012
rg,1624568688821166266,1,0.3318,-0.8281,0.5349,561,6.7139,-27.2217,16.0522,87,0.6373,0.1221,-2.2627,-53.3511,33,0.4652,7509,3.9985,-59.9424
rg,1624568688821182914,1,0.2446,-0.7412,0.478,562,11.0474,-7.7515,9.1553,87,0.6403,0.1231,-2.6742,-53.0647,33,0.4662,7669,3.9985,-59.472
rg,1624568688821200340,1,0.0452,-0.6379,0.5662,563,-1.8921,2.3193,-2.3804,87,0.6413,0.1241,-2.7086,-52.9375,33,0.4672,7577,3.9985,-59.6128
rg,1624568688821241599,1,-0.0659,-0.8372,0.6345,564,-20.9961,-17.334,1.5869,87,0.6433,0.1271,-2.8188,-53.7882,33,0.4702,7934,3.9985,-59.0188
rg,1624568688821262155,1,-0.009,-0.9526,0.6841,565,-22.7661,-36.9873,6.8359,87,0.6443,0.1311,-3.3249,-54.7786,33,0.4712,7620,3.9985,-57.6547
rg,1624568688821279803,1,0.2222,-0.9976,0.6831,566,-8.5449,-61.5845,10.437,87,0.6483,0.1311,-4.6636,-55.2972,33,0.4752,7813,3.9985,-55.387
rg,1624568688821297136,1,0.3086,-0.9744,0.6677,567,-1.1597,-63.3545,6.897,87,0.6493,0.1341,-6.2562,-55.5565,33,0.4792,7615,3.9985,-53.1309
rg,1624568688821314969,1,0.3218,-0.9324,0.6492,568,4.8828,-52.5513,-7.4463,87,0.6513,0.1371,-8.0572,-55.5302,33,0.4842,7818,3.9985,-51.5543
rg,1624568688821332784,1,0.241,-0.9082,0.5593,569,15.7471,-48.5229,-14.7705,87,0.6563,0.1381,-9.821,-55.1987,33,0.4922,7677,3.9985,-50.2603
rg,1624568688821349932,1,0.1992,-0.8696,0.5168,570,21.1182,-52.7344,-16.4795,87,0.6593,0.1411,-11.6125,-54.7599,33,0.4972,7906,3.9985,-48.8571
rg,1624568688821368302,1,0.1729,-0.7759,0.4731,571,25.3906,-58.5938,-16.0522,87,0.6653,0.1451,-13.4503,-54.2295,33,0.5032,7761,3.9985,-47.2503
rg,1624568688821397413,1,0.1628,-0.769,0.4827,572,19.165,-63.4766,-14.8315,87,0.6703,0.1491,-15.4719,-54.3803,33,0.5082,8036,3.9985,-45.2034
rg,1624568688821416080,1,0.3352,-0.8494,0.4893,573,4.4556,-72.7539,-6.8359,87,0.6763,0.1541,-17.4962,-55.069,33,0.5102,12941,3.9985,-42.828
rg,1624568688821434135,1,0.4849,-0.8423,0.4443,574,6.5308,-57.7393,-2.7466,87,0.6793,0.1531,-19.2631,-55.6724,33,0.5112,7955,3.9985,-40.8092
rg,1624568688821451950,1,0.5322,-0.8162,0.4268,575,7.0801,-41.4429,-2.5024,87,0.6803,0.1541,-20.6917,-56.102,33,0.5123,7808,3.9985,-39.3271
rg,1624568688821469857,1,0.5222,-0.7891,0.4016,576,1.77,-2.8076,-2.0142,87,0.6813,0.1551,-21.2088,-56.2897,33,0.5133,8214,3.9985,-39.1897
rg,1624568689181659035,1,0.2244,-0.8464,0.4622,577,-11.5356,20.0195,-7.019,87,0.6763,0.1551,-20.9069,-56.6697,33,0.5153,26053,3.9985,-39.9003
rg,1624568689181690646,1,0.2056,-0.8442,0.4966,578,-8.9722,1.4038,-13.6719,87,0.6703,0.1481,-20.973,-57.0003,33,0.5143,12929,3.9985,-40.2321
rg,1624568689181710887,1,0.2441,-0.8674,0.5012,579,-2.8687,-13.855,-14.3433,87,0.6663,0.1461,-21.461,-57.284,33,0.5123,7441,3.9985,-40.0245
rg,1624568689181729775,1,0.2678,-0.873,0.5051,580,1.3428,-17.7002,-13.5498,87,0.6633,0.1431,-22.0306,-57.4479,33,0.5112,7455,3.9985,-39.6587
rg,1624568689181748275,1,0.3013,-0.8533,0.4995,581,13.9771,-19.104,-13.2446,87,0.6613,0.1441,-22.6797,-57.1138,33,0.5082,7490,3.9985,-39.24
rg,1624568689181766386,1,0.2976,-0.8042,0.4932,582,26.001,-14.2822,-10.7422,87,0.6603,0.1441,-23.1403,-56.2209,33,0.5072,9198,3.9985,-38.9571
rg,1624568689181784608,1,0.3049,-0.7822,0.4617,583,31.311,-13.4277,-7.8125,87,0.6593,0.1421,-23.5134,-55.2059,33,0.5072,7429,3.9985,-38.6144
rg,1624568689181803034,1,0.3447,-0.7297,0.4375,584,33.6914,-11.4136,-2.4414,87,0.6603,0.1421,-23.7941,-54.1409,33,0.5062,7647,3.9985,-38.2107
rg,1624568689181820312,1,0.3691,-0.7231,0.4458,585,30.8228,-7.2632,0.4272,87,0.6593,0.1421,-23.9363,-53.1728,33,0.5052,8312,3.9985,-37.8804
rg,1624568689181858330,1,0.3652,-0.7354,0.4573,586,28.5034,-5.3711,2.0752,87,0.6603,0.1421,-23.9553,-52.3184,33,0.5062,7656,3.9985,-37.562
rg,1624568689181877552,1,0.3655,-0.7583,0.4717,587,29.1138,-3.479,2.6245,87,0.6603,0.1421,-23.8904,-51.4534,33,0.5052,8302,3.9985,-37.2808
rg,1624568689181895738,1,0.3425,-0.7742,0.4995,588,29.7852,-2.6245,1.8921,87,0.6613,0.1411,-23.7362,-50.4776,33,0.5062,8203,3.9985,-37.1215
rg,1624568689181913330,1,0.3252,-0.7839,0.5144,589,31.4941,0.2441,0.5493,87,0.6603,0.1421,-23.5314,-49.4667,33,0.5052,7556,3.9985,-37.0139
rg,1624568689181930626,1,0.28,-0.8103,0.5366,590,36.5601,-0.1831,0.7324,87,0.6613,0.1431,-23.2219,-48.2981,33,0.5052,7663,3.9985,-36.8712
rg,1624568689181947367,1,0.2637,-0.8223,0.5527,591,40.9546,-2.5635,1.5869,87,0.6603,0.1421,-22.9191,-47.0276,33,0.5062,7651,3.9985,-36.6138
rg,1624568689181963978,1,0.2759,-0.7998,0.5415,592,45.4102,-9.2773,1.2207,87,0.6623,0.1421,-22.8689,-45.6987,33,0.5062,7698,3.9985,-36.142
rg,1624568689181980811,1,0.2783,-0.7634,0.5154,593,46.0205,-13.0615,0.6714,87,0.6623,0.1421,-23.1058,-44.413,33,0.5072,7813,3.9985,-35.6012
rg,1624568689181997904,1,0.2637,-0.7292,0.5015,594,46.936,-16.5405,-3.9062,87,0.6613,0.1421,-23.4428,-43.1346,33,0.5062,7692,3.9985,-35.0447
rg,1624568689182015459,1,0.2593,-0.6775,0.4619,595,45.8984,-22.4609,-6.1035,87,0.6623,0.1411,-24.0489,-41.9974,33,0.5052,10856,3.9985,-34.3696
rg,1624568689182032292,1,0.3428,-0.698,0.4705,596,40.5884,-27.5879,-9.5825,87,0.6633,0.1411,-25.0693,-41.1323,33,0.5062,7956,3.9985,-33.6501
rg,1624568689182049033,1,0.3618,-0.6948,0.4683,597,40.5884,-26.123,-10.9253,87,0.6643,0.1411,-26.0981,-40.2653,33,0.5062,7663,3.9985,-33.0089
rg,1624568689182066107,1,0.3669,-0.6992,0.5051,598,42.7856,-21.1792,-15.1367,87,0.6643,0.1411,-27.0334,-39.1477,33,0.5052,7910,3.9985,-32.6761
rg,1624568689182082903,1,0.3188,-0.7498,0.5635,599,46.0815,-17.1509,-17.0898,87,0.6653,0.1421,-27.691,-37.8277,33,0.5052,7754,3.9985,-32.5288
rg,1624568689182102107,1,0.2952,-0.7642,0.5911,600,48.584,-17.5171,-17.9443,87,0.6653,0.1421,-28.2859,-36.417,33,0.5062,7932,3.9985,-32.4065
rg,1624568689182118866,1,0.2698,-0.7722,0.6257,601,58.3496,-25.8789,-16.7236,87,0.6653,0.1421,-29.0274,-34.7448,33,0.5052,9095,3.9985,-32.0323
rg,1624568689182135755,1,0.2913,-0.7664,0.614,602,64.209,-37.2314,-17.0898,87,0.6663,0.1421,-30.1865,-33.0426,33,0.5062,8012,3.9985,-31.3723
rg,1624568689182152551,1,0.3203,-0.7432,0.616,603,67.5659,-42.3584,-18.4937,87,0.6653,0.1421,-31.587,-31.2559,33,0.5052,7923,3.9985,-30.6641
rg,1624568689182169273,1,0.3345,-0.688,0.6006,604,71.8384,-46.814,-22.8882,87,0.6653,0.1431,-33.2548,-29.2496,33,0.5042,8057,3.9985,-30.07
rg,1624568689182185884,1,0.2842,-0.6531,0.5813,605,71.5942,-54.1992,-28.5645,87,0.6653,0.1431,-35.1592,-27.2626,33,0.5052,7907,3.9985,-29.5599
rg,1624568689182215088,1,0.2732,-0.6345,0.5769,606,71.5332,-61.5234,-31.7383,87,0.6653,0.1431,-37.3085,-25.3152,33,0.5052,8124,3.9985,-29.059
rg,1624568689182233477,1,0.2913,-0.5889,0.5481,607,71.228,-82.1533,-38.6353,87,0.6653,0.1431,-40.3307,-23.452,33,0.5042,7969,3.9985,-28.4867
rg,1624568689182249828,1,0.4192,-0.5422,0.5469,608,70.6177,-97.6562,-38.147,87,0.6663,0.1431,-44.1174,-21.6989,33,0.5042,8164,3.9985,-27.7109
rg,1624568689531838460,1,0.6426,-0.5911,0.6375,609,71.7773,-70.7397,-33.2031,87,0.6663,0.1421,-46.3774,-19.3647,33,0.5032,24921,3.9985,-27.6145
rg,1624568689531878367,1,0.6436,-0.5959,0.6714,610,74.646,-40.4663,-29.2969,87,0.6663,0.1421,-47.9417,-16.7622,33,0.5032,8465,3.9985,-27.755
rg,1624568689531899256,1,0.5549,-0.5276,0.6436,611,80.2002,-14.1602,-25.3906,87,0.6673,0.1431,-48.3022,-13.7368,33,0.5032,12510,3.9985,-28.1732
rg,1624568689531918126,1,0.4739,-0.4646,0.6396,612,78.3691,-12.085,-25.0854,87,0.6663,0.1431,-48.417,-10.7534,33,0.5022,10157,3.9985,-28.64
rg,1624568689531936534,1,0.4421,-0.4434,0.6343,613,71.4722,-23.3154,-24.4751,87,0.6673,0.1431,-48.8957,-8.2222,33,0.5022,9892,3.9985,-28.9281
rg,1624568689531958182,1,0.4458,-0.4463,0.6372,614,71.5332,-30.8838,-26.3672,87,0.6673,0.1421,-49.6606,-5.7078,33,0.5022,8176,3.9985,-29.2509
rg,1624568689531977219,1,0.4565,-0.4626,0.6833,615,67.0166,-44.4336,-32.1655,87,0.6673,0.1411,-50.9021,-3.1562,33,0.5012,8024,3.9985,-29.888
rg,1624568689531999311,1,0.4624,-0.512,0.7852,616,66.4673,-56.4575,-34.1187,87,0.6663,0.1411,-52.4563,-0.5386,33,0.5012,8215,3.9985,-30.6633
rg,1624568689532017774,1,0.5298,-0.5278,0.8071,617,68.8477,-65.0024,-30.2734,87,0.6663,0.1401,-54.3624,2.0543,33,0.5012,8341,3.9985,-31.2898
rg,1624568689532138570,1,0.6597,-0.479,0.8015,618,71.0449,-64.3311,-24.5972,87,0.6663,0.1391,-56.3521,4.7289,33,0.5002,12777,3.9985,-31.815
rg,1624568689532168792,1,0.7676,-0.4521,0.7937,619,65.7959,-53.3447,-19.3481,87,0.6663,0.1391,-57.9906,7.05,33,0.5002,8094,3.9985,-32.1066
rg,1624568689532186162,1,0.8071,-0.4509,0.7888,620,63.1714,-42.8467,-18.9209,87,0.6663,0.1371,-58.7103,8.9107,33,0.5002,8269,3.9985,-32.052
rg,1624568689532202718,1,0.8535,-0.4622,0.8262,621,56.4575,-14.0381,-16.9678,87,0.6663,0.1381,-58.7991,10.39,33,0.5002,8150,3.9985,-31.7804
rg,1624568689532220217,1,0.7844,-0.4775,0.8333,622,55.3589,13.1226,-17.5781,87,0.6673,0.1371,-57.7508,11.3721,33,0.4992,9059,3.9985,-31.0247
rg,1624568689532236940,1,0.7058,-0.4719,0.8552,623,54.9927,24.353,-12.5122,87,0.6663,0.1371,-56.2236,11.8128,33,0.4982,8410,3.9985,-29.683
rg,1624568689532255514,1,0.6853,-0.4436,0.8521,624,53.5889,21.2402,-8.3008,87,0.6673,0.1361,-54.8697,12.0763,33,0.4992,8388,3.9985,-28.1924
rg,1624568689532273476,1,0.6841,-0.4341,0.866,625,52.4902,16.5405,-6.7749,87,0.6673,0.1351,-53.7346,12.3375,33,0.4992,8252,3.9985,-26.7509
rg,1624568689532291939,1,0.6594,-0.4546,0.9136,626,49.6216,5.4321,-9.8877,87,0.6673,0.1331,-52.9639,12.7537,33,0.4982,8461,3.9985,-25.6778
rg,1624568689532310754,1,0.6289,-0.4714,0.9604,627,47.7295,-7.9956,-8.1177,87,0.6683,0.1331,-52.6721,13.1194,33,0.4982,8342,3.9985,-24.6715
rg,1624568689532328124,1,0.6606,-0.4922,0.9788,628,48.7671,-15.0146,-4.8218,87,0.6693,0.1331,-52.9663,13.2266,33,0.4992,8457,3.9952,-23.3931
rg,1624568689532346698,1,0.6992,-0.4778,0.9709,629,49.7437,-23.4375,3.8452,87,0.6673,0.1331,-53.4626,13.2591,33,0.4982,8345,3.9952,-21.8631
rg,1624568689532364846,1,0.7473,-0.4189,0.9153,630,46.7529,-17.4561,8.1787,87,0.6683,0.1341,-53.8468,13.0029,33,0.4992,8510,3.9952,-20.0521
rg,1624568689532382235,1,0.7271,-0.3623,0.873,631,45.2881,-4.6997,8.667,87,0.6683,0.1341,-53.7253,12.6172,33,0.4992,8967,3.9952,-18.0948
rg,1624568689532400068,1,0.6477,-0.3162,0.8293,632,36.0718,5.8594,7.3853,87,0.6693,0.1341,-53.1035,11.8877,33,0.4992,10090,3.9952,-16.1338
rg,1624568689532432994,1,0.5615,-0.2791,0.7983,633,28.4424,6.4697,7.2632,87,0.6703,0.1341,-52.3528,10.9562,33,0.5002,8416,3.9952,-14.2682
rg,1624568689532452901,1,0.5181,-0.2549,0.7837,634,23.6206,3.1738,6.4697,87,0.6703,0.1351,-51.6496,10.0341,33,0.5002,8602,3.9952,-12.6127
rg,1624568689532469661,1,0.4866,-0.2659,0.7903,635,11.2915,-11.6577,3.2349,87,0.6693,0.1351,-51.471,8.9087,33,0.4992,8489,3.9952,-11.3377
rg,1624568689532487198,1,0.4871,-0.3276,0.7957,636,3.479,-35.3394,-1.6479,87,0.6713,0.1361,-52.2068,7.7321,33,0.4992,8637,3.9952,-10.47
rg,1624568689532504031,1,0.5029,-0.3469,0.7998,637,0.8545,-59.2651,-8.728,87,0.6713,0.1361,-53.8428,6.9365,33,0.5002,8533,3.9952,-10.2066
rg,1624568689532520420,1,0.5178,-0.3579,0.8076,638,0.8545,-71.167,-10.1929,87,0.6723,0.1361,-56.3083,6.4191,33,0.5002,8651,3.9952,-10.253
rg,1624568689532539105,1,0.5742,-0.3835,0.8118,639,2.0142,-88.562,-12.3291,87,0.6723,0.1351,-59.0468,5.9969,33,0.4992,8568,3.9952,-10.3145
rg,1624568689532559771,1,0.6245,-0.3865,0.7913,640,4.6997,-95.52,-12.207,87,0.6723,0.1351,-62.0614,5.7333,33,0.4992,8598,3.9952,-10.3735
rg,1624568689900163792,1,0.7358,-0.3545,0.6897,641,6.6528,-74.2188,-6.1646,87,0.6733,0.1341,-64.4382,5.0404,33,0.5012,26046,3.9952,-9.7644
rg,1624568689900207607,1,0.7195,-0.3445,0.6677,642,6.5918,-50.2319,-10.437,87,0.6743,0.1341,-65.7804,4.4665,33,0.5012,14859,3.9952,-9.2508
rg,1624568689900228255,1,0.6868,-0.3425,0.6582,643,7.1411,-44.3115,-12.146,87,0.6733,0.1341,-66.7977,3.9472,33,0.5012,8023,3.9952,-8.7586
rg,1624568689900248347,1,0.6555,-0.3232,0.6406,644,8.2397,-37.5366,-12.3291,87,0.6743,0.1341,-67.4994,3.4615,33,0.5012,8203,3.9952,-8.2305
rg,1624568689900267199,1,0.6838,-0.3357,0.6401,645,8.9722,-33.5083,-9.9487,87,0.6743,0.1351,-68.0657,2.7052,33,0.5012,8061,3.9952,-7.3665
rg,1624568689900286588,1,0.689,-0.3384,0.6531,646,10.6812,-30.3955,-7.7515,87,0.6733,0.1351,-68.2658,1.5713,33,0.5012,8162,3.9952,-5.9727
rg,1624568689900305273,1,0.7197,-0.3538,0.6985,647,11.7798,-20.6299,-2.0752,87,0.6733,0.1351,-68.2497,0.1368,33,0.5002,9493,3.9952,-4.2199
rg,1624568689900341032,1,0.7642,-0.3577,0.7356,648,15.686,-10.0098,4.6997,87,0.6723,0.1361,-67.8106,-1.6763,33,0.5002,8714,3.9952,-1.8625
rg,1624568689900363087,1,0.792,-0.3291,0.7407,649,18.1885,2.3193,11.9629,87,0.6723,0.1361,-66.8874,-3.6938,33,0.5002,9467,3.9952,0.8755
rg,1624568689900381087,1,0.7922,-0.2903,0.748,650,15.9912,11.1694,15.8691,87,0.6733,0.1361,-65.5923,-5.6212,33,0.5002,8207,3.9952,3.4835
rg,1624568689900400087,1,0.7776,-0.2761,0.7502,651,13.6719,15.3809,15.3809,87,0.6733,0.1361,-64.062,-7.2048,33,0.5002,8174,3.9952,5.5477
rg,1624568689900418235,1,0.717,-0.2756,0.7571,652,8.9111,15.564,12.2681,87,0.6723,0.1361,-62.548,-8.4787,33,0.5002,8279,3.9952,7.1946
rg,1624568689900436328,1,0.6748,-0.2827,0.7473,653,3.418,4.7607,11.9019,87,0.6733,0.1361,-61.4438,-9.9417,33,0.5002,8353,3.9952,8.8225
rg,1624568689900454105,1,0.6646,-0.2976,0.7302,654,0.7935,-7.9346,10.9253,87,0.6743,0.1351,-60.8639,-11.5466,33,0.5012,8318,3.9952,10.5007
rg,1624568689900471402,1,0.6626,-0.2974,0.7202,655,-0.4272,-12.207,10.1929,87,0.6743,0.1361,-60.4653,-13.1113,33,0.5002,8235,3.9952,12.1039
rg,1624568689900489402,1,0.6833,-0.2988,0.6965,656,-2.2583,-20.874,11.9629,87,0.6733,0.1361,-60.4376,-14.9632,33,0.5002,8249,3.9952,13.974
rg,1624568689900506642,1,0.7146,-0.3208,0.6907,657,-3.2349,-22.522,13.1226,87,0.6753,0.1361,-60.4787,-16.9856,33,0.5012,8312,3.9952,16.0016
rg,1624568689900523920,1,0.7361,-0.3162,0.6829,658,-2.5635,-21.6064,14.9536,87,0.6753,0.1371,-60.3694,-18.8384,33,0.5012,8450,3.9952,17.9704
rg,1624568689900540938,1,0.739,-0.3074,0.6802,659,0.4883,-15.0146,14.3433,87,0.6743,0.1371,-60.1142,-20.4147,33,0.5002,8327,3.9952,19.7306
rg,1624568689900558179,1,0.7085,-0.3064,0.6724,660,1.0376,-5.0049,15.2588,87,0.6753,0.1381,-59.4326,-21.6931,33,0.5002,8460,3.9952,21.197
rg,1624568689900575420,1,0.688,-0.3113,0.676,661,1.6479,-1.3428,17.7612,87,0.6763,0.1381,-58.5511,-22.9123,33,0.5012,8369,3.9952,22.649
rg,1624568689900592623,1,0.6892,-0.3201,0.6941,662,2.6245,0.8545,18.3716,87,0.6753,0.1381,-57.4982,-23.9054,33,0.5012,8567,3.9952,23.9293
rg,1624568689900624234,1,0.688,-0.3242,0.7014,663,6.1646,7.8125,19.043,87,0.6763,0.1381,-56.2746,-24.5659,33,0.5012,13086,3.9952,24.9959
rg,1624568689900644308,1,0.6716,-0.3062,0.6997,664,7.4463,11.8408,18.9819,87,0.6763,0.1371,-54.9357,-24.9278,33,0.5012,8590,3.9952,25.8132
rg,1624568689900661345,1,0.6499,-0.3105,0.7034,665,7.019,13.2446,18.2495,87,0.6763,0.1371,-53.5573,-25.1993,33,0.5012,8483,3.9952,26.5198
rg,1624568689900678512,1,0.6394,-0.3118,0.7146,666,7.0801,13.6108,17.6392,87,0.6763,0.1371,-52.202,-25.361,33,0.5012,8681,3.9952,27.1145
rg,1624568689900695363,1,0.6201,-0.3071,0.7173,667,8.606,12.085,16.2354,87,0.6763,0.1371,-50.9433,-25.3792,33,0.5012,8860,3.9952,27.6299
rg,1624568689900711752,1,0.623,-0.303,0.7168,668,8.606,7.8125,16.0522,87,0.6753,0.1371,-49.8969,-25.4474,33,0.5012,10742,3.9952,28.2282
rg,1624568689900729085,1,0.6348,-0.3101,0.7253,669,8.3008,3.7231,15.3198,87,0.6753,0.1371,-49.054,-25.5705,33,0.5012,8573,3.9952,28.8892
rg,1624568689900745530,1,0.6411,-0.3076,0.7441,670,9.6436,-0.4883,14.5874,87,0.6763,0.1371,-48.3955,-25.6408,33,0.5012,8753,3.9952,29.5824
rg,1624568689900762382,1,0.6572,-0.3057,0.7666,671,8.5449,-5.9204,16.2964,87,0.6763,0.1371,-47.9269,-25.8809,33,0.5012,8639,3.9952,30.4748
rg,1624568689900779752,1,0.6794,-0.2959,0.7815,672,9.0332,-7.9346,16.1133,87,0.6763,0.1371,-47.6294,-26.0779,33,0.5012,9019,3.9952,31.3918
rg,1624568690267840042,1,0.7026,-0.2803,0.7573,673,5.5542,-8.7891,19.165,87,0.6773,0.1361,-47.3369,-26.5121,33,0.5022,26147,3.9952,32.4444
rg,1624568690267877782,1,0.6326,-0.2993,0.7327,674,3.0518,-2.9907,15.3809,87,0.6773,0.1361,-46.8165,-26.835,33,0.5022,15102,3.9952,33.1794
rg,1624568690267898282,1,0.6135,-0.3096,0.7346,675,1.9531,-7.9346,15.686,87,0.6783,0.1371,-46.4401,-27.3095,33,0.5022,9194,3.9952,34.0631
rg,1624568690267917338,1,0.6338,-0.3159,0.72,676,3.9062,-11.2915,14.4043,87,0.6783,0.1361,-46.2644,-27.7372,33,0.5022,8118,3.9952,34.9825
rg,1624568690267958523,1,0.6453,-0.3123,0.7261,677,4.5776,-12.085,14.2822,87,0.6783,0.1371,-46.1378,-28.1229,33,0.5022,8167,3.9952,35.8986
rg,1624568690267979060,1,0.6738,-0.3042,0.7222,678,5.7983,-10.0098,14.7705,87,0.6783,0.1371,-45.9869,-28.3909,33,0.5022,8256,3.9952,36.7507
rg,1624568690267996745,1,0.6829,-0.3064,0.7285,679,5.4932,-7.3242,14.2212,87,0.6773,0.1371,-45.7619,-28.5819,33,0.5022,8871,3.9952,37.4899
rg,1624568690268015615,1,0.6819,-0.3052,0.738,680,6.0425,-3.0518,14.5264,87,0.6783,0.1371,-45.3775,-28.6485,33,0.5022,8221,3.9952,38.1059
rg,1624568690268036893,1,0.667,-0.3008,0.7539,681,5.7983,-2.5635,15.3809,87,0.6773,0.1371,-44.8765,-28.6696,33,0.5032,8081,3.9952,38.6828
rg,1624568690268054411,1,0.6538,-0.2988,0.7632,682,5.188,-0.061,15.0757,87,0.6773,0.1381,-44.34,-28.66,33,0.5022,8260,3.9952,39.196
rg,1624568690268071559,1,0.6338,-0.2937,0.7527,683,5.5542,-1.6479,16.1743,87,0.6783,0.1381,-43.8408,-28.6918,33,0.5032,8174,3.9952,39.8
rg,1624568690268088763,1,0.6362,-0.3057,0.748,684,4.8828,-3.479,16.4795,87,0.6793,0.1401,-43.42,-28.8249,33,0.5032,14596,3.9952,40.4911
rg,1624568690268107022,1,0.6299,-0.3074,0.7532,685,6.0425,-3.479,17.0288,87,0.6793,0.1391,-43.0053,-28.8658,33,0.5032,8180,3.9952,41.1655
rg,1624568690268124503,1,0.6292,-0.2808,0.7527,686,5.7373,-2.4414,17.2119,87,0.6793,0.1391,-42.5656,-28.8733,33,0.5032,8384,3.9952,41.8005
rg,1624568690268142059,1,0.6223,-0.29,0.7524,687,3.3569,-3.418,18.0054,87,0.6793,0.1391,-42.1432,-29.0352,33,0.5032,8170,3.9952,42.512
rg,1624568690268159651,1,0.6313,-0.29,0.7576,688,1.4648,-6.7139,17.9443,87,0.6793,0.1381,-41.8604,-29.3105,33,0.5032,8429,3.9952,43.2966
rg,1624568690268177188,1,0.6353,-0.2917,0.7605,689,1.709,-6.8359,17.9443,87,0.6783,0.1381,-41.616,-29.5667,33,0.5032,8448,3.9952,44.0288
rg,1624568690268195577,1,0.6348,-0.3015,0.7588,690,0.9155,-6.7749,17.2119,87,0.6783,0.1371,-41.3618,-29.8394,33,0.5022,8425,3.9952,44.7807
rg,1624568690268212892,1,0.6179,-0.3054,0.7505,691,1.0376,-5.9814,15.625,87,0.6793,0.1381,-41.0975,-30.0462,33,0.5022,8315,3.9952,45.4397
rg,1624568690268252725,1,0.6174,-0.3076,0.7556,692,1.3428,-7.0801,15.3809,87,0.6793,0.1381,-40.8762,-30.2394,33,0.5032,8321,3.9952,46.1091
rg,1624568690268273373,1,0.6304,-0.3098,0.7556,693,2.2583,-9.1553,16.9678,87,0.6793,0.1381,-40.74,-30.4868,33,0.5032,8480,3.9952,46.912
rg,1624568690268291577,1,0.6453,-0.303,0.7566,694,4.0283,-7.6294,15.564,87,0.6783,0.1391,-40.5947,-30.5569,33,0.5022,8377,3.9952,47.5854
rg,1624568690268309206,1,0.6506,-0.3081,0.7566,695,4.5776,-7.2021,16.4185,87,0.6793,0.1401,-40.428,-30.6318,33,0.5022,8525,3.9952,48.2925
rg,1624568690268326354,1,0.6614,-0.3088,0.761,696,4.6387,-4.0894,16.1743,87,0.6793,0.1391,-40.1784,-30.6355,33,0.5032,8453,3.9952,48.9005
rg,1624568690268343725,1,0.6641,-0.3071,0.7546,697,5.7983,-2.7466,16.8457,87,0.6793,0.1391,-39.903,-30.5764,33,0.5022,8584,3.9952,49.4958
rg,1624568690268361798,1,0.6616,-0.2905,0.7605,698,6.897,1.4648,16.2964,87,0.6783,0.1391,-39.4968,-30.3488,33,0.5022,8482,3.9952,49.9319
rg,1624568690268380595,1,0.6484,-0.2778,0.7371,699,6.1035,4.2725,15.686,87,0.6793,0.1391,-39.039,-30.0874,33,0.5022,8631,3.9952,50.2696
rg,1624568690268398632,1,0.625,-0.2744,0.7478,700,4.1504,5.4932,17.8223,87,0.6803,0.1401,-38.4644,-29.9247,33,0.5032,8527,3.9952,50.6624
rg,1624568690268416465,1,0.6343,-0.2888,0.7585,701,3.0518,4.5776,18.6768,87,0.6803,0.1401,-37.9207,-29.9056,33,0.5032,8087,3.9952,51.1593
rg,1624568690268433594,1,0.6387,-0.3054,0.7698,702,1.0376,3.1738,20.2637,87,0.6783,0.1401,-37.3981,-30.0214,33,0.5032,8028,3.9952,51.7576
rg,1624568690268451243,1,0.623,-0.313,0.7622,703,0.7935,3.7231,18.4326,87,0.6793,0.1401,-36.8898,-30.103,33,0.5032,8709,3.9952,52.2719
rg,1624568690268469816,1,0.6052,-0.3215,0.7656,704,1.0986,4.8828,16.9067,87,0.6803,0.1401,-36.351,-30.1205,33,0.5032,9641,3.9952,52.6959
rg,1624568690630653166,1,0.5984,-0.3096,0.7764,705,4.1504,3.6621,16.3574,87,0.6793,0.1401,-35.902,-29.9863,33,0.5022,26327,3.9952,53.1659
rg,1624568690630687500,1,0.606,-0.3,0.7759,706,5.249,1.0376,16.1133,87,0.6803,0.1411,-35.5724,-29.8193,33,0.5032,11528,3.9952,53.6294
rg,1624568690630740962,1,0.604,-0.301,0.7839,707,4.3335,-0.061,15.1978,87,0.6793,0.1401,-35.2829,-29.6672,33,0.5032,7429,3.9952,54.0698
rg,1624568690630762796,1,0.5974,-0.3052,0.7871,708,4.5166,0,13.7939,87,0.6803,0.1401,-35.0136,-29.4819,33,0.5022,7644,3.9952,54.4565
rg,1624568690630781962,1,0.5884,-0.2991,0.7847,709,4.8828,-0.9766,14.2212,87,0.6803,0.1401,-34.7717,-29.2976,33,0.5032,7449,3.9952,54.8824
rg,1624568690630800610,1,0.573,-0.3013,0.7883,710,4.2725,-2.5635,14.0991,87,0.6793,0.1411,-34.5646,-29.1606,33,0.5042,7508,3.9952,55.3452
rg,1624568690630818629,1,0.5662,-0.2771,0.7925,711,3.9062,-7.3853,13.4277,87,0.6803,0.1401,-34.5448,-29.026,33,0.5042,10507,3.9952,55.8607
rg,1624568690630836906,1,0.5757,-0.2913,0.8013,712,0.8545,-12.6343,14.2822,87,0.6793,0.1411,-34.6908,-29.1379,33,0.5032,7730,3.9952,56.5565
rg,1624568690630854851,1,0.5852,-0.2986,0.7944,713,-0.1221,-13.916,13.916,87,0.6793,0.1401,-34.9013,-29.3226,33,0.5022,7639,3.9952,57.2815
rg,1624568690630873962,1,0.585,-0.2947,0.7832,714,0.2441,-16.4185,12.5122,87,0.6813,0.1411,-35.2303,-29.4925,33,0.5042,7539,3.9952,58.0063
rg,1624568690630891851,1,0.5845,-0.301,0.7834,715,-0.3662,-16.0522,11.2915,87,0.6803,0.1411,-35.5575,-29.6858,33,0.5042,7632,3.9952,58.6893
rg,1624568690630909536,1,0.5955,-0.3115,0.7803,716,-1.0986,-18.3716,11.6577,87,0.6803,0.1401,-35.9519,-29.9606,33,0.5032,7584,3.9952,59.4505
rg,1624568690630927758,1,0.6133,-0.3115,0.7786,717,0.9155,-18.9209,10.437,87,0.6803,0.1411,-36.4051,-30.1345,33,0.5042,7598,3.9952,60.1738
rg,1624568690630945128,1,0.6187,-0.3145,0.7791,718,1.0986,-19.7754,10.8643,87,0.6803,0.1411,-36.8662,-30.3338,33,0.5032,7731,3.9952,60.9415
rg,1624568690630962165,1,0.6287,-0.3088,0.7686,719,1.709,-17.395,10.498,87,0.6813,0.1401,-37.266,-30.4632,33,0.5042,7694,3.9952,61.6317
rg,1624568690630980332,1,0.634,-0.3064,0.771,720,2.2583,-15.8691,10.3149,87,0.6803,0.1411,-37.5368,-30.492,33,0.5042,7882,3.9952,62.2778
rg,1624568690630997498,1,0.6404,-0.3074,0.7759,721,4.8218,-13.5498,11.2305,87,0.6803,0.1401,-37.7756,-30.4499,33,0.5042,8278,3.9952,62.8939
rg,1624568690631030442,1,0.6306,-0.3066,0.7693,722,5.5542,-10.1929,11.9019,87,0.6803,0.1411,-37.8682,-30.3513,33,0.5042,7869,3.9952,63.4561
rg,1624568690631049405,1,0.6165,-0.302,0.7795,723,6.8359,-8.0566,11.4746,87,0.6813,0.1421,-37.8605,-30.1348,33,0.5052,7760,3.9952,63.9306
rg,1624568690631152997,1,0.6143,-0.2949,0.7786,724,6.958,-7.6904,12.6953,87,0.6803,0.1411,-37.8194,-29.9318,33,0.5042,7911,3.9952,64.4438
rg,1624568690631177812,1,0.6155,-0.2952,0.7778,725,6.1035,-8.4839,12.3901,87,0.6813,0.1421,-37.8175,-29.7764,33,0.5052,7843,3.9952,64.9698
rg,1624568690631196516,1,0.6135,-0.2825,0.78,726,4.4556,-9.2163,12.4512,87,0.6823,0.1421,-37.8431,-29.6712,33,0.5062,7990,3.9952,65.4992
rg,1624568690631216330,1,0.5984,-0.283,0.7908,727,3.9062,-8.5449,11.2915,87,0.6803,0.1421,-37.8291,-29.5365,33,0.5052,7799,3.9952,65.9544
rg,1624568690631235182,1,0.5732,-0.2961,0.7961,728,1.9531,-10.9253,10.6812,87,0.6813,0.1421,-37.8509,-29.5273,33,0.5042,8075,3.9952,66.4596
rg,1624568690631254997,1,0.5713,-0.2842,0.7839,729,2.6245,-15.625,11.1694,87,0.6813,0.1421,-38.042,-29.561,33,0.5062,7919,3.9952,67.0946
rg,1624568690631273997,1,0.5889,-0.2817,0.7803,730,1.1597,-19.6533,12.3291,87,0.6823,0.1431,-38.3784,-29.7521,33,0.5062,13080,3.9952,67.8849
rg,1624568690631292423,1,0.6162,-0.2876,0.7798,731,1.2207,-20.5078,12.4512,87,0.6823,0.1441,-38.7715,-29.9792,33,0.5062,9406,3.9952,68.7153
rg,1624568690631310237,1,0.6208,-0.2891,0.7837,732,1.0376,-18.3105,11.2915,87,0.6813,0.1441,-39.0971,-30.1445,33,0.5062,8069,3.9952,69.4358
rg,1624568690631328923,1,0.6223,-0.2861,0.7773,733,1.2207,-17.6392,11.1084,87,0.6813,0.1431,-39.4008,-30.2856,33,0.5052,7942,3.9952,70.129
rg,1624568690631345700,1,0.6201,-0.29,0.7722,734,3.0518,-18.6768,9.8877,87,0.6823,0.1431,-39.751,-30.3517,33,0.5052,8150,3.9952,70.8036
rg,1624568690631364848,1,0.6145,-0.2881,0.7744,735,2.5635,-15.2588,12.146,87,0.6823,0.1441,-39.913,-30.4373,33,0.5062,8507,3.9952,71.4831
rg,1624568690631390256,1,0.6243,-0.3047,0.7659,736,3.7231,-16.7236,13.0615,87,0.6823,0.1431,-40.1144,-30.5831,33,0.5062,8727,3.9952,72.2778
rg,1624568690977975014,1,0.6365,-0.2659,0.7654,737,4.1504,-14.0381,14.2822,87,0.6813,0.1431,-40.2393,-30.6016,33,0.5052,25360,3.9952,72.9902
rg,1624568690978049995,1,0.6499,-0.2837,0.771,738,1.2817,-11.7188,15.686,87,0.6823,0.1431,-40.2541,-30.7788,33,0.5062,13652,3.9985,73.7314
rg,1624568690978080328,1,0.6111,-0.2903,0.7629,739,1.4038,-8.5449,13.855,87,0.6823,0.1431,-40.081,-30.8732,33,0.5062,12566,3.9985,74.3361
rg,1624568690978109180,1,0.6038,-0.2896,0.7856,740,1.77,-10.6201,14.8315,87,0.6823,0.1441,-39.9798,-30.9595,33,0.5062,7501,3.9985,74.9924
rg,1624568690978136884,1,0.6233,-0.2932,0.7603,741,2.7466,-12.8174,15.9302,87,0.6823,0.1431,-39.994,-31.1166,33,0.5072,7557,3.9985,75.784
rg,1624568690978231865,1,0.6333,-0.2944,0.7759,742,3.6011,-11.5967,15.3809,87,0.6833,0.1441,-39.9748,-31.1833,33,0.5072,7510,3.9985,76.5055
rg,1624568690978262068,1,0.6379,-0.2939,0.7659,743,3.7842,-10.437,15.625,87,0.6833,0.1441,-39.931,-31.2381,33,0.5072,7605,3.9985,77.2121
rg,1624568690978289383,1,0.6257,-0.291,0.7678,744,5.0659,-8.1177,14.7705,87,0.6823,0.1441,-39.8069,-31.1609,33,0.5072,9621,3.9985,77.8073
rg,1624568690978316494,1,0.6162,-0.2915,0.7671,745,5.7983,-8.0566,14.9536,87,0.6833,0.1441,-39.6664,-31.0599,33,0.5072,7574,3.9985,78.4107
rg,1624568690978343327,1,0.6052,-0.2854,0.7776,746,5.6763,-10.6812,16.0522,87,0.6823,0.1441,-39.5718,-31.0117,33,0.5072,7566,3.9985,79.1163
rg,1624568690978368882,1,0.6121,-0.2795,0.7751,747,4.7607,-10.376,15.8691,87,0.6823,0.1441,-39.5103,-31.0362,33,0.5072,7621,3.9985,79.8428
rg,1624568690978394105,1,0.616,-0.2773,0.7815,748,3.8452,-12.085,17.0288,87,0.6823,0.1441,-39.4694,-31.0888,33,0.5072,7603,3.9985,80.6153
rg,1624568690978418641,1,0.6213,-0.2896,0.7869,749,0.9155,-13.2446,17.6392,87,0.6833,0.1441,-39.4502,-31.319,33,0.5072,7731,3.9985,81.4617
rg,1624568690978443030,1,0.6138,-0.2842,0.782,750,1.8311,-11.7798,16.1133,87,0.6833,0.1441,-39.4079,-31.4249,33,0.5082,7594,3.9985,82.1886
rg,1624568690978467326,1,0.6104,-0.2825,0.7856,751,0.8545,-12.8174,15.8081,87,0.6833,0.1441,-39.3987,-31.5649,33,0.5072,7648,3.9985,82.9216
rg,1624568690978513919,1,0.6094,-0.2971,0.7734,752,1.0376,-13.1836,15.8691,87,0.6823,0.1441,-39.4009,-31.7514,33,0.5072,7758,3.9985,83.6968
rg,1624568690978541400,1,0.6106,-0.3008,0.7688,753,1.0986,-13.0005,14.0381,87,0.6833,0.1431,-39.4384,-31.8893,33,0.5072,8636,3.9985,84.3919
rg,1624568690978566918,1,0.6309,-0.291,0.7634,754,2.4414,-14.3433,14.4653,87,0.6833,0.1441,-39.5579,-31.9917,33,0.5082,7895,3.9985,85.1318
rg,1624568690978592585,1,0.6355,-0.2893,0.7583,755,2.6855,-13.855,14.1602,87,0.6833,0.1441,-39.677,-32.0683,33,0.5072,7694,3.9985,85.8448
rg,1624568690978617474,1,0.6465,-0.2927,0.7542,756,3.1128,-11.0474,13.4888,87,0.6833,0.1441,-39.7318,-32.0743,33,0.5082,7858,3.9985,86.4594
rg,1624568690978642566,1,0.6379,-0.2886,0.7595,757,3.0518,-11.0474,13.855,87,0.6833,0.1441,-39.7157,-32.0677,33,0.5072,7761,3.9985,87.1018
rg,1624568690978666974,1,0.6348,-0.2837,0.7649,758,3.8452,-9.3994,14.7705,87,0.6823,0.1441,-39.6608,-32.0125,33,0.5072,8847,3.9985,87.7017
rg,1624568690978692566,1,0.6318,-0.2866,0.7732,759,3.479,-7.6294,14.3433,87,0.6823,0.1431,-39.5414,-31.9267,33,0.5072,10119,3.9985,88.2327
rg,1624568690978718325,1,0.6252,-0.2881,0.7705,760,4.3335,-6.2866,16.5405,87,0.6833,0.1431,-39.3263,-31.8515,33,0.5072,8010,3.9985,88.8287
rg,1624568690978743010,1,0.6184,-0.2786,0.7751,761,4.1504,-6.5918,16.9067,87,0.6843,0.1431,-39.1126,-31.7679,33,0.5082,7964,3.9985,89.4307
rg,1624568690978768084,1,0.6135,-0.2803,0.7839,762,3.6011,-6.2866,17.395,87,0.6823,0.1441,-38.8677,-31.7077,33,0.5062,8034,3.9985,90.0431
rg,1624568690978793454,1,0.603,-0.2891,0.7849,763,2.6855,-5.7373,15.0757,87,0.6833,0.1441,-38.6374,-31.6289,33,0.5072,7871,3.9985,90.5523
rg,1624568690978818417,1,0.5947,-0.2917,0.7866,764,2.5635,-8.0566,16.2354,87,0.6833,0.1441,-38.4521,-31.6289,33,0.5072,8131,3.9985,91.1784
rg,1624568690978842528,1,0.5933,-0.2903,0.7859,765,2.3804,-8.8501,16.0522,87,0.6823,0.1441,-38.3039,-31.6388,33,0.5072,7905,3.9985,91.8156
rg,1624568690978929620,1,0.6045,-0.2896,0.7769,766,2.8076,-11.4136,15.5029,87,0.6823,0.1441,-38.2899,-31.6692,33,0.5082,8175,3.9985,92.505
rg,1624568690978989565,1,0.6106,-0.2874,0.7742,767,2.3804,-11.1084,13.7939,87,0.6843,0.1431,-38.3173,-31.6636,33,0.5082,7996,3.9985,93.1109
rg,1624568690979017064,1,0.6143,-0.2842,0.7749,768,2.8687,-12.6953,14.1602,87,0.6843,0.1441,-38.3997,-31.6674,33,0.5082,8191,3.9985,93.7705
rg,1624568691323503203,1,0.6201,-0.2859,0.7634,769,2.3804,-11.2915,14.4653,88,0.6833,0.1451,-38.4447,-31.6959,33,0.5082,25367,3.9985,94.4178
rg,1624568691323551425,1,0.6267,-0.2954,0.7686,770,2.0142,-11.4746,16.4795,88,0.6833,0.1441,-38.4498,-31.8155,33,0.5072,12657,3.9985,95.1693
rg,1624568691323572573,1,0.6184,-0.2932,0.7798,771,3.9062,-9.4604,15.625,88,0.6843,0.1431,-38.3788,-31.777,33,0.5082,7598,3.9985,95.813
rg,1624568691323594518,1,0.6179,-0.2869,0.7676,772,3.9062,-8.728,15.3809,88,0.6833,0.1441,-38.3089,-31.7183,33,0.5082,7786,3.9985,96.4259
rg,1624568691323648258,1,0.6167,-0.2869,0.7695,773,3.9062,-8.9722,15.9912,88,0.6833,0.1441,-38.2332,-31.6788,33,0.5072,7531,3.9985,97.0715
rg,1624568691323668536,1,0.6184,-0.2878,0.7759,774,3.6621,-9.2773,16.9678,88,0.6833,0.1441,-38.1453,-31.6634,33,0.5082,7718,3.9985,97.7576
rg,1624568691323686610,1,0.613,-0.2898,0.7788,775,3.9062,-9.5825,16.6626,88,0.6833,0.1441,-38.0573,-31.6198,33,0.5082,10507,3.9985,98.3903
rg,1624568691323706480,1,0.6108,-0.2859,0.7842,776,3.7842,-8.728,15.625,88,0.6833,0.1441,-37.9791,-31.5913,33,0.5072,9820,3.9985,99.0265
rg,1624568691323729980,1,0.6128,-0.2847,0.783,777,3.6011,-7.7515,15.7471,88,0.6833,0.1431,-37.8611,-31.5158,33,0.5082,7497,3.9985,99.6178
rg,1624568691323747906,1,0.6047,-0.2869,0.7849,778,3.479,-8.4229,16.2964,88,0.6833,0.1431,-37.7415,-31.4734,33,0.5082,7666,3.9985,100.2531
rg,1624568691323765887,1,0.6064,-0.2861,0.7778,779,3.54,-9.0942,15.564,88,0.6833,0.1421,-37.6765,-31.4271,33,0.5082,7568,3.9985,100.8797
rg,1624568691323783684,1,0.6055,-0.2812,0.7754,780,3.54,-10.3149,15.564,88,0.6823,0.1421,-37.6602,-31.392,33,0.5072,9407,3.9985,101.534
rg,1624568691323801924,1,0.6177,-0.2832,0.7798,781,2.6855,-10.6812,16.1133,88,0.6833,0.1431,-37.6607,-31.4157,33,0.5072,7747,3.9985,102.2243
rg,1624568691323902016,1,0.6191,-0.2808,0.783,782,3.1738,-10.1929,15.686,88,0.6843,0.1431,-37.6574,-31.3908,33,0.5092,7764,3.9985,102.8771
rg,1624568691323926294,1,0.6189,-0.2781,0.7759,783,1.9531,-9.5825,15.9302,88,0.6843,0.1431,-37.6347,-31.4129,33,0.5072,7642,3.9985,103.5254
rg,1624568691323948294,1,0.6167,-0.293,0.7764,784,2.4414,-8.7891,16.0522,88,0.6843,0.1441,-37.5685,-31.4404,33,0.5092,7823,3.9985,104.1794
rg,1624568691323966109,1,0.6113,-0.2888,0.7839,785,1.5259,-9.3384,16.4795,88,0.6823,0.1441,-37.4992,-31.5022,33,0.5072,7683,3.9985,104.853
rg,1624568691323982257,1,0.6125,-0.2908,0.7822,786,2.5024,-8.3008,15.3809,88,0.6843,0.1431,-37.4229,-31.4832,33,0.5072,7862,3.9985,105.4544
rg,1624568691324003979,1,0.6072,-0.2959,0.7815,787,2.8687,-8.9722,15.8691,88,0.6843,0.1441,-37.3579,-31.4343,33,0.5082,7732,3.9985,106.0868
rg,1624568691324020997,1,0.6042,-0.2932,0.7771,788,3.8452,-8.7891,15.625,88,0.6833,0.1441,-37.2887,-31.3867,33,0.5072,7849,3.9985,106.7192
rg,1624568691324039071,1,0.6121,-0.2888,0.78,789,4.6997,-9.1553,15.2588,88,0.6843,0.1441,-37.2564,-31.2902,33,0.5092,7720,3.9985,107.3392
rg,1624568691324059497,1,0.6079,-0.2856,0.7815,790,3.6011,-10.0708,16.1133,88,0.6843,0.1441,-37.2396,-31.2582,33,0.5072,7939,3.9985,108.0103
rg,1624568691324078775,1,0.6042,-0.2781,0.7817,791,4.1504,-9.5215,14.3433,88,0.6833,0.1441,-37.2335,-31.1396,33,0.5072,8025,3.9985,108.585
rg,1624568691324095145,1,0.6079,-0.2795,0.7871,792,2.0142,-11.1084,15.3198,88,0.6833,0.1431,-37.2613,-31.1601,33,0.5082,7955,3.9985,109.2452
rg,1624568691324112145,1,0.6067,-0.281,0.7874,793,2.4414,-10.9253,14.5264,88,0.6843,0.1441,-37.2986,-31.1576,33,0.5082,7888,3.9985,109.8772
rg,1624568691324128719,1,0.6099,-0.283,0.7854,794,1.709,-11.7188,15.9912,88,0.6823,0.1431,-37.3333,-31.2286,33,0.5072,8036,3.9985,110.5888
rg,1624568691324145552,1,0.6084,-0.29,0.7805,795,1.2207,-12.3291,15.686,88,0.6843,0.1431,-37.3909,-31.3414,33,0.5082,8057,3.9985,111.3158
rg,1624568691324163275,1,0.615,-0.2944,0.7822,796,0.9155,-12.3901,15.686,88,0.6843,0.1431,-37.4378,-31.4412,33,0.5082,8052,3.9985,112.0577
rg,1624568691324200404,1,0.6201,-0.2871,0.7793,797,0.7935,-11.7798,15.3198,88,0.6843,0.1431,-37.5021,-31.5432,33,0.5072,9654,3.9985,112.7482
rg,1624568691324220848,1,0.6196,-0.291,0.7896,798,1.2207,-11.6577,16.1743,88,0.6823,0.1421,-37.5259,-31.6433,33,0.5072,8169,3.9985,113.4687
rg,1624568691324238015,1,0.6125,-0.2871,0.7803,799,2.3193,-9.7656,15.1367,88,0.6833,0.1421,-37.5067,-31.637,33,0.5072,7966,3.9985,114.0911
rg,1624568691324257311,1,0.5972,-0.2939,0.7795,800,2.5635,-9.8877,14.6484,88,0.6843,0.1431,-37.4715,-31.6241,33,0.5072,8138,3.9985,114.7045
rg,1624568691674054048,1,0.613,-0.2898,0.7871,801,2.7466,-10.6812,14.5874,88,0.6843,0.1421,-37.4886,-31.6005,33,0.5082,25229,3.9985,115.3276
rg,1624568691674090789,1,0.6069,-0.2937,0.7742,802,3.0518,-10.437,14.1602,88,0.6843,0.1421,-37.5068,-31.5736,33,0.5082,11237,3.9985,115.9405
rg,1624568691674111289,1,0.6123,-0.2908,0.7812,803,3.2959,-10.6812,14.7095,88,0.6843,0.1421,-37.5505,-31.5431,33,0.5082,7571,3.9985,116.5523
rg,1624568691674130733,1,0.6089,-0.2825,0.7869,804,3.1738,-11.3525,15.7471,88,0.6833,0.1421,-37.5617,-31.529,33,0.5082,7749,3.9985,117.2335
rg,1624568691674148807,1,0.6174,-0.2849,0.7834,805,3.418,-11.6577,15.1978,88,0.6843,0.1421,-37.6114,-31.5088,33,0.5082,8711,3.9985,117.9071
rg,1624568691674166511,1,0.6157,-0.2771,0.7722,806,2.8076,-11.6577,15.5029,88,0.6843,0.1421,-37.6681,-31.5152,33,0.5082,7946,3.9985,118.59
rg,1624568691674183307,1,0.6172,-0.2749,0.7766,807,2.3804,-11.1694,15.3809,88,0.6843,0.1421,-37.6838,-31.535,33,0.5072,8932,3.9985,119.2589
rg,1624568691674199585,1,0.6208,-0.2898,0.7849,808,1.0376,-11.0474,16.0522,88,0.6833,0.1421,-37.6905,-31.6349,33,0.5072,8205,3.9985,119.9601
rg,1624568691674215714,1,0.6162,-0.2944,0.7786,809,2.5024,-9.8267,16.2354,88,0.6843,0.1431,-37.6469,-31.6747,33,0.5092,7479,3.9985,120.6449
rg,1624568691674233621,1,0.613,-0.2932,0.7844,810,2.7466,-9.1553,15.8081,88,0.6833,0.1421,-37.58,-31.6698,33,0.5072,7705,3.9985,121.2857
rg,1624568691674251473,1,0.603,-0.2961,0.7749,811,3.6011,-8.667,15.9302,88,0.6843,0.1431,-37.4876,-31.6409,33,0.5072,7531,3.9985,121.9283
rg,1624568691674288195,1,0.6106,-0.2837,0.7751,812,3.7231,-8.667,15.0146,88,0.6843,0.1431,-37.4687,-31.5593,33,0.5082,7686,3.9985,122.5148
rg,1624568691674308121,1,0.6135,-0.2859,0.7876,813,3.6011,-9.3994,15.2588,88,0.6833,0.1441,-37.4321,-31.4907,33,0.5072,7573,3.9985,123.1279
rg,1624568691674326399,1,0.6082,-0.2822,0.7832,814,3.8452,-9.9487,16.3574,88,0.6833,0.1451,-37.3913,-31.4465,33,0.5082,7807,3.9985,123.8009
rg,1624568691674343565,1,0.6057,-0.2847,0.782,815,2.8076,-9.3384,15.564,88,0.6843,0.1441,-37.3435,-31.4211,33,0.5082,9431,3.9985,124.4288
rg,1624568691674361880,1,0.6069,-0.283,0.7815,816,2.9907,-9.2773,15.2588,88,0.6843,0.1441,-37.3262,-31.457,33,0.5082,8056,3.9985,125.1119
rg,1624568691674379084,1,0.6074,-0.2903,0.7859,817,3.1738,-11.1084,16.0522,88,0.6823,0.1431,-37.3254,-31.467,33,0.5072,7680,3.9985,125.8134
rg,1624568691674397732,1,0.6165,-0.2827,0.7837,818,3.7231,-10.6812,15.2588,88,0.6843,0.1441,-37.3503,-31.4133,33,0.5082,7861,3.9985,126.4608
rg,1624568691674415232,1,0.6174,-0.2839,0.7837,819,3.8452,-10.1318,15.3809,88,0.6833,0.1431,-37.3545,-31.3548,33,0.5082,7731,3.9985,127.1023
rg,1624568691674432102,1,0.6074,-0.2937,0.7822,820,3.9673,-8.606,14.9536,88,0.6843,0.1441,-37.2935,-31.2813,33,0.5082,7849,3.9985,127.7007
rg,1624568691674449583,1,0.604,-0.2803,0.7737,821,4.3335,-9.0332,15.5029,88,0.6843,0.1441,-37.2516,-31.1918,33,0.5082,7741,3.9985,128.3206
rg,1624568691674466176,1,0.604,-0.2751,0.7881,822,2.8687,-8.9722,17.8223,88,0.6843,0.1431,-37.149,-31.1939,33,0.5082,12997,3.9985,129.0229
rg,1624568691674482880,1,0.6194,-0.283,0.7859,823,2.9907,-10.2539,18.4326,88,0.6843,0.1441,-37.105,-31.2517,33,0.5082,7817,3.9985,129.8004
rg,1624568691674499991,1,0.6138,-0.2825,0.7891,824,2.2583,-8.9111,17.4561,88,0.6843,0.1441,-37.0071,-31.2764,33,0.5082,8010,3.9985,130.4916
rg,1624568691674516731,1,0.5947,-0.2883,0.7898,825,1.9531,-9.3384,15.686,88,0.6843,0.1441,-36.9426,-31.2872,33,0.5082,9117,3.9985,131.1267
rg,1624568691674533676,1,0.5867,-0.2988,0.7947,826,1.5259,-8.728,15.9912,88,0.6843,0.1441,-36.8265,-31.3302,33,0.5082,8028,3.9985,131.7696
rg,1624568691674562694,1,0.5938,-0.2944,0.79,827,2.9297,-11.6577,15.9302,88,0.6843,0.1451,-36.8361,-31.355,33,0.5082,8482,3.9985,132.4831
rg,1624568691674580583,1,0.5906,-0.2947,0.793,828,2.2583,-11.1084,15.2588,88,0.6843,0.1441,-36.8401,-31.3529,33,0.5082,8756,3.9985,133.1537
rg,1624568691674597601,1,0.5916,-0.2925,0.7886,829,3.479,-13.3667,13.855,88,0.6833,0.1441,-36.9492,-31.3256,33,0.5082,7910,3.9985,133.821
rg,1624568691674667379,1,0.6055,-0.2852,0.7825,830,3.9062,-14.7705,16.6016,88,0.6843,0.1451,-37.0811,-31.3691,33,0.5082,8143,3.9985,134.6389
rg,1624568691674688453,1,0.627,-0.2795,0.7854,831,3.7842,-13.916,15.5029,88,0.6843,0.1451,-37.2488,-31.3904,33,0.5082,8067,3.9985,135.3559
rg,1624568691674709564,1,0.6248,-0.2856,0.7891,832,2.0752,-9.7656,14.7095,88,0.6843,0.1451,-37.264,-31.3789,33,0.5082,8192,3.9985,135.9594
rg,1624568692015269842,1,0.5928,-0.291,0.7778,833,2.3193,-13.0005,14.8926,88,0.6843,0.1461,-37.3369,-31.4328,33,0.5082,27128,3.9985,136.6674
rg,1624568692015310490,1,0.6138,-0.2827,0.7761,834,2.4414,-13.6108,14.5874,88,0.6843,0.1441,-37.4784,-31.4696,33,0.5082,15039,3.9985,137.3696
rg,1624568692015331083,1,0.6125,-0.2798,0.7839,835,2.0752,-12.085,14.5874,88,0.6843,0.1451,-37.5535,-31.4805,33,0.5082,7495,3.9985,138.0206
rg,1624568692015350824,1,0.6089,-0.2905,0.7864,836,0.7324,-11.8408,14.5264,88,0.6843,0.1451,-37.6017,-31.5628,33,0.5082,7635,3.9985,138.6764
rg,1624568692015369194,1,0.5999,-0.2908,0.7803,837,0.9155,-11.9629,13.7939,88,0.6843,0.1451,-37.6574,-31.6234,33,0.5082,7453,3.9985,139.3056
rg,1624568692015387638,1,0.6016,-0.2925,0.7834,838,1.0376,-12.4512,14.8315,88,0.6843,0.1451,-37.7005,-31.686,33,0.5082,7459,3.9985,139.942
rg,1624568692015406508,1,0.6013,-0.291,0.7922,839,1.0376,-12.5732,13.9771,88,0.6843,0.1451,-37.7573,-31.7405,33,0.5072,8652,3.9985,140.5851
rg,1624568692015424231,1,0.6074,-0.2905,0.7834,840,2.2583,-12.9395,14.7705,88,0.6843,0.1451,-37.828,-31.7824,33,0.5082,8283,3.9985,141.2775
rg,1624568692015442712,1,0.6189,-0.2861,0.783,841,2.3193,-13.3057,14.2822,88,0.6843,0.1451,-37.9177,-31.7812,33,0.5082,7520,3.9985,141.9268
rg,1624568692015489249,1,0.6196,-0.2805,0.7822,842,2.6245,-12.8174,15.4419,88,0.6833,0.1451,-37.9933,-31.805,33,0.5092,7680,3.9985,142.6319
rg,1624568692015511360,1,0.613,-0.2878,0.7795,843,2.9907,-10.9253,14.8926,88,0.6853,0.1451,-37.9998,-31.7875,33,0.5092,7591,3.9985,143.2738
rg,1624568692015530582,1,0.6106,-0.2781,0.7812,844,3.1128,-10.8032,14.5874,88,0.6843,0.1451,-38.014,-31.7342,33,0.5082,7723,3.9985,143.8861
rg,1624568692015548693,1,0.6143,-0.2849,0.7761,845,2.1973,-11.1694,15.2588,88,0.6843,0.1451,-38.0288,-31.7622,33,0.5082,7793,3.9985,144.5502
rg,1624568692015566619,1,0.6211,-0.2859,0.7837,846,1.6479,-11.4136,16.2354,88,0.6843,0.1451,-38.0329,-31.8368,33,0.5082,7811,3.9985,145.2597
rg,1624568692015584230,1,0.614,-0.2881,0.7869,847,2.2583,-9.2773,15.4419,88,0.6843,0.1451,-37.9637,-31.8273,33,0.5082,7660,3.9985,145.8753
rg,1624568692015602637,1,0.603,-0.2908,0.7871,848,1.8311,-9.6436,16.2354,88,0.6853,0.1441,-37.8714,-31.8647,33,0.5082,7855,3.9985,146.5371
rg,1624568692015621248,1,0.6021,-0.2871,0.7903,849,1.709,-9.0942,15.0757,88,0.6843,0.1441,-37.7859,-31.8515,33,0.5082,7702,3.9985,147.1252
rg,1624568692015639285,1,0.6025,-0.2852,0.7886,850,2.2583,-9.7046,14.8315,88,0.6843,0.1441,-37.7338,-31.8169,33,0.5082,8863,3.9985,147.7177
rg,1624568692015656081,1,0.6055,-0.2866,0.7874,851,2.3193,-10.0708,14.7705,88,0.6813,0.1441,-37.7031,-31.7908,33,0.5082,7712,3.9985,148.3219
rg,1624568692015673711,1,0.5969,-0.2881,0.7852,852,2.1362,-11.4746,15.0146,88,0.6853,0.1441,-37.7021,-31.806,33,0.5082,10413,3.9985,148.9773
rg,1624568692015690933,1,0.6013,-0.2852,0.7925,853,1.77,-11.7798,15.3809,88,0.6843,0.1441,-37.7055,-31.8355,33,0.5082,7750,3.9985,149.6474
rg,1624568692015707766,1,0.6067,-0.2905,0.7893,854,2.1362,-11.4136,14.8315,88,0.6843,0.1451,-37.7169,-31.8473,33,0.5082,7961,3.9985,150.2948
rg,1624568692015724859,1,0.6086,-0.2876,0.7822,855,3.1128,-11.7188,14.2822,88,0.6843,0.1451,-37.7631,-31.8118,33,0.5082,7788,3.9985,150.9273
rg,1624568692015741729,1,0.6096,-0.2825,0.7812,856,2.9907,-10.9863,13.7939,88,0.6833,0.1451,-37.7999,-31.7468,33,0.5082,8131,3.9974,151.5129
