name,time,activity,ax,ay,az,batch_val,gx,gy,gz,ibat,index,middle,pitch,roll,temp,thumb,ts,vbat,yaw
lg,1625399175871104534,0,0.4622,-0.0942,1.0513,1,-24.4141,63.6597,67.688,73,1.5227,1.5678,15.0162,-14.9408,28,0.097,20602,3.9556,66.3639
lg,1625399175871206348,0,0.5134,-0.9556,0.5674,2,5.7373,18.6157,34.9121,126,1.3977,1.5618,14.7982,-15.89,28,0.094,14616,3.9127,67.1726
lg,1625399175871261958,0,0.3899,-0.8982,0.5657,3,12.0239,46.814,7.6904,126,1.4027,1.5638,15.5076,-16.9425,28,0.096,8521,3.9127,66.5586
lg,1625399175871314606,0,-0.0862,-0.8599,0.5129,4,31.4331,170.105,-27.771,126,1.4097,1.5638,21.3565,-18.3234,28,0.096,8622,3.9127,62.8399
lg,1625399175871365809,0,-0.5127,-0.7856,0.4832,5,46.5698,195.1904,-52.124,126,1.4187,1.5658,28.4723,-19.9804,28,0.097,8329,3.9127,57.3216
lg,1625399175871416401,0,-0.6677,-0.6641,0.5535,6,48.7671,138.4888,-54.0771,126,1.4317,1.5658,33.3231,-21.4726,28,0.097,8660,3.9127,52.1616
lg,1625399175871465993,0,-0.573,-0.6731,0.6646,7,41.9922,49.4385,-41.748,126,1.4467,1.5668,34.5222,-22.2813,28,0.096,9907,3.9127,48.8776
lg,1625399175871517567,0,-0.4204,-0.728,0.5085,8,39.6118,16.9678,-40.4053,126,1.4557,1.5658,33.3195,-23.1189,28,0.096,8425,3.9127,46.4883
lg,1625399175871566159,0,-0.3108,-0.7346,0.4893,9,30.9448,-41.748,-38.147,126,1.4617,1.5648,30.8244,-23.7256,28,0.095,8787,3.9127,44.8594
lg,1625399175871651269,0,-0.0999,-0.7495,0.541,10,18.1885,-34.3628,-12.6343,126,1.4627,1.5638,28.5733,-24.2552,28,0.09,8826,3.9127,44.2987
lg,1625399175871702862,0,-0.0493,-0.814,0.5537,11,8.0566,31.9824,13.6108,126,1.4657,1.5638,29.1225,-25.2996,28,0.091,8790,3.9127,43.606
lg,1625399175871751806,0,-0.3127,-0.8838,0.7339,12,-7.9956,79.834,13.855,126,1.4657,1.5638,31.7558,-27.2189,28,0.091,8539,3.9127,42.0211
lg,1625399175871799453,0,-0.5549,-0.77,0.6091,13,-11.9629,84.5337,31.4941,126,1.4627,1.5638,35.0823,-28.1881,28,0.092,8854,3.9127,42.2002
lg,1625399175871844286,0,-0.6545,-0.7048,0.6248,14,-14.0381,36.1328,55.0537,126,1.4567,1.5648,37.4351,-28.6227,28,0.094,8876,3.9127,43.2863
lg,1625399175871889675,0,-0.7595,-0.6997,0.6467,15,-47.4243,-41.8091,72.876,126,1.4447,1.5618,37.4616,-28.6408,28,0.094,8889,3.9127,47.0926
lg,1625399175871936841,0,-0.6736,-0.8362,0.7581,16,-70.1294,-119.1406,111.3281,126,1.4297,1.5648,35.1817,-27.6763,28,0.095,8924,3.9127,54.2823
lg,1625399175871985729,0,-0.0552,-0.6528,1.0078,17,-47.7295,-165.1001,73.5474,126,1.4237,1.5628,29.4475,-26.2711,28,0.094,8983,3.9127,60.7766
lg,1625399175872036414,0,-0.0188,-0.9863,0.9761,18,-58.6548,-131.2866,32.0435,126,1.4217,1.5618,24.335,-27.6357,28,0.095,8607,3.9127,64.3362
lg,1625399175872084432,0,-0.0522,-0.8862,0.4243,19,-32.4097,-130.8594,21.4844,126,1.4227,1.5628,20.5159,-29.1204,28,0.096,8956,3.9127,66.2338
lg,1625399175872131376,0,0.0823,-0.9067,0.4163,20,-5.249,-71.6553,9.7046,126,1.4227,1.5628,17.4077,-30.1299,28,0.098,8959,3.9127,67.6021
lg,1625399175872178579,0,0.1565,-0.8735,0.5835,21,20.5078,-9.6436,5.3101,126,1.4327,1.5658,16.2564,-30.2247,28,0.099,8636,3.9127,67.6864
lg,1625399175872226172,0,-0.1433,-0.8569,0.698,22,34.1797,85.9985,-17.0288,126,1.4377,1.5668,18.5537,-30.4139,28,0.1,9024,3.9127,65.013
lg,1625399175872273227,0,-0.396,-0.7646,0.6387,23,34.2407,93.811,-46.0205,126,1.4447,1.5668,20.9797,-31.0562,28,0.102,9069,3.9127,61.0488
lg,1625399175872479799,0,-0.4644,-0.634,0.593,24,35.4004,69.2139,-52.1851,142,1.4527,1.5658,21.178,-31.1042,28,0.099,9052,3.8544,58.4434
lg,1625399175872604224,0,-0.4377,-0.6182,0.4705,25,27.771,-12.4512,-42.5415,142,1.4587,1.5648,19.7548,-31.46,28,0.097,9385,3.8544,57.7383
lg,1625399175872660538,0,-0.3574,-0.79,0.6123,26,7.6904,-36.499,-14.0381,142,1.4587,1.5648,18.6163,-32.0438,28,0.098,9147,3.8544,58.3262
lg,1625399175872716723,0,-0.3804,-0.8313,0.6558,27,-16.9067,-33.3252,20.3247,142,1.4587,1.5628,18.0131,-33.0041,28,0.1,8812,3.8544,59.5627
lg,1625399175872771167,0,-0.4534,-0.769,0.7329,28,-24.1699,-24.7803,53.3447,142,1.4547,1.5628,18.5749,-33.6986,28,0.101,9141,3.8544,61.8565
lg,1625399175872818814,0,-0.5237,-0.7195,0.7148,29,-35.5835,-50.5371,58.1665,142,1.4507,1.5668,18.5647,-34.5049,28,0.1,9169,3.8544,64.95
lg,1625399175872866332,0,-0.4617,-0.7776,0.5925,30,-52.7344,-111.6333,61.4014,142,1.4387,1.5668,16.6376,-35.8189,28,0.1,9243,3.8544,69.5404
lg,1625399175872916647,0,-0.0583,-0.8547,0.8687,31,-41.1987,-129.5166,59.5703,142,1.4327,1.5658,13.3395,-36.4734,28,0.101,9243,3.8544,74.5992
lg,1625399175872969794,0,0.2415,-0.9641,0.8276,32,-35.7056,-92.2241,44.3726,142,1.4317,1.5658,10.5631,-37.6241,28,0.1031,9248,3.8544,78.2123
lg,1625399176253376670,0,0.0879,-0.8833,0.636,33,18.6768,62.8052,-24.6582,142,1.4487,1.5688,11.8541,-38.086,28,0.1031,29688,3.8544,74.2571
lg,1625399176253469688,0,-0.1763,-0.8486,0.5652,34,29.9072,128.8452,-85.6323,142,1.4587,1.5698,13.6725,-38.9372,28,0.101,9449,3.8544,68.073
lg,1625399176253524373,0,-0.3333,-0.8904,0.4978,35,35.3394,105.2856,-101.0742,142,1.4627,1.5698,14.5548,-39.8065,28,0.1,8880,3.8544,61.9019
lg,1625399176253577650,0,-0.3821,-0.9094,0.4365,36,44.6777,79.7729,-97.168,142,1.4637,1.5678,13.9266,-39.5571,28,0.095,8608,3.8544,57.9869
lg,1625399176253771556,0,-0.2739,-0.7024,0.2122,37,60.9741,-9.7046,-58.4717,142,1.4647,1.5658,12.4953,-38.6937,28,0.094,9465,3.8544,56.0908
lg,1625399176253825093,0,-0.073,-0.52,0.2478,38,19.3481,1.0376,17.8223,142,1.4637,1.5648,12.8101,-38.7999,28,0.095,8713,3.8544,56.4153
lg,1625399176253875574,0,-0.3235,-0.8843,0.5789,39,-25.2686,61.8286,76.5991,142,1.4617,1.5648,16.8385,-40.2838,28,0.096,8627,3.8544,57.0662
lg,1625399176253924203,0,-0.7463,-0.8081,0.5593,40,-20.1416,79.3457,118.4082,142,1.4547,1.5658,23.1098,-41.0218,28,0.097,8691,3.8544,58.5273
lg,1625399176253972073,0,-0.894,-0.71,0.6074,41,-27.2217,35.7056,135.8032,142,1.4447,1.5668,26.8671,-40.1869,28,0.099,8444,3.8544,64.4519
lg,1625399176254021017,0,-0.6504,-0.6313,1.0403,42,-69.2139,-149.5972,163.3301,142,1.4257,1.5658,26.4328,-38.1487,28,0.099,9994,3.8544,74.5019
lg,1625399176254068850,0,-0.1357,-0.5288,1.4539,43,-50.9644,-189.6362,134.4604,142,1.4147,1.5648,22.6075,-36.1932,28,0.097,8459,3.8544,84.1936
lg,1625399176254118109,0,0.1211,-1.1223,1.2153,44,-92.1631,-227.7832,52.9785,142,1.4127,1.5568,15.6218,-37.6448,28,0.094,8807,3.8544,91.6772
lg,1625399176254166516,0,0.3125,-1.0715,0.407,45,-49.3164,-188.0493,33.6914,142,1.4107,1.5638,9.53,-39.488,28,0.095,8898,3.8544,97.2577
lg,1625399176254214700,0,0.5249,-0.9363,0.499,46,-2.1973,-66.7725,9.3994,142,1.4137,1.5638,6.4223,-40.0677,28,0.095,8623,3.8544,99.1525
lg,1625399176254263052,0,0.1711,-0.8464,0.4863,47,12.8174,4.5166,-5.3101,142,1.4147,1.5648,7.8944,-40.3754,28,0.098,8464,3.8544,95.9968
lg,1625399176254313514,0,-0.1592,-0.8208,0.4524,48,23.9258,162.1704,-34.8511,142,1.4167,1.5658,11.9567,-41.1433,28,0.1,8850,3.8544,90.5124
lg,1625399176254359921,0,-0.6604,-0.8008,0.4915,49,34.1187,187.5,-35.0342,142,1.4227,1.5658,17.5137,-41.9345,28,0.102,8539,3.8544,84.1641
lg,1625399176254405865,0,-0.7397,-0.6846,0.5542,50,41.687,97.229,-23.3154,142,1.4287,1.5678,20.6437,-41.6863,28,0.1031,8542,3.8544,80.5991
lg,1625399176254452884,0,-0.5559,-0.6567,0.5928,51,21.9116,0.2441,-4.3335,142,1.4367,1.5678,20.9884,-41.0767,28,0.1031,8955,3.8544,80.3809
lg,1625399176254499902,0,-0.3857,-0.7253,0.6326,52,14.2212,-32.3486,1.2817,142,1.4467,1.5678,18.914,-40.3596,28,0.1041,8867,3.8544,81.7364
lg,1625399176254548716,0,-0.1006,-0.8337,0.6848,53,15.2588,-70.3125,-8.4839,142,1.4567,1.5648,16.0292,-39.6756,28,0.1031,8950,3.8544,83.2266
lg,1625399176254596845,0,0.0732,-0.8779,0.585,54,17.5171,-54.9316,-14.4043,142,1.4617,1.5688,13.2244,-39.3899,28,0.102,8995,3.8544,84.0296
lg,1625399176254643419,0,0.1162,-0.9158,0.6121,55,26.2451,12.3291,-16.7236,142,1.4637,1.5678,12.4517,-39.1954,28,0.1,9066,3.8544,83.0226
lg,1625399176254692807,0,0.0654,-0.8528,0.5483,56,31.311,82.5195,-10.1929,142,1.4677,1.5678,14.1283,-39.2269,28,0.099,9051,3.8544,80.3929
lg,1625399176254989768,0,-0.1553,-0.8052,0.3721,57,27.0386,122.0093,-6.897,142,1.4687,1.5668,17.5711,-40.1029,28,0.098,9070,3.8544,76.6795
lg,1625399176255047286,0,-0.4695,-0.7861,0.5493,58,12.5122,123.0469,7.5073,142,1.4677,1.5668,22.4103,-41.4834,28,0.098,9126,3.8544,74.3813
lg,1625399176255106322,0,-0.614,-0.7876,0.4727,59,-8.5449,101.7456,61.2793,142,1.4597,1.5648,27.519,-42.8714,28,0.101,8770,3.8544,73.1153
lg,1625399176255166229,0,-0.8979,-0.6489,0.417,60,-26.8555,37.7808,95.459,142,1.4447,1.5678,31.982,-43.045,28,0.102,10508,3.8544,75.0846
lg,1625399176255218562,0,-0.9897,-0.7034,0.7568,61,-56.3965,-36.3159,147.4609,142,1.4177,1.5688,35.3403,-41.7124,28,0.101,9215,3.8544,81.5046
lg,1625399176255276432,0,-0.2405,-0.4409,1.2456,62,-36.8042,-141.7847,100.9521,142,1.4037,1.5638,32.6927,-37.6222,28,0.099,9204,3.8544,90.1913
lg,1625399176255495541,0,-0.1514,-1.0884,1.165,63,-86.9751,-201.355,24.9634,142,1.4047,1.5628,25.957,-38.1038,28,0.097,8941,3.8544,96.644
lg,1625399176255569392,0,0.1121,-1.0439,0.3159,64,-50.1099,-207.1533,26.123,142,1.4067,1.5638,19.145,-39.0097,28,0.098,8803,3.8544,102.511
lg,1625399176640274403,0,-0.0295,-0.8884,0.5305,65,24.4141,176.7578,-35.7666,142,1.4177,1.5658,23.6766,-40.9966,28,0.1051,27609,3.8544,96.1985
lg,1625399176640477642,0,-0.6653,-0.7192,0.5183,66,45.6543,180.603,-41.4429,142,1.4267,1.5668,28.4538,-42.5962,28,0.1051,10847,3.8544,89.2676
lg,1625399176640548511,0,-0.7612,-0.6797,0.543,67,31.7993,87.9517,-36.9263,142,1.4377,1.5678,30.4973,-43.5874,28,0.1031,10244,3.8544,85.1178
lg,1625399176640602863,0,-0.7041,-0.698,0.6011,68,24.6582,36.438,-24.9634,142,1.4487,1.5678,30.7641,-43.7655,28,0.1041,8691,3.8544,83.0358
lg,1625399176640652973,0,-0.3823,-0.7261,0.5632,69,23.1934,-70.1294,-14.9536,142,1.4557,1.5678,28.0052,-42.3497,28,0.1031,8710,3.8544,84.56
lg,1625399176640701843,0,-0.0564,-0.7881,0.4666,70,12.0239,-110.6567,-15.1978,142,1.4597,1.5638,23.4293,-41.3938,28,0.1031,9735,3.8544,86.9926
lg,1625399176640749769,0,0.1558,-0.856,0.4851,71,8.1177,-51.3306,-0.4272,142,1.4637,1.5678,20.7155,-41.3061,28,0.1,8362,3.8544,88.1306
lg,1625399176640797880,0,-0.0481,-0.9014,0.5237,72,-7.019,46.1426,17.5781,142,1.4637,1.5668,21.8787,-42.6257,28,0.101,8644,3.8544,87.0961
lg,1625399176640844694,0,-0.4434,-0.8164,0.6011,73,-10.9253,87.0972,32.1655,142,1.4597,1.5668,26.3701,-44.0707,28,0.102,8762,3.8544,85.234
lg,1625399176640891971,0,-0.5994,-0.7842,0.6199,74,-9.4604,97.7783,63.8428,142,1.4527,1.5698,31.1026,-45.243,28,0.1051,8418,3.8544,84.0282
lg,1625399176640938582,0,-0.7812,-0.7114,0.6062,75,-34.9121,21.3623,85.144,142,1.4417,1.5678,34.4592,-45.6306,28,0.1051,8799,3.8544,86.0623
lg,1625399176640984785,0,-0.3958,-0.6831,1.2036,76,-47.3022,-63.9648,104.4922,142,1.4317,1.5678,34.8919,-43.4684,28,0.1041,11049,3.8544,92.2788
lg,1625399176641030007,0,-0.2266,-0.8889,0.9829,77,-45.4102,-132.1411,46.3257,142,1.4327,1.5678,31.3204,-41.981,28,0.1061,8931,3.8544,98.2221
lg,1625399176641074488,0,-0.0933,-0.8391,0.4475,78,-37.2925,-152.832,-0.3662,142,1.4337,1.5668,25.8843,-42.1062,28,0.1071,8578,3.8544,102.4286
lg,1625399176641118488,0,-0.1851,-0.8882,0.3779,79,-18.2495,-74.4629,-22.9492,142,1.4347,1.5678,22.5798,-43.2427,28,0.1081,8831,3.8544,103.4675
lg,1625399176641162895,0,0.0989,-0.9314,0.6709,80,7.6904,-50.9644,-4.3335,142,1.4427,1.5688,19.9457,-42.8973,28,0.1091,12439,3.8544,104.6491
lg,1625399176641209284,0,-0.0039,-0.8562,0.6233,81,19.2871,44.3115,-26.4282,142,1.4497,1.5698,19.7534,-43.2965,28,0.1101,8972,3.8544,102.3842
lg,1625399176641254024,0,-0.2261,-0.8433,0.4683,82,25.2075,68.1152,-42.7246,142,1.4557,1.5698,20.3005,-44.1311,28,0.1081,8960,3.8544,98.8246
lg,1625399176641298357,0,-0.2034,-0.761,0.5073,83,40.8936,36.3159,-44.4336,142,1.4597,1.5698,18.9972,-43.1953,28,0.1091,8977,3.8544,97.1949
lg,1625399176641341357,0,-0.1809,-0.7,0.4543,84,37.2925,5.9814,-26.3062,142,1.4607,1.5688,18.2062,-42.5711,28,0.1081,9005,3.8544,96.0287
lg,1625399176641384467,0,-0.4709,-0.8137,0.5293,85,-20.813,47.1802,41.1377,142,1.4577,1.5698,21.0144,-43.9655,28,0.1101,11540,3.8544,95.7509
lg,1625399176641585725,0,-0.6006,-0.8625,0.678,86,-22.0947,48.7671,67.0166,142,1.4497,1.5688,24.5748,-44.9012,28,0.1111,8665,3.8544,96.2319
lg,1625399176641667224,0,-0.4963,-0.6187,1.0979,87,-14.1602,1.1597,77.2095,142,1.4447,1.5698,26.6659,-43.7831,28,0.1101,9025,3.8544,98.9067
lg,1625399176641718372,0,-0.5444,-0.6921,0.7537,88,-42.2363,-85.5103,35.0342,142,1.4337,1.5688,25.228,-43.7623,27,0.1101,8820,3.8544,102.6962
lg,1625399176641765686,0,-0.1274,-0.9343,0.6973,89,-53.4668,-168.2129,46.7529,142,1.4327,1.5668,20.9618,-43.7281,27,0.1081,9090,3.8544,109.0544
lg,1625399176641831315,0,0.1045,-1.0266,0.5461,90,-26.9165,-90.332,33.02,142,1.4327,1.5678,18.3324,-44.3046,27,0.1091,9141,3.8544,112.4679
lg,1625399176641884315,0,0.2019,-0.9751,0.5503,91,-10.3149,-44.5557,29.0527,142,1.4327,1.5668,17.9855,-44.5274,27,0.1101,8848,3.8544,113.0725
lg,1625399176641934092,0,0.136,-0.9211,0.6626,92,4.1504,37.3535,19.7754,142,1.4357,1.5658,18.6495,-44.9151,28,0.1141,9150,3.8544,112.4319
lg,1625399176641980221,0,-0.051,-0.8486,0.541,93,10.5591,72.3877,-9.0942,142,1.4407,1.5638,19.8087,-45.8128,28,0.1141,9179,3.8544,109.8125
lg,1625399176642028425,0,-0.2019,-0.8472,0.5698,94,11.9019,90.5151,-34.2407,142,1.4507,1.5648,20.9614,-47.0764,28,0.1101,10327,3.8544,105.8644
lg,1625399176642074313,0,-0.29,-0.8611,0.5444,95,8.9722,81.9092,-54.0771,142,1.4537,1.5708,21.3489,-48.6417,28,0.1071,9232,3.8544,101.5519
lg,1625399176642117591,0,-0.2957,-0.9028,0.4583,96,31.9214,51.1475,-68.2983,142,1.4537,1.5698,20.4453,-49.2148,28,0.1051,8909,3.8544,97.7724
lg,1625399177026240244,0,0.0254,-0.4236,0.3054,97,37.5366,23.8037,16.6626,142,1.4527,1.5668,21.0422,-48.145,28,0.1031,28090,3.8544,97.3551
lg,1625399177026331836,0,-0.5293,-0.99,0.7563,98,-21.3013,96.4355,76.1108,142,1.4527,1.5668,25.9226,-49.5525,28,0.1051,11198,3.8544,96.2976
lg,1625399177026385058,0,-0.7864,-0.7039,0.5708,99,-7.3242,32.4097,89.4775,142,1.4517,1.5678,30.0518,-49.1611,28,0.1051,8595,3.8544,97.8003
lg,1625399177026436279,0,-0.9368,-0.6079,0.6133,100,-44.0063,-74.0967,94.6655,142,1.4437,1.5678,31.6059,-47.9338,28,0.1071,10509,3.8544,103.3921
lg,1625399177026489742,0,-0.4338,-0.6938,1.2629,101,-55.6641,-152.771,128.7231,142,1.4307,1.5678,30.5874,-44.5022,28,0.1071,9553,3.8544,113.1301
lg,1625399177026541723,0,-0.2014,-0.7551,1.0632,102,-37.2925,-195.6787,93.5669,142,1.4267,1.5678,24.9658,-42.3931,28,0.1061,8719,3.8544,121.9971
lg,1625399177026592371,0,0.2229,-0.949,0.739,103,-62.2559,-221.1304,47.7905,142,1.4267,1.5678,18.455,-42.3347,28,0.1081,8351,3.8544,129.7538
lg,1625399177026642352,0,0.3101,-1.042,0.5374,104,-37.6587,-97.1069,11.9019,142,1.4287,1.5688,14.7471,-43.7192,28,0.1101,8740,3.8544,132.648
lg,1625399177026691722,0,0.2659,-1.0046,0.541,105,3.6621,16.7236,-2.5635,142,1.4337,1.5698,14.1167,-44.4063,28,0.1121,10064,3.8544,131.916
lg,1625399177026738462,0,-0.0513,-0.876,0.5144,106,25.3296,122.3755,-28.9307,142,1.4387,1.5698,16.3286,-45.1625,28,0.1111,8432,3.8544,127.3396
lg,1625399177026786221,0,-0.4871,-0.8286,0.4861,107,27.1606,155.6396,-45.8374,142,1.4457,1.5688,19.4418,-46.4799,28,0.1101,8745,3.8544,120.9647
lg,1625399177026847758,0,-0.6128,-0.7937,0.4163,108,35.2783,117.981,-57.7393,142,1.4547,1.5668,21.5552,-47.4917,28,0.1101,8768,3.8544,115.4123
lg,1625399177026899850,0,-0.5752,-0.7402,0.4587,109,49.3774,-7.6904,-44.3726,142,1.4567,1.5708,20.5289,-46.2672,28,0.1111,8460,3.8544,114.2277
lg,1625399177026949072,0,-0.239,-0.5789,0.5115,110,33.3252,-66.4062,-5.6763,142,1.4607,1.5698,18.377,-44.4059,28,0.1121,10441,3.8544,116.0371
lg,1625399177026997960,0,-0.1069,-0.8376,0.5054,111,-11.0474,-66.8945,2.0752,142,1.4607,1.5688,16.0834,-44.8246,28,0.1131,8714,3.8544,117.8877
lg,1625399177027048737,0,-0.1709,-0.9929,0.7041,112,-20.6909,-10.498,32.4707,142,1.4607,1.5688,16.3964,-45.6849,28,0.1131,8855,3.8544,119.0425
lg,1625399177027098163,0,-0.3401,-0.7593,0.6636,113,-7.8125,15.8691,37.0483,142,1.4587,1.5698,18.0812,-45.8097,28,0.1141,9108,3.8544,119.6641
lg,1625399177027146663,0,-0.4119,-0.7002,0.634,114,-14.7095,-1.5259,40.8936,142,1.4547,1.5688,19.4255,-46.0614,28,0.1161,8902,3.8544,120.8883
lg,1625399177027196070,0,-0.3787,-0.8018,0.6121,115,-39.0015,-47.9736,64.3921,142,1.4497,1.5698,20.0183,-46.7286,28,0.1151,8936,3.8544,124.1671
lg,1625399177027246810,0,-0.082,-0.8928,0.7742,116,-38.3911,-70.7397,87.8906,142,1.4437,1.5698,20.0165,-46.7167,28,0.1131,8970,3.8544,128.8909
lg,1625399177027294087,0,0.1016,-0.9934,0.8379,117,-13.1226,-36.1328,60.1196,142,1.4457,1.5688,19.8299,-46.3814,28,0.1131,9039,3.8544,131.718
lg,1625399177027339105,0,0.0981,-0.8838,0.6375,118,6.5308,19.4092,31.311,142,1.4477,1.5688,20.3115,-46.3277,28,0.1151,9002,3.8544,131.9252
lg,1625399177027385087,0,0.0168,-0.9072,0.7544,119,9.8877,43.7622,13.1836,142,1.4537,1.5708,20.7985,-46.458,28,0.1171,9081,3.8544,130.2332
lg,1625399177027431271,0,0.0264,-0.8806,0.7271,120,19.104,53.3447,-20.5688,142,1.4607,1.5688,20.8021,-46.6582,28,0.1171,8924,3.8544,127.9105
lg,1625399177027477808,0,-0.0574,-0.8901,0.6013,121,29.6021,74.0967,-78.7354,142,1.4627,1.5718,19.8184,-47.4546,28,0.1141,8736,3.8544,123.178
lg,1625399177027530659,0,-0.2375,-0.9172,0.1707,122,33.4473,59.082,-102.6001,142,1.4667,1.5698,18.2144,-48.8952,28,0.1121,8852,3.8544,118.0093
lg,1625399177027655344,0,-0.2551,-0.772,0.3364,123,56.8848,5.7373,-75.4395,142,1.4657,1.5678,16.0864,-47.9723,28,0.1101,9706,3.8544,115.5275
lg,1625399177027954786,0,-0.323,-0.4568,0.3225,124,10.2539,40.4053,4.5776,142,1.4657,1.5678,17.8413,-48.1251,28,0.1091,9155,3.8544,114.331
lg,1625399177028223672,0,-0.6492,-0.9204,0.7786,125,-16.1133,63.7817,46.4478,142,1.4637,1.5678,22.3658,-49.3631,28,0.1101,9178,3.8544,113.7375
lg,1625399177028285727,0,-0.8452,-0.9451,0.8342,126,-18.3105,68.4204,80.4443,142,1.4567,1.5688,27.3105,-50.1027,28,0.1091,9168,3.8544,113.71
lg,1625399177028339634,0,-0.9685,-0.6611,0.7019,127,-22.644,-50.9644,75.7446,142,1.4467,1.5688,28.9886,-48.8878,28,0.1111,9217,3.8544,117.8142
lg,1625399177028410875,0,-0.3469,-0.5295,1.042,128,-40.7104,-190.6128,78.125,142,1.4367,1.5668,23.4798,-46.6903,28,0.1101,9593,3.8544,127.5382
lg,1625399177408677996,0,0.3003,-1.1587,0.449,129,-29.0527,-35.5835,25.9399,142,1.4317,1.5668,23.6414,-47.2087,28,0.1111,28180,3.8544,127.3733
lg,1625399177408772847,0,0.0269,-0.7915,0.4636,130,32.6538,100.5249,7.5073,142,1.4347,1.5668,25.6062,-47.6982,28,0.1131,14720,3.9325,124.1174
lg,1625399177408827624,0,-0.3184,-0.7266,0.4998,131,27.8931,138.1226,-15.3198,84,1.4387,1.5678,28.5576,-49.2227,28,0.1141,8673,3.9325,118.8728
lg,1625399177408880254,0,-0.5261,-0.7915,0.4985,132,18.6157,98.8159,-17.0898,84,1.4447,1.5688,30.5888,-50.7785,28,0.1151,8633,3.9325,114.7188
lg,1625399177408929253,0,-0.532,-0.8655,0.5054,133,11.1694,18.7378,-18.3105,84,1.4507,1.5698,30.3882,-51.2972,28,0.1131,8370,3.9325,113.3285
lg,1625399177408975920,0,-0.2224,-0.8369,0.5269,134,16.9678,-25.9399,-6.958,84,1.4567,1.5698,28.0288,-49.1813,28,0.1131,9723,3.9325,115.7385
lg,1625399177409020623,0,-0.0305,-0.8054,0.5225,135,39.978,-96.6187,7.9346,84,1.4587,1.5688,24.6933,-46.4056,28,0.1131,8758,3.9325,118.992
lg,1625399177409067808,0,0.2036,-0.7332,0.5344,136,31.4331,-52.063,4.6997,84,1.4577,1.5678,22.0084,-44.7661,28,0.1131,8378,3.9325,120.6067
lg,1625399177409114363,0,0.1013,-0.7981,0.5515,137,17.8223,32.4097,5.7373,84,1.4577,1.5678,22.0307,-44.7963,28,0.1091,8761,3.9325,119.6268
lg,1625399177409160233,0,-0.1467,-0.9053,0.6577,138,13.5498,99.3042,15.625,84,1.4557,1.5658,24.6863,-45.6645,28,0.1101,8760,3.9325,116.884
lg,1625399177409206399,0,-0.3018,-0.905,0.7524,139,2.2583,110.8398,21.4844,84,1.4547,1.5668,28.0963,-47.1001,28,0.1121,8782,3.9325,114.642
lg,1625399177409251399,0,-0.5098,-0.7886,0.699,140,-12.5732,74.8291,43.5791,84,1.4537,1.5678,31.2853,-48.237,28,0.1121,8800,3.9325,113.4152
lg,1625399177409295473,0,-0.6804,-0.6931,0.4153,141,-35.0342,-0.5493,62.1948,84,1.4507,1.5678,33.4875,-48.954,28,0.1141,8524,3.9325,115.1806
lg,1625399177409340676,0,-0.6108,-0.7209,0.7021,142,-61.5845,-88.6841,94.7876,84,1.4367,1.5678,33.8845,-47.8128,28,0.1101,8865,3.9325,121.4758
lg,1625399177409385805,0,-0.115,-0.6567,0.5413,143,-18.7988,-130.8594,50.9033,84,1.4227,1.5638,30.7873,-45.389,28,0.1051,12746,3.9325,127.5524
lg,1625399177409431675,0,-0.2361,-0.9629,0.6616,144,-41.626,-80.0171,1.0986,84,1.4217,1.5638,28.0584,-46.6054,28,0.101,9285,3.9325,129.7925
lg,1625399177409476508,0,-0.1543,-0.9836,0.3804,145,-2.3804,-39.1846,6.5918,84,1.4227,1.5648,26.4891,-46.9643,28,0.101,8929,3.9325,130.8363
lg,1625399177409520841,0,0.3662,-0.9709,0.719,146,14.7705,-32.959,24.1699,84,1.4247,1.5658,24.7327,-45.868,28,0.102,9005,3.9325,132.4978
lg,1625399177409564989,0,0.343,-0.884,0.4348,147,24.7192,77.3926,-6.897,84,1.4297,1.5668,25.1203,-46.7282,28,0.1081,8721,3.9325,129.5181
lg,1625399177409610322,0,-0.075,-0.8848,0.5562,148,37.8418,171.1426,-45.9595,84,1.4357,1.5678,27.5247,-48.8126,28,0.1101,10344,3.9325,122.2879
lg,1625399177409653785,0,-0.4041,-0.8538,0.5205,149,35.9497,190.979,-59.021,84,1.4417,1.5698,30.3357,-51.8682,28,0.1081,9034,3.9325,113.6621
lg,1625399177409703155,0,-0.519,-0.8401,0.4832,150,33.1421,165.4053,-60.3027,84,1.4477,1.5698,31.7376,-53.9668,28,0.1091,8688,3.9325,107.2363
lg,1625399177409750821,0,-0.5217,-0.8376,0.5991,151,39.917,93.1396,-37.7197,84,1.4537,1.5678,32.4629,-54.8348,28,0.1101,8747,3.9325,102.6148
lg,1625399177409818654,0,-0.374,-0.6672,0.4858,152,62.0728,18.9819,-22.0947,84,1.4567,1.5688,31.8669,-53.0232,28,0.1091,9125,3.9325,101.2967
lg,1625399177409871764,0,-0.3374,-0.5867,0.4263,153,33.8745,20.752,-8.8501,84,1.4597,1.5668,31.8059,-52.2439,28,0.1081,9160,3.9325,100.2481
lg,1625399177409920894,0,-0.3804,-0.7583,0.5784,154,-8.667,30.3955,29.2358,84,1.4577,1.5678,33.0617,-52.7538,28,0.1091,9156,3.9325,99.9413
lg,1625399177409970245,0,-0.5144,-0.8523,0.6245,155,-24.353,38.3301,56.2134,84,1.4577,1.5678,35.4793,-53.6719,28,0.1101,8856,3.9325,100.0606
lg,1625399177410017096,0,-0.635,-0.7373,0.5688,156,-21.9727,25.2686,61.6455,84,1.4547,1.5678,37.5097,-53.6294,28,0.1111,8861,3.9325,102.0021
lg,1625399177410063374,0,-0.6626,-0.7454,0.5803,157,-40.7715,-31.3721,71.6553,84,1.4527,1.5688,38.9098,-52.999,28,0.1111,8877,3.9325,105.5284
lg,1625399177410108003,0,-0.5808,-0.8101,0.6379,158,-51.2695,-90.6982,102.1118,84,1.4447,1.5628,39.5044,-50.5803,28,0.1111,8895,3.9325,112.5081
lg,1625399177410155021,0,-0.2839,-0.9697,1.0171,159,-44.6777,-125.6714,105.1025,84,1.4437,1.5688,38.2918,-46.73,28,0.1131,9312,3.9325,121.1207
lg,1625399177410206225,0,-0.0498,-0.8616,0.6006,160,-22.3389,-142.5781,50.6592,84,1.4427,1.5698,34.4481,-43.9968,28,0.1121,9364,3.9325,127.6527
lg,1625399177785907475,0,0.0251,-0.9539,0.468,161,4.9438,-40.7104,-44.1284,84,1.4597,1.5708,30.801,-44.7805,28,0.1101,28726,3.9325,127.0062
lg,1625399177786012900,0,-0.0308,-0.6912,0.4165,162,33.5083,-29.48,-25.8179,84,1.4607,1.5708,28.1887,-44.0249,28,0.1091,14833,3.9325,126.7783
lg,1625399177786068289,0,-0.4021,-0.7207,0.5776,163,-1.8311,44.3115,13.5498,84,1.4537,1.5708,29.6399,-44.8585,28,0.1111,10781,3.9325,125.6603
lg,1625399177786241287,0,-0.7759,-0.8044,0.7214,164,-10.8643,47.8516,50.9033,84,1.4437,1.5708,32.6523,-45.3531,28,0.1121,8625,3.9325,125.6904
lg,1625399177786366323,0,-0.7913,-0.54,0.6829,165,1.1597,-22.1558,19.8975,84,1.4327,1.5688,32.9652,-44.2791,28,0.1121,8651,3.9325,127.2523
lg,1625399177786419601,0,-0.6382,-0.5994,0.8105,166,-30.5176,-93.5669,17.8223,84,1.4237,1.5668,28.5342,-43.0504,28,0.1091,8671,3.9325,133.0101
lg,1625399177786472341,0,-0.189,-0.8716,0.5542,167,-50.415,-164.3066,28.6255,84,1.4197,1.5658,23.8664,-43.0519,28,0.1071,8666,3.9325,138.6534
lg,1625399177786521007,0,0.3604,-1.106,0.6104,168,-27.832,-92.1631,66.2231,84,1.4167,1.5648,21.5819,-43.0195,28,0.1051,9378,3.9325,143.1831
lg,1625399177786571433,0,0.4551,-1.0298,0.613,169,6.4087,46.2646,44.4946,84,1.4207,1.5658,22.6381,-43.3815,28,0.1061,8757,3.9325,142.977
lg,1625399177786621229,0,0.1069,-0.9561,0.5354,170,24.231,139.6484,22.3389,84,1.4227,1.5668,26.2078,-44.614,28,0.1081,8735,3.9325,139.1349
lg,1625399177786674062,0,-0.2209,-0.8506,0.458,171,28.5034,141.5405,6.4087,84,1.4277,1.5678,29.3252,-46.4391,28,0.1111,8936,3.9325,134.196
lg,1625399177786724024,0,-0.3391,-0.8596,0.5046,172,23.2544,129.3335,-13.1226,84,1.4347,1.5648,32.0089,-48.5408,28,0.1141,8383,3.9325,129.0701
lg,1625399177786774579,0,-0.4167,-0.8833,0.5408,173,16.5405,91.5527,-23.5596,84,1.4407,1.5698,33.2606,-50.4785,28,0.1141,8826,3.9325,124.8081
lg,1625399177786822727,0,-0.2842,-0.8452,0.6182,174,27.4048,39.4897,-22.8882,84,1.4507,1.5698,32.8394,-50.6985,28,0.1131,8847,3.9325,122.5783
lg,1625399177786883171,0,-0.1111,-0.76,0.4861,175,36.0107,0.8545,-29.2969,84,1.4537,1.5688,30.9742,-50.0459,28,0.1111,8868,3.9325,121.498
lg,1625399177786933430,0,-0.0955,-0.7998,0.4048,176,32.7759,-2.0142,-36.377,84,1.4537,1.5668,29.2373,-50.097,28,0.1071,8857,3.9325,119.8772
lg,1625399177787009670,0,-0.1404,-0.7942,0.4624,177,27.5879,37.0483,-19.8364,84,1.4527,1.5618,28.7814,-50.3309,28,0.1041,8540,3.9325,117.7849
lg,1625399177787067910,0,-0.3215,-0.7319,0.4731,178,16.9678,92.5903,14.4653,84,1.4527,1.5648,31.2104,-51.3802,28,0.1051,8908,3.9325,114.7462
lg,1625399177787110965,0,-0.6606,-0.863,0.7429,179,-13.1836,84.5337,37.5977,84,1.4507,1.5628,34.4017,-52.9348,28,0.1061,10115,3.9325,112.7056
lg,1625399177787156261,0,-0.8264,-0.7112,0.5479,180,-18.2495,-1.3428,53.5889,84,1.4467,1.5628,36.3891,-52.6744,28,0.1071,9205,3.9325,114.3644
lg,1625399177787200613,0,-0.8027,-0.6121,0.4963,181,-46.7529,-108.0933,59.2651,84,1.4437,1.5668,35.9487,-50.8961,28,0.1071,8611,3.9325,120.4514
lg,1625399177787246335,0,-0.6677,-0.8298,0.6116,182,-70.8008,-171.875,109.4971,84,1.4327,1.5668,34.7214,-48.0868,28,0.1071,8657,3.9325,130.2907
lg,1625399177787788775,0,0.0933,-0.8635,1.2534,183,-69.519,-193.5425,128.0518,84,1.4247,1.5668,31.0662,-43.8389,28,0.1101,8695,3.9325,141.2411
lg,1625399177787870219,0,0.2793,-0.8618,0.6819,184,-26.4282,-193.7866,67.0166,84,1.4217,1.5658,25.6021,-41.3421,28,0.1111,8783,3.9325,149.2283
lg,1625399177788406881,0,0.2566,-1.0007,0.5664,185,-36.2549,-93.9331,19.2871,84,1.4217,1.5628,21.9719,-42.2062,28,0.1111,9110,3.9325,152.2643
lg,1625399177788469584,0,0.1187,-1.0088,0.3564,186,-5.4321,6.0425,3.6011,84,1.4187,1.5668,21.2612,-43.5869,28,0.1131,9229,3.9325,151.779
lg,1625399177788519806,0,0.0527,-0.95,0.5491,187,25.4517,56.6406,0.7935,84,1.4257,1.5678,22.0142,-43.8629,28,0.1151,8798,3.9325,149.8659
lg,1625399177788567509,0,-0.324,-0.7451,0.3811,188,41.8091,115.7837,-14.5264,84,1.4267,1.5678,24.9108,-44.5221,28,0.1161,8749,3.9325,145.6037
lg,1625399177788614768,0,-0.5408,-0.5327,0.4851,189,45.8984,94.6655,-13.3057,84,1.4267,1.5678,26.889,-43.822,28,0.1161,9227,3.9325,143.3889
lg,1625399177788661712,0,-0.5566,-0.5193,0.6614,190,28.6255,36.7432,1.4038,84,1.4247,1.5658,28.2467,-42.9622,28,0.1161,8836,3.9325,142.3964
lg,1625399177788710823,0,-0.5813,-0.7041,0.8013,191,-11.6577,-22.522,18.5547,84,1.4197,1.5668,28.1017,-42.7294,28,0.1161,9190,3.9325,143.7473
lg,1625399177788756804,0,-0.6499,-0.8601,0.7192,192,-23.7427,-40.7715,26.8555,84,1.4137,1.5658,27.7224,-42.9437,28,0.1151,9234,3.9325,145.7668
lg,1625399178176346469,0,-0.0286,-0.8755,0.6301,193,-23.8647,-93.2617,39.3677,84,1.4077,1.5608,24.7086,-42.5507,28,0.1101,27703,3.9325,149.6547
lg,1625399178176428301,0,0.3665,-1.0764,0.7161,194,-10.5591,4.2114,18.7988,84,1.4117,1.5638,23.8895,-43.3348,28,0.1141,11181,3.9325,149.9017
lg,1625399178176955520,0,0.1479,-0.9524,0.4531,195,11.9019,84.1675,-21.6064,84,1.4177,1.5658,24.5385,-45.073,28,0.1151,9459,3.9325,146.298
lg,1625399178177348739,0,-0.0227,-0.9236,0.4873,196,16.7847,117.4927,-46.6309,84,1.4257,1.5668,25.9927,-47.7827,28,0.1151,8298,3.9325,139.5511
lg,1625399178177444794,0,-0.281,-0.9246,0.511,197,20.752,145.9961,-76.2939,84,1.4347,1.5678,27.0461,-50.7098,28,0.1131,8664,3.9325,132.1445
lg,1625399178177689588,0,-0.2922,-0.9331,0.5847,198,22.522,114.9902,-92.5903,84,1.4387,1.5688,26.4727,-53.0859,28,0.1081,8889,3.9325,125.406
lg,1625399178177755458,0,-0.2432,-1.0996,0.4609,199,24.5972,80.5054,-125.9155,84,1.4397,1.5678,23.6989,-55.2955,28,0.1031,9255,3.9325,119.0245
lg,1625399178177815476,0,-0.1482,-1.0903,-0.0098,200,60.1807,32.5928,-105.5298,84,1.4417,1.5668,20.4936,-55.6948,28,0.099,8423,3.9325,114.7314
lg,1625399178177867846,0,-0.0955,-0.8555,-0.1045,201,86.731,2.0142,-80.2612,84,1.4447,1.5638,18.4134,-52.9782,28,0.096,8790,3.9325,113.3907
lg,1625399178177923827,0,0.1436,-0.1802,0.3687,202,59.3262,73.6694,18.2495,84,1.4477,1.5628,19.4779,-50.2236,28,0.096,8505,3.9325,111.7144
lg,1625399178177990845,0,-0.1917,-0.8035,0.4348,203,-8.2397,170.5322,40.3442,84,1.4507,1.5628,24.6558,-52.7699,28,0.099,8766,3.9325,106.8777
lg,1625399178178044678,0,-0.7397,-1.0549,0.6721,204,-9.3384,141.6626,55.2979,84,1.4517,1.5628,29.9775,-55.0068,28,0.099,8831,3.9325,103.1012
lg,1625399178178092918,0,-0.9507,-0.6809,0.4441,205,-2.3193,30.2734,75.5615,84,1.4487,1.5648,33.8822,-54.6724,28,0.098,8911,3.9325,103.9563
lg,1625399178178156603,0,-1.0754,-0.5576,0.5237,206,-17.8833,-24.4141,81.4819,84,1.4377,1.5638,36.7253,-53.193,28,0.098,8896,3.9325,107.4315
lg,1625399178178203269,0,-0.9343,-0.7095,0.782,207,-71.3501,-211.792,156.311,84,1.4187,1.5648,36.3971,-47.806,28,0.102,10110,3.9325,120.7801
lg,1625399178178249732,0,0.033,-0.5559,0.6003,208,-31.8604,-326.2329,92.5293,84,1.4097,1.5638,28.3462,-41.4,28,0.1,8963,3.9325,134.7607
lg,1625399178178304065,0,0.2754,-1.0916,0.8008,209,-84.4116,-245.8496,45.8374,84,1.4097,1.5638,20.808,-41.6584,28,0.1,8956,3.9325,143.1799
lg,1625399178178354453,0,0.2622,-1.0911,0.4016,210,-53.7109,-190.6738,27.771,84,1.4107,1.5648,16.7637,-42.6626,27,0.101,8991,3.9325,146.6721
lg,1625399178178628692,0,0.4023,-1.1343,0.5308,211,-5.9204,-45.4712,19.4092,84,1.4117,1.5658,14.6798,-43.1733,27,0.102,9597,3.9325,148.3263
lg,1625399178178689766,0,0.2061,-0.8623,0.4666,212,27.5269,70.1904,1.709,84,1.4127,1.5588,15.7721,-43.3031,27,0.1061,8844,3.9325,146.1949
lg,1625399178178741765,0,-0.3369,-0.7397,0.4971,213,32.5317,172.3633,-17.7612,84,1.4157,1.5668,20.5528,-44.0993,28,0.1071,11642,3.9325,140.8005
lg,1625399178178786728,0,-0.6204,-0.6909,0.5129,214,28.1372,127.5024,-11.4746,84,1.4187,1.5678,24.4432,-44.9079,28,0.1081,8724,3.9325,136.4555
lg,1625399178178832728,0,-0.6409,-0.7192,0.5542,215,17.7002,42.0532,5.188,84,1.4207,1.5668,26.1972,-44.9511,28,0.1051,9062,3.9325,135.1932
lg,1625399178178882172,0,-0.4316,-0.7925,0.5452,216,6.4087,-27.4658,18.3105,84,1.4257,1.5678,25.8654,-44.4728,28,0.1061,9108,3.9325,136.4517
lg,1625399178178931449,0,-0.2024,-0.8591,0.668,217,6.2256,-43.2129,22.2778,84,1.4347,1.5668,24.6541,-43.6739,27,0.1071,9135,3.9325,138.3464
lg,1625399178178975986,0,-0.0347,-0.8374,0.6804,218,13.855,-25.0854,8.1787,84,1.4427,1.5678,23.2759,-43.0134,27,0.1041,9162,3.9325,139.228
lg,1625399178179019189,0,-0.0669,-0.9399,0.6499,219,8.9722,-9.6436,1.77,84,1.4487,1.5678,22.632,-43.3792,27,0.1041,9171,3.9325,138.7121
lg,1625399178179067189,0,-0.1104,-0.9797,0.6467,220,9.6436,22.583,-6.5918,84,1.4517,1.5678,22.5206,-43.8975,28,0.102,9160,3.9325,137.611
lg,1625399178179110244,0,-0.1897,-0.8958,0.4897,221,16.0522,35.1562,-5.5542,84,1.4517,1.5668,22.929,-44.4492,28,0.1041,9228,3.9325,136.0981
lg,1625399178179220021,0,-0.2661,-0.8201,0.5146,222,1.0376,22.3999,11.6577,84,1.4527,1.5668,23.6072,-45.079,28,0.1041,9456,3.9325,135.5567
lg,1625399178179273687,0,-0.4202,-0.8489,0.5576,223,-22.8271,-7.0801,36.377,84,1.4477,1.5678,24.4113,-45.8961,28,0.1041,8916,3.9325,136.7107
lg,1625399178179318354,0,-0.4248,-0.7332,0.5291,224,-22.4609,-38.5742,51.3916,84,1.4487,1.5688,24.8524,-45.9405,28,0.1071,9291,3.9325,139.3728
lg,1625399178551789224,0,-0.0535,-0.7605,0.9287,225,-27.2827,-107.9712,56.1523,84,1.4267,1.5668,22.5699,-44.6903,28,0.1101,28165,3.9325,144.5692
lg,1625399178551827964,0,-0.1667,-0.9473,0.5256,226,-3.6621,-30.8838,26.3062,84,1.4297,1.5678,21.9251,-44.844,28,0.1111,17860,3.9325,146.058
lg,1625399178551848631,0,0.125,-0.8923,0.8101,227,18.5547,-6.1646,21.7896,84,1.4367,1.5688,21.2965,-43.9053,28,0.1111,8594,3.9325,146.8585
lg,1625399178551868723,0,0.1519,-0.8425,0.72,228,28.6255,37.4146,-17.1509,84,1.4477,1.5688,20.7929,-43.5787,28,0.1101,8579,3.9325,145.1285
lg,1625399178551888001,0,-0.0461,-0.8711,0.6912,229,33.0811,75.9277,-85.3271,84,1.4557,1.5688,19.8868,-44.2777,28,0.1081,9407,3.9325,140.1474
lg,1625399178552906067,0,-0.2437,-0.8777,0.2791,230,37.6587,81.9702,-111.8774,84,1.4587,1.5668,19.394,-46.0546,28,0.1061,8274,3.9325,133.8757
lg,1625399178552957141,0,-0.4968,-0.7205,0.4519,231,32.0435,47.7295,-86.6699,84,1.4577,1.5638,18.6403,-46.4944,28,0.1061,9491,3.9325,129.7456
lg,1625399178552981104,0,-0.6533,-0.6792,0.615,232,-10.498,55.4199,15.1978,84,1.4577,1.5658,21.2408,-47.3876,28,0.1071,8690,3.9325,128.4432
lg,1625399178553001270,0,-0.8628,-0.7644,0.5222,233,-29.48,1.4648,55.3589,84,1.4537,1.5658,23.7579,-48.2147,28,0.1071,8351,3.9325,129.9064
lg,1625399178553020974,0,-0.9121,-0.7527,0.6523,234,-34.668,-54.0771,65.0635,84,1.4467,1.5668,23.8869,-47.8215,28,0.1091,8337,3.9325,135.3267
lg,1625399178553043955,0,-0.8711,-0.7563,0.6411,235,-51.4526,-154.1138,72.998,84,1.4397,1.5678,22.5712,-47.1214,28,0.1131,8391,3.9325,142.4057
lg,1625399178553063622,0,-0.2358,-0.7322,0.3887,236,-49.6826,-293.457,43.5791,84,1.4247,1.5658,15.6159,-46.3258,28,0.1121,8784,3.9325,152.4647
lg,1625399178553082659,0,0.4333,-0.9634,0.5322,237,-83.0078,-297.3633,54.0771,84,1.4257,1.5628,7.8237,-48.0628,28,0.1121,8413,3.9325,162.7102
lg,1625399178553101399,0,0.5642,-1.252,0.4995,238,-75.3174,-215.7593,38.7573,84,1.4247,1.5608,4.9327,-50.8298,28,0.1101,8489,3.9325,166.6015
lg,1625399178553119844,0,0.616,-1.2898,0.4795,239,-25.8179,-27.4048,31.6772,84,1.4237,1.5598,4.1547,-52.388,28,0.1111,8499,3.9325,168.2066
lg,1625399178553138251,0,0.4963,-1.0527,0.5471,240,30.0293,97.8394,23.3154,81,1.4257,1.5618,6.2547,-51.7791,28,0.1131,8894,3.9347,165.6397
lg,1625399178553156232,0,0.1309,-0.7415,0.3262,241,51.5747,178.4668,-26.3062,81,1.4287,1.5638,9.2538,-51.1264,28,0.1171,8551,3.9347,159.2764
lg,1625399178553173991,0,-0.3364,-0.7849,0.6089,242,38.5742,220.52,-43.2129,81,1.4337,1.5638,13.7709,-51.2441,28,0.1161,8854,3.9347,151.1601
lg,1625399178553191713,0,-0.4922,-0.8062,0.6123,243,33.6914,215.8813,-44.2505,81,1.4407,1.5658,17.4348,-52.1347,28,0.1141,8921,3.9347,143.8177
lg,1625399178553209343,0,-0.6008,-0.8511,0.6238,244,28.0762,144.043,-54.3213,81,1.4457,1.5608,19.6615,-53.0401,28,0.1131,8570,3.9347,137.5801
lg,1625399178553226324,0,-0.4719,-0.7935,0.4304,245,58.5327,39.0625,-51.2695,81,1.4477,1.5678,19.3002,-51.8873,28,0.1121,8654,3.9347,134.844
lg,1625399178553243454,0,-0.238,-0.6606,0.5134,246,48.8281,-20.2026,-31.6772,81,1.4507,1.5658,17.673,-49.9944,28,0.1101,9006,3.9347,134.6661
lg,1625399178553260213,0,-0.0791,-0.6184,0.5305,247,13.4888,17.7002,3.6621,81,1.4517,1.5658,17.7586,-49.5617,28,0.1071,9059,3.9347,134.2047
lg,1625399178553287027,0,-0.1221,-0.9253,0.5867,248,-10.1929,57.9224,16.1743,81,1.4547,1.5648,19.2814,-50.7469,28,0.1061,10254,3.9347,132.6646
lg,1625399178553304268,0,-0.2378,-0.9524,0.655,249,-3.1128,98.3887,31.0059,81,1.4567,1.5648,22.3832,-51.9298,28,0.1061,9709,3.9347,130.1367
lg,1625399178553321620,0,-0.363,-0.9097,0.6458,250,-7.0801,99.3652,28.0151,81,1.4587,1.5648,25.221,-53.5585,28,0.1091,8770,3.9347,128.097
lg,1625399178553339046,0,-0.5745,-0.9067,0.5579,251,-27.9541,46.5698,36.8652,81,1.4577,1.5648,27.6128,-55.1757,28,0.1081,9120,3.9347,127.2808
lg,1625399178553355971,0,-0.6873,-0.77,0.3352,252,-45.4102,-25.3296,59.4482,81,1.4527,1.5668,29.4735,-56.1824,28,0.1101,9138,3.9347,129.5753
lg,1625399178553373138,0,-0.7324,-0.7742,0.3425,253,-59.3262,-99.1821,97.229,81,1.4477,1.5668,30.9411,-55.6895,28,0.1091,8807,3.9347,135.7363
lg,1625399178553390619,0,-0.3984,-0.822,0.6096,254,-58.4717,-159.9731,114.8071,81,1.4397,1.5668,30.597,-53.22,28,0.1101,8860,3.9347,144.9471
lg,1625399178553407804,0,-0.1941,-0.8313,0.3711,255,-13.2446,-192.2607,42.9688,81,1.4357,1.5668,26.534,-50.4247,28,0.1091,9255,3.9347,152.7458
lg,1625399178553425341,0,-0.0024,-0.979,0.6531,256,-30.4565,-170.5933,24.5361,81,1.4347,1.5668,21.9065,-49.2515,28,0.1081,9452,3.9347,159.0403
lg,1625399178937787641,0,0.3965,-0.9846,0.4246,257,26.5503,5.188,17.2729,81,1.4367,1.5678,21.0704,-48.7536,28,0.1121,27941,3.9347,159.0923
lg,1625399178937820196,0,-0.0417,-0.7695,0.47,258,53.772,128.418,12.2681,81,1.4367,1.5688,24.914,-48.2467,28,0.1131,15326,3.9347,154.8789
lg,1625399178937841307,0,-0.3218,-0.6228,0.6082,259,49.1943,137.2681,17.334,81,1.4377,1.5688,28.8776,-48.0065,28,0.1141,8635,3.9347,150.8509
lg,1625399178937860733,0,-0.5432,-0.6931,0.6277,260,26.123,92.7734,24.4751,81,1.4377,1.5688,32.107,-48.1883,28,0.1131,8638,3.9347,148.4017
lg,1625399178937879566,0,-0.5435,-0.8386,0.7659,261,7.2632,34.3628,31.9214,81,1.4377,1.5688,33.7007,-47.9702,28,0.1141,8364,3.9347,148.2125
lg,1625399178937897751,0,-0.4648,-0.8198,0.6128,262,-8.7891,-22.4609,31.8604,81,1.4367,1.5688,33.6742,-47.5196,28,0.1141,9838,3.9347,149.9208
lg,1625399178937915492,0,-0.3218,-0.8145,0.7151,263,-14.6484,-55.603,29.6631,81,1.4367,1.5688,32.3614,-46.5623,28,0.1121,9537,3.9347,152.8013
lg,1625399178937955880,0,-0.0684,-0.8857,0.6553,264,-15.3809,-64.3921,28.3813,81,1.4327,1.5698,30.3202,-45.8759,28,0.1141,10438,3.9347,155.7278
lg,1625399178937974250,0,-0.0166,-0.9421,0.707,265,-0.4883,-10.6201,12.8174,81,1.4397,1.5698,29.2795,-45.835,28,0.1141,8837,3.9347,156.3265
lg,1625399178937992158,0,0.0173,-0.8816,0.6558,266,13.855,15.1978,-6.6528,81,1.4447,1.5708,28.3709,-45.9534,28,0.1141,8761,3.9347,155.4525
lg,1625399178938010158,0,0.0552,-0.896,0.7036,267,13.6719,24.9023,-25.4517,81,1.4517,1.5708,27.1285,-46.3822,28,0.1131,8807,3.9347,153.7373
lg,1625399178938028194,0,0.0535,-0.9368,0.6536,268,15.564,65.4907,-73.4863,81,1.4567,1.5708,25.6163,-48.0727,28,0.1111,8808,3.9347,149.2074
lg,1625399178938045917,0,-0.2324,-0.9902,0.0742,269,37.1094,117.6758,-117.4927,81,1.4547,1.5688,24.7556,-51.1967,28,0.1061,13388,3.9347,141.2485
lg,1625399178938063546,0,-0.3816,-0.6697,0.26,270,57.0679,114.9902,-105.2246,81,1.4537,1.5668,25.9161,-51.7994,28,0.1041,8909,3.9347,135.0951
lg,1625399178938082676,0,-0.3486,-0.4307,0.251,271,54.4434,128.3569,-5.5542,81,1.4537,1.5658,29.238,-52.0924,28,0.1071,8946,3.9347,130.247
lg,1625399178938101046,0,-0.5615,-0.6755,0.6541,272,-18.0664,125.1831,41.2598,81,1.4557,1.5668,33.5902,-54.4056,28,0.1071,8902,3.9347,126.8121
lg,1625399178938118972,0,-0.9038,-1.0378,0.7344,273,-28.4424,81.2988,72.1436,81,1.4557,1.5668,37.8502,-56.284,28,0.1051,10409,3.9347,125.5197
lg,1625399178938136194,0,-0.9832,-0.8013,0.5779,274,-23.6816,-49.8047,63.5376,81,1.4517,1.5678,39.0896,-54.6784,28,0.1051,10071,3.9347,129.5203
lg,1625399178938153823,0,-0.9736,-0.6494,0.5505,275,-38.269,-157.4707,70.7397,81,1.4437,1.5688,37.9248,-50.6462,28,0.1071,9014,3.9347,138.2633
lg,1625399178938171138,0,-0.2864,-0.5862,0.7856,276,-50.2319,-285.5225,86.4258,81,1.4347,1.5678,32.0135,-44.4976,28,0.1091,9012,3.9347,151.7356
lg,1625399178938188323,0,0.1584,-0.8984,0.6257,277,-81.2988,-295.4102,47.1802,81,1.4347,1.5678,23.4122,-43.1916,28,0.1091,9057,3.9347,162.2245
lg,1625399178938206064,0,0.2429,-1.1201,0.3796,278,-45.4712,-163.269,10.9863,81,1.4347,1.5678,17.8145,-44.2771,28,0.1101,9053,3.9347,166.9563
lg,1625399178938224063,0,0.2332,-1.127,0.5701,279,-31.311,-92.2241,2.1362,81,1.4357,1.5688,15.3975,-44.7788,28,0.1111,9115,3.9347,168.2665
lg,1625399178938241693,0,0.2434,-0.981,0.5642,280,17.0898,-21.3623,-2.4414,81,1.4367,1.5668,13.6937,-44.556,28,0.1131,8818,3.9347,168.653
lg,1625399178938270859,0,0.0669,-0.8188,0.5317,281,22.9492,44.4336,-25.0854,81,1.4417,1.5698,13.5719,-44.6084,28,0.1141,10169,3.9347,166.5137
lg,1625399178938289637,0,-0.2397,-0.8682,0.439,282,13.1226,75.2563,-41.3818,81,1.4467,1.5698,14.761,-45.6912,28,0.1131,10518,3.9347,162.9223
lg,1625399178938307304,0,-0.4075,-0.8892,0.4165,283,20.9351,35.7666,-32.5317,81,1.4487,1.5688,15.1504,-46.0776,28,0.1141,9186,3.9347,160.7399
lg,1625399178938324563,0,-0.3115,-0.7649,0.4963,284,43.2739,-49.7437,-4.2725,81,1.4517,1.5698,13.7919,-44.4262,28,0.1131,9164,3.9347,161.9737
lg,1625399178938341359,0,-0.0081,-0.5593,0.5503,285,28.5034,-69.0308,15.8081,81,1.4557,1.5688,11.7195,-42.7867,28,0.1151,9193,3.9347,164.3827
lg,1625399178938358136,0,-0.0586,-0.8914,0.7112,286,-7.4463,-30.2734,30.3955,81,1.4587,1.5698,11.321,-43.0708,28,0.1151,8739,3.9347,166.0643
lg,1625399178938460210,0,-0.1248,-0.9746,0.7512,287,-13.1836,-13.7939,46.6919,81,1.4587,1.5698,11.9866,-43.6002,28,0.1171,9526,3.9347,167.7647
lg,1625399178938481117,0,-0.0955,-0.7722,0.6897,288,-6.6528,-8.7891,45.7153,81,1.4587,1.5708,12.7276,-43.6985,28,0.1171,9287,3.9347,169.3281
lg,1625399179321560869,0,-0.0349,-0.8413,0.7219,289,1.3428,24.5972,29.48,81,1.4607,1.5718,13.397,-44.0024,28,0.1171,27334,3.9347,167.9365
lg,1625399179321613461,0,-0.0261,-0.8533,0.666,290,0.4272,39.978,-26.8555,81,1.4627,1.5718,12.9728,-45.2669,28,0.1171,9389,3.9347,164.9498
lg,1625399179321636868,0,-0.1123,-0.9319,0.6201,291,-4.7607,74.707,-63.9648,81,1.4637,1.5708,12.9142,-46.7951,28,0.1161,8534,3.9347,160.8254
lg,1625399179321657701,0,-0.249,-0.9644,0.4683,292,10.3149,107.1167,-70.9229,81,1.4637,1.5708,13.7231,-48.2525,28,0.1121,8612,3.9347,155.4596
lg,1625399179321681571,0,-0.5083,-0.8628,0.2222,293,36.377,69.3359,-58.2886,81,1.4647,1.5698,14.4814,-48.636,27,0.1131,8248,3.9347,151.504
lg,1625399179321699905,0,-0.533,-0.7659,0.3816,294,26.5503,52.6123,-20.3857,81,1.4657,1.5728,16.6447,-49.0573,27,0.1141,8783,3.9347,150.8018
lg,1625399179321718367,0,-0.6414,-0.7559,0.4814,295,-18.2495,3.1738,39.5508,81,1.4647,1.5688,18.6648,-49.7633,27,0.1161,8529,3.9347,151.6952
lg,1625399179321737886,0,-0.6577,-0.832,0.5693,296,-39.0625,-83.252,78.2471,81,1.4627,1.5708,19.4864,-49.9352,28,0.1141,8824,3.9347,156.4602
lg,1625399179321759182,0,-0.553,-0.8896,0.5068,297,-44.5557,-161.3159,88.501,81,1.4557,1.5708,18.4045,-49.6046,28,0.1161,8871,3.9347,163.9603
lg,1625399179321870737,0,-0.0166,-0.8193,0.7329,298,-34.9121,-251.77,79.1016,81,1.4477,1.5708,13.523,-48.1707,28,0.1161,10667,3.9347,-185.9911
lg,1625399179321898162,0,0.491,-0.8813,0.4141,299,-54.0771,-244.2627,64.0259,81,1.4427,1.5688,7.5879,-49.2265,28,0.1121,8766,3.9347,-176.9532
lg,1625399179321916607,0,0.644,-1.0508,0.4014,300,-37.9028,-96.7407,36.1938,81,1.4407,1.5678,4.8649,-50.9647,28,0.1121,8754,3.9347,-173.1032
lg,1625399179321937033,0,0.4585,-1.1472,0.4287,301,-19.8364,-1.0986,28.5645,81,1.4397,1.5678,5.013,-52.2979,28,0.1121,8818,3.9347,-172.4043
lg,1625399179321959051,0,0.1814,-1.0239,0.5945,302,34.4849,107.5439,35.2173,81,1.4387,1.5678,8.2178,-51.4996,28,0.1131,8511,3.9347,-174.9762
lg,1625399179322007754,0,-0.052,-0.7068,0.502,303,51.3916,134.6436,15.0146,81,1.4417,1.5688,11.8669,-50.2354,28,0.1161,8857,3.9347,-178.8598
lg,1625399179322029865,0,-0.3501,-0.7231,0.5481,304,32.8979,150.3296,7.2021,81,1.4437,1.5688,16.2717,-50.122,28,0.1171,8496,3.9347,-183.454
lg,1625399179322048995,0,-0.4968,-0.7734,0.6074,305,25.6348,145.5688,5.0049,81,1.4477,1.5698,20.0596,-50.4948,28,0.1191,8607,3.9347,-187.2202
lg,1625399179322067846,0,-0.5786,-0.8057,0.6331,306,22.9492,81.543,6.3477,81,1.4497,1.5698,22.6797,-50.5398,28,0.1181,8887,3.9347,170.2306
lg,1625399179322091717,0,-0.417,-0.7517,0.5891,307,22.0337,-9.4604,9.7046,81,1.4537,1.5698,22.7664,-49.4756,28,0.1181,8917,3.9347,170.7999
lg,1625399179322109754,0,-0.0764,-0.7307,0.6143,308,20.3247,-65.1245,19.2871,81,1.4597,1.5708,20.9202,-47.688,28,0.1181,8930,3.9347,-186.5584
lg,1625399179322130087,0,0.0503,-0.8787,0.5913,309,1.8921,-27.6489,23.2544,81,1.4617,1.5698,19.9582,-47.4165,28,0.1181,8996,3.9347,-185.1441
lg,1625399179322147864,0,-0.1033,-0.9663,0.6445,310,-12.9395,21.9727,43.335,81,1.4627,1.5708,21.2478,-48.0995,28,0.1191,9005,3.9347,-184.7215
lg,1625399179322175938,0,-0.2163,-0.9402,0.7,311,-16.2964,35.9497,51.8799,81,1.4607,1.5698,23.4621,-48.7316,28,0.1171,9012,3.9347,-184.4404
lg,1625399179322196734,0,-0.3477,-0.6479,0.6885,312,-13.6108,24.7803,51.5137,81,1.4537,1.5708,25.5267,-48.7587,28,0.1201,12980,3.9347,-183.6782
lg,1625399179322216605,0,-0.5598,-0.7771,0.4878,313,-25.4517,-12.0239,24.4141,81,1.4477,1.5708,26.1878,-49.6182,28,0.1211,9098,3.9347,-182.7096
lg,1625399179322236401,0,-0.2871,-0.8914,0.6086,314,-25.1465,-64.0869,31.7383,81,1.4447,1.5708,25.0577,-49.5331,27,0.1221,9088,3.9347,-179.7385
lg,1625399179322256734,0,-0.1772,-0.9324,0.5991,315,-20.3247,-52.124,26.5503,81,1.4447,1.5708,23.744,-49.5956,27,0.1221,8775,3.9347,-177.3597
lg,1625399179322276049,0,-0.0525,-0.9331,0.5979,316,-0.1221,-5.0659,11.0474,81,1.4467,1.5718,23.1382,-49.7312,27,0.1231,9377,3.9347,-177.0114
lg,1625399179322295400,0,0.0212,-0.9177,0.563,317,8.1177,18.1885,-8.9111,81,1.4507,1.5718,22.4027,-50.0999,27,0.1201,10524,3.9347,-178.0077
lg,1625399179322314345,0,-0.0098,-0.9297,0.5874,318,17.334,60.6079,-42.0532,81,1.4557,1.5678,21.7923,-50.9151,28,0.1181,9193,3.9347,-181.299
lg,1625399179322332845,0,-0.1331,-0.9387,0.5779,319,14.2822,94.2383,-67.8711,81,1.4607,1.5728,21.4004,-52.4855,28,0.1151,9205,3.9347,-186.3969
lg,1625399179322353993,0,-0.3179,-0.8953,0.3064,320,31.25,83.4961,-77.6978,81,1.4647,1.5728,20.8301,-53.7177,28,0.1131,9212,3.9347,168.4759
lg,1625399179709052697,0,-0.4155,-0.7644,0.5151,321,-5.7983,13.2446,5.7983,81,1.4647,1.5708,21.9294,-54.3429,28,0.1171,27708,3.9347,169.2829
lg,1625399179709091845,0,-0.4697,-0.9277,0.7463,322,-30.3345,-24.0479,64.8193,81,1.4637,1.5718,23.4589,-54.4537,28,0.1161,9358,3.9347,-188.185
lg,1625399179709113807,0,-0.4189,-0.7542,0.6328,323,-27.5879,-59.021,67.1387,81,1.4577,1.5728,24.2405,-53.819,28,0.1161,9422,3.9347,-184.2976
lg,1625399179709133548,0,-0.2417,-0.7041,0.8491,324,-18.9819,-72.0825,57.8613,81,1.4507,1.5718,23.2133,-52.9796,28,0.1181,8628,3.9347,-179.9893
lg,1625399179709208010,0,-0.0791,-0.8384,0.6843,325,-49.9878,-88.0127,50.1099,81,1.4457,1.5708,21.9707,-53.1918,28,0.1201,8632,3.9347,-175.5927
lg,1625399179709229918,0,0.115,-0.9102,0.4929,326,-39.4287,-59.082,38.0249,81,1.4417,1.5648,20.7286,-54.0061,28,0.1191,10100,3.9347,-172.7032
lg,1625399179709248288,0,-0.1606,-1.0503,0.5344,327,-9.2773,45.7764,24.0479,81,1.4367,1.5698,22.059,-55.1079,28,0.1211,8736,3.9347,-173.8392
lg,1625399179709269825,0,-0.1003,-0.8274,0.5798,328,11.3525,40.4053,20.5078,81,1.4437,1.5708,23.0038,-54.9916,28,0.1221,8721,3.9347,-174.7655
lg,1625399179709287362,0,-0.1025,-0.77,0.5332,329,2.0752,29.1138,-12.7563,81,1.4467,1.5708,22.5852,-55.433,28,0.1231,8717,3.9347,-176.119
lg,1625399179709350491,0,-0.1741,-0.8401,0.5369,330,-5.3711,32.1655,-23.1934,81,1.4517,1.5698,22.0312,-56.368,28,0.1241,8376,3.9347,-177.8575
lg,1625399179709377768,0,-0.2578,-0.9312,0.4827,331,-10.9863,35.2173,-36.9873,81,1.4517,1.5728,21.224,-57.8385,28,0.1221,8738,3.9347,-180.0822
lg,1625399179709399379,0,-0.1777,-0.9456,0.3386,332,19.9585,-25.2075,-29.541,81,1.4647,1.5728,19.2674,-57.4627,28,0.1211,15912,3.9347,-180.0285
lg,1625399179709417639,0,0.0227,-0.8628,0.3164,333,43.335,-68.7256,-17.8223,81,1.4647,1.5728,16.3849,-55.625,28,0.1211,8442,3.9347,-178.2075
lg,1625399179709436120,0,0.1726,-0.697,0.3401,334,28.5645,-21.4844,14.1602,81,1.4657,1.5718,15.2677,-54.5196,28,0.1221,8805,3.9347,-177.2437
lg,1625399179709454694,0,0.0952,-0.793,0.417,335,0.5493,8.606,30.8228,81,1.4657,1.5718,15.9702,-54.4021,28,0.1231,8849,3.9347,-176.8027
lg,1625399179709474027,0,-0.229,-1.0295,0.7681,336,-21.6064,55.3589,69.1528,81,1.4637,1.5728,19.2572,-55.2739,28,0.1231,8823,3.9347,-177.0238
lg,1625399179709492231,0,-0.4395,-0.7634,0.5483,337,1.8921,43.335,65.4297,81,1.4557,1.5728,22.6081,-55.1206,28,0.1221,10012,3.9347,-176.9407
lg,1625399179709536767,0,-0.6802,-0.6516,0.6033,338,-15.7471,1.8921,45.4712,81,1.4497,1.5718,24.7231,-55.0341,28,0.1241,8623,3.9347,-175.7641
lg,1625399179709556823,0,-0.5955,-0.6702,0.449,339,-12.2681,-73.7305,47.5464,81,1.4427,1.5728,25.0237,-53.92,28,0.1241,8944,3.9347,-171.9034
lg,1625399179709574767,0,-0.281,-0.8093,0.5852,340,-27.3438,-124.0845,51.3916,81,1.4387,1.5718,23.353,-52.6645,28,0.1231,8967,3.9347,-166.1938
lg,1625399179709619137,0,-0.1655,-0.9146,0.6846,341,-23.0713,-117.5537,42.2363,81,1.4377,1.5728,21.2698,-51.9509,28,0.1241,9223,3.9347,-162.0923
lg,1625399179709639285,0,0.104,-0.9475,0.7126,342,-12.9395,-89.5386,24.4141,81,1.4377,1.5718,18.8176,-51.2568,28,0.1251,8972,3.9347,-158.476
lg,1625399179709658229,0,0.2258,-0.9231,0.6511,343,-5.5542,-31.8604,-3.7231,81,1.4427,1.5728,16.769,-51.3225,28,0.1271,8989,3.9347,-157.5721
lg,1625399179709677655,0,0.0352,-0.917,0.5771,344,-0.4272,32.0435,-30.5786,81,1.4467,1.5738,15.8733,-52.1114,28,0.1271,9041,3.9347,-159.4809
lg,1625399179709696063,0,-0.196,-0.9175,0.4348,345,2.9297,61.4624,-40.8936,81,1.4497,1.5738,15.8659,-53.3242,28,0.1271,8707,3.9347,-162.6791
lg,1625399179709713803,0,-0.3196,-0.8494,0.2773,346,8.7891,50.0488,-37.4756,81,1.4527,1.5728,15.8002,-53.8185,28,0.1271,9078,3.9347,-164.5431
lg,1625399179709731618,0,-0.3564,-0.8411,0.3987,347,21.7285,12.207,-13.9771,81,1.4547,1.5738,15.7886,-53.3568,28,0.1271,9116,3.9347,-165.35
lg,1625399179709749303,0,-0.3137,-0.7842,0.5,348,16.7236,-8.3618,21.2402,81,1.4507,1.5708,16.3771,-52.6125,28,0.1281,8772,3.9336,-164.5805
lg,1625399179709768599,0,-0.3679,-0.8474,0.6143,349,-7.4463,-28.5034,39.7339,81,1.4457,1.5728,17.0622,-52.3903,28,0.1271,8808,3.9336,-162.6391
lg,1625399179709785617,0,-0.3196,-0.9048,0.6084,350,-10.437,-61.4624,50.7202,81,1.4497,1.5728,17.1345,-51.9596,28,0.1271,10911,3.9336,-159.3456
lg,1625399179709804562,0,-0.1589,-0.8311,0.5464,351,-14.5874,-94.2993,44.3115,81,1.4357,1.5718,15.8858,-51.517,28,0.1241,9196,3.9336,-155.1652
lg,1625399179709850987,0,0.0356,-0.9438,0.7246,352,-9.2163,-73.9136,50.5371,81,1.4407,1.5728,14.9315,-50.9281,28,0.1241,9248,3.9336,-151.4738
lg,1625399180093231696,0,0.1501,-0.9331,0.4937,353,6.4697,28.1372,-19.165,81,1.4507,1.5738,14.4038,-51.4495,28,0.1281,27545,3.9336,-152.9863
lg,1625399180093272047,0,-0.2117,-0.9497,0.6208,354,15.9302,110.4126,-52.124,81,1.4557,1.5738,15.3209,-52.2829,28,0.1291,12049,3.9336,-157.9641
lg,1625399180093294047,0,-0.2336,-0.9341,0.646,355,19.6533,111.7554,-54.9927,81,1.4607,1.5738,15.6087,-52.5567,28,0.1261,8629,3.9336,-162.8842
lg,1625399180093319880,0,-0.2249,-0.8943,0.5408,356,35.2783,76.9653,-74.7681,81,1.4597,1.5728,14.9587,-52.5548,28,0.1211,8609,3.9336,-167.3657
lg,1625399180093340473,0,-0.2795,-0.8474,0.0947,357,39.7339,31.4941,-83.1299,81,1.4587,1.5708,13.2769,-52.868,28,0.1141,9370,3.9336,-170.7667
lg,1625399180093359473,0,-0.1443,-0.7351,0.3743,358,25.5127,33.6304,-15.686,81,1.4587,1.5698,13.4596,-52.588,28,0.1101,9313,3.9336,-172.3501
lg,1625399180093377436,0,0.0161,-0.8022,0.364,359,5.0659,42.0532,36.1328,81,1.4587,1.5688,15.0599,-53.02,28,0.1111,9240,3.9336,-172.9577
lg,1625399180093396195,0,-0.1726,-0.9583,0.658,360,-15.4419,57.0679,46.5088,81,1.4587,1.5698,17.6361,-53.9391,28,0.1131,8698,3.9336,-173.7461
lg,1625399180093414732,0,-0.3115,-0.8833,0.5547,361,-5.5542,74.7681,54.4434,81,1.4567,1.5698,21.4752,-54.6537,28,0.1141,8365,3.9336,-175.0113
lg,1625399180093432694,0,-0.6233,-0.7246,0.4417,362,-10.6201,44.9829,58.8379,81,1.4577,1.5698,24.9994,-55.2566,28,0.1131,8383,3.9336,-175.2017
lg,1625399180093450583,0,-0.8125,-0.7446,0.468,363,-36.9263,-51.8799,91.4917,81,1.4507,1.5708,27.503,-54.924,28,0.1131,8859,3.9336,-171.0009
lg,1625399180093468342,0,-0.6902,-0.8337,0.4912,364,-50.6592,-146.6064,136.4136,81,1.4437,1.5708,28.7901,-52.8357,28,0.1121,8804,3.9336,-162.0537
lg,1625399180093486713,0,0.0889,-0.6655,0.8176,365,-46.9971,-186.4624,142.9443,81,1.4377,1.5698,25.3187,-48.1309,28,0.1141,8825,3.9336,-151.0479
lg,1625399180093518138,0,0.3416,-1.0605,0.9163,366,-59.3872,-171.6919,58.7158,81,1.4337,1.5698,21.0505,-47.6706,28,0.1101,11933,3.9336,-143.8171
lg,1625399180093537823,0,0.4314,-1.1875,0.5986,367,-20.6299,-96.0693,31.3721,81,1.4347,1.5708,18.0041,-47.7868,28,0.1091,8882,3.9336,-140.1221
lg,1625399180093557842,0,0.4622,-1.0789,0.5652,368,-3.6011,-38.6963,13.7939,81,1.4347,1.5708,17.0321,-47.9855,28,0.1121,8674,3.9336,-140.8683
lg,1625399180093576749,0,0.2666,-0.8628,0.457,369,28.3813,61.4624,-10.376,81,1.4347,1.5698,17.1612,-48.05,28,0.1141,8951,3.9336,-143.2389
lg,1625399180093594582,0,-0.0374,-0.8291,0.5591,370,28.8696,143.6768,-25.3296,81,1.4397,1.5728,19.6032,-48.8708,28,0.1161,8579,3.9336,-148.5777
lg,1625399180093612823,0,-0.3884,-0.8328,0.4705,371,23.0713,167.4194,-35.5225,81,1.4427,1.5748,22.9167,-50.7471,28,0.1181,8985,3.9336,-155.2071
lg,1625399180093630582,0,-0.5645,-0.8203,0.4802,372,28.5034,129.3335,-26.4893,81,1.4467,1.5738,25.6024,-52.0537,28,0.1201,8617,3.9336,-160.5022
lg,1625399180093669582,0,-0.5635,-0.8247,0.5063,373,29.2358,96.0693,-22.522,81,1.4517,1.5738,26.6994,-52.2469,28,0.1201,8959,3.9336,-163.1613
lg,1625399180093689545,0,-0.4526,-0.7798,0.6409,374,27.1606,28.3813,-10.3149,81,1.4567,1.5728,26.9626,-51.6642,28,0.1181,8988,3.9336,-164.4146
lg,1625399180093707063,0,-0.2107,-0.7871,0.5818,375,31.6162,-21.6064,-10.9253,81,1.4637,1.5728,25.0874,-50.7771,28,0.1171,9030,3.9336,-164.1734
lg,1625399180093725637,0,-0.1167,-0.8857,0.4565,376,21.8506,-20.813,-14.1602,81,1.4657,1.5718,23.4257,-50.2794,28,0.1151,8813,3.9336,-164.0789
lg,1625399180093743878,0,-0.0225,-0.8484,0.4946,377,18.8599,-15.2588,2.3193,81,1.4667,1.5718,23.2551,-49.8995,28,0.1141,8745,3.9336,-163.7906
lg,1625399180093762692,0,-0.0171,-0.8477,0.5686,378,9.8877,30.2124,31.3721,81,1.4677,1.5718,24.1258,-49.814,27,0.1141,8781,3.9336,-164.0267
lg,1625399180093781951,0,-0.1531,-0.874,0.6584,379,4.7607,70.6787,44.6167,81,1.4677,1.5718,26.6572,-50.2343,27,0.1141,9160,3.9336,-165.2171
lg,1625399180093814581,0,-0.342,-0.8665,0.6396,380,4.9438,72.0825,41.8091,81,1.4627,1.5738,29.4028,-50.7851,27,0.1141,9039,3.9336,-166.6017
lg,1625399180093833821,0,-0.3853,-0.8342,0.7861,381,1.5259,41.3818,37.5977,81,1.4687,1.5718,31.1741,-50.7266,27,0.1141,9102,3.9336,-166.899
lg,1625399180093851877,0,-0.3235,-0.8394,0.6731,382,-5.6763,-12.5732,20.3857,81,1.4687,1.5708,30.9132,-50.4181,28,0.1121,8874,3.9336,-165.8493
lg,1625399180093870062,0,-0.2493,-0.9128,0.6138,383,-7.019,-24.353,9.8267,81,1.4697,1.5718,29.8912,-50.3509,28,0.1111,9294,3.9336,-164.8128
lg,1625399180093887969,0,-0.2983,-0.8674,0.4448,384,-10.5591,-51.1475,2.2583,81,1.4697,1.5718,28.1793,-50.3889,28,0.1121,12210,3.9336,-163.2034
lg,1625399180484621613,0,-0.6248,-0.9036,0.6538,385,-40.3442,-76.416,108.2764,81,1.4417,1.5718,28.1815,-48.5916,28,0.1141,28066,3.9336,-155.9425
lg,1625399180484728520,0,0.1562,-0.707,0.1306,386,-17.4561,-251.0986,31.8604,81,1.4337,1.5698,21.0986,-46.749,28,0.1131,9353,3.9336,-147.455
lg,1625399180484780834,0,0.3416,-1.0291,0.4824,387,-61.4624,-130.6763,18.6157,81,1.4277,1.5688,16.7822,-48.3938,28,0.1111,8521,3.9336,-143.0802
lg,1625399180484835075,0,0.2004,-1.1162,0.2646,388,-39.1846,-42.2363,16.9678,81,1.4237,1.5668,17.0536,-49.774,28,0.1101,8652,3.9336,-142.8549
lg,1625399180484881926,0,0.3042,-1.1975,0.5986,389,16.5405,43.2739,42.4805,81,1.4217,1.5668,18.3445,-49.7248,28,0.1111,8706,3.9336,-143.2587
lg,1625399180484933000,0,0.1875,-0.8191,0.3994,390,48.2788,135.2539,26.7944,81,1.4187,1.5618,21.5196,-49.6183,28,0.1131,10049,3.9336,-147.1051
lg,1625399180484979148,0,-0.0942,-0.6558,0.5432,391,45.3491,181.1523,10.8643,81,1.4177,1.5668,25.8854,-50.1415,28,0.1151,8308,3.9336,-152.867
lg,1625399180485029129,0,-0.3391,-0.7129,0.6428,392,31.4331,162.5977,-0.2441,81,1.4197,1.5668,29.6968,-51.4438,28,0.1161,8715,3.9336,-158.5339
lg,1625399180485074610,0,-0.408,-0.7427,0.7144,393,24.5972,141.1133,-11.4136,81,1.4217,1.5688,31.6337,-53.0915,28,0.1161,8668,3.9336,-163.4878
lg,1625399180485180406,0,-0.5166,-0.8066,0.6777,394,15.7471,100.769,-36.1328,81,1.4267,1.5708,32.5931,-54.9009,28,0.1181,8431,3.9336,-168.2689
lg,1625399180485389441,0,-0.5535,-0.8291,0.6223,395,11.2915,69.8242,-48.0957,81,1.4377,1.5698,32.3821,-56.5243,28,0.1181,8786,3.9336,-172.2427
lg,1625399180485460459,0,-0.5657,-0.8745,0.6396,396,11.0474,33.6914,-42.8467,81,1.4467,1.5708,31.4837,-57.2456,28,0.1171,13074,3.9336,-174.6063
lg,1625399180485507941,0,-0.478,-0.8743,0.7058,397,24.1699,12.9395,-31.6772,81,1.4557,1.5698,30.248,-56.7659,28,0.1161,8865,3.9336,-175.8176
lg,1625399180485554163,0,-0.2971,-0.8657,0.5593,398,29.3579,-37.4756,-42.8467,81,1.4607,1.5698,27.439,-55.4402,28,0.1111,8889,3.9336,-175.4893
lg,1625399180485599792,0,-0.1553,-0.9197,0.5444,399,25.3906,-44.3726,-58.5938,81,1.4627,1.5678,23.7663,-54.5352,28,0.101,8835,3.9336,-175.4399
lg,1625399180485647569,0,-0.0923,-0.9998,0.2126,400,22.8271,-14.7705,-49.0112,81,1.4617,1.5668,21.1757,-54.8568,28,0.094,10806,3.9336,-176.5289
lg,1625399180485693236,0,-0.1162,-0.8442,0.2422,401,28.5034,2.3193,-29.2358,81,1.4587,1.5648,19.7795,-54.7765,28,0.093,9498,3.9336,-177.6107
lg,1625399180485741402,0,-0.1704,-0.5264,0.0781,402,24.0479,23.3154,24.7192,81,1.4657,1.5638,21.1123,-54.9188,28,0.094,8545,3.9336,-178.1724
lg,1625399180485788402,0,-0.3311,-0.6836,0.2439,403,-25.3296,29.7852,74.7681,81,1.4657,1.5638,24.3954,-56.2164,28,0.096,8956,3.9336,-177.6278
lg,1625399180485834383,0,-0.4536,-0.8889,0.437,404,-47.2412,21.9727,98.877,81,1.4617,1.5638,28.745,-56.9152,28,0.099,8955,3.9336,-174.7267
lg,1625399180485881179,0,-0.7292,-0.9934,0.6934,405,-42.4194,-24.9023,152.771,81,1.4517,1.5648,33.3632,-55.9801,28,0.097,8988,3.9336,-169.7896
lg,1625399180485928530,0,-0.7642,-0.7729,0.741,406,-41.8701,-99.1821,178.1616,81,1.4347,1.5658,36.8979,-52.0339,28,0.1,8672,3.9336,-160.5325
lg,1625399180485991271,0,-0.6223,-0.6287,1.0696,407,-69.0308,-153.4424,169.4946,81,1.4077,1.5648,37.7453,-46.9116,28,0.099,8664,3.9336,-148.5721
lg,1625399180486043363,0,0.0386,-0.8965,1.1436,408,-54.9316,-244.9341,68.5425,81,1.3957,1.5638,31.3364,-42.6093,28,0.099,8791,3.9336,-137.6367
lg,1625399180486090418,0,-0.0203,-1.2954,0.7637,409,-81.8481,-216.8579,23.9258,81,1.3947,1.5638,24.5627,-43.0973,28,0.099,9197,3.9336,-130.5468
lg,1625399180486135862,0,0.25,-1.0876,0.4104,410,-60.1196,-240.7837,37.5366,81,1.3967,1.5638,18.2184,-42.8128,28,0.099,9172,3.9336,-123.0109
lg,1625399180486182158,0,0.6521,-0.8669,0.2209,411,-17.2119,-114.1968,68.8477,81,1.3977,1.5628,15.0067,-42.9958,28,0.102,9222,3.9336,-117.9879
lg,1625399180486273158,0,0.6709,-0.9744,0.3577,412,-18.7988,0.4272,-19.8975,81,1.3997,1.5658,12.8339,-44.7654,27,0.1041,9125,3.9336,-118.797
lg,1625399180486324676,0,-0.136,-1,0.3071,413,14.2822,225.2197,-69.8242,81,1.4017,1.5648,16.8626,-47.5294,27,0.1041,9110,3.9336,-127.751
lg,1625399180486371750,0,-0.7317,-0.887,0.3262,414,39.3066,246.2158,-67.0166,81,1.4057,1.5668,22.1444,-49.936,27,0.1041,9274,3.9336,-137.6895
lg,1625399180486418749,0,-0.9648,-0.7439,0.3325,415,38.9404,117.4316,-66.5283,81,1.4107,1.5678,24.1226,-51.0782,28,0.1051,9226,3.9336,-143.6451
lg,1625399180486464620,0,-0.8264,-0.6626,0.4189,416,23.1323,-15.4419,-29.6631,81,1.4177,1.5688,23.6815,-50.4594,28,0.1041,9223,3.9336,-144.0079
lg,1625399180869504722,0,0.1689,-0.9382,0.5908,417,10.498,-158.6914,-4.7607,81,1.4487,1.5698,18.2374,-48.5409,28,0.1031,28680,3.9336,-139.1092
lg,1625399180869632499,0,0.2864,-0.9446,0.6418,418,21.2402,-27.771,-20.4468,81,1.4557,1.5698,15.6828,-47.8893,28,0.102,11151,3.9336,-138.9079
lg,1625399180869686443,0,0.2285,-0.9263,0.6401,419,24.1699,11.9019,-25.3906,81,1.4577,1.5698,15.2232,-47.8422,28,0.102,8600,3.9336,-141.1633
lg,1625399180869743887,0,0.0693,-0.9355,0.5303,420,26.3672,72.5098,-22.3389,81,1.4587,1.5688,15.7651,-48.0569,28,0.102,8650,3.9336,-144.1563
lg,1625399180869797609,0,-0.2207,-0.8511,0.3547,421,8.728,87.8296,6.4087,81,1.4597,1.5688,18.1996,-49.216,28,0.102,8326,3.9336,-146.9486
lg,1625399180869848053,0,-0.4556,-0.781,0.4814,422,-5.6763,57.9834,59.2651,81,1.4607,1.5698,21.8209,-49.8572,28,0.102,9349,3.9336,-147.3045
lg,1625399180869895645,0,-0.676,-0.6731,0.248,423,-17.5171,3.7842,98.6328,81,1.4477,1.5688,25.7931,-50.0902,28,0.1051,9177,3.9336,-144.894
lg,1625399180869943497,0,-0.7417,-0.7114,0.4519,424,-25.0854,-18.9819,119.6899,81,1.4277,1.5698,29.7353,-48.8887,28,0.1071,8720,3.9336,-139.572
lg,1625399180869988367,0,-0.4426,-0.6931,1.2891,425,-34.9121,-59.6313,157.4097,81,1.4117,1.5678,32.2993,-45.7546,28,0.1041,8769,3.9336,-132.1173
lg,1625399180870032737,0,-0.1365,-0.8906,1.2207,426,-53.2227,-170.0439,79.3457,81,1.4087,1.5668,28.6808,-43.2945,28,0.1031,8847,3.9336,-123.7374
lg,1625399180870192773,0,0.0811,-1.2214,0.7537,427,-75.8057,-223.1445,29.6021,81,1.4067,1.5658,21.9003,-43.6507,28,0.1051,8791,3.9336,-116.3065
lg,1625399180870241791,0,0.6172,-1.1008,0.4143,428,-45.105,-200.0122,27.4658,81,1.4097,1.5658,15.283,-44.2229,28,0.1051,8509,3.9336,-109.9563
lg,1625399180870287661,0,0.8252,-1.0771,0.4045,429,-18.9209,-140.9912,18.6157,81,1.4127,1.5658,10.0055,-44.6683,28,0.1081,8857,3.9336,-105.5459
lg,1625399180870393642,0,0.6873,-0.9854,0.4387,430,26.3672,82.5806,-23.8037,81,1.4167,1.5668,10.1562,-44.8493,28,0.1091,8575,3.9336,-108.7222
lg,1625399180870444178,0,0.0044,-0.8977,0.2993,431,52.4292,286.8652,-71.3501,81,1.4247,1.5678,15.7471,-46.1515,28,0.1101,8514,3.9336,-119.3289
lg,1625399180870493215,0,-0.7153,-0.8232,0.2681,432,62.2559,347.7173,-87.0972,81,1.4337,1.5688,23.4646,-48.9882,28,0.1081,8882,3.9336,-132.9003
lg,1625399180870540696,0,-1.0361,-0.7722,0.4084,433,68.8477,320.4956,-81.1157,81,1.4417,1.5698,28.8312,-51.1045,28,0.1061,8942,3.9336,-144.1255
lg,1625399180870640196,0,-1.1016,-0.7219,0.5591,434,77.3926,177.4292,-69.2749,81,1.4507,1.5698,29.714,-49.9595,28,0.1041,9131,3.9336,-148.0758
lg,1625399180870690232,0,-0.5293,-0.6177,0.5342,435,53.1006,-24.7192,-34.79,81,1.4587,1.5698,26.7011,-47.7874,28,0.1031,10582,3.9336,-146.1913
lg,1625399180870735973,0,-0.374,-0.7517,0.6099,436,16.2964,-101.9287,-34.5459,81,1.4587,1.5668,22.7096,-46.3133,28,0.1,8614,3.9336,-143.9875
lg,1625399180870783602,0,-0.1084,-0.9304,0.4006,437,12.8784,-117.3096,-21.0571,81,1.4587,1.5688,18.2688,-45.5869,28,0.099,9013,3.9336,-141.3308
lg,1625399180870830620,0,0.0723,-0.834,0.458,438,8.0566,-89.2334,-2.5024,81,1.4607,1.5678,16.7043,-45.9429,28,0.101,9030,3.9336,-139.1454
lg,1625399180870876157,0,-0.1255,-0.7446,0.5193,439,-24.5972,-15.7471,68.4814,81,1.4567,1.5688,19.4311,-46.6585,28,0.101,9064,3.9336,-136.7402
lg,1625399180870922009,0,-0.3201,-0.7251,0.4346,440,-36.0718,28.8696,105.7739,81,1.4517,1.5688,23.3709,-47.7815,28,0.101,8700,3.9336,-134.7369
lg,1625399180870968490,0,-0.8188,-0.8586,0.5039,441,-47.3633,31.1279,115.9668,81,1.4367,1.5688,28.2855,-49.0191,28,0.102,9088,3.9336,-132.5252
lg,1625399180871014878,0,-0.5752,-0.7397,1.3337,442,-18.5547,-44.7388,137.085,81,1.4237,1.5678,30.8708,-46.0583,28,0.1051,9126,3.9336,-126.3616
lg,1625399180871060637,0,-0.3394,-0.7236,1.2576,443,-43.5181,-139.8926,78.3691,81,1.4177,1.5668,28.4772,-43.5624,28,0.1041,9576,3.9336,-118.9035
lg,1625399180871107841,0,-0.0259,-1.1196,0.6533,444,-76.5991,-246.6431,36.8652,81,1.4217,1.5698,21.4052,-43.6488,28,0.1051,9214,3.9336,-110.5613
lg,1625399180871151989,0,0.4885,-1.1309,0.4141,445,-53.1006,-228.0884,27.5269,81,1.4217,1.5688,14.1712,-44.44,28,0.1071,9263,3.9336,-103.4261
lg,1625399180871198192,0,0.8298,-1.0559,0.3645,446,-15.9912,-91.5527,8.7891,81,1.4237,1.5708,10.1215,-45.2826,28,0.1091,9247,3.9336,-100.7197
lg,1625399180871385746,0,0.3398,-0.9719,0.3896,447,14.2822,117.8589,-30.0293,81,1.4267,1.5708,11.4831,-46.3632,28,0.1121,8948,3.9336,-105.1605
lg,1625399180871505875,0,-0.2932,-0.8821,0.3833,448,30.8838,215.5762,-38.0249,81,1.4317,1.5708,16.4481,-47.7257,28,0.1131,9263,3.9336,-112.8826
lg,1625399181256818879,0,-0.542,-0.7688,0.4929,449,24.4141,19.4702,0.7935,81,1.4477,1.5728,17.5553,-47.2449,28,0.1111,27897,3.9336,-113.5526
lg,1625399181256905600,0,-0.1599,-0.7976,0.4104,450,16.9067,-67.0776,7.1411,81,1.4547,1.5718,15.6691,-46.5413,28,0.1101,16289,3.9336,-111.4892
lg,1625399181256958730,0,-0.064,-0.8474,0.4204,451,17.7612,-73.6084,7.6904,81,1.4577,1.5718,13.8506,-45.9365,28,0.1101,8842,3.9336,-109.4674
lg,1625399181257008433,0,-0.0518,-0.8679,0.4729,452,-2.8076,-31.6772,31.6772,81,1.4577,1.5718,13.4778,-46.2241,28,0.1121,8680,3.9336,-107.771
lg,1625399181257100858,0,-0.1943,-0.9277,0.6282,453,-18.0664,-0.8545,86.853,81,1.4507,1.5728,15.829,-46.6894,28,0.1161,8660,3.9303,-105.367
lg,1625399181257149395,0,-0.2002,-0.7031,1.0122,454,2.0752,24.292,84.0454,85,1.4427,1.5718,18.6666,-45.6058,28,0.1151,8510,3.9303,-103.5373
lg,1625399181257194987,0,-0.4187,-0.7981,0.9204,455,-20.3247,-1.0986,44.3115,85,1.4357,1.5718,19.9129,-45.7748,28,0.1121,9367,3.9303,-102.1315
lg,1625399181257241006,0,-0.2744,-0.8462,0.8806,456,-21.7896,-45.8984,43.7622,85,1.4337,1.5708,19.4272,-45.8396,28,0.1121,8347,3.9303,-99.4733
lg,1625399181257285320,0,-0.1611,-0.9443,0.688,457,-17.395,-37.2925,18.1274,85,1.4357,1.5708,18.468,-46.3142,28,0.1131,8735,3.9303,-97.911
lg,1625399181257329616,0,-0.0471,-0.9072,0.6162,458,-4.0894,1.5869,4.2725,85,1.4387,1.5718,17.3305,-46.847,28,0.1181,8762,3.9303,-98.1889
lg,1625399181257374209,0,0.0295,-0.873,0.5076,459,0.3052,38.9404,-40.5884,85,1.4437,1.5728,16.4559,-48.0374,28,0.1181,9392,3.9303,-100.686
lg,1625399181257419375,0,-0.114,-0.9348,0.4741,460,2.0752,78.125,-59.6924,85,1.4497,1.5738,16.9057,-49.9821,28,0.1151,8778,3.9303,-105.9566
lg,1625399181257464671,0,-0.3733,-0.9961,0.4436,461,11.4746,100.647,-71.9604,85,1.4547,1.5748,17.2998,-51.6555,28,0.1121,8801,3.9303,-111.3032
lg,1625399181257510134,0,-0.4951,-0.9204,0.4282,462,30.0293,62.6221,-70.6177,85,1.4587,1.5748,16.972,-52.0879,28,0.1061,8836,3.9303,-115.3333
lg,1625399181257555689,0,-0.426,-0.7715,0.4272,463,49.9268,-3.7231,-59.3262,85,1.4617,1.5748,15.3787,-50.8083,28,0.1041,8970,3.9303,-116.835
lg,1625399181257603540,0,-0.29,-0.6863,0.4695,464,43.8843,-68.7256,-35.7666,85,1.4647,1.5728,12.6789,-48.9347,28,0.1041,8956,3.9303,-115.6546
lg,1625399181257647911,0,-0.0613,-0.7339,0.4978,465,37.5977,-81.1768,-19.165,85,1.4657,1.5718,10.0592,-47.5932,28,0.1031,8922,3.9303,-113.4229
lg,1625399181257691355,0,0.0518,-0.7869,0.4109,466,20.2637,-74.4629,4.6997,85,1.4657,1.5698,7.5523,-47.0679,28,0.1031,8976,3.9303,-111.1913
lg,1625399181257734632,0,0.0874,-0.8455,0.5012,467,-5.0049,-8.7891,39.1846,85,1.4647,1.5628,7.9751,-47.5613,28,0.1041,8982,3.9303,-109.9222
lg,1625399181257778243,0,-0.1902,-0.9341,0.6328,468,-35.3394,65.0024,88.2568,85,1.4637,1.5708,13.4891,-49.3276,27,0.1071,11679,3.9303,-109.4343
lg,1625399181257821854,0,-0.575,-0.8606,0.4946,469,-40.0391,63.7817,116.1499,85,1.4577,1.5728,19.3205,-50.9998,27,0.1071,8648,3.9303,-108.4858
lg,1625399181258048575,0,-0.8196,-0.8372,0.469,470,-44.5557,-11.7798,137.4512,85,1.4427,1.5718,24.13,-51.5625,27,0.1071,9032,3.9303,-104.507
lg,1625399181258102686,0,-0.3486,-0.6064,0.8892,471,-5.8594,-111.8774,119.751,85,1.4357,1.5708,24.7035,-48.1209,27,0.1101,9070,3.9303,-97.0753
lg,1625399181258150093,0,0.0371,-0.9016,1.1272,472,-64.3921,-173.8281,82.8247,85,1.4327,1.5708,21.5018,-47.132,28,0.1101,8731,3.9303,-88.9027
lg,1625399181258193148,0,0.3369,-1.0928,0.592,473,-64.6362,-184.1431,23.1934,85,1.4327,1.5718,15.93,-48.2148,28,0.1101,9156,3.9303,-82.6933
lg,1625399181258285388,0,0.3909,-1.0935,0.4497,474,-57.373,-133.3008,-0.7324,85,1.4347,1.5728,11.1859,-50.4625,28,0.1121,8835,3.9303,-78.7858
lg,1625399181258329592,0,0.4282,-1.1211,0.3547,475,-18.6157,-21.9116,-15.9912,85,1.4337,1.5728,8.9941,-51.9536,28,0.1141,9143,3.9303,-78.6405
lg,1625399181258373221,0,0.1714,-1.021,0.325,476,21.6064,109.2529,-34.8511,85,1.4357,1.5728,9.8628,-52.5895,28,0.1161,8861,3.9303,-83.1325
lg,1625399181258416184,0,-0.3057,-0.8406,0.3171,477,51.3306,172.6074,-52.4902,85,1.4377,1.5738,12.7322,-52.5144,28,0.1161,9224,3.9303,-90.1269
lg,1625399181258459794,0,-0.6113,-0.6538,0.3848,478,63.0493,133.9111,-33.1421,85,1.4397,1.5738,15.9605,-51.4951,28,0.1171,8850,3.9303,-95.3626
lg,1625399181258501868,0,-0.665,-0.6157,0.6243,479,46.6309,57.1899,-4.1504,85,1.4397,1.5748,18.0909,-49.9673,28,0.1181,9246,3.9303,-97.2485
lg,1625399181258545368,0,-0.6562,-0.6082,0.6392,480,31.3721,27.3438,7.5073,85,1.4417,1.5738,19.0343,-48.9853,28,0.1191,9267,3.9303,-96.5011
lg,1625399181640898669,0,0.0391,-0.9294,0.6819,481,-7.8125,-80.2002,36.3159,85,1.4507,1.5738,17.519,-48.4178,28,0.1191,28142,3.9303,-93.2149
lg,1625399181640983261,0,0.2053,-1.0005,0.8296,482,-1.5869,-26.9775,32.7759,85,1.4587,1.5748,17.284,-48.1101,28,0.1161,11555,3.9303,-92.6769
lg,1625399181641034909,0,0.1838,-0.9768,0.8225,483,13.0615,30.3955,8.728,85,1.4627,1.5748,17.3731,-47.8615,28,0.1141,8633,3.9303,-93.4048
lg,1625399181641134983,0,0.196,-0.9312,0.6301,484,28.9307,49.1333,-48.584,85,1.4647,1.5738,16.207,-47.8583,28,0.1091,10218,3.9303,-96.3865
lg,1625399181641185519,0,0.1685,-1.0635,0.4851,485,29.7852,92.1631,-104.7363,85,1.4647,1.5738,14.5985,-48.8908,28,0.101,8293,3.9303,-102.315
lg,1625399181641233019,0,-0.0515,-1.0901,0.011,486,42.4805,154.8462,-102.2949,85,1.4637,1.5718,15.1116,-50.673,28,0.097,9217,3.9303,-110.3149
lg,1625399181641279852,0,-0.1558,-0.5212,0.1946,487,64.0259,149.353,-20.1416,85,1.4667,1.5698,18.3084,-50.3825,28,0.096,9343,3.9303,-115.8593
lg,1625399181641326741,0,-0.3474,-0.5237,0.3123,488,43.9453,157.4097,26.6724,85,1.4677,1.5688,24.4662,-51.9543,28,0.099,8722,3.9303,-120.1932
lg,1625399181641371352,0,-0.5872,-0.8474,0.7358,489,-23.5596,166.0156,61.5845,85,1.4677,1.5698,30.4848,-54.7773,28,0.099,8760,3.9303,-124.5088
lg,1625399181641415481,0,-1.0369,-1.0022,0.5,490,-27.5879,103.5767,91.8579,85,1.4637,1.5708,36.2959,-57.0785,28,0.1,8434,3.9303,-126.3334
lg,1625399181641460351,0,-1.199,-0.7058,0.593,491,-29.6631,-34.6069,112.1216,85,1.4547,1.5708,39.8712,-55.1506,28,0.102,8904,3.9303,-121.5502
lg,1625399181641505647,0,-1.1494,-0.5591,0.697,492,-56.8237,-137.146,156.5552,85,1.4417,1.5708,42.0186,-49.7533,28,0.102,8528,3.9303,-110.3553
lg,1625399181641549795,0,-0.0811,-0.5803,1.481,493,-83.374,-222.7783,180.542,85,1.4247,1.5678,36.769,-40.5489,28,0.1031,8906,3.9303,-91.8767
lg,1625399181641593832,0,0.3682,-0.697,0.6892,494,-74.9512,-380.6152,112.0605,85,1.4187,1.5668,25.7553,-35.9237,28,0.098,8992,3.9303,-77.0377
lg,1625399181641638980,0,0.6499,-1.3308,0.7615,495,-126.9531,-302.1851,50.5981,85,1.4177,1.5668,15.7842,-38.4925,28,0.099,8877,3.9303,-67.9031
lg,1625399181641684257,0,0.8904,-1.3184,0.4626,496,-55.603,-95.0928,33.6304,85,1.4207,1.5678,12.1017,-40.8654,28,0.101,8677,3.9303,-64.5872
lg,1625399181641731127,0,0.7122,-1.1033,0.3228,497,5.0049,97.229,-14.2212,85,1.4227,1.5678,13.1023,-42.4009,28,0.1031,8973,3.9303,-67.8836
lg,1625399181641778405,0,0.092,-0.9209,0.0356,498,44.1895,290.3442,-83.313,85,1.4237,1.5678,18.5379,-45.2761,27,0.1061,8988,3.9303,-79.0824
lg,1625399181641824738,0,-0.3416,-0.7932,-0.0852,499,53.9551,337.8296,-106.0181,85,1.4247,1.5688,25.636,-49.7053,27,0.1091,8972,3.9303,-93.3361
lg,1625399181641903811,0,-0.9827,-0.7642,0.1367,500,65.1245,336.3037,-79.7119,85,1.4277,1.5698,32.3475,-54.9257,27,0.1081,8979,3.9303,-108.0869
lg,1625399181641953089,0,-1.2935,-0.6079,0.4985,501,85.6934,131.4087,-29.9072,85,1.4347,1.5708,35.3556,-54.706,27,0.1081,14140,3.9303,-114.0314
lg,1625399181641997607,0,-1.009,-0.3591,0.5686,502,42.0532,-79.4678,10.3149,85,1.4417,1.5708,34.6161,-50.4562,28,0.1071,8829,3.9303,-110.2425
lg,1625399181642042959,0,-0.5886,-0.5857,0.5671,503,-17.4561,-214.0503,31.5552,85,1.4487,1.5718,29.9641,-46.3833,28,0.1071,9123,3.9303,-101.5555
lg,1625399181642261291,0,-0.1335,-1.0867,0.6838,504,-40.8936,-265.3809,30.4565,85,1.4567,1.5728,22.5304,-44.3645,28,0.1071,9050,3.9303,-92.4516
lg,1625399181642384401,0,0.303,-1.1753,0.626,505,-11.9629,-256.8359,15.0757,85,1.4627,1.5728,14.2983,-43.0315,28,0.1061,9306,3.9303,-84.8095
lg,1625399181642443697,0,0.5417,-1.0562,0.6294,506,21.4233,-115.3564,-9.0942,85,1.4667,1.5728,9.293,-42.1544,28,0.1031,9282,3.9303,-82.0462
lg,1625399181642499696,0,0.3772,-0.896,0.2922,507,29.2358,-41.626,-20.3857,85,1.4687,1.5718,7.9469,-42.0634,28,0.1031,9194,3.9303,-83.2243
lg,1625399181642552215,0,0.2104,-0.8137,0.2295,508,22.3999,53.2837,-12.6343,85,1.4677,1.5718,8.3706,-42.6065,28,0.1051,9143,3.9303,-85.2167
lg,1625399181642604751,0,-0.1787,-0.825,0.5491,509,-13.3057,124.3896,32.3486,85,1.4667,1.5718,12.9314,-44.1329,28,0.1051,8816,3.9303,-87.8235
lg,1625399181642656992,0,-0.6047,-0.8584,0.6338,510,-11.9629,119.5679,69.9463,85,1.4577,1.5718,18.9197,-45.3311,28,0.1071,9159,3.9303,-89.3482
lg,1625399181642709936,0,-0.9075,-0.7859,0.5591,511,-20.2026,58.3496,82.8857,85,1.4487,1.5728,23.8424,-46.1624,28,0.1071,9216,3.9303,-88.7654
lg,1625399181642761287,0,-0.8149,-0.6331,0.8596,512,-25.8789,-42.2974,88.3789,85,1.4357,1.5718,25.7263,-45.1403,28,0.1091,8879,3.9303,-84.565
lg,1625399182042762622,0,0.0583,-1.1873,0.5872,513,-54.4434,-142.0288,53.5278,85,1.4277,1.5708,22.2568,-45.6176,28,0.1091,27882,3.9303,-78.8281
lg,1625399182042849751,0,0.6201,-1.0037,0.7549,514,-6.2866,-83.313,40.8936,85,1.4327,1.5718,19.8064,-45.1356,28,0.1111,15053,3.9303,-77.1404
lg,1625399182042904065,0,0.5513,-0.8799,0.55,515,11.2915,21.0571,-11.1694,85,1.4397,1.5728,18.411,-45.4649,28,0.1131,8638,3.9303,-78.2649
lg,1625399182042954361,0,0.1328,-0.9097,0.457,516,6.8359,131.2866,-86.731,85,1.4477,1.5738,18.5018,-47.976,28,0.1151,8603,3.9303,-85.0099
lg,1625399182043001435,0,-0.3086,-1.0537,0.3784,517,0.7935,187.6221,-112.1216,85,1.4547,1.5738,19.7963,-51.8183,28,0.1151,8258,3.9303,-94.4088
lg,1625399182043048120,0,-0.582,-0.9126,0.1096,518,51.2085,139.7095,-94.5435,85,1.4557,1.5728,20.7469,-53.3199,28,0.1141,9829,3.9303,-101.9516
lg,1625399182043095342,0,-0.6899,-0.6436,0.3181,519,73.1812,48.2178,-58.4106,85,1.4627,1.5728,20.9538,-51.8234,28,0.1121,8310,3.9303,-105.2016
lg,1625399182043141212,0,-0.5073,-0.4116,0.5178,520,66.3452,20.752,-19.3481,85,1.4627,1.5728,22.0809,-49.9689,28,0.1141,8842,3.9303,-104.8381
lg,1625399182043185971,0,-0.5056,-0.7263,0.563,521,-47.3022,-56.0303,38.4521,85,1.4607,1.5738,22.1076,-50.8283,28,0.1151,13137,3.9303,-101.9436
lg,1625399182043278989,0,-0.54,-0.9946,0.7095,522,-56.0303,-62.0728,76.9653,85,1.4577,1.5738,23.0241,-51.5872,28,0.1151,8701,3.9303,-97.8119
lg,1625399182043330378,0,-0.4778,-0.9023,0.5037,523,-36.0718,-104.6143,70.1904,85,1.4507,1.5738,22.7016,-51.2524,28,0.1161,8377,3.9303,-92.497
lg,1625399182043378581,0,-0.3181,-0.7981,0.5918,524,-26.7944,-126.3428,79.2847,85,1.4457,1.5728,21.7655,-49.9756,28,0.1171,8767,3.9303,-86.1356
lg,1625399182043425859,0,-0.0037,-0.8347,0.8125,525,-17.7002,-112.854,86.9141,85,1.4457,1.5718,20.6198,-48.2872,28,0.1181,8798,3.9303,-79.9796
lg,1625399182043472247,0,0.2051,-0.9338,0.699,526,-20.2637,-61.4624,57.373,85,1.4467,1.5718,19.5436,-48.0588,28,0.1191,9631,3.9303,-76.4728
lg,1625399182043521191,0,0.3625,-1.0349,0.7966,527,-25.0244,-18.9819,7.6294,85,1.4507,1.5738,17.9674,-48.9574,28,0.1191,8849,3.9303,-75.7056
lg,1625399182043574561,0,0.2568,-0.9331,0.3411,528,-7.3853,24.4751,-47.4243,85,1.4557,1.5748,15.9676,-50.6627,28,0.1191,8937,3.9303,-78.0022
lg,1625399182043623376,0,-0.0659,-1.0515,0.5713,529,-3.0518,62.3779,-67.5659,85,1.4597,1.5748,15.5403,-52.3728,28,0.1161,8900,3.9303,-83.5968
lg,1625399182043704209,0,-0.1914,-1.0439,0.489,530,17.7002,129.3335,-80.1392,85,1.4627,1.5748,15.8294,-53.8632,28,0.1161,8943,3.9303,-90.0208
lg,1625399182043756542,0,-0.4485,-0.7954,0.0195,531,40.5273,85.083,-70.2515,85,1.4617,1.5738,16.1479,-54.6748,28,0.1161,8982,3.9303,-94.9224
lg,1625399182043801764,0,-0.4966,-0.7415,0.469,532,40.2222,28.5645,-17.4561,85,1.4587,1.5738,16.7695,-53.5586,28,0.1151,8952,3.9303,-96.335
lg,1625399182043846393,0,-0.4351,-0.6372,0.3706,533,8.9111,-6.958,33.8745,85,1.4647,1.5738,18.2297,-53.0873,28,0.1151,8964,3.9303,-95.3126
lg,1625399182043894004,0,-0.428,-0.9656,0.7385,534,-42.7246,-86.0596,62.0117,85,1.4637,1.5748,18.2101,-53.3612,28,0.1181,9041,3.9303,-90.8366
lg,1625399182043939467,0,-0.2283,-0.9463,0.5605,535,-44.5557,-113.0371,78.6743,85,1.4587,1.5758,17.4746,-53.2451,28,0.1191,9022,3.9303,-84.6363
lg,1625399182043983744,0,-0.145,-0.8435,0.6423,536,-31.9214,-123.5962,60.791,85,1.4517,1.5748,16.2775,-53.0374,28,0.1191,9403,3.9303,-79.0285
lg,1625399182044028485,0,-0.322,-0.7544,0.4119,537,-23.3154,-97.0459,25.7568,85,1.4457,1.5738,15.3303,-53.3601,28,0.1181,10586,3.9303,-74.6949
lg,1625399182044074985,0,-0.1458,-0.8567,0.6333,538,-34.3018,-114.3188,54.9927,85,1.4417,1.5728,14.0849,-53.4134,28,0.1181,9182,3.9303,-69.5426
lg,1625399182044119947,0,0.0417,-0.9873,0.6399,539,-24.5972,-80.3833,48.0347,85,1.4417,1.5698,13.098,-53.6285,28,0.1171,9118,3.9303,-65.7411
lg,1625399182044163428,0,0.1758,-0.9812,0.5498,540,-6.958,-22.0947,37.5977,85,1.4457,1.5738,12.9406,-53.8087,28,0.1181,9129,3.9303,-64.1615
lg,1625399182044207595,0,0.1392,-0.9084,0.4263,541,5.5542,28.0762,12.207,85,1.4457,1.5738,13.1895,-54.1623,28,0.1211,9177,3.9303,-64.8994
lg,1625399182044253687,0,-0.0371,-0.8843,0.5273,542,9.0332,58.4106,-15.4419,85,1.4517,1.5748,13.6009,-54.5322,28,0.1211,9182,3.9303,-67.2675
lg,1625399182044298076,0,-0.1643,-0.9272,0.4729,543,0.2441,63.8428,-35.9497,85,1.4577,1.5748,13.6947,-55.5583,28,0.1211,9201,3.9303,-70.3461
lg,1625399182044343872,0,-0.1187,-1.0173,0.5049,544,-2.8076,35.0952,-34.5459,85,1.4627,1.5758,13.0261,-56.4433,28,0.1191,9788,3.9303,-72.4085
lg,1625399182413559582,0,0.0237,-0.9333,0.095,545,44.9829,-12.5732,-45.6543,85,1.4677,1.5728,10.7202,-54.9562,28,0.1131,26393,3.9303,-72.9671
lg,1625399182413644693,0,0.1409,-0.6201,0.2856,546,61.5234,3.6011,-18.6768,85,1.4667,1.5708,11.1071,-53.7298,28,0.1141,9685,3.9303,-74.1234
lg,1625399182413698156,0,-0.1172,-0.7966,0.6021,547,-16.1133,81.9702,55.7861,85,1.4657,1.5718,14.6403,-54.6369,28,0.1141,10587,3.9303,-75.5117
lg,1625399182413749600,0,-0.408,-0.9072,0.6829,548,-8.9722,83.6182,76.355,85,1.4637,1.5728,19.2399,-55.2193,28,0.1131,8618,3.9303,-76.5329
lg,1625399182413797155,0,-0.728,-0.7632,0.468,549,-10.437,48.9502,56.1523,85,1.4577,1.5728,22.9545,-55.8652,28,0.1121,8615,3.9303,-76.9449
lg,1625399182413843692,0,-0.9929,-0.7278,0.6357,550,-16.3574,-5.4932,78.6743,85,1.4497,1.5728,26.3031,-55.3912,28,0.1151,8295,3.9303,-74.7043
lg,1625399182413888932,0,-0.7573,-0.6262,1.0107,551,-9.1553,-45.105,92.5903,85,1.4427,1.5728,26.828,-52.6583,28,0.1161,8668,3.9303,-68.8594
lg,1625399182413931969,0,-0.502,-0.6406,0.8594,552,-44.1284,-148.6816,67.627,85,1.4387,1.5718,23.504,-50.8158,28,0.1151,9831,3.9303,-59.9704
lg,1625399182413975950,0,0.2468,-1.1077,0.6855,553,-61.5845,-212.8296,60.1196,85,1.4387,1.5728,19.2843,-50.8922,28,0.1171,8722,3.9303,-52.6272
lg,1625399182414020802,0,0.426,-1.1865,0.6333,554,-49.6826,-126.4038,41.9312,85,1.4397,1.5728,15.9587,-51.7611,28,0.1191,8795,3.9303,-47.5372
lg,1625399182414105061,0,0.5862,-1.1265,0.5161,555,-13.3667,11.8408,23.8647,85,1.4397,1.5728,15.5152,-52.7259,28,0.1201,8820,3.9303,-47.4493
lg,1625399182414179579,0,0.2705,-0.9956,0.3721,556,18.4937,150.0854,1.5259,85,1.4427,1.5738,18.0074,-54.0808,28,0.1211,8499,3.9303,-52.6184
lg,1625399182414226449,0,-0.2041,-0.8909,0.3357,557,26.001,219.2993,-26.9775,85,1.4457,1.5748,21.8621,-56.5,28,0.1201,8844,3.9303,-61.1266
lg,1625399182414272208,0,-0.5383,-0.865,0.3167,558,25.8179,209.9609,-26.7944,85,1.4507,1.5748,25.2927,-58.9806,28,0.1211,8867,3.9303,-68.6235
lg,1625399182414314652,0,-0.6301,-0.8491,0.3364,559,20.6909,147.2778,-22.2168,85,1.4557,1.5728,27.7985,-61.263,28,0.1201,8828,3.9303,-74.984
lg,1625399182414357930,0,-0.6077,-0.8579,0.386,560,20.6909,49.1333,-9.7046,85,1.4617,1.5758,28.5851,-61.6206,28,0.1201,8908,3.9303,-77.2306
lg,1625399182414401689,0,-0.3101,-0.8394,0.491,561,24.231,-60.3027,-0.3052,85,1.4647,1.5758,26.9654,-59.4536,28,0.1191,8918,3.9303,-74.8205
lg,1625399182414444374,0,0.0063,-0.8723,0.448,562,18.6768,-106.0181,-0.6714,84,1.4647,1.5748,23.6922,-57.1473,28,0.1181,8854,3.9325,-70.9232
lg,1625399182414488077,0,0.1472,-0.9109,0.4202,563,21.2402,-96.4355,-3.8452,84,1.4667,1.5738,20.725,-55.4515,28,0.1171,8609,3.9325,-68.6055
lg,1625399182414531021,0,0.1147,-0.7678,0.4226,564,18.0054,-12.5732,27.0386,84,1.4667,1.5738,20.2518,-54.5777,28,0.1181,12926,3.9325,-67.5977
lg,1625399182414574151,0,-0.2368,-0.8818,0.7808,565,-7.8125,59.3262,59.082,84,1.4667,1.5748,23.1866,-54.8493,28,0.1191,9014,3.9325,-68.1304
lg,1625399182414616410,0,-0.4951,-0.7581,0.6528,566,-0.5493,67.0166,65.6738,84,1.4647,1.5748,26.9821,-54.9585,28,0.1201,9018,3.9325,-68.8045
lg,1625399182414789631,0,-0.7554,-0.6956,0.5425,567,-5.0659,52.4902,56.6406,84,1.4607,1.5758,29.643,-55.36,28,0.1191,9008,3.9325,-68.5616
lg,1625399182414839353,0,-0.7791,-0.7026,0.5156,568,-26.4893,-17.334,51.4526,84,1.4557,1.5748,31.4125,-55.3176,28,0.1211,8727,3.9325,-66.5074
lg,1625399182414885167,0,-0.4163,-0.8208,0.6558,569,-31.0669,-112.5488,60.5469,84,1.4527,1.5738,30.3818,-53.3362,28,0.1221,9975,3.9325,-60.5056
lg,1625399182414930111,0,-0.0188,-1.0393,0.4985,570,-40.1001,-144.6533,55.2979,84,1.4547,1.5748,27.5658,-52.1299,28,0.1221,9625,3.9325,-53.9683
lg,1625399182414973296,0,0.2097,-1.146,0.4507,571,-21.3013,-109.5581,16.0522,84,1.4577,1.5768,23.9804,-51.9487,28,0.1231,10810,3.9325,-50.0783
lg,1625399182415017889,0,0.2913,-1.0857,0.2795,572,6.4697,-35.6445,-3.0518,84,1.4617,1.5758,21.6702,-52.1941,28,0.1231,9233,3.9325,-49.3236
lg,1625399182415059740,0,0.1711,-1.0134,0.3662,573,26.6724,26.2451,-20.2637,84,1.4647,1.5768,20.5435,-52.373,28,0.1221,9217,3.9325,-51.0186
lg,1625399182415102518,0,-0.0232,-0.874,0.324,574,56.6406,53.2227,-21.9116,84,1.4647,1.5768,20.4433,-51.654,28,0.1231,9244,3.9325,-53.6456
lg,1625399182415146684,0,-0.2126,-0.6243,0.5178,575,53.4668,46.9971,-15.5029,84,1.4667,1.5778,20.9078,-50.1535,28,0.1231,9279,3.9325,-55.6056
lg,1625399182415190054,0,-0.5469,-0.624,0.6179,576,18.4326,75.8057,28.5034,84,1.4627,1.5768,24.1442,-49.8883,28,0.1241,9266,3.9325,-57.2664
lg,1625399182801986144,0,-0.637,-0.6377,0.6943,577,-24.9634,-80.9937,29.6021,84,1.4407,1.5718,23.3472,-49.1836,28,0.1241,27999,3.9325,-53.6123
lg,1625399182802072181,0,-0.4199,-0.9644,0.6589,578,-39.1846,-99.7925,31.0669,84,1.4407,1.5708,21.5618,-49.4071,28,0.1251,13130,3.9325,-49.5551
lg,1625399182802124884,0,-0.0505,-0.9302,0.5757,579,-21.4233,-95.7642,38.5742,84,1.4407,1.5708,19.5176,-49.1566,28,0.1251,8234,3.9325,-45.5133
lg,1625399182802174180,0,0.1604,-0.9778,0.6213,580,-21.8506,-106.3232,28.8086,84,1.4427,1.5718,16.583,-49.0686,28,0.1261,8286,3.9325,-41.4507
lg,1625399182802221939,0,0.4766,-1.0879,0.4114,581,-24.1699,-66.4062,11.6577,84,1.4457,1.5718,13.8378,-50.1402,28,0.1271,8634,3.9325,-39.2415
lg,1625399182802308957,0,0.3508,-1.125,0.2998,582,-8.7891,36.499,-11.7798,84,1.4487,1.5738,13.2733,-51.7665,28,0.1271,9776,3.9325,-40.9263
lg,1625399182802357050,0,0.082,-1.1147,0.3623,583,15.2588,111.8164,-34.668,84,1.4577,1.5748,14.2389,-53.0278,28,0.1231,9360,3.9325,-45.627
lg,1625399182802403475,0,-0.1172,-0.9829,0.3013,584,40.4663,121.9482,-65.6128,84,1.4607,1.5758,14.7528,-53.6147,28,0.1221,13963,3.9325,-51.4791
lg,1625399182802449734,0,-0.1626,-0.9314,0.1533,585,55.7861,109.7412,-70.6787,84,1.4597,1.5758,15.1308,-53.6067,28,0.1201,8759,3.9325,-57.0819
lg,1625399182802492623,0,-0.2966,-0.8264,0.4541,586,77.5146,86.9141,-66.1621,84,1.4567,1.5738,15.2077,-51.9834,28,0.1171,9371,3.9325,-61.6795
lg,1625399182802536586,0,-0.3535,-0.532,0.5178,587,76.9653,85.8154,-13.916,84,1.4547,1.5728,17.3343,-49.5462,28,0.1161,8382,3.9325,-64.745
lg,1625399182802579845,0,-0.5054,-0.5249,0.6008,588,23.7427,79.895,19.8364,84,1.4537,1.5728,20.5957,-48.9439,28,0.1171,9784,3.9325,-66.6672
lg,1625399182802626178,0,-0.7205,-0.9292,0.907,589,-20.2026,38.147,51.6968,84,1.4557,1.5728,23.4773,-49.5381,28,0.1181,9345,3.9325,-66.4188
lg,1625399182802671381,0,-0.6638,-0.7781,0.6719,590,-18.3105,-62.6831,61.7676,84,1.4567,1.5728,24.077,-48.6919,28,0.1191,8855,3.9325,-62.5657
lg,1625399182802716511,0,-0.6228,-0.6741,0.5789,591,-26.5503,-103.5767,60.3027,84,1.4577,1.5738,23.2968,-47.8343,28,0.1181,8855,3.9325,-56.4132
lg,1625399182802790566,0,-0.5283,-0.6992,0.5027,592,-51.5137,-137.146,86.853,84,1.4597,1.5718,22.5117,-47.4077,28,0.1201,8910,3.9325,-49.5594
lg,1625399182802838177,0,-0.3279,-0.8855,0.5518,593,-64.6362,-155.9448,105.5908,84,1.4477,1.5748,21.2339,-47.415,28,0.1201,8559,3.9325,-41.6988
lg,1625399182802881806,0,0.1367,-0.9758,0.7415,594,-42.4805,-161.2549,84.1064,84,1.4527,1.5748,18.2832,-46.8017,28,0.1221,8604,3.9325,-34.334
lg,1625399182802926139,0,0.3618,-1.0601,0.6179,595,-44.3115,-103.2104,50.354,84,1.4527,1.5748,15.698,-47.7197,28,0.1221,8988,3.9325,-29.8837
lg,1625399182802970028,0,0.3655,-1.0889,0.5161,596,-30.9448,-64.5142,26.3672,84,1.4547,1.5758,14.6712,-49.1022,28,0.1241,9032,3.9325,-29.4203
lg,1625399182803013879,0,0.2075,-1.0867,0.4285,597,-9.0942,31.3721,1.4038,84,1.4557,1.5738,14.5957,-50.4602,28,0.1221,9051,3.9325,-30.5597
lg,1625399182803062638,0,0.0356,-0.957,0.4128,598,12.085,74.3408,-16.8457,84,1.4557,1.5768,15.3068,-51.3525,28,0.1221,8717,3.9325,-33.5524
lg,1625399182803313581,0,-0.239,-0.8452,0.2307,599,25.8179,90.4541,-34.0576,84,1.4607,1.5768,16.4987,-52.2678,28,0.1221,9082,3.9325,-37.6258
lg,1625399182803386618,0,-0.4524,-0.7698,0.3721,600,29.48,35.2783,-22.522,84,1.4617,1.5768,17.1046,-52.0165,28,0.1251,9066,3.9325,-39.4863
lg,1625399182803440543,0,-0.4604,-0.7429,0.4861,601,3.9062,-6.5308,25.7568,84,1.4597,1.5768,18.1579,-51.7566,28,0.1251,8753,3.9325,-38.6517
lg,1625399182803492747,0,-0.4541,-0.8215,0.6694,602,-8.0566,-22.583,41.8091,84,1.4567,1.5768,18.6241,-50.9227,28,0.1241,9210,3.9325,-36.1722
lg,1625399182803545765,0,-0.3513,-0.8218,0.5918,603,-5.249,-46.875,33.5693,84,1.4517,1.5738,18.4997,-50.4768,28,0.1231,8803,3.9325,-33.7815
lg,1625399182803591302,0,-0.2659,-0.7844,0.5813,604,-17.5171,-79.3457,19.043,84,1.4477,1.5748,16.945,-50.345,28,0.1201,9738,3.9325,-30.7348
lg,1625399182803648042,0,-0.2273,-0.8884,0.5159,605,-26.3062,-74.2188,16.1743,84,1.4477,1.5748,15.4035,-50.9785,28,0.1191,11034,3.9325,-28.0213
lg,1625399182803695838,0,-0.0303,-0.9998,0.6123,606,-7.1411,-39.0625,36.0718,84,1.4487,1.5748,15.0017,-50.9829,28,0.1201,9375,3.9325,-25.9028
lg,1625399182803792301,0,0.0505,-0.9468,0.5371,607,6.2256,10.498,25.1465,84,1.4437,1.5758,15.3603,-51.0261,28,0.1191,8887,3.9325,-25.6873
lg,1625399182803842856,0,0.0195,-0.8667,0.4133,608,7.6904,34.3018,8.3008,84,1.4517,1.5748,15.8387,-51.4976,28,0.1211,8924,3.9325,-26.7285
lg,1625399183194499083,0,-0.1799,-0.9263,0.469,609,9.3994,66.5894,-22.8882,84,1.4607,1.5768,16.5201,-52.3541,28,0.1241,28044,3.9325,-29.6275
lg,1625399183194615471,0,-0.1763,-0.9756,0.5161,610,15.9912,43.7012,-23.4375,84,1.4657,1.5768,16.544,-52.6827,28,0.1241,14886,3.9325,-31.781
lg,1625399183194671749,0,-0.063,-0.9348,0.542,611,27.3438,33.5083,-27.0996,84,1.4637,1.5758,15.5331,-51.9403,27,0.1211,8703,3.9325,-33.8398
lg,1625399183194720785,0,-0.0815,-0.7991,0.3599,612,48.9502,33.6914,-47.7295,84,1.4597,1.5748,14.7102,-50.9199,27,0.1161,8853,3.9325,-36.5715
lg,1625399183194768693,0,-0.1353,-0.7207,0.3425,613,55.542,52.4292,-40.3442,84,1.4577,1.5728,14.6075,-49.9309,27,0.1171,8664,3.9325,-39.444
lg,1625399183194811970,0,-0.3384,-0.6267,0.3918,614,28.6255,89.4775,7.9346,84,1.4577,1.5718,17.5354,-49.8076,28,0.1191,9578,3.9325,-42.1575
lg,1625399183194857340,0,-0.6084,-0.8918,0.8528,615,-17.8833,74.2798,67.2607,84,1.4557,1.5728,21.8268,-50.5772,28,0.1191,8781,3.9325,-42.7212
lg,1625399183194900951,0,-0.689,-0.7961,0.5073,616,-24.9634,-30.8228,80.4443,84,1.4587,1.5738,24.09,-50.5295,28,0.1181,8787,3.9325,-39.5555
lg,1625399183194945821,0,-0.7515,-0.7429,0.5161,617,-32.3486,-79.834,73.5474,84,1.4567,1.5748,24.2459,-49.9272,28,0.1181,8399,3.9325,-34.0511
lg,1625399183194992376,0,-0.7161,-0.762,0.6025,618,-45.8374,-118.7744,84.5337,84,1.4517,1.5758,24.2278,-49.1833,28,0.1201,8777,3.9325,-27.6957
lg,1625399183195039043,0,-0.2273,-0.7393,0.4746,619,-24.9023,-195.7397,73.4253,84,1.4387,1.5738,20.859,-47.2669,28,0.1231,8410,3.9325,-19.3986
lg,1625399183195188246,0,0.1865,-0.9297,0.6648,620,-61.2183,-202.4536,49.8657,84,1.4417,1.5738,15.7485,-47.5734,28,0.1201,9607,3.9325,-11.8035
lg,1625399183195237042,0,0.2986,-1.1833,0.5762,621,-48.8892,-113.0371,17.6392,84,1.4447,1.5738,12.2266,-49.1916,28,0.1221,10649,3.9325,-7.9949
lg,1625399183195283486,0,0.2615,-1.1179,0.3936,622,-6.0425,-5.5542,0.1831,84,1.4437,1.5748,11.171,-50.2122,28,0.1231,8882,3.9325,-7.9848
lg,1625399183195330060,0,0,-0.9253,0.356,623,19.3481,76.4771,-17.0288,84,1.4437,1.5748,12.1604,-50.7509,28,0.1241,8508,3.9325,-10.9829
lg,1625399183195375282,0,-0.1331,-0.8784,0.4033,624,24.6582,98.8159,-19.2871,84,1.4457,1.5758,14.3301,-51.0757,28,0.1261,8927,3.9325,-14.946
lg,1625399183195418930,0,-0.3276,-0.8062,0.4246,625,24.5361,96.4355,-18.1274,84,1.4477,1.5758,16.383,-51.4653,28,0.1261,8946,3.9325,-18.6455
lg,1625399183195461929,0,-0.3345,-0.8506,0.4573,626,17.2729,44.1284,-19.7754,84,1.4557,1.5768,16.264,-51.5961,28,0.1251,8652,3.9325,-19.6706
lg,1625399183195505522,0,-0.1812,-0.9272,0.4717,627,9.5825,-26.5503,-5.4321,84,1.4597,1.5768,15.1943,-51.4668,28,0.1241,8670,3.9325,-19.0724
lg,1625399183195550725,0,-0.0776,-0.9199,0.5164,628,14.2822,-36.1938,-2.9907,84,1.4637,1.5768,13.5863,-50.9328,27,0.1231,8964,3.9325,-18.0674
lg,1625399183195637669,0,0.1018,-0.8843,0.5339,629,36.499,-34.1797,-8.7891,84,1.4667,1.5768,11.7034,-49.5623,27,0.1221,9056,3.9325,-17.2924
lg,1625399183195688002,0,0.0845,-0.7825,0.5322,630,42.8467,0,-12.8784,84,1.4677,1.5758,10.6606,-48.1594,27,0.1221,8669,3.9325,-17.6954
lg,1625399183195735669,0,0.0166,-0.7739,0.5762,631,35.0952,50.415,2.9907,84,1.4677,1.5748,11.6395,-47.2353,27,0.1201,10654,3.9325,-19.1789
lg,1625399183195781854,0,-0.1602,-0.845,0.7075,632,19.165,93.4448,19.3481,84,1.4677,1.5718,14.5954,-47.0894,28,0.1201,9084,3.9325,-21.4817
lg,1625399183195825928,0,-0.269,-0.9136,0.7112,633,9.1553,89.2334,30.2734,84,1.4677,1.5748,17.8281,-47.4375,28,0.1221,9111,3.9325,-23.4127
lg,1625399183195870187,0,-0.3516,-0.9316,0.6919,634,-9.3994,56.0913,39.6118,84,1.4687,1.5748,20.4567,-48.248,28,0.1241,9141,3.9325,-24.125
lg,1625399183196071797,0,-0.4133,-0.8181,0.4453,635,-23.7427,23.5596,43.457,84,1.4707,1.5758,22.529,-49.5227,28,0.1241,8804,3.9325,-23.8419
lg,1625399183196142926,0,-0.5811,-0.7737,0.3914,636,-31.0669,6.5308,48.5229,84,1.4667,1.5768,24.6132,-50.5459,28,0.1231,9182,3.9325,-21.9884
lg,1625399183196187907,0,-0.6348,-0.7734,0.3708,637,-34.4238,-28.2593,77.0874,84,1.4587,1.5758,26.7717,-51.0316,28,0.1231,8829,3.9325,-19.0573
lg,1625399183196236073,0,-0.366,-0.7363,0.8293,638,-25.6958,-81.665,90.5762,84,1.4517,1.5748,25.4438,-48.9574,28,0.1241,9548,3.9325,-13.5942
lg,1625399183196339610,0,-0.1855,-0.7556,0.6038,639,-22.9492,-118.8354,47.4243,84,1.4487,1.5758,22.8219,-47.6985,28,0.1211,9243,3.9325,-8.3212
lg,1625399183196395610,0,0,-0.9983,0.564,640,-37.6587,-130.8594,23.0713,84,1.4487,1.5728,19.1539,-48.0011,28,0.1201,9291,3.9325,-3.7025
lg,1625399183571880753,0,0.3591,-0.9258,0.3728,641,24.9023,28.0762,24.6582,84,1.4507,1.5768,19.2447,-47.8373,28,0.1231,28150,3.9325,-4.1489
lg,1625399183571920068,0,-0.0569,-0.8145,0.4463,642,38.269,161.3159,-0.1831,84,1.4547,1.5768,22.9013,-48.7225,28,0.1251,14961,3.9325,-9.5049
lg,1625399183571940660,0,-0.3643,-0.8354,0.4924,643,37.4146,172.3022,-4.7607,84,1.4587,1.5768,27.1199,-50.1607,28,0.1281,8580,3.9325,-15.595
lg,1625399183571960271,0,-0.4722,-0.8342,0.5444,644,36.499,124.2065,-2.8076,84,1.4627,1.5768,30.0881,-51.1011,28,0.1281,8625,3.9325,-20.1815
lg,1625399183571978827,0,-0.4172,-0.7627,0.5757,645,36.6211,98.2666,0.4272,84,1.4677,1.5758,31.6741,-50.9168,28,0.1261,8474,3.9325,-22.7222
lg,1625399183571997567,0,-0.3521,-0.7898,0.5786,646,29.7241,36.7432,-2.0752,84,1.4707,1.5758,32.0587,-50.5855,28,0.1241,13019,3.9325,-24.1906
lg,1625399183572029086,0,-0.2822,-0.8411,0.5447,647,28.3813,26.8555,-2.6855,84,1.4707,1.5758,32.017,-50.2951,28,0.1221,8341,3.9325,-25.4038
lg,1625399183572048308,0,-0.3359,-0.8413,0.4756,648,15.8691,19.8364,0.4272,84,1.4707,1.5748,32.0376,-50.4743,28,0.1221,8728,3.9325,-26.3479
lg,1625399183572066382,0,-0.4114,-0.7651,0.3918,649,5.249,9.1553,13.7939,84,1.4707,1.5758,32.693,-50.2897,28,0.1231,8725,3.9325,-25.3288
lg,1625399183572084474,0,-0.4956,-0.7883,0.6333,650,-6.4087,-17.5781,47.7905,84,1.4697,1.5758,33.4341,-49.4175,28,0.1261,8389,3.9325,-23.2345
lg,1625399183572101993,0,-0.5637,-0.7305,0.501,651,-10.6812,-35.3394,67.5659,84,1.4637,1.5758,34.5003,-48.1571,28,0.1271,9044,3.9325,-19.9351
lg,1625399183572120270,0,-0.5894,-0.7673,0.5771,652,-21.6675,-64.5752,76.2939,84,1.4537,1.5768,34.8813,-46.4572,28,0.1281,8865,3.9325,-15.2144
lg,1625399183572137844,0,-0.262,-0.7327,0.6423,653,-14.5264,-109.1309,74.585,84,1.4517,1.5758,33.1527,-43.6277,28,0.1271,9038,3.9325,-9.0137
lg,1625399183572154826,0,-0.0427,-0.9639,0.7791,654,-35.6445,-111.3892,66.04,84,1.4417,1.5748,30.5449,-42.2995,28,0.1261,10978,3.9325,-3.3579
lg,1625399183572171863,0,0.0452,-1.0222,0.6348,655,-16.6626,-69.0918,31.7993,84,1.4487,1.5748,28.1782,-42.0908,28,0.1251,8899,3.9325,-0.5052
lg,1625399183572189474,0,0.1707,-0.9246,0.625,656,-0.6104,-37.4756,20.5688,84,1.4507,1.5758,26.853,-41.7995,28,0.1281,8541,3.9325,0.3146
lg,1625399183572207140,0,0.1357,-0.8884,0.5667,657,10.8643,9.9487,10.3149,84,1.4517,1.5738,26.1786,-42.0161,28,0.1291,8454,3.9325,0.0537
lg,1625399183572224437,0,-0.208,-0.8892,0.4487,658,17.5171,76.9043,-15.686,84,1.4547,1.5768,27.4891,-43.4965,28,0.1301,8890,3.9325,-3.1999
lg,1625399183572241418,0,-0.5081,-0.8613,0.5339,659,25.6958,98.3887,-18.5547,84,1.4577,1.5778,29.7627,-44.8378,28,0.1321,8677,3.9325,-7.2074
lg,1625399183572259103,0,-0.6062,-0.7476,0.4446,660,24.8413,38.3911,-15.0146,84,1.4617,1.5768,30.6385,-45.2543,28,0.1301,8981,3.9325,-9.2234
lg,1625399183572276121,0,-0.4316,-0.7483,0.5366,661,17.8833,-49.1333,4.8828,84,1.4637,1.5768,29.1764,-44.0295,28,0.1311,9039,3.9325,-7.6537
lg,1625399183572293436,0,-0.3293,-0.7979,0.5139,662,12.3291,-68.9087,11.3525,84,1.4647,1.5768,27.0637,-43.0956,28,0.1311,9084,3.9325,-5.4929
lg,1625399183572310473,0,-0.2344,-0.894,0.5029,663,-6.2866,-80.5054,31.7383,84,1.4637,1.5778,25.0642,-42.5521,28,0.1321,9040,3.9325,-2.3536
lg,1625399183572327788,0,-0.228,-0.9404,0.6602,664,-13.3667,-66.5283,54.3823,84,1.4627,1.5778,24.0445,-42.0455,28,0.1341,8718,3.9325,1.1639
lg,1625399183572344473,0,-0.1313,-0.7566,0.4402,665,2.1973,-69.1528,32.1655,84,1.4557,1.5768,22.2825,-41.494,28,0.1321,9087,3.9325,3.9099
lg,1625399183572375621,0,-0.1938,-0.8398,0.5369,666,-8.8501,-62.9272,30.5176,84,1.4537,1.5778,20.7993,-41.4737,28,0.1311,9107,3.9325,6.4409
lg,1625399183572476787,0,-0.1758,-0.9307,0.5635,667,-7.9346,-61.4014,31.4941,84,1.4497,1.5758,20.0298,-41.5432,28,0.1291,8780,3.9325,8.6182
lg,1625399183572501509,0,-0.1279,-0.9197,0.5732,668,3.3569,-27.2217,39.978,84,1.4487,1.5758,19.7657,-41.3429,28,0.1281,9131,3.9325,10.4405
lg,1625399183572521602,0,-0.1572,-0.8718,0.5986,669,17.4561,8.3008,34.729,90,1.4477,1.5758,20.5008,-40.9198,28,0.1281,9736,3.927,11.1206
lg,1625399183572541027,0,-0.1831,-0.8303,0.6086,670,18.9209,15.8691,27.3438,90,1.4477,1.5698,21.2966,-40.5288,28,0.1281,9224,3.927,11.3752
lg,1625399183572561472,0,-0.0759,-0.8262,0.5554,671,17.0288,-2.0752,19.5923,90,1.4537,1.5768,21.1063,-40.2387,28,0.1311,9130,3.927,11.8346
lg,1625399183572579953,0,-0.1038,-0.8853,0.5781,672,16.9067,12.3291,4.5776,90,1.4547,1.5778,21.0205,-40.3165,28,0.1331,9645,3.927,11.3925
lg,1625399183955864239,0,-0.2324,-0.769,0.5361,673,29.7852,35.5225,-8.728,90,1.4657,1.5778,21.5563,-39.9308,28,0.1291,28155,3.927,9.8449
lg,1625399183955893962,0,-0.1958,-0.7717,0.5837,674,40.5884,46.2036,-14.8315,90,1.4667,1.5778,22.209,-39.4983,28,0.1271,9345,3.927,7.8794
lg,1625399183955914795,0,-0.2141,-0.8315,0.6504,675,40.5273,63.2935,-21.5454,90,1.4657,1.5768,23.1979,-39.3456,28,0.1241,8578,3.927,5.2143
lg,1625399183955934295,0,-0.2571,-0.8557,0.5701,676,41.8701,76.8433,-24.8413,90,1.4647,1.5768,24.5961,-39.5766,28,0.1211,8611,3.927,1.9574
lg,1625399183955952276,0,-0.4089,-0.7908,0.4863,677,24.9023,73.1201,-12.8784,90,1.4647,1.5768,26.4977,-40.4051,28,0.1221,8638,3.927,-0.8776
lg,1625399183955970128,0,-0.4949,-0.7546,0.5105,678,13.7939,61.8896,3.7231,90,1.4647,1.5768,28.5596,-41.2328,28,0.1241,8743,3.927,-2.8489
lg,1625399183955988017,0,-0.6902,-0.7102,0.5068,679,-2.2583,7.8125,45.8984,90,1.4657,1.5768,30.4012,-41.1151,28,0.1261,8733,3.927,-1.7207
lg,1625399183956005257,0,-0.7805,-0.7202,0.467,680,-14.4653,-54.9316,92.6514,90,1.4617,1.5778,31.6308,-39.6577,28,0.1261,8738,3.927,2.9752
lg,1625399183956043442,0,-0.3962,-0.6357,1.0073,681,3.7231,-115.8447,100.0366,90,1.4557,1.5768,29.9023,-35.6091,28,0.1261,8732,3.927,10.116
lg,1625399183956062794,0,-0.1321,-0.6675,0.6934,682,19.165,-148.8647,74.4019,90,1.4487,1.5758,25.4235,-33.6657,28,0.1241,8775,3.927,16.2836
lg,1625399183956080683,0,0.0439,-0.8472,0.8032,683,-38.0249,-157.7148,58.2275,90,1.4447,1.5758,20.4517,-33.4245,28,0.1231,8737,3.927,21.9414
lg,1625399183956097923,0,0.075,-1.0413,0.5396,684,-26.3672,-109.8022,28.5645,90,1.4467,1.5738,16.6318,-34.488,28,0.1211,8408,3.927,25.1318
lg,1625399183956114923,0,0.1084,-1.0144,0.4878,685,15.5029,-37.1094,29.9683,90,1.4437,1.5738,15.3199,-34.5084,28,0.1211,8862,3.927,26.6984
lg,1625399183956132979,0,0.0471,-0.8357,0.4587,686,41.748,36.438,21.1792,90,1.4447,1.5738,16.3504,-33.9302,28,0.1191,8844,3.927,26.286
lg,1625399183956150886,0,-0.1128,-0.7803,0.4897,687,48.0347,72.876,13.9771,90,1.4437,1.5738,19.6814,-33.1801,28,0.1191,8837,3.927,24.5007
lg,1625399183956168571,0,-0.3086,-0.708,0.5295,688,52.6123,89.8438,18.0664,90,1.4447,1.5738,23.1818,-32.2687,28,0.1191,8488,3.927,22.8355
lg,1625399183956185627,0,-0.405,-0.7209,0.6558,689,46.3257,48.2788,20.3857,90,1.4467,1.5748,25.2454,-31.1701,28,0.1191,15258,3.927,22.2384
lg,1625399183956202590,0,-0.3862,-0.7202,0.666,690,40.6494,15.0757,18.6768,90,1.4487,1.5748,26.024,-30.0291,28,0.1201,8537,3.927,22.3323
lg,1625399183956219256,0,-0.3391,-0.7231,0.6826,691,35.7056,-12.4512,17.4561,90,1.4507,1.5748,25.6867,-28.8685,28,0.1211,8905,3.927,22.9788
lg,1625399183956236423,0,-0.2888,-0.7559,0.6531,692,34.3628,-19.8364,20.5688,90,1.4537,1.5758,25.0604,-27.8077,28,0.1201,8946,3.927,23.8316
lg,1625399183956253293,0,-0.272,-0.7612,0.6526,693,35.8276,-19.104,19.043,90,1.4567,1.5758,24.3682,-26.7125,28,0.1211,8945,3.927,24.5925
lg,1625399183956270108,0,-0.2515,-0.7539,0.6697,694,39.4287,-21.0571,19.5312,90,1.4607,1.5758,23.4684,-25.4961,28,0.1231,9076,3.927,25.3855
lg,1625399183956286941,0,-0.2458,-0.7375,0.6436,695,41.8091,-25.6958,16.6626,90,1.4627,1.5738,22.5218,-24.3325,28,0.1221,9214,3.927,26.1316
lg,1625399183956313867,0,-0.2322,-0.7476,0.6587,696,42.9077,-30.0293,16.1133,90,1.4637,1.5768,21.389,-23.1639,28,0.1211,9061,3.927,26.9109
lg,1625399183956330774,0,-0.2,-0.7505,0.6367,697,42.6025,-37.5366,10.8643,90,1.4637,1.5758,19.8703,-22.1521,28,0.1201,9091,3.927,27.568
lg,1625399183956347163,0,-0.2246,-0.7888,0.5818,698,43.8232,-41.8091,7.3853,90,1.4667,1.5768,18.2663,-21.3106,28,0.1181,9115,3.927,28.0976
lg,1625399183956363774,0,-0.1792,-0.7991,0.5652,699,53.894,-42.1143,11.1694,90,1.4657,1.5758,16.6594,-20.1258,28,0.1181,8763,3.927,28.7543
lg,1625399183956380163,0,-0.1646,-0.7622,0.5789,700,62.439,-38.6353,13.1836,90,1.4647,1.5758,15.3758,-18.1739,28,0.1161,9193,3.927,29.4767
lg,1625399183956396570,0,-0.1064,-0.6343,0.6443,701,76.0498,-18.7988,20.6909,90,1.4627,1.5788,14.6243,-15.9052,28,0.1151,8831,3.927,30.2421
lg,1625399183956413033,0,-0.1338,-0.5327,0.6868,702,72.8149,20.2026,23.2544,90,1.4617,1.5748,15.449,-13.6791,28,0.1161,9148,3.927,30.7351
lg,1625399183956429662,0,-0.2664,-0.6133,0.7861,703,59.021,49.0723,26.6724,90,1.4557,1.5758,17.624,-12.0838,28,0.1151,9225,3.927,31.1103
lg,1625399183956446088,0,-0.3745,-0.6267,0.8225,704,59.082,44.6777,27.771,90,1.4587,1.5758,19.7377,-10.4344,28,0.1141,9281,3.927,31.6005
lg,1625399184339590413,0,-0.4739,-0.6233,0.8254,705,46.1426,-24.5361,19.7754,90,1.4577,1.5748,18.5077,-9.4019,28,0.1131,28932,3.927,32.2722
lg,1625399184339621802,0,-0.4109,-0.6609,0.7786,706,41.3818,-70.0684,15.625,90,1.4567,1.5748,16.0755,-8.5542,28,0.1131,9373,3.927,33.0178
lg,1625399184339642783,0,-0.3662,-0.6528,0.7437,707,43.2129,-86.3037,13.0615,90,1.4577,1.5748,13.005,-7.756,28,0.1131,8587,3.927,33.7298
lg,1625399184339662116,0,-0.3059,-0.6584,0.7322,708,44.3115,-90.6372,12.9395,90,1.4577,1.5758,9.6505,-6.9357,28,0.1121,8625,3.927,34.4721
lg,1625399184339680339,0,-0.2524,-0.6531,0.719,709,53.0396,-93.9941,12.0239,90,1.4577,1.5758,6.2441,-5.9729,28,0.1121,10444,3.927,35.1684
lg,1625399184339697950,0,-0.2219,-0.6431,0.7122,710,57.0068,-92.8345,11.2305,90,1.4577,1.5758,2.8564,-4.9398,28,0.1121,8696,3.927,35.8312
lg,1625399184339733709,0,-0.1824,-0.6201,0.7349,711,65.3076,-88.0737,10.6812,90,1.4577,1.5748,-0.281,-3.6029,28,0.1121,8322,3.927,36.4598
lg,1625399184339752338,0,-0.1672,-0.6099,0.7896,712,68.6646,-81.543,9.2773,90,1.4577,1.5748,-3.1246,-2.1333,28,0.1121,8652,3.927,37.0055
lg,1625399184339770153,0,-0.1743,-0.5884,0.8284,713,68.4814,-73.6694,5.9204,90,1.4587,1.5748,-5.5697,-0.6555,28,0.1121,8367,3.927,37.389
lg,1625399184339787320,0,-0.2153,-0.5642,0.8635,714,67.3218,-75.9277,1.2207,90,1.4577,1.5758,-7.9532,0.8207,28,0.1131,11078,3.927,37.5599
lg,1625399184339804597,0,-0.2434,-0.5757,0.8835,715,66.3452,-81.2988,-0.1831,90,1.4577,1.5748,-10.7115,2.2024,28,0.1131,8695,3.927,37.6813
lg,1625399184339821745,0,-0.2285,-0.5647,0.8813,716,64.5142,-96.6187,0.5493,90,1.4587,1.5748,-13.7451,3.5128,28,0.1131,8416,3.927,37.7588
lg,1625399184339838449,0,-0.1809,-0.5698,0.907,717,61.1572,-116.272,1.9531,90,1.4607,1.5758,-17.5729,4.6649,28,0.1131,8786,3.927,37.8276
lg,1625399184339856171,0,-0.1089,-0.6082,0.9353,718,59.5703,-131.5918,1.4648,90,1.4577,1.5758,-22.049,5.7195,28,0.1131,8855,3.927,37.8365
lg,1625399184339873115,0,0.0356,-0.6484,0.9771,719,58.96,-141.6016,2.1973,90,1.4577,1.5758,-27.0689,6.7292,28,0.1131,8831,3.927,37.8592
lg,1625399184339890523,0,0.0969,-0.6553,0.9731,720,59.9365,-140.1367,0.7324,90,1.4597,1.5758,-32.1525,7.7766,28,0.1131,8650,3.927,37.8728
lg,1625399184339907652,0,0.2349,-0.6448,0.9001,721,70.3735,-119.873,-0.8545,90,1.4587,1.5748,-36.4088,9.2351,28,0.1131,8936,3.927,37.9698
lg,1625399184339924763,0,0.3542,-0.5085,0.801,722,91.0034,-85.6323,-5.9204,90,1.4587,1.5748,-39.4217,11.7285,28,0.1131,8909,3.927,37.9634
lg,1625399184339941522,0,0.4058,-0.2864,0.7942,723,94.7266,-12.7563,-6.5918,90,1.4587,1.5748,-39.3937,14.5777,28,0.1161,10687,3.927,38.277
lg,1625399184339958245,0,0.2627,-0.251,0.8633,724,67.0776,88.2568,-2.0142,90,1.4567,1.5748,-35.2836,15.2056,28,0.1151,9026,3.927,40.233
lg,1625399184339975707,0,-0.0273,-0.4658,1.0078,725,46.4478,162.9028,8.7891,90,1.4577,1.5748,-28.0491,14.1202,28,0.1151,9044,3.927,43.5639
lg,1625399184340002578,0,-0.1978,-0.4802,1.0713,726,59.6924,180.2979,18.0664,90,1.4567,1.5748,-20.1071,13.8911,28,0.1151,9074,3.927,46.9613
lg,1625399184340020578,0,-0.3135,-0.4016,1.0869,727,66.7725,156.5552,12.0239,90,1.4587,1.5748,-13.0105,14.669,28,0.1151,9110,3.927,49.5132
lg,1625399184340037781,0,-0.3894,-0.3408,1.0728,728,60.8521,122.1924,19.5312,90,1.4587,1.5748,-7.3875,15.5629,28,0.1141,9085,3.927,51.8488
lg,1625399184340054466,0,-0.3967,-0.4033,1.1082,729,47.9736,73.9136,24.7803,90,1.4587,1.5748,-3.8827,16.0442,28,0.1121,9343,3.927,53.7841
lg,1625399184340071077,0,-0.3845,-0.4263,1.1128,730,44.4336,46.9971,26.4282,90,1.4597,1.5738,-2.5061,16.3773,28,0.1131,9149,3.927,55.1883
lg,1625399184340087392,0,-0.3098,-0.4363,1.106,731,44.0674,4.5776,24.7803,90,1.4587,1.5728,-1.9671,16.7435,28,0.1121,9167,3.927,56.2523
lg,1625399184340104725,0,-0.2285,-0.4192,1.0518,732,44.0674,-13.855,19.4092,90,1.4587,1.5748,-2.2129,17.0918,28,0.1121,9187,3.927,56.8826
lg,1625399184340121410,0,-0.198,-0.4094,1.033,733,43.9453,-15.9302,14.6484,90,1.4587,1.5748,-2.5278,17.4269,28,0.1131,9236,3.927,57.3082
lg,1625399184340137984,0,-0.1912,-0.396,1.0088,734,46.9971,-15.5029,9.0942,90,1.4597,1.5738,-2.7562,17.8862,28,0.1131,9246,3.927,57.5303
lg,1625399184340154466,0,-0.2136,-0.3689,0.9783,735,50.7812,-13.7329,6.4697,90,1.4587,1.5738,-2.8195,18.5164,28,0.1131,9257,3.927,57.674
lg,1625399184340170966,0,-0.2227,-0.2683,0.98,736,47.5464,-16.2964,12.8174,90,1.4587,1.5748,-3.024,19.1588,28,0.1131,9356,3.927,58.0124
lg,1625399184722992051,0,-0.1616,-0.3438,1.1465,737,22.2778,-57.1289,25.9399,90,1.4587,1.5738,-5.3509,18.7483,28,0.1141,27781,3.927,58.2419
lg,1625399184723032625,0,-0.0591,-0.3042,1.1072,738,24.5361,-54.4434,20.4468,90,1.4587,1.5738,-7.3754,18.4355,28,0.1131,9372,3.927,58.4404
lg,1625399184723053551,0,-0.042,-0.3264,1.0945,739,20.9961,-36.499,15.3809,90,1.4587,1.5738,-8.6261,17.9363,28,0.1131,10329,3.927,58.7379
lg,1625399184723073255,0,-0.053,-0.3315,1.0881,740,19.9585,-27.4048,11.0474,90,1.4587,1.5738,-9.4341,17.3717,28,0.1141,8669,3.927,59.0282
lg,1625399184723126958,0,-0.0605,-0.3472,1.1077,741,21.4844,-11.5967,7.8125,90,1.4587,1.5748,-9.5437,16.888,28,0.1141,8757,3.927,59.4071
lg,1625399184723146939,0,-0.0759,-0.3174,1.0879,742,22.0337,-5.4321,3.3569,90,1.4577,1.5708,-9.3234,16.4972,28,0.1141,10164,3.927,59.6826
lg,1625399184723167143,0,-0.1008,-0.2842,1.0159,743,21.0571,-1.1597,4.2114,90,1.4587,1.5738,-8.8897,16.0929,28,0.1141,8697,3.927,60.0304
lg,1625399184723187810,0,-0.1028,-0.2927,1.0002,744,18.1885,21.2402,8.7891,90,1.4587,1.5738,-7.6538,15.5095,28,0.1141,8445,3.927,60.7949
lg,1625399184723205884,0,-0.1177,-0.3081,1.0117,745,17.2729,32.1655,13.916,90,1.4597,1.5748,-5.7242,14.7681,27,0.1141,8722,3.927,62.1209
lg,1625399184723224217,0,-0.1775,-0.2954,0.9939,746,13.855,44.7998,20.5078,90,1.4567,1.5708,-3.626,14.0499,27,0.1141,8425,3.927,63.4802
lg,1625399184723242124,0,-0.2473,-0.3235,0.9976,747,12.8174,49.3774,20.3857,90,1.4557,1.5738,-1.2679,13.3325,27,0.1131,8732,3.927,64.8126
lg,1625399184723259883,0,-0.343,-0.3408,1.0635,748,14.4653,37.5366,18.1885,90,1.4587,1.5748,0.7319,12.782,27,0.1141,8763,3.927,65.8824
lg,1625399184723278698,0,-0.3469,-0.3113,1.1118,749,15.0757,15.3809,15.3198,90,1.4587,1.5748,0.6276,12.3583,28,0.1141,8431,3.927,66.2073
lg,1625399184723297568,0,-0.3044,-0.3313,1.1067,750,14.5264,-49.3774,9.7656,90,1.4607,1.5718,-0.8222,11.8714,28,0.1141,8787,3.927,66.1587
lg,1625399184723317402,0,-0.1941,-0.3198,1.0693,751,13.7329,-105.835,7.3242,90,1.4597,1.5748,-4.5948,11.3753,28,0.1141,8832,3.927,65.603
lg,1625399184723338809,0,-0.0835,-0.269,0.9888,752,13.7939,-137.3291,6.4697,90,1.4607,1.5748,-9.7641,11.0621,28,0.1121,11920,3.927,64.8561
lg,1625399184723358012,0,0.041,-0.197,0.9343,753,14.5264,-140.8081,10.8643,90,1.4607,1.5748,-15.0918,10.8766,28,0.1131,8937,3.927,64.3471
lg,1625399184723378235,0,0.1853,-0.2014,0.9683,754,8.5449,-103.6377,24.7192,90,1.4607,1.5748,-19.1939,10.2529,28,0.1141,8933,3.927,64.8015
lg,1625399184723396920,0,0.2329,-0.2446,1.0317,755,1.77,-49.1943,26.6113,90,1.4617,1.5748,-21.0894,9.1131,28,0.1151,8569,3.927,65.8778
lg,1625399184723440012,0,0.1316,-0.2927,1.0779,756,-0.7935,-1.2817,23.9258,90,1.4617,1.5748,-20.7802,7.7288,28,0.1151,8992,3.927,67.2388
lg,1625399184723460605,0,0.0264,-0.3032,1.0867,757,2.5635,18.8599,16.6016,90,1.4617,1.5748,-19.4206,6.5997,28,0.1151,10853,3.927,68.3769
lg,1625399184723479030,0,-0.0164,-0.2947,1.0654,758,2.3804,18.8599,14.0991,90,1.4617,1.5738,-18.0322,5.5836,28,0.1151,8689,3.927,69.3479
lg,1625399184723497919,0,-0.0735,-0.2964,1.0327,759,4.7607,12.6343,14.4043,90,1.4617,1.5718,-16.7779,4.7065,28,0.1151,9063,3.927,70.2639
lg,1625399184723515049,0,-0.0955,-0.3064,1.0454,760,7.4463,-0.5493,14.5264,90,1.4637,1.5738,-16.0401,3.9874,27,0.1141,8742,3.927,71.1078
lg,1625399184723531993,0,-0.1125,-0.2622,1.0059,761,8.2397,-11.7188,17.0898,90,1.4627,1.5748,-15.7203,3.3827,27,0.1141,9096,3.927,71.9901
lg,1625399184723549474,0,-0.064,-0.3127,1.0435,762,6.897,-22.0337,22.2778,90,1.4627,1.5748,-15.9343,2.6109,27,0.1151,9307,3.927,73.0834
lg,1625399184723566974,0,0.0247,-0.3005,1.0791,763,10.0708,-26.5503,25.8789,90,1.4627,1.5738,-16.4847,1.9874,28,0.1151,9167,3.927,74.3175
lg,1625399184723584085,0,0.1218,-0.2708,1.0562,764,12.4512,-22.8271,24.231,90,1.4627,1.5748,-16.6986,1.5462,28,0.1151,9204,3.927,75.4838
lg,1625399184723601752,0,0.1499,-0.2715,1.0579,765,12.6953,1.5259,22.2778,90,1.4637,1.5748,-16.362,1.0861,28,0.1151,9225,3.927,76.6172
lg,1625399184723619400,0,0.1516,-0.2869,1.0371,766,13.7329,41.3208,17.8223,90,1.4617,1.5698,-14.4194,0.7661,28,0.1151,9211,3.927,77.5724
lg,1625399184723637307,0,0.1067,-0.2888,1.0193,767,17.4561,74.5239,10.0708,90,1.4647,1.5748,-11.1331,0.7013,28,0.1151,8859,3.927,78.1906
lg,1625399184723654844,0,-0.0339,-0.2576,0.9846,768,21.5454,99.6704,0.4272,90,1.4637,1.5748,-6.6645,0.9412,28,0.1151,9236,3.927,78.3854
lg,1625399185104827098,0,-0.4023,-0.1636,0.9282,769,10.437,58.8379,-2.0142,90,1.4637,1.5748,-4.0571,0.8189,28,0.1151,27804,3.927,78.6776
lg,1625399185104862746,0,-0.4084,-0.2195,1.0037,770,6.5918,-18.9819,19.4702,90,1.4637,1.5748,-3.8408,0.5477,28,0.1151,9331,3.927,79.4811
lg,1625399185104907283,0,-0.2595,-0.2512,1.0298,771,8.1177,-46.4478,25.8789,90,1.4637,1.5748,-5.9767,0.2595,28,0.1151,8239,3.927,80.6991
lg,1625399185104928135,0,-0.1851,-0.2583,1.0181,772,10.2539,-87.2192,33.0811,90,1.4637,1.5748,-9.394,-0.0476,28,0.1151,8622,3.927,82.1453
lg,1625399185104950042,0,0.0784,-0.2666,0.9639,773,12.8784,-85.9375,33.5083,90,1.4637,1.5748,-12.6298,-0.4089,28,0.1151,9413,3.927,83.6245
lg,1625399185104970505,0,0.1335,-0.2678,0.9592,774,14.2822,-68.0542,30.5786,90,1.4647,1.5748,-15.1456,-0.7547,28,0.1151,8266,3.927,85.0462
lg,1625399185104989949,0,0.1711,-0.2798,0.9893,775,17.0288,-25.6348,22.7661,94,1.4637,1.5748,-15.9446,-0.9357,28,0.1151,8622,3.9248,86.1659
lg,1625399185105008597,0,0.1001,-0.2532,1.0046,776,20.6909,6.2256,11.7188,94,1.4637,1.5748,-15.2916,-0.7766,28,0.1161,8696,3.9248,86.798
lg,1625399185105028727,0,-0.0161,-0.2024,0.9663,777,23.5596,21.5454,6.897,94,1.4647,1.5748,-13.8051,-0.3559,28,0.1151,9474,3.9248,87.1961
lg,1625399185105047356,0,-0.0935,-0.1709,0.9592,778,23.5596,23.8647,6.4087,94,1.4637,1.5748,-12.0091,0.0636,28,0.1151,8238,3.9248,87.7135
lg,1625399185105066949,0,-0.1313,-0.1829,1.0237,779,18.4326,23.8037,15.8691,94,1.4677,1.5718,-10.3206,0.2664,28,0.1141,8392,3.9248,88.45
lg,1625399185105085319,0,-0.1414,-0.2441,1.229,780,14.7705,21.3623,22.9492,94,1.4607,1.5748,-8.8257,0.2445,28,0.1141,8818,3.9248,89.467
lg,1625399185105103504,0,-0.0991,-0.2964,1.645,781,9.9487,27.771,17.5171,94,1.4637,1.5748,-7.2451,0.1271,28,0.1141,8848,3.9248,90.242
lg,1625399185105122004,0,-0.2214,-0.3071,1.2805,782,4.7607,-8.7891,-6.5308,94,1.4647,1.5738,-6.9469,-0.1804,28,0.1141,8848,3.9248,90.0447
lg,1625399185105141893,0,-0.2437,-0.2947,1.0552,783,10.3149,-40.7104,-16.9678,94,1.4647,1.5738,-7.8554,-0.1056,28,0.1141,8881,3.9248,89.4166
lg,1625399185105160708,0,-0.1267,-0.0928,0.929,784,18.5547,-35.0952,12.5122,94,1.4637,1.5668,-8.6457,0.3401,28,0.1141,9004,3.9248,89.9525
lg,1625399185105178930,0,-0.0369,-0.1011,1.0078,785,-3.9062,-6.897,25.5127,94,1.4637,1.5738,-8.4993,-0.2113,28,0.1151,8872,3.9248,91.0189
lg,1625399185105211911,0,-0.0654,-0.2737,1.0823,786,-14.3433,6.4087,20.1416,94,1.4657,1.5728,-7.7732,-1.4496,28,0.1141,8672,3.9248,91.9064
lg,1625399185105232078,0,-0.0959,-0.29,1.0474,787,-1.5869,2.3804,15.625,94,1.4647,1.5728,-7.1621,-2.1461,28,0.1151,9026,3.9248,92.6058
lg,1625399185105250485,0,-0.1226,-0.2546,1.0227,788,4.7607,-1.77,13.3057,94,1.4657,1.5738,-6.8314,-2.3492,28,0.1141,8989,3.9248,93.1819
lg,1625399185105268911,0,-0.1194,-0.217,1.0042,789,5.9814,-9.7656,10.2539,94,1.4637,1.5718,-6.6772,-2.5484,28,0.1141,9030,3.9248,93.6571
lg,1625399185105287207,0,-0.0942,-0.2361,1.0464,790,4.4556,-15.1978,10.2539,94,1.4647,1.5738,-6.8054,-2.8235,28,0.1151,8693,3.9248,94.1446
lg,1625399185105305725,0,-0.0671,-0.2249,1.054,791,9.5215,-18.9819,8.3008,94,1.4657,1.5738,-7.138,-2.8538,28,0.1151,9097,3.9248,94.5603
lg,1625399185105323225,0,-0.0818,-0.1833,1.0225,792,14.0991,-21.1182,3.479,94,1.4647,1.5718,-7.5152,-2.6044,28,0.1151,10955,3.9248,94.7786
lg,1625399185105341355,0,-0.0854,-0.1453,1.0112,793,11.2915,-27.9541,-0.3052,94,1.4647,1.5728,-8.1457,-2.38,28,0.1151,9122,3.9248,94.8457
lg,1625399185105359707,0,-0.0847,-0.1377,1.0505,794,6.2256,-27.0996,1.0376,94,1.4657,1.5738,-8.723,-2.3468,28,0.1151,9109,3.9248,94.9621
lg,1625399185105377040,0,-0.0803,-0.1646,1.0532,795,2.2583,-33.0811,2.6855,94,1.4657,1.5738,-9.5242,-2.543,28,0.1151,9516,3.9248,95.1672
lg,1625399185105394929,0,-0.0632,-0.1787,1.0422,796,0.2441,-33.9966,5.3101,94,1.4657,1.5738,-10.36,-2.8684,28,0.1141,8972,3.9248,95.4946
lg,1625399185105412299,0,-0.0481,-0.2004,1.0332,797,-0.8545,-34.6069,5.9814,94,1.4667,1.5728,-11.1892,-3.3105,28,0.1151,8829,3.9248,95.9219
lg,1625399185105430317,0,-0.0361,-0.2021,1.04,798,-1.6479,-33.9966,9.5825,94,1.4657,1.5728,-12.0183,-3.8114,28,0.1151,9181,3.9248,96.4634
lg,1625399185105448336,0,-0.0164,-0.2366,1.0505,799,-1.8921,-33.9355,10.0098,94,1.4667,1.5738,-12.8352,-4.3532,28,0.1151,9253,3.9248,97.0446
lg,1625399185105466317,0,0,-0.2483,1.0254,800,-0.4883,-34.1187,11.2305,94,1.4647,1.5738,-13.6534,-4.8772,28,0.1161,9331,3.9248,97.6995
lg,1625399185492466375,0,0.0186,-0.1782,1.0339,801,1.5869,-25.6958,7.5684,94,1.4657,1.5738,-14.1493,-5.1089,28,0.1151,28012,3.9248,98.1491
lg,1625399185492554579,0,0.0186,-0.1865,1.0837,802,-3.0518,-14.9536,11.6577,94,1.4667,1.5728,-14.18,-5.5499,28,0.1141,14883,3.9248,98.7302
lg,1625399185492586467,0,0.022,-0.1814,1.0784,803,-5.4932,-9.8877,15.0146,94,1.4667,1.5738,-13.9972,-6.0899,28,0.1151,8638,3.9248,99.4255
lg,1625399185492616745,0,0.0459,-0.1924,1.0559,804,-6.2256,-2.1973,18.6157,94,1.4667,1.5728,-13.5448,-6.692,28,0.1151,8672,3.9248,100.237
lg,1625399185492645652,0,0.0447,-0.217,1.0586,805,-6.1035,1.6479,20.752,94,1.4667,1.5728,-12.9367,-7.3237,28,0.1151,8655,3.9248,101.1194
lg,1625399185492673522,0,0.0447,-0.2122,1.041,806,-6.2866,11.8408,20.5688,94,1.4637,1.5728,-11.9432,-7.9077,28,0.1141,9031,3.9248,101.926
lg,1625399185492700337,0,0.0295,-0.249,1.0366,807,-5.0659,17.6392,20.6299,94,1.4667,1.5728,-10.7209,-8.4764,28,0.1151,10497,3.9248,102.7009
lg,1625399185492726300,0,0.0027,-0.2422,1.0308,808,-3.1738,22.3389,18.5547,94,1.4667,1.5678,-9.3109,-8.8968,28,0.1151,9945,3.9248,103.3424
lg,1625399185492755596,0,-0.0327,-0.2551,1.042,809,-1.5869,20.9351,14.7705,94,1.4667,1.5728,-7.9576,-9.2204,28,0.1151,8781,3.9248,103.8291
lg,1625399185492783300,0,-0.0554,-0.271,1.0425,810,1.1597,17.6392,11.5967,94,1.4667,1.5738,-6.7588,-9.4291,28,0.1151,8812,3.9248,104.2038
lg,1625399185492813707,0,-0.0688,-0.2373,1.0415,811,2.5635,12.3291,9.0942,94,1.4667,1.5728,-5.8016,-9.4903,28,0.1151,8819,3.9248,104.4987
lg,1625399185492840688,0,-0.0723,-0.2405,1.0391,812,3.0518,8.667,9.6436,94,1.4677,1.5728,-5.0135,-9.5171,28,0.1151,8833,3.9248,104.8353
lg,1625399185492868262,0,-0.0769,-0.2324,1.043,813,3.8452,-0.6714,8.728,94,1.4637,1.5698,-4.6212,-9.5114,28,0.1151,8839,3.9248,105.1959
lg,1625399185492896355,0,-0.0669,-0.2427,1.0571,814,4.0283,-8.4229,10.437,94,1.4607,1.5728,-4.5607,-9.5212,28,0.1151,8814,3.9248,105.676
lg,1625399185492922855,0,-0.0183,-0.1855,1.0457,815,3.8452,-12.8174,10.1929,94,1.4667,1.5728,-4.7878,-9.4299,28,0.1151,13315,3.9248,106.1457
lg,1625399185493000576,0,-0.0029,-0.1858,1.0518,816,3.418,-13.6719,9.1553,94,1.4667,1.5728,-5.0689,-9.3533,28,0.1151,8935,3.9248,106.6002
lg,1625399185493030484,0,0.0215,-0.1946,1.0742,817,2.3193,-8.9111,10.0708,94,1.4667,1.5728,-5.1967,-9.3356,28,0.1151,9996,3.9248,107.0607
lg,1625399185493058317,0,0.0293,-0.1853,1.0454,818,0.9766,1.8921,12.6953,94,1.4667,1.5728,-4.8953,-9.3657,28,0.1151,8961,3.9248,107.5537
lg,1625399185493086687,0,-0.0012,-0.1843,1.0374,819,-1.4038,10.1318,12.8784,94,1.4667,1.5728,-4.2151,-9.4826,28,0.1151,8924,3.9248,107.9988
lg,1625399185493113687,0,-0.0029,-0.2065,1.0303,820,-1.4648,15.2588,14.4653,94,1.4617,1.5728,-3.3452,-9.6429,28,0.1151,10236,3.9248,108.4737
lg,1625399185493139909,0,-0.0281,-0.2288,1.0408,821,-0.9155,16.1133,14.4653,94,1.4667,1.5728,-2.4216,-9.8092,28,0.1151,9047,3.9248,108.9414
lg,1625399185493165724,0,-0.0339,-0.2205,1.0505,822,0.2441,15.3198,15.625,94,1.4667,1.5728,-1.545,-9.8954,28,0.1151,9005,3.9248,109.4555
lg,1625399185493192001,0,-0.0449,-0.2261,1.0486,823,0.7324,15.5029,15.686,94,1.4667,1.5728,-0.6647,-9.9605,28,0.1151,9050,3.9248,109.9525
lg,1625399185493218298,0,-0.0525,-0.2178,1.0432,824,0.9766,16.6626,14.7095,94,1.4667,1.5728,0.2294,-9.9931,28,0.1151,9045,3.9248,110.417
lg,1625399185493244427,0,-0.0786,-0.218,1.0479,825,1.1597,15.7471,14.0381,94,1.4667,1.5728,1.1021,-10.0085,28,0.1151,10047,3.9248,110.8599
lg,1625399185493271075,0,-0.113,-0.2209,1.0457,826,1.2207,13.1226,12.9395,94,1.4667,1.5728,1.7948,-10.0229,28,0.1161,10598,3.9248,111.3305
lg,1625399185493297445,0,-0.113,-0.2004,1.0366,827,1.1597,7.3242,13.1836,94,1.4647,1.5718,2.3442,-9.9933,28,0.1151,9191,3.9248,111.7981
lg,1625399185493324612,0,-0.124,-0.2114,1.0378,828,0.7324,0.2441,13.0615,94,1.4657,1.5718,2.6153,-9.9991,28,0.1141,9185,3.9248,112.3091
lg,1625399185493350575,0,-0.1147,-0.2004,1.0474,829,1.2207,-8.8501,14.1602,94,1.4657,1.5708,2.5049,-9.953,28,0.1141,8994,3.9248,112.9277
lg,1625399185493376963,0,-0.0981,-0.2102,1.0444,830,1.2207,-14.2212,13.5498,94,1.4657,1.5718,2.1486,-9.9323,28,0.1151,8879,3.9248,113.5583
lg,1625399185493443352,0,-0.0659,-0.2063,1.0461,831,0.4272,-19.043,14.0381,94,1.4657,1.5718,1.5523,-9.9388,28,0.1151,8914,3.9248,114.2419
lg,1625399185493480185,0,-0.0598,-0.2134,1.0476,832,0.7324,-20.2026,14.1602,94,1.4657,1.5718,0.8845,-9.9377,28,0.1141,8908,3.9248,114.9386
lg,1625399185873407129,0,-0.0259,-0.228,1.0317,833,0.8545,-15.8081,12.146,94,1.4667,1.5728,0.3868,-10.024,28,0.1141,27613,3.9248,115.5251
lg,1625399185873449592,0,-0.0276,-0.238,1.0425,834,1.8311,-12.7563,11.4746,94,1.4667,1.5718,0.0092,-10.0588,28,0.1141,9027,3.9248,116.0655
lg,1625399185873470647,0,-0.0432,-0.2102,1.0286,835,3.1128,-15.0146,11.0474,94,1.4677,1.5718,-0.3843,-10.0174,28,0.1131,10859,3.9248,116.6057
lg,1625399185873491240,0,-0.0496,-0.2012,1.0593,836,3.1128,-15.7471,10.8643,94,1.4677,1.5718,-0.8078,-9.9253,28,0.1141,8688,3.9248,117.1435
lg,1625399185873510777,0,-0.0557,-0.1877,1.0344,837,2.1362,-18.6768,12.085,94,1.4677,1.5728,-1.306,-9.8629,28,0.1141,8608,3.9248,117.7489
lg,1625399185873528869,0,-0.0349,-0.1558,1.0635,838,1.3428,-17.8833,13.3667,94,1.4667,1.5728,-1.7917,-9.7637,28,0.1141,8365,3.9248,118.3969
lg,1625399185873546906,0,-0.0291,-0.1636,1.0608,839,-0.061,-17.7002,12.7563,94,1.4667,1.5728,-2.2888,-9.7885,28,0.1131,8702,3.9248,119.0208
lg,1625399185873566832,0,-0.0042,-0.1689,1.0701,840,-2.0752,-18.6768,17.8223,94,1.4667,1.5718,-2.8507,-9.9239,28,0.1141,9763,3.9248,119.8528
lg,1625399185873585739,0,0.0496,-0.2009,1.0623,841,-3.3569,-18.5547,20.3857,94,1.4667,1.5728,-3.4273,-10.1374,28,0.1141,9621,3.9248,120.7882
lg,1625399185873604406,0,0.0774,-0.2292,1.0371,842,-3.479,-11.4746,21.5454,94,1.4667,1.5718,-3.752,-10.4238,28,0.1141,10286,3.9248,121.7255
lg,1625399185873622906,0,0.0876,-0.2261,1.0049,843,-3.1738,5.0049,18.9209,94,1.4687,1.5718,-3.4604,-10.6812,28,0.1141,8438,3.9248,122.4399
lg,1625399185873641924,0,0.021,-0.2363,1.0181,844,-2.7466,26.4893,18.3716,94,1.4667,1.5728,-2.1934,-10.9083,28,0.1141,8847,3.9248,122.9686
lg,1625399185873660831,0,-0.1169,-0.2336,1.0186,845,-0.7935,37.7197,14.2822,94,1.4667,1.5728,-0.27,-11.022,28,0.1141,8870,3.9248,123.2443
lg,1625399185873705127,0,-0.1941,-0.2278,1.0239,846,0.4883,35.6445,13.6108,94,1.4677,1.5718,1.5547,-11.0294,28,0.1131,8445,3.9248,123.5238
lg,1625399185873726738,0,-0.3079,-0.2085,1.0261,847,2.0142,19.8364,11.2305,94,1.4687,1.5708,2.9967,-10.952,28,0.1131,8873,3.9248,123.8135
lg,1625399185873745590,0,-0.3384,-0.1792,1.0806,848,2.4414,-19.3481,9.9487,94,1.4667,1.5728,2.8687,-10.7662,28,0.1131,8951,3.9248,124.3558
lg,1625399185873764201,0,-0.2812,-0.1062,1.0859,849,2.9907,-75.2563,13.3667,94,1.4667,1.5728,0.4739,-10.4142,28,0.1131,8941,3.9248,125.4484
lg,1625399185873782831,0,-0.1243,-0.1218,1.0378,850,-6.4087,-121.2158,22.1558,94,1.4677,1.5728,-3.8644,-10.5728,28,0.1131,9113,3.9248,127.2061
lg,1625399185873801997,0,0.0869,-0.23,1.0562,851,-12.8784,-134.4604,28.4424,94,1.4677,1.5728,-9.023,-11.6104,28,0.1131,9010,3.9248,129.6327
lg,1625399185873821108,0,0.1609,-0.2788,1.04,852,-20.2637,-129.3945,38.4521,94,1.4667,1.5728,-13.8356,-13.1777,28,0.1121,9026,3.9248,132.3377
lg,1625399185873839627,0,0.2852,-0.3542,1.051,853,-21.0571,-94.8486,42.4194,94,1.4687,1.5678,-17.1096,-14.9408,28,0.1131,9033,3.9248,135.0555
