name,time,activity,ax,ay,az,batch_val,gx,gy,gz,ibat,index,middle,pitch,roll,temp,thumb,ts,vbat,yaw
lg,1625424637168598355,0,0.3147,0.0691,1.0396,1,-25.5737,9.3384,17.7612,74,1.5368,1.5217,-14.5093,-5.2326,29,0.1891,20219,3.9677,-34.4692
lg,1625424637168638943,0,0.2949,0.0627,1.0444,2,-26.1841,12.5122,15.9302,74,1.5357,1.5207,-14.002,-6.0838,29,0.1901,8471,3.9677,-33.9519
lg,1625424637168660340,0,0.2454,0.0557,1.0256,3,-27.0996,13.6719,12.8174,74,1.5378,1.5227,-13.384,-6.9086,29,0.1901,7918,3.9677,-33.5807
lg,1625424637168679697,0,0.2102,0.0449,0.9844,4,-27.2217,8.4839,14.2822,74,1.5378,1.5227,-12.9269,-7.7377,29,0.1901,7906,3.9677,-33.1321
lg,1625424637168698332,0,0.2168,0.0061,0.979,5,-26.9165,4.3335,14.8926,74,1.5378,1.5227,-12.6559,-8.6174,29,0.1891,7884,3.9677,-32.6256
lg,1625424637168717634,0,0.2725,-0.0251,0.9639,6,-27.0386,-1.6479,15.5029,74,1.5368,1.5227,-12.7471,-9.5563,29,0.1901,8264,3.9677,-32.048
lg,1625424637168736472,0,0.3171,-0.0276,1.0215,7,-27.71,0.9155,12.4512,74,1.5368,1.5237,-12.8042,-10.4588,29,0.1901,8632,3.9677,-31.6198
lg,1625424637168754717,0,0.3074,-0.0024,1.0349,8,-26.3672,5.0049,8.5449,74,1.5378,1.5227,-12.6971,-11.1751,29,0.1901,8721,3.9677,-31.4035
lg,1625424637168772777,0,0.2944,0.0396,1.0669,9,-23.0103,5.4932,3.9062,74,1.5347,1.5237,-12.5694,-11.5984,29,0.1901,8341,3.9677,-31.4059
lg,1625424637168791096,0,0.3015,0.1011,1.0383,10,-22.8882,9.0942,1.0376,74,1.5368,1.5237,-12.3649,-11.8419,29,0.1901,8081,3.9677,-31.5854
lg,1625424637168809861,0,0.3235,0.1204,0.9988,11,-24.353,11.3525,-0.1221,74,1.5368,1.5227,-12.0617,-12.183,29,0.1891,9026,3.9677,-31.9367
lg,1625424637168828161,0,0.3494,0.1174,0.9919,12,-31.189,16.9678,-0.061,74,1.5357,1.5237,-11.7087,-12.682,29,0.1891,7966,3.9677,-32.2384
lg,1625424637168845665,0,0.3711,0.0876,0.999,13,-38.0249,33.9355,-1.5259,74,1.5368,1.5237,-10.7628,-13.4628,29,0.1891,8794,3.9677,-32.7467
lg,1625424637168862816,0,0.3059,0.0273,0.9985,14,-40.1001,50.354,-1.4038,74,1.5368,1.5237,-9.0883,-14.3929,29,0.1881,9485,3.9677,-33.4022
lg,1625424637168880078,0,0.0071,-1.002,0.5991,15,-18.8599,-11.2915,13.7939,159,1.4127,1.5047,-9.2165,-16.7514,30,0.1851,13787,3.8687,-32.5043
lg,1625424637168898156,0,0.095,-0.8984,0.7097,16,-23.8037,-8.4839,37.1704,159,1.4057,1.5057,-8.9603,-19.2503,30,0.1861,9100,3.8687,-30.7576
lg,1625424637168915641,0,-0.2126,-0.6843,0.7998,17,-18.3105,29.0527,43.0908,159,1.3907,1.5087,-6.511,-20.9552,30,0.1871,8843,3.8687,-29.4128
lg,1625424637168933794,0,-0.2676,-0.5303,0.77,18,-18.0054,-6.5308,26.7334,159,1.3857,1.5067,-5.4974,-22.2968,30,0.1871,8482,3.8687,-28.2675
lg,1625424637168951038,0,-0.1672,-0.7712,0.8054,19,-18.0054,-23.4375,20.0806,159,1.3817,1.5067,-5.7443,-24.1799,30,0.1871,8800,3.8687,-26.6724
lg,1625424637168968077,0,-0.0696,-0.8542,0.8127,20,-14.8926,-7.6904,17.5171,159,1.3817,1.5067,-5.3816,-25.7032,29,0.1881,10489,3.8687,-25.8215
lg,1625424637168984895,0,-0.0161,-0.8076,0.8411,21,-6.2256,6.6528,22.9492,159,1.3817,1.5067,-4.5033,-26.7147,29,0.1881,8189,3.8687,-25.0491
lg,1625424637169002157,0,-0.0337,-0.8108,0.8533,22,-5.3101,27.6489,4.0283,159,1.3837,1.5077,-3.2133,-27.553,29,0.1881,9463,3.8687,-25.3623
lg,1625424637169019549,0,-0.1582,-0.7725,0.7163,23,-2.4414,36.9873,-17.0288,159,1.3917,1.5097,-1.7749,-28.3413,29,0.1871,8887,3.8687,-26.6202
lg,1625424637169037016,0,-0.2556,-0.749,0.7913,24,-1.709,43.0298,-26.9775,159,1.4027,1.5067,-0.2034,-28.9472,29,0.1871,8918,3.8687,-28.3782
lg,1625424637169054148,0,-0.1951,-0.7607,0.8054,25,1.0376,22.583,-38.7573,159,1.4097,1.5057,0.2269,-29.4558,29,0.1851,8880,3.8687,-30.1712
lg,1625424637169071986,0,-0.1633,-0.8425,0.7019,26,-0.6104,11.4746,-48.4619,159,1.4197,1.5007,-0.0635,-30.6969,29,0.1801,8868,3.8687,-32.085
lg,1625424637169089526,0,-0.1016,-0.8411,0.2065,27,2.8076,-19.4092,-46.6919,159,1.4397,1.4937,-1.4304,-32.1715,30,0.1771,8896,3.8687,-33.2718
lg,1625424637169106473,0,0.1335,-0.874,0.3145,28,-7.6904,-11.7798,3.1738,159,1.4457,1.4897,-2.0323,-33.8684,30,0.1771,8974,3.8687,-32.8695
lg,1625424637169123439,0,0.1707,-1.0425,0.7454,29,-23.7427,13.4888,30.3955,159,1.4457,1.4907,-1.1221,-35.6165,30,0.1811,9000,3.8687,-32.149
lg,1625424637169140850,0,-0.0938,-0.8774,0.6384,30,-10.6812,36.1328,31.0059,159,1.4307,1.4947,1.008,-36.7463,30,0.1831,9075,3.8687,-31.9929
lg,1625424637169769545,0,-0.4482,-0.6218,0.4246,31,-1.6479,29.6631,39.856,159,1.4157,1.4987,3.513,-37.4694,30,0.1841,9300,3.8687,-30.4064
lg,1625424637169808224,0,-0.5786,-0.6221,0.4587,32,-20.9961,-33.02,58.6548,159,1.3937,1.5017,5.17,-38.6036,30,0.1841,9091,3.8687,-27.7794
lg,1625424637564316479,0,0.1318,-1.0132,0.6367,33,-20.6909,-103.9429,53.5889,159,1.3567,1.4957,2.8803,-39.8629,29,0.1801,26009,3.8687,-23.5408
lg,1625424637564360812,0,0.3608,-0.7236,0.6208,34,19.5312,-36.438,40.8325,159,1.3537,1.4957,1.8957,-39.3348,29,0.1791,13574,3.8687,-21.3751
lg,1625424637564383136,0,0.2227,-0.8889,0.6741,35,19.3481,33.6304,48.0957,159,1.3547,1.4977,3.6316,-39.043,29,0.1801,11571,3.8687,-20.7577
lg,1625424637564404904,0,-0.0332,-0.7803,0.6414,36,25.2075,65.4297,20.874,159,1.3577,1.4997,6.116,-38.5674,29,0.1811,8446,3.8687,-21.7848
lg,1625424637564427043,0,-0.2478,-0.6736,0.7295,37,22.4609,74.8291,13.1836,159,1.3657,1.5007,9.09,-38.0148,29,0.1821,8484,3.8687,-23.2577
lg,1625424637564447328,0,-0.3381,-0.7,0.7371,38,21.7285,67.3828,14.6484,159,1.3747,1.5017,12.0032,-37.6993,29,0.1831,8520,3.8687,-24.5251
lg,1625424637564467297,0,-0.2717,-0.625,0.6626,39,18.1274,30.2124,22.0337,159,1.3817,1.5007,13.6746,-37.1933,29,0.1841,8941,3.8687,-24.607
lg,1625424637564485876,0,-0.1343,-0.8062,0.7971,40,0.7324,11.9629,23.2544,159,1.3847,1.5017,14.3448,-37.3709,29,0.1851,8545,3.8687,-24.2212
lg,1625424637564505030,0,-0.1658,-0.7683,0.7476,41,-0.6714,17.0288,30.7007,159,1.3837,1.5017,15.4116,-37.579,29,0.1861,8720,3.8687,-23.7269
lg,1625424637564522811,0,-0.209,-0.6953,0.7781,42,-3.1738,18.4937,30.7007,159,1.3837,1.5037,16.4985,-37.84,29,0.1861,8547,3.8687,-23.1847
lg,1625424637564541223,0,-0.282,-0.8013,0.7327,43,-10.0098,-9.2163,20.0806,159,1.3817,1.5047,16.6327,-38.3609,29,0.1861,11517,3.8687,-22.3961
lg,1625424637564560562,0,-0.1833,-0.7969,0.7844,44,-4.3945,-16.6626,17.1509,159,1.3817,1.5057,16.2512,-38.5337,29,0.1851,8998,3.8687,-21.4839
lg,1625424637564579883,0,-0.1602,-0.7947,0.8533,45,0.6104,-8.1787,12.8174,159,1.3837,1.5057,15.9331,-38.4272,29,0.1851,8646,3.8687,-21.2346
lg,1625424637564598295,0,-0.1101,-0.7458,0.8379,46,8.1177,-7.6904,-5.249,159,1.3857,1.5047,15.1533,-38.2195,29,0.1831,8607,3.8687,-21.2425
lg,1625424637564616800,0,-0.1001,-0.8513,0.8054,47,4.8828,-2.3804,-42.5415,159,1.3917,1.5017,13.6197,-38.6814,30,0.1811,9104,3.8687,-22.6409
lg,1625424637564636491,0,-0.1194,-0.8708,0.7122,48,19.5923,1.9531,-64.27,159,1.4217,1.4967,11.7819,-38.8365,30,0.1781,8721,3.8687,-24.855
lg,1625424637564654458,0,-0.2708,-0.7715,0.1833,49,30.6396,4.6387,-58.96,159,1.4447,1.4877,10.8063,-39.3379,30,0.1751,8747,3.8687,-27.1136
lg,1625424637564724472,0,-0.364,-0.666,0.1287,50,28.6255,6.3477,-36.2549,159,1.4537,1.4827,11.2069,-40.0933,30,0.1771,8768,3.8687,-27.253
lg,1625424637564746685,0,-0.2771,-0.9133,0.7742,51,-23.8647,-36.8042,18.0054,159,1.4557,1.4817,10.4436,-41.0272,29,0.1791,9637,3.8687,-25.772
lg,1625424637564767229,0,-0.1709,-0.7878,0.6697,52,-14.8315,-62.9272,24.4751,159,1.4477,1.4827,9.1675,-41.5347,29,0.1821,9515,3.8687,-23.3979
lg,1625424637564786383,0,-0.3674,-0.6914,0.5933,53,-14.1602,-66.4673,45.4712,159,1.4347,1.4917,8.9055,-41.8825,29,0.1821,8831,3.8687,-20.2761
lg,1625424637564804962,0,-0.3857,-0.7573,0.7407,54,-43.396,-132.0801,46.3867,159,1.4117,1.4957,6.7182,-43.0674,29,0.1831,11709,3.8687,-15.3159
lg,1625424637564824134,0,0.3057,-0.7168,0.72,55,-50.9644,-191.7725,65.6128,159,1.3927,1.4957,2.1301,-44.6053,29,0.1841,8879,3.8687,-8.093
lg,1625424637564844826,0,0.5615,-0.968,0.5803,56,-28.5034,-115.9668,43.396,159,1.3817,1.4937,-0.956,-46.1895,29,0.1811,8964,3.8687,-3.5769
lg,1625424637564865445,0,0.521,-1.0552,0.4468,57,-7.0801,0,28.8086,159,1.3747,1.4907,-1.0241,-47.2126,29,0.1801,8893,3.8687,-2.7705
lg,1625424637564885062,0,0.3059,-0.8413,0.5955,58,11.8408,109.314,24.353,159,1.3707,1.4887,2.0382,-47.036,30,0.1801,8953,3.8687,-5.3175
lg,1625424637564904475,0,0.1907,-0.7856,0.7058,59,19.5923,140.625,35.6445,159,1.3697,1.4897,6.8045,-46.5877,30,0.1811,8990,3.8687,-8.4648
lg,1625424637564925576,0,-0.1692,-0.7825,0.6406,60,24.353,144.8975,32.5317,159,1.3707,1.4877,11.8181,-46.3091,30,0.1821,8997,3.8687,-11.8389
lg,1625424637564945749,0,-0.3169,-0.6968,0.6958,61,22.7051,88.562,29.2969,159,1.3747,1.4937,15.3389,-45.7622,30,0.1831,9016,3.8687,-13.6187
lg,1625424637564964829,0,-0.2319,-0.6995,0.7439,62,9.4604,28.2593,30.7617,159,1.3817,1.4977,16.8992,-45.2556,30,0.1841,9036,3.8687,-13.5354
lg,1625424637564984427,0,-0.1519,-0.751,0.7087,63,5.7983,2.6245,25.7568,159,1.3907,1.4977,17.3608,-44.8693,30,0.1851,9076,3.8687,-12.869
lg,1625424637565003692,0,-0.0767,-0.7544,0.7329,64,5.9204,2.1973,21.7285,159,1.4017,1.4987,17.536,-44.4979,30,0.1851,9092,3.8687,-12.4403
lg,1625424637944780288,0,-0.0623,-0.8381,0.6953,65,10.6812,22.644,7.3853,159,1.4227,1.4927,17.8251,-44.4379,29,0.1801,26408,3.8687,-12.959
lg,1625424637944820339,0,0.0466,-0.9058,0.7246,66,13.3057,31.4941,0.4272,159,1.4467,1.4877,17.951,-44.4642,29,0.1761,9169,3.8687,-13.9626
lg,1625424637944841383,0,0.0745,-0.958,0.605,67,21.9116,46.814,1.8311,159,1.4597,1.4847,18.5043,-44.543,29,0.1741,7879,3.8687,-15.4618
lg,1625424637944860982,0,-0.0947,-0.8479,0.6143,68,-4.8828,44.6167,24.1699,159,1.4607,1.4887,19.9228,-45.3238,29,0.1811,14884,3.8687,-16.1981
lg,1625424637944880303,0,-0.1807,-0.822,0.5989,69,-8.1787,36.6211,24.5972,159,1.4477,1.4947,21.6054,-46.0681,29,0.1821,8614,3.8687,-16.6856
lg,1625424637944898807,0,-0.4958,-0.6838,0.624,70,-5.5542,39.1846,33.6304,159,1.4297,1.4987,23.9068,-46.4217,29,0.1831,8837,3.8687,-16.9282
lg,1625424637944917331,0,-0.5625,-0.6553,0.8311,71,-27.2827,-23.5596,33.3862,159,1.4067,1.4987,24.3928,-46.4659,29,0.1841,10108,3.8687,-15.0384
lg,1625424637944936280,0,-0.1616,-0.5454,0.9727,72,-31.3721,-82.0923,14.5264,159,1.3917,1.4947,21.9552,-45.797,29,0.1841,8653,3.8687,-11.7187
lg,1625424637944954599,0,-0.5073,-0.8674,0.4797,73,-5.0049,-33.02,-16.3574,159,1.3867,1.4917,20.7985,-46.3629,29,0.1831,10035,3.8687,-11.3923
lg,1625424637944973290,0,-0.481,-0.7781,0.5125,74,6.4087,-36.0718,5.188,159,1.3847,1.4907,20.2199,-46.0359,30,0.1821,8616,3.8687,-10.2563
lg,1625424637944992610,0,-0.1841,-0.6267,0.6833,75,7.5684,-58.7769,36.9873,159,1.3837,1.4907,19.3222,-44.4987,30,0.1821,8627,3.8687,-6.7353
lg,1625424637945011004,0,0.0791,-0.8584,0.7454,76,0.4883,-40.6494,51.0864,159,1.3817,1.4897,18.6843,-43.7641,30,0.1831,8671,3.8687,-4.0545
lg,1625424637945029823,0,0.0979,-0.8838,0.7405,77,7.019,-14.2212,24.5972,159,1.3837,1.4947,18.0463,-43.3686,30,0.1831,8678,3.8687,-2.9767
lg,1625424637945048569,0,0.1018,-0.79,0.6921,78,7.6904,3.479,16.4185,159,1.3877,1.4967,17.6876,-43.1527,29,0.1841,8714,3.8687,-2.6462
lg,1625424637945066759,0,-0.075,-0.791,0.6506,79,9.2163,20.6909,13.3057,159,1.3917,1.4987,18.3323,-43.278,29,0.1851,8743,3.8687,-3.3524
lg,1625424637945084967,0,-0.136,-0.7534,0.5315,80,11.1084,31.9824,10.376,159,1.3987,1.4987,19.1587,-43.4943,29,0.1861,8766,3.8687,-4.1123
lg,1625424637945103620,0,-0.0928,-0.677,0.6279,81,1.8921,29.0527,15.8691,159,1.4037,1.5007,19.9024,-43.6821,29,0.1881,8765,3.8687,-4.5253
lg,1625424637945121902,0,-0.072,-0.8835,0.6897,82,-7.5073,21.9727,21.7285,159,1.4057,1.5007,20.5023,-44.3149,29,0.1891,8812,3.8687,-4.6272
lg,1625424637945139980,0,-0.0774,-0.8179,0.7402,83,-4.0283,34.5459,25.3296,159,1.4027,1.4997,21.5431,-44.7084,29,0.1891,8844,3.8687,-4.9437
lg,1625424637945157929,0,-0.1787,-0.8108,0.7654,84,-3.479,40.2222,21.6675,159,1.3977,1.5007,22.7587,-45.0333,29,0.1881,8857,3.8687,-5.4597
lg,1625424637945175209,0,-0.3062,-0.7681,0.7261,85,0.3662,20.6909,17.2729,159,1.3907,1.4997,23.5616,-45.1142,29,0.1861,8875,3.8687,-5.5907
lg,1625424637945192806,0,-0.2974,-0.759,0.7483,86,2.8076,0,12.5122,159,1.3797,1.4977,23.5716,-44.7816,29,0.1861,11029,3.8687,-5.1801
lg,1625424637945211440,0,-0.2161,-0.7512,0.7251,87,4.6387,-23.4375,1.0376,159,1.3937,1.4947,22.4647,-44.3453,29,0.1821,9207,3.8687,-4.4502
lg,1625424637945230482,0,-0.0952,-0.8203,0.6472,88,3.418,-37.2925,-10.3149,159,1.4287,1.4887,20.4447,-44.2171,29,0.1791,9485,3.8687,-3.7629
lg,1625424637945249377,0,-0.0457,-0.8591,0.4998,89,9.6436,-36.377,-2.5024,159,1.4417,1.4837,18.669,-44.1339,29,0.1801,9215,3.8687,-2.9858
lg,1625424637945270088,0,-0.0391,-0.9678,0.7029,90,-6.6528,-32.7759,32.7148,159,1.4417,1.4867,17.9957,-44.1843,29,0.1841,9734,3.8687,-1.1641
lg,1625424637945288815,0,-0.2178,-0.8538,0.6365,91,-8.5449,-26.001,32.4097,159,1.4277,1.4917,17.9088,-44.3482,29,0.1861,9013,3.8687,0.4628
lg,1625424637945306986,0,-0.501,-0.6104,0.6702,92,-12.4512,-41.4429,44.1895,159,1.4067,1.4967,18.3867,-43.9643,29,0.1871,9720,3.8687,3.0417
lg,1625424637945324545,0,-0.3357,-0.6694,0.7966,93,-37.3535,-118.7134,39.1846,159,1.3807,1.4977,16.0521,-43.9157,29,0.1861,9588,3.8687,7.7297
lg,1625424637945342809,0,0.0657,-0.6702,0.8511,94,-46.9971,-150.3296,38.3301,159,1.3667,1.4947,11.5282,-44.2655,29,0.1861,9104,3.8687,12.4907
lg,1625424637945361091,0,0.2769,-0.9202,0.4751,95,-18.4937,-100.2808,9.7046,159,1.3597,1.4897,7.9745,-45.1638,29,0.1841,9139,3.8687,15.5041
lg,1625424637945379466,0,0.167,-0.9604,0.4436,96,-1.9531,21.6675,-0.1221,159,1.3567,1.4857,7.9279,-46.0956,29,0.1821,9199,3.8687,14.7701
lg,1625424638296808631,0,-0.3335,-0.8174,0.7139,97,24.5972,147.4609,17.334,159,1.3547,1.4857,12.8553,-45.8995,29,0.1831,26967,3.8687,10.9275
lg,1625424638296856539,0,-0.4255,-0.6138,0.6423,98,29.9072,85.2661,33.3252,159,1.3567,1.4877,16.6776,-45.0075,30,0.1841,8673,3.8687,9.3988
lg,1625424638296877619,0,-0.3245,-0.7268,0.8025,99,22.7051,53.2837,39.5508,159,1.3637,1.4917,18.274,-44.0475,30,0.1851,8588,3.8687,10.0636
lg,1625424638296897439,0,-0.0925,-0.8174,0.8254,100,13.1836,-29.7852,24.292,159,1.3887,1.4967,17.5422,-43.0466,30,0.1861,14793,3.8687,11.6557
lg,1625424638296917110,0,0.0449,-0.8262,0.7959,101,18.0664,-12.6953,2.3804,113,1.4087,1.4987,16.4648,-42.3154,29,0.1861,8536,3.9193,12.0481
lg,1625424638296935928,0,-0.0339,-0.8054,0.6865,102,29.9683,26.001,-15.686,113,1.4267,1.4977,16.2415,-41.7501,29,0.1851,8538,3.9193,10.7491
lg,1625424638296954469,0,-0.2788,-0.9014,0.4224,103,29.3579,48.4619,-25.7568,113,1.4397,1.4947,16.8598,-42.0294,29,0.1831,8554,3.9193,8.2138
lg,1625424638296973528,0,-0.3188,-0.7551,0.2512,104,34.3628,32.4097,-18.1885,113,1.4497,1.4887,17.6002,-42.1757,29,0.1801,8563,3.9193,6.4215
lg,1625424638296991438,0,-0.2302,-0.7722,0.6731,105,2.5024,7.9346,32.7759,113,1.4517,1.4857,18.518,-42.0913,29,0.1841,9312,3.9193,7.1368
lg,1625424638297009849,0,-0.2578,-0.8103,0.7705,106,-7.5684,-16.9678,38.3301,113,1.4407,1.4877,18.8216,-42.0209,29,0.1871,9975,3.9193,8.7636
lg,1625424638297027722,0,-0.4797,-0.6699,0.7468,107,-6.6528,-29.48,48.0957,113,1.4277,1.4937,19.4887,-41.498,29,0.1881,11414,3.9193,11.1207
lg,1625424638297046410,0,-0.6082,-0.5342,0.6807,108,-21.1182,-77.0874,53.6499,113,1.4127,1.4967,19.2025,-40.9314,29,0.1881,8478,3.9193,15.0343
lg,1625424638297064543,0,-0.3972,-0.7671,0.7439,109,-47.4854,-141.5405,55.542,113,1.3917,1.4977,16.4651,-41.2701,29,0.1891,8706,3.9193,20.6447
lg,1625424638297082860,0,0.272,-0.7861,0.9041,110,-37.7808,-120.6665,63.3545,113,1.3817,1.4977,13.4229,-41.3972,29,0.1881,8701,3.9193,25.9184
lg,1625424638297100900,0,0.2026,-1.0718,0.7852,111,-21.8506,-71.228,55.542,113,1.3767,1.4977,11.7978,-41.723,29,0.1871,8711,3.9193,29.5015
lg,1625424638297118588,0,0.1663,-0.9341,0.699,112,-0.5493,12.3291,24.353,113,1.3767,1.4987,12.0466,-42.1082,30,0.1871,9459,3.9193,29.812
lg,1625424638297136312,0,0.0059,-0.781,0.738,113,8.728,48.4619,11.4746,113,1.3787,1.5007,13.2963,-42.1489,30,0.1871,8785,3.9193,28.7866
lg,1625424638297155872,0,-0.1526,-0.8289,0.6252,114,9.7046,38.0249,-4.0894,113,1.3877,1.5007,14.1151,-42.4652,30,0.1891,9029,3.9193,27.5075
lg,1625424638297173597,0,-0.2979,-0.8306,0.6741,115,8.4229,27.4658,-19.2871,113,1.3987,1.5017,14.4563,-42.7858,30,0.1891,8835,3.9193,26.0737
lg,1625424638297191358,0,-0.293,-0.7778,0.6714,116,9.5215,16.9678,-21.8506,113,1.4117,1.5017,14.1662,-42.712,30,0.1921,8831,3.9193,25.3255
lg,1625424638297209231,0,-0.2366,-0.637,0.4292,117,12.146,-7.9346,-10.9863,113,1.4187,1.5007,13.764,-42.7584,30,0.1931,8864,3.9193,25.0919
lg,1625424638297227160,0,-0.1514,-0.9189,0.6047,118,-15.1367,-27.2217,2.0752,113,1.4157,1.5017,12.8088,-43.7164,30,0.1941,8871,3.9193,25.793
lg,1625424638297245682,0,0.0264,-1.0264,0.8049,119,-24.1699,-40.2832,25.4517,113,1.4087,1.5037,11.8224,-44.5948,30,0.1951,8907,3.9193,27.6221
lg,1625424638297264352,0,-0.2004,-0.791,0.6553,120,-10.1318,6.6528,32.7759,113,1.4007,1.5047,12.9016,-45.0547,30,0.1961,9008,3.9193,28.3343
lg,1625424638297333600,0,-0.2642,-0.5542,0.9067,121,-12.0239,9.0332,37.7808,113,1.3927,1.5007,13.5858,-44.8959,30,0.1981,8963,3.9193,29.3001
lg,1625424638297360539,0,-0.394,-0.6763,0.6814,122,-13.9771,-25.7568,7.2021,113,1.3887,1.4957,13.4075,-45.2144,30,0.1981,8985,3.9193,30.2642
lg,1625424638297380154,0,-0.2939,-0.905,0.5493,123,-16.9678,-62.6831,3.0518,113,1.3877,1.4917,11.8447,-45.9849,29,0.1971,9010,3.9193,32.071
lg,1625424638297399084,0,-0.144,-0.8286,0.6189,124,-7.2021,-42.4194,3.9673,113,1.3857,1.4917,10.6361,-46.2858,29,0.1961,11179,3.9193,33.3755
lg,1625424638297417254,0,-0.1616,-0.7952,0.5691,125,7.019,-16.7847,16.2964,113,1.3857,1.4927,10.5966,-46.1409,29,0.1971,9053,3.9193,34.2696
lg,1625424638297435015,0,-0.1118,-0.78,0.5825,126,6.4697,-18.3716,14.3433,113,1.3827,1.4947,10.3433,-45.9837,29,0.1971,9082,3.9193,35.1618
lg,1625424638297453240,0,0.0098,-0.8184,0.6338,127,2.9297,-19.8975,13.6108,113,1.3917,1.4977,9.7557,-45.9388,29,0.1971,9100,3.9193,36.0829
lg,1625424638297477862,0,0.042,-0.8752,0.6829,128,7.5684,-11.6577,9.5825,113,1.3977,1.5017,9.2386,-45.77,29,0.1961,9220,3.9193,36.6513
lg,1625424638677307587,0,0.0916,-0.749,0.5442,129,15.3198,10.1318,-2.5024,113,1.4277,1.5007,8.867,-45.5335,29,0.1961,28507,3.9193,36.2324
lg,1625424638677356681,0,0.0457,-0.9075,0.7148,130,4.7607,29.6631,12.146,113,1.4317,1.4987,9.6008,-45.6651,29,0.1961,10200,3.9193,35.6773
lg,1625424638677388218,0,-0.0388,-0.9888,0.7854,131,-3.6621,36.0107,25.4517,113,1.4297,1.4997,11.108,-46.0198,29,0.1991,8903,3.9193,35.3185
lg,1625424638677417345,0,-0.2131,-0.7722,0.8433,132,-5.9814,43.396,32.7148,113,1.4217,1.5037,13.2225,-46.1803,30,0.2011,8295,3.9193,34.9913
lg,1625424638677445489,0,-0.4836,-0.6577,0.7542,133,-5.8594,12.6343,44.1895,113,1.4127,1.5067,15.3356,-45.9958,30,0.2011,8251,3.9193,35.9242
lg,1625424638677473114,0,-0.3308,-0.5984,0.7468,134,-24.9023,-49.0723,43.7012,113,1.4017,1.5077,15.3848,-45.9731,30,0.2011,9044,3.9193,38.7269
lg,1625424638677500962,0,-0.1455,-0.6265,0.8853,135,-27.8931,-57.6782,32.0435,113,1.3947,1.5027,14.4128,-45.9633,29,0.2011,8167,3.9193,41.4849
lg,1625424638677528587,0,-0.1687,-0.8779,0.7107,136,-13.3057,-41.9312,13.7329,113,1.3937,1.5027,13.4178,-46.2922,29,0.2011,7934,3.9193,43.0768
lg,1625424638677554599,0,-0.3521,-0.8137,0.4336,137,2.9907,-11.2305,-8.9722,113,1.3937,1.5027,13.1601,-46.7316,29,0.2021,8813,3.9193,43.0239
lg,1625424638677581093,0,-0.3779,-0.7051,0.6086,138,9.0942,11.1694,0.061,113,1.3927,1.5037,13.7307,-46.3388,29,0.2021,8338,3.9193,42.7174
lg,1625424638677606883,0,-0.2314,-0.6914,0.6802,139,7.2021,-10.8032,31.189,113,1.3957,1.5057,14.3139,-45.7111,30,0.2021,8354,3.9193,43.9403
lg,1625424638677632821,0,-0.031,-0.8762,0.6772,140,2.6245,-24.7192,19.2261,113,1.4027,1.5067,13.6767,-45.5536,30,0.2031,9505,3.9193,45.1575
lg,1625424638677657980,0,-0.0078,-0.8425,0.6628,141,7.6294,-8.1787,3.6621,113,1.4077,1.5087,13.0324,-45.4131,30,0.2031,10279,3.9193,45.4432
lg,1625424638677683918,0,0.0188,-0.7593,0.7241,142,10.0098,5.7373,-0.4883,113,1.4177,1.5097,12.6248,-45.0818,30,0.2041,8451,3.9193,45.2524
lg,1625424638677710875,0,-0.0078,-0.7324,0.5334,143,11.4746,9.5215,-5.8594,113,1.4237,1.5077,12.1307,-44.9694,29,0.2021,8818,3.9193,44.7979
lg,1625424638677738964,0,0.0308,-0.7642,0.5583,144,7.5073,-1.709,-5.3711,113,1.4237,1.5077,11.3849,-45.0386,29,0.2011,8534,3.9193,44.6181
lg,1625424638677765736,0,0.043,-1.0173,0.552,145,-11.2915,-25.0854,16.5405,113,1.4187,1.5097,10.6412,-45.9043,29,0.2031,8887,3.9193,45.6944
lg,1625424638677792861,0,0.1213,-0.8503,0.6262,146,-16.4185,-9.8877,42.4194,113,1.4127,1.5107,10.9232,-46.5789,29,0.2041,8636,3.9193,47.1244
lg,1625424638677819244,0,-0.1721,-0.7209,0.688,147,-10.0708,31.311,43.335,113,1.4037,1.5107,12.9898,-46.9013,29,0.2051,8959,3.9193,47.4049
lg,1625424638677846924,0,-0.2795,-0.6499,0.6155,148,-6.4087,18.3105,49.7437,113,1.3927,1.5087,15.1076,-46.9256,29,0.2061,8602,3.9193,48.2555
lg,1625424638677873140,0,-0.0906,-0.6218,0.8103,149,-13.0615,-11.1694,46.4478,113,1.3867,1.5047,15.7645,-46.6095,29,0.2051,9024,3.9193,50.0128
lg,1625424638677903268,0,-0.0906,-0.8704,0.6929,150,5.0049,-6.0425,34.3018,113,1.3847,1.5037,16.1533,-46.2779,30,0.2061,13833,3.9193,51.1225
lg,1625424638677932117,0,0.0996,-0.8364,0.6526,151,13.916,11.9019,43.6401,113,1.3857,1.5047,16.903,-45.6916,30,0.2061,8913,3.9193,51.9568
lg,1625424638677958611,0,0.0457,-0.8862,0.6453,152,14.8315,27.5879,33.1421,113,1.3907,1.5067,17.9692,-45.2881,30,0.2071,8948,3.9193,52.0296
lg,1625424638677984512,0,-0.0647,-0.7839,0.7217,153,15.7471,47.4854,8.1177,113,1.3987,1.5077,18.9574,-45.1098,30,0.2071,8988,3.9193,50.8197
lg,1625424638678010468,0,-0.1836,-0.7327,0.7549,154,19.5312,57.4951,-7.9956,113,1.4067,1.5077,19.9851,-44.9352,29,0.2071,9001,3.9193,48.8655
lg,1625424638678037315,0,-0.2405,-0.7437,0.6589,155,20.3247,49.6216,-12.4512,113,1.4107,1.5057,20.7749,-44.91,29,0.2041,10478,3.9193,46.9441
lg,1625424638678064013,0,-0.1729,-0.7737,0.4692,156,13.0615,15.5029,2.2583,113,1.4117,1.5037,20.8993,-45.0926,29,0.2021,9020,3.9193,46.3409
lg,1625424638678090600,0,-0.1086,-0.9692,0.7725,157,-14.7705,2.6855,29.4189,113,1.4117,1.5047,21.1897,-45.6488,29,0.2051,9069,3.9193,47.0522
lg,1625424638678117298,0,-0.197,-0.7407,0.7463,158,-8.4229,27.6489,35.3394,113,1.4077,1.5087,22.546,-45.8585,29,0.2051,9269,3.9193,47.2738
lg,1625424638678143458,0,-0.5525,-0.5898,0.7214,159,-10.3149,24.5972,30.7617,113,1.3987,1.5087,24.4289,-45.9483,29,0.2061,10940,3.9193,47.5321
lg,1625424638678169656,0,-0.468,-0.6401,0.7788,160,-22.644,-43.1519,10.3149,113,1.3937,1.5077,23.5512,-45.9023,29,0.2071,9152,3.9193,49.3193
lg,1625424639050194707,0,-0.082,-0.9016,0.5269,161,-2.3804,-16.5405,0.7324,113,1.3897,1.5037,22.3955,-46.3611,29,0.2051,27774,3.9193,49.6306
lg,1625424639050253290,0,-0.2341,-0.8049,0.6106,162,10.0708,32.8369,12.7563,113,1.3907,1.5037,23.3016,-46.3418,30,0.2051,10567,3.9193,48.9266
lg,1625424639050275889,0,-0.2178,-0.7629,0.6436,163,10.0708,20.3247,18.1885,113,1.3917,1.5057,23.9485,-46.1135,30,0.2061,8420,3.9193,48.7758
lg,1625424639050295485,0,-0.1609,-0.8352,0.6121,164,8.8501,9.8267,15.0146,113,1.3957,1.5067,24.062,-46.017,30,0.2061,8456,3.9193,48.7891
lg,1625424639050315080,0,-0.0498,-0.7969,0.6895,165,9.8267,6.1646,11.1694,113,1.4027,1.5087,23.7223,-45.6902,30,0.2081,8455,3.9193,48.8795
lg,1625424639050333768,0,0.0237,-0.7705,0.7495,166,13.3057,7.5073,3.1128,113,1.4137,1.5097,23.0564,-45.2094,29,0.2081,10463,3.9193,48.7368
lg,1625424639050353512,0,0.0627,-0.7402,0.79,167,12.146,10.0098,-4.3945,113,1.4187,1.5077,22.2257,-45.304,29,0.2051,9089,3.9193,47.9112
lg,1625424639050373237,0,0.019,-0.8625,0.5776,168,12.146,12.4512,-8.3618,113,1.4207,1.5027,21.4486,-45.5071,29,0.1991,8531,3.9193,47.1031
lg,1625424639050393686,0,-0.01,-0.906,0.5215,169,7.3853,6.3477,10.2539,113,1.4227,1.5057,21.1293,-45.7738,29,0.2011,8584,3.9193,46.9928
lg,1625424639050412373,0,0.0095,-0.9524,0.7075,170,-16.3574,6.5918,33.3862,113,1.4157,1.5097,21.6107,-46.2401,30,0.2051,8565,3.9193,47.7461
lg,1625424639050431505,0,-0.2273,-0.6919,0.7041,171,-2.2583,38.6353,38.4521,113,1.4097,1.5117,23.4362,-46.2674,30,0.2041,8380,3.9193,47.7134
lg,1625424639050450155,0,-0.4756,-0.5303,0.7075,172,-10.2539,16.3574,35.8887,113,1.4007,1.5107,25.1167,-46.0694,30,0.2051,8806,3.9193,48.4317
lg,1625424639050470214,0,-0.3367,-0.6675,0.7241,173,-19.7144,-38.147,21.0571,113,1.3957,1.5087,24.418,-45.9259,29,0.2061,8419,3.9193,50.3519
lg,1625424639050493740,0,-0.3086,-0.8174,0.6433,174,-16.1743,-51.5747,19.5923,113,1.3927,1.5067,23.2418,-45.9064,29,0.2061,8076,3.9193,52.4743
lg,1625424639050524571,0,-0.2754,-0.9116,0.5962,175,-7.8125,-28.2593,13.9771,113,1.3917,1.5067,22.5166,-46.1512,29,0.2061,9954,3.9193,53.605
lg,1625424639050550470,0,-0.1609,-0.7205,0.8179,176,7.4463,14.5264,32.7148,113,1.3887,1.5087,23.2996,-45.4307,29,0.2051,9381,3.9193,54.2179
lg,1625424639050573921,0,-0.0535,-0.8362,0.7534,177,4.5166,9.0942,31.189,113,1.3937,1.5097,23.6368,-45.0811,29,0.2061,8159,3.9193,54.847
lg,1625424639050593869,0,-0.1116,-0.8242,0.7026,178,7.019,32.5317,4.1504,113,1.3977,1.5117,23.9701,-45.3382,29,0.2061,8911,3.9193,53.889
lg,1625424639050660220,0,-0.1934,-0.7788,0.7234,179,8.9111,41.9922,-1.8921,113,1.4057,1.5117,24.5449,-45.6108,29,0.2061,8228,3.9193,52.4872
lg,1625424639050687139,0,-0.2427,-0.7317,0.7559,180,7.2021,34.1187,-10.2539,113,1.4167,1.5107,24.7382,-45.826,29,0.2081,8698,3.9193,51.1269
lg,1625424639050707291,0,-0.1777,-0.7593,0.6401,181,6.6528,8.9722,-15.9302,113,1.4267,1.5087,23.9543,-46.039,29,0.2071,8989,3.9193,50.2895
lg,1625424639050725755,0,-0.0845,-0.8384,0.4319,182,-1.3428,-13.3057,-9.3384,113,1.4327,1.5047,22.6185,-46.7333,29,0.2031,8628,3.9193,50.1482
lg,1625424639050743757,0,-0.0554,-0.9294,0.4551,183,-7.5684,-16.9678,0.3662,113,1.4357,1.5057,21.443,-47.54,29,0.2031,8340,3.9193,50.425
lg,1625424639050762889,0,0.0259,-1.0383,0.6755,184,-21.3623,-10.8032,24.9634,113,1.4317,1.5067,21.029,-48.3921,30,0.2061,8646,3.9193,51.3482
lg,1625424639050781576,0,-0.1687,-0.7844,0.6426,185,-14.6484,18.6768,27.2217,113,1.4217,1.5097,21.8755,-48.9976,30,0.2071,9155,3.9193,51.485
lg,1625424639050800208,0,-0.4224,-0.6653,0.6379,186,-11.3525,11.1694,30.5786,113,1.4167,1.5117,23.1933,-49.1362,30,0.2081,8391,3.9193,52.0295
lg,1625424639050818005,0,-0.4875,-0.6443,0.6738,187,-16.2964,-13.6108,28.6255,113,1.4097,1.5107,23.7584,-49.1842,30,0.2081,8754,3.9193,53.3329
lg,1625424639050851042,0,-0.3223,-0.8093,0.6323,188,-27.6489,-80.8105,35.2173,113,1.4037,1.5107,22.4634,-48.9526,29,0.2071,8454,3.9193,56.9525
lg,1625424639050870044,0,0.0149,-0.7854,0.6433,189,-18.6157,-78.125,38.3911,113,1.4007,1.5107,20.6653,-48.4288,29,0.2081,8849,3.9193,60.5393
lg,1625424639050888379,0,-0.2576,-0.8528,0.4663,190,3.7842,-17.7612,23.0103,113,1.3997,1.5097,20.6687,-48.3584,29,0.2091,8484,3.9193,61.5775
lg,1625424639050905732,0,-0.2793,-0.7458,0.5645,191,6.6528,-12.146,28.1372,113,1.3997,1.5097,20.8316,-47.6133,29,0.2081,8500,3.9193,62.7854
lg,1625424639050923622,0,-0.1008,-0.752,0.7412,192,0.6714,-34.6069,36.438,113,1.4037,1.5117,20.3582,-46.7288,29,0.2081,9288,3.9193,64.96
lg,1625424639459587899,0,-0.0718,-0.863,0.5918,193,3.2349,-9.7046,10.376,113,1.4077,1.5117,19.6975,-46.6726,30,0.2101,28214,3.9193,65.8318
lg,1625424639459665948,0,-0.0312,-0.8296,0.6431,194,-13.5498,-35.4614,25.2075,113,1.3997,1.5127,18.7633,-46.8321,30,0.2101,11462,3.9193,67.5832
lg,1625424639459696612,0,-0.1135,-0.7378,0.573,195,-3.1128,-15.7471,12.7563,113,1.3937,1.5077,18.2406,-46.895,30,0.2091,8715,3.9193,68.3675
lg,1625424639459727090,0,-0.2119,-0.717,0.6826,196,-1.8921,-6.5918,3.6621,113,1.3907,1.5047,17.9208,-46.8433,30,0.2091,8478,3.9193,68.6849
lg,1625424639459820266,0,-0.3372,-0.7637,0.4995,197,-1.4648,-15.5029,-11.7188,113,1.3897,1.5027,17.3559,-47.1182,29,0.2081,8488,3.9193,68.6923
lg,1625424639459851393,0,-0.2849,-0.7791,0.5488,198,10.1929,-7.2632,2.4414,113,1.3897,1.5027,17.246,-46.9177,29,0.2081,9435,3.9193,68.897
lg,1625424639459879535,0,-0.2822,-0.7583,0.6372,199,17.334,15.4419,19.043,113,1.3877,1.4997,18.1643,-46.3124,29,0.2081,8849,3.9193,68.9391
lg,1625424639459908549,0,-0.1694,-0.782,0.6985,200,15.8081,-3.7231,20.813,113,1.3897,1.5057,18.3004,-45.5235,29,0.2081,8587,3.9193,69.6358
lg,1625424639459937025,0,-0.1118,-0.8367,0.7275,201,14.4043,-8.1787,9.5825,113,1.3937,1.5067,17.8475,-44.9182,29,0.2091,8599,3.9193,70.1183
lg,1625424639459963758,0,-0.0913,-0.8047,0.741,202,14.5264,-8.2397,4.8218,113,1.4007,1.5087,17.1377,-44.3566,29,0.2081,8622,3.9193,70.4315
lg,1625424639459995422,0,-0.0447,-0.8069,0.7786,203,10.5591,-7.6294,-2.0752,113,1.4067,1.5037,16.2768,-43.9481,29,0.2091,8633,3.9193,70.5713
lg,1625424639460023453,0,0.02,-0.7429,0.6243,204,13.4277,-0.9155,-12.8784,113,1.4097,1.5057,15.2139,-43.7467,29,0.2051,8656,3.9193,70.143
lg,1625424639460163923,0,-0.0176,-0.7842,0.4316,205,10.5591,13.9771,-6.5308,113,1.4097,1.5017,14.9032,-44.1745,30,0.2021,8670,3.9193,69.3628
lg,1625424639460192102,0,-0.0205,-0.9453,0.7285,206,1.2207,18.6768,3.9062,113,1.4107,1.4997,15.4614,-44.7873,30,0.2031,8691,3.9193,69.134
lg,1625424639460219762,0,-0.082,-0.9946,0.7637,207,-11.2915,25.6348,27.2827,113,1.4107,1.4997,16.4937,-45.5294,30,0.2061,8818,3.9193,69.0946
lg,1625424639460248702,0,-0.1831,-0.792,0.8555,208,-12.0239,34.3628,37.4146,113,1.4077,1.5037,18.2157,-45.866,29,0.2051,8772,3.9193,69.1894
lg,1625424639460277326,0,-0.4048,-0.6665,0.6387,209,-12.8784,8.7891,38.6353,113,1.4037,1.5067,19.7798,-46.099,29,0.2071,8799,3.9193,70.0536
lg,1625424639460304652,0,-0.3335,-0.7188,0.6599,210,-19.8364,-28.5034,22.2778,113,1.3967,1.5077,19.5991,-46.4163,29,0.2081,9911,3.9193,71.5696
lg,1625424639460331070,0,-0.1531,-0.9121,0.7168,211,-27.71,-59.1431,26.062,113,1.3867,1.5057,18.2668,-46.898,29,0.2051,11004,3.949,74.0766
lg,1625424639460367388,0,-0.031,-0.9131,0.5625,212,-18.9209,-40.1001,11.4746,85,1.3847,1.5047,16.8823,-47.6422,29,0.2031,8819,3.949,75.4982
lg,1625424639460394066,0,-0.1604,-0.896,0.6206,213,0.4883,7.3853,5.6763,85,1.3827,1.5037,16.913,-47.944,29,0.2031,8902,3.949,75.3399
lg,1625424639460422078,0,-0.2817,-0.8027,0.6299,214,5.5542,21.9727,7.6904,85,1.3827,1.5057,17.8445,-47.8218,29,0.2041,9035,3.949,75.0658
lg,1625424639460475581,0,-0.1562,-0.8301,0.708,215,9.2163,0.3662,20.813,85,1.3857,1.5077,18.0821,-47.3348,30,0.2061,9326,3.949,75.6225
lg,1625424639460504428,0,-0.03,-0.8645,0.6868,216,9.8267,-15.4419,5.7983,85,1.3947,1.5097,17.1865,-46.9125,30,0.2061,9169,3.949,76.2088
lg,1625424639460531254,0,-0.0164,-0.8479,0.7021,217,15.8081,-11.1084,-14.5264,85,1.4077,1.5107,15.8204,-46.4367,30,0.2061,9190,3.949,76.0886
lg,1625424639460557598,0,-0.0217,-0.825,0.72,218,20.752,-6.1035,-28.4424,85,1.4197,1.5097,14.2082,-45.6536,30,0.2051,8794,3.949,75.4828
lg,1625424639460586667,0,-0.0457,-0.8154,0.6436,219,22.2778,2.9297,-48.0957,85,1.4347,1.5047,12.509,-45.7481,29,0.1981,9145,3.949,73.9062
lg,1625424639460615921,0,-0.0552,-0.8125,0.2644,220,28.5645,-12.0239,-39.7949,85,1.4487,1.4967,10.4417,-45.8843,29,0.1921,9799,3.949,72.8844
lg,1625424639460645862,0,0.134,-0.7715,0.4116,221,4.3335,-6.3477,-0.7324,85,1.4547,1.4947,9.5138,-46.3021,29,0.1931,9261,3.949,72.9378
lg,1625424639460675784,0,-0.0317,-1.0254,0.8142,222,-8.1177,32.2266,20.9961,85,1.4467,1.4957,10.6822,-46.8895,29,0.1971,8799,3.949,72.5365
lg,1625424639460703147,0,-0.2119,-0.8047,0.8347,223,-8.0566,38.4521,36.8652,85,1.4377,1.5017,12.787,-47.1072,29,0.1971,9470,3.949,72.4333
lg,1625424639460732568,0,-0.4866,-0.5852,0.7107,224,-6.958,20.752,44.3115,85,1.4267,1.5057,15.2356,-46.9481,29,0.1981,8929,3.949,73.1138
lg,1625424639809803062,0,0.1033,-0.6494,0.8442,225,-36.2549,-92.2241,47.6074,85,1.3967,1.5017,13.7948,-47.493,29,0.1981,26454,3.949,76.1318
lg,1625424639809841548,0,-0.0459,-1.0166,0.6121,226,-16.2354,-32.8979,29.3579,85,1.3937,1.5007,13.3378,-48.1668,29,0.1971,8832,3.949,77.8391
lg,1625424639809862590,0,-0.0969,-0.8047,0.6409,227,5.7983,12.4512,20.2637,85,1.3927,1.5017,13.9545,-48.0164,29,0.1971,7931,3.949,77.9828
lg,1625424639809882334,0,0.0112,-0.8994,0.7168,228,8.606,20.2637,37.6587,85,1.3987,1.5047,15.0394,-47.6963,29,0.1981,14278,3.949,78.3672
lg,1625424639809901151,0,0.0208,-0.8872,0.6636,229,12.085,21.7896,8.8501,85,1.4057,1.5067,15.2535,-47.539,29,0.1991,7929,3.949,77.8865
lg,1625424639809975511,0,-0.0383,-0.8389,0.6494,230,15.7471,30.4565,-0.3662,85,1.4167,1.5077,15.5422,-47.3434,29,0.2001,8126,3.949,76.8926
lg,1625424639809998926,0,-0.1394,-0.7048,0.7026,231,23.6206,42.4194,-16.1133,85,1.4287,1.5067,15.9177,-46.7718,29,0.2001,7950,3.949,75.1696
lg,1625424639810017613,0,-0.2319,-0.7446,0.417,232,17.2119,11.4746,-19.2261,85,1.4367,1.5037,15.6552,-46.868,29,0.1991,7967,3.949,74.1262
lg,1625424639810035410,0,-0.1802,-0.7825,0.3403,233,13.1226,-15.625,-11.7188,85,1.4387,1.5007,14.4922,-46.9303,29,0.1981,8440,3.949,74.0991
lg,1625424639810052948,0,0.033,-1.0278,0.657,234,-16.6626,-34.8511,21.0571,85,1.4387,1.5027,13.5492,-47.6101,29,0.2021,8428,3.949,75.6424
lg,1625424639810087004,0,0.0027,-0.8367,0.7244,235,-11.1084,10.1929,36.5601,85,1.4307,1.5057,14.3628,-47.9338,30,0.2031,11677,3.949,76.329
lg,1625424639810110790,0,-0.3999,-0.606,0.7156,236,1.1597,30.7617,38.269,85,1.4247,1.5087,16.8843,-47.481,30,0.2031,9801,3.949,76.5449
lg,1625424639810128809,0,-0.47,-0.5698,0.769,237,-17.6392,-34.9121,28.2593,85,1.4177,1.5087,17.1473,-47.2184,30,0.2041,8465,3.949,78.5445
lg,1625424639810148331,0,-0.2109,-0.8547,0.6445,238,-22.583,-92.4072,25.6348,85,1.4137,1.5087,15.1706,-47.3512,30,0.2051,8105,3.949,82.0342
lg,1625424639810166258,0,-0.001,-0.8953,0.6787,239,-19.5923,-91.6138,32.8369,85,1.4117,1.5087,13.3209,-47.4621,29,0.2051,8091,3.949,84.856
lg,1625424639810184538,0,0.0454,-0.9131,0.5864,240,-2.8687,-28.2593,16.9067,85,1.4107,1.5087,12.4508,-47.6675,29,0.2061,8177,3.949,86.0906
lg,1625424639810204319,0,-0.0615,-0.7932,0.7256,241,11.2305,30.2734,17.0898,85,1.4127,1.5097,13.4023,-47.3023,29,0.2061,9297,3.949,85.6467
lg,1625424639810223358,0,-0.0647,-0.7727,0.6895,242,12.5122,25.8789,14.9536,85,1.4177,1.5107,14.1497,-46.9171,29,0.2061,8834,3.949,85.2732
lg,1625424639810241823,0,-0.072,-0.8083,0.6533,243,10.1318,19.5923,5.6763,85,1.4257,1.5127,14.049,-46.7655,29,0.2061,8241,3.949,84.6626
lg,1625424639810259231,0,-0.0513,-0.7754,0.7649,244,8.4229,16.1743,-11.9019,85,1.4307,1.5117,13.6943,-46.5592,29,0.2081,8198,3.949,83.8556
lg,1625424639810290265,0,-0.1299,-0.7283,0.3711,245,13.0005,3.7842,-10.437,85,1.4347,1.5087,13.3279,-46.7774,29,0.2061,9052,3.949,83.295
lg,1625424639810308637,0,-0.0623,-0.8987,0.4702,246,-7.3853,-19.7754,11.7188,85,1.4367,1.5077,12.7646,-47.4781,29,0.2081,8623,3.949,84.0766
lg,1625424639810326954,0,0.0833,-0.9929,0.6479,247,-22.3389,-30.0903,46.5698,85,1.4337,1.5097,12.6902,-48.2523,29,0.2091,8859,3.949,86.1923
lg,1625424639810344918,0,-0.084,-0.7578,0.7366,248,-19.7144,-7.6294,51.5137,85,1.4207,1.5117,14.288,-48.4064,29,0.2071,8722,3.949,87.1311
lg,1625424639810362623,0,-0.0505,-0.4395,0.8992,249,-5.9814,24.4751,48.3398,85,1.4077,1.5087,15.9639,-47.5882,29,0.2081,8898,3.949,87.9332
lg,1625424639810380439,0,-0.4316,-0.6904,0.6418,250,-13.0005,-17.7002,27.0996,85,1.4007,1.5047,16.6274,-47.7097,29,0.2061,9111,3.949,89.2475
lg,1625424639810398199,0,-0.1589,-0.9119,0.4949,251,-27.0386,-69.1528,12.5122,85,1.3927,1.5017,14.8685,-48.6571,29,0.2031,8425,3.949,91.5845
lg,1625424639810415996,0,0.0171,-0.9326,0.6809,252,-7.019,-15.8081,29.541,85,1.3877,1.4977,14.7254,-48.8072,29,0.2021,8384,3.949,92.8283
lg,1625424639810433646,0,0.0107,-0.8591,0.6421,253,4.1504,11.4136,32.2266,85,1.3857,1.4977,16.0718,-48.6993,29,0.2021,9181,3.949,92.6534
lg,1625424639810451239,0,-0.1133,-0.8582,0.5999,254,10.3149,42.5415,27.71,85,1.3847,1.4967,17.6287,-48.7029,29,0.2031,8481,3.949,92.006
lg,1625424639810468721,0,-0.187,-0.7896,0.5642,255,14.0991,43.335,24.9023,85,1.3877,1.4997,19.2468,-48.5783,29,0.2031,8844,3.949,91.2538
lg,1625424639810487242,0,-0.1887,-0.821,0.6758,256,12.085,29.0527,19.104,85,1.3937,1.5027,20.2172,-48.2961,29,0.2041,9263,3.949,90.8397
lg,1625424640172480597,0,-0.0198,-0.7478,0.7588,257,25.8789,22.2168,-23.3765,85,1.4287,1.5047,19.3678,-47.5606,29,0.2031,26850,3.949,89.5244
lg,1625424640172520138,0,-0.0676,-0.8645,0.5762,258,26.7944,31.9824,-38.0859,85,1.4537,1.4977,18.5815,-47.7641,29,0.1911,13875,3.949,87.4122
lg,1625424640172540937,0,-0.0774,-0.8318,0.2615,259,27.4658,20.813,-25.2686,85,1.4617,1.4867,17.9174,-48.0842,30,0.1871,8521,3.949,85.7313
lg,1625424640172585187,0,0.0051,-0.7915,0.5603,260,7.8125,41.0156,11.9629,85,1.4637,1.4817,18.6513,-48.3355,30,0.1891,8258,3.949,84.6925
lg,1625424640172606283,0,-0.2551,-0.8779,0.7896,261,-0.4272,59.6313,21.7285,85,1.4617,1.4827,20.6106,-48.7607,30,0.1921,7893,3.949,83.4069
lg,1625424640172625265,0,-0.4614,-0.7014,0.792,262,-6.3477,25.8789,37.1704,85,1.4487,1.4907,22.5224,-48.6389,30,0.1941,10440,3.949,83.7255
lg,1625424640172643451,0,-0.5349,-0.6157,0.6975,263,-7.0801,-2.1973,49.3774,85,1.4367,1.4967,23.8635,-48.0494,29,0.1931,8506,3.949,86.3347
lg,1625424640172660616,0,-0.6082,-0.657,0.6772,264,-30.5786,-59.2651,52.5513,85,1.4207,1.4987,24.1903,-47.6989,29,0.1931,9220,3.949,89.8702
lg,1625424640172678227,0,-0.2166,-0.7078,0.7375,265,-50.5371,-125.6104,53.1616,85,1.4057,1.4987,21.903,-47.3492,29,0.1941,8045,3.949,95.5313
lg,1625424640172695986,0,0.032,-0.8655,0.6633,266,-22.583,-78.6133,24.5361,85,1.3967,1.4967,19.5979,-47.3293,29,0.1921,8006,3.949,98.639
lg,1625424640172713430,0,-0.0994,-0.9673,0.6526,267,-18.3105,-40.8936,12.8174,85,1.3927,1.4957,18.5653,-47.9546,29,0.1901,8774,3.949,100.1405
lg,1625424640172730856,0,-0.2766,-0.8604,0.5608,268,0.6104,-20.1416,-4.2114,85,1.3917,1.4967,17.7707,-48.118,29,0.1891,8442,3.949,100.5429
lg,1625424640172748337,0,-0.0986,-0.7126,0.7922,269,6.1646,-12.3901,28.9307,85,1.3917,1.4987,17.8026,-47.2389,29,0.1891,8030,3.949,101.8217
lg,1625424640172765447,0,-0.0559,-0.887,0.78,270,1.0986,-18.6157,30.2734,85,1.3947,1.4997,17.4091,-47.0058,29,0.1901,8088,3.949,103.179
lg,1625424640172784875,0,0.0698,-0.9312,0.616,271,3.6621,-25.7568,6.6528,85,1.4017,1.5017,16.0974,-46.9586,29,0.1911,8137,3.949,104.0398
lg,1625424640172803412,0,-0.001,-0.8569,0.603,272,10.8643,4.3335,-4.9438,85,1.4087,1.5047,15.4456,-46.913,29,0.1921,8110,3.949,103.6785
lg,1625424640172821616,0,-0.0942,-0.8132,0.5815,273,13.2446,13.6108,-6.6528,85,1.4157,1.5057,15.3649,-46.9484,29,0.1931,8161,3.949,102.9679
lg,1625424640172839653,0,-0.0657,-0.6624,0.4368,274,12.8784,-4.3335,-0.6714,85,1.4237,1.5057,14.8143,-46.7869,29,0.1961,8565,3.949,102.9768
lg,1625424640172857598,0,0.0608,-0.7908,0.5891,275,-6.3477,-10.7422,1.77,85,1.4257,1.5057,13.8616,-47.2017,29,0.1961,8948,3.949,103.287
lg,1625424640172875264,0,0.0576,-1.0205,0.6001,276,-15.625,-10.9863,25.5737,85,1.4247,1.5067,13.6807,-48.0636,29,0.1981,8575,3.949,104.2155
lg,1625424640172905295,0,0.0732,-0.9475,0.6606,277,-16.2964,1.5869,38.6353,85,1.4207,1.5077,14.3921,-48.4753,29,0.1981,8333,3.949,105.2229
lg,1625424640172924018,0,-0.1592,-0.7266,0.7844,278,-10.6812,42.7856,39.4897,85,1.4137,1.5077,16.4649,-48.7251,29,0.2001,9071,3.949,105.0291
lg,1625424640172942982,0,-0.4124,-0.6895,0.5693,279,-7.0801,12.085,32.4707,85,1.4077,1.5057,18.0806,-48.9079,29,0.2011,9059,3.949,105.5253
lg,1625424640172961427,0,-0.1953,-0.895,0.6145,280,-13.916,-36.1938,30.7007,85,1.4077,1.5037,17.7519,-49.1076,29,0.2011,14009,3.949,107.4397
lg,1625424640172979909,0,-0.0891,-0.8445,0.6992,281,2.9907,-4.4556,37.3535,85,1.4087,1.5047,18.2411,-48.6665,29,0.2021,9729,3.949,108.5955
lg,1625424640172998169,0,-0.0022,-0.8401,0.7466,282,6.897,2.4414,36.438,85,1.4127,1.5067,18.5832,-48.1199,29,0.2011,8403,3.949,109.5217
lg,1625424640173057972,0,0.0913,-0.8193,0.7188,283,13.5498,7.0801,11.6577,85,1.4207,1.5077,18.2126,-47.5611,29,0.2001,8742,3.949,109.6173
lg,1625424640173111786,0,0.0066,-0.8418,0.7017,284,19.6533,34.3018,-30.5786,85,1.4317,1.5057,17.5065,-47.4682,29,0.1971,8832,3.949,107.6526
lg,1625424640173132215,0,-0.1819,-0.8391,0.6519,285,26.9775,49.0112,-53.2227,85,1.4507,1.4997,16.9467,-47.4671,30,0.1931,9077,3.949,104.5785
lg,1625424640173151846,0,-0.3137,-0.7485,0.1294,286,35.0342,21.3013,-30.1514,85,1.4607,1.4897,16.9378,-47.6852,30,0.1901,9244,3.949,102.7256
lg,1625424640173171756,0,-0.2349,-0.8872,0.532,287,19.8364,6.2256,-9.4604,85,1.4647,1.4837,16.887,-48.2316,30,0.1921,8874,3.949,103.1334
lg,1625424640173190108,0,-0.196,-0.9734,0.7368,288,-16.0522,-24.6582,19.5312,85,1.4637,1.4847,16.5158,-48.6107,30,0.1951,9283,3.949,104.4119
lg,1625424640543262875,0,-0.4294,-0.6934,0.7173,289,-19.5312,-61.0962,41.4429,85,1.4207,1.5017,16.3551,-48.4801,29,0.1961,27459,3.949,107.4805
lg,1625424640543296781,0,0.1719,-0.7136,0.8523,290,-32.2876,-128.9673,26.6113,85,1.4117,1.4997,12.7838,-48.2261,29,0.1961,10381,3.949,112.2938
lg,1625424640543317821,0,0.1826,-0.9812,0.5779,291,-15.0757,-77.1484,18.3716,85,1.4067,1.4967,10.4602,-48.6885,29,0.1951,7928,3.949,115.0565
lg,1625424640543338361,0,0.1677,-1.0107,0.4895,292,-8.3618,-45.7764,9.9487,85,1.4027,1.4947,8.8415,-49.3393,29,0.1931,7872,3.949,116.6186
lg,1625424640543357584,0,-0.0703,-0.8472,0.4297,293,15.686,32.5928,-2.5635,85,1.3997,1.4947,9.4325,-49.4181,29,0.1921,7942,3.949,115.4635
lg,1625424640543376660,0,-0.1799,-0.7102,0.6921,294,26.1841,69.7021,31.1279,85,1.3967,1.4967,12.2212,-48.4611,29,0.1921,9532,3.949,114.1752
lg,1625424640543395568,0,-0.1875,-0.7937,0.6931,295,16.9678,25.7568,38.208,85,1.3967,1.4987,13.9536,-47.7296,29,0.1931,8487,3.949,114.4294
lg,1625424640543435572,0,-0.1108,-0.8108,0.6802,296,13.855,5.3711,30.2124,85,1.3967,1.4987,14.669,-47.0898,29,0.1941,8309,3.949,115.0853
lg,1625424640543455445,0,-0.0327,-0.8008,0.7571,297,10.0098,6.6528,26.8555,85,1.4007,1.5017,15.1193,-46.5157,29,0.1961,8774,3.949,115.6471
lg,1625424640543473556,0,-0.0518,-0.8196,0.7317,298,8.9722,9.9487,26.6113,85,1.4057,1.5017,15.6696,-46.0945,30,0.1971,10847,3.949,116.09
lg,1625424640543491352,0,0.0437,-0.7756,0.7109,299,3.2959,1.4648,29.541,85,1.4097,1.5047,15.8517,-45.7898,30,0.1991,8415,3.949,116.8816
lg,1625424640543509352,0,0.0737,-0.8564,0.7722,300,-7.5684,16.4185,31.7383,85,1.4107,1.5047,16.4556,-46.0506,30,0.1991,8140,3.949,117.2849
lg,1625424640543527130,0,-0.0344,-0.8784,0.7102,301,-8.8501,36.5601,31.5552,85,1.4117,1.5067,17.7926,-46.6563,30,0.2001,10188,3.949,117.03
lg,1625424640543545223,0,-0.1868,-0.7898,0.6985,302,-8.7891,44.3726,28.7476,85,1.4117,1.5077,19.5254,-47.2444,30,0.2001,8116,3.949,116.4648
lg,1625424640543562296,0,-0.2881,-0.8257,0.6143,303,-6.6528,28.9307,28.0762,85,1.4117,1.5077,20.974,-47.7811,30,0.2011,8066,3.949,116.2799
lg,1625424640543579536,0,-0.3054,-0.8127,0.626,304,-3.7231,24.7192,23.2544,85,1.4117,1.5077,22.1447,-48.15,30,0.2001,8113,3.949,116.0925
lg,1625424640543596498,0,-0.3088,-0.7874,0.749,305,2.6855,16.1743,14.6484,85,1.4127,1.5067,22.7564,-47.9967,29,0.1991,8893,3.949,116.0235
lg,1625424640543613497,0,-0.1855,-0.7896,0.7114,306,3.2349,-11.6577,0.2441,85,1.4177,1.5057,21.9427,-47.7103,29,0.1971,8712,3.949,116.408
lg,1625424640543631089,0,-0.0273,-0.8914,0.6687,307,2.1973,-25.6958,-17.5781,85,1.4317,1.5047,19.9392,-47.7305,29,0.1941,8167,3.949,116.6357
lg,1625424640543648700,0,-0.0403,-0.9412,0.6213,308,4.6997,-12.146,-29.3579,85,1.4487,1.5007,18.1964,-48.3521,29,0.1911,8928,3.949,115.9643
lg,1625424640543665977,0,-0.1372,-0.8403,0.3225,309,22.2168,8.5449,-27.71,85,1.4567,1.4937,17.2568,-48.6037,29,0.1891,9034,3.949,114.6672
lg,1625424640543683273,0,-0.2561,-0.845,0.5642,310,-2.0142,4.5166,5.3711,85,1.4577,1.4957,17.4148,-48.9783,29,0.1941,8598,3.949,114.5839
lg,1625424640543714509,0,-0.3223,-0.9287,0.6223,311,-19.6533,-27.6489,19.5312,85,1.4537,1.4987,17.2377,-49.6159,29,0.1971,8629,3.949,115.914
lg,1625424640543735271,0,-0.3374,-0.8201,0.5669,312,-11.7188,-37.2314,32.5317,85,1.4437,1.5037,17.8038,-49.0913,29,0.1971,8533,3.949,118.4029
lg,1625424640543753345,0,-0.4319,-0.6162,0.7559,313,-17.8223,-42.8467,46.0205,85,1.4287,1.5027,18.3135,-48.597,29,0.1971,8813,3.949,121.1555
lg,1625424640543858862,0,-0.2297,-0.6738,0.7092,314,-40.4663,-120.3003,41.0767,85,1.4117,1.5057,16.1781,-48.5359,29,0.1981,8720,3.949,126.1425
lg,1625424640543909655,0,0.2026,-0.9133,0.6492,315,-35.4004,-126.5869,13.7329,85,1.4027,1.5007,12.2708,-49.1207,29,0.1981,9103,3.949,130.3893
lg,1625424640543928081,0,0.1538,-1.0852,0.4841,316,-22.8271,-52.8564,4.0894,85,1.3947,1.4957,10.2918,-50.3416,29,0.1961,8729,3.949,132.0113
lg,1625424640543948176,0,0.0701,-0.8044,0.5046,317,8.2397,22.1558,2.6855,85,1.3917,1.4947,10.3683,-50.4162,29,0.1961,8844,3.949,131.3317
lg,1625424640543967326,0,0.01,-0.752,0.6106,318,13.0615,54.8706,18.4326,85,1.3897,1.4947,12.5139,-50.0546,29,0.1961,8921,3.949,130.228
lg,1625424640543986401,0,-0.0947,-0.8564,0.646,319,14.2212,47.6685,31.4941,85,1.3897,1.4917,14.3986,-49.7489,29,0.1971,8456,3.949,129.5318
lg,1625424640544004160,0,-0.0095,-0.7935,0.5283,320,16.9067,16.7847,22.9492,85,1.3897,1.4957,14.9873,-49.3105,29,0.1981,9212,3.949,129.5485
lg,1625424640915128532,0,-0.1147,-0.7817,0.6729,321,14.7705,4.5166,6.1646,91,1.4207,1.5027,14.5813,-48.6814,29,0.2011,26920,3.9413,129.6896
lg,1625424640915184590,0,0.0264,-0.791,0.6992,322,11.9019,-0.9766,4.3335,91,1.4297,1.5017,14.0556,-48.1524,29,0.2001,8707,3.9413,129.8383
lg,1625424640915206224,0,0.001,-0.9104,0.5959,323,12.3291,10.8643,-2.9297,91,1.4397,1.4997,13.7062,-48.1004,29,0.1981,7889,3.9413,129.3388
lg,1625424640915227116,0,-0.0295,-0.8645,0.6135,324,18.4326,36.9873,2.7466,91,1.4487,1.4977,14.2956,-47.8763,29,0.1961,7869,3.9413,128.2156
lg,1625424640915246895,0,-0.0508,-0.8428,0.624,325,19.043,42.1143,12.085,91,1.4537,1.4957,15.5402,-47.6598,29,0.1961,8774,3.9413,127.1819
lg,1625424640915266731,0,-0.1904,-0.8582,0.5959,326,7.8735,31.9824,27.8931,91,1.4517,1.4957,17.015,-47.6975,29,0.1991,9151,3.9413,126.8944
lg,1625424640915286084,0,-0.1936,-0.8103,0.6799,327,-15.8081,-0.8545,35.4004,91,1.4417,1.4987,17.7753,-48.1046,29,0.2001,8432,3.9413,127.8893
lg,1625424640915305104,0,-0.3367,-0.7266,0.5264,328,-14.2822,-8.3008,60.2417,91,1.4297,1.5027,19.4586,-48.2706,29,0.1991,8374,3.9413,129.7735
lg,1625424640915323308,0,-0.439,-0.6306,0.4946,329,-14.2212,-6.1646,69.9463,91,1.4097,1.5027,21.7407,-48.1896,30,0.1981,7986,3.9413,131.9158
lg,1625424640915342031,0,-0.1914,-0.3674,0.8181,330,-31.4941,-45.105,72.6318,91,1.3897,1.5007,22.3602,-47.1249,30,0.2001,8373,3.9413,135.8288
lg,1625424640915360439,0,-0.1182,-0.9536,0.8975,331,-23.9868,-58.4717,45.8374,91,1.3817,1.4987,21.4391,-46.8625,30,0.1971,8393,3.9413,139.0293
lg,1625424640915378735,0,-0.05,-1.1211,0.929,332,-24.4751,-45.7153,28.2593,91,1.3797,1.4977,20.2223,-47.2683,30,0.1951,8044,3.9413,141.2026
lg,1625424640915397700,0,0.1311,-0.9204,0.7466,333,-2.6245,-23.5596,9.4604,91,1.3817,1.4987,18.7671,-47.2719,29,0.1941,10354,3.9413,142.1263
lg,1625424640915448826,0,0.0928,-0.8596,0.4968,334,11.9019,20.2026,15.3198,91,1.3837,1.4967,18.8488,-47.3722,29,0.1951,8875,3.9413,141.7667
lg,1625424640915470886,0,-0.126,-0.8396,0.4014,335,15.8691,60.3638,-6.2256,91,1.3887,1.5017,19.865,-48.1157,29,0.1951,8127,3.9413,139.4676
lg,1625424640915489609,0,-0.4014,-0.7583,0.6021,336,18.7378,79.9561,-18.0054,91,1.3947,1.5037,21.54,-48.5761,29,0.1971,8151,3.9413,136.3541
lg,1625424640915507906,0,-0.4885,-0.7329,0.6689,337,19.8975,67.5049,-10.6812,91,1.4047,1.5057,23.172,-48.6836,29,0.1981,8905,3.9413,133.8711
lg,1625424640915525721,0,-0.4167,-0.7339,0.6597,338,16.9067,12.207,0.4272,91,1.4097,1.5057,23.4904,-48.124,29,0.1991,8214,3.9413,133.4995
lg,1625424640915543480,0,-0.0991,-0.707,0.6235,339,10.6201,-33.1421,7.9346,91,1.4247,1.5067,22.1512,-47.2075,29,0.2001,8208,3.9413,134.7865
lg,1625424640915561183,0,-0.0073,-0.7444,0.6042,340,8.3618,-39.6729,5.7373,91,1.4337,1.5057,20.3177,-46.6845,29,0.2001,8228,3.9413,136.0731
lg,1625424640915578998,0,0.0791,-0.9385,0.6011,341,2.1362,-27.0386,1.0986,91,1.4417,1.5057,18.6851,-46.7443,29,0.1991,9044,3.9413,136.7888
lg,1625424640915597369,0,-0.0054,-0.9988,0.6741,342,6.3477,9.2773,2.9907,91,1.4407,1.5057,18.3124,-46.9275,29,0.2001,8671,3.9413,136.4676
lg,1625424640915615202,0,-0.1479,-0.9258,0.7546,343,-7.2632,4.6387,18.7378,91,1.4357,1.5077,18.5409,-47.2415,29,0.2031,8358,3.9413,136.8136
lg,1625424640915633462,0,-0.2634,-0.7776,0.6113,344,-12.9395,-10.0708,25.0854,91,1.4267,1.5097,18.6904,-47.5592,29,0.2021,8749,3.9413,138.1724
lg,1625424640915651629,0,-0.3501,-0.6917,0.6287,345,-15.7471,-22.0947,31.9824,91,1.4147,1.5067,19.1108,-47.6628,29,0.2041,9121,3.9413,139.7753
lg,1625424640915669758,0,-0.2896,-0.6272,0.8264,346,-16.2354,-40.2832,10.0708,91,1.4067,1.5007,18.195,-47.3852,29,0.2051,8385,3.9413,141.4612
lg,1625424640915688185,0,-0.3259,-0.9189,0.6057,347,-22.1558,-82.2754,-9.6436,91,1.4067,1.4977,15.6457,-47.9605,29,0.2031,9116,3.9413,143.6285
lg,1625424640915705610,0,-0.1445,-0.8401,0.5901,348,-5.6763,-90.6372,-11.5356,91,1.4057,1.4967,12.5893,-47.8568,29,0.2011,8399,3.9413,146.0163
lg,1625424640915722850,0,0.0176,-0.7749,0.6538,349,-0.3662,-77.3926,7.2021,91,1.4057,1.4967,10.1948,-47.4401,29,0.2011,8452,3.9413,148.5339
lg,1625424640915740424,0,0.0461,-0.8691,0.4937,350,7.8735,-28.9917,18.1274,91,1.4057,1.4977,9.4524,-47.3983,29,0.2001,8813,3.9413,149.8075
lg,1625424640915757924,0,-0.0078,-0.8396,0.532,351,16.9067,16.9067,13.3667,91,1.4057,1.4987,9.9498,-47.145,29,0.2011,8871,3.9413,149.6018
lg,1625424640915776128,0,-0.0391,-0.7954,0.6206,352,20.6909,26.6113,9.5215,91,1.4057,1.5027,10.6447,-46.5989,29,0.2031,10873,3.9413,149.0397
lg,1625424641287531435,0,0.0779,-0.8147,0.8469,353,25.2075,26.8555,-8.4229,91,1.4397,1.5067,10.5744,-45.6628,29,0.1971,27888,3.9413,148.0293
lg,1625424641287594534,0,0.0186,-0.8423,0.5298,354,32.1655,47.5464,-36.8042,91,1.4527,1.5017,10.401,-45.2978,29,0.1911,15324,3.9413,145.5093
lg,1625424641287617074,0,-0.0098,-0.78,0.3855,355,30.2124,45.6543,-34.4238,91,1.4607,1.4957,10.5956,-45.3218,29,0.1851,7857,3.9413,143.8052
lg,1625424641287642636,0,0.0247,-0.7512,0.4221,356,17.5781,38.7573,-2.0752,91,1.4647,1.4897,11.1503,-45.4451,29,0.1841,8633,3.9413,142.5075
lg,1625424641287662414,0,-0.1345,-0.8958,0.7417,357,-2.1362,61.2793,19.7754,91,1.4657,1.4887,13.2356,-45.9774,29,0.1881,8260,3.9413,141.2357
lg,1625424641287682248,0,-0.3008,-0.7964,0.8103,358,-11.7188,37.5977,26.001,91,1.4607,1.4927,15.0798,-46.4679,29,0.1901,8064,3.9413,140.8692
lg,1625424641287702434,0,-0.4238,-0.7029,0.7771,359,-11.9019,8.9111,44.8608,91,1.4497,1.4977,16.8958,-46.4851,29,0.1911,9449,3.9413,141.9289
lg,1625424641287721045,0,-0.5386,-0.6956,0.7681,360,-17.5781,-4.8828,39.3677,91,1.4407,1.4987,18.3182,-46.6266,29,0.1901,8357,3.9413,143.2617
lg,1625424641287739192,0,-0.5085,-0.7302,0.7385,361,-36.8652,-77.8809,34.9731,91,1.4307,1.5027,17.521,-46.9678,30,0.1911,7933,3.9413,146.6844
lg,1625424641287761140,0,0.0251,-0.6191,0.9111,362,-45.3491,-118.2861,27.0386,91,1.4237,1.5037,14.3868,-47.0421,30,0.1931,8724,3.9413,151.2151
lg,1625424641287781103,0,-0.0361,-0.8428,0.6265,363,-34.4849,-101.7456,7.1411,91,1.4187,1.5007,11.9387,-47.8603,30,0.1931,8774,3.9413,153.8536
lg,1625424641287799380,0,-0.0356,-0.9648,0.6206,364,-24.4751,-73.6084,4.1504,91,1.4177,1.4987,9.7197,-48.7602,30,0.1931,8021,3.9413,156.1347
lg,1625424641287817527,0,-0.1277,-0.9031,0.3662,365,-6.5918,-52.8564,-10.376,91,1.4147,1.4987,7.9611,-49.5532,29,0.1921,8780,3.9413,157.358
lg,1625424641287835897,0,-0.124,-0.7844,0.5598,366,12.6343,2.4414,10.9253,91,1.4137,1.4997,8.3302,-49.2026,29,0.1931,12908,3.9413,157.5437
lg,1625424641287855138,0,-0.1187,-0.8276,0.5828,367,17.8833,10.0708,30.1514,91,1.4147,1.5017,9.4358,-48.6254,29,0.1941,8861,3.9413,158.0039
lg,1625424641287873712,0,-0.0059,-0.885,0.5815,368,16.7236,-20.0195,26.062,91,1.4187,1.5047,9.3267,-48.0566,29,0.1951,8593,3.9413,159.2578
lg,1625424641287891914,0,0.1553,-0.8547,0.6316,369,19.104,-23.1323,18.5547,91,1.4257,1.5067,8.5675,-47.3148,29,0.1961,9852,3.9413,160.4165
lg,1625424641287909858,0,0.2397,-0.7595,0.6699,370,23.8647,-4.5776,11.2915,91,1.4357,1.5077,7.9241,-46.3383,29,0.1971,8900,3.9413,160.8479
lg,1625424641287927486,0,0.2571,-0.7222,0.6921,371,21.4233,24.9023,-5.7373,91,1.4487,1.5057,7.5833,-45.5884,29,0.1961,10095,3.9413,159.9572
lg,1625424641287960184,0,0.1763,-0.7429,0.6624,372,19.4702,41.4429,-13.5498,91,1.4587,1.5017,7.8418,-45.3041,29,0.1941,9043,3.9413,158.3396
lg,1625424641287979054,0,0.0229,-0.8101,0.5842,373,20.0195,66.3452,-5.3101,91,1.4637,1.4967,9.1902,-45.1541,29,0.1941,8567,3.9413,156.2307
lg,1625424641287995811,0,-0.2446,-0.8164,0.7031,374,5.9204,80.2612,6.8359,91,1.4657,1.4957,11.7698,-45.4553,29,0.1951,8263,3.9413,154.0756
lg,1625424641288013273,0,-0.4121,-0.8708,0.8665,375,-23.3765,38.269,32.7759,91,1.4587,1.4997,14.0334,-46.4086,30,0.1981,8993,3.9413,153.8807
lg,1625424641288031457,0,-0.4456,-0.8318,0.916,376,-28.0762,17.4561,40.6494,91,1.4477,1.5017,15.9185,-47.1954,30,0.1971,8307,3.9413,154.5425
lg,1625424641288050086,0,-0.5271,-0.6167,0.7163,377,-26.9775,-18.6768,60.1196,91,1.4327,1.5067,17.6991,-47.3674,30,0.1951,8708,3.9413,156.8849
lg,1625424641288068567,0,-0.3489,-0.575,0.7302,378,-45.9595,-78.7354,53.4668,91,1.4177,1.5057,17.279,-47.6467,30,0.1971,8343,3.9413,160.9476
lg,1625424641288086825,0,-0.0999,-0.8816,0.6094,379,-34.3628,-102.0508,23.9258,91,1.4087,1.5007,14.8045,-48.2639,29,0.1981,9104,3.9413,164.6834
lg,1625424641288118004,0,-0.0276,-0.9468,0.6201,380,-32.1655,-90.8813,23.9868,91,1.4047,1.4987,12.8624,-49.3027,29,0.1981,9181,3.9413,167.0083
lg,1625424641288136781,0,-0.1296,-0.9971,0.4556,381,-16.7236,-49.1333,-2.8076,91,1.4027,1.4977,11.2903,-50.2943,29,0.1971,9228,3.9413,168.3328
lg,1625424641288154094,0,-0.0388,-0.8594,0.5205,382,4.9438,-14.4043,28.8086,91,1.4007,1.5017,11.4535,-50.19,29,0.1991,8816,3.9413,169.4686
lg,1625424641288172464,0,-0.033,-0.875,0.5139,383,9.5825,-0.6714,31.3721,91,1.4037,1.5027,12.0231,-50.0023,29,0.1981,9208,3.9413,170.2345
lg,1625424641288191371,0,0.0569,-0.8743,0.5764,384,8.9111,-19.6533,17.7612,91,1.4087,1.5057,11.4696,-49.6814,29,0.1991,9217,3.9413,171.2594
lg,1625424641654248255,0,0.2554,-0.7029,0.6721,385,18.1885,14.8315,8.7891,91,1.4367,1.5067,11.3831,-49.0752,29,0.2011,27730,3.9413,170.3669
lg,1625424641654284660,0,0.0632,-0.823,0.5776,386,15.9912,54.9316,-5.8594,91,1.4397,1.5047,12.0503,-49.0385,29,0.2001,8647,3.9413,168.4652
lg,1625424641654305681,0,-0.1638,-0.8767,0.6677,387,3.479,71.0449,11.9019,91,1.4397,1.5057,14.1087,-49.4638,29,0.2031,10650,3.9413,166.5398
lg,1625424641654325478,0,-0.3152,-0.8577,0.8247,388,-14.2822,59.2041,35.2783,91,1.4367,1.5077,16.7295,-50.137,29,0.2031,7957,3.9413,165.6365
lg,1625424641654344515,0,-0.3796,-0.7659,0.8064,389,-16.0522,52.4292,38.4521,91,1.4317,1.5097,19.3244,-50.7124,29,0.2031,7937,3.9413,165.0387
lg,1625424641654362588,0,-0.5933,-0.5674,0.6162,390,-15.9302,19.8975,43.7622,91,1.4207,1.5107,21.8049,-50.8739,29,0.2031,7949,3.9413,165.6537
lg,1625424641654380197,0,-0.4531,-0.6028,0.7886,391,-28.7476,-41.8091,41.3818,91,1.4117,1.5087,22.1572,-50.541,29,0.2041,7893,3.9413,168.3803
lg,1625424641654398270,0,-0.4089,-0.8137,0.6616,392,-26.6113,-66.7114,37.2314,91,1.4047,1.5067,20.9359,-50.1065,29,0.2031,9240,3.9413,-187.7621
lg,1625424641654416214,0,-0.0581,-0.9319,0.7839,393,-24.0479,-74.2188,33.6304,91,1.4027,1.5017,19.3573,-49.8939,29,0.2011,8730,3.9413,-184.4118
lg,1625424641654434231,0,0.0889,-0.936,0.7029,394,-11.5967,-40.2832,18.2495,91,1.4027,1.5097,17.9694,-49.903,29,0.2011,8230,3.9413,-182.6556
lg,1625424641654452415,0,0.2144,-0.9551,0.5925,395,-0.2441,-5.4932,19.043,91,1.4057,1.5107,17.3224,-50.0295,29,0.2021,8765,3.9413,-182.0688
lg,1625424641654491546,0,0.1838,-0.9482,0.5569,396,4.3945,19.7754,7.5073,91,1.4087,1.5107,17.0366,-50.3604,29,0.2031,7999,3.9413,-182.6188
lg,1625424641654511677,0,-0.0054,-0.8645,0.5767,397,13.1836,56.7627,-8.8501,91,1.4167,1.5117,17.5429,-50.6845,29,0.2041,8814,3.9413,-184.7626
lg,1625424641654530139,0,-0.1475,-0.8152,0.6111,398,17.334,55.1758,-16.9678,91,1.4237,1.5107,18.0351,-50.7687,29,0.2051,8468,3.9413,-187.0388
lg,1625424641654547804,0,-0.1277,-0.7644,0.606,399,18.5547,43.0908,-10.1318,91,1.4307,1.5087,18.1506,-50.7848,30,0.2051,8096,3.9413,171.4797
lg,1625424641654565340,0,-0.1248,-0.7202,0.3621,400,15.5029,18.0664,-10.8032,91,1.4327,1.5077,17.9125,-50.9375,30,0.2051,8096,3.9413,170.4455
lg,1625424641654582560,0,-0.1099,-0.9304,0.5195,401,-6.0425,-2.9297,4.8218,91,1.4357,1.5087,17.5222,-51.5057,30,0.2071,8902,3.9413,170.5468
lg,1625424641654600151,0,-0.125,-1.0044,0.6418,402,-18.3105,-15.5029,31.5552,91,1.4327,1.5117,17.6772,-52.0649,30,0.2071,8888,3.9413,-188.1935
lg,1625424641654617501,0,0.062,-0.5129,0.9614,403,-15.7471,-16.1133,41.5649,91,1.4207,1.5127,18.3315,-51.1861,29,0.2101,8648,3.9413,-186.8623
lg,1625424641654634814,0,-0.3152,-0.6311,0.7439,404,-1.2207,25.3906,18.1885,91,1.4087,1.5057,19.5216,-50.905,29,0.2101,9073,3.9413,-187.0767
lg,1625424641654652239,0,-0.4314,-0.7612,0.7654,405,-14.8926,-43.5181,13.4277,91,1.4037,1.5027,18.9336,-50.6609,29,0.2091,8197,3.9413,-185.202
lg,1625424641654735282,0,-0.3362,-0.8672,0.5486,406,-20.5688,-72.2046,-3.7842,91,1.3987,1.5037,16.9754,-51.0511,29,0.2061,8261,3.9413,-183.0287
lg,1625424641654759435,0,-0.0703,-0.8591,0.6423,407,-2.7466,-51.2695,27.4658,91,1.3957,1.5027,16.0161,-50.5614,29,0.2051,8522,3.9413,-180.6718
lg,1625424641654779881,0,0.0564,-0.8445,0.6443,408,1.6479,-37.1704,31.6772,91,1.3937,1.5037,15.5815,-50.153,29,0.2051,8693,3.9413,-179.287
lg,1625424641654888301,0,0.0696,-0.8567,0.5969,409,6.5918,-4.2114,18.8599,91,1.3927,1.5037,15.2965,-49.9134,29,0.2051,9090,3.9413,-178.7072
lg,1625424641654910118,0,-0.0447,-0.8384,0.5266,410,9.9487,16.4185,11.2305,91,1.3927,1.5067,15.5631,-49.8891,29,0.2071,8330,3.9413,-179.0151
lg,1625424641654932436,0,-0.1453,-0.8311,0.6143,411,8.8501,12.3901,17.5781,91,1.3967,1.5087,16.1161,-49.6511,29,0.2081,8493,3.9413,-178.977
lg,1625424641654952066,0,-0.0916,-0.8679,0.616,412,9.7046,-9.2773,19.2261,91,1.4037,1.5097,16.0177,-49.2317,29,0.2081,8756,3.9413,-178.2207
lg,1625424641654969898,0,0.0039,-0.8354,0.6038,413,10.376,-14.2822,22.4609,91,1.4127,1.5097,15.6866,-48.719,29,0.2091,8484,3.9413,-177.2177
lg,1625424641654989232,0,0.1204,-0.8198,0.5852,414,14.8926,-1.6479,16.4795,91,1.4257,1.5097,15.2678,-48.2148,30,0.2101,8855,3.9413,-176.7812
lg,1625424641655007231,0,0.1733,-0.7742,0.6677,415,16.7236,27.4048,5.127,91,1.4337,1.5067,15.1905,-47.7631,30,0.2071,8882,3.9413,-177.4998
lg,1625424641655026787,0,0.0674,-0.8508,0.6021,416,19.9585,51.3916,-4.3335,91,1.4437,1.5017,15.7022,-47.6937,30,0.2031,9262,3.9413,-179.277
lg,1625424642017731780,0,-0.3953,-0.8022,0.6782,417,6.3477,76.1108,26.7334,91,1.4507,1.4867,18.2551,-48.1076,29,0.2031,27907,3.9413,-179.798
lg,1625424642017790296,0,-0.5693,-0.7749,0.6912,418,-16.2354,25.5127,39.4897,91,1.4387,1.4927,20.0956,-48.4896,29,0.2051,8690,3.9413,-178.3647
lg,1625424642017823586,0,-0.5632,-0.6843,0.5415,419,-20.3857,-34.0576,67.3218,91,1.4257,1.4967,21.7056,-48.33,29,0.2051,7902,3.9413,-175.3963
lg,1625424642017853984,0,-0.6228,-0.6777,0.571,420,-39.1846,-80.5664,78.7354,91,1.4037,1.4997,22.4395,-48.1072,29,0.2051,7920,3.9413,-170.553
lg,1625424642017938561,0,-0.0981,-0.6208,1.0146,421,-47.8516,-112.793,77.1484,91,1.3807,1.4977,20.5698,-47.1171,29,0.2041,8305,3.9413,-164.2279
lg,1625424642017971442,0,-0.0422,-0.9246,0.8284,422,-29.7241,-121.3379,54.5654,91,1.3707,1.4957,18.1,-46.8745,29,0.2011,8871,3.9413,-159.776
lg,1625424642018001803,0,0.0437,-1.1328,0.7319,423,-23.3765,-84.3506,19.8364,91,1.3667,1.4917,15.6311,-47.3038,29,0.1991,8702,3.9413,-156.7527
lg,1625424642018030144,0,0.2695,-0.907,0.5413,424,1.4648,-63.2324,14.2212,91,1.3677,1.4977,13.2173,-47.1261,29,0.1981,8011,3.9413,-154.5626
lg,1625424642018059875,0,0.1965,-0.9531,0.4485,425,6.4697,-23.5596,20.3857,91,1.3697,1.4987,13.2706,-47.22,29,0.1981,7998,3.9413,-154.6022
lg,1625424642018086862,0,0.1326,-0.9219,0.4478,426,20.4468,40.6494,5.0659,91,1.3747,1.5007,13.7345,-47.3205,29,0.2001,7960,3.9413,-155.847
lg,1625424642018114776,0,-0.0413,-0.7983,0.4766,427,24.4141,67.5049,-14.0381,91,1.3807,1.5017,14.7063,-47.4164,30,0.2011,8012,3.9413,-158.4055
lg,1625424642018143358,0,-0.1555,-0.7341,0.481,428,24.9023,74.4629,-16.1133,91,1.3887,1.5037,16.4747,-47.3996,30,0.2031,8039,3.9413,-161.1213
lg,1625424642018171698,0,-0.3657,-0.7166,0.6179,429,18.7378,66.2842,-6.0425,91,1.3957,1.5047,18.2611,-47.3732,30,0.2031,8045,3.9413,-163.3582
lg,1625424642018200021,0,-0.3501,-0.7476,0.6921,430,14.2212,23.2544,4.7607,91,1.4057,1.5047,19.0524,-46.974,30,0.2041,8060,3.9413,-163.9379
lg,1625424642018228305,0,-0.2588,-0.7454,0.7029,431,12.146,7.2632,5.249,91,1.4137,1.5047,18.8745,-46.4276,29,0.2051,8060,3.9413,-163.6431
lg,1625424642018255775,0,-0.0781,-0.8286,0.7358,432,9.7046,3.0518,5.0659,91,1.4227,1.5027,18.5193,-46.0941,29,0.2051,12077,3.9413,-163.6151
lg,1625424642018282262,0,-0.1155,-0.9102,0.7485,433,6.6528,2.7466,1.77,91,1.4247,1.5027,18.1093,-46.2583,29,0.2041,8199,3.9413,-163.5445
lg,1625424642018309509,0,-0.1348,-0.9697,0.687,434,-5.127,-7.9346,9.9487,91,1.4237,1.5047,17.7254,-46.6354,29,0.2051,8145,3.9413,-163.1194
lg,1625424642018335718,0,-0.1096,-0.7949,0.551,435,-4.5776,-7.3853,13.3667,82,1.4247,1.5067,17.4745,-46.977,29,0.2061,8227,3.9523,-162.615
lg,1625424642018361908,0,-0.2031,-0.7031,0.5352,436,-0.1221,-1.5869,12.8784,82,1.4257,1.5087,17.8055,-47.0279,29,0.2071,8253,3.9523,-162.3471
lg,1625424642018390471,0,-0.3022,-0.7493,0.5359,437,1.4038,4.6997,13.6108,82,1.4257,1.5097,18.3463,-47.1762,29,0.2071,8526,3.9523,-162.1899
lg,1625424642018419331,0,-0.3721,-0.7893,0.6497,438,1.4648,-13.9771,10.8032,82,1.4267,1.5107,18.3466,-47.0044,29,0.2061,8812,3.9523,-161.4861
lg,1625424642018446504,0,-0.2854,-0.8213,0.6877,439,1.5869,-43.335,13.0005,82,1.4287,1.5107,17.4065,-46.5295,29,0.2051,8290,3.9523,-159.8184
lg,1625424642018496975,0,-0.0916,-0.8518,0.6597,440,2.8687,-58.8379,15.686,82,1.4317,1.5107,15.5215,-45.993,29,0.2041,8361,3.9523,-157.4442
lg,1625424642018525761,0,0.071,-0.8779,0.6296,441,-0.5493,-59.6924,11.2915,82,1.4367,1.5117,13.4477,-45.8203,29,0.2051,10317,3.9523,-155.437
lg,1625424642018552878,0,0.0669,-0.9038,0.5176,442,1.4038,-50.5981,15.0757,82,1.4387,1.5127,11.8046,-45.896,29,0.2071,8457,3.9523,-153.6461
lg,1625424642018580348,0,0.0776,-0.8657,0.4683,443,-9.7656,-42.9077,27.9541,82,1.4377,1.5147,10.8069,-46.496,29,0.2061,8448,3.9523,-151.7175
lg,1625424642018606538,0,0.1802,-0.5667,0.6599,444,-17.0288,-1.4648,33.1421,82,1.4247,1.5137,10.8605,-46.7514,29,0.2041,8445,3.9523,-150.7039
lg,1625424642018633025,0,-0.3247,-0.7551,0.9058,445,-18.7378,48.1567,10.3149,82,1.4147,1.5127,12.4406,-47.1712,29,0.2011,8459,3.9523,-152.4585
lg,1625424642018659327,0,-0.4592,-0.8325,0.8599,446,-9.4604,37.2314,-2.5024,82,1.4077,1.5077,13.7032,-47.6908,29,0.1981,8512,3.9523,-153.6292
lg,1625424642018686852,0,-0.4524,-0.8274,0.5508,447,-16.9678,-28.8696,-8.1787,82,1.4027,1.5077,13.1201,-48.5245,29,0.1951,8471,3.9523,-153.0432
lg,1625424642018714321,0,-0.3792,-0.802,0.5239,448,-5.0659,-34.79,15.9302,82,1.3987,1.5077,13.0196,-48.6885,29,0.1931,8505,3.9523,-151.6065
lg,1625424642389207883,0,0.1028,-0.939,0.6118,449,-5.5542,-47.9126,33.8135,82,1.3957,1.5097,12.0686,-48.7111,29,0.1931,27264,3.9523,-149.2907
lg,1625424642389264101,0,0.1196,-0.9026,0.5796,450,2.3804,-19.7754,22.2168,82,1.3987,1.5117,11.6007,-48.6675,29,0.1941,10174,3.9523,-148.1493
lg,1625424642389340133,0,0.0337,-0.8855,0.5723,451,5.3711,-0.1831,15.3198,82,1.4057,1.5127,11.5304,-48.699,29,0.1961,7873,3.9523,-147.7998
lg,1625424642389363117,0,0.022,-0.938,0.5933,452,9.7046,0.6714,10.9253,82,1.4147,1.5117,11.3808,-48.6083,29,0.1961,8232,3.9523,-147.5991
lg,1625424642389382875,0,0.0579,-0.9346,0.6216,453,13.7329,1.709,10.9863,82,1.4267,1.5097,11.1939,-48.314,29,0.1971,7866,3.9523,-147.4178
lg,1625424642389403208,0,0.092,-0.8259,0.5208,454,21.2402,24.0479,-0.1831,82,1.4337,1.5027,11.1573,-47.9125,29,0.1951,11182,3.9523,-148.7276
lg,1625424642389422837,0,0.0476,-0.8594,0.4612,455,19.9585,35.8276,-14.6484,82,1.4397,1.4957,11.1405,-47.9463,29,0.1931,8663,3.9523,-150.3205
lg,1625424642389441410,0,0.032,-0.8809,0.4329,456,16.4185,30.2734,-2.0142,82,1.4427,1.4877,11.3891,-48.1035,29,0.1921,8809,3.9523,-151.4172
lg,1625424642389459463,0,-0.0676,-0.9099,0.6951,457,9.1553,54.5044,24.4141,82,1.4427,1.4847,13.2438,-48.1219,29,0.1951,8368,3.9523,-152.4517
lg,1625424642389478017,0,-0.2083,-0.7336,0.7817,458,4.4556,52.8564,29.0527,82,1.4377,1.4867,15.421,-47.9373,29,0.1961,10765,3.9523,-153.2299
lg,1625424642389495422,0,-0.4358,-0.6194,0.6978,459,3.54,17.7612,36.0107,82,1.4327,1.4937,17.3385,-47.4158,29,0.1971,9020,3.9523,-152.7013
lg,1625424642389527896,0,-0.5181,-0.6809,0.6614,460,-8.606,-7.6904,37.2314,82,1.4237,1.4987,18.5951,-47.3501,29,0.1961,8438,3.9523,-151.4019
lg,1625424642389546895,0,-0.3213,-0.6802,0.7659,461,-25.0244,-62.439,37.2314,82,1.4117,1.5017,17.956,-47.1673,29,0.1981,8443,3.9523,-148.3266
lg,1625424642389565448,0,-0.1548,-0.854,0.7119,462,-17.5171,-60.4248,30.0293,82,1.4047,1.5017,16.8046,-47.1674,29,0.1971,8087,3.9523,-145.6471
lg,1625424642389582779,0,-0.0505,-0.8718,0.7517,463,-17.334,-52.8564,33.8135,82,1.3977,1.4997,15.4849,-47.275,29,0.1971,8143,3.9523,-143.4671
lg,1625424642389603186,0,0.0879,-0.8987,0.6831,464,-8.7891,-31.3721,13.4277,82,1.3937,1.4987,14.2607,-47.4963,29,0.1981,8920,3.9523,-142.1915
lg,1625424642389621666,0,-0.1423,-0.9131,0.5974,465,6.0425,28.6865,2.6245,82,1.3917,1.4987,14.8398,-47.8223,29,0.1991,8944,3.9523,-143.0877
lg,1625424642389639534,0,-0.2136,-0.7837,0.5742,466,21.9727,44.1895,8.2397,82,1.3997,1.5007,16.1693,-47.4734,29,0.1991,8564,3.9523,-144.2759
lg,1625424642389657069,0,-0.199,-0.7988,0.623,467,20.1416,29.7241,12.4512,82,1.4077,1.5037,17.1348,-47.0039,30,0.1991,8937,3.9523,-144.8876
lg,1625424642389674177,0,-0.1436,-0.8123,0.634,468,18.6157,15.1367,5.3711,82,1.4157,1.5047,17.3389,-46.5477,30,0.2001,8239,3.9523,-145.2573
lg,1625424642389691266,0,-0.0674,-0.7449,0.5374,469,17.5781,-0.3662,-3.1128,82,1.4237,1.5057,16.7248,-46.1741,30,0.2021,8981,3.9523,-145.4301
lg,1625424642389708857,0,-0.012,-0.7009,0.6008,470,1.8921,-15.0757,2.8687,82,1.4257,1.5067,15.7641,-46.0708,30,0.2031,8213,3.9523,-144.9309
lg,1625424642389726057,0,-0.0378,-0.9062,0.6687,471,-11.2915,-26.1841,5.4321,82,1.4267,1.5087,14.652,-46.7517,29,0.2051,8336,3.9523,-143.2658
lg,1625424642389744444,0,0.0364,-0.9221,0.605,472,-18.5547,-38.8184,34.729,82,1.4177,1.5097,13.9747,-47.3546,29,0.2061,9275,3.9523,-141.2146
lg,1625424642389773712,0,0.0085,-0.6335,0.853,473,-10.1929,20.0195,31.0669,82,1.4097,1.5087,14.8672,-47.2469,29,0.2071,9111,3.9523,-140.8485
lg,1625424642389792710,0,-0.396,-0.7146,0.7361,474,-3.2959,26.4282,35.5225,82,1.4037,1.5037,16.8662,-47.1938,29,0.2081,8778,3.9523,-140.622
lg,1625424642389853581,0,-0.2007,-0.7971,0.519,475,-10.8643,-23.0713,26.8555,82,1.3997,1.5007,16.8441,-47.5814,29,0.2071,8810,3.9523,-139.2637
lg,1625424642389872413,0,-0.0886,-0.9197,0.6777,476,-3.1128,9.5215,38.3911,82,1.3977,1.4997,17.7443,-47.7085,29,0.2071,10434,3.9523,-138.5485
lg,1625424642389890484,0,-0.0056,-0.8267,0.6875,477,8.8501,35.0342,43.0908,82,1.3977,1.5017,19.27,-47.4077,29,0.2071,10765,3.9523,-138.4512
lg,1625424642389909113,0,-0.0537,-0.8372,0.6912,478,12.5732,40.2832,30.7007,82,1.4007,1.5037,20.6111,-47.1509,29,0.2071,8871,3.9523,-138.8718
lg,1625424642389928612,0,-0.0999,-0.8228,0.6487,479,12.085,39.4897,19.8364,82,1.4087,1.5067,21.4735,-47.1745,29,0.2071,9262,3.9523,-139.6513
lg,1625424642389946369,0,-0.127,-0.8259,0.6855,480,10.6812,34.4849,8.606,82,1.4167,1.5067,22.076,-47.1806,29,0.2061,8904,3.9523,-140.5386
lg,1625424642767577470,0,-0.1626,-0.8315,0.354,481,15.0757,23.6206,-19.4702,82,1.4327,1.4937,21.6675,-47.5608,29,0.2001,27857,3.9523,-141.4492
lg,1625424642767633966,0,-0.1321,-0.9504,0.6799,482,-6.0425,21.7285,19.2261,82,1.4337,1.4947,22.221,-48.1315,29,0.2031,8666,3.9523,-141.6927
lg,1625424642767667052,0,-0.3142,-0.8052,0.6995,483,-5.3711,27.4048,24.4751,82,1.4327,1.4987,23.4403,-48.4402,29,0.2041,7855,3.9523,-141.8872
lg,1625424642767697987,0,-0.5403,-0.6628,0.6838,484,-10.0098,-6.2256,33.6304,82,1.4277,1.5037,24.518,-48.1817,29,0.2031,9481,3.9523,-140.6346
lg,1625424642767728904,0,-0.5942,-0.6091,0.7539,485,-18.1885,-29.48,29.6631,82,1.4207,1.5057,24.8955,-47.7819,29,0.2051,7890,3.9523,-138.6449
lg,1625424642767758727,0,-0.4666,-0.7603,0.7173,486,-24.9023,-88.0127,5.8594,82,1.4157,1.5057,22.6744,-47.5007,29,0.2061,9155,3.9523,-135.5982
lg,1625424642767788254,0,-0.1309,-0.9358,0.7056,487,-29.1748,-124.3896,8.7891,82,1.4127,1.5057,18.9543,-47.398,29,0.2041,8406,3.9523,-131.5026
lg,1625424642767817169,0,-0.0427,-0.9329,0.4558,488,-24.1089,-111.6943,-8.4229,82,1.4107,1.5047,16.0028,-48.0217,29,0.2041,7944,3.9523,-129.6669
lg,1625424642767846474,0,-0.0654,-0.884,0.5034,489,-1.77,-33.6914,-2.9907,82,1.4077,1.5047,14.5471,-48.3294,29,0.2051,7974,3.9523,-128.8417
lg,1625424642767875222,0,-0.0928,-0.7681,0.6711,490,9.0942,17.9443,12.8174,82,1.4087,1.5057,15.0323,-48.0274,29,0.2051,8725,3.9523,-129.048
lg,1625424642767903804,0,-0.0461,-0.8237,0.6785,491,4.1504,8.9722,11.7188,82,1.4097,1.5077,15.1223,-47.9401,29,0.2061,8166,3.9523,-129.0261
lg,1625424642767932033,0,-0.0076,-0.863,0.6479,492,2.3804,1.0376,6.8359,82,1.4127,1.5087,14.7747,-48.0046,29,0.2071,8609,3.9523,-128.9228
lg,1625424642767959354,0,-0.0288,-0.8826,0.6135,493,5.4321,6.6528,-1.2817,82,1.4197,1.5117,14.4637,-48.0815,29,0.2071,8569,3.9523,-129.2239
lg,1625424642767986527,0,-0.0706,-0.8755,0.615,494,7.6294,3.8452,1.3428,82,1.4257,1.5117,14.1851,-48.0642,29,0.2081,8836,3.9523,-129.3736
lg,1625424642768013922,0,0.0793,-0.801,0.6707,495,11.6577,-7.1411,1.9531,82,1.4367,1.5117,13.3283,-47.6051,29,0.2081,8830,3.9523,-129.1233
lg,1625424642768042133,0,0.0835,-0.9041,0.5327,496,6.7749,4.4556,-11.4746,82,1.4427,1.5107,12.4189,-47.9031,29,0.2071,8109,3.9523,-129.6832
lg,1625424642768070066,0,0.0762,-0.9304,0.4248,497,11.8408,3.418,-10.7422,82,1.4467,1.5077,11.5449,-48.3716,29,0.2021,8888,3.9523,-130.2649
lg,1625424642768097887,0,0.0518,-0.9119,0.4348,498,4.7607,20.752,16.1133,82,1.4477,1.5077,12.0207,-48.8552,29,0.2051,13863,3.9523,-130.5952
lg,1625424642768126024,0,-0.0139,-0.8909,0.6567,499,-5.5542,32.2266,39.7949,82,1.4437,1.5107,13.6143,-49.242,29,0.2071,8936,3.9523,-130.5668
lg,1625424642768153160,0,-0.252,-0.7087,0.6504,500,2.1973,40.2222,46.3257,82,1.4377,1.5117,16.0984,-49.0729,29,0.2071,8601,3.9523,-130.5592
lg,1625424642768180555,0,-0.4011,-0.6282,0.5757,501,4.7607,30.8838,51.0254,82,1.4297,1.5127,19.0644,-48.669,30,0.2061,8957,3.9523,-130.1069
lg,1625424642768207802,0,-0.3052,-0.5652,0.8413,502,-14.0991,-26.4282,54.9316,82,1.4167,1.5117,19.1614,-47.7915,30,0.2081,8268,3.9523,-126.3589
lg,1625424642768235828,0,-0.2158,-0.7485,0.7644,503,-19.3481,-75.2563,56.8848,82,1.4097,1.5087,18.5043,-47.1298,30,0.2081,9241,3.9523,-122.3415
lg,1625424642768264298,0,0.0376,-0.9375,0.8381,504,-12.207,-69.7021,63.9038,82,1.4027,1.5077,17.68,-46.4148,30,0.2061,9058,3.9523,-118.3802
lg,1625424642768292824,0,0.0354,-0.9062,0.6863,505,0.6714,-21.3623,35.3394,82,1.4057,1.5077,17.3577,-46.1414,30,0.2061,9075,3.9523,-116.791
lg,1625424642768348207,0,0.0276,-0.8467,0.7424,506,9.1553,20.2637,32.5317,82,1.4077,1.5097,18.1187,-45.7715,30,0.2071,9192,3.9523,-116.4903
lg,1625424642768381089,0,-0.1143,-0.8442,0.6479,507,13.4277,40.2222,14.6484,82,1.4117,1.5117,19.182,-45.7551,30,0.2091,8745,3.9523,-117.365
lg,1625424642768409986,0,-0.1816,-0.8066,0.6477,508,13.0005,43.396,7.019,82,1.4167,1.5127,20.2205,-45.828,30,0.2091,8391,3.9523,-118.555
lg,1625424642768437270,0,-0.3269,-0.7627,0.615,509,10.498,33.3252,1.4648,82,1.4177,1.5137,21.1125,-45.956,30,0.2101,8536,3.9523,-119.6075
lg,1625424642768479401,0,-0.3208,-0.6379,0.5305,510,6.3477,0.4272,12.146,82,1.4217,1.5137,21.4706,-45.7341,30,0.2101,8833,3.9523,-119.3158
lg,1625424642768602920,0,-0.1167,-0.8032,0.689,511,-19.043,-39.3677,21.1792,82,1.4137,1.5147,20.3905,-45.9771,30,0.2111,9708,3.9523,-117.5247
lg,1625424642768639769,0,-0.1296,-0.8296,0.6306,512,-8.5449,-19.2871,20.9351,82,1.4147,1.5147,19.9395,-46.1722,30,0.2101,10888,3.9523,-116.4095
lg,1625424643140866548,0,-0.3203,-0.8413,0.6362,513,-9.8267,-42.6025,18.3716,82,1.4047,1.5077,19.1766,-46.2047,30,0.2071,26307,3.9523,-114.6514
lg,1625424643140944837,0,0.1375,-0.9143,0.7373,514,-0.9155,-16.6626,32.0435,82,1.4047,1.5087,18.6491,-45.966,30,0.2081,10486,3.9523,-113.2734
lg,1625424643140967171,0,0.1487,-0.915,0.6987,515,3.54,4.5166,25.0854,82,1.4067,1.5097,18.5,-45.8995,30,0.2081,7885,3.9523,-112.7646
lg,1625424643140987707,0,0.0215,-0.8557,0.5972,516,7.4463,32.959,3.6621,82,1.4107,1.5117,18.7542,-46.26,30,0.2101,8650,3.9523,-113.7808
lg,1625424643141007057,0,-0.1418,-0.833,0.6128,517,7.4463,43.2129,-7.5684,82,1.4167,1.5127,19.287,-46.7625,30,0.2101,8281,3.9523,-115.4255
lg,1625424643141027167,0,-0.2061,-0.8601,0.6724,518,6.1646,34.0576,-11.5967,82,1.4267,1.5117,19.5307,-47.183,29,0.2101,11564,3.9523,-116.8864
lg,1625424643141045664,0,-0.1008,-0.8354,0.6721,519,11.0474,22.2168,-15.0757,82,1.4327,1.5097,19.1301,-47.2708,29,0.2071,8304,3.9523,-118.0659
lg,1625424643141063920,0,-0.0701,-0.9404,0.4888,520,12.0239,24.7803,-24.4141,82,1.4397,1.5077,18.494,-47.8844,29,0.2021,7978,3.9523,-119.7379
lg,1625424643141082918,0,-0.0354,-0.9329,0.3833,521,15.0146,21.3013,-22.2168,82,1.4477,1.5027,17.7053,-48.5856,29,0.1961,8737,3.9523,-121.3142
lg,1625424643141100711,0,0.0161,-0.7971,0.3127,522,16.2354,29.6631,-9.3384,82,1.4507,1.4997,17.5059,-49.1028,29,0.1961,8762,3.9523,-122.7559
lg,1625424643141118986,0,-0.1785,-0.918,0.5632,523,-0.9766,41.8701,20.4468,82,1.4507,1.5017,18.8924,-49.7573,29,0.1991,9345,3.9523,-123.6519
lg,1625424643141137761,0,-0.3135,-0.8083,0.7695,524,-3.7231,16.4795,31.4941,82,1.4447,1.5057,20.1453,-49.6471,29,0.2001,8899,3.9523,-123.2769
lg,1625424643141155461,0,-0.4824,-0.6487,0.6045,525,-2.7466,-16.9678,36.9263,82,1.4377,1.5087,21.1532,-49.0884,29,0.1981,8463,3.9523,-121.6593
lg,1625424643141173328,0,-0.6099,-0.6111,0.645,526,-6.7749,-31.4941,31.6162,82,1.4267,1.5057,21.7995,-48.4457,29,0.1991,8083,3.9523,-119.6643
lg,1625424643141191028,0,-0.3174,-0.5325,0.9119,527,-29.3579,-111.145,30.8228,82,1.4197,1.5047,19.5845,-47.3199,29,0.2011,8153,3.9523,-114.9762
lg,1625424643141218089,0,-0.0759,-0.8254,0.6743,528,-23.2544,-140.8691,27.4658,82,1.4157,1.5087,15.9657,-46.815,29,0.2001,10600,3.9523,-109.9021
lg,1625424643141237753,0,0.1113,-0.9585,0.5486,529,-16.6626,-102.9053,17.5781,82,1.4117,1.5077,12.8611,-47.1124,29,0.2001,8565,3.9523,-106.4426
lg,1625424643141257252,0,0.1985,-0.8977,0.7073,530,-7.9346,-69.8242,11.3525,82,1.4107,1.5077,11.4481,-46.989,29,0.1981,8923,3.9523,-105.1119
lg,1625424643141275489,0,0.1492,-0.8398,0.7144,531,6.1035,0.1831,17.334,82,1.4097,1.5077,11.2115,-46.7463,29,0.1981,8604,3.9523,-104.6575
lg,1625424643141293764,0,-0.0583,-0.8762,0.6233,532,11.1694,33.6914,11.1084,82,1.4067,1.5097,12.1337,-46.7451,29,0.1991,8924,3.9523,-105.4125
lg,1625424643141311539,0,-0.1628,-0.8113,0.5767,533,16.9067,36.9263,10.2539,82,1.4137,1.5107,13.3284,-46.5521,29,0.2001,8992,3.9523,-106.293
lg,1625424643141357300,0,-0.2166,-0.8,0.614,534,14.2822,23.3154,16.6626,82,1.4177,1.5127,14.4014,-46.2611,29,0.2011,9238,3.9523,-106.5709
lg,1625424643141378169,0,-0.1765,-0.8135,0.6177,535,14.2822,4.6387,19.5923,82,1.4237,1.5137,14.7654,-45.8267,29,0.2021,8336,3.9523,-106.2113
lg,1625424643141396945,0,-0.042,-0.845,0.6304,536,11.6577,-14.7705,12.5122,82,1.4307,1.5147,14.2231,-45.4552,30,0.2021,8694,3.9523,-105.4914
lg,1625424643141416220,0,0.0825,-0.793,0.6396,537,12.8784,-7.2021,10.437,82,1.4367,1.5147,13.5842,-45.0376,30,0.2041,9113,3.9523,-105.0367
lg,1625424643141434328,0,0.0991,-0.8347,0.6262,538,12.6953,13.0005,-0.3662,82,1.4437,1.5137,13.2022,-44.9379,30,0.2031,9121,3.9523,-105.5036
lg,1625424643141454104,0,0.0532,-0.9045,0.5981,539,13.0005,21.3623,0.3052,82,1.4497,1.5137,13.4123,-44.9807,30,0.2001,8414,3.9523,-106.6638
lg,1625424643141474455,0,0.0295,-0.8923,0.6072,540,18.6768,46.7529,-3.418,82,1.4547,1.5117,14.127,-44.9695,30,0.1971,9150,3.9523,-108.2191
lg,1625424643141493119,0,-0.0823,-0.8628,0.6233,541,20.2026,71.8384,2.2583,82,1.4567,1.5097,15.8306,-45.0542,30,0.1971,9445,3.9523,-110.3522
lg,1625424643141512154,0,-0.281,-0.8352,0.6255,542,6.3477,56.0303,19.7754,82,1.4537,1.5127,17.9315,-45.4278,30,0.2011,8848,3.9523,-111.5249
lg,1625424643141531708,0,-0.2571,-0.8015,0.6497,543,-14.8315,2.7466,39.3066,82,1.4477,1.5157,18.9734,-45.8918,30,0.2001,8510,3.9523,-110.5181
lg,1625424643141550075,0,-0.3582,-0.7185,0.6819,544,-15.9912,7.0801,44.7998,82,1.4377,1.5147,20.4881,-46.1685,30,0.1981,9275,3.9523,-109.4207
lg,1625424643499914491,0,-0.4668,-0.8992,0.6448,545,-10.498,-32.2876,9.8267,83,1.4177,1.5037,19.5303,-46.8437,30,0.1991,27198,3.9534,-108.3483
lg,1625424643499952691,0,-0.1538,-0.7402,0.7141,546,0.4883,-55.1758,10.0708,83,1.4167,1.5037,18.7004,-45.9122,30,0.1991,8708,3.9534,-105.9719
lg,1625424643499973838,0,-0.0823,-0.8303,0.7812,547,-2.9907,-34.4238,39.3066,83,1.4157,1.5047,18.2912,-45.3579,30,0.2001,7856,3.9534,-103.7863
lg,1625424643499994300,0,-0.0232,-0.908,0.6824,548,3.0518,-24.1699,21.3623,83,1.4167,1.5057,17.555,-45.1292,30,0.2001,8116,3.9534,-102.5327
lg,1625424643500013631,0,-0.0061,-0.8638,0.6438,549,5.9204,-14.1602,12.9395,83,1.4187,1.5077,17.2948,-45.078,29,0.2011,7951,3.9534,-102.2524
lg,1625424643500032722,0,-0.1587,-0.8149,0.6016,550,10.1929,10.0708,5.6152,83,1.4207,1.5097,17.4085,-45.0468,29,0.2021,9043,3.9534,-102.4877
lg,1625424643500051460,0,-0.2783,-0.7698,0.6455,551,7.8735,-0.3052,8.1787,83,1.4257,1.5117,17.553,-44.8446,29,0.2011,8496,3.9534,-102.2933
lg,1625424643500086619,0,-0.1199,-0.822,0.6567,552,1.5259,-28.6865,11.6577,83,1.4297,1.5127,16.6364,-44.6909,29,0.2021,7907,3.9534,-101.1799
lg,1625424643500106915,0,-0.0188,-0.8264,0.6501,553,0.4883,-29.2969,10.3149,83,1.4357,1.5107,15.4879,-44.6317,30,0.2031,8118,3.9534,-100.0988
lg,1625424643500125449,0,0.106,-0.7966,0.6309,554,3.6621,-11.0474,3.0518,83,1.4397,1.5127,14.4328,-44.6536,30,0.2021,7949,3.9534,-99.7623
lg,1625424643500143668,0,0.0605,-0.877,0.5085,555,3.9062,10.0098,-0.3052,83,1.4437,1.5127,14.0265,-45.1753,30,0.2001,8030,3.9534,-100.2139
lg,1625424643500161943,0,0.0356,-0.9124,0.5278,556,1.5869,16.1743,-0.1221,83,1.4447,1.5067,13.8634,-45.8132,30,0.2001,8074,3.9534,-100.8352
lg,1625424643500179866,0,-0.0962,-0.927,0.5837,557,-4.5166,23.8647,14.7705,83,1.4457,1.5117,14.6047,-46.5382,29,0.2011,8165,3.9534,-101.2397
lg,1625424643500197677,0,-0.1516,-0.8123,0.7124,558,-13.3667,18.9209,28.9917,83,1.4437,1.5127,15.6991,-47.0841,29,0.2041,8124,3.9534,-101.0119
lg,1625424643500215915,0,-0.2078,-0.7627,0.7112,559,-14.0381,13.4888,31.189,83,1.4407,1.5097,16.7992,-47.4978,29,0.2041,8112,3.9534,-100.5424
lg,1625424643500233800,0,-0.3208,-0.7249,0.6008,560,-13.2446,-2.9297,37.1704,83,1.4377,1.5157,17.8945,-47.7859,29,0.2041,8201,3.9534,-99.4339
lg,1625424643500251167,0,-0.2029,-0.7415,0.6868,561,-19.3481,-30.6396,40.1611,83,1.4347,1.5167,18.0037,-47.8772,29,0.2051,8162,3.9534,-97.3351
lg,1625424643500279117,0,-0.1357,-0.8232,0.6929,562,-17.8223,-38.208,37.8418,83,1.4297,1.5157,17.6786,-47.9683,29,0.2061,8154,3.9534,-95.1008
lg,1625424643500296910,0,-0.0234,-0.8887,0.6411,563,-2.4414,-20.6299,27.4048,83,1.4287,1.5147,17.299,-47.8879,29,0.2081,12360,3.9534,-93.7663
lg,1625424643500314851,0,-0.1379,-0.8547,0.6533,564,2.6855,-3.0518,17.8223,83,1.4297,1.5157,17.6512,-47.814,29,0.2081,9776,3.9534,-93.5373
lg,1625424643500332977,0,-0.1313,-0.8259,0.6277,565,6.1035,8.3008,20.0806,83,1.4307,1.5167,18.054,-47.6685,29,0.2071,8257,3.9534,-93.2905
lg,1625424643500350010,0,-0.0837,-0.7917,0.5728,566,8.606,9.7656,16.1133,83,1.4317,1.5177,18.2754,-47.5331,29,0.2081,8280,3.9534,-93.2205
lg,1625424643500366988,0,-0.0786,-0.7209,0.6155,567,6.5308,7.6904,17.395,83,1.4317,1.5177,18.4591,-47.2624,29,0.2081,8711,3.9534,-92.9896
lg,1625424643500383873,0,-0.1003,-0.771,0.6995,568,-2.9297,1.0986,17.2119,83,1.4277,1.5187,18.0065,-47.5773,29,0.2081,8754,3.9534,-92.2884
lg,1625424643500401406,0,-0.0276,-0.8174,0.7805,569,-14.5874,-16.7236,13.6108,83,1.4197,1.5137,17.3088,-47.8207,29,0.2081,8432,3.9534,-91.3644
lg,1625424643500418680,0,-0.3091,-0.825,0.6736,570,-7.3242,15.564,-0.1221,83,1.4127,1.5087,17.6704,-48.3659,29,0.2061,8396,3.9534,-91.8865
lg,1625424643500436621,0,-0.5933,-0.7134,0.5984,571,-4.4556,2.8076,-15.1367,83,1.4067,1.5057,17.8685,-48.746,29,0.2051,8354,3.9534,-92.4096
lg,1625424643500454470,0,-0.5828,-0.7488,0.6169,572,-6.1035,-27.2217,-8.4839,83,1.4037,1.5027,17.0259,-48.9196,29,0.2031,8432,3.9534,-91.8179
lg,1625424643500483365,0,-0.2129,-0.8767,0.5422,573,-2.3193,-78.9185,23.8647,83,1.4017,1.5027,15.4661,-48.501,29,0.2021,8452,3.9534,-88.7964
lg,1625424643500501195,0,0.0049,-0.9033,0.5776,574,11.1694,-39.3677,22.9492,83,1.4037,1.5037,14.496,-47.9306,29,0.2031,8462,3.9534,-87.046
lg,1625424643500519284,0,0.1233,-0.8342,0.6052,575,22.0947,-14.2822,20.3857,83,1.4057,1.5057,13.888,-47.0412,29,0.2031,8508,3.9534,-86.112
lg,1625424643500536614,0,0.1191,-0.8313,0.604,576,20.5688,-5.5542,13.0005,83,1.4117,1.5087,13.321,-46.3665,30,0.2041,8562,3.9534,-85.6514
lg,1625424643876462025,0,-0.1072,-0.8357,0.6174,577,28.1982,32.1045,-13.3057,83,1.4337,1.5127,13.5306,-45.83,30,0.2041,27306,3.9534,-87.0504
lg,1625424643876502448,0,0.0359,-0.739,0.6096,578,24.4751,27.771,-15.3809,83,1.4377,1.5077,13.2505,-45.324,30,0.1981,10857,3.9534,-88.3559
lg,1625424643876524189,0,-0.0081,-0.7505,0.4343,579,21.7285,46.1426,-14.2212,83,1.4427,1.5007,13.6485,-45.4459,30,0.1921,7946,3.9534,-90.2544
lg,1625424643876544354,0,-0.0508,-0.7634,0.533,580,15.9912,59.8755,-10.0708,83,1.4487,1.4907,14.6898,-45.5635,30,0.1891,8656,3.9534,-92.3717
lg,1625424643876563593,0,-0.2078,-0.8125,0.7195,581,10.6201,79.2847,18.4326,83,1.4517,1.4857,17.2636,-45.7485,29,0.1901,10045,3.9534,-94.2292
lg,1625424643876581960,0,-0.3538,-0.8574,0.8723,582,-5.249,55.6641,40.8325,83,1.4517,1.4877,19.9256,-46.0522,29,0.1941,8654,3.9534,-94.706
lg,1625424643876600365,0,-0.481,-0.7588,0.8376,583,-11.0474,17.1509,44.2505,83,1.4487,1.4937,21.7918,-46.0496,29,0.1941,8848,3.9534,-93.8683
lg,1625424643876618917,0,-0.5449,-0.7227,0.5488,584,-31.8604,-67.9932,53.7109,83,1.4387,1.5017,21.8274,-46.1731,30,0.1931,14176,3.9534,-90.2386
lg,1625424643876637285,0,-0.4692,-0.6887,0.6079,585,-37.9028,-91.5527,58.8379,83,1.4287,1.5037,21.2026,-46.0782,30,0.1951,8389,3.9534,-85.6744
lg,1625424643876655560,0,-0.1355,-0.7925,0.7168,586,-33.8135,-108.1543,50.9033,83,1.4197,1.5027,19.1235,-45.8275,30,0.1961,8519,3.9534,-80.8765
lg,1625424643876674316,0,0.1267,-0.9719,0.7373,587,-29.4189,-98.4497,45.3491,83,1.4127,1.5017,16.7422,-45.9539,30,0.1961,8412,3.9534,-76.6679
lg,1625424643876692591,0,0.1282,-0.9548,0.5723,588,-23.1934,-81.543,20.5078,83,1.4097,1.5007,14.2972,-46.5957,29,0.1961,8090,3.9534,-73.7806
lg,1625424643876709884,0,0.0288,-0.9539,0.6089,589,-9.5825,-18.7378,2.2583,83,1.4077,1.5007,13.2442,-47.2575,29,0.1961,8937,3.9534,-73.2568
lg,1625424643876728029,0,-0.0513,-0.8494,0.6055,590,5.8594,13.4888,9.7046,83,1.4087,1.5027,13.4828,-47.3388,29,0.1961,8917,3.9534,-73.4617
lg,1625424643876746063,0,-0.1455,-0.8633,0.4739,591,14.0381,13.916,10.8032,83,1.4097,1.5037,13.9863,-47.3512,29,0.1971,8881,3.9534,-73.7118
lg,1625424643876784874,0,-0.115,-0.7695,0.5515,592,15.8691,12.8174,14.0381,83,1.4107,1.5057,14.466,-46.9896,29,0.1981,8892,3.9534,-73.776
lg,1625424643876805150,0,-0.1035,-0.7556,0.6189,593,13.0615,7.0801,17.1509,83,1.4137,1.5087,14.8242,-46.5385,29,0.1991,8235,3.9534,-73.5423
lg,1625424643876822906,0,-0.0166,-0.7693,0.6343,594,10.376,-0.3052,14.5264,83,1.4117,1.5097,14.6904,-46.1675,29,0.1991,8974,3.9534,-73.1614
lg,1625424643876840476,0,0.0088,-0.7786,0.6736,595,8.1787,11.9629,12.6343,83,1.4217,1.5107,14.7872,-45.9504,29,0.2001,8961,3.9534,-73.1877
lg,1625424643876859122,0,-0.0103,-0.7869,0.7261,596,10.498,34.2407,8.1787,83,1.4267,1.5107,15.4079,-45.7801,30,0.2011,8272,3.9534,-73.9867
lg,1625424643876876693,0,-0.0281,-0.7512,0.7708,597,11.4136,45.105,7.5073,83,1.4317,1.5107,16.3262,-45.5589,30,0.2011,8648,3.9534,-75.097
lg,1625424643876894115,0,-0.1697,-0.8521,0.7151,598,8.728,56.3965,-1.2207,83,1.4337,1.5097,17.5518,-45.8836,30,0.2001,8311,3.9534,-76.8734
lg,1625424643876911871,0,-0.1987,-0.8159,0.6606,599,9.0942,48.3398,7.3242,83,1.4397,1.5097,18.8253,-46.1095,29,0.2001,9091,3.9534,-78.188
lg,1625424643876932370,0,-0.2092,-0.8208,0.6707,600,1.5869,40.0391,16.1133,83,1.4457,1.5107,20.0851,-46.4776,29,0.1991,10686,3.9534,-79.0062
lg,1625424643876951775,0,-0.2148,-0.7964,0.5825,601,-3.0518,28.0762,19.3481,83,1.4457,1.5107,21.1057,-46.9982,29,0.2001,8353,3.9534,-79.4171
lg,1625424643876970421,0,-0.2168,-0.7803,0.5933,602,-8.7891,19.8975,21.9116,83,1.4477,1.5117,21.9433,-47.5715,29,0.2031,9133,3.9534,-79.4913
lg,1625424643876988436,0,-0.2061,-0.7883,0.6199,603,-10.3149,15.7471,21.5454,83,1.4477,1.5117,22.6231,-48.1033,29,0.2031,8760,3.9534,-79.4354
lg,1625424643877006396,0,-0.2773,-0.7996,0.6179,604,-8.3618,10.8032,22.4609,83,1.4487,1.5127,23.2876,-48.4819,29,0.2031,9162,3.9534,-79.2017
lg,1625424643877023707,0,-0.2803,-0.8174,0.6768,605,-8.667,-4.8828,26.062,83,1.4487,1.5137,23.5986,-48.531,29,0.2051,8466,3.9534,-78.318
lg,1625424643877040628,0,-0.1938,-0.8418,0.698,606,-11.5967,-26.3672,27.5879,83,1.4457,1.5137,23.1924,-48.3994,29,0.2051,8843,3.9534,-76.6878
lg,1625424643877063518,0,-0.1411,-0.9167,0.7214,607,-18.7988,-41.687,29.4189,83,1.4397,1.5147,22.3321,-48.4302,30,0.2041,9263,3.9534,-74.5406
lg,1625424643877134245,0,0.1443,-0.7754,0.7957,608,-28.2593,-52.7954,33.6914,83,1.4267,1.5127,20.5767,-48.5329,30,0.2041,9275,3.9534,-71.3509
lg,1625424644247638281,0,-0.3884,-0.7341,0.5215,609,6.6528,10.0708,-49.0723,83,1.4027,1.4967,20.5107,-49.2856,29,0.2001,27629,3.9534,-73.6882
lg,1625424644247678257,0,-0.7041,-0.6245,0.6519,610,17.9443,26.8555,2.2583,83,1.3987,1.4957,21.9574,-48.6637,29,0.2011,10240,3.9534,-74.4217
lg,1625424644247699571,0,-0.4844,-0.8025,0.7432,611,-1.1597,-46.875,45.7764,83,1.3967,1.4967,22.1471,-47.5775,29,0.2011,7872,3.9534,-71.5686
lg,1625424644247719531,0,-0.2344,-0.8525,0.7275,612,-3.9062,-84.4727,51.3306,83,1.3947,1.4977,20.4755,-46.4075,29,0.2021,7880,3.9534,-67.4917
lg,1625424644247740010,0,0.2263,-0.8811,0.6646,613,-3.3569,-78.6743,54.0161,83,1.3937,1.4987,18.6483,-45.466,29,0.2021,8403,3.9534,-63.6005
lg,1625424644247759378,0,0.3333,-0.927,0.6982,614,5.7983,-13.7939,42.4194,83,1.3947,1.5017,18.1781,-45.0004,29,0.2031,9792,3.9534,-62.0326
lg,1625424644247779023,0,0.179,-0.8887,0.6738,615,10.0708,30.7617,13.916,83,1.3977,1.5047,18.3973,-45.0682,29,0.2031,8772,3.9534,-62.6384
lg,1625424644247798094,0,-0.0417,-0.8645,0.606,616,9.8877,50.6592,-2.6245,83,1.4047,1.5067,19.1133,-45.5895,29,0.2051,9156,3.9534,-64.3685
lg,1625424644247816924,0,-0.2249,-0.8813,0.6299,617,7.6904,54.7485,1.77,83,1.4137,1.5087,20.3902,-46.1825,29,0.2041,10377,3.9534,-66.107
lg,1625424644247835531,0,-0.1833,-0.8638,0.6321,618,10.7422,45.4102,10.0708,83,1.4217,1.5087,21.4748,-46.3924,29,0.2041,8281,3.9534,-67.3047
lg,1625424644247853620,0,-0.0815,-0.7737,0.6313,619,18.3716,40.8325,9.5215,83,1.4287,1.5087,22.213,-46.2035,30,0.2031,7937,3.9534,-68.365
lg,1625424644247871931,0,-0.0581,-0.7712,0.5398,620,19.165,46.875,-1.2817,83,1.4337,1.5067,22.7408,-46.3795,30,0.2001,8749,3.9534,-70.0138
lg,1625424644247890445,0,-0.0625,-0.822,0.5095,621,15.4419,42.6636,-3.6011,83,1.4387,1.5047,22.9809,-46.9213,30,0.1981,8631,3.9534,-71.5009
lg,1625424644247909312,0,-0.1294,-0.8767,0.5388,622,8.2397,39.917,3.1738,83,1.4407,1.5017,23.5436,-47.5369,30,0.1981,8429,3.9534,-72.8729
lg,1625424644247927975,0,-0.2402,-0.9019,0.6338,623,3.6621,36.9873,27.5879,83,1.4397,1.5027,24.9059,-47.8488,29,0.2021,8868,3.9534,-73.3843
lg,1625424644247982296,0,-0.355,-0.7632,0.7974,624,-8.4839,20.9961,35.8887,83,1.4407,1.5047,26.2452,-47.8397,29,0.2011,8833,3.9534,-72.9335
lg,1625424644248006594,0,-0.4583,-0.7471,0.7554,625,-11.5356,5.4321,38.147,83,1.4367,1.5067,27.1356,-47.342,29,0.2001,8122,3.9534,-70.9353
lg,1625424644248024256,0,-0.6003,-0.6536,0.575,626,-15.9912,-37.4756,42.8467,83,1.4257,1.5057,27.6641,-46.8393,29,0.1991,8520,3.9534,-68.3977
lg,1625424644248043345,0,-0.4126,-0.5889,0.9473,627,-33.9966,-77.6367,37.7197,83,1.4167,1.5107,26.3616,-45.8868,29,0.1991,8902,3.9534,-64.4091
lg,1625424644248061582,0,-0.1902,-0.8406,0.7542,628,-29.0527,-114.1968,38.6353,83,1.4047,1.5107,23.6214,-45.1051,29,0.1961,8890,3.9534,-59.6573
lg,1625424644248081135,0,0.0696,-0.8989,0.6487,629,-23.9258,-100.708,19.7754,83,1.4017,1.5087,20.324,-45.0573,29,0.1941,13127,3.9534,-56.1276
lg,1625424644248099538,0,-0.0234,-0.9263,0.5876,630,-6.2866,-39.7949,3.54,83,1.4007,1.5087,18.5812,-45.3859,29,0.1931,9030,3.9534,-54.9994
lg,1625424644248118275,0,-0.0828,-0.8086,0.635,631,3.7231,0.9155,3.6621,83,1.4017,1.5097,18.163,-45.4696,29,0.1961,8255,3.9534,-55.0025
lg,1625424644248137291,0,-0.1626,-0.854,0.561,632,7.019,4.2725,7.2021,83,1.4047,1.5107,18.056,-45.4147,29,0.1971,8267,3.9534,-55.0217
lg,1625424644248156676,0,-0.1421,-0.8389,0.5625,633,13.1226,0.7324,2.2583,83,1.4097,1.5127,17.7528,-45.307,29,0.1971,8314,3.9534,-55.1126
lg,1625424644248175451,0,-0.1414,-0.8586,0.5737,634,15.7471,-5.188,-2.0142,83,1.4137,1.5147,17.1663,-45.0874,29,0.1971,9263,3.9534,-55.1531
lg,1625424644248194447,0,-0.1538,-0.8281,0.5779,635,17.4561,-8.7891,-3.7231,83,1.4257,1.5147,16.4846,-44.7445,29,0.1961,11378,3.9534,-55.1228
lg,1625424644248211887,0,-0.0347,-0.7041,0.5764,636,16.9678,-14.7705,-2.1362,83,1.4327,1.5167,15.4448,-44.2012,29,0.1971,8783,3.9534,-54.8253
lg,1625424644248230513,0,0.0322,-0.72,0.6274,637,10.8032,-3.54,-7.4463,83,1.4357,1.5157,14.4579,-43.9844,29,0.1961,8759,3.9534,-54.996
lg,1625424644248249658,0,-0.0642,-0.9009,0.6509,638,2.5024,3.6011,-0.9766,83,1.4367,1.5167,14.0995,-44.3197,30,0.1971,8441,3.9534,-55.2297
lg,1625424644248268025,0,-0.1055,-0.9417,0.6804,639,-5.127,2.1362,11.2305,83,1.4357,1.5177,14.1581,-44.7522,30,0.1991,8872,3.9534,-55.0338
lg,1625424644248286780,0,-0.1294,-0.7617,0.6794,640,-5.3711,2.3804,27.2827,83,1.4337,1.5177,14.7175,-44.9158,30,0.1991,8508,3.9534,-54.3386
lg,1625424644633726163,0,-0.2822,-0.7949,0.6792,641,-14.0991,-39.856,21.5454,83,1.4317,1.5147,13.8301,-45.2707,29,0.1971,27430,3.9534,-52.3241
lg,1625424644633768641,0,-0.1277,-0.8455,0.6211,642,-2.5635,-26.3062,21.4844,83,1.4327,1.5147,13.4351,-45.3739,29,0.1971,10345,3.9534,-51.0116
lg,1625424644633818422,0,-0.2009,-0.7957,0.6814,643,4.4556,-2.7466,14.5874,83,1.4337,1.5157,13.6687,-45.2292,29,0.1971,8291,3.9534,-50.5456
lg,1625424644633839976,0,-0.1841,-0.762,0.7131,644,4.2114,-10.1929,15.0146,83,1.4357,1.5167,13.4524,-45.0229,29,0.1991,8227,3.9534,-49.846
lg,1625424644633871371,0,-0.0164,-0.8193,0.666,645,2.1973,-29.0527,14.0381,83,1.4387,1.5177,12.537,-44.8815,29,0.1991,8658,3.9534,-48.6495
lg,1625424644633890961,0,0.0469,-0.8662,0.6008,646,1.1597,-20.2026,8.9111,83,1.4357,1.5167,11.6346,-45.0661,29,0.2001,8969,3.9534,-47.8962
lg,1625424644633909976,0,0.0337,-0.8291,0.5957,647,-2.5635,-9.7656,12.3901,83,1.4417,1.5167,11.185,-45.4026,29,0.2011,8457,3.9534,-47.3304
lg,1625424644633929140,0,0.0127,-0.9263,0.7014,648,-14.5264,-7.7515,19.5923,83,1.4407,1.5187,11.211,-46.3621,29,0.2011,8782,3.9534,-46.2182
lg,1625424644633947896,0,-0.0466,-0.8564,0.6396,649,-21.0571,-10.1929,34.1187,83,1.4307,1.5197,11.5833,-47.2198,29,0.2021,8007,3.9534,-45.014
lg,1625424644633966540,0,-0.4968,-0.7126,0.6836,650,-2.5024,26.001,12.5732,83,1.4237,1.5177,13.2433,-47.3645,29,0.2021,10109,3.9534,-45.4397
lg,1625424644633984258,0,-0.4263,-0.7163,0.7676,651,-11.4136,-7.5073,18.1885,83,1.4197,1.5157,13.9244,-47.4719,29,0.2011,8515,3.9534,-44.6654
lg,1625424644634002995,0,-0.2427,-0.8396,0.6091,652,-22.583,-62.0728,12.8784,83,1.4177,1.5137,12.6179,-48.1055,29,0.2001,9998,3.9534,-42.4772
lg,1625424644634021325,0,0.0149,-0.9453,0.6064,653,-11.4746,-53.4058,23.4985,83,1.4157,1.5117,11.384,-48.4514,29,0.2001,8434,3.9534,-40.2849
lg,1625424644634054110,0,-0.012,-0.8523,0.5312,654,3.6621,0.061,12.146,83,1.4147,1.5117,11.3317,-48.6162,29,0.2001,8835,3.9534,-40.0346
lg,1625424644634074330,0,-0.2048,-0.8203,0.585,655,11.0474,26.9775,12.0239,83,1.4167,1.5127,12.4074,-48.5004,29,0.2021,10058,3.9534,-40.5828
lg,1625424644634093234,0,-0.1924,-0.8076,0.5801,656,11.8408,4.2725,19.2871,83,1.4167,1.5137,13.0379,-48.1605,29,0.2021,8998,3.9534,-40.2375
lg,1625424644634111990,0,-0.1697,-0.8438,0.6177,657,8.728,-2.5024,19.043,94,1.4187,1.5117,13.3851,-47.8897,29,0.2031,8175,3.9435,-39.6885
lg,1625424644634130912,0,-0.0615,-0.8455,0.625,658,10.7422,-16.4795,18.7378,94,1.4227,1.5177,13.1014,-47.4451,29,0.2041,8272,3.9435,-38.7228
lg,1625424644634149649,0,0.0391,-0.8313,0.6348,659,11.8408,-11.3525,17.6392,94,1.4277,1.5177,12.7146,-46.9864,29,0.2041,8945,3.9435,-37.9391
lg,1625424644634168646,0,0.0415,-0.8196,0.6211,660,12.5122,-3.2959,16.2354,94,1.4327,1.5177,12.7048,-46.6163,29,0.2041,8249,3.9435,-37.7283
lg,1625424644634187012,0,0.0791,-0.7734,0.6643,661,13.9771,18.9819,10.3149,94,1.4357,1.5137,12.8527,-46.2188,29,0.2031,8663,3.9435,-38.0288
lg,1625424644634223949,0,0.0139,-0.8015,0.6558,662,17.4561,44.6777,-0.3662,94,1.4387,1.5147,13.5376,-45.9989,29,0.2001,8273,3.9435,-39.4062
lg,1625424644634244336,0,-0.085,-0.8672,0.6323,663,15.9302,59.021,-1.6479,94,1.4427,1.5107,14.7644,-46.114,29,0.1961,8276,3.9435,-41.2843
lg,1625424644634263796,0,-0.1606,-0.8806,0.6248,664,15.7471,61.4624,3.1128,94,1.4467,1.5087,16.6468,-46.2902,29,0.1951,9136,3.9435,-42.9009
lg,1625424644634281884,0,-0.3142,-0.854,0.6924,665,3.9062,49.7437,21.3013,94,1.4477,1.5057,18.5961,-46.5813,30,0.1991,9096,3.9435,-43.8536
lg,1625424644634300510,0,-0.3291,-0.7927,0.6953,666,-13.7939,15.3198,28.6865,94,1.4447,1.5107,19.7944,-47.0888,30,0.1991,8516,3.9435,-43.523
lg,1625424644634318858,0,-0.4478,-0.7251,0.6731,667,-12.6343,-5.3711,38.4521,94,1.4417,1.5137,20.9503,-47.1347,30,0.1981,8416,3.9435,-42.2369
lg,1625424644634337021,0,-0.5015,-0.6768,0.6423,668,-13.7939,-15.5029,37.0483,94,1.4357,1.5147,21.3651,-47.0192,30,0.1991,8447,3.9435,-40.1983
lg,1625424644634354980,0,-0.3406,-0.531,0.7925,669,-23.3765,-56.7627,30.5176,94,1.4307,1.5167,20.6545,-46.4593,29,0.2001,8847,3.9435,-37.3322
lg,1625424644634373346,0,-0.1938,-0.8513,0.6628,670,-26.3672,-87.8296,27.1606,94,1.4257,1.5157,18.6259,-46.555,29,0.2001,9888,3.9435,-33.9071
lg,1625424644634391453,0,0.0908,-0.9043,0.6667,671,-24.7803,-75.9888,24.0479,94,1.4207,1.5157,16.3612,-46.9168,29,0.1991,10583,3.9435,-30.981
lg,1625424644634461732,0,0.0857,-0.8945,0.5857,672,-12.6953,-23.8647,12.3291,94,1.4207,1.5147,15.2721,-47.5215,29,0.1991,9265,3.9435,-30.0127
lg,1625424645012386336,0,-0.157,-0.8213,0.5759,673,5.0659,18.7988,17.9443,94,1.4177,1.5157,16.0546,-47.6294,29,0.1991,26389,3.9435,-30.1665
lg,1625424645012424718,0,-0.052,-0.812,0.635,674,6.3477,5.0659,26.001,94,1.4197,1.5167,16.2364,-47.2784,30,0.2011,9252,3.9435,-29.2722
lg,1625424645012445772,0,0.053,-0.803,0.5852,675,11.2305,-11.5356,27.1606,94,1.4217,1.5177,15.97,-46.7812,30,0.2011,10095,3.9435,-28.2299
lg,1625424645012465918,0,0.0537,-0.7976,0.5779,676,11.9629,-6.5308,24.5972,94,1.4257,1.5177,15.7653,-46.3465,30,0.2021,8680,3.9435,-27.4152
lg,1625424645012485285,0,-0.001,-0.7983,0.6147,677,14.7705,6.6528,17.6392,94,1.4287,1.5177,15.8427,-45.9115,30,0.2031,8261,3.9435,-27.1771
lg,1625424645012504245,0,-0.0488,-0.7664,0.6699,678,18.6768,22.8271,13.7329,94,1.4337,1.5177,16.3527,-45.3541,29,0.2031,10244,3.9435,-27.4934
lg,1625424645012522815,0,-0.116,-0.7607,0.6875,679,16.9678,28.1372,11.2915,94,1.4357,1.5167,17.0683,-44.9148,29,0.2011,9279,3.9435,-28.0256
lg,1625424645012541089,0,-0.1501,-0.8274,0.6233,680,14.1602,19.8975,12.5732,94,1.4387,1.5157,17.638,-44.7346,29,0.1991,8939,3.9435,-28.3384
lg,1625424645012583456,0,-0.1497,-0.8264,0.636,681,11.8408,18.3105,13.3057,94,1.4387,1.5127,18.1578,-44.6115,29,0.1981,7979,3.9435,-28.5786
lg,1625424645012603787,0,-0.1899,-0.8782,0.6943,682,2.3193,12.7563,22.9492,94,1.4417,1.5167,18.8271,-44.6994,30,0.2011,8739,3.9435,-28.3589
lg,1625424645012621802,0,-0.2004,-0.7947,0.6343,683,-5.8594,-2.5024,29.7852,94,1.4387,1.5177,19.292,-44.8803,30,0.2031,8765,3.9435,-27.4775
lg,1625424645012639075,0,-0.29,-0.7207,0.6064,684,-9.0942,-9.4604,30.2734,94,1.4347,1.5197,19.7924,-45.0344,30,0.2041,8772,3.9435,-26.3492
lg,1625424645012656366,0,-0.2058,-0.5823,0.7939,685,-8.5449,-6.5918,24.0479,94,1.4307,1.5187,20.3531,-45.1799,29,0.2051,8811,3.9435,-25.4699
lg,1625424645012673269,0,-0.4819,-0.782,0.6199,686,-4.2114,-22.9492,14.2822,94,1.4267,1.5177,20.3292,-45.1893,29,0.2061,8466,3.9435,-24.4259
lg,1625424645012691023,0,-0.2876,-0.8152,0.6484,687,-8.8501,-66.1621,12.9395,94,1.4237,1.5157,18.645,-44.9929,29,0.2051,10434,3.9435,-22.1318
lg,1625424645012708704,0,-0.2788,-0.8921,0.6499,688,-6.5308,-50.4761,12.5732,94,1.4227,1.5147,17.4088,-45.0209,29,0.2041,8168,3.9435,-20.3657
lg,1625424645012726255,0,-0.1636,-0.8223,0.6904,689,1.9531,-48.1567,20.3857,94,1.4217,1.5167,16.2772,-44.5485,29,0.2031,8753,3.9435,-18.401
lg,1625424645012743510,0,-0.0552,-0.8,0.6721,690,2.6855,-46.5088,25.5127,94,1.4207,1.5167,15.0091,-44.1406,29,0.2031,8918,3.9435,-16.3705
lg,1625424645012760857,0,0.0449,-0.8945,0.6665,691,3.0518,-21.7896,25.8179,94,1.4217,1.5147,14.4329,-44.0282,29,0.2041,8964,3.9435,-15.0737
lg,1625424645012778908,0,0.0408,-0.8555,0.6687,692,9.0332,15.8691,18.9819,94,1.4227,1.5187,14.7677,-43.9549,29,0.2041,8626,3.9435,-15.0481
lg,1625424645012797164,0,-0.0479,-0.8184,0.6663,693,11.1084,39.4287,10.9863,94,1.4267,1.5197,15.7227,-43.996,29,0.2051,8270,3.9435,-15.9299
lg,1625424645012814363,0,-0.1382,-0.8386,0.6367,694,9.6436,40.2832,6.6528,94,1.4307,1.5207,16.7352,-44.2303,29,0.2061,9803,3.9435,-16.9978
lg,1625424645012832173,0,-0.187,-0.7883,0.5962,695,11.7188,40.3442,4.0894,94,1.4347,1.5197,17.762,-44.4178,29,0.2071,8281,3.9435,-18.1586
lg,1625424645012849817,0,-0.1968,-0.7646,0.595,696,10.376,36.8042,1.3428,94,1.4367,1.5197,18.5964,-44.6329,29,0.2051,8538,3.9435,-19.3011
lg,1625424645012880378,0,-0.1841,-0.7642,0.5164,697,8.0566,26.9165,0.7935,94,1.4377,1.5197,18.8188,-45.0111,29,0.2031,8349,3.9435,-19.821
lg,1625424645012899097,0,-0.1846,-0.8105,0.6072,698,-0.7935,7.0801,4.1504,94,1.4397,1.5187,18.7958,-45.3893,29,0.2021,9143,3.9435,-20.0136
lg,1625424645012916630,0,-0.1975,-0.9299,0.7007,699,-11.6577,-7.0801,20.3857,94,1.4397,1.5197,18.8213,-45.8926,29,0.2051,9423,3.9435,-19.2954
lg,1625424645012934069,0,-0.1216,-0.865,0.6833,700,-19.3481,-24.0479,36.9873,94,1.4337,1.5227,18.73,-46.3087,30,0.2051,8383,3.9435,-17.5543
lg,1625424645012951546,0,-0.2131,-0.7805,0.6035,701,-16.7236,-8.4839,30.6396,94,1.4347,1.5217,19.1279,-46.8345,30,0.2061,8430,3.9435,-16.4792
lg,1625424645012968819,0,-0.2998,-0.6863,0.585,702,-13.1226,-0.7935,25.8179,94,1.4317,1.5207,19.5632,-47.1066,30,0.2071,8833,3.9435,-16.013
lg,1625424645013045899,0,-0.3796,-0.7866,0.5188,703,-8.1787,-13.0005,15.9302,94,1.4287,1.5187,19.7793,-47.4986,30,0.2081,8847,3.9435,-15.2689
lg,1625424645013067213,0,-0.2017,-0.8469,0.5583,704,-12.0239,-31.5552,12.7563,94,1.4277,1.5177,18.9798,-47.8905,29,0.2071,8531,3.9435,-14.0366
lg,1625424645467491099,0,-0.1968,-0.7878,0.4817,705,15.3198,13.4888,12.3291,94,1.4277,1.5187,19.4381,-47.7273,29,0.2081,27053,3.9435,-14.2513
lg,1625424645467531018,0,-0.2703,-0.7561,0.5845,706,13.7939,8.4229,13.5498,94,1.4267,1.5197,19.917,-47.3078,29,0.2081,9246,3.9435,-14.187
lg,1625424645467552441,0,-0.1726,-0.7712,0.6506,707,10.1929,-16.3574,23.3154,94,1.4277,1.5207,19.7481,-46.5931,29,0.2081,9105,3.9435,-13.0379
lg,1625424645467572549,0,-0.042,-0.8186,0.6423,708,7.2632,-23.3154,28.6865,94,1.4277,1.5217,19.2553,-45.995,29,0.2091,10383,3.9435,-11.5586
lg,1625424645467591841,0,0.0232,-0.8416,0.6375,709,7.8125,-11.2305,30.8838,94,1.4277,1.5217,19.0339,-45.5496,29,0.2091,8311,3.9435,-10.4037
lg,1625424645467610929,0,0.03,-0.8091,0.6294,710,9.5825,10.9863,31.189,94,1.4287,1.5217,19.426,-45.2358,29,0.2081,7941,3.9435,-9.9012
lg,1625424645467629536,0,0.0234,-0.8074,0.6306,711,10.3149,22.3389,31.7993,94,1.4287,1.5217,20.1504,-45.0035,29,0.2091,8277,3.9435,-9.7196
lg,1625424645467648105,0,-0.0635,-0.8447,0.6917,712,9.0942,36.1328,32.7148,94,1.4287,1.5227,21.4322,-44.9066,29,0.2081,8328,3.9435,-9.9084
lg,1625424645467666971,0,-0.0857,-0.7837,0.6233,713,8.9111,27.1606,33.6304,94,1.4267,1.5227,22.5,-44.7446,29,0.2081,9136,3.9435,-9.8116
lg,1625424645467686041,0,-0.1418,-0.7715,0.5344,714,11.1694,28.3203,28.0151,94,1.4247,1.5237,23.551,-44.7352,29,0.2071,8874,3.9435,-9.9868
lg,1625424645467704444,0,-0.2588,-0.7734,0.4985,715,16.9678,33.6914,24.5972,94,1.4227,1.5227,24.8989,-44.6764,29,0.2061,9554,3.9435,-10.469
lg,1625424645467722568,0,-0.3176,-0.76,0.5801,716,22.0337,32.5317,24.7803,94,1.4217,1.5227,26.2603,-44.2151,29,0.2081,8823,3.9435,-10.8368
lg,1625424645467740193,0,-0.3545,-0.78,0.6033,717,25.6958,19.2871,23.8647,94,1.4227,1.5227,27.2205,-43.4375,29,0.2081,8487,3.9435,-10.8145
lg,1625424645467757446,0,-0.3359,-0.7654,0.5842,718,28.2593,9.4604,25.8179,94,1.4227,1.5227,27.8902,-42.4268,29,0.2081,8104,3.9435,-10.4316
lg,1625424645467775275,0,-0.249,-0.7546,0.5591,719,33.2031,-4.2114,28.8086,94,1.4227,1.5237,28.0346,-41.0536,29,0.2081,8097,3.9435,-9.5588
lg,1625424645467792973,0,-0.1704,-0.7422,0.5698,720,35.2173,-7.5684,27.5269,94,1.4247,1.5247,27.8435,-39.5946,29,0.2081,8760,3.9435,-8.6307
lg,1625424645467810764,0,-0.1458,-0.7466,0.573,721,36.6821,-5.6152,20.752,94,1.4247,1.5247,27.4735,-38.2789,29,0.2081,8536,3.9435,-8.0149
lg,1625424645467827944,0,-0.1875,-0.7258,0.6145,722,38.8184,-2.1973,18.6768,94,1.4277,1.5237,27.3102,-36.8791,29,0.2091,9886,3.9435,-7.6952
lg,1625424645467845123,0,-0.2104,-0.7129,0.613,723,41.9922,2.3193,15.8691,94,1.4307,1.5237,27.2038,-35.4985,29,0.2101,8963,3.9435,-7.4334
lg,1625424645467862673,0,-0.2139,-0.6912,0.6111,724,43.1519,-3.479,15.8691,94,1.4337,1.5237,26.9192,-34.0246,30,0.2101,9182,3.9435,-7.0212
lg,1625424645467880316,0,-0.1824,-0.6877,0.6208,725,45.8984,-10.3149,18.4937,94,1.4367,1.5237,26.3898,-32.3645,30,0.2091,8981,3.9435,-6.3554
lg,1625424645467898682,0,-0.1753,-0.7197,0.5745,726,49.8657,-13.9771,20.2026,94,1.4387,1.5237,25.7799,-30.7019,30,0.2081,8672,3.9435,-5.6318
lg,1625424645467916528,0,-0.1648,-0.7427,0.563,727,51.2695,-16.8457,21.7896,94,1.4407,1.5237,25.0493,-28.982,29,0.2061,8317,3.9435,-4.83
lg,1625424645467934227,0,-0.1411,-0.7163,0.5364,728,55.7861,-16.8457,24.4141,94,1.4427,1.5227,24.3719,-27.224,29,0.2041,8686,3.9435,-3.9709
lg,1625424645467976833,0,-0.1526,-0.7146,0.4971,729,59.9976,-13.1226,31.6772,94,1.4437,1.5227,24.0079,-25.363,29,0.2031,8334,3.9435,-2.9547
lg,1625424645467997960,0,-0.114,-0.7039,0.5261,730,63.5376,-5.9814,37.3535,94,1.4447,1.5227,23.8659,-23.3311,29,0.2041,9205,3.9435,-1.8389
lg,1625424645468016214,0,-0.1008,-0.6675,0.5269,731,65.6738,0.9766,39.6118,94,1.4457,1.5227,24.253,-21.1061,30,0.2041,8768,3.9435,-0.6626
lg,1625424645468033931,0,-0.116,-0.6836,0.5251,732,71.6553,16.8457,44.9829,94,1.4467,1.5237,24.9892,-18.8675,30,0.2051,9061,3.9435,0.3997
lg,1625424645468051463,0,-0.176,-0.6599,0.5237,733,81.1157,32.959,45.166,94,1.4467,1.5237,26.4225,-16.3281,30,0.2051,9134,3.9435,1.2916
lg,1625424645468068587,0,-0.2542,-0.6501,0.5525,734,87.0361,42.0532,48.3398,94,1.4467,1.5247,28.3154,-13.4603,30,0.2051,8788,3.9435,2.298
lg,1625424645468086322,0,-0.2983,-0.6606,0.5837,735,92.4683,40.0391,51.5747,94,1.4477,1.5247,30.1143,-10.2463,29,0.2041,8493,3.9435,3.5507
lg,1625424645468103539,0,-0.2952,-0.6548,0.6111,736,94.6045,36.6211,52.063,94,1.4477,1.5247,31.649,-6.8402,29,0.2041,8537,3.9435,4.9491
lg,1625424645774696057,0,-0.3584,-0.584,0.6816,737,104.9805,-0.4883,52.2461,94,1.4467,1.5247,31.6161,-2.7506,29,0.2021,24078,3.9435,6.6634
lg,1625424645774742222,0,-0.3638,-0.5337,0.7847,738,107.1167,-19.7754,49.9878,94,1.4467,1.5237,30.6108,1.4322,29,0.2021,9110,3.9435,8.3168
lg,1625424645774763515,0,-0.335,-0.4556,0.8364,739,109.6191,-33.3862,47.4243,94,1.4457,1.5247,28.886,5.5956,29,0.2011,9685,3.9435,9.7578
lg,1625424645774784142,0,-0.3323,-0.4348,0.8818,740,107.1167,-44.1284,45.9595,94,1.4457,1.5247,26.671,9.4143,29,0.2011,14090,3.9435,10.9215
lg,1625424645774803564,0,-0.292,-0.3965,0.9238,741,102.9663,-52.3682,44.1895,94,1.4447,1.5247,24.0372,12.8407,29,0.2011,7941,3.9435,11.7925
lg,1625424645774823116,0,-0.2009,-0.3989,0.979,742,97.6562,-47.3022,42.2974,94,1.4437,1.5247,21.4466,15.8293,29,0.2011,8038,3.9435,12.4781
lg,1625424645774842612,0,-0.1924,-0.428,1.0125,743,95.0317,-39.2456,40.7715,94,1.4427,1.5237,19.2076,18.5248,29,0.2011,8217,3.9435,13.0844
lg,1625424645774879213,0,-0.2097,-0.4995,1.0432,744,95.0317,-15.5029,36.9873,94,1.4417,1.5237,17.9895,21.067,29,0.2001,8078,3.9435,13.7814
lg,1625424645774899098,0,-0.2778,-0.4851,1.0527,745,95.459,2.9907,34.4238,94,1.4407,1.5217,17.6126,23.6312,29,0.1991,8068,3.9435,14.6478
lg,1625424645774917612,0,-0.2961,-0.4731,1.054,746,94.9097,6.2256,33.5693,94,1.4387,1.5217,17.3716,26.1214,29,0.2001,8124,3.9435,15.5139
lg,1625424645774937071,0,-0.3467,-0.4541,1.0586,747,91.98,7.8735,31.189,94,1.4387,1.5227,17.2876,28.4503,29,0.2001,8889,3.9435,16.3088
lg,1625424645774955641,0,-0.3899,-0.4368,1.1104,748,88.501,-0.3052,29.8462,94,1.4397,1.5227,16.9563,30.5681,29,0.2001,8108,3.9435,16.8743
lg,1625424645774974117,0,-0.3953,-0.3889,1.1384,749,85.5713,-9.5215,28.4424,94,1.4397,1.5227,15.8853,32.3127,29,0.1991,8452,3.9435,17.022
lg,1625424645774992520,0,-0.3857,-0.3596,1.1143,750,79.1016,-32.7148,31.6772,94,1.4387,1.5227,14.4125,33.8423,29,0.2001,8182,3.9435,16.9072
lg,1625424645775011201,0,-0.3496,-0.3323,1.1016,751,71.2891,-54.6875,32.7759,94,1.4377,1.5227,12.1749,34.9201,29,0.2001,8397,3.9435,16.3124
lg,1625424645775030308,0,-0.2996,-0.3108,1.0854,752,60.9741,-70.8008,32.4707,94,1.4377,1.5217,9.4022,35.5047,30,0.2001,8275,3.9435,15.3552
lg,1625424645775049285,0,-0.2698,-0.3455,1.1438,753,53.2227,-72.937,30.9448,94,1.4367,1.5217,6.5939,35.7569,30,0.1991,8282,3.9435,14.3566
lg,1625424645775067447,0,-0.2571,-0.3845,1.1846,754,50.9033,-71.8384,31.189,94,1.4367,1.5217,3.8499,35.9075,30,0.1991,8264,3.9435,13.4663
lg,1625424645775085997,0,-0.2488,-0.3923,1.2026,755,47.9736,-71.5942,30.7617,94,1.4367,1.5217,1.1697,35.9848,30,0.1981,9581,3.9435,12.652
lg,1625424645775104067,0,-0.2283,-0.3953,1.1604,756,44.4946,-78.125,30.2734,94,1.4367,1.5217,-1.6691,35.9369,29,0.1981,8395,3.9435,11.7523
lg,1625424645775123303,0,-0.1582,-0.3813,1.1687,757,40.3442,-87.0972,27.5879,94,1.4367,1.5207,-4.7964,35.7834,29,0.1981,8458,3.9435,10.6501
lg,1625424645775142039,0,-0.1475,-0.3896,1.1448,758,38.8184,-88.0737,25.9399,94,1.4367,1.5207,-7.8212,35.5786,29,0.1991,8371,3.9435,9.5474
lg,1625424645775179123,0,-0.0581,-0.3472,1.1738,759,37.1704,-76.1108,21.4844,94,1.4367,1.5197,-10.4889,35.4186,29,0.1981,11032,3.9435,8.7078
lg,1625424645775200843,0,-0.0303,-0.3103,1.1665,760,37.2925,-65.7959,19.7754,94,1.4377,1.5197,-12.823,35.2749,29,0.1981,8684,3.9435,8.1388
lg,1625424645775219635,0,0.0176,-0.3474,1.1519,761,37.4756,-34.3628,20.2637,94,1.4387,1.5197,-14.1283,34.955,29,0.1991,9346,3.9435,8.4162
lg,1625424645775238445,0,0.0203,-0.3164,1.1123,762,39.5508,2.6245,15.9912,94,1.4397,1.5197,-14.0931,34.565,29,0.1991,8666,3.9435,9.4659
lg,1625424645775258590,0,-0.0139,-0.3625,1.0754,763,42.6025,35.9497,13.916,94,1.4407,1.5207,-12.864,34.085,29,0.1991,9258,3.9435,11.2327
lg,1625424645775276807,0,-0.0974,-0.3269,1.0728,764,47.5464,61.7676,5.9814,94,1.4417,1.5207,-10.4489,33.8545,29,0.1991,8537,3.9435,13.251
lg,1625424645775295951,0,-0.1516,-0.2522,1.0432,765,49.1333,63.9648,1.0376,94,1.4417,1.5207,-7.6067,34.0238,29,0.1991,8537,3.9435,14.7936
lg,1625424645775314335,0,-0.2896,-0.1675,0.9126,766,48.0347,52.063,-5.0049,94,1.4417,1.5207,-4.9059,34.3002,29,0.1991,8583,3.9435,16.0113
lg,1625424645775333498,0,-0.3401,-0.0481,0.8423,767,50.2319,22.2168,-7.9956,94,1.4417,1.5207,-3.0085,34.9932,30,0.2001,8512,3.9435,16.3715
lg,1625424645775353272,0,-0.3386,0.0537,0.9204,768,32.6538,2.1362,-3.2349,94,1.4417,1.5197,-1.989,35.1732,30,0.2001,9117,3.9435,16.3742
lg,1625424646137246127,0,-0.3508,-0.2,1.168,769,18.9819,-12.4512,16.1133,108,1.4417,1.5187,-2.0664,34.3802,29,0.1991,24870,3.9237,16.6659
lg,1625424646137297663,0,-0.2737,-0.1787,1.1697,770,16.2354,-30.8838,20.3247,108,1.4417,1.5187,-2.9707,33.512,29,0.2001,9015,3.9237,16.6974
lg,1625424646137328240,0,-0.1968,-0.2227,1.147,771,11.9629,-41.4429,20.5078,108,1.4427,1.5187,-4.3412,32.4259,29,0.2001,8738,3.9237,16.557
lg,1625424646137357501,0,-0.1228,-0.2546,1.1462,772,10.0708,-42.6636,20.0806,108,1.4417,1.5177,-5.85,31.241,29,0.1991,8383,3.9237,16.4534
lg,1625424646137389746,0,-0.0886,-0.2483,1.1384,773,9.2773,-40.2832,18.7988,108,1.4417,1.5177,-7.0328,29.9975,29,0.1991,9066,3.9237,16.4563
lg,1625424646137447435,0,-0.092,-0.281,1.1265,774,8.7891,-18.9209,8.4839,108,1.4437,1.5177,-7.4758,28.7685,29,0.1991,14892,3.9237,16.5704
lg,1625424646137476455,0,-0.1206,-0.262,1.0908,775,11.2305,-6.8359,7.2021,108,1.4437,1.5177,-7.3913,27.6643,29,0.1991,8097,3.9237,16.8919
lg,1625424646137503715,0,-0.1406,-0.25,1.0474,776,11.8408,-2.9907,5.9204,108,1.4447,1.5177,-7.0929,26.6204,29,0.1981,8075,3.9237,17.2379
lg,1625424646137529937,0,-0.1404,-0.2241,1.0208,777,11.5356,-2.6855,6.5308,108,1.4457,1.5167,-6.7438,25.563,29,0.1991,8086,3.9237,17.6637
lg,1625424646137555919,0,-0.1375,-0.2329,1.0288,778,7.8125,-0.1221,6.897,108,1.4457,1.5167,-6.4005,24.406,29,0.1981,9248,3.9237,18.0785
lg,1625424646137582419,0,-0.0911,-0.2544,1.0308,779,6.5308,4.4556,9.9487,108,1.4467,1.5167,-6.0054,23.2055,29,0.1981,8310,3.9237,18.6715
lg,1625424646137608567,0,-0.0874,-0.2632,1.0293,780,9.2773,11.7798,10.0098,108,1.4467,1.5157,-5.3517,22.1308,29,0.1971,10798,3.9237,19.3684
lg,1625424646137633603,0,-0.0928,-0.2231,1.0325,781,11.7188,24.7803,8.4839,108,1.4477,1.5167,-4.1861,21.2574,29,0.1971,8335,3.9237,20.1711
lg,1625424646137659287,0,-0.1396,-0.1948,1.0168,782,12.085,35.8887,6.5308,108,1.4487,1.5167,-2.5004,20.4937,29,0.1981,8532,3.9237,21.0144
lg,1625424646137684472,0,-0.1594,-0.1753,1.0093,783,11.6577,39.4897,6.6528,108,1.4487,1.5157,-0.5144,19.8262,29,0.1981,8617,3.9237,21.8486
lg,1625424646137709508,0,-0.2246,-0.1582,1.0168,784,10.6201,43.2739,5.7983,108,1.4497,1.5157,1.5348,19.1888,29,0.1981,8398,3.9237,22.6531
lg,1625424646137735452,0,-0.2607,-0.145,1.0083,785,8.606,41.9312,6.1646,108,1.4497,1.5167,3.5455,18.5503,29,0.1971,8781,3.9237,23.4003
lg,1625424646137761730,0,-0.2998,-0.1245,0.9868,786,8.4839,31.9824,7.9346,108,1.4507,1.5167,5.1875,17.9916,29,0.1971,8275,3.9237,24.0433
lg,1625424646137787729,0,-0.3169,-0.1218,0.9905,787,6.0425,23.4375,8.2397,108,1.4507,1.5167,6.4633,17.3733,30,0.1971,8284,3.9237,24.5588
lg,1625424646137813358,0,-0.3069,-0.1409,1.0032,788,-0.4272,11.9019,10.5591,108,1.4507,1.5167,7.2245,16.4799,30,0.1971,8271,3.9237,24.9949
lg,1625424646137856537,0,-0.3198,-0.186,1.0251,789,-3.2959,9.1553,13.5498,108,1.4507,1.5167,7.8405,15.4408,30,0.1971,8322,3.9237,25.4924
lg,1625424646137884371,0,-0.2957,-0.1948,1.0039,790,-3.9673,-3.1128,13.1226,108,1.4507,1.5157,7.9406,14.3651,30,0.1971,8862,3.9237,25.8328
lg,1625424646137911316,0,-0.2761,-0.1875,1.0183,791,-4.2114,-7.6294,13.7939,108,1.4517,1.5157,7.8013,13.3001,29,0.1961,8659,3.9237,26.1627
lg,1625424646138067148,0,-0.2583,-0.2249,1.0361,792,-3.7231,-14.2212,14.5264,108,1.4527,1.5167,7.3792,12.2478,29,0.1961,8609,3.9237,26.4724
lg,1625424646138106286,0,-0.2439,-0.2258,1.0247,793,-1.77,-21.6064,13.4888,108,1.4527,1.5157,6.6749,11.2877,29,0.1961,8819,3.9237,26.7031
lg,1625424646138135140,0,-0.2246,-0.2439,1.0142,794,-0.7324,-25.0854,10.9863,108,1.4537,1.5167,5.8483,10.346,29,0.1961,8994,3.9237,26.8348
lg,1625424646138163178,0,-0.2185,-0.2581,1.0391,795,-0.1221,-28.7476,9.8877,108,1.4547,1.5167,4.8943,9.4378,30,0.1961,8499,3.9237,26.9301
lg,1625424646138288284,0,-0.2271,-0.2622,1.02,796,0.8545,-31.0669,9.5825,108,1.4557,1.5167,3.9129,8.584,30,0.1961,8670,3.9237,27.0337
lg,1625424646138318231,0,-0.1978,-0.2346,1.0325,797,2.6245,-34.5459,8.0566,108,1.4567,1.5167,2.7765,7.8789,30,0.1961,8945,3.9237,27.0962
lg,1625424646138347048,0,-0.1567,-0.2114,1.0388,798,2.0142,-38.3301,5.5542,108,1.4567,1.5167,1.4607,7.2125,30,0.1971,8672,3.9237,27.0764
lg,1625424646138375568,0,-0.1216,-0.1975,1.0493,799,-0.061,-38.8184,5.9204,108,1.4567,1.5167,0.0975,6.5171,29,0.1961,8590,3.9237,27.1061
lg,1625424646138403050,0,-0.0981,-0.2004,1.0391,800,-0.3662,-35.0342,1.2207,108,1.4577,1.5167,-0.9628,5.8254,29,0.1951,8578,3.9237,27.0389
lg,1625424646480844785,0,-0.0901,-0.2102,1.0178,801,0.7324,-9.2773,5.8594,108,1.4577,1.5157,-1.121,5.1702,30,0.1951,24891,3.9237,27.2467
lg,1625424646480920653,0,-0.1245,-0.1997,1.0295,802,1.4038,-5.188,5.249,108,1.4597,1.5167,-1.0349,4.5946,30,0.1951,9532,3.9237,27.4489
lg,1625424646480941186,0,-0.1279,-0.1875,1.0068,803,1.8921,-4.6997,10.0098,108,1.4587,1.5157,-0.9315,4.0744,30,0.1951,8722,3.9237,27.8431
lg,1625424646480991406,0,-0.1472,-0.2185,1.0276,804,1.8311,-3.418,7.8125,108,1.4607,1.5167,-0.7214,3.5431,30,0.1961,8494,3.9237,28.1539
lg,1625424646481065310,0,-0.1711,-0.1968,1.0278,805,2.3193,-0.7324,8.8501,108,1.4607,1.5167,-0.3774,3.0752,30,0.1971,14765,3.9237,28.511
lg,1625424646481110508,0,-0.1643,-0.1882,1.0303,806,2.2583,-1.5869,13.6719,108,1.4607,1.5167,-0.1018,2.6417,30,0.1971,8022,3.9237,29.056
lg,1625424646481130670,0,-0.1567,-0.2061,1.0325,807,2.0752,-1.4038,12.3901,108,1.4617,1.5167,0.1852,2.1621,30,0.1971,8071,3.9237,29.5714
lg,1625424646481148702,0,-0.1584,-0.2031,1.0435,808,1.0986,1.5259,10.437,108,1.4617,1.5157,0.5593,1.6965,30,0.1961,8134,3.9237,29.9877
lg,1625424646481169550,0,-0.1536,-0.2271,1.0281,809,0.7935,1.709,11.9019,108,1.4627,1.5157,0.9214,1.1851,30,0.1971,8115,3.9237,30.4585
lg,1625424646481187321,0,-0.1487,-0.2412,1.0251,810,0.9155,3.8452,12.207,108,1.4617,1.5157,1.3486,0.6713,30,0.1971,8578,3.9237,30.9389
lg,1625424646481205723,0,-0.1777,-0.2415,1.0215,811,1.5259,5.127,10.498,108,1.4627,1.5157,1.8769,0.2036,30,0.1961,8235,3.9237,31.3464
lg,1625424646481224625,0,-0.1582,-0.2205,1.0237,812,2.9907,8.2397,10.9863,108,1.4637,1.5157,2.4715,-0.141,30,0.1961,8438,3.9237,31.7696
lg,1625424646481242379,0,-0.1843,-0.217,1.0195,813,3.1128,11.5967,11.4136,108,1.4647,1.5157,3.2358,-0.4545,30,0.1971,8692,3.9237,32.2034
lg,1625424646481261003,0,-0.1982,-0.2065,1.0193,814,2.9297,10.3149,11.4746,108,1.4637,1.5157,3.9755,-0.741,30,0.1971,8160,3.9237,32.6199
lg,1625424646481278682,0,-0.2307,-0.1719,1.0044,815,1.77,5.7373,13.7329,108,1.4637,1.5147,4.5595,-0.9754,30,0.1961,8404,3.9237,33.1423
lg,1625424646481296027,0,-0.2153,-0.1853,1.0149,816,-0.5493,0.3662,15.3198,108,1.4647,1.5157,4.8728,-1.3094,30,0.1971,8840,3.9237,33.7268
lg,1625424646481314003,0,-0.1992,-0.1902,1.0154,817,-2.1973,-6.4697,16.3574,108,1.4647,1.5157,4.8721,-1.7016,30,0.1961,8243,3.9237,34.3583
lg,1625424646481334814,0,-0.1982,-0.1931,1.0178,818,-2.4414,-8.4839,17.7612,108,1.4637,1.5137,4.7716,-2.0617,30,0.1961,8846,3.9237,35.0537
lg,1625424646481380475,0,-0.1775,-0.1936,1.0222,819,-2.9907,-9.5215,18.6768,108,1.4657,1.5147,4.6167,-2.4558,30,0.1971,8670,3.9237,35.7888
lg,1625424646481402324,0,-0.1743,-0.2102,1.0085,820,-3.3569,-6.8359,18.9819,108,1.4657,1.5157,4.5781,-2.8903,29,0.1971,8391,3.9237,36.5323
lg,1625424646481419410,0,-0.1829,-0.2112,1.0247,821,-3.1738,-5.7373,18.6768,108,1.4607,1.5157,4.6017,-3.2965,29,0.1971,8877,3.9237,37.265
lg,1625424646481437423,0,-0.2058,-0.2205,1.0244,822,-2.8687,-5.249,18.4326,108,1.4657,1.5177,4.6958,-3.6927,29,0.1971,10306,3.9237,37.9876
lg,1625424646481456714,0,-0.1907,-0.2244,1.0166,823,-2.5635,-5.0049,18.7988,108,1.4657,1.5147,4.7483,-4.0748,30,0.1971,8435,3.9237,38.7057
lg,1625424646481476135,0,-0.186,-0.2083,1.0308,824,-2.6855,-6.1646,17.6392,108,1.4657,1.5117,4.7645,-4.4074,30,0.1971,8463,3.9237,39.4056
lg,1625424646481494945,0,-0.199,-0.2009,1.0244,825,-2.3804,-13.4888,16.6016,108,1.4647,1.5137,4.5193,-4.7044,30,0.1971,12541,3.9237,40.0906
lg,1625424646481526244,0,-0.2065,-0.1951,1.0254,826,-2.5024,-16.5405,16.4185,108,1.4667,1.5137,4.1368,-5.0052,30,0.1971,8738,3.9237,40.7824
lg,1625424646481550688,0,-0.1743,-0.199,1.0427,827,-3.479,-22.8271,16.4185,108,1.4657,1.5127,3.4944,-5.3201,29,0.1981,9254,3.9237,41.5036
lg,1625424646481568200,0,-0.1392,-0.2256,1.0437,828,-4.1504,-25.0854,15.0146,108,1.4657,1.5147,2.7124,-5.7163,29,0.1981,8731,3.9237,42.1821
lg,1625424646481585582,0,-0.0864,-0.2441,1.0359,829,-3.1128,-22.4609,16.3574,108,1.4667,1.5137,1.9657,-6.1057,29,0.1981,8543,3.9237,42.912
lg,1625424646481605578,0,-0.0581,-0.2383,1.0276,830,-1.6479,-10.6201,15.686,108,1.4657,1.5137,1.6604,-6.4227,29,0.1981,9083,3.9237,43.573
lg,1625424646481625648,0,-0.0728,-0.2407,1.0129,831,-0.6714,-2.9297,14.2212,108,1.4667,1.5147,1.9833,-6.6719,29,0.1981,9112,3.9237,44.1376
lg,1625424646481644105,0,-0.1245,-0.2239,1.0417,832,0.7935,6.5918,14.5264,108,1.4657,1.5137,2.4975,-6.8316,29,0.1981,8627,3.9237,44.6763
lg,1625424646835694895,0,-0.1543,-0.2278,1.0261,833,0,4.4556,15.9302,108,1.4667,1.5137,2.9737,-7.0274,30,0.1971,24080,3.9237,45.2912
lg,1625424646835788090,0,-0.1707,-0.2227,1.0208,834,-0.2441,4.0894,15.9912,108,1.4657,1.5137,3.4634,-7.207,30,0.1971,8847,3.9237,45.8955
lg,1625424646835809883,0,-0.176,-0.2126,1.0173,835,-0.1221,4.2725,15.3198,108,1.4667,1.5137,3.9525,-7.3517,30,0.1981,15215,3.9237,46.4718
lg,1625424646835829786,0,-0.1873,-0.2124,1.0037,836,0.1831,3.2959,14.5874,108,1.4667,1.5137,4.41,-7.4807,30,0.1981,8712,3.9237,47.0223
lg,1625424646835848540,0,-0.1899,-0.2109,1.0217,837,0.6104,1.1597,15.1367,108,1.4667,1.5137,4.7679,-7.5701,30,0.1981,8031,3.9237,47.6057
lg,1625424646835867072,0,-0.2124,-0.2104,1.0154,838,0.1221,-0.6714,16.4795,108,1.4667,1.5137,5.0403,-7.6744,30,0.1981,9669,3.9237,48.232
lg,1625424646835886104,0,-0.1963,-0.2056,1.0247,839,0.2441,-4.2725,15.9302,108,1.4667,1.5137,5.1773,-7.7474,30,0.1981,7941,3.9237,48.8764
lg,1625424646835906766,0,-0.1765,-0.1917,1.0054,840,0.1831,-7.5073,15.9912,108,1.4667,1.5137,5.1484,-7.7963,29,0.1981,8494,3.9237,49.543
lg,1625424646835924890,0,-0.1775,-0.2004,1.0256,841,-0.2441,-9.4604,16.4795,108,1.4667,1.5137,5.0412,-7.8689,29,0.1981,8540,3.9237,50.2391
lg,1625424646835942792,0,-0.1809,-0.2041,1.0212,842,-1.0376,-8.728,15.7471,108,1.4667,1.5137,4.9455,-7.9662,29,0.1981,8731,3.9237,50.9035
lg,1625424646835961805,0,-0.1599,-0.1951,1.0217,843,-1.2817,-9.5215,17.395,108,1.4657,1.5127,4.8157,-8.0634,29,0.1981,8607,3.9237,51.6389
lg,1625424646836130145,0,-0.1377,-0.2078,1.0383,844,-2.1362,-9.8267,16.4795,108,1.4657,1.5137,4.6229,-8.216,29,0.1981,8759,3.9237,52.3389
lg,1625424646836154051,0,-0.1345,-0.2244,1.0168,845,-2.3804,-7.6294,16.3574,108,1.4667,1.5137,4.5242,-8.4198,29,0.1981,8138,3.9237,53.0193
lg,1625424646836215613,0,-0.1331,-0.2212,1.0303,846,-2.3804,-6.2256,16.6626,108,1.4667,1.5127,4.4824,-8.6032,29,0.1991,8468,3.9237,53.706
lg,1625424646836238147,0,-0.1438,-0.2053,1.0168,847,-2.4414,-2.3804,16.9067,108,1.4667,1.5137,4.6913,-8.7505,29,0.1981,10989,3.9237,54.3245
lg,1625424646836307325,0,-0.1584,-0.2183,1.0352,848,-2.7466,1.5259,18.3716,108,1.4657,1.5137,5.0147,-8.9208,29,0.1971,8263,3.9237,55.0336
lg,1625424646836329044,0,-0.1499,-0.2214,1.0298,849,-2.5024,2.0142,17.7002,108,1.4677,1.5127,5.3258,-9.0825,29,0.1981,8816,3.9237,55.7119
lg,1625424646836350615,0,-0.1707,-0.2356,1.0291,850,-2.6245,1.77,19.3481,108,1.4667,1.5137,5.6704,-9.2619,29,0.1981,8585,3.9237,56.454
lg,1625424646836372501,0,-0.1738,-0.2212,1.0144,851,-2.5635,2.2583,18.3105,108,1.4667,1.5127,6.051,-9.4218,30,0.1981,9436,3.9237,57.1403
lg,1625424646836391403,0,-0.1604,-0.2402,1.0178,852,-2.1362,1.8921,19.5923,108,1.4667,1.5127,6.3592,-9.5735,30,0.1981,8292,3.9237,57.8891
lg,1625424646836411936,0,-0.1885,-0.2288,1.0159,853,-1.9531,1.6479,20.813,108,1.4667,1.5127,6.7161,-9.6782,30,0.1981,8680,3.9237,58.6907
lg,1625424646836430004,0,-0.1831,-0.2249,1.0176,854,-1.6479,1.8311,18.1885,108,1.4667,1.5127,7.038,-9.7656,30,0.1981,8363,3.9237,59.3878
lg,1625424646836448665,0,-0.1785,-0.2214,1.0166,855,-1.4648,0.9766,15.9912,108,1.4667,1.5117,7.2849,-9.814,29,0.1971,8736,3.9237,60.1326
lg,1625424646836467271,0,-0.1924,-0.2163,1.0156,856,-0.7935,0.7324,17.0898,108,1.4657,1.5127,7.5301,-9.8559,29,0.1981,8591,3.9237,60.7943
lg,1625424646836485876,0,-0.1794,-0.2153,1.0383,857,-1.0376,-0.061,16.7847,108,1.4657,1.5117,7.723,-9.8792,29,0.1981,9345,3.9237,61.4528
lg,1625424646836504334,0,-0.1787,-0.2183,1.0225,858,-0.7324,-0.6104,17.0898,108,1.4667,1.5117,7.8928,-9.8983,29,0.1981,8996,3.9237,62.1255
