name,time,activity,ax,ay,az,batch_val,gx,gy,gz,ibat,index,middle,pitch,roll,temp,thumb,ts,vbat,yaw
rg,1625399193871560576,1,0.2119,-0.4502,0.9355,1,3.479,-22.3999,17.7002,66,1.1546,0.9645,-13.331,-30.9984,24,0.8324,20020,4.0491,117.901
rg,1625399193871620538,1,0.2402,-0.4412,0.928,2,2.2583,-18.5547,18.7378,66,1.1546,0.9645,-13.5715,-30.9246,24,0.8334,8511,4.0491,118.9018
rg,1625399193871643778,1,0.2415,-0.4556,0.9329,3,0.7935,-16.6626,18.7988,66,1.1546,0.9645,-13.6995,-30.8999,24,0.8334,7931,4.0491,119.8635
rg,1625399193871665018,1,0.2209,-0.4526,0.9482,4,-0.1221,-10.6812,18.8599,66,1.1546,0.9645,-13.604,-30.8927,24,0.8324,7783,4.0491,120.7024
rg,1625399193871683851,1,0.2043,-0.4705,0.9678,5,-0.7935,-8.728,19.2871,66,1.1506,0.9635,-13.3919,-30.9196,24,0.8314,9395,4.0491,121.5186
rg,1625399193871703239,1,0.1968,-0.4587,0.9478,6,-1.8921,-8.667,19.7754,66,1.1536,0.9635,-13.1689,-30.9857,24,0.8324,7708,4.0491,122.3494
rg,1625399193871723016,1,0.1755,-0.4697,0.9551,7,-2.0142,-9.5825,20.1416,66,1.1536,0.9635,-12.9289,-31.0715,24,0.8324,7765,4.0491,123.215
rg,1625399193871742497,1,0.1597,-0.4663,0.9517,8,-2.3193,-12.0239,20.1416,66,1.1546,0.9645,-12.7487,-31.1704,24,0.8324,8029,4.0491,124.1307
rg,1625399193871768330,1,0.1553,-0.4563,0.9512,9,-2.0142,-14.9536,18.7378,66,1.1536,0.9645,-12.696,-31.2349,24,0.8324,7789,4.0491,125.0548
rg,1625399193871787014,1,0.1577,-0.4626,0.9587,10,-2.3193,-16.7236,18.6157,66,1.1526,0.9615,-12.709,-31.3213,24,0.8314,7986,4.0491,126.0133
rg,1625399193871808495,1,0.1721,-0.4641,0.927,11,-2.1973,-16.6016,17.9443,66,1.1546,0.9635,-12.7686,-31.4284,24,0.8324,7818,4.0491,126.9529
rg,1625399193871827217,1,0.1697,-0.4583,0.9121,12,-2.2583,-16.9067,18.1274,66,1.1546,0.9635,-12.8104,-31.5418,24,0.8324,8019,4.0491,127.8777
rg,1625399193871845068,1,0.1814,-0.4495,0.9189,13,-3.3569,-15.0146,17.5171,66,1.1526,0.9635,-12.8428,-31.6562,24,0.8314,7887,4.0491,128.7622
rg,1625399193871863993,1,0.1753,-0.4578,0.8918,14,-3.3569,-11.9019,17.5781,66,1.1546,0.9655,-12.7591,-31.7954,24,0.8314,8044,4.0491,129.5905
rg,1625399193871881530,1,0.188,-0.4607,0.9116,15,-3.7231,-11.4136,17.0898,66,1.1546,0.9645,-12.6507,-31.9654,24,0.8314,7881,4.0491,130.4473
rg,1625399193871930269,1,0.168,-0.4778,0.9465,16,-3.479,-11.7188,17.7002,66,1.1536,0.9645,-12.5256,-32.0778,24,0.8314,8090,4.0491,131.2696
rg,1625399193871958009,1,0.1812,-0.4875,0.9294,17,-2.6245,-13.916,17.7612,66,1.1546,0.9655,-12.5073,-32.1977,24,0.8314,8080,4.0491,132.1492
rg,1625399193871977194,1,0.1729,-0.4849,0.9277,18,-2.3193,-15.9912,18.5547,66,1.1536,0.9645,-12.5581,-32.28,24,0.8314,8165,4.0491,133.1161
rg,1625399193871995027,1,0.1743,-0.4832,0.9351,19,-0.7935,-18.5547,18.2495,66,1.1526,0.9645,-12.6665,-32.3319,24,0.8314,8034,4.0491,134.1102
rg,1625399193872012193,1,0.1807,-0.4763,0.9265,20,0.6714,-20.6909,17.9443,66,1.1546,0.9655,-12.8658,-32.3296,24,0.8314,8157,4.0491,135.1397
rg,1625399193872030878,1,0.1987,-0.4888,0.9307,21,0.9766,-21.6675,18.9209,66,1.1546,0.9655,-13.0711,-32.3425,24,0.8314,8030,4.0491,136.2202
rg,1625399193872048488,1,0.2195,-0.4751,0.9443,22,1.3428,-20.0806,19.5312,66,1.1526,0.9645,-13.2753,-32.3115,24,0.8304,8067,4.0491,137.287
rg,1625399193872066784,1,0.2251,-0.4792,0.9265,23,1.8921,-17.7612,20.3857,66,1.1546,0.9645,-13.3927,-32.2838,24,0.8274,8194,4.0491,138.3384
rg,1625399193872084746,1,0.2334,-0.4666,0.9534,24,1.9531,-11.4746,21.7285,66,1.1546,0.9645,-13.2763,-32.1834,24,0.8304,8262,4.0491,139.286
rg,1625399193872101894,1,0.2192,-0.4753,0.9492,25,1.2207,-5.7373,22.583,66,1.1536,0.9645,-12.9249,-32.1106,24,0.8304,11234,4.0491,140.143
rg,1625399193872119616,1,-0.1982,-1.7185,1.2053,26,-96.4966,135.6812,13.9771,178,0.7944,0.5092,-9.2279,-33.8623,25,0.7624,14423,3.9567,138.7251
rg,1625399193872139263,1,-0.1248,-1.4094,0.8682,27,27.4048,38.5132,0.7324,178,0.8024,0.5353,-7.4368,-33.588,25,0.7634,8801,3.9567,138.0372
rg,1625399193872157152,1,0.1882,-0.9009,1.0295,28,72.3267,10.437,7.0801,178,0.8274,0.5633,-6.9517,-30.9969,25,0.7664,8243,3.9567,138.0904
rg,1625399193872174910,1,0.2856,-0.9126,0.6184,29,80.9937,10.437,8.9722,178,0.8684,0.5923,-6.7368,-28.7026,25,0.7684,8547,3.9567,138.2994
rg,1625399193872192669,1,0.1665,-0.8699,0.3884,30,94.3604,17.2119,-5.3711,178,0.9104,0.6183,-6.4084,-26.2349,25,0.7694,9882,3.9567,137.9432
rg,1625399193872210446,1,-0.1287,-0.5127,0.4985,31,104.5532,32.7759,-7.6294,178,0.9395,0.6363,-4.482,-23.0257,25,0.7704,8734,3.9567,137.2327
rg,1625399193872246297,1,-0.2222,-0.3899,0.5112,32,67.8101,11.9629,2.2583,178,0.9425,0.6453,-3.1059,-20.8423,25,0.7714,8609,3.9567,137.1969
rg,1625399194027019784,1,0.4929,-1.0122,0.7703,33,-101.5625,-186.0962,44.9829,178,0.8234,0.6613,-9.8754,-26.5421,25,0.7714,24517,3.9567,141.9546
rg,1625399194027061968,1,0.6787,-1.1313,0.4961,34,-85.022,-178.0396,63.6597,178,0.7894,0.6013,-15.5808,-32.5319,25,0.7714,9222,3.9567,148.0837
rg,1625399194027082949,1,0.7163,-1.1021,0.4143,35,-62.0728,-159.79,59.9976,178,0.7804,0.5133,-20.1779,-38.0016,25,0.7704,7852,3.9567,154.3709
rg,1625399194027102652,1,0.866,-0.874,0.585,36,-8.8501,-86.853,51.5137,178,0.7854,0.4782,-22.3219,-40.4126,25,0.7714,8063,3.9567,158.6609
rg,1625399194027122929,1,0.8022,-0.8479,0.3984,37,35.8887,23.3154,50.6592,178,0.7864,0.4642,-21.07,-40.1138,25,0.7714,7802,3.9567,159.9583
rg,1625399194027142410,1,0.6108,-0.7234,0.2737,38,32.5928,71.9604,28.6255,178,0.7864,0.4562,-18.8877,-39.3768,25,0.7694,7768,3.9567,159.2542
rg,1625399194027161539,1,0.1396,-0.4749,0.1492,39,47.5464,140.2588,-11.1084,178,0.7864,0.4582,-14.7861,-37.5587,25,0.7674,7709,3.9567,155.6429
rg,1625399194027181650,1,-0.1089,-0.2917,0.2805,40,16.4795,201.9653,9.2773,178,0.7884,0.4642,-7.0286,-36.3516,25,0.7664,7993,3.9567,151.0949
rg,1625399194027200316,1,-0.1597,-0.3276,0.4319,41,-17.7612,191.1621,23.6816,178,0.7884,0.4752,0.5383,-36.8669,25,0.7654,7801,3.9567,147.2864
rg,1625399194027219241,1,-0.2959,-0.9092,1.0227,42,-75.4395,93.3228,7.0801,178,0.7884,0.4832,4.0772,-40.1333,25,0.7644,7838,3.9567,145.1642
rg,1625399194027237019,1,-0.3455,-1.3113,1.1638,43,-67.1997,39.4287,-0.7324,178,0.7874,0.5042,4.0976,-42.0306,25,0.7654,7747,3.9567,145.4459
rg,1625399194027255092,1,-0.0979,-1.303,0.8596,44,1.5869,-38.5742,8.2397,178,0.7904,0.5323,3.1667,-42.4461,25,0.7664,8467,3.9567,146.6913
rg,1625399194027273944,1,0.2312,-0.9814,0.896,45,42.4194,-41.2598,13.916,178,0.8114,0.5603,1.7986,-40.8796,25,0.7704,8550,3.9567,148.1885
rg,1625399194027292054,1,0.3699,-0.9512,0.6777,46,70.1904,-8.4839,2.0752,178,0.8634,0.6053,0.8421,-38.5748,25,0.7744,11210,3.9567,148.4369
rg,1625399194027310387,1,0.3186,-0.9888,0.5159,47,88.2568,20.2026,-14.8926,178,0.9124,0.6283,0.4696,-35.9408,25,0.7754,8466,3.9567,147.4438
rg,1625399194027346571,1,-0.0168,-0.7002,0.4624,48,116.8823,57.1899,-19.8364,178,0.9515,0.6463,1.9403,-32.111,25,0.7754,8033,3.9567,145.4989
rg,1625399194027366848,1,-0.189,-0.5098,0.5278,49,111.9995,66.7114,-13.3667,178,0.9745,0.6563,4.4592,-28.1908,25,0.7764,7971,3.9567,143.6942
rg,1625399194027384607,1,-0.384,-0.4512,0.4097,50,35.8887,-17.0288,6.5918,178,0.9665,0.6643,5.0463,-27.3525,25,0.7774,8144,3.9567,144.207
rg,1625399194027402181,1,-0.0803,-0.6411,0.6145,51,-97.7783,-161.9263,21.1182,178,0.9144,0.6683,-0.1261,-31.8065,24,0.7754,7929,3.9567,148.0777
rg,1625399194027420069,1,0.1414,-0.7837,0.824,52,-113.0371,-193.6646,20.9961,178,0.8574,0.6753,-6.584,-37.3524,24,0.7744,8216,3.9567,153.1983
rg,1625399194027437569,1,0.519,-1.0649,0.6997,53,-101.3184,-198.9136,49.4385,178,0.8084,0.6323,-11.9559,-43.1804,24,0.7714,8050,3.9567,160.039
rg,1625399194027455661,1,0.7603,-1.2102,0.6304,54,-64.1479,-187.9272,63.1714,178,0.7814,0.5253,-16.05,-48.1936,24,0.7704,8286,3.9567,167.5629
rg,1625399194027473420,1,0.8147,-1.1208,0.5452,55,-34.1797,-163.8794,59.021,178,0.7854,0.4702,-18.8033,-49.5792,24,0.7714,8130,3.9567,-187.1691
rg,1625399194027491086,1,0.8547,-0.9902,0.4773,56,70.6177,-64.9414,30.9448,178,0.7864,0.4482,-20.325,-48.2159,24,0.7714,8430,3.9567,-184.0844
rg,1625399194027508752,1,0.3308,-0.4785,0.1814,57,73.6084,47.7295,15.564,178,0.7874,0.4392,-18.6409,-44.4859,24,0.7694,11752,3.9567,-187.5113
rg,1625399194027526937,1,0.0017,-0.1775,0.1504,58,91.98,131.958,-28.5645,178,0.7874,0.4432,-14.1903,-40.0702,25,0.7674,9818,3.9567,167.9275
rg,1625399194027544825,1,-0.0823,-0.1118,0.219,59,54.2603,158.3862,-1.9531,178,0.7884,0.4522,-8.0858,-36.626,25,0.7664,8300,3.9567,163.772
rg,1625399194027576009,1,-0.1265,-0.1917,0.4399,60,-51.3306,133.5449,24.1699,178,0.7884,0.4632,-2.7938,-38.2417,25,0.7654,11111,3.9567,161.2415
rg,1625399194027594083,1,0.0022,-0.9463,1.2954,61,-152.3438,54.2603,9.6436,178,0.7884,0.4742,-0.8112,-44.186,25,0.7654,8485,3.9567,160.0888
rg,1625399194027611897,1,-0.1865,-1.5769,0.8137,62,-66.7114,8.1787,4.3335,178,0.7884,0.4932,-0.1927,-47.5541,25,0.7654,8667,3.9567,159.9767
rg,1625399194027629878,1,0.0676,-1.1995,0.8909,63,20.3857,-8.3008,5.4932,178,0.7964,0.5133,-0.3505,-46.9622,25,0.7694,8382,3.9567,160.3698
rg,1625399194027647878,1,0.1616,-0.9827,1.0349,64,36.5601,-2.9907,3.7842,178,0.8164,0.5423,-0.639,-45.3046,25,0.7734,8398,3.9567,160.5543
rg,1625399194455886122,1,0.3704,-1.075,0.6616,65,55.9692,-29.4189,-0.3662,178,0.9134,0.6053,-1.8996,-42.9648,24,0.7794,22291,3.9567,160.9811
rg,1625399194455935769,1,0.2742,-0.9045,0.3428,66,98.938,9.6436,-2.6855,178,0.9495,0.6263,-1.2277,-39.4224,24,0.7804,8743,3.9567,159.888
rg,1625399194455956491,1,-0.0012,-0.4548,0.4827,67,90.1489,52.5513,0,178,0.9625,0.6383,0.4793,-35.9624,24,0.7824,8685,3.9567,158.6049
rg,1625399194455976935,1,-0.1104,-0.5894,0.491,68,-81.2378,-76.6602,24.7803,178,0.9054,0.6493,-1.0167,-39.7578,24,0.7834,14426,3.9567,161.2569
rg,1625399194455996064,1,0.2327,-0.8645,0.7749,69,-112.3047,-141.9678,32.3486,178,0.8264,0.6593,-4.7274,-44.7931,24,0.7804,8702,3.9567,166.0611
rg,1625399194456015119,1,0.5049,-1.1345,0.6851,70,-115.7227,-162.7197,61.2793,178,0.7844,0.6023,-7.8971,-50.6396,25,0.7804,7991,3.9567,-187.371
rg,1625399194456033396,1,0.6323,-1.2192,0.543,71,-98.2056,-163.9404,61.8896,178,0.7624,0.4992,-10.5551,-54.8004,25,0.7774,7897,3.9567,-180.5726
rg,1625399194456052192,1,0.7354,-1.1086,0.5828,72,-24.9023,-150.6348,58.2886,178,0.7684,0.4582,-12.7311,-57.3442,25,0.7804,7822,3.9567,-174.081
rg,1625399194456069821,1,0.8411,-1.0923,0.4456,73,86.6699,-69.0918,45.9595,178,0.7694,0.4422,-13.6164,-54.9915,25,0.7794,7933,3.9567,-170.6209
rg,1625399194456092209,1,0.8699,-0.9568,0.4106,74,86.731,-20.5078,45.4102,178,0.7694,0.4292,-13.0492,-51.856,25,0.7764,7867,3.9567,-171.7144
rg,1625399194456110412,1,0.1399,-0.4182,0.1494,75,92.5293,98.0225,-21.7285,178,0.7724,0.4292,-10.7781,-47.3983,25,0.7754,9265,3.9567,-176.5337
rg,1625399194456128319,1,0.0005,-0.23,0.1704,76,105.5298,150.6348,-29.7852,178,0.7714,0.4342,-6.9705,-42.6276,25,0.7734,7941,3.9567,-181.6364
rg,1625399194456146523,1,-0.2163,-0.1025,0.1882,77,73.2422,175.7812,-14.8315,178,0.7724,0.4492,-0.2864,-38.9986,25,0.7724,8055,3.9567,-186.6751
rg,1625399194456164800,1,-0.2605,-0.1455,0.3076,78,22.4609,160.4004,4.5776,178,0.7704,0.4642,5.1336,-40.2018,24,0.7714,8169,3.9567,170.6038
rg,1625399194456183429,1,-0.2659,-0.3247,0.4668,79,-111.3892,78.4302,6.4697,178,0.7684,0.4852,8.3799,-44.6727,24,0.7704,7925,3.9567,168.6504
rg,1625399194456202836,1,-0.1387,-1.4539,1.8716,80,-185.9741,17.2119,-1.5869,178,0.7704,0.5032,8.5922,-51.8839,24,0.7724,8148,3.9567,168.1418
rg,1625399194456221280,1,-0.1538,-1.6426,0.7068,81,-111.3892,0.7935,3.418,178,0.7834,0.5273,8.1006,-53.1204,24,0.7764,8027,3.9567,169.4304
rg,1625399194456239001,1,0.2871,-1.1431,1.0088,82,54.8706,-32.5928,12.146,178,0.8104,0.5533,6.9518,-50.567,25,0.7794,12038,3.9567,170.7766
rg,1625399194456256445,1,0.3643,-0.8,0.6711,83,86.5479,-27.9541,5.8594,178,0.8504,0.5743,5.5673,-46.1665,25,0.7814,8216,3.9567,-188.4133
rg,1625399194456274000,1,0.3381,-0.7078,0.4243,84,105.896,-13.7939,8.2397,178,0.8974,0.5973,4.3505,-42.3527,25,0.7834,8957,3.9567,-187.8729
rg,1625399194456291741,1,0.198,-0.5364,0.3982,85,73.9136,25.2075,-5.3101,178,0.9355,0.6153,4.1614,-39.8761,25,0.7834,8252,3.9567,171.2499
rg,1625399194456338480,1,-0.0891,-0.5291,0.5054,86,17.5171,32.3486,0.2441,178,0.9455,0.6293,5.2684,-39.4884,25,0.7854,8625,3.9567,170.409
rg,1625399194456360905,1,-0.127,-0.6711,0.5459,87,-23.0103,-9.7656,10.376,178,0.9134,0.6383,3.9752,-42.5837,25,0.7874,8232,3.9567,-187.2041
rg,1625399194456379738,1,0.0461,-0.7402,0.6958,88,-100.0366,-115.4175,24.5361,178,0.8484,0.6453,1.135,-46.5527,25,0.7864,8689,3.9567,-183.2627
rg,1625399194456397201,1,0.3521,-0.8586,0.7554,89,-112.1826,-166.5039,36.377,178,0.7914,0.6473,-2.8292,-51.1898,24,0.7844,8643,3.9567,-177.2682
rg,1625399194456416496,1,0.561,-1.1125,0.5627,90,-117.4927,-191.1621,58.8989,178,0.7584,0.5783,-6.2071,-56.9036,24,0.7814,8768,3.9567,-169.6263
rg,1625399194456434200,1,0.7827,-1.1304,0.6653,91,-63.9648,-157.1045,53.2837,178,0.7644,0.4932,-8.5767,-60.374,24,0.7844,9382,3.9567,-163.0674
rg,1625399194456452125,1,0.8267,-1.312,0.5894,92,17.6392,-109.8022,51.8188,178,0.7644,0.4652,-8.404,-58.9546,24,0.7854,8318,3.9567,-159.0045
rg,1625399194456470551,1,0.9424,-1.072,0.3994,93,67.749,6.1035,59.6924,178,0.7644,0.4552,-7.4326,-56.7102,25,0.7834,8451,3.9567,-157.9166
rg,1625399194456489198,1,0.3281,-0.5562,0.2339,94,98.6938,120.9106,-26.3062,178,0.7644,0.4562,-6.3331,-52.5714,25,0.7814,9989,3.9567,-162.4899
rg,1625399194456507512,1,-0.0767,-0.1675,0.177,95,105.6519,196.0449,-33.6304,178,0.7644,0.4672,-1.4533,-47.5419,25,0.7794,8435,3.9567,-169.3686
rg,1625399194456539937,1,-0.2703,-0.1074,0.28,96,27.5269,223.3887,-0.3052,178,0.7634,0.4812,6.17,-45.9527,25,0.7764,8799,3.9567,-175.8766
rg,1625399194815138500,1,-0.5503,-1.4871,1.5032,97,-140.0757,-21.8506,-11.5356,178,0.7614,0.5283,5.5811,-51.4364,25,0.7774,25165,3.9567,-175.5297
rg,1625399194815170463,1,-0.095,-1.3191,0.7083,98,-10.7422,-96.1304,16.7847,178,0.7694,0.5503,3.6659,-51.9832,25,0.7804,8853,3.9567,-172.1196
rg,1625399194815190851,1,0.3899,-1.0276,0.9456,99,24.4751,-90.8813,23.4375,178,0.7904,0.5683,1.3914,-50.6679,25,0.7824,8336,3.9567,-168.6888
rg,1625399194815210610,1,0.4829,-0.9658,0.6809,100,48.8281,-74.3408,8.606,178,0.8274,0.5883,-0.7513,-48.0339,25,0.7884,8185,3.9567,-167.2127
rg,1625399194815229776,1,0.533,-0.9878,0.5208,101,78.6133,-31.0059,2.3804,178,0.8744,0.6073,-2.477,-45.4153,25,0.7904,8029,3.9567,-166.2603
rg,1625399194815248071,1,0.4041,-0.8459,0.3364,102,100.1587,31.0669,-13.9771,178,0.9164,0.6253,-2.8077,-42.1585,25,0.7904,7994,3.9567,-167.517
rg,1625399194815265849,1,-0.0378,-0.5044,0.4233,103,100.708,93.2617,-20.5078,178,0.9385,0.6393,-0.2674,-38.3591,25,0.7904,8505,3.9567,-170.5336
rg,1625399194815283719,1,-0.2458,-0.3867,0.4822,104,83.1909,91.5527,-15.3198,178,0.9485,0.6443,2.5629,-36.3943,25,0.7924,8900,3.9567,-172.0889
rg,1625399194815301126,1,-0.5278,-0.4448,0.3354,105,12.0239,-12.6953,5.4932,178,0.9525,0.6503,3.7727,-36.3523,25,0.7934,8690,3.9567,-171.6269
rg,1625399194815318421,1,-0.1445,-0.6204,0.5588,106,-108.2153,-196.9604,46.3257,178,0.8904,0.6603,-0.946,-40.9566,24,0.7944,9396,3.9567,-165.3024
rg,1625399194815335680,1,0.7581,-1.2766,0.7417,107,-151.6113,-290.1611,45.0439,178,0.8014,0.6663,-8.5387,-47.5134,24,0.7914,11897,3.9567,-155.7835
rg,1625399194815353680,1,0.8828,-1.4119,0.3447,108,-79.2847,-195.9229,67.0166,178,0.7534,0.5473,-12.3547,-53.0425,24,0.7904,10326,3.9567,-147.7424
rg,1625399194815370790,1,0.8423,-1.2568,0.3438,109,-41.8091,-137.8174,49.3164,178,0.7534,0.4642,-14.7016,-56.7828,24,0.7934,8209,3.9567,-141.7589
rg,1625399194815387605,1,0.6843,-0.8572,0.4131,110,101.6235,-9.8267,19.165,178,0.7534,0.4442,-15.115,-53.16,25,0.7934,8420,3.9567,-140.9405
rg,1625399194815404530,1,0.6814,-0.532,0.2942,111,81.665,41.1987,24.1699,178,0.7544,0.4352,-14.5852,-49.9137,25,0.7914,8238,3.9567,-141.6443
rg,1625399194815421418,1,0.4031,-0.4658,0.1831,112,69.7021,84.7168,-19.043,178,0.7544,0.4372,-13.3728,-47.0982,25,0.7894,8259,3.9567,-145.8967
rg,1625399194815438270,1,0.0798,-0.3386,0.1206,113,50.2319,131.5918,-37.6587,178,0.7554,0.4452,-10.8317,-44.9423,25,0.7874,9309,3.9567,-150.6371
rg,1625399194815455029,1,-0.0986,-0.2773,0.2695,114,5.7983,179.3823,-16.1743,178,0.7544,0.4602,-5.2316,-43.9631,24,0.7854,8532,3.9567,-156.1639
rg,1625399194815471547,1,-0.2034,-0.4473,0.5894,115,-52.3682,138.4888,-1.77,178,0.7544,0.4722,-0.577,-45.581,24,0.7844,8702,3.9567,-160.1586
rg,1625399194815498342,1,-0.2661,-1.0972,1.1565,116,-81.0547,47.8516,-10.1929,178,0.7564,0.4922,0.8133,-48.7263,24,0.7874,8466,3.9567,-161.8517
rg,1625399194815515434,1,-0.2263,-1.3364,1.1057,117,-54.0161,8.667,-2.5024,178,0.7584,0.5163,1.0592,-51.124,25,0.7884,8312,3.9567,-162.1871
rg,1625399194815532082,1,0.0469,-1.2236,0.9141,118,15.7471,-31.3721,23.1934,178,0.7674,0.5423,0.8786,-50.5409,25,0.7914,8464,3.9567,-160.6301
rg,1625399194815548656,1,0.2529,-0.9644,0.8308,119,48.7671,-42.6636,29.48,178,0.7894,0.5623,0.1979,-48.5137,25,0.7964,8601,3.9567,-158.5752
rg,1625399194815565118,1,0.376,-0.9111,0.7124,120,80.5664,-37.4146,18.1274,178,0.8264,0.5853,-0.9956,-45.4296,25,0.8014,8748,3.9567,-157.0073
rg,1625399194815581525,1,0.3569,-0.8523,0.4509,121,92.1021,-28.9917,17.2119,178,0.8774,0.6073,-1.7493,-42.0549,25,0.8024,8685,3.9567,-156.213
rg,1625399194815597784,1,0.2278,-0.762,0.4417,122,101.2573,13.1836,6.1646,178,0.9124,0.6243,-1.6944,-38.6759,25,0.8024,8429,3.9567,-156.3636
rg,1625399194815614191,1,-0.0977,-0.5251,0.6128,123,79.4067,33.5693,-1.0986,178,0.9305,0.6373,-0.3172,-35.5602,25,0.8024,8547,3.9567,-157.1988
rg,1625399194815630746,1,-0.2395,-0.5139,0.4939,124,10.5591,-39.1846,13.5498,178,0.9405,0.6453,-0.5375,-35.5356,25,0.8034,8438,3.9567,-155.841
rg,1625399194815647301,1,0.1299,-0.7146,0.6506,125,-79.3457,-138.6719,49.9268,178,0.9305,0.6523,-3.984,-39.3606,25,0.8044,8438,3.9567,-150.8669
rg,1625399194815664171,1,0.3411,-0.8015,0.7478,126,-104.0649,-159.4849,46.7529,178,0.8554,0.6573,-7.9784,-44.3872,25,0.8034,8463,3.9567,-145.148
rg,1625399194815680745,1,0.4722,-0.9397,0.7612,127,-112.4268,-165.5884,49.4995,178,0.7824,0.6593,-11.7048,-50.5083,25,0.8004,10396,3.9567,-138.7292
rg,1625399194815699429,1,0.6807,-1.1189,0.4172,128,-97.5342,-167.0532,79.7729,178,0.7484,0.5713,-13.7871,-56.7047,24,0.7954,8612,3.9567,-131.1149
rg,1625399195128367202,1,1.0566,-1.1086,0.3682,129,53.894,53.2227,58.1665,178,0.7474,0.4772,-11.7664,-54.8747,24,0.7904,25379,3.9567,-131.5043
rg,1625399195128408534,1,0.3408,-0.6416,0.1145,130,103.6377,160.7666,-51.3306,142,0.7464,0.4752,-10.1811,-50.3569,24,0.7854,9443,3.982,-137.8293
rg,1625399195128429089,1,0.1006,-0.366,0.093,131,118.4082,192.9321,-64.5752,142,0.7474,0.4852,-5.831,-44.7236,25,0.7814,8306,3.982,-145.248
rg,1625399195128448922,1,-0.2112,-0.1096,0.2251,132,70.4346,294.7388,-34.2407,142,0.7484,0.4922,3.422,-41.172,25,0.7784,8272,3.982,-154.2526
rg,1625399195128468069,1,-0.554,-0.2615,0.4045,133,-40.7104,270.2637,-1.4038,142,0.7474,0.5012,12.9275,-43.6287,25,0.7774,8027,3.982,-161.6582
rg,1625399195128487587,1,-0.9189,-1.0098,1.3777,134,-101.1963,186.7065,-6.8359,142,0.7484,0.5173,15.1908,-49.4637,25,0.7754,8218,3.982,-164.315
rg,1625399195128528993,1,-0.7542,-1.4087,1.4016,135,-113.9526,-29.7852,-2.6855,142,0.7524,0.5323,14.5926,-53.6038,25,0.7764,8206,3.982,-163.3778
rg,1625399195128549123,1,-0.1421,-1.1873,0.7283,136,-8.1787,-128.1128,36.7432,142,0.7614,0.5473,12.3788,-52.9182,25,0.7784,8797,3.982,-158.2983
rg,1625399195128567215,1,0.3083,-0.908,0.8643,137,19.5923,-122.3145,34.8511,142,0.7824,0.5643,9.4792,-50.9627,25,0.7834,8955,3.982,-153.4609
rg,1625399195128585455,1,0.427,-0.8716,0.7014,138,39.5508,-88.1348,9.0942,142,0.8324,0.5893,6.3571,-48.976,25,0.7914,10985,3.982,-150.5186
rg,1625399195128603991,1,0.469,-0.9243,0.5137,139,40.0391,-52.8564,-2.1362,142,0.8744,0.6113,3.7568,-47.6666,25,0.7934,10733,3.982,-149.0503
rg,1625399195128621676,1,0.1995,-0.8064,0.5352,140,44.8608,14.3433,-10.1929,142,0.9104,0.6323,3.9966,-46.2428,25,0.7934,11424,3.982,-150.0939
rg,1625399195128639139,1,-0.1204,-0.625,0.6165,141,16.2354,8.0566,0.3662,142,0.9044,0.6443,4.38,-45.5666,25,0.7964,8188,3.982,-150.3119
rg,1625399195128656638,1,0.0168,-0.6514,0.5879,142,-82.3975,-106.3232,19.4702,142,0.8534,0.6543,1.8595,-48.7372,25,0.7974,8139,3.982,-146.6575
rg,1625399195128673804,1,0.1965,-0.9021,0.7427,143,-112.1216,-135.3149,14.1602,142,0.8004,0.6563,-1.5173,-53.585,25,0.7944,8099,3.982,-141.7474
rg,1625399195128691248,1,0.3396,-1.1108,0.6394,144,-118.5913,-158.8745,42.5415,142,0.7564,0.5863,-3.9864,-58.8853,25,0.7894,8268,3.982,-134.7265
rg,1625399195128708414,1,0.5413,-1.3113,0.5112,145,-81.4209,-180.2368,62.3169,142,0.7524,0.5052,-5.9383,-63.1413,25,0.7924,8365,3.982,-127.1481
rg,1625399195128725451,1,0.8528,-1.4094,0.4966,146,67.688,-138.5498,57.312,142,0.7514,0.4802,-7.3848,-61.3755,25,0.7914,8775,3.982,-121.1321
rg,1625399195128742914,1,1.0557,-1.0979,0.2834,147,137.207,-29.7241,52.124,142,0.7504,0.4632,-7.5346,-56.5666,25,0.7894,8333,3.982,-119.035
rg,1625399195128760395,1,0.3105,-0.4009,-0.064,148,206.8481,95.0928,-47.9126,142,0.7514,0.4602,-7.9719,-48.9636,25,0.7874,10569,3.982,-123.1768
rg,1625399195128777913,1,0.0156,0.0732,0.0308,149,210.2051,185.5469,-53.9551,142,0.7514,0.4712,-4.6491,-37.8695,25,0.7854,8830,3.982,-130.191
rg,1625399195128821078,1,-0.2214,0.1543,0.0054,150,163.6963,256.4087,-31.1279,142,0.7524,0.4832,6.8617,-33.6976,25,0.7834,8765,3.982,-137.428
rg,1625399195128840041,1,-0.3638,0.105,0.0276,151,-19.5923,299.0723,15.0146,142,0.7524,0.4972,19.158,-35.3098,25,0.7844,8661,3.982,-143.8028
rg,1625399195128890373,1,-0.5627,-0.3103,0.4424,152,-228.3936,156.9824,-11.7188,142,0.7534,0.5203,24.5812,-46.2049,25,0.7854,9030,3.982,-148.6911
rg,1625399195128910816,1,-0.574,-2.0029,2.925,153,-289.0625,-37.7808,-22.583,142,0.7564,0.5443,22.3851,-56.9035,25,0.7874,8668,3.982,-147.7401
rg,1625399195128927983,1,-0.2603,-1.7056,0.4646,154,5.3711,-131.1646,20.2026,142,0.7674,0.5683,19.6456,-55.5527,25,0.7914,8724,3.982,-142.8681
rg,1625399195128945315,1,0.3979,-0.936,0.9749,155,50.7202,-136.4746,28.0762,142,0.7924,0.5833,15.7096,-51.1764,25,0.7954,8543,3.982,-137.9378
rg,1625399195128962556,1,0.4995,-0.7288,1.0493,156,79.2847,-118.4692,-2.7466,142,0.8244,0.6003,11.183,-46.5666,24,0.7994,8691,3.982,-134.2281
rg,1625399195128979463,1,0.3621,-0.5969,0.3599,157,75.7446,-80.2002,4.5776,142,0.8624,0.6183,7.6565,-43.5795,24,0.8004,9264,3.982,-131.9157
rg,1625399195129007980,1,0.4263,-0.6897,0.4556,158,16.0522,-30.8228,-1.9531,142,0.8944,0.6303,5.4181,-43.2966,24,0.7994,8657,3.982,-131.1838
rg,1625399195129026665,1,0.1968,-0.8315,0.6028,159,-12.8174,-1.709,-8.3008,142,0.9044,0.6393,4.506,-44.2327,24,0.8004,9318,3.982,-131.4115
rg,1625399195129077553,1,0.1257,-0.7939,0.6052,160,-69.1528,-60.0586,16.1743,142,0.8614,0.6493,2.8424,-47.1722,24,0.8014,8954,3.982,-129.2487
rg,1625399195478869262,1,0.3816,-1.0605,0.5645,161,-100.2808,-127.5635,47.7295,142,0.7544,0.5513,0.2008,-51.5792,24,0.7944,25718,3.982,-124.1336
rg,1625399195478911632,1,0.7209,-1.1021,0.6804,162,-48.1567,-156.6772,62.1338,142,0.7554,0.4982,-2.7035,-53.8662,25,0.7964,8783,3.982,-117.6268
rg,1625399195478932409,1,0.9817,-1.2954,0.4438,163,69.9463,-96.6187,72.937,142,0.7534,0.4752,-3.9333,-51.89,25,0.7964,8121,3.982,-112.7797
rg,1625399195478952316,1,0.6941,-0.9639,0.2271,164,100.8301,64.27,21.6675,142,0.7544,0.4622,-2.8181,-48.5544,25,0.7934,8883,3.982,-114.1931
rg,1625399195478970722,1,0.4202,-0.6702,0.2202,165,118.4692,117.7368,-12.6953,142,0.7534,0.4592,-0.7278,-44.1881,25,0.7904,8211,3.982,-117.9645
rg,1625399195478988981,1,0.0315,-0.1707,0.2126,166,127.7466,189.209,-26.3062,142,0.7554,0.4682,6.3521,-39.0927,25,0.7874,8664,3.982,-124.5025
rg,1625399195479007351,1,-0.3977,-0.1025,0.2388,167,26.9165,228.6987,0.4272,142,0.7564,0.4792,15.1826,-38.7576,25,0.7864,9869,3.982,-130.2846
rg,1625399195479025665,1,-0.7014,-0.468,0.5566,168,-107.4829,90.271,-11.7188,142,0.7564,0.4922,18.6496,-43.9119,25,0.7854,7932,3.982,-133.2054
rg,1625399195479044832,1,-0.7219,-0.7957,1.0891,169,-157.3486,-5.0659,-14.1602,142,0.7584,0.5102,15.9157,-49.2969,24,0.7864,8192,3.982,-130.4864
rg,1625399195479092664,1,-0.1768,-1.4861,1.2146,170,-97.9614,-139.7095,12.0239,142,0.7634,0.5343,12.3514,-52.0827,24,0.7884,8718,3.982,-125.7146
rg,1625399195479113978,1,0.2583,-1.2207,0.7268,171,21.0571,-129.6997,48.1567,142,0.7804,0.5553,9.7575,-50.4883,24,0.7924,7841,3.982,-120.4353
rg,1625399195479133200,1,0.6619,-1.0254,0.8916,172,39.5508,-120.9106,49.2554,142,0.8114,0.5773,6.6505,-47.7201,25,0.7974,8053,3.982,-116.7035
rg,1625399195479151829,1,0.6475,-1.0144,0.7542,173,70.9229,-72.5708,6.7749,142,0.8474,0.5963,3.5929,-44.8785,25,0.7994,7937,3.982,-114.4626
rg,1625399195479170550,1,0.4951,-0.8518,0.283,174,89.6606,-2.1362,1.709,142,0.8884,0.6153,2.3746,-42.1853,25,0.7994,8100,3.982,-114.4415
rg,1625399195479195735,1,0.1582,-0.5439,0.397,175,70.1294,101.3794,1.6479,142,0.9104,0.6293,4.8488,-39.9926,25,0.7994,9208,3.982,-117.099
rg,1625399195479215494,1,-0.0835,-0.4475,0.5508,176,37.8418,121.0938,4.9438,142,0.9074,0.6383,8.6932,-40.7872,24,0.7994,8805,3.982,-119.3232
rg,1625399195479233715,1,-0.4607,-0.6223,0.4653,177,-62.7441,19.4702,14.0991,142,0.8564,0.6453,10.497,-43.7289,24,0.7984,8484,3.982,-119.5173
rg,1625399195479251493,1,-0.2288,-0.8113,0.7454,178,-131.0425,-162.7808,14.6484,142,0.8044,0.6523,6.4773,-48.3325,24,0.7944,8630,3.982,-114.396
rg,1625399195479269140,1,0.3657,-1.1626,0.7502,179,-118.8965,-261.7798,45.2881,142,0.7664,0.6053,0.4574,-52.8522,24,0.7904,8359,3.982,-105.174
rg,1625399195479287362,1,0.5684,-1.2876,0.6179,180,-84.7168,-266.9067,59.4482,142,0.7524,0.5273,-4.328,-55.3714,25,0.7904,8470,3.982,-95.4035
rg,1625399195479305676,1,0.9653,-1.2397,0.5249,181,16.8457,-203.064,58.96,142,0.7524,0.4942,-8.1132,-55.9355,25,0.7924,8615,3.982,-87.2987
rg,1625399195479323657,1,1.0898,-1.0532,0.4031,182,90.332,-63.5986,43.1519,142,0.7524,0.4702,-9.5082,-53.1612,25,0.7924,8447,3.982,-84.1747
rg,1625399195479341583,1,0.4929,-0.5542,0.2014,183,95.459,105.3467,-28.4424,142,0.7524,0.4612,-8.9298,-49.198,25,0.7904,8157,3.982,-88.1855
rg,1625399195479359638,1,0.0488,-0.1555,0.1587,184,91.4307,181.6406,-51.3916,142,0.7534,0.4652,-5.627,-44.4987,25,0.7864,10480,3.982,-94.978
rg,1625399195479377619,1,-0.0793,-0.0808,0.1909,185,68.1152,221.4966,-43.6401,142,0.7544,0.4752,2.3056,-42.6462,25,0.7854,8378,3.982,-102.784
rg,1625399195479395507,1,-0.3735,-0.2009,0.4055,186,-39.0625,233.0933,-14.7705,142,0.7544,0.4882,9.986,-44.4425,25,0.7824,8606,3.982,-109.6638
rg,1625399195479413729,1,-0.7354,-0.8704,1.1973,187,-146.6675,68.7256,-30.8228,142,0.7564,0.5012,11.566,-50.5193,25,0.7824,8437,3.982,-112.5519
rg,1625399195479431432,1,-0.325,-1.4407,0.9248,188,-84.2285,-107.4829,-7.1411,142,0.7584,0.5213,8.6837,-53.5614,25,0.7854,8577,3.982,-109.3331
rg,1625399195479449154,1,-0.041,-1.2788,0.7634,189,-31.1279,-135.0708,11.4746,142,0.7654,0.5403,5.2065,-54.1994,25,0.7864,8338,3.982,-104.6529
rg,1625399195479480949,1,0.4094,-0.9529,0.8718,190,15.1367,-127.4414,24.4751,142,0.7814,0.5563,2.1129,-53.0325,25,0.7904,8506,3.982,-99.9444
rg,1625399195479500967,1,0.5903,-0.8782,0.6589,191,30.0293,-104.7974,12.085,142,0.8134,0.5773,-1.1901,-51.7971,25,0.7944,8295,3.982,-96.34
rg,1625399195479518967,1,0.6304,-0.9529,0.4243,192,45.6543,-51.3306,-2.6855,142,0.8494,0.5973,-3.6862,-50.5066,25,0.7984,8564,3.982,-94.8099
rg,1625399195827239066,1,-0.031,-0.6462,0.6047,193,38.3911,86.792,2.2583,142,0.8874,0.6333,-1.1571,-48.7102,25,0.8004,26423,3.982,-97.4084
rg,1625399195827285028,1,-0.2622,-0.6233,0.5217,194,-52.124,-26.9165,24.9634,142,0.8324,0.6423,-0.3463,-50.8498,25,0.8004,8647,3.982,-95.9531
rg,1625399195827307472,1,0.0068,-0.7864,0.7109,195,-104.6143,-151.4282,18.1274,142,0.7834,0.6423,-3.3901,-55.0677,25,0.7974,8061,3.982,-90.6801
rg,1625399195827329379,1,0.4336,-1.1675,0.6987,196,-95.7031,-197.1436,54.2603,142,0.7534,0.5683,-6.3401,-59.7011,25,0.7934,8095,3.982,-82.8227
rg,1625399195827349211,1,0.8496,-1.2847,0.7163,197,-13.4888,-175.1099,70.3735,142,0.7534,0.5032,-8.2289,-61.2232,25,0.7974,13010,3.982,-75.2756
rg,1625399195827368248,1,1.0327,-1.1353,0.3406,198,96.9849,-81.2378,67.1997,142,0.7524,0.4782,-8.7379,-56.8446,25,0.7944,10587,3.982,-74.4353
rg,1625399195827387266,1,0.49,-0.4663,-0.0068,199,151.123,54.9316,-21.3623,142,0.7524,0.4722,-9.5791,-51.3148,25,0.7914,7969,3.982,-76.6844
rg,1625399195827406784,1,0.1267,0.0071,0.1216,200,120.2393,145.5688,-54.0771,142,0.7534,0.4792,-8.7401,-44.2745,25,0.7884,8001,3.982,-82.8313
rg,1625399195827425394,1,-0.1318,-0.0234,0.1541,201,72.998,206.1768,-40.7104,142,0.7534,0.4922,-0.3526,-42.7044,25,0.7864,8400,3.982,-89.9192
rg,1625399195827443320,1,-0.2236,-0.1682,0.2576,202,-84.7778,233.8867,13.1836,142,0.7534,0.5062,7.987,-46.1889,25,0.7844,8053,3.982,-96.1385
rg,1625399195827465171,1,-0.3706,-1.2153,1.7175,203,-192.3828,96.1304,-0.1831,142,0.7534,0.5263,10.5158,-53.8926,25,0.7844,8201,3.982,-99.0728
rg,1625399195827484374,1,-0.2905,-1.6484,0.699,204,-33.5083,-48.2178,4.8828,142,0.7554,0.5503,9.5224,-55.4338,24,0.7844,8604,3.982,-97.4504
rg,1625399195827503096,1,0.0308,-1.3452,0.6934,205,29.4189,-84.8999,19.4092,142,0.7704,0.5723,7.6856,-52.6578,24,0.7874,8165,3.982,-94.1818
rg,1625399195827521114,1,0.436,-0.8362,0.9539,206,70.1904,-66.1011,24.1089,142,0.8004,0.5893,5.7619,-49.1077,24,0.7924,8657,3.982,-91.4783
rg,1625399195827539225,1,0.4553,-0.7546,0.5479,207,87.2803,-34.668,17.6392,142,0.8434,0.6083,4.1531,-45.6642,24,0.7964,8398,3.982,-90.0303
rg,1625399195827557706,1,0.4578,-0.8318,0.4473,208,64.8193,-2.2583,0.7935,142,0.8884,0.6223,2.9819,-43.6317,25,0.7964,8882,3.982,-90.0076
rg,1625399195827592760,1,0.1421,-0.7241,0.4958,209,62.2559,68.6035,-1.3428,142,0.9235,0.6353,4.4749,-41.7281,25,0.7964,8487,3.982,-91.9484
rg,1625399195827613500,1,-0.0518,-0.644,0.5618,210,55.1758,78.7964,1.6479,142,0.9395,0.6443,6.8489,-40.0007,25,0.7964,8413,3.982,-93.9974
rg,1625399195827632148,1,-0.2949,-0.5776,0.4978,211,14.5874,-6.897,10.6812,142,0.9375,0.6513,7.4731,-39.6882,25,0.7984,8737,3.982,-93.526
rg,1625399195827650703,1,0.1235,-0.7012,0.6687,212,-97.9614,-137.5732,46.5698,142,0.8764,0.6573,4.0344,-43.3389,25,0.7974,8617,3.982,-88.4763
rg,1625399195827669499,1,0.5146,-0.9463,0.8093,213,-130.9814,-168.8232,38.5132,142,0.8154,0.6633,-0.5297,-48.5981,25,0.7934,8558,3.982,-82.527
rg,1625399195827687924,1,0.5986,-1.1492,0.6807,214,-117.5537,-160.0952,43.7012,142,0.7724,0.6243,-4.0835,-54.1351,25,0.7894,8288,3.982,-76.3875
rg,1625399195827705831,1,0.7522,-1.1396,0.5288,215,-28.5034,-54.2603,67.627,142,0.7504,0.5112,-4.1321,-55.8696,25,0.7894,11277,3.982,-73.0144
rg,1625399195827736497,1,0.8276,-1.0037,0.6228,216,24.4141,-5.0049,56.5796,142,0.7494,0.4812,-3.4885,-55.357,25,0.7914,8519,3.982,-71.5544
rg,1625399195827755386,1,0.7144,-0.887,0.3962,217,69.1528,56.8237,35.4004,142,0.7504,0.4642,-2.2523,-52.8704,25,0.7894,8434,3.982,-72.584
rg,1625399195827772681,1,0.2024,-0.5901,0.1934,218,74.2798,127.0142,-51.6968,142,0.7514,0.4622,-1.3632,-50.4303,25,0.7864,8545,3.982,-77.8409
rg,1625399195827790199,1,-0.1775,-0.2019,0.2019,219,98.1445,195.3125,-53.833,142,0.7534,0.4712,3.415,-46.4589,25,0.7844,8432,3.982,-85.0628
rg,1625399195827808514,1,-0.2947,-0.1223,0.2683,220,73.5474,233.5205,-30.0903,142,0.7554,0.4822,10.9712,-45.6412,25,0.7824,8883,3.982,-91.7904
rg,1625399195827826476,1,-0.5974,-0.2434,0.5515,221,-43.7012,153.3813,-2.6245,142,0.7554,0.4972,16.35,-47.8627,25,0.7824,8748,3.982,-96.3702
rg,1625399195827844216,1,-0.6816,-0.9146,1.072,222,-138.2446,-71.3501,-18.9209,142,0.7574,0.5193,14.3353,-52.6258,25,0.7834,9162,3.982,-94.5269
rg,1625399195827862549,1,-0.0359,-1.4297,1.0256,223,-80.8716,-200.0122,20.6909,142,0.7644,0.5443,9.7638,-54.4346,25,0.7864,8809,3.982,-87.4569
rg,1625399195827880456,1,0.4404,-1.1643,0.6885,224,35.0342,-181.5796,59.7534,142,0.7814,0.5693,6.31,-52.1897,25,0.7894,9099,3.982,-80.1931
rg,1625399196167024851,1,0.7278,-0.8186,0.3604,225,75.6226,-47.8516,5.0659,142,0.8674,0.6163,3.7011,-49.6224,25,0.7984,25027,3.982,-78.6768
rg,1625399196167053757,1,0.4458,-0.6379,0.2761,226,54.6875,82.3975,4.9438,142,0.9014,0.6303,4.6634,-48.1638,25,0.7994,8837,3.982,-81.0982
rg,1625399196167074312,1,0.0828,-0.5913,0.696,227,8.5449,175.8423,14.1602,142,0.9124,0.6403,9.3596,-48.0999,25,0.8014,8914,3.982,-85.9758
rg,1625399196167093571,1,-0.3999,-0.895,0.6401,228,-81.9702,-8.1177,28.2593,142,0.8514,0.6523,10.4293,-51.4293,25,0.8034,15882,3.982,-85.0338
rg,1625399196167112200,1,-0.0334,-0.916,0.7874,229,-98.3887,-119.3237,31.311,142,0.8024,0.6603,8.2248,-54.5063,25,0.8004,7877,3.982,-80.3821
rg,1625399196167130718,1,0.1997,-1.0271,0.7437,230,-101.6846,-147.583,44.3115,142,0.7604,0.6113,5.7633,-57.8124,25,0.7954,7998,3.982,-74.4306
rg,1625399196167148273,1,0.4741,-1.2175,0.5928,231,-77.3926,-157.959,57.4951,142,0.7524,0.5263,3.5653,-60.5828,25,0.7954,7875,3.982,-67.8132
rg,1625399196167165958,1,0.6545,-1.27,0.5239,232,41.3208,-99.9146,43.335,142,0.7514,0.4962,1.9642,-58.9607,25,0.7964,8006,3.982,-63.5174
rg,1625399196167183291,1,0.8582,-1.2532,0.491,233,73.6694,-77.0264,58.1665,142,0.7504,0.4742,1.0045,-56.2309,25,0.7934,8459,3.982,-59.7166
rg,1625399196167200420,1,0.533,-0.8042,0.1799,234,120.1782,40.2222,-11.9019,142,0.7514,0.4622,0.2927,-52.132,25,0.7914,8247,3.982,-61.3612
rg,1625399196167222438,1,0.0706,-0.1956,0.095,235,165.1611,121.9482,-53.0396,142,0.7524,0.4672,1.1534,-46.0506,25,0.7904,8415,3.982,-66.4727
rg,1625399196167239993,1,-0.134,0.0437,0.1484,236,118.3472,216.1255,-15.2588,142,0.7524,0.4822,8.4503,-40.3432,25,0.7874,9594,3.982,-72.734
rg,1625399196167256956,1,-0.283,-0.0474,0.2053,237,55.8472,227.356,9.9487,142,0.7544,0.4982,16.3975,-41.6888,25,0.7874,8906,3.982,-77.2773
rg,1625399196167273974,1,-0.3625,-0.2449,0.3606,238,-110.2295,132.1411,6.4087,142,0.7534,0.5203,21.2274,-47.0414,25,0.7874,8754,3.982,-80.9647
rg,1625399196167291010,1,-0.2747,-1.2751,2.1145,239,-221.8628,-20.9961,-9.7046,142,0.7544,0.5463,19.8691,-55.0435,25,0.7904,8486,3.982,-80.2415
rg,1625399196167308140,1,-0.0798,-1.7002,0.6689,240,-37.7808,-92.5903,26.5503,142,0.7614,0.5693,17.9942,-55.8389,25,0.7924,8558,3.982,-76.5613
rg,1625399196167343805,1,0.3584,-1.1472,0.8057,241,64.1479,-81.1157,23.8647,142,0.7814,0.5863,15.6595,-52.2767,25,0.7964,8513,3.982,-73.2573
rg,1625399196167361990,1,0.4419,-0.8508,0.9478,242,86.3037,-70.6787,5.3711,142,0.8134,0.6003,12.7192,-47.8104,25,0.8014,8494,3.9721,-70.8099
rg,1625399196167389100,1,0.2834,-0.5737,0.554,243,95.9473,-55.542,-4.2114,174,0.8494,0.6193,9.8459,-43.6195,25,0.8044,9005,3.9721,-69.3361
rg,1625399196167406692,1,0.2432,-0.6135,0.4341,244,46.4478,-24.5972,11.4746,174,0.8824,0.6323,8.3897,-42.0189,25,0.8054,8155,3.9721,-68.4053
rg,1625399196167423211,1,0.0505,-0.7537,0.5493,245,14.4653,-4.1504,11.2305,174,0.9094,0.6413,8.1196,-41.8398,25,0.8044,8336,3.9721,-68.0256
rg,1625399196167440118,1,-0.0457,-0.7871,0.55,246,10.6812,-17.0898,12.4512,174,0.9225,0.6483,7.101,-41.9229,25,0.8044,8217,3.9721,-66.2821
rg,1625399196167457191,1,0.0505,-0.7747,0.5352,247,-11.1694,-81.0547,32.4097,174,0.9134,0.6533,5.1893,-42.5502,25,0.8074,8402,3.9721,-63.186
rg,1625399196167473931,1,0.4714,-0.8044,0.6853,248,-90.332,-128.0518,56.4575,174,0.8454,0.6613,2.0154,-46.0697,25,0.8054,9068,3.9721,-57.9759
rg,1625399196167490746,1,0.4626,-1.012,0.6072,249,-126.2817,-101.0742,31.4331,174,0.7874,0.6583,-0.5827,-51.5209,25,0.8024,8622,3.9721,-54.0838
rg,1625399196167507542,1,0.4587,-1.168,0.4429,250,-94.5435,-58.7158,48.5229,174,0.7504,0.5623,-1.1588,-55.9766,25,0.7964,8561,3.9721,-51.011
rg,1625399196167524319,1,0.5737,-1.0715,0.5393,251,-66.7114,-42.4194,54.3213,174,0.7474,0.4992,-0.8386,-56.5528,25,0.8004,8951,3.9721,-50.2215
rg,1625399196167540800,1,0.5486,-1.0574,0.5901,252,30.9448,37.7197,37.1094,174,0.7444,0.4752,0.3215,-55.4583,25,0.7964,8847,3.9721,-50.6574
rg,1625399196167557966,1,0.5254,-0.9937,0.4478,253,32.8979,92.8955,18.8599,174,0.7444,0.4662,2.0571,-54.5537,25,0.7924,8643,3.9721,-53.2889
rg,1625399196167574577,1,-0.0024,-0.7896,0.3735,254,56.4575,173.9502,-41.2598,174,0.7444,0.4682,4.7306,-53.0807,25,0.7904,8859,3.9721,-59.9037
rg,1625399196167591336,1,-0.4507,-0.4341,0.3213,255,100.2808,210.7544,-35.8887,174,0.7474,0.4742,10.1119,-50.0615,25,0.7884,8771,3.9721,-67.4127
rg,1625399196167608002,1,-0.571,-0.3196,0.3625,256,96.3135,188.2324,-24.353,174,0.7484,0.4882,14.5744,-47.7039,25,0.7874,8763,3.9721,-71.3518
rg,1625399196535279335,1,-0.1541,-0.7415,0.9155,257,-127.3193,-146.4233,22.0337,174,0.7524,0.5503,11.1932,-51.2716,24,0.7924,25327,3.9721,-66.0978
rg,1625399196535362980,1,0.3975,-1.3262,0.6492,258,-9.8877,-123.0469,26.9775,174,0.7664,0.5813,7.9841,-51.3759,24,0.7964,16481,3.9721,-61.6094
rg,1625399196535417442,1,0.5828,-0.9678,0.7036,259,38.9404,-65.6128,19.104,174,0.7904,0.5923,5.647,-49.607,25,0.8004,7813,3.9721,-59.1134
rg,1625399196535468144,1,0.5723,-0.793,0.7324,260,47.9126,-35.2173,1.9531,174,0.8194,0.6083,4.2724,-47.2195,25,0.8034,7836,3.9721,-59.2601
rg,1625399196535518810,1,0.5037,-0.801,0.5659,261,57.0068,33.3862,0.1221,174,0.8544,0.6233,4.0099,-45.2724,25,0.8054,7755,3.9721,-60.2685
rg,1625399196535568956,1,0.3208,-0.8425,0.4788,262,39.2456,90.6372,-1.3428,174,0.8914,0.6363,5.6688,-44.4815,25,0.8044,7855,3.9721,-62.9263
rg,1625399196535616437,1,-0.0027,-0.7883,0.5078,263,40.5273,117.3706,-2.4414,174,0.9144,0.6473,8.737,-43.7809,25,0.8044,9050,3.9721,-66.3488
rg,1625399196535665880,1,-0.1301,-0.6992,0.5217,264,41.748,100.2197,0.6714,174,0.9265,0.6523,11.8535,-42.8208,25,0.8044,8765,3.9721,-69.1587
rg,1625399196535711268,1,-0.2329,-0.6011,0.5071,265,13.6108,16.6016,11.4136,174,0.9335,0.6563,12.8323,-42.5649,25,0.8054,8088,3.9721,-69.3315
rg,1625399196535755840,1,0.1035,-0.7241,0.6338,266,-71.0449,-64.7583,55.603,174,0.9114,0.6633,11.7697,-44.8949,25,0.8044,8458,3.9721,-65.895
rg,1625399196535800876,1,0.3564,-0.9783,0.7974,267,-103.6987,-86.4258,55.542,174,0.8384,0.6713,9.5695,-49.1511,25,0.8014,8280,3.9721,-62.1784
rg,1625399196535846560,1,0.3391,-1.1069,0.7424,268,-112.915,-80.7495,36.2549,174,0.7814,0.6723,7.776,-53.3878,25,0.7984,8152,3.9721,-58.725
rg,1625399196535892004,1,0.4624,-1.3452,0.5295,269,-74.3408,-66.2231,56.8848,174,0.7474,0.5853,7.1541,-56.4539,25,0.7924,8465,3.9721,-55.2758
rg,1625399196536022889,1,0.5618,-1.1736,0.8679,270,-27.3438,-17.0898,40.7104,174,0.7444,0.4972,7.0716,-57.2412,25,0.7964,8163,3.9721,-53.7848
rg,1625399196536100017,1,0.3787,-1.2451,0.6711,271,50.2319,27.0996,33.02,174,0.7414,0.4662,8.4967,-54.6068,25,0.7954,8996,3.9721,-53.5552
rg,1625399196536152404,1,0.4714,-1.0762,0.468,272,74.585,44.1895,34.3628,174,0.7414,0.4502,9.5043,-52.1578,25,0.7924,8678,3.9721,-54.2591
rg,1625399196536199014,1,-0.0618,-0.585,0.1538,273,151.5503,54.3823,-59.9976,174,0.7414,0.4522,8.955,-47.5222,25,0.7904,8923,3.9721,-57.6588
rg,1625399196536247846,1,-0.186,-0.0583,0.2515,274,168.1519,93.4448,-47.8516,174,0.7424,0.4662,11.3561,-40.4612,25,0.7874,9336,3.9721,-61.4507
rg,1625399196536297104,1,-0.3254,0.0847,0.3103,275,39.3677,136.4136,3.54,174,0.7434,0.4782,17.032,-38.364,25,0.7874,8432,3.9721,-64.615
rg,1625399196536343158,1,-0.3613,-0.0415,0.3643,276,-54.0771,92.3462,10.1929,174,0.7454,0.4912,18.2578,-44.0872,25,0.7884,8134,3.9721,-65.1846
rg,1625399196536418027,1,-0.3655,-0.6582,0.968,277,-216.0034,-58.3496,-7.0801,174,0.7454,0.5092,16.4793,-51.8142,25,0.7884,8323,3.9721,-63.4386
rg,1625399196536468044,1,0.0984,-1.7112,1.3032,278,-138.6108,-123.3521,14.7705,174,0.7494,0.5373,13.3356,-56.2026,25,0.7914,8162,3.9721,-58.9284
rg,1625399196536511969,1,0.3525,-1.3877,0.5916,279,27.5879,-97.7783,50.415,174,0.7584,0.5593,11.7819,-54.538,25,0.7944,8449,3.9721,-54.5702
rg,1625399196536557745,1,0.5601,-1.1062,0.7793,280,44.0063,-82.9468,40.7715,174,0.7784,0.5763,9.8405,-52.0922,25,0.7974,8281,3.9721,-50.9008
rg,1625399196536601281,1,0.4319,-0.7769,0.4885,281,74.4019,-5.249,3.1738,174,0.8284,0.6043,8.5053,-49.2874,25,0.8044,13107,3.9721,-50.7248
rg,1625399196536645558,1,0.2864,-0.748,0.3323,282,62.0117,68.4814,19.2261,174,0.8694,0.6193,9.8394,-47.6808,24,0.8064,8491,3.9721,-52.4014
rg,1625399196536689094,1,0.1409,-0.75,0.4153,283,53.4058,107.7271,15.3198,174,0.9024,0.6323,13.4375,-46.5903,24,0.8064,9232,3.9721,-55.8985
rg,1625399196537077472,1,-0.272,-0.7363,0.6091,284,47.1802,119.9341,13.0615,174,0.9164,0.6413,17.2102,-45.6961,24,0.8074,8542,3.9721,-59.1491
rg,1625399196537153933,1,-0.426,-0.6768,0.4429,285,8.0566,2.0752,23.6816,174,0.9104,0.6483,18.3678,-45.5766,25,0.8074,8924,3.9721,-58.6342
rg,1625399196537199506,1,-0.1584,-0.7556,0.6589,286,-91.4917,-97.9004,33.3862,174,0.8524,0.6563,16.3088,-48.1702,25,0.8044,8488,3.9721,-54.7136
rg,1625399196537243912,1,0.0918,-0.9924,0.6428,287,-100.4028,-142.6392,33.2031,174,0.8034,0.6623,12.8538,-51.1665,25,0.7994,8807,3.9721,-49.4118
rg,1625399196537288911,1,0.3196,-1.1938,0.6147,288,-91.0645,-152.9541,49.0723,174,0.7644,0.6063,9.9331,-53.5161,25,0.7934,8975,3.9721,-43.6234
rg,1625399197005309294,1,0.5356,-0.9155,0.4148,289,87.4634,-14.2212,23.4375,174,0.7474,0.4752,8.9322,-50.2776,24,0.7944,24864,3.9721,-42.7007
rg,1625399197005414309,1,-0.0208,-0.4829,0.3342,290,94.1162,85.022,-41.748,174,0.7464,0.4652,9.6302,-47.312,24,0.7924,15261,3.9721,-46.4454
rg,1625399197005467400,1,-0.2234,-0.1326,0.3215,291,112.2437,106.6895,-17.9443,174,0.7474,0.4732,13.0288,-42.7069,24,0.7904,9367,3.9721,-49.8617
rg,1625399197005517621,1,-0.2515,-0.0002,0.3064,292,33.8135,74.707,1.8921,174,0.7494,0.4822,16.4005,-40.6234,24,0.7894,7817,3.9721,-51.5574
rg,1625399197005566176,1,-0.2952,-0.0637,0.3379,293,-34.1187,30.8228,-4.5166,174,0.7504,0.4992,18.2031,-41.3712,24,0.7894,7817,3.9721,-52.2952
rg,1625399197005613360,1,-0.2012,-0.5139,0.7458,294,-174.1943,-72.4487,-1.0986,174,0.7514,0.5233,15.8998,-47.4141,25,0.7894,7895,3.9721,-50.1041
rg,1625399197005659340,1,0.2908,-1.5198,1.4214,295,-160.1562,-93.689,16.5405,174,0.7564,0.5533,13.1074,-52.9042,25,0.7924,8326,3.9721,-46.6432
rg,1625399197005705542,1,0.2451,-1.6892,0.8865,296,-75.0732,-66.8945,26.9165,174,0.7704,0.5763,12.2186,-53.2254,25,0.7964,8580,3.9721,-44.0177
rg,1625399197005750208,1,0.5332,-1.386,0.9277,297,24.1089,-41.8701,32.1045,174,0.7984,0.5963,11.092,-51.9337,25,0.8024,8141,3.9721,-41.9012
rg,1625399197005794595,1,0.4575,-0.9597,0.782,298,94.4214,-7.6904,3.3569,174,0.8364,0.6153,9.8165,-48.062,25,0.8054,8477,3.9721,-41.6074
rg,1625399197005838872,1,0.314,-0.7368,0.3345,299,106.4453,26.7944,19.8975,174,0.8774,0.6293,9.9764,-44.4989,25,0.8064,8606,3.9721,-41.9876
rg,1625399197005922759,1,0.1899,-0.656,0.2976,300,93.811,49.4385,16.4185,174,0.9084,0.6433,10.9372,-41.7163,25,0.8064,8248,3.9721,-43.0424
rg,1625399197005970535,1,-0.1414,-0.5833,0.4846,301,59.3872,74.2188,12.3901,174,0.9215,0.6513,13.4811,-40.016,25,0.8074,8656,3.9721,-44.715
rg,1625399197006015886,1,-0.4009,-0.6819,0.5115,302,-5.6152,-7.8125,31.7383,174,0.9054,0.6583,14.532,-40.4189,25,0.8084,8694,3.9721,-43.6205
rg,1625399197006060014,1,-0.0964,-0.8315,0.7212,303,-99.0601,-142.6392,44.2505,174,0.8424,0.6673,11.1256,-43.5379,25,0.8054,10795,3.9721,-38.4343
rg,1625399197006103198,1,0.2874,-1.0691,0.6504,304,-103.6377,-191.9556,37.2925,174,0.7964,0.6653,5.9205,-47.2696,25,0.8014,8199,3.9721,-31.9386
rg,1625399197006147123,1,0.4348,-1.1819,0.6196,305,-84.1675,-177.4902,49.4995,174,0.7594,0.5883,2.7499,-49.6813,25,0.7954,8207,3.9721,-26.1686
rg,1625399197006213362,1,0.6167,-1.1196,0.5503,306,-22.7661,-110.4126,55.9082,174,0.7514,0.5123,0.5663,-50.9365,25,0.7974,8270,3.9721,-21.3553
rg,1625399197006256435,1,0.5142,-0.8518,0.4924,307,54.9927,-19.165,17.8833,174,0.7484,0.4842,-0.4473,-49.0468,25,0.7964,8209,3.9721,-20.3323
rg,1625399197006299508,1,0.4165,-0.615,0.3833,308,37.0483,29.2969,-4.9438,174,0.7484,0.4642,-0.9375,-47.8545,25,0.7944,8511,3.9721,-21.3542
rg,1625399197006341822,1,0.1802,-0.5278,0.29,309,34.8511,67.9321,-36.1328,174,0.7484,0.4622,-0.0948,-46.9044,25,0.7914,8540,3.9721,-24.3251
rg,1625399197006383969,1,-0.1223,-0.3186,0.3018,310,32.1655,121.9482,-36.2549,174,0.7504,0.4732,2.8201,-45.7041,25,0.7884,8838,3.9721,-28.8487
rg,1625399197006431393,1,-0.3784,-0.3496,0.5579,311,-28.5645,131.8359,-10.5591,174,0.7524,0.4892,7.1749,-46.7285,25,0.7874,8631,3.9721,-32.9506
rg,1625399197006474911,1,-0.415,-0.7053,0.7007,312,-92.7124,-5.3101,-18.9819,174,0.7554,0.5092,7.0716,-50.4053,25,0.7884,8719,3.9721,-33.3041
rg,1625399197006516262,1,0.0408,-1.3005,1.1704,313,-100.4639,-106.0181,-0.8545,174,0.7574,0.5333,4.1326,-53.9788,25,0.7894,8981,3.9721,-29.9326
rg,1625399197006558779,1,0.2183,-1.3301,0.9807,314,-54.3213,-109.6802,12.2681,174,0.7624,0.5623,2.1518,-54.2911,25,0.7904,8757,3.9721,-26.3452
rg,1625399197006600796,1,0.4749,-1.0662,0.6895,315,12.2681,-73.3643,39.4897,174,0.7804,0.5853,0.8437,-53.8081,25,0.7954,8631,3.9721,-23.0507
rg,1625399197006643110,1,0.6592,-0.9436,0.7087,316,31.0059,-38.0249,19.5923,174,0.8124,0.6093,-0.5709,-52.5308,25,0.7994,9095,3.9721,-21.3784
rg,1625399197006685368,1,0.5574,-0.9607,0.4844,317,54.8706,23.0713,5.4321,174,0.8534,0.6263,-0.8553,-50.6974,24,0.8044,8705,3.9721,-21.9844
rg,1625399197006727812,1,0.2842,-0.9116,0.4001,318,70.8618,85.6934,6.6528,174,0.8954,0.6413,0.9636,-48.4485,24,0.8054,8843,3.9721,-24.4308
rg,1625399197006769588,1,-0.1482,-0.7512,0.491,319,77.3926,116.9434,7.3242,174,0.9204,0.6533,5.1051,-45.8234,24,0.8074,8978,3.9721,-27.8613
rg,1625399197006811587,1,-0.4797,-0.6025,0.5085,320,43.8843,42.0532,22.4609,174,0.9215,0.6613,7.9235,-44.2611,25,0.8094,10157,3.9721,-28.4197
rg,1625399197272614193,1,0.1497,-0.8875,0.8333,321,-149.0479,-200.8667,38.6963,174,0.7694,0.6393,3.0257,-49.6365,25,0.7964,26447,3.9721,-21.46
rg,1625399197272692876,1,0.6309,-1.3557,0.7324,322,-100.708,-195.3125,61.0352,174,0.7574,0.5533,-0.8243,-53.9315,25,0.7974,9193,3.9721,-13.8129
rg,1625399197272746041,1,0.8779,-1.3896,0.4626,323,27.2827,-99.8535,63.9648,174,0.7514,0.5183,-2.25,-53.5429,25,0.7954,8614,3.9721,-9.078
rg,1625399197272796892,1,0.8801,-0.9683,0.2925,324,75.1953,31.6772,24.1699,174,0.7504,0.4922,-2.1414,-51.0925,25,0.7944,8745,3.9721,-9.5062
rg,1625399197272844428,1,0.1897,-0.3979,0.1335,325,100.769,167.4194,-68.1152,174,0.7494,0.4842,-0.7343,-47.6114,25,0.7914,8697,3.9721,-16.3604
rg,1625399197272890186,1,-0.0415,-0.1995,0.167,326,99.4263,216.1255,-76.2329,174,0.7504,0.4882,3.461,-43.9336,25,0.7874,8383,3.9721,-24.654
rg,1625399197272935481,1,-0.4976,-0.1697,0.3064,327,40.3442,288.208,-34.5459,174,0.7514,0.5002,12.5728,-43.246,25,0.7874,8068,3.9721,-33.6247
rg,1625399197272979276,1,-0.8828,-0.4631,0.5061,328,-55.9692,129.5776,-19.165,174,0.7534,0.5092,17.1185,-46.5607,25,0.7864,8673,3.9721,-38.0088
rg,1625399197273024738,1,-0.7131,-0.9326,0.9631,329,-128.9062,-113.1592,-21.5454,174,0.7544,0.5203,13.9334,-50.8172,25,0.7864,8550,3.9721,-35.05
rg,1625399197273071163,1,-0.2727,-1.2839,1.303,330,-119.3237,-188.1714,1.3428,174,0.7584,0.5413,8.2979,-52.1154,25,0.7884,8706,3.9721,-27.6803
rg,1625399197273115291,1,0.4661,-1.1133,0.614,331,35.4004,-162.1704,35.5835,174,0.7714,0.5683,4.2951,-50.3666,25,0.7924,10767,3.9721,-21.7627
rg,1625399197273202622,1,0.7153,-0.8545,0.6846,332,48.584,-95.7642,23.2544,174,0.8054,0.5883,1.1403,-48.2822,25,0.7964,11240,3.9721,-18.2761
rg,1625399197273276991,1,0.6572,-0.8489,0.5613,333,65.4907,-26.6113,-10.9253,174,0.8424,0.6083,-1.1665,-45.9331,25,0.8014,8083,3.9721,-17.8259
rg,1625399197273361822,1,0.5703,-0.8416,0.3999,334,66.1621,17.0288,-5.6152,174,0.8864,0.6263,-1.9929,-43.8861,25,0.8014,8306,3.9721,-18.4777
rg,1625399197273408728,1,0.283,-0.7864,0.3982,335,56.3965,117.7368,-2.6855,174,0.9134,0.6393,0.7305,-42.3033,25,0.8024,8089,3.9721,-21.7649
rg,1625399197273451857,1,-0.1235,-0.7107,0.5601,336,51.6357,151.8555,4.0283,174,0.9265,0.6523,5.6329,-40.8203,25,0.8014,8486,3.9721,-25.6855
rg,1625399197273495800,1,-0.4211,-0.6252,0.4548,337,34.1797,53.4058,12.3291,174,0.9355,0.6573,8.4581,-40.0288,25,0.8014,8406,3.9721,-26.7432
rg,1625399197273538725,1,-0.3845,-0.5845,0.3521,338,4.0894,-20.5688,26.5503,174,0.9335,0.6643,8.8711,-40.1085,25,0.8014,8819,3.9721,-25.4513
rg,1625399197273581150,1,-0.0227,-0.7161,0.717,339,-98.877,-102.6611,61.1572,174,0.8654,0.6723,7.1597,-43.5914,25,0.7974,8530,3.9721,-20.8666
rg,1625399197273624556,1,0.2966,-1.0391,0.7864,340,-121.6431,-148.9868,53.6499,174,0.8064,0.6793,3.8082,-48.2376,25,0.7924,8826,3.9721,-15.0871
rg,1625399197273667796,1,0.5488,-1.3098,0.5605,341,-72.3877,-144.2871,74.8291,174,0.7594,0.6273,1.4501,-51.4979,25,0.7874,8561,3.9721,-8.7654
rg,1625399197273711961,1,0.7158,-1.1243,0.6404,342,-26.2451,-68.2983,73.7305,174,0.7484,0.5423,0.9608,-52.7549,25,0.7874,8793,3.9721,-4.799
rg,1625399197273755423,1,0.679,-1.1062,0.6868,343,28.8086,-10.1318,54.5654,174,0.7444,0.5102,1.3549,-51.7511,25,0.7874,8324,3.9721,-3.1617
rg,1625399197273798829,1,0.6558,-1.1074,0.6008,344,49.4385,49.7437,53.1006,174,0.7444,0.4862,3.1522,-50.1186,24,0.7854,8412,3.9721,-3.4023
rg,1625399197273841995,1,0.1619,-0.9568,0.4038,345,76.2939,113.0981,-22.4609,174,0.7434,0.4822,4.952,-48.0058,24,0.7834,8588,3.9721,-7.4671
rg,1625399197273884308,1,-0.2458,-0.4624,0.2568,346,141.2964,137.2681,-35.7056,174,0.7444,0.4852,8.518,-43.4055,24,0.7814,10504,3.9721,-12.4312
rg,1625399197273927881,1,-0.405,-0.0898,0.3206,347,125.4272,138.916,-6.4087,174,0.7434,0.5052,14.0536,-38.4674,24,0.7784,12274,3.9721,-16.1655
rg,1625399197273971603,1,-0.4902,-0.0686,0.29,348,15.0757,39.4287,2.5024,174,0.7454,0.5323,16.9676,-37.5794,25,0.7794,8610,3.9721,-16.9495
rg,1625399197274015916,1,-0.4016,-0.4917,0.5232,349,-133.5449,-85.144,2.3804,174,0.7474,0.5593,14.9143,-42.4549,25,0.7794,9423,3.9721,-14.6699
rg,1625399197274060008,1,0.2603,-1.4104,1.6609,350,-169.0063,-145.5078,15.7471,174,0.7534,0.5803,10.4588,-48.0628,25,0.7834,9547,3.9721,-9.9168
rg,1625399197274104432,1,0.2832,-1.5447,0.6946,351,-6.1035,-81.7871,26.3672,174,0.7664,0.5963,8.3216,-48.461,25,0.7874,8811,3.9721,-6.8521
rg,1625399197274148339,1,0.4526,-1.3486,0.6873,352,35.7666,-63.0493,31.0059,174,0.7964,0.6113,6.5746,-46.1379,25,0.7924,8605,3.9721,-5.3271
rg,1625399197635908794,1,0.2017,-0.6685,0.2742,353,98.1445,94.7876,8.5449,159,0.9114,0.6533,8.6538,-43.3508,25,0.7984,24659,3.9644,-7.8956
rg,1625399197635989811,1,-0.4136,-0.5605,0.6309,354,38.208,115.3564,11.7798,159,0.9245,0.6653,13.2792,-42.6231,25,0.7994,15619,3.9644,-10.7856
rg,1625399197636042661,1,-0.4546,-0.6609,0.5024,355,-45.2271,-53.4058,33.1421,159,0.8764,0.6723,13.2531,-44.2059,25,0.7984,7621,3.9644,-8.3749
rg,1625399197636095512,1,-0.0093,-0.7715,0.783,356,-121.8872,-192.0166,23.4375,159,0.8214,0.6783,8.1337,-47.9069,25,0.7954,7746,3.9644,-2.0761
rg,1625399197636144232,1,0.2297,-0.8987,0.8369,357,-128.3569,-218.8721,24.5972,159,0.7754,0.6783,2.5873,-52.2942,25,0.7904,7682,3.9644,5.3225
rg,1625399197636192194,1,0.6309,-1.2983,0.6138,358,-95.7642,-210.5103,48.3398,159,0.7484,0.6093,-1.7113,-56.4894,25,0.7854,7778,3.9644,13.2936
rg,1625399197636237267,1,0.856,-1.2188,0.6433,359,-59.9976,-174.3774,45.5322,159,0.7454,0.5333,-4.258,-56.697,25,0.7874,8428,3.9644,17.8743
rg,1625399197636281840,1,0.8396,-1.1675,0.5691,360,60.3027,-50.5981,33.2642,159,0.7424,0.4992,-5.3789,-54.7253,25,0.7854,8399,3.9644,20.2993
rg,1625399197636326802,1,0.6973,-0.8713,0.4294,361,75.0732,64.3311,6.1646,159,0.7424,0.4842,-4.8,-51.836,25,0.7834,7766,3.9644,18.3667
rg,1625399197636369616,1,0.1138,-0.4644,0.3325,362,77.6978,118.8354,-35.0342,159,0.7424,0.4742,-2.3683,-48.2624,25,0.7824,8188,3.9644,11.5956
rg,1625399197636413207,1,-0.1641,-0.3181,0.2937,363,87.7075,230.7739,-62.3169,159,0.7424,0.4762,3.0263,-44.7716,25,0.7784,7793,3.9644,3.2277
rg,1625399197636456521,1,-0.6738,-0.2817,0.4646,364,58.8989,248.1079,-24.4751,159,0.7444,0.4862,11.1375,-43.0214,25,0.7774,8260,3.9644,-4.3515
rg,1625399197636503260,1,-0.9338,-0.4006,0.5073,365,19.9585,167.3584,-14.5264,159,0.7464,0.4992,13.4771,-44.3433,25,0.7784,8182,3.9644,-6.5354
rg,1625399197636548518,1,-0.8408,-0.5713,0.5554,366,-72.5098,-66.5894,-27.2827,159,0.7464,0.5082,12.0832,-47.0148,25,0.7774,8278,3.9644,-5.3911
rg,1625399197636665108,1,-0.2158,-0.865,0.9561,367,-135.0098,-219.2993,16.7847,159,0.7504,0.5263,6.7825,-51.0304,25,0.7794,8222,3.9644,1.8048
rg,1625399197636716866,1,0.4907,-1.2761,0.9858,368,-67.688,-226.0132,30.3345,159,0.7534,0.5483,1.3157,-53.2102,24,0.7814,7969,3.9644,9.7038
rg,1625399197636763902,1,0.5823,-1.1338,0.4717,369,25.1465,-140.2588,29.6021,159,0.7644,0.5763,-2.1135,-52.7268,24,0.7854,10822,3.9644,14.8781
rg,1625399197636809382,1,0.6848,-0.843,0.696,370,33.2031,-112.6099,15.0757,159,0.7894,0.5953,-5.2871,-51.3696,24,0.7914,8678,3.9644,17.1618
rg,1625399197636853714,1,0.6064,-0.7786,0.6509,371,48.0347,-35.5835,-15.1367,159,0.8214,0.6113,-7.6318,-49.4771,24,0.7954,8003,3.9644,17.8571
rg,1625399197636902028,1,0.5073,-0.8391,0.449,372,48.584,40.9546,3.2959,159,0.8624,0.6283,-7.2555,-47.8101,25,0.7984,8270,3.9644,16.7446
rg,1625399197636947212,1,0.2773,-0.8723,0.4158,373,47.6685,103.2104,-1.4038,159,0.9074,0.6413,-4.8551,-46.2024,25,0.7984,9609,3.9644,13.737
rg,1625399197636991933,1,0.095,-0.8442,0.4192,374,56.7017,133.606,2.0142,159,0.9245,0.6523,0.1543,-43.8637,25,0.7994,8197,3.9644,9.71
rg,1625399197637039376,1,-0.3298,-0.7334,0.5842,375,62.9272,139.3433,19.165,159,0.9315,0.6583,5.4818,-41.7839,25,0.8004,9338,3.9644,6.4886
rg,1625399197637083319,1,-0.4092,-0.5676,0.4077,376,2.1973,3.54,50.6592,159,0.8964,0.6633,7.8938,-41.9489,25,0.7994,8049,3.9644,7.8697
rg,1625399197637352109,1,-0.1047,-0.5713,0.5593,377,-111.0229,-125.061,34.8511,159,0.8304,0.6703,5.2647,-45.9943,25,0.7954,8247,3.9644,12.3573
rg,1625399197637400422,1,0.1033,-0.677,0.7478,378,-144.165,-160.1562,32.1655,159,0.7844,0.6463,1.2478,-51.6236,25,0.7894,8137,3.9644,18.0459
rg,1625399197637452754,1,0.4634,-1.0918,0.6626,379,-124.6948,-147.3389,52.4292,159,0.7514,0.5513,-1.2901,-56.8526,25,0.7834,8452,3.9644,24.0751
rg,1625399197637498475,1,0.8518,-1.0847,0.7717,380,-39.0015,-93.2617,60.2417,159,0.7504,0.5012,-2.4165,-58.4627,25,0.7874,8172,3.9644,28.5268
rg,1625399197637549419,1,0.7756,-1.1113,0.6086,381,9.2773,-23.7427,45.3491,159,0.7484,0.4722,-1.386,-58.0197,25,0.7864,8356,3.9644,28.1937
rg,1625399197637598399,1,0.5276,-1.0625,0.6155,382,4.2114,103.4546,12.207,159,0.7474,0.4582,0.3606,-57.8794,25,0.7834,8278,3.9644,24.9369
rg,1625399197637705118,1,-0.147,-0.8889,0.6873,383,35.4614,194.0308,-46.2646,159,0.7484,0.4522,3.2622,-56.4728,25,0.7814,8374,3.9644,17.4202
rg,1625399197637757635,1,-0.6399,-0.5459,0.5405,384,79.4067,126.709,-57.9224,159,0.7494,0.4572,5.6093,-53.3733,25,0.7804,8237,3.9644,11.9899
rg,1625399197991549037,1,-0.4224,-0.4084,0.5073,385,-52.124,-182.6782,-7.9346,159,0.7544,0.4812,2.1352,-54.5772,25,0.7794,25266,3.9644,17.7706
rg,1625399197991644960,1,0.2893,-1.1931,1.2366,386,-108.7036,-314.209,7.5073,159,0.7564,0.4992,-4.9156,-58.7729,25,0.7814,10053,3.9644,28.4319
rg,1625399197991698477,1,0.7739,-1.1443,0.3848,387,41.8091,-239.3799,29.9072,159,0.7704,0.5373,-9.8876,-58.6496,25,0.7864,13807,3.9644,37.3261
rg,1625399197991750679,1,0.9033,-0.7876,0.5063,388,59.5703,-162.0483,32.2876,159,0.7904,0.5593,-12.0448,-56.7126,25,0.7904,7782,3.9644,40.6719
rg,1625399197991804363,1,0.8198,-0.6953,0.4802,389,56.6406,-20.813,19.104,159,0.8184,0.5823,-13.0836,-54.6462,25,0.7954,7893,3.9644,41.781
rg,1625399197991855343,1,0.5979,-0.781,0.3855,390,43.7012,78.186,8.9722,159,0.8614,0.6043,-11.7873,-52.6806,25,0.7994,8101,3.9644,39.4626
rg,1625399197991905287,1,0.2896,-0.8813,0.4236,391,33.3862,190.7349,20.1416,159,0.9004,0.6273,-6.6656,-50.8885,25,0.8014,9671,3.9644,33.975
rg,1625399197991952248,1,-0.1873,-0.9148,0.5005,392,45.4712,239.4409,21.9116,159,0.9174,0.6383,0.7653,-49.1251,25,0.8014,7770,3.9644,27.255
rg,1625399197992001821,1,-0.3953,-0.8828,0.562,393,50.354,199.585,23.6206,159,0.9235,0.6443,7.4996,-47.7986,25,0.8034,7900,3.9644,21.8978
rg,1625399197992046987,1,-0.3833,-0.6362,0.4517,394,1.0986,52.1851,37.4756,159,0.9064,0.6523,10.7257,-48.0725,25,0.8034,7823,3.9644,21.3083
rg,1625399197992092448,1,-0.1096,-0.7212,0.6462,395,-52.7954,-3.7842,43.6401,159,0.8444,0.6593,10.8765,-51.3043,25,0.8014,8020,3.9644,23.5943
rg,1625399197992139207,1,0.0222,-0.9023,0.6375,396,-115.4175,-66.7725,44.0063,159,0.7854,0.6493,10.23,-55.4377,25,0.7964,7824,3.9644,26.8322
rg,1625399197992184613,1,0.396,-1.2747,0.6665,397,-112.1216,-88.3179,47.9736,159,0.7484,0.5543,8.9795,-59.4841,25,0.7904,8389,3.9644,30.882
rg,1625399197992232093,1,0.6489,-1.1968,0.8677,398,-6.897,-42.6025,38.147,159,0.7464,0.4992,8.2037,-59.2104,25,0.7924,7931,3.9644,33.1764
rg,1625399197992278407,1,0.6345,-1.2419,0.7422,399,60.791,4.0283,37.2925,159,0.7424,0.4722,8.3513,-56.6779,25,0.7884,8094,3.9644,33.8061
rg,1625399197992326294,1,0.7937,-1.032,0.5396,400,85.4492,65.4907,30.5176,159,0.7424,0.4552,9.2993,-53.6797,25,0.7854,7982,3.9644,32.2571
rg,1625399197992375626,1,0.1589,-0.5095,0.2051,401,140.9302,153.2593,-68.1763,159,0.7424,0.4462,9.9737,-49.7113,25,0.7854,8209,3.9644,25.5475
rg,1625399197992424033,1,-0.0813,-0.2175,0.1982,402,162.4146,195.0684,-85.083,159,0.7424,0.4482,12.9531,-44.7792,25,0.7814,7985,3.9644,17.3915
rg,1625399197992470457,1,-0.5747,0.0337,0.3113,403,136.3525,271.4844,-53.2837,159,0.7444,0.4582,21.1626,-41.199,25,0.7804,8241,3.9644,8.315
rg,1625399197992585751,1,-0.9006,0.0476,0.4814,404,-6.8359,103.3936,-2.5635,159,0.7454,0.4702,25.7589,-41.8188,25,0.7804,8078,3.9644,5.5429
rg,1625399197992647805,1,-0.9297,-0.2161,0.6184,405,-94.4824,-34.2407,-7.9956,159,0.7444,0.4842,25.6958,-44.6934,25,0.7794,8234,3.9644,6.5483
rg,1625399197992694766,1,-0.4658,-0.8555,1.1355,406,-219.4824,-273.5596,27.0386,159,0.7454,0.5042,18.8348,-49.5514,25,0.7804,8066,3.9644,16.1244
rg,1625399197992769746,1,0.5979,-1.7593,1.322,407,-112.6709,-328.3691,46.3867,159,0.7474,0.5333,10.678,-51.1983,25,0.7844,8321,3.9644,27.7273
rg,1625399197992818133,1,0.6018,-1.6646,0.6895,408,-2.7466,-265.564,56.6406,159,0.7544,0.5583,4.4781,-50.8373,25,0.7874,8225,3.9644,37.3089
rg,1625399197992864114,1,0.8494,-1.1001,0.4836,409,88.0737,-178.1616,41.5039,159,0.7764,0.5763,-0.3366,-47.5662,25,0.7904,8396,3.9644,43.7032
rg,1625399197992910298,1,0.7236,-0.6064,0.5818,410,104.126,-78.7964,-10.6812,159,0.8164,0.5973,-4.3038,-43.4348,25,0.7964,8709,3.9644,45.5996
rg,1625399197992954186,1,0.5535,-0.5825,0.2407,411,79.0405,18.1885,7.9346,159,0.8604,0.6173,-4.9297,-40.95,25,0.7964,8223,3.9644,45.3626
rg,1625399197992998944,1,0.4055,-0.6992,0.1724,412,34.9731,114.563,13.916,159,0.9034,0.6343,-2.0824,-40.5308,25,0.7984,8427,3.9644,42.874
rg,1625399197993042887,1,0.3098,-0.7161,0.23,413,22.7051,160.9497,15.8081,159,0.9225,0.6473,2.3897,-40.727,25,0.7964,8285,3.9644,39.1938
rg,1625399197993086201,1,-0.0803,-0.8149,0.6018,414,5.6763,229.9805,22.7661,159,0.9315,0.6553,9.9548,-41.5816,25,0.7974,8453,3.9644,33.7721
rg,1625399197993129514,1,-0.5847,-0.8843,0.6169,415,7.5684,127.1362,34.3628,159,0.9385,0.6603,15.356,-42.2769,25,0.8014,8363,3.9644,31.2444
rg,1625399197993172810,1,-0.2559,-0.6897,0.5435,416,-68.0542,-61.0962,45.3491,159,0.9024,0.6673,14.8741,-44.5436,25,0.8024,9088,3.9644,34.2521
rg,1625399198341559898,1,0.3899,-1.1548,0.5801,417,-137.8784,-124.1455,24.6582,159,0.7544,0.5803,11.0765,-49.7472,25,0.7904,25323,3.9644,38.5418
rg,1625399198341648692,1,0.4409,-1.2136,0.7854,418,-79.4678,-56.4575,17.5781,159,0.7484,0.4812,10.4224,-49.9432,25,0.7934,8720,3.9644,39.2278
rg,1625399198341701746,1,0.5481,-1.0254,0.4861,419,20.0195,36.6821,29.2358,159,0.7474,0.4562,10.9258,-49.7324,25,0.7924,7826,3.9644,38.7489
rg,1625399198341751763,1,0.1707,-0.9104,0.5598,420,46.0815,102.0508,-34.2407,159,0.7474,0.4522,11.7536,-49.0299,25,0.7914,7859,3.9644,34.6059
rg,1625399198341799725,1,-0.0688,-0.7456,0.5269,421,66.6504,135.5591,-38.147,159,0.7464,0.4562,13.8971,-47.746,24,0.7894,7715,3.9644,29.3575
rg,1625399198341848372,1,-0.363,-0.4685,0.4067,422,93.9331,112.0605,-29.48,159,0.7484,0.4662,16.75,-45.1429,24,0.7894,7886,3.9644,25.1535
rg,1625399198341896871,1,-0.4614,-0.3162,0.4246,423,67.5659,28.9307,-32.1655,159,0.7494,0.4802,17.622,-42.7028,24,0.7884,7738,3.9644,23.4463
rg,1625399198341940666,1,-0.4849,-0.3359,0.5249,424,29.9072,-20.9351,-26.7944,159,0.7504,0.5022,16.7755,-41.3165,24,0.7894,8056,3.9644,23.2906
rg,1625399198341989035,1,-0.2817,-0.6528,0.7681,425,-51.7578,-129.0283,3.3569,159,0.7514,0.5293,12.9947,-42.3899,25,0.7894,7751,3.9644,26.9779
rg,1625399198342032238,1,0.3049,-1.1741,1.0383,426,-49.0723,-186.2793,27.71,159,0.7554,0.5543,7.4099,-43.5201,25,0.7914,7905,3.9644,32.9143
rg,1625399198342079329,1,0.4875,-1.2979,0.8762,427,-12.3901,-169.3726,29.541,159,0.7674,0.5813,3.2103,-42.6684,25,0.7944,7762,3.9644,37.3235
rg,1625399198342205159,1,0.6125,-0.9343,0.7219,428,57.1899,-91.1255,26.4282,159,0.7924,0.6023,1.193,-39.7811,25,0.7994,10088,3.9644,39.133
rg,1625399198342259713,1,0.5974,-0.7607,0.6975,429,88.8672,-10.376,18.3105,159,0.8214,0.6193,0.1445,-36.4824,25,0.8034,7851,3.9644,39.9228
rg,1625399198342305305,1,0.4492,-0.6865,0.5308,430,83.8623,58.7158,12.3291,159,0.8644,0.6323,1.2938,-33.6908,25,0.8064,7948,3.9644,38.9432
rg,1625399198342351415,1,0.3357,-0.6858,0.448,431,70.1904,94.6655,14.8926,159,0.8984,0.6453,4.2441,-31.8106,25,0.8074,7873,3.9644,37.3591
rg,1625399198342396673,1,-0.0125,-0.6814,0.5359,432,46.4478,156.1279,15.625,159,0.9134,0.6563,9.7437,-31.0659,25,0.8064,8066,3.9644,34.5494
rg,1625399198342441913,1,-0.408,-0.6689,0.5452,433,30.5176,112.9761,10.437,159,0.9265,0.6613,14.4373,-30.9723,25,0.8084,7933,3.9644,32.4097
rg,1625399198342485430,1,-0.5081,-0.6487,0.4636,434,14.7095,49.1333,13.0615,159,0.9315,0.6633,16.9666,-31.3623,25,0.8104,8103,3.9644,31.6075
rg,1625399198346407628,1,-0.1045,-0.5901,0.5581,435,-76.5991,-99.7925,42.8467,159,0.9064,0.6693,14.1857,-34.0156,25,0.8074,7944,3.9644,35.1747
rg,1625399198346475960,1,0.3674,-0.9219,0.9263,436,-155.5786,-159.1187,21.4844,159,0.8434,0.6763,8.5226,-39.7167,25,0.8044,8087,3.9644,39.7188
rg,1625399198346530514,1,0.4373,-1.0786,0.8181,437,-149.292,-147.7051,16.2354,159,0.7924,0.6783,3.5525,-45.9633,25,0.7964,7975,3.9644,44.1746
rg,1625399198346580253,1,0.6089,-1.2058,0.4966,438,-80.2612,-45.4102,25.2686,159,0.7564,0.5623,2.0121,-49.8101,25,0.7944,11595,3.9644,46.1888
rg,1625399198346633030,1,0.4597,-1.0249,0.7708,439,-32.7759,10.437,8.2397,159,0.7504,0.5163,3.1891,-49.2899,25,0.7944,8043,3.9644,44.296
rg,1625399198346679973,1,0.4958,-1.0283,0.7856,440,20.5078,77.9419,31.25,159,0.7494,0.4932,5.2345,-48.6977,25,0.7934,8248,3.9644,42.7384
rg,1625399198346725528,1,-0.0073,-0.9912,0.4783,441,36.438,108.3984,-27.1606,159,0.7464,0.4812,7.0919,-48.2739,25,0.7914,8134,3.9644,38.6889
rg,1625399198346776563,1,-0.4253,-0.5496,0.2864,442,111.7554,98.4497,-62.1948,159,0.7464,0.4812,9.0243,-44.9125,25,0.7894,8271,3.9644,34.0537
rg,1625399198346822284,1,-0.6086,-0.3442,0.3447,443,128.9673,103.5767,-47.7295,159,0.7464,0.4962,12.4516,-40.0987,25,0.7874,8197,3.9644,29.9249
rg,1625399198346867024,1,-0.5708,-0.0774,0.3506,444,70.1904,-8.2397,13.5498,159,0.7454,0.5183,14.1664,-36.554,24,0.7854,8463,3.9644,30.7539
rg,1625399198346910430,1,-0.252,-0.3206,0.4209,445,-77.1484,-184.2041,25.4517,159,0.7464,0.5413,9.4203,-38.5454,24,0.7864,8206,3.9644,36.1559
rg,1625399198346954040,1,0.6309,-1.3367,1.7397,446,-143.3105,-250.7935,31.311,159,0.7484,0.5703,1.6458,-43.9756,24,0.7864,8329,3.9644,44.2728
rg,1625399198346996262,1,0.7041,-1.7324,1.1101,447,-84.5947,-204.2847,42.7856,159,0.7554,0.5993,-3.564,-47.9487,24,0.7874,8582,3.9644,51.3392
rg,1625399198347040186,1,0.6897,-1.4456,0.3569,448,79.9561,-106.9946,36.8042,159,0.7754,0.6163,-6.2263,-46.0708,25,0.7894,8492,3.9644,55.5343
rg,1625399198698530542,1,0.1558,-0.2834,0.2468,449,68.0542,114.3188,30.0293,159,0.8514,0.6523,-2.7858,-43.2634,25,0.8034,25204,3.9644,53.152
rg,1625399198698693760,1,0.0042,-0.5886,0.5688,450,-26.7944,128.1738,34.1797,159,0.8704,0.6663,2.1959,-44.4302,25,0.8054,11952,3.9644,50.581
rg,1625399198698748833,1,-0.2334,-1.0474,0.7002,451,-60.3027,43.2129,32.1655,159,0.8414,0.6753,2.299,-48.0236,25,0.8054,10160,3.9644,52.4307
rg,1625399198698798998,1,0.1389,-1.0361,0.7747,452,-95.8252,-85.7544,21.4844,159,0.7984,0.6813,0.4342,-51.9633,25,0.8014,7794,3.9644,55.6151
rg,1625399198698846942,1,0.322,-1.0168,0.7183,453,-82.9468,-92.6514,9.2773,159,0.7624,0.6753,-2.0292,-55.4141,25,0.7924,7824,3.9644,58.8391
rg,1625399198698893774,1,0.3923,-1.0574,0.5789,454,-75.7446,-79.3457,23.0103,159,0.7524,0.6003,-3.5917,-58.8036,25,0.7904,7746,3.9644,62.0325
rg,1625399198698939013,1,0.5938,-1.082,0.7595,455,-20.1416,-27.832,23.1934,159,0.7464,0.5333,-4.3068,-59.6092,25,0.7894,9491,3.9644,63.4641
rg,1625399198698985772,1,0.678,-1.0442,0.583,456,17.1509,46.4478,34.9731,159,0.7434,0.5082,-3.1321,-58.8966,25,0.7864,9064,3.9644,62.5679
rg,1625399198699032807,1,0.2263,-0.8042,0.4441,457,47.6074,142.5171,-28.3203,159,0.7444,0.5002,-1.504,-56.8468,25,0.7824,7984,3.9644,57.1278
rg,1625399198699079121,1,-0.3374,-0.4573,0.4678,458,66.04,183.3496,-46.1426,159,0.7444,0.5002,2.8077,-53.3488,25,0.7834,7773,3.9644,48.9281
rg,1625399198699122379,1,-0.5957,-0.4109,0.5798,459,72.1436,217.9565,-38.147,159,0.7464,0.5123,7.8323,-51.4714,25,0.7794,7952,3.9644,42.9814
rg,1625399198699166693,1,-0.855,-0.5601,0.5166,460,-18.4326,-36.9873,-20.6299,159,0.7474,0.5213,7.7475,-51.9957,25,0.7794,7894,3.9644,43.6556
rg,1625399198699212358,1,-0.6658,-0.6399,0.5779,461,-59.2041,-138.3667,-12.2681,159,0.7474,0.5343,5.1733,-53.7543,25,0.7794,7970,3.9644,47.8097
rg,1625399198699256635,1,0.1006,-0.9714,1.0342,462,-91.6748,-265.8691,25.5737,159,0.7504,0.5503,-0.3709,-56.6085,25,0.7804,7841,3.9644,57.1581
rg,1625399198699323337,1,0.6877,-1.2915,0.7395,463,-2.6245,-249.5728,41.1987,159,0.7554,0.5723,-5.3325,-57.292,25,0.7814,8016,3.9644,66.4217
rg,1625399198699380410,1,0.7673,-1.2205,0.4802,464,49.3164,-206.1157,39.2456,159,0.7714,0.5923,-9.4348,-56.6995,25,0.7844,8099,3.9644,74.2747
rg,1625399198699426520,1,0.8142,-0.8105,0.4773,465,86.9141,-89.5996,17.9443,159,0.7954,0.6093,-12.0491,-53.9308,25,0.7894,10157,3.9644,77.6713
rg,1625399198699469130,1,0.6133,-0.5022,0.4429,466,76.4771,37.1704,10.498,159,0.8234,0.6233,-11.9617,-50.506,25,0.7924,7890,3.9644,76.6555
rg,1625399198699515258,1,0.4639,-0.6223,0.3816,467,25.8179,133.728,27.6489,159,0.8524,0.6363,-8.4857,-49.1239,25,0.7954,8104,3.9644,73.2613
rg,1625399198699558628,1,0.3374,-0.751,0.4744,468,3.7231,176.8188,26.5503,89,0.8814,0.6473,-3.5599,-48.7931,24,0.7964,7947,4.0205,68.634
rg,1625399198699627830,1,-0.1636,-0.9761,0.8008,469,5.9814,233.3374,27.71,89,0.9084,0.6573,3.8136,-48.6362,24,0.7964,8195,4.0205,62.3594
rg,1625399198699672717,1,-0.6357,-1.0078,0.6436,470,52.6733,112.6099,28.3203,89,0.9225,0.6633,8.5824,-47.1044,24,0.7994,8009,4.0205,59.7517
rg,1625399198699719790,1,-0.5908,-0.8579,0.5073,471,55.9692,14.8315,29.6631,89,0.9235,0.6693,10.7038,-45.2137,24,0.8014,8242,4.0205,60.1026
rg,1625399198699762715,1,-0.1013,-0.5588,0.6072,472,-33.1421,-129.4556,41.8701,89,0.8744,0.6743,8.134,-45.614,25,0.8004,8058,4.0205,65.0562
rg,1625399198699807251,1,0.3115,-0.7781,0.6943,473,-115.4785,-188.2935,20.2637,89,0.8194,0.6813,2.7482,-49.7313,25,0.7964,8253,4.0205,71.2106
rg,1625399198699851398,1,0.3992,-0.9253,0.6379,474,-130.7983,-179.6875,8.8501,89,0.7724,0.6633,-2.2321,-55.4116,25,0.7904,8151,4.0205,77.146
rg,1625399198699896860,1,0.5361,-1.1594,0.552,475,-105.2856,-116.9434,0.8545,89,0.7504,0.5633,-5.4646,-60.1979,25,0.7864,8302,4.0205,81.1761
rg,1625399198699943433,1,0.5681,-1.0442,0.8994,476,-8.1787,-4.5776,-6.5308,89,0.7484,0.5102,-6.4452,-60.1133,25,0.7894,8217,4.0205,81.164
rg,1625399198699984821,1,0.5754,-1.0278,0.6533,477,22.644,23.6816,18.0664,89,0.7464,0.4822,-5.7402,-59.0485,25,0.7874,8215,4.0205,80.3915
rg,1625399198700057337,1,0.3887,-0.9834,0.4893,478,31.9824,59.3872,-12.7563,89,0.7434,0.4652,-5.4777,-57.7018,25,0.7854,8407,4.0205,78.096
rg,1625399198700101540,1,-0.0703,-0.6145,0.3127,479,85.144,106.2622,-44.7998,89,0.7454,0.4612,-4.1514,-54.1206,25,0.7834,8259,4.0205,73.5915
rg,1625399198700146872,1,-0.3525,-0.2786,0.4075,480,86.792,136.0474,-15.3809,89,0.7464,0.4632,0.1302,-49.8633,25,0.7834,8459,4.0205,68.9348
rg,1625399199065757987,1,-0.2676,-0.4995,0.5779,481,-88.1958,-98.8159,14.8926,89,0.7504,0.4952,-1.1054,-53.0636,25,0.7844,25575,4.0205,72.3823
rg,1625399199065889483,1,0.4775,-1.3494,0.6726,482,-5.3101,-119.5068,37.7197,89,0.7544,0.5413,-3.3645,-53.8418,25,0.7884,18056,4.0205,77.1355
rg,1625399199065944630,1,0.4922,-1.0999,0.6223,483,32.3486,-83.9844,27.6489,89,0.7614,0.5623,-5.1625,-53.0351,25,0.7894,7755,4.0205,80.5105
rg,1625399199065997833,1,0.3752,-0.6917,0.6411,484,45.105,-7.0801,14.8926,89,0.7734,0.5803,-5.5116,-51.0606,25,0.7934,7832,4.0205,81.0681
rg,1625399199066089830,1,0.2112,-0.646,0.5481,485,36.6211,8.9111,12.207,89,0.7934,0.5983,-5.2869,-49.8621,25,0.7974,7745,4.0205,80.7931
rg,1625399199066140496,1,0.1799,-0.7234,0.5764,486,26.6724,18.6157,9.8267,89,0.8184,0.6163,-4.7323,-48.8207,25,0.8024,7759,4.0205,80.4831
rg,1625399199066187217,1,0.0847,-0.8755,0.5742,487,34.3018,50.1099,31.8604,89,0.8494,0.6303,-2.4535,-47.7122,25,0.8044,8071,4.0205,79.8538
rg,1625399199066233716,1,-0.0552,-0.8838,0.5601,488,38.3911,54.5654,33.9966,89,0.8734,0.6423,-0.1765,-46.4596,25,0.8054,8036,4.0205,79.4091
rg,1625399199066279196,1,-0.0869,-0.8228,0.5549,489,38.0859,15.625,30.2124,89,0.8794,0.6513,1.3272,-45.2997,25,0.8054,7776,4.0205,79.8023
rg,1625399199066323362,1,0.1326,-0.6353,0.5303,490,-20.752,-50.5981,42.4805,89,0.8604,0.6583,0.7299,-46.259,25,0.8084,7754,4.0205,82.4364
rg,1625399199066368490,1,0.3157,-0.6558,0.6565,491,-76.5381,-81.9092,38.0859,89,0.8124,0.6653,-1.1771,-49.3323,25,0.8064,7939,4.0205,85.9074
rg,1625399199066411600,1,0.4268,-1.0195,0.6975,492,-137.2681,-83.4351,12.6953,89,0.7694,0.6433,-3.4979,-55.1532,25,0.7984,7790,4.0205,88.8972
rg,1625399199066454433,1,0.3384,-1.2388,0.5203,493,-109.4971,-34.79,30.0293,89,0.7504,0.5373,-3.6442,-60.0864,25,0.7944,7971,4.0205,90.7613
rg,1625399199066496728,1,0.5344,-1.1099,0.7019,494,-51.1475,-18.6157,33.8745,89,0.7454,0.4912,-3.5372,-62.1109,25,0.7924,7854,4.0205,92.0722
rg,1625399199066538931,1,0.7009,-1.0901,0.7295,495,15.0757,29.6631,54.8706,89,0.7434,0.4592,-1.9952,-61.2896,25,0.7894,8012,4.0205,92.0373
rg,1625399199066581652,1,0.3564,-1.1392,0.5581,496,13.4888,120.3003,-0.9155,89,0.7434,0.4492,-0.2535,-60.7541,25,0.7864,7878,4.0205,87.8038
rg,1625399199066625225,1,0.1411,-1.0483,0.604,497,28.1372,148.1934,-24.9634,89,0.7414,0.4462,1.5489,-59.6532,25,0.7814,7999,4.0205,82.1592
rg,1625399199066668261,1,-0.3479,-0.6091,0.417,498,92.2241,166.2598,-51.3916,89,0.7434,0.4502,4.2246,-56.1565,25,0.7774,7994,4.0205,75.4675
rg,1625399199066712778,1,-0.5786,-0.2913,0.4329,499,94.9097,112.4878,-41.8091,89,0.7434,0.4472,7.0546,-52.232,25,0.7744,8078,4.0205,70.9232
rg,1625399199066782462,1,-0.689,-0.262,0.4375,500,63.9648,74.2188,-30.0293,89,0.7414,0.4552,9.6335,-49.6184,25,0.7724,7928,4.0205,67.9336
rg,1625399199066827257,1,-0.6907,-0.5017,0.5305,501,-40.1001,-82.6416,2.0752,89,0.7424,0.4652,8.8523,-50.608,25,0.7724,8379,4.0205,70.5866
rg,1625399199066870867,1,-0.145,-0.9004,0.9509,502,-92.3462,-237.5488,28.9917,89,0.7404,0.4722,3.8408,-53.0954,25,0.7724,9339,4.0205,78.8611
rg,1625399199066914607,1,0.4834,-1.303,0.8923,503,-17.8223,-253.9062,43.2739,89,0.7444,0.5072,-1.5908,-53.7118,25,0.7744,10039,4.0205,88.0271
rg,1625399199066958309,1,0.6313,-1.0955,0.4746,504,39.2456,-221.3135,49.0723,89,0.7514,0.5303,-5.5656,-51.359,25,0.7764,8147,4.0205,94.9061
rg,1625399199067000864,1,0.7014,-0.9263,0.4971,505,96.0083,-139.8926,35.1562,89,0.7674,0.5483,-9.1377,-48.5252,25,0.7784,8277,4.0205,100.1383
rg,1625399199067043566,1,0.6226,-0.689,0.4814,506,90.3931,3.3569,14.4043,89,0.8154,0.5773,-9.671,-45.1622,25,0.7874,12919,4.0205,100.4353
rg,1625399199067086010,1,0.4834,-0.7629,0.3398,507,80.5664,44.7998,22.2778,89,0.8514,0.5973,-7.1438,-42.8174,25,0.7894,8915,4.0205,98.8345
rg,1625399199067127731,1,0.3701,-0.7559,0.3215,508,63.7817,132.6294,26.9775,89,0.8894,0.6113,-3.1863,-40.8652,25,0.7894,8114,4.0205,96.1721
rg,1625399199067169934,1,0.1072,-0.6897,0.5435,509,53.4668,195.4346,28.9917,89,0.9184,0.6243,3.3563,-39.1563,25,0.7904,8339,4.0205,92.0495
rg,1625399199067210433,1,-0.384,-0.6985,0.6511,510,34.4849,156.1279,27.71,89,0.9285,0.6343,9.6093,-38.4051,25,0.7914,8215,4.0205,88.9656
rg,1625399199067252543,1,-0.4644,-0.7014,0.4243,511,18.6157,71.7163,30.9448,89,0.9054,0.6423,13.1854,-38.5238,25,0.7934,8412,4.0205,88.0109
rg,1625399199067294116,1,-0.1096,-0.5461,0.533,512,-87.2803,-80.0171,27.8931,89,0.8384,0.6503,11.27,-41.6486,25,0.7884,8977,4.0205,90.9364
rg,1625399199430164620,1,0.5205,-1.0515,0.6948,513,-118.1641,-39.7339,13.9771,89,0.7544,0.5483,9.276,-46.6164,25,0.7824,26162,4.0205,92.4153
rg,1625399199430255099,1,0.3508,-1.1646,0.9604,514,-14.6484,72.6929,18.4326,89,0.7474,0.5092,10.9179,-47.6314,25,0.7824,9361,4.0205,90.737
rg,1625399199430459649,1,-0.082,-1.0654,0.759,515,5.249,76.8433,1.6479,89,0.7464,0.4822,11.7814,-47.7929,25,0.7814,12753,4.0205,87.8277
rg,1625399199430516833,1,-0.2163,-0.9287,0.6899,516,28.5034,62.8052,-33.5083,89,0.7464,0.4752,12.4272,-47.4591,25,0.7804,7823,4.0205,84.9604
rg,1625399199430568332,1,-0.3774,-0.614,0.4106,517,66.4062,19.6533,-25.3906,89,0.7474,0.4752,12.8069,-45.3963,25,0.7794,7869,4.0205,83.606
rg,1625399199430615516,1,-0.3003,-0.3689,0.3901,518,52.5513,-53.4668,-3.8452,89,0.7494,0.4852,11.8122,-42.9139,25,0.7804,7890,4.0205,85.0557
rg,1625399199430661348,1,-0.2363,-0.3269,0.4199,519,29.9683,-93.1396,6.2866,89,0.7514,0.5012,9.7009,-41.0125,25,0.7804,7996,4.0205,87.8364
rg,1625399199430708088,1,0.0642,-0.6208,0.71,520,-38.8794,-157.7759,31.311,89,0.7514,0.5193,5.2914,-41.8858,25,0.7814,8840,4.0205,93.0019
rg,1625399199430756161,1,0.3992,-1.0969,0.7991,521,-39.1846,-152.4658,43.2129,89,0.7524,0.5463,1.1751,-43.5886,25,0.7824,8568,4.0205,98.3874
rg,1625399199430803882,1,0.5354,-1.126,0.6067,522,19.7144,-98.7549,46.6919,89,0.7574,0.5683,-1.3054,-43.4474,25,0.7854,7815,4.0205,102.4462
rg,1625399199430852806,1,0.5396,-0.9915,0.5793,523,38.208,-61.0352,40.9546,89,0.7654,0.5833,-2.8824,-42.5933,25,0.7874,8013,4.0205,105.316
rg,1625399199430901231,1,0.4722,-0.7053,0.5544,524,37.9639,5.4321,27.5269,89,0.7824,0.5973,-2.9405,-41.4259,25,0.7904,7801,4.0205,105.9914
rg,1625399199430950230,1,0.3948,-0.6853,0.5105,525,13.3667,65.7349,17.7612,89,0.8044,0.6123,-1.3548,-41.2633,25,0.7954,8008,4.0205,104.8001
rg,1625399199430996340,1,0.3518,-0.7839,0.519,526,3.8452,101.1963,19.4702,89,0.8294,0.6273,1.4316,-41.6601,25,0.7994,7842,4.0205,102.7105
rg,1625399199431046561,1,0.1267,-0.9907,0.6006,527,-1.709,156.311,19.3481,89,0.8574,0.6403,6.2572,-42.6271,25,0.8014,8035,4.0205,99.0589
rg,1625399199431188780,1,-0.2795,-1.0413,0.675,528,25.7568,144.5923,11.1084,89,0.8744,0.6513,11.0448,-42.6934,25,0.8034,10057,4.0205,95.3588
rg,1625399199431254426,1,-0.3765,-0.8308,0.5754,529,11.3525,26.3062,15.1978,89,0.8564,0.6603,12.6028,-42.7611,25,0.8054,9615,4.0205,94.9937
rg,1625399199431302259,1,-0.0908,-0.6812,0.6702,530,-66.7725,-83.4961,0.9155,89,0.8144,0.6663,9.9511,-45.0542,25,0.8034,7984,4.0205,97.3705
rg,1625399199431352128,1,0.0266,-0.7336,0.7043,531,-86.6089,-107.3608,-3.1128,89,0.7724,0.6563,6.477,-48.103,25,0.7944,8113,4.0205,100.445
rg,1625399199431591918,1,0.2019,-1.0449,0.573,532,-106.2012,-108.3374,9.6436,89,0.7564,0.5693,3.4023,-52.5278,25,0.7924,8013,4.0205,104.0066
rg,1625399199431649213,1,0.3923,-1.1733,0.8079,533,-0.9766,-69.5801,9.2163,89,0.7504,0.5062,1.2821,-52.5677,25,0.7914,9360,4.0205,106.4375
rg,1625399199431705119,1,0.5789,-1.04,0.5281,534,26.1841,-15.4419,35.7056,89,0.7474,0.4712,0.9804,-51.8563,25,0.7924,8184,4.0205,107.7814
rg,1625399199431757599,1,0.4087,-0.946,0.4656,535,40.5273,28.6255,-0.6104,89,0.7454,0.4482,0.8169,-50.6808,25,0.7884,8103,4.0205,106.8525
rg,1625399199431808246,1,-0.0742,-0.5667,0.4468,536,75.3174,90.4541,-37.5366,89,0.7474,0.4402,2.2273,-47.8042,25,0.7874,8137,4.0205,103.1351
rg,1625399199432041222,1,-0.3489,-0.3008,0.3513,537,91.4917,73.4253,-22.522,89,0.7474,0.4412,4.9033,-44.0843,25,0.7864,8228,4.0205,100.447
rg,1625399199432107720,1,-0.365,-0.2263,0.3376,538,68.7866,33.0811,-11.2915,89,0.7484,0.4522,6.8635,-41.0823,25,0.7844,8344,4.0205,99.2819
rg,1625399199432163182,1,-0.3372,-0.3188,0.4788,539,-35.0342,-81.1768,-7.019,89,0.7494,0.4682,4.5218,-42.1426,25,0.7844,10155,4.0205,101.2587
rg,1625399199432228032,1,0.1099,-0.9255,1.1272,540,-116.5771,-186.2183,10.6201,89,0.7484,0.4812,-0.8212,-46.4995,25,0.7854,8352,4.0205,106.7888
rg,1625399199432275735,1,0.5696,-1.4246,0.7705,541,-39.1846,-183.7158,26.9165,89,0.7504,0.5042,-5.6577,-48.9597,25,0.7864,8777,4.0205,112.9801
rg,1625399199432327511,1,0.7117,-1.0662,0.5203,542,50.9033,-103.8208,21.1792,89,0.7554,0.5333,-8.7378,-47.8866,25,0.7894,8274,4.0205,116.7186
rg,1625399199432378362,1,0.6758,-0.8276,0.5425,543,65.2466,-48.3398,11.5356,89,0.7654,0.5603,-10.6965,-45.8592,25,0.7914,8509,4.0205,118.4955
rg,1625399199432426268,1,0.5044,-0.5786,0.4712,544,44.3726,26.6113,3.9062,89,0.7854,0.5803,-10.7374,-44.1208,25,0.7924,8324,4.0205,117.853
rg,1625399199765540644,1,0.2095,-1.0439,0.5073,545,42.2363,185.1807,19.7754,89,0.8854,0.6283,-4.8486,-42.5778,25,0.7994,25675,4.0205,113.4381
rg,1625399199765576865,1,-0.321,-0.9128,0.5876,546,82.9468,221.9849,16.6016,89,0.9124,0.6413,3.0434,-39.7308,25,0.7994,9725,4.0205,108.1651
rg,1625399199765597717,1,-0.6851,-0.6489,0.5842,547,102.1118,121.6431,19.6533,89,0.9265,0.6503,8.6418,-36.1418,25,0.8004,13790,4.0205,105.8075
rg,1625399199765618124,1,-0.3237,-0.3665,0.4436,548,17.7612,-46.814,32.7759,89,0.9034,0.6573,6.7015,-38.1477,25,0.7974,11174,4.0205,110.5317
rg,1625399199765652178,1,-0.0679,-0.5015,0.6396,549,-133.5449,-195.5566,48.0957,89,0.8294,0.6633,-0.27,-44.6829,25,0.7894,7804,4.0205,117.7828
rg,1625399199765670937,1,0.4468,-1.0352,1.072,550,-174.6826,-243.5913,22.0337,89,0.7774,0.6593,-6.6682,-52.0923,25,0.7824,8727,4.0205,125.6814
rg,1625399199765689900,1,0.7327,-1.3242,0.5032,551,-93.9331,-197.5708,36.1328,89,0.7524,0.5743,-10.8106,-57.5491,25,0.7774,7756,4.0205,133.1544
rg,1625399199765708084,1,0.8972,-0.9612,0.8162,552,4.6997,-56.3965,27.4048,89,0.7494,0.5022,-12.0321,-57.5867,25,0.7814,7964,4.0205,135.644
rg,1625399199765749380,1,0.9016,-0.8818,0.749,553,22.7661,13.4888,48.7061,89,0.7464,0.4742,-11.1012,-56.5359,25,0.7814,7780,4.0205,136.1898
rg,1625399199765769935,1,0.5715,-0.9543,0.5859,554,-7.6904,120.3003,31.9824,89,0.7454,0.4532,-8.0189,-56.3416,25,0.7814,7954,4.0205,132.8399
rg,1625399199765788675,1,0.0872,-0.9553,0.5491,555,17.2729,195.7397,-0.4272,89,0.7454,0.4482,-3.5214,-55.1359,25,0.7794,8839,4.0205,126.3468
rg,1625399199765806601,1,-0.3501,-0.6555,0.3958,556,61.7676,184.8755,-18.7378,89,0.7454,0.4532,1.2649,-52.6692,25,0.7774,10281,4.0205,119.9659
rg,1625399199765824822,1,-0.4946,-0.5298,0.418,557,67.749,149.231,-22.9492,89,0.7444,0.4622,5.5398,-50.233,25,0.7754,7856,4.0205,114.7492
rg,1625399199765842489,1,-0.6675,-0.4724,0.4297,558,28.4424,55.0537,-7.3242,89,0.7484,0.4702,8.2109,-49.242,25,0.7754,8051,4.0205,112.8879
rg,1625399199765860007,1,-0.4863,-0.6948,0.5701,559,-38.9404,-73.6084,21.6675,89,0.7474,0.4842,7.7682,-50.4404,25,0.7774,7940,4.0205,115.7154
rg,1625399199765877395,1,-0.2937,-0.8784,0.7327,560,-56.9458,-124.6948,25.6958,89,0.7464,0.5102,5.7325,-52.1536,25,0.7784,8089,4.0205,120.2844
rg,1625399199765894876,1,0.1362,-1.1572,0.741,561,-23.3765,-161.3159,23.0103,89,0.7494,0.5323,2.1153,-52.8905,25,0.7804,7923,4.0205,125.9617
rg,1625399199765912542,1,0.3135,-0.9622,0.5823,562,35.2783,-117.9199,20.5688,89,0.7574,0.5553,-0.7904,-51.6476,25,0.7834,8138,4.0205,130.181
rg,1625399199765930505,1,0.3665,-0.8481,0.6145,563,44.5557,-94.2383,17.8223,89,0.7654,0.5663,-3.3215,-50.0697,25,0.7864,8002,4.0205,133.5486
rg,1625399199765948282,1,0.405,-0.7004,0.636,564,38.5132,-64.6973,13.7939,89,0.7844,0.5773,-5.3486,-48.6127,25,0.7904,7979,4.0205,135.8629
rg,1625399199765965782,1,0.4968,-0.7559,0.625,565,29.1748,-29.2969,13.2446,89,0.8114,0.5893,-6.5639,-47.629,25,0.7964,8196,4.0205,137.0923
rg,1625399199765983504,1,0.5244,-0.8381,0.6028,566,31.6772,-0.3052,18.1885,89,0.8434,0.6053,-6.8296,-46.6487,25,0.7994,8067,4.0205,137.6154
rg,1625399199766001559,1,0.4238,-0.8745,0.4946,567,35.5835,77.8198,16.5405,89,0.8754,0.6203,-4.8417,-45.5394,25,0.7994,8205,4.0205,135.8676
rg,1625399199766019299,1,0.0874,-0.7986,0.6462,568,39.6729,135.0708,7.2021,89,0.9004,0.6313,-0.8276,-43.983,25,0.8014,8060,4.0205,132.2748
rg,1625399199766036502,1,-0.1069,-0.76,0.719,569,38.3911,136.6577,10.1929,89,0.9084,0.6403,4.0284,-42.6825,25,0.8014,8239,4.0205,128.8239
rg,1625399199766198554,1,-0.3066,-0.6543,0.5903,570,5.249,45.2271,19.7754,89,0.8984,0.6473,6.4795,-42.7202,25,0.8014,8096,4.0205,128.1593
rg,1625399199766229331,1,-0.1387,-0.7019,0.7085,571,-96.0693,-61.8286,14.4653,89,0.8474,0.6533,5.189,-46.4015,25,0.7994,8300,4.0205,130.3103
rg,1625399199766345958,1,-0.0388,-0.8286,0.7793,572,-125.3052,-98.8159,8.667,89,0.7964,0.6593,1.9523,-51.6316,25,0.7924,8202,4.0205,134.2623
rg,1625399199766380031,1,0.2214,-1.0981,0.678,573,-112.854,-140.2588,20.752,89,0.7574,0.6403,-1.1086,-56.3458,25,0.7824,8380,4.0205,139.2957
rg,1625399199766406142,1,0.498,-1.1143,0.6062,574,-56.0303,-111.6943,23.3154,89,0.7524,0.5733,-3.4822,-58.9292,25,0.7844,8303,4.0205,143.592
rg,1625399199766425937,1,0.5747,-1.1296,0.7542,575,9.8877,-14.3433,30.4565,89,0.7454,0.5283,-3.4939,-58.4934,25,0.7844,8396,4.0205,144.703
rg,1625399199766445955,1,0.3696,-1.1455,0.582,576,24.7192,60.3027,15.686,89,0.7444,0.4952,-2.189,-57.5825,25,0.7814,10754,4.0205,142.9863
rg,1625399200127278604,1,-0.552,-0.4819,0.3279,577,141.4185,100.1587,-36.6211,89,0.7424,0.4872,0.9062,-51.1811,25,0.7754,25403,4.0205,140.3866
rg,1625399200127335399,1,-0.6543,-0.1104,0.2732,578,129.0283,19.7144,9.0942,89,0.7444,0.5032,2.1257,-47.1423,25,0.7734,9093,4.0205,142.9711
rg,1625399200127367491,1,-0.1709,-0.1909,0.2898,579,-70.2515,-221.8018,46.9971,89,0.7434,0.5223,-1.412,-49.4077,25,0.7734,10870,4.0205,150.8399
rg,1625399200127387639,1,0.9246,-1.0686,1.7744,580,-182.4341,-301.1475,69.2749,89,0.7434,0.5423,-7.2389,-56.8973,25,0.7744,7806,4.0205,162.1544
rg,1625399200127406435,1,1.0713,-1.5833,1.3376,581,-116.8823,-215.0879,66.7114,89,0.7454,0.5653,-9.9648,-63.4585,25,0.7774,7833,4.0216,171.139
rg,1625399200127424601,1,0.8577,-1.4097,0.1946,582,40.9546,-70.1904,51.2695,89,0.7504,0.5813,-10.2203,-63.0429,25,0.7794,7779,4.0216,-185.2764
rg,1625399200127443156,1,0.7024,-0.6362,0.6326,583,55.7861,82.8247,-3.0518,89,0.7604,0.5893,-9.826,-59.7144,25,0.7824,7742,4.0216,-188.429
rg,1625399200127461396,1,0.2744,-0.4395,0.5027,584,9.7046,179.9927,3.2959,89,0.7864,0.6023,-6.5163,-57.7626,25,0.7844,11622,4.0216,165.2912
rg,1625399200127479600,1,0.1335,-0.6145,0.5083,585,-26.7334,197.2046,0.4883,89,0.8154,0.6173,-2.4197,-58.9356,25,0.7924,7759,4.0216,158.5686
rg,1625399200127498655,1,-0.1431,-1.2156,0.9075,586,-42.1753,172.4854,0.8545,89,0.8444,0.6293,1.3755,-60.3267,25,0.7934,7909,4.0216,152.6189
rg,1625399200127517117,1,-0.4478,-1.2571,0.5078,587,48.2178,87.5244,9.3994,89,0.8764,0.6403,4.1174,-58.8119,25,0.7954,7823,4.0216,149.787
rg,1625399200127535469,1,-0.4211,-1.0669,0.4565,588,80.6885,43.335,5.7983,89,0.9004,0.6493,5.8257,-55.7201,25,0.7954,7858,4.0216,148.4633
rg,1625399200127553320,1,-0.2334,-0.6042,0.521,589,76.0498,-35.8276,16.7847,89,0.8984,0.6553,5.9434,-52.2633,25,0.7954,8022,4.0216,150.066
rg,1625399200127570727,1,0.0164,-0.4443,0.4412,590,-31.4941,-96.8628,34.729,89,0.8624,0.6623,4.4135,-52.8722,25,0.7954,7883,4.0216,154.0358
rg,1625399200127587930,1,0.1104,-0.5664,0.54,591,-93.0786,-110.5957,25.6348,89,0.8134,0.6693,2.2086,-56.0758,25,0.7904,8038,4.0216,158.2723
rg,1625399200127606356,1,0.2124,-0.9768,0.821,592,-126.1597,-108.9478,18.7988,89,0.7724,0.6663,0.1292,-60.7745,25,0.7834,7902,4.0216,162.4056
rg,1625399200127635226,1,0.4092,-1.1973,0.5571,593,-76.4771,-114.0137,38.6963,89,0.7504,0.5853,-1.2715,-64.0247,25,0.7784,9390,4.0216,167.1787
rg,1625399200127653522,1,0.5999,-1.0247,0.6897,594,28.0151,-64.3921,31.7383,89,0.7454,0.5253,-2.2295,-62.6973,25,0.7794,9463,4.0216,170.0301
rg,1625399200127671021,1,0.7666,-0.9312,0.6726,595,36.8042,-34.729,50.4761,89,0.7434,0.4972,-1.5425,-61.4177,25,0.7774,8226,4.0216,169.934
rg,1625399200127688169,1,0.2517,-0.8655,0.6714,596,24.1699,109.1919,-10.7422,89,0.7424,0.4772,-0.2484,-60.0208,25,0.7754,12243,4.0216,165.8939
rg,1625399200127705613,1,-0.2705,-0.5928,0.4365,597,35.3394,148.6816,-21.2402,89,0.7434,0.4732,3.0364,-57.6066,25,0.7734,8146,4.0216,159.9608
rg,1625399200127723316,1,-0.439,-0.4866,0.4539,598,68.5425,139.9536,-18.7378,89,0.7434,0.4772,6.6437,-54.9362,25,0.7714,8047,4.0216,154.9207
rg,1625399200127741056,1,-0.5815,-0.3738,0.4719,599,31.3721,51.1475,-4.5776,89,0.7454,0.4872,9.0659,-53.4454,25,0.7714,8253,4.0216,153.2133
rg,1625399200127762093,1,-0.4504,-0.5869,0.6033,600,-56.2134,-84.3506,6.3477,89,0.7474,0.4972,8.0568,-54.919,25,0.7714,8077,4.0216,156.1801
rg,1625399200127780204,1,-0.2192,-0.8223,0.802,601,-84.6558,-141.7236,14.0381,89,0.7484,0.5143,5.5002,-57.3285,25,0.7724,8286,4.0216,161.287
rg,1625399200127798314,1,0.2886,-1.2627,0.854,602,-49.9268,-179.8706,19.7754,89,0.7474,0.5363,1.7647,-58.8419,25,0.7754,8272,4.0216,167.8362
rg,1625399200127816536,1,0.4551,-1.0266,0.4956,603,25.3296,-111.4502,25.1465,89,0.7524,0.5593,-0.6022,-57.9704,25,0.7774,8337,4.0216,-187.8535
rg,1625399200127833647,1,0.4797,-0.874,0.4951,604,40.1001,-66.8335,19.8364,89,0.7584,0.5773,-1.7474,-56.4263,25,0.7804,8209,4.0216,-186.7611
rg,1625399200127852146,1,0.3623,-0.6833,0.4971,605,28.0151,3.0518,6.7749,89,0.7734,0.5903,-2.2863,-55.2077,25,0.7814,8300,4.0216,-186.725
rg,1625399200127964662,1,0.2998,-0.7747,0.5513,606,13.0005,39.4897,2.3804,89,0.8014,0.6083,-1.9018,-54.6066,25,0.7864,8358,4.0216,-187.9725
rg,1625399200128027253,1,0.2061,-0.9666,0.6062,607,33.6914,90.0879,19.5312,89,0.8324,0.6243,0.5039,-53.3479,25,0.7914,8263,4.0216,169.5652
rg,1625399200128050179,1,0.1274,-1.0107,0.6089,608,46.0815,101.4404,24.4141,89,0.8664,0.6373,3.697,-51.7757,25,0.7934,8592,4.0216,166.9264
rg,1625399200486985404,1,-0.1584,-0.5754,0.5981,609,61.0962,-4.1504,23.3154,89,0.9174,0.6553,4.5897,-48.9661,25,0.7964,25054,4.0216,167.6775
rg,1625399200487088365,1,0.1057,-0.5906,0.6333,610,-28.9917,-77.2705,33.8135,89,0.8864,0.6643,2.7965,-49.7569,24,0.7964,12969,4.0216,170.928
rg,1625399200487110790,1,0.3047,-0.9766,0.7666,611,-132.9346,-88.623,0.8545,89,0.8084,0.6713,0.032,-55.0584,24,0.7884,12558,4.0216,-186.2152
rg,1625399200487132845,1,0.3013,-1.1018,0.6724,612,-119.9341,-79.4067,6.6528,89,0.7684,0.6413,-1.3812,-59.1197,24,0.7804,7740,4.0216,-183.7147
rg,1625399200487151456,1,0.3381,-1.0488,0.5134,613,-64.27,-44.8608,12.6953,89,0.7554,0.5603,-2.3933,-61.916,24,0.7794,7630,4.0216,-181.8846
rg,1625399200487169604,1,0.3772,-0.9297,0.7925,614,2.4414,19.165,16.5405,89,0.7504,0.5183,-2.031,-61.3264,24,0.7794,7860,4.0216,-182.2725
rg,1625399200487189807,1,0.4163,-1.0039,0.6943,615,-1.0986,31.8604,32.5928,89,0.7474,0.4932,-0.9381,-61.1199,24,0.7774,7648,4.0216,-182.7789
rg,1625399200487210936,1,0.1289,-1.1875,0.6321,616,5.7983,75.3784,-1.5259,89,0.7454,0.4722,0.278,-60.8932,24,0.7754,9301,4.0216,-185.4499
rg,1625399200487228917,1,-0.2625,-0.9373,0.4995,617,53.833,105.2856,-25.3296,89,0.7454,0.4622,2.0329,-58.8547,25,0.7754,8323,4.0216,170.4086
rg,1625399200487249194,1,-0.5291,-0.5039,0.3542,618,110.2905,65.8569,-36.8042,89,0.7464,0.4662,3.6546,-54.4708,25,0.7724,12081,4.0216,167.4609
rg,1625399200487266916,1,-0.5312,-0.2095,0.3298,619,78.8574,-23.9868,-10.8643,89,0.7474,0.4712,4.4728,-50.7708,25,0.7704,8314,4.0216,168.0576
rg,1625399200487284860,1,-0.2803,-0.2939,0.3433,620,-21.6064,-147.8882,11.1694,89,0.7494,0.4842,2.1566,-50.9977,25,0.7714,8342,4.0216,-187.0294
rg,1625399200487303656,1,0.3442,-0.9268,1.2051,621,-82.4585,-202.8198,19.5923,89,0.7504,0.4982,-3.2662,-55.1329,24,0.7724,8349,4.0216,-178.7341
rg,1625399200487381506,1,0.6223,-1.3455,1.1624,622,-82.3364,-221.8628,29.9683,89,0.7514,0.5253,-7.6773,-58.9606,24,0.7744,8205,4.0216,-170.6041
rg,1625399200487407191,1,0.7129,-1.2434,0.4202,623,34.9731,-121.6431,36.9873,89,0.7564,0.5513,-9.7206,-58.7316,24,0.7764,8806,4.0216,-165.5647
rg,1625399200487427820,1,0.6389,-0.7468,0.5781,624,52.3071,7.6294,11.9019,89,0.7694,0.5683,-10.0932,-56.4121,24,0.7784,8584,4.0216,-165.6294
rg,1625399200487446708,1,0.5176,-0.5923,0.5864,625,40.4663,52.063,5.9814,89,0.7904,0.5853,-9.3956,-54.1013,25,0.7834,7884,4.0216,-167.3214
rg,1625399200487465689,1,0.3599,-0.6926,0.5969,626,12.6343,93.9331,0.8545,89,0.8194,0.6033,-7.6247,-52.9533,25,0.7874,8414,4.0216,-170.3991
rg,1625399200487484022,1,0.2024,-0.9834,0.6689,627,1.2817,127.5024,12.0239,89,0.8514,0.6193,-4.259,-52.6075,25,0.7904,7950,4.0216,-174.1838
rg,1625399200487502355,1,0.0479,-1.0544,0.6433,628,15.9302,133.8501,12.3901,89,0.8824,0.6303,-0.2257,-52.0628,25,0.7924,7953,4.0216,-178.1067
rg,1625399200487521095,1,-0.2415,-0.925,0.6028,629,52.8564,96.3745,8.9111,89,0.9044,0.6423,2.9472,-50.1949,25,0.7914,8524,4.0216,-180.8801
rg,1625399200487538928,1,-0.3433,-0.6392,0.5547,630,57.8613,20.2637,16.4185,89,0.9114,0.6513,4.7137,-47.8436,25,0.7934,8474,4.0216,-181.0442
rg,1625399200487558150,1,-0.1448,-0.427,0.4556,631,-29.2358,-84.5337,40.6494,89,0.8774,0.6573,4.0128,-48.5422,25,0.7934,8971,4.0216,-177.4133
rg,1625399200487576261,1,0.2808,-0.7336,0.8398,632,-148.5596,-165.9546,24.8413,89,0.8224,0.6653,-0.038,-53.9759,25,0.7904,8068,4.0216,-171.5648
rg,1625399200487594316,1,0.302,-0.9976,0.8445,633,-150.6348,-161.5601,10.1318,89,0.7774,0.6443,-3.6845,-60.5239,25,0.7854,8608,4.0216,-165.8862
rg,1625399200487611778,1,0.3928,-1.1489,0.4365,634,-78.9795,-129.5166,35.7056,89,0.7514,0.5553,-5.343,-64.4014,25,0.7764,8116,4.0216,-160.5815
rg,1625399200487629630,1,0.7102,-0.8652,0.6375,635,1.1597,-90.5151,39.856,89,0.7484,0.5002,-6.5288,-64.3983,25,0.7784,8715,4.0216,-156.6452
rg,1625399200487647407,1,0.7627,-0.947,0.5662,636,10.3149,2.8076,58.2275,89,0.7454,0.4752,-5.4584,-63.8971,25,0.7774,8513,4.0216,-155.7615
rg,1625399200487665647,1,0.6113,-1.0623,0.5457,637,0.6714,61.7065,41.5039,89,0.7424,0.4592,-3.7291,-63.6996,25,0.7744,8317,4.0216,-157.2644
rg,1625399200487683147,1,0.2146,-1.0796,0.5498,638,22.2168,151.4893,-0.8545,89,0.7404,0.4552,-1.2944,-62.533,25,0.7714,8575,4.0216,-162.6985
rg,1625399200487716868,1,-0.1953,-0.6284,0.438,639,63.1714,168.2129,-33.8135,89,0.7434,0.4562,1.3526,-59.7193,25,0.7704,8288,4.0216,-169.2288
rg,1625399200487737683,1,-0.3894,-0.4888,0.5471,640,60.6079,156.311,-41.3208,89,0.7454,0.4672,4.1643,-57.4437,25,0.7684,8258,4.0216,-174.3328
rg,1625399200850424708,1,-0.2598,-0.9558,0.8867,641,-56.6406,-147.522,10.7422,89,0.7474,0.5032,1.2698,-59.085,25,0.7684,27307,4.0216,-169.0513
rg,1625399200850489818,1,0.3931,-1.0276,0.7463,642,-24.292,-191.1621,20.3247,89,0.7584,0.5383,-2.0719,-58.9408,25,0.7714,9188,4.0216,-162.4174
rg,1625399200850524447,1,0.6343,-0.9509,0.6599,643,19.043,-105.835,27.2827,89,0.7844,0.5683,-4.3464,-58.2727,25,0.7754,10347,4.0216,-158.2418
rg,1625399200850555927,1,0.634,-0.95,0.6035,644,37.5366,-11.5356,10.8643,89,0.8134,0.5843,-5.1856,-56.7889,25,0.7804,7640,4.0216,-157.6355
rg,1625399200850586538,1,0.5608,-0.9365,0.489,645,49.8657,30.1514,10.1929,89,0.8474,0.6043,-5.0553,-54.9142,25,0.7834,7809,4.0216,-158.4106
rg,1625399200850616389,1,0.2773,-0.8232,0.3882,646,67.0776,106.9946,9.7046,89,0.8804,0.6153,-2.6951,-52.378,25,0.7844,8012,4.0216,-161.6202
rg,1625399200850645722,1,-0.1006,-0.6729,0.5474,647,67.3218,153.0151,21.7285,89,0.9004,0.6283,2.17,-49.6012,25,0.7864,8176,4.0216,-165.8274
rg,1625399200850675313,1,-0.4243,-0.55,0.459,648,23.9258,52.7954,33.4473,89,0.8864,0.6363,5.6327,-48.7031,25,0.7884,10772,4.0216,-166.5463
rg,1625399200850704368,1,-0.324,-0.4556,0.3474,649,-25.2686,-36.1938,36.8042,89,0.8384,0.6453,4.2636,-51.417,24,0.7874,8251,4.0216,-162.5694
rg,1625399200850733256,1,-0.051,-0.4978,0.561,650,-112.793,-153.8696,21.6064,89,0.8004,0.6503,1.2971,-55.2551,24,0.7824,8087,4.0216,-157.081
rg,1625399200850760571,1,0.5044,-1.1289,0.8955,651,-132.4463,-192.1387,40.0391,89,0.7694,0.5973,-2.1994,-60.4555,24,0.7784,8306,4.0216,-149.6973
rg,1625399200850788663,1,0.6545,-1.2966,0.6353,652,-85.6323,-181.5186,41.1987,89,0.7644,0.5393,-4.6401,-61.9288,24,0.7814,7831,4.0216,-144.0714
rg,1625399200850843550,1,0.8711,-1.1653,0.4878,653,23.3154,-60.3638,36.3159,89,0.7574,0.5052,-5.632,-61.4146,25,0.7794,7993,4.0216,-141.2416
rg,1625399200850875123,1,0.6345,-0.9333,0.4795,654,14.5264,112.0605,20.752,89,0.7554,0.4852,-3.7304,-60.5806,25,0.7804,8230,4.0216,-144.7849
rg,1625399200850904049,1,0.335,-0.9348,0.6108,655,11.8408,178.2227,-8.4229,89,0.7544,0.4732,-0.0707,-59.588,25,0.7794,7995,4.0216,-153.1073
rg,1625399200850933604,1,-0.3186,-0.8093,0.5437,656,23.5596,247.9248,-35.0342,89,0.7534,0.4702,4.4673,-58.8629,25,0.7774,7869,4.0216,-162.3284
rg,1625399200850963325,1,-0.8433,-0.6809,0.4224,657,68.2983,161.6211,-44.3726,89,0.7524,0.4742,7.8993,-56.7936,25,0.7774,8646,4.0216,-168.7436
rg,1625399200850992010,1,-0.7996,-0.3916,0.4038,658,60.3027,64.8193,-36.0718,89,0.7554,0.4852,8.165,-54.9894,25,0.7754,8095,4.0216,-168.2762
rg,1625399200851019916,1,-0.5884,-0.3684,0.4243,659,-3.7231,-109.375,-3.8452,89,0.7554,0.4952,6.9324,-54.282,25,0.7754,7931,4.0216,-164.6918
rg,1625399200851049342,1,0.0361,-0.7576,0.8564,660,-93.0786,-235.3516,23.8037,89,0.7584,0.5153,2.0982,-56.8334,25,0.7764,8488,4.0216,-156.3074
rg,1625399200851078841,1,0.5894,-1.3159,0.8171,661,-39.0015,-247.3145,21.3013,89,0.7614,0.5393,-3.313,-58.5236,25,0.7794,8757,4.0216,-147.4981
rg,1625399200851107711,1,0.7134,-1.2341,0.5188,662,15.3198,-203.9795,31.0059,89,0.7684,0.5643,-7.6458,-58.9795,25,0.7814,8248,4.0216,-139.8306
rg,1625399200851134895,1,0.8657,-0.8826,0.5327,663,47.5464,-67.4438,26.4282,89,0.7824,0.5783,-9.3703,-57.486,25,0.7844,8076,4.0216,-136.9696
rg,1625399200851327335,1,0.5486,-0.7168,0.5059,664,49.7437,47.3022,4.6997,89,0.8284,0.6043,-8.2117,-55.1065,25,0.7894,12932,4.0216,-139.8274
rg,1625399200851371260,1,0.4822,-0.8308,0.5557,665,39.0625,126.4038,9.6436,89,0.8664,0.6233,-5.6403,-53.1031,25,0.7904,8119,4.0216,-143.742
rg,1625399200851406685,1,0.1611,-0.9541,0.5452,666,50.0488,185.1196,18.5547,89,0.8984,0.6373,-0.6487,-51.079,25,0.7894,8264,4.0216,-149.1161
rg,1625399200851434703,1,-0.3396,-0.8677,0.5505,667,86.1206,183.4106,23.3154,89,0.9174,0.6453,5.5157,-48.09,25,0.7894,10377,4.0216,-154.0792
rg,1625399200851467795,1,-0.5466,-0.5842,0.5137,668,95.52,68.7866,30.4565,89,0.9275,0.6503,9.4004,-44.4298,25,0.7904,8531,4.0216,-155.2021
rg,1625399200851500127,1,-0.3306,-0.3933,0.3181,669,13.6108,-85.2661,47.5464,89,0.9325,0.6543,9.1923,-43.485,25,0.7924,9689,4.0216,-151.4392
rg,1625399200851759658,1,-0.0955,-0.4814,0.4553,670,-61.8896,-136.0474,62.6221,89,0.8974,0.6593,6.3598,-45.0836,25,0.7904,8192,4.0216,-145.7712
rg,1625399200851822286,1,0.3914,-0.9194,0.9595,671,-166.0156,-183.5938,42.4805,89,0.8334,0.6663,1.8838,-51.1728,25,0.7824,8481,4.0216,-139.1143
rg,1625399200851854748,1,0.54,-1.3616,0.5776,672,-104.8584,-139.2822,34.3628,89,0.7984,0.6543,-1.1439,-55.8869,25,0.7784,8436,4.0216,-133.8075
rg,1625399201200342639,1,0.2859,-0.7029,0.7639,673,0.2441,118.5303,14.7095,89,0.7514,0.4852,1.4371,-55.3682,25,0.7724,26484,4.0216,-137.4097
rg,1625399201200384360,1,-0.0222,-1.144,0.7603,674,-21.7896,123.1689,14.4043,89,0.7504,0.4652,4.6323,-56.4657,25,0.7724,9688,4.0216,-141.1794
rg,1625399201200406045,1,-0.3647,-0.8376,0.5269,675,63.1104,23.2544,-47.1191,89,0.7514,0.4602,4.2208,-54.1267,25,0.7714,16763,4.0216,-143.0081
rg,1625399201200425915,1,-0.3484,-0.5823,0.5432,676,70.5566,-7.5073,-45.7764,89,0.7534,0.4662,3.3411,-51.0964,25,0.7714,7669,4.0216,-143.8362
rg,1625399201200444340,1,-0.2839,-0.3535,0.5122,677,34.8511,-36.6821,-19.4702,89,0.7564,0.4772,2.6329,-49.0741,25,0.7704,7706,4.0216,-143.1538
rg,1625399201200462266,1,-0.1243,-0.543,0.6013,678,1.5259,-62.3169,-9.0332,89,0.7584,0.4872,0.3753,-49.8922,25,0.7714,7703,4.0216,-140.3322
rg,1625399201200480006,1,0.0049,-0.709,0.6858,679,-46.875,-119.5068,4.1504,89,0.7614,0.5022,-2.5241,-51.6667,25,0.7734,8134,4.0216,-136.5173
rg,1625399201200497617,1,0.312,-0.9717,0.8054,680,-35.3394,-129.1504,18.5547,89,0.7664,0.5233,-5.5046,-53.3346,25,0.7744,9919,4.0216,-131.9505
rg,1625399201200518672,1,0.5691,-1.0261,0.8079,681,-11.1084,-95.2148,31.6772,89,0.7804,0.5523,-7.4231,-54.1436,25,0.7794,7855,4.0216,-128.1075
rg,1625399201200558467,1,0.6235,-1.0366,0.7981,682,-1.8311,-61.0962,31.9214,89,0.8024,0.5773,-7.6159,-53.9932,25,0.7834,7744,4.0216,-126.8256
rg,1625399201200578541,1,0.6082,-1.0596,0.689,683,21.1792,26.8555,31.0669,89,0.8324,0.5993,-6.6879,-53.2264,25,0.7874,7908,4.0216,-126.9526
rg,1625399201200597392,1,0.4224,-1.0198,0.5532,684,48.9502,102.478,25.4517,89,0.8784,0.6233,-3.9177,-51.3255,25,0.7924,11215,4.0216,-129.566
rg,1625399201200615633,1,-0.2024,-0.7778,0.4895,685,81.665,158.9966,17.9443,89,0.9154,0.6383,1.3434,-48.209,25,0.7944,12012,4.0216,-133.9269
rg,1625399201200633095,1,-0.3975,-0.6663,0.5161,686,82.1533,139.4653,18.1274,89,0.9255,0.6453,6.5841,-45.3102,25,0.7954,8385,4.0216,-137.4846
rg,1625399201200650576,1,-0.5452,-0.4795,0.3362,687,47.8516,1.2817,17.4561,89,0.9275,0.6503,8.4545,-43.6087,25,0.7974,8017,4.0216,-137.0275
rg,1625399201200669243,1,-0.2383,-0.4426,0.2886,688,-90.21,-143.7988,43.9453,89,0.8824,0.6573,6.3046,-46.9894,25,0.7944,7884,4.0216,-131.7458
rg,1625399201200686835,1,0.0381,-0.5535,0.5869,689,-157.5928,-217.4683,42.2974,89,0.8264,0.6623,1.6694,-52.5879,25,0.7894,8060,4.0216,-123.9764
rg,1625399201200704871,1,0.4956,-1.2583,0.8015,690,-151.5503,-239.624,14.8926,89,0.7864,0.6353,-3.9562,-58.9765,25,0.7844,7945,4.0216,-115.7017
rg,1625399201200722464,1,0.6799,-1.2446,0.2615,691,-53.7109,-156.0669,37.6587,89,0.7574,0.5333,-6.6128,-62.3325,25,0.7794,9191,4.0216,-109.4296
rg,1625399201200740167,1,0.8301,-0.8276,0.5642,692,-15.3809,-93.6279,42.4194,89,0.7544,0.4892,-6.623,-61.1681,25,0.7824,8448,4.0216,-108.8487
rg,1625399201200757796,1,0.7622,-0.79,0.532,693,24.7803,65.1855,44.6167,89,0.7494,0.4662,-5.0037,-59.8646,25,0.7794,8237,4.0216,-110.2927
rg,1625399201200775018,1,0.3931,-1.0186,0.5657,694,-5.7373,169.2505,18.9819,89,0.7484,0.4542,-1.5106,-59.8094,25,0.7774,8018,4.0216,-115.7779
rg,1625399201200792221,1,-0.1177,-0.9343,0.3904,695,34.5459,237.0605,-12.9395,89,0.7484,0.4512,3.1619,-58.8419,25,0.7784,8263,4.0216,-124.1773
rg,1625399201200810091,1,-0.3884,-0.7734,0.4207,696,60.0586,233.9478,-28.8696,88,0.7464,0.4542,7.887,-57.3564,25,0.7754,8083,4.0216,-132.7502
rg,1625399201200827332,1,-0.7744,-0.4697,0.4961,697,76.0498,130.6763,-31.189,88,0.7494,0.4642,11.2301,-54.7785,25,0.7744,8258,4.0216,-137.7627
rg,1625399201200845461,1,-0.7283,-0.3374,0.3997,698,30.3955,-23.1323,-2.5024,88,0.7494,0.4762,12.1652,-53.0662,25,0.7754,8123,4.0216,-136.9605
rg,1625399201200862738,1,-0.553,-0.4236,0.4424,699,-21.5454,-97.0459,16.9067,88,0.7504,0.4912,11.5175,-52.9,25,0.7754,8279,4.0216,-133.3072
rg,1625399201200892071,1,0.0261,-0.968,0.999,700,-91.3086,-219.1772,28.5034,88,0.7494,0.5102,6.8259,-54.9327,25,0.7754,8125,4.0216,-125.3791
rg,1625399201200910385,1,0.429,-1.2554,0.708,701,-15.8691,-219.2993,28.0762,88,0.7554,0.5363,1.8571,-55.1733,25,0.7784,8311,4.0216,-117.5565
rg,1625399201200929459,1,0.5408,-1.1155,0.4998,702,20.9961,-184.3262,37.7197,88,0.7614,0.5573,-1.2544,-54.1071,25,0.7814,8245,4.0216,-112.2251
rg,1625399201200969273,1,0.7053,-0.8228,0.6042,703,28.3813,-75.0122,25.2075,88,0.7844,0.5773,-3.46,-53.0745,25,0.7864,9407,4.0216,-109.2233
rg,1625399201200989180,1,0.5718,-0.7532,0.5542,704,24.9634,15.3809,12.0239,88,0.8154,0.6013,-3.6067,-52.2277,25,0.7914,10133,4.0216,-109.4223
rg,1625399201570212639,1,0.0149,-1.0034,0.551,705,46.3867,129.2725,11.1084,88,0.9074,0.6423,0.0541,-50.6026,25,0.7964,25536,4.0216,-113.1712
rg,1625399201570263989,1,-0.2854,-0.8728,0.5381,706,70.5566,101.7456,12.6953,88,0.9275,0.6543,3.1895,-47.8543,25,0.7974,11229,4.0216,-114.6426
rg,1625399201570348098,1,-0.3025,-0.4961,0.3804,707,31.9214,-33.1421,31.189,88,0.9285,0.6613,4.0829,-46.6203,25,0.7984,10432,4.0216,-112.816
rg,1625399201570385616,1,-0.0398,-0.5869,0.5361,708,-20.0806,-74.0356,39.1846,88,0.8814,0.6663,2.3578,-49.6932,25,0.7964,7821,4.0216,-108.3493
rg,1625399201570414264,1,0.1443,-0.791,0.7678,709,-128.2349,-145.1416,33.8135,88,0.8254,0.6693,-0.4995,-54.561,25,0.7904,7851,4.0216,-102.9174
rg,1625399201570443004,1,0.3303,-1.218,0.6555,710,-109.4971,-148.8037,18.4937,88,0.7824,0.6493,-3.6041,-59.3878,25,0.7844,7835,4.0216,-97.501
rg,1625399201570471373,1,0.4553,-1.043,0.5032,711,-48.2788,-96.1914,19.7144,88,0.7474,0.5373,-5.4867,-61.7788,25,0.7754,9067,4.0216,-93.7259
rg,1625399201570499002,1,0.5085,-0.8616,0.5774,712,-26.062,-63.1714,23.0103,88,0.7444,0.4612,-5.7999,-61.8596,25,0.7754,9160,4.0216,-92.6098
rg,1625399201570526539,1,0.4226,-0.8391,0.7505,713,0.9155,36.8042,20.1416,88,0.7414,0.4372,-4.9814,-61.2185,25,0.7754,7746,4.0216,-93.5861
rg,1625399201570578389,1,0.272,-1.147,0.6592,714,-19.2261,70.3735,19.5923,88,0.7434,0.4072,-3.2242,-61.779,25,0.7744,7901,4.0216,-95.7013
rg,1625399201570606889,1,0.1052,-1.1802,0.5505,715,-3.2959,94.1772,-2.9297,88,0.7424,0.4032,-1.6197,-61.881,25,0.7734,7818,4.0216,-99.0779
rg,1625399201570633777,1,-0.1719,-0.7422,0.3596,716,46.5698,88.1348,-36.5601,88,0.7434,0.3982,-0.6733,-60.0203,25,0.7714,7984,4.0216,-102.8577
rg,1625399201570660925,1,-0.3123,-0.3318,0.345,717,54.5654,38.7573,-38.0859,88,0.7454,0.4032,0.0897,-57.2911,24,0.7714,7793,4.0216,-104.9443
rg,1625399201570687350,1,-0.3418,-0.2664,0.3501,718,34.9121,12.6343,-24.5972,88,0.7464,0.4112,0.9417,-55.281,24,0.7704,7840,4.0216,-105.8796
rg,1625399201570712960,1,-0.2336,-0.5525,0.5356,719,-40.7715,-62.0117,6.0425,88,0.7504,0.4312,0.3849,-56.5167,24,0.7714,7842,4.0216,-103.6861
rg,1625399201570739071,1,0.0784,-1.1897,0.9417,720,-57.4951,-123.1079,12.146,88,0.7514,0.4432,-1.9555,-58.6667,24,0.7714,7888,4.0216,-99.2619
rg,1625399201570765718,1,0.3145,-1.0417,0.5906,721,1.5869,-128.7842,28.1982,88,0.7574,0.4702,-4.1398,-58.9251,24,0.7754,11133,4.0216,-94.2619
rg,1625399201570792403,1,0.415,-0.9421,0.5747,722,14.1602,-107.7271,32.959,88,0.7674,0.4942,-6.0561,-58.5968,24,0.7784,8118,4.0216,-89.8919
rg,1625399201570819180,1,0.5593,-0.9111,0.6562,723,13.2446,-37.9639,28.8086,88,0.7864,0.5293,-6.6581,-58.1115,24,0.7834,7939,4.0216,-88.007
rg,1625399201570845106,1,0.4617,-1.0786,0.5889,724,21.9116,30.3955,16.2964,88,0.8144,0.5573,-6.0088,-57.2696,25,0.7904,8401,4.0216,-88.6867
rg,1625399201570870938,1,0.3418,-1.0693,0.5522,725,37.2925,58.2886,15.8081,88,0.8434,0.5793,-3.5698,-55.036,25,0.7944,8026,4.0216,-91.2407
rg,1625399201570896438,1,0.0295,-0.9089,0.5205,726,70.5566,110.2295,20.1416,88,0.8684,0.5993,-0.2526,-52.3092,25,0.7954,8224,4.0216,-94.3093
rg,1625399201570922122,1,-0.2625,-0.7278,0.4873,727,78.3081,75.0122,18.0054,88,0.8814,0.6123,2.8472,-49.3622,25,0.7984,8040,4.0216,-96.1668
rg,1625399201570948399,1,-0.3645,-0.6296,0.436,728,64.0259,28.1372,16.3574,88,0.8634,0.6233,3.6223,-48.5428,25,0.7984,8068,4.0216,-94.4889
rg,1625399201570989121,1,-0.1641,-0.4692,0.4363,729,-47.1802,-102.356,24.4751,88,0.8224,0.6283,2.1367,-50.1699,25,0.7954,8264,4.0216,-90.7377
rg,1625399201571015657,1,0.1902,-0.9319,0.7791,730,-100.2808,-180.1758,7.5684,88,0.7924,0.6253,-2.4438,-54.1769,25,0.7904,8101,4.0216,-84.8472
rg,1625399201571041805,1,0.4897,-1.2148,0.5601,731,-48.2788,-163.269,19.3481,88,0.7644,0.5633,-6.1604,-56.9409,25,0.7844,8869,4.0216,-78.9759
rg,1625399201571066860,1,0.614,-1.1147,0.4878,732,-15.625,-141.6626,24.0479,88,0.7554,0.5072,-9.1453,-58.602,25,0.7804,8187,4.0216,-73.5764
rg,1625399201571093007,1,0.6697,-0.8481,0.5872,733,19.5923,-11.1084,22.3999,88,0.7494,0.4832,-9.533,-57.8358,25,0.7784,8384,4.0216,-72.7455
rg,1625399201571118451,1,0.4465,-0.9707,0.6365,734,2.5635,88.7451,24.1699,88,0.7504,0.4682,-7.2811,-57.3126,25,0.7784,8182,4.0216,-75.2699
rg,1625399201571192746,1,0.2559,-1.0845,0.6619,735,2.5024,120.5444,10.3149,88,0.7494,0.4562,-4.2573,-56.4931,25,0.7764,8412,4.0216,-79.9252
rg,1625399201571225986,1,-0.1091,-1.1116,0.6492,736,25.2686,128.6011,-12.5122,88,0.7484,0.4482,-1.4527,-55.3723,25,0.7744,8275,4.0216,-84.4624
rg,1625399201922999791,1,-0.5618,-0.2993,0.323,737,87.5244,-58.8989,9.7656,88,0.7514,0.4372,-0.7106,-51.6088,25,0.7714,25427,4.0216,-82.2772
rg,1625399201923069974,1,-0.1914,-0.2329,0.2576,738,-3.0518,-200.7446,28.2593,88,0.7534,0.4432,-3.6564,-51.6614,25,0.7704,9278,4.0216,-75.2766
rg,1625399201923091752,1,0.3362,-0.7034,0.8916,739,-101.6846,-301.5747,30.2734,88,0.7574,0.4472,-10.2073,-56.4956,25,0.7694,12674,4.0216,-64.7682
rg,1625399201923112899,1,0.7395,-1.1882,0.4663,740,-44.4336,-241.6992,31.1279,88,0.7614,0.4522,-14.9183,-60.6644,25,0.7714,11067,4.0216,-55.5655
rg,1625399201923201286,1,0.843,-0.8005,0.2639,741,11.2915,-92.8345,37.1094,88,0.7644,0.4552,-16.5354,-61.6341,25,0.7714,7827,4.0216,-51.3542
rg,1625399201923222952,1,0.6233,-0.5532,0.4343,742,-6.5918,44.0674,26.1841,88,0.7674,0.4592,-15.7473,-61.2792,25,0.7724,7873,4.0216,-52.5468
rg,1625399201923241952,1,0.4705,-0.6467,0.5273,743,-31.3721,76.9653,21.6675,88,0.7694,0.4622,-14.0709,-61.5357,25,0.7734,7670,4.0216,-55.0276
rg,1625399201923260192,1,0.2151,-1.0657,0.6772,744,-48.7671,104.126,22.522,88,0.7724,0.4662,-11.1687,-62.579,25,0.7734,7842,4.0216,-58.4158
rg,1625399201923278377,1,0.0344,-1.0845,0.5774,745,-9.4604,79.834,17.6392,88,0.7754,0.4692,-8.7058,-62.4785,25,0.7744,9077,4.0216,-60.9735
rg,1625399201923296617,1,-0.0195,-0.9871,0.5803,746,0.4272,53.2227,14.3433,88,0.7784,0.4742,-6.811,-62.0393,25,0.7754,7957,4.0216,-62.6379
rg,1625399201923315024,1,-0.0059,-0.8835,0.5715,747,5.5542,-3.479,14.5264,88,0.7824,0.4752,-6.0824,-61.6519,25,0.7754,7766,4.0216,-62.2632
rg,1625399201923332987,1,0.1465,-0.918,0.5559,748,3.2959,-38.208,15.7471,88,0.7864,0.4762,-6.3155,-61.5726,25,0.7764,7819,4.0216,-60.6228
rg,1625399201923350209,1,0.1902,-0.9216,0.5393,749,5.8594,-44.8608,15.8081,88,0.7884,0.4772,-6.7576,-61.4655,24,0.7764,7984,4.0216,-58.7413
rg,1625399201923366912,1,0.2476,-0.9219,0.5024,750,13.7329,-40.0391,13.855,88,0.7924,0.4792,-7.2914,-61.1075,24,0.7734,7825,4.0216,-57.0605
rg,1625399201923384949,1,0.2339,-0.8696,0.4849,751,18.3105,-30.9448,13.7329,88,0.7954,0.4802,-7.4582,-60.3488,24,0.7784,7999,4.0216,-55.9409
rg,1625399201923403041,1,0.2322,-0.8459,0.4961,752,24.353,-19.165,16.1133,88,0.7964,0.4802,-7.5129,-59.4638,24,0.7774,7850,4.0216,-54.9545
rg,1625399201923420466,1,0.2163,-0.7922,0.4771,753,27.0996,-21.1182,20.0806,88,0.7984,0.4852,-7.4745,-58.4959,25,0.7784,8078,4.0216,-53.8148
rg,1625399201923451114,1,0.1982,-0.7646,0.4861,754,27.2827,-16.1133,24.353,88,0.7994,0.4852,-7.1799,-57.4933,25,0.7784,8868,4.0216,-52.7534
rg,1625399201923469743,1,0.1692,-0.7729,0.5034,755,26.7944,-9.3994,30.2734,88,0.7994,0.4842,-6.4949,-56.505,25,0.7774,8172,4.0216,-51.7798
rg,1625399201923487835,1,0.165,-0.7793,0.5791,756,26.001,-8.8501,32.7148,88,0.8004,0.4832,-5.6858,-55.4765,25,0.7774,7989,4.0216,-50.6393
rg,1625399201923505650,1,0.178,-0.7744,0.5789,757,25.8789,-13.7329,40.4053,88,0.7994,0.4832,-4.8638,-54.4697,25,0.7764,8164,4.0216,-49.2712
rg,1625399201923523112,1,0.229,-0.8157,0.6062,758,22.1558,-15.1978,41.4429,88,0.8004,0.4832,-4.1865,-53.6464,25,0.7754,8374,4.0216,-47.812
rg,1625399201923540353,1,0.2358,-0.8552,0.5867,759,21.1792,-10.498,36.7432,88,0.7994,0.4822,-3.5988,-52.9452,25,0.7734,10730,4.0216,-46.5952
rg,1625399201923557463,1,0.1802,-0.8599,0.6028,760,23.6206,-3.2959,30.3345,88,0.8004,0.4802,-2.9589,-52.1177,25,0.7734,8172,4.0216,-45.7517
rg,1625399201923575000,1,0.1121,-0.8584,0.604,761,25.8179,-2.3804,26.4282,88,0.8004,0.4792,-2.4183,-51.1716,25,0.7744,8293,4.0216,-44.9678
rg,1625399201923592444,1,0.0811,-0.8499,0.6265,762,27.771,-10.3149,22.522,88,0.7994,0.4772,-2.0598,-50.1823,25,0.7724,8140,4.0216,-44.0756
rg,1625399201923610092,1,0.0542,-0.8162,0.5745,763,29.1748,-22.1558,18.2495,88,0.8004,0.4732,-2.1144,-49.2329,25,0.7704,8337,4.0216,-42.921
rg,1625399201923627369,1,0.0454,-0.781,0.5369,764,27.832,-31.6772,16.2354,88,0.8004,0.4702,-2.4801,-48.4138,25,0.7734,8205,4.0216,-41.5293
rg,1625399201923661053,1,0.0308,-0.7749,0.5493,765,27.0386,-37.6587,15.686,88,0.7984,0.4682,-2.9906,-47.6445,25,0.7704,8428,4.0216,-39.9762
rg,1625399201923683034,1,0.0996,-0.7542,0.5513,766,25.2075,-53.0396,25.6348,88,0.7974,0.4662,-3.7896,-47.005,25,0.7714,8219,4.0216,-37.7048
rg,1625399201923701071,1,0.2124,-0.7974,0.5928,767,20.9351,-65.4297,27.0996,88,0.8004,0.4672,-5.1073,-46.6117,25,0.7714,8441,4.0216,-35.0312
rg,1625399201923718497,1,0.2659,-0.801,0.6025,768,21.6675,-65.3076,28.5034,88,0.8004,0.4682,-6.382,-46.2505,25,0.7714,8284,4.0216,-32.3724
rg,1625399202263021727,1,0.2395,-0.8662,0.6003,769,23.4375,-7.019,20.0806,88,0.8014,0.4672,-6.2544,-45.7383,25,0.7704,25336,4.0216,-31.5725
rg,1625399202263062800,1,0.1465,-0.8491,0.6277,770,26.5503,-3.54,15.686,88,0.8004,0.4682,-5.9732,-45.0328,25,0.7694,9389,4.0216,-30.9968
rg,1625399202263083170,1,0.1047,-0.8354,0.6067,771,29.0527,-20.4468,14.7705,88,0.7994,0.4682,-6.1529,-44.3128,25,0.7694,7995,4.0216,-29.9609
rg,1625399202263103170,1,0.1255,-0.7864,0.575,772,32.959,-38.0859,12.207,88,0.7994,0.4652,-6.9547,-43.5234,25,0.7684,10972,4.0216,-28.5026
rg,1625399202263124021,1,0.1143,-0.7786,0.5828,773,33.3862,-39.978,11.5356,88,0.7994,0.4642,-7.7923,-42.7473,25,0.7684,7774,4.0216,-27.0134
rg,1625399202263141799,1,0.0972,-0.7578,0.5637,774,35.6445,-43.7012,11.1694,88,0.7994,0.4632,-8.704,-41.9539,25,0.7694,7813,4.0216,-25.4309
rg,1625399202263159502,1,0.085,-0.7212,0.573,775,33.2031,-51.4526,10.9863,88,0.7994,0.4602,-9.8096,-41.2771,25,0.7684,9952,4.0216,-23.6526
rg,1625399202263176576,1,0.1392,-0.7551,0.5896,776,29.2969,-70.4346,16.1133,88,0.7994,0.4612,-11.4401,-40.9629,25,0.7684,8679,4.0216,-21.1983
rg,1625399202263193483,1,0.208,-0.741,0.592,777,28.6255,-79.5898,19.043,88,0.8004,0.4612,-13.5312,-40.8142,25,0.7674,7936,4.0216,-18.3901
rg,1625399202263210390,1,0.3591,-0.7703,0.603,778,27.832,-89.4775,18.3105,88,0.8004,0.4602,-16.0124,-40.8835,25,0.7674,7915,4.0216,-15.2939
rg,1625399202263228223,1,0.4326,-0.7732,0.582,779,31.6162,-73.3032,17.8223,88,0.8014,0.4562,-18.0792,-40.8226,25,0.7674,7839,4.0216,-12.5964
rg,1625399202263245463,1,0.4438,-0.7817,0.5913,780,31.4941,-60.9741,15.8691,88,0.8014,0.4542,-19.7595,-40.7251,25,0.7654,7952,4.0216,-10.2613
rg,1625399202263263370,1,0.4011,-0.8064,0.6287,781,35.4004,-31.3721,11.1084,88,0.8004,0.4532,-20.4964,-40.1681,25,0.7644,8834,4.0216,-8.8851
rg,1625399202263280721,1,0.2944,-0.8159,0.6694,782,43.7622,-14.2212,13.5498,88,0.8024,0.4522,-20.401,-39.1284,25,0.7654,8008,4.0216,-7.9035
rg,1625399202263297647,1,0.2559,-0.7896,0.6467,783,47.4243,-13.4888,14.8926,88,0.8024,0.4512,-20.2067,-37.9489,25,0.7654,8040,4.0216,-6.7824
rg,1625399202263328905,1,0.2004,-0.7502,0.6333,784,50.7202,-19.5312,17.4561,88,0.8014,0.4492,-20.0723,-36.7828,25,0.7644,8071,4.0216,-5.5148
rg,1625399202263348349,1,0.1707,-0.6936,0.5801,785,53.9551,-27.71,20.5688,88,0.8034,0.4482,-20.1231,-35.6532,25,0.7654,8166,4.0216,-3.9186
rg,1625399202263366071,1,0.155,-0.6621,0.5984,786,54.5654,-32.959,19.8364,88,0.8024,0.4482,-20.6233,-34.5756,25,0.7654,8084,4.0216,-2.031
rg,1625399202263384238,1,0.1499,-0.6619,0.6099,787,54.3213,-53.1006,20.5078,88,0.8014,0.4462,-21.489,-33.6531,25,0.7634,8061,4.0216,0.1664
rg,1625399202263401589,1,0.2092,-0.6802,0.6089,788,55.2368,-78.186,20.6909,88,0.8034,0.4462,-23.3158,-33.0369,25,0.7614,8081,4.0216,2.9997
rg,1625399202263419163,1,0.2715,-0.7183,0.6716,789,56.1523,-88.2568,18.0054,88,0.8034,0.4452,-25.7904,-32.4923,25,0.7634,8070,4.0216,6.0754
rg,1625399202263437051,1,0.2886,-0.707,0.7002,790,59.5093,-92.7734,17.334,88,0.8034,0.4442,-28.1813,-31.961,25,0.7614,8150,4.0216,9.1979
rg,1625399202263454866,1,0.3066,-0.7,0.7214,791,62.561,-83.1909,17.7612,88,0.8044,0.4422,-30.2018,-31.2987,25,0.7624,8109,4.0216,12.1464
rg,1625399202263472347,1,0.3069,-0.676,0.7366,792,63.1714,-68.0542,20.752,88,0.8014,0.4402,-31.5967,-30.5321,25,0.7624,8307,4.0216,14.8635
rg,1625399202263489309,1,0.2847,-0.676,0.7368,793,63.1104,-61.6455,23.9868,88,0.8044,0.4392,-32.6381,-29.8473,25,0.7624,8186,4.0216,17.5971
rg,1625399202263506531,1,0.2993,-0.6687,0.739,794,62.3169,-50.354,29.541,88,0.8034,0.4362,-33.1963,-29.219,25,0.7604,8280,4.0216,20.3105
rg,1625399202263523753,1,0.3237,-0.6482,0.7446,795,61.5845,-41.2598,33.5083,88,0.8034,0.4342,-33.415,-28.584,25,0.7604,8238,4.0216,22.9657
rg,1625399202263540438,1,0.3037,-0.6033,0.7202,796,59.6924,-31.189,30.3345,88,0.8034,0.4322,-33.3468,-27.8033,25,0.7604,10422,4.0216,25.24
rg,1625399202263557771,1,0.2886,-0.5891,0.7339,797,56.1523,-27.4658,29.3579,88,0.8034,0.4282,-33.1549,-27.0693,25,0.7604,8505,4.0216,27.3692
rg,1625399202263587844,1,0.2817,-0.5684,0.7427,798,54.5044,-31.4941,30.1514,88,0.8034,0.4242,-33.1262,-26.4037,25,0.7594,8444,4.0216,29.5782
rg,1625399202263630102,1,0.3276,-0.5676,0.7698,799,52.9175,-42.2363,31.6162,88,0.8024,0.4252,-33.5298,-25.9727,25,0.7594,8329,4.0216,32.0785
rg,1625399202263651991,1,0.3948,-0.5952,0.8306,800,50.1099,-50.9033,33.6304,88,0.8044,0.4202,-34.285,-25.8096,25,0.7584,8453,4.0216,34.8497
rg,1625399202633969302,1,0.4846,-0.6182,0.8523,801,43.5181,-35.6445,41.9312,88,0.8044,0.4172,-34.2163,-25.9655,25,0.7574,25266,4.0216,37.6168
rg,1625399202634007005,1,0.4087,-0.6216,0.8345,802,40.8936,-16.8457,43.5791,88,0.8044,0.4192,-33.4507,-25.9943,25,0.7574,16242,4.0216,39.91
rg,1625399202634027449,1,0.3772,-0.6143,0.8098,803,38.7573,-12.0239,39.7339,88,0.8054,0.4192,-32.7378,-25.9819,25,0.7564,7763,4.0216,42.103
rg,1625399202634046708,1,0.3169,-0.6003,0.7986,804,37.7808,-16.5405,35.0952,88,0.8044,0.4172,-32.1362,-25.9436,25,0.7564,7929,4.0216,44.2067
rg,1625399202634065578,1,0.2576,-0.5769,0.7698,805,37.2314,-23.1934,31.311,88,0.8044,0.4172,-31.7644,-25.8976,25,0.7554,7753,4.0216,46.2743
rg,1625399202634083485,1,0.2217,-0.5623,0.759,806,36.9263,-27.9541,29.9072,88,0.8054,0.4142,-31.4868,-25.8622,24,0.7554,7838,4.0216,48.3664
rg,1625399202634100429,1,0.199,-0.5554,0.7866,807,36.1938,-41.1987,31.311,88,0.8054,0.4132,-31.654,-25.9722,24,0.7544,8340,4.0216,50.758
rg,1625399202634117484,1,0.2795,-0.5723,0.7942,808,33.6304,-62.7441,34.9121,88,0.8054,0.4132,-32.6688,-26.5489,24,0.7534,8973,4.0216,53.7812
rg,1625399202634133798,1,0.3655,-0.5908,0.8083,809,35.1562,-68.3594,35.8887,84,0.8064,0.4112,-33.9564,-27.2208,24,0.7544,7835,4.0249,57.0257
rg,1625399202634151224,1,0.4009,-0.5605,0.7959,810,37.9028,-64.9414,38.0859,84,0.8054,0.4102,-35.0903,-27.8098,25,0.7524,8122,4.0249,60.3215
rg,1625399202634168520,1,0.4358,-0.5671,0.7944,811,36.438,-49.1333,38.8184,84,0.8074,0.4102,-35.6514,-28.3208,25,0.7524,7860,4.0249,63.3337
rg,1625399202634185816,1,0.3965,-0.5867,0.7827,812,37.2925,-31.189,33.3252,84,0.8074,0.4102,-35.5803,-28.4769,25,0.7534,7973,4.0249,65.7313
rg,1625399202634203390,1,0.3311,-0.5803,0.8625,813,39.6118,-25.0244,31.7993,84,0.8064,0.4072,-34.9636,-28.1741,25,0.7524,8500,4.0249,67.7556
rg,1625399202634286814,1,0.3047,-0.5608,0.8887,814,42.5415,-16.9678,35.8887,84,0.8054,0.4052,-34.1515,-27.7548,25,0.7514,7990,4.0249,69.7924
rg,1625399202634309535,1,0.3096,-0.5542,0.9353,815,40.7715,-9.0942,39.1846,84,0.8064,0.4052,-33.0319,-27.2922,25,0.7504,7910,4.0249,71.7389
rg,1625399202634329090,1,0.3608,-0.5571,0.9053,816,38.8184,-4.2725,46.6309,84,0.8074,0.4052,-31.7683,-27.0335,25,0.7514,8037,4.0249,73.9009
rg,1625399202634348201,1,0.3965,-0.5435,0.8772,817,37.2314,1.77,47.9126,84,0.8064,0.4042,-30.4122,-26.7595,25,0.7504,7982,4.0249,75.9657
rg,1625399202634368423,1,0.4136,-0.5371,0.8105,818,36.0718,13.6108,45.8374,84,0.8074,0.4022,-28.8174,-26.3923,25,0.7494,8074,4.0249,77.7128
rg,1625399202634386311,1,0.3347,-0.52,0.7324,819,40.4663,17.1509,37.4756,84,0.8074,0.4042,-27.2224,-25.7056,25,0.7514,8015,4.0249,79.0774
rg,1625399202634404218,1,0.2878,-0.5164,0.7251,820,42.0532,10.0708,32.5317,84,0.8054,0.4032,-25.9456,-24.9353,25,0.7494,8080,4.0249,80.3879
rg,1625399202634421051,1,0.1665,-0.4768,0.6775,821,50.8423,-14.3433,27.2827,84,0.8074,0.4042,-26.0486,-23.8793,25,0.7504,8004,4.0249,82.2487
rg,1625399202634438940,1,0.1772,-0.4944,0.8357,822,58.8989,-46.4478,27.6489,84,0.8084,0.4012,-27.0889,-22.7744,25,0.7494,9438,4.0249,84.7904
rg,1625399202634456976,1,0.2395,-0.575,0.9937,823,61.8286,-65.4907,40.9546,84,0.8084,0.4002,-28.2807,-21.9427,25,0.7484,8718,4.0249,87.7798
rg,1625399202634473717,1,0.4358,-0.5422,1.0576,824,70.1294,-51.8188,65.0635,84,0.8084,0.3982,-28.9219,-21.0984,25,0.7484,8180,4.0249,91.5119
rg,1625399202634493513,1,0.5742,-0.4917,1.0632,825,66.2231,-3.479,84.2285,84,0.8084,0.3972,-27.7446,-20.3304,25,0.7484,8109,4.0249,95.2194
rg,1625399202634511605,1,0.6416,-0.4753,1.0664,826,62.3169,26.8555,90.5762,84,0.8074,0.3972,-25.5425,-19.5102,25,0.7474,8071,4.0249,98.6826
rg,1625399202634529697,1,0.6121,-0.4712,1.0139,827,48.2178,95.52,85.083,84,0.8054,0.3962,-20.961,-18.6324,25,0.7454,9848,4.0249,100.9029
rg,1625399202634549011,1,0.3281,-0.47,0.998,828,35.4614,145.5688,66.3452,84,0.8074,0.3952,-14.4578,-17.7009,25,0.7454,8134,4.0249,101.7299
rg,1625399202634578159,1,0.0059,-0.5391,1.0386,829,26.3062,147.8882,51.8188,84,0.8064,0.3962,-7.673,-17.0791,25,0.7464,8159,4.0249,102.0377
rg,1625399202634596066,1,-0.1106,-0.5518,1.022,830,25.2686,129.0894,42.2363,84,0.8074,0.3982,-1.5961,-16.5144,25,0.7454,8402,4.0249,102.2201
rg,1625399202634614121,1,-0.2305,-0.5588,1.0457,831,19.5312,65.2466,29.7852,84,0.8064,0.3992,1.7268,-16.1786,25,0.7444,8226,4.0249,102.6403
rg,1625399202634631491,1,-0.1992,-0.5674,0.9668,832,16.6016,-18.6157,25.1465,84,0.8094,0.3992,1.624,-16.0275,25,0.7454,8555,4.0249,103.7983
rg,1625399203007157512,1,0.2041,-0.5049,0.8169,833,22.8271,-82.6416,22.583,84,0.8114,0.3992,-1.8276,-15.7155,25,0.7454,27169,4.0249,105.554
rg,1625399203007198456,1,0.2412,-0.4915,0.8816,834,26.4282,-56.3354,26.7944,84,0.8124,0.3992,-4.1629,-15.256,25,0.7454,8984,4.0249,107.2061
rg,1625399203007219085,1,0.2346,-0.4736,0.8975,835,30.3345,-22.9492,34.9731,84,0.8124,0.3972,-5.0376,-14.6527,25,0.7454,11958,4.0249,108.8329
rg,1625399203007238751,1,0.1858,-0.4736,0.9221,836,32.5317,5.188,44.2505,84,0.8134,0.3982,-4.6058,-13.9786,25,0.7454,8146,4.0249,110.5433
rg,1625399203007274417,1,0.127,-0.4639,0.926,837,36.377,22.7051,45.4712,84,0.8134,0.3982,-3.3977,-13.1269,25,0.7454,7764,4.0249,112.1401
rg,1625399203007293546,1,0.0676,-0.4624,0.9473,838,36.8042,26.4282,44.0063,84,0.8134,0.3992,-1.9973,-12.2318,25,0.7454,7872,4.0249,113.6557
rg,1625399203007312064,1,-0.0002,-0.4399,0.8728,839,37.9639,14.4653,36.499,84,0.8134,0.3972,-1.0577,-11.3182,25,0.7454,7731,4.0249,114.9871
rg,1625399203007330175,1,-0.0359,-0.4417,0.8506,840,37.5366,-1.3428,32.5928,84,0.8134,0.3982,-1.3817,-10.4837,25,0.7454,8025,4.0249,116.1165
rg,1625399203007348749,1,-0.0154,-0.4287,0.8474,841,38.4521,-51.6357,14.0991,84,0.8144,0.3972,-3.2202,-9.6236,25,0.7454,7901,4.0249,117.0503
rg,1625399203007366563,1,0.0144,-0.4231,0.8506,842,38.7573,-68.7866,10.376,84,0.8134,0.3962,-5.7717,-8.8009,25,0.7444,7925,4.0249,117.9422
rg,1625399203007384303,1,0.0864,-0.428,0.8582,843,40.8325,-94.8486,5.127,84,0.8144,0.3962,-9.976,-7.9109,25,0.7444,10629,4.0249,118.8521
rg,1625399203007414506,1,0.2007,-0.4307,0.8948,844,44.7998,-109.8633,5.127,84,0.8154,0.3942,-14.3629,-6.9835,25,0.7444,8028,4.0249,119.7647
rg,1625399203007433025,1,0.3132,-0.4438,0.9512,845,46.5698,-99.2432,7.6904,84,0.8154,0.3942,-18.3688,-6.0484,25,0.7444,7942,4.0249,120.7283
rg,1625399203007450635,1,0.3516,-0.4373,0.9922,846,47.7295,-85.5103,8.9111,84,0.8154,0.3942,-21.1121,-5.066,25,0.7444,8076,4.0249,121.7921
rg,1625399203007467542,1,0.3503,-0.4397,1.0278,847,48.7671,-51.5747,16.1133,84,0.8154,0.3932,-22.9963,-4.1742,25,0.7444,7945,4.0249,122.9297
rg,1625399203007484820,1,0.3391,-0.427,1.0537,848,45.7764,-17.2729,19.7754,84,0.8144,0.3932,-23.415,-3.4337,25,0.7434,8148,4.0249,124.1267
rg,1625399203007501708,1,0.2388,-0.4263,1.0654,849,40.5273,5.8594,19.5312,84,0.8134,0.3922,-22.7209,-2.906,25,0.7444,8728,4.0249,125.268
rg,1625399203007518782,1,0.134,-0.3972,1.0793,850,35.8276,9.9487,15.625,84,0.8134,0.3922,-21.7029,-2.4494,25,0.7444,9802,4.0249,126.2073
rg,1625399203007535781,1,0.0962,-0.3901,1.0891,851,33.02,1.4038,13.916,84,0.8124,0.3922,-20.9973,-2.0702,25,0.7424,8022,4.0249,127.0735
