name,time,activity,ax,ay,az,batch_val,gx,gy,gz,ibat,index,middle,pitch,roll,temp,thumb,ts,vbat,yaw
rg,1625424653675276242,1,0.0933,-0.0286,1.0876,1,0.8545,2.8687,18.7988,98,1.1376,1.1906,-14.7981,-5.8783,28,0.8424,20040,4.0216,69.7943
rg,1625424653675307237,1,0.0576,-0.0061,1.0889,2,-2.8687,2.8687,20.9351,98,1.1366,1.1906,-14.1341,-5.9762,28,0.8414,8581,4.0216,70.5832
rg,1625424653675327969,1,0.052,-0.0022,1.0845,3,-6.0425,-3.0518,24.4751,98,1.1366,1.1906,-13.715,-6.2532,28,0.8404,7927,4.0216,71.5474
rg,1625424653675347718,1,0.061,-0.0178,1.0886,4,-10.8643,-10.0708,24.292,98,1.1366,1.1906,-13.5893,-6.7137,28,0.8404,7948,4.0216,72.5343
rg,1625424653675366764,1,0.0647,-0.0549,1.1143,5,-17.0898,-17.334,22.7051,98,1.1366,1.1906,-13.7562,-7.4744,28,0.8414,7941,4.0216,73.5098
rg,1625424653675385421,1,0.075,-0.0771,1.135,6,-18.5547,-20.6909,20.874,98,1.1366,1.1906,-14.0629,-8.2984,28,0.8404,7940,4.0216,74.441
rg,1625424653675403262,1,0.0967,-0.1187,1.1619,7,-17.8223,-27.3438,16.6626,98,1.1376,1.1906,-14.6687,-9.1167,28,0.8394,7967,4.0216,75.2649
rg,1625424653675420121,1,0.1179,-0.1035,1.1899,8,-15.686,-36.377,16.9678,98,1.1366,1.1906,-15.6292,-9.816,28,0.8404,8174,4.0216,76.1615
rg,1625424653675447448,1,0.1592,-0.0901,1.2234,9,-17.334,-38.6353,17.334,98,1.1366,1.1896,-16.6967,-10.5522,28,0.8384,7981,4.0216,77.0927
rg,1625424653675465716,1,0.2305,-0.0312,1.2576,10,-18.1885,-29.6631,23.3154,98,1.1366,1.1896,-17.4363,-11.2541,28,0.8394,8062,4.0216,78.1768
rg,1625424653675484076,1,0.2966,0.0369,1.2915,11,-27.771,-10.6812,29.1748,98,1.1376,1.1896,-17.4511,-12.2274,28,0.8384,8200,4.0216,79.3074
rg,1625424653675501528,1,0.3198,0.0388,1.3035,12,-34.729,1.1597,29.3579,98,1.1366,1.1896,-17.0172,-13.4051,28,0.8384,8073,4.0216,80.3252
rg,1625424653675518739,1,0.3425,0.0391,1.2878,13,-54.2603,36.7432,25.6348,98,1.1366,1.1896,-15.2823,-15.1512,28,0.8374,8260,4.0216,80.8027
rg,1625424653675535580,1,0.2261,-0.0117,1.271,14,-73.9746,73.8525,19.104,98,1.1366,1.1916,-12.0582,-17.492,28,0.8364,8113,4.0216,80.541
rg,1625424653675552588,1,0.1272,-0.043,1.2844,15,-82.9468,83.9844,14.4043,98,1.1366,1.1926,-8.3061,-20.1521,28,0.8354,8134,4.0216,79.8658
rg,1625424653675569521,1,-0.0652,-0.1184,1.2837,16,-91.6748,82.0312,10.1318,98,1.1366,1.1926,-4.6924,-23.1207,28,0.8334,8146,4.0216,78.9271
rg,1625424653675586362,1,-0.2126,-0.1697,1.2742,17,-93.5669,46.6309,5.6763,98,1.1366,1.1926,-2.3664,-26.2094,28,0.8324,8354,4.0216,78.2877
rg,1625424653675603240,1,-0.2407,-0.179,1.2717,18,-93.689,18.0054,4.1504,98,1.1366,1.1936,-2.1818,-29.2557,28,0.8304,8163,4.0216,78.6375
rg,1625424653675620600,1,-0.2119,-0.2075,1.2664,19,-92.9565,-41.5649,5.6152,98,1.1366,1.1936,-3.0408,-32.2386,28,0.8284,8227,4.0216,79.6429
rg,1625424653675638182,1,-0.1091,-0.2134,1.2166,20,-92.2241,-80.1392,9.0332,98,1.1366,1.1946,-5.184,-35.1991,28,0.8264,8193,4.0216,81.6778
rg,1625424653675655152,1,-0.0117,-0.2141,1.1753,21,-91.4307,-105.5298,13.3057,98,1.1366,1.1946,-8.0254,-38.2183,28,0.8254,8297,4.0216,84.5581
rg,1625424653675672234,1,0.0439,-0.21,1.1506,22,-92.5903,-115.0513,16.1133,98,1.1356,1.1946,-10.9356,-41.4021,28,0.8234,8332,4.0216,87.8939
rg,1625424653675689501,1,0.1406,-0.2327,1.0989,23,-94.0552,-124.0845,19.2261,98,1.1356,1.1956,-13.9191,-44.8821,28,0.8214,8379,4.0216,91.7269
rg,1625424653675716587,1,0.0488,-0.8022,0.2378,24,106.3232,64.27,-12.3901,226,0.8514,0.7083,-12.0461,-41.2586,28,0.7434,8629,3.9545,89.8307
rg,1625424653675734410,1,-0.0327,-0.6858,0.2278,25,109.8633,75.5005,-8.3618,226,0.8684,0.7414,-9.2428,-38.2728,28,0.7454,8675,3.9545,87.919
rg,1625424653675751547,1,-0.2334,-0.5,0.3132,26,43.8232,63.1714,-5.249,226,0.8494,0.7584,-6.2384,-37.002,28,0.7464,8890,3.9545,86.3206
rg,1625424653675769351,1,-0.2405,-0.4192,0.4121,27,-69.7632,-30.7007,9.6436,226,0.8074,0.7644,-5.8724,-40.1979,28,0.7474,8089,3.9545,87.4004
rg,1625424653675785859,1,0.0603,-0.6978,0.5999,28,-150.8789,-139.5264,24.292,226,0.7524,0.6683,-9.1256,-47.1667,28,0.7434,10875,3.9545,92.025
rg,1625424653675802755,1,0.6255,-1.2668,0.7456,29,-175.9644,-172.4243,61.2183,226,0.7214,0.5263,-12.0107,-55.9296,28,0.7384,8553,3.9545,99.1617
rg,1625424653675819485,1,0.8809,-1.5188,0.6772,30,-74.2188,-65.4907,86.853,226,0.7153,0.4572,-11.0679,-60.0617,28,0.7474,9183,3.9545,103.3947
rg,1625424653675836252,1,0.8472,-1.5164,0.5488,31,13.4888,11.8408,85.144,226,0.7113,0.4252,-7.9038,-57.3816,28,0.7464,8796,3.9545,103.0162
rg,1625424653675852740,1,0.6138,-0.9387,0.395,32,103.6987,82.8247,48.8892,226,0.7083,0.3992,-5.3269,-53.3736,28,0.7424,9048,3.9545,101.392
rg,1625424654031692411,1,-0.3184,-0.123,0.3125,33,51.8188,148.4985,-33.0811,226,0.7143,0.4092,-1.0276,-50.1258,28,0.7364,25403,3.9545,95.873
rg,1625424654031735355,1,-0.3977,-0.7341,0.8623,34,-138.4277,-1.0376,17.1509,226,0.7194,0.4402,0.2798,-55.2763,28,0.7354,14430,3.9545,96.2795
rg,1625424654031756586,1,-0.1873,-1.498,1.0803,35,-147.0947,-104.6753,-0.3052,226,0.7244,0.4692,-1.6984,-61.1343,28,0.7384,12896,3.9545,99.8219
rg,1625424654031776539,1,0.1594,-1.6846,0.7683,36,-34.9731,-118.2861,6.1646,226,0.7384,0.4972,-3.8083,-62.8957,28,0.7424,7600,3.9545,104.1299
rg,1625424654031797252,1,0.3354,-1.511,0.7573,37,24.4751,-96.8628,6.2866,226,0.7644,0.5463,-5.8488,-62.0641,28,0.7464,8110,3.9545,107.6824
rg,1625424654031815852,1,0.4753,-1.1194,0.6226,38,101.1963,-31.6162,-3.54,226,0.7934,0.6133,-7.1632,-58.0834,28,0.7494,7746,3.9545,108.6886
rg,1625424654031834174,1,0.3159,-0.8354,0.271,39,104.9194,19.7144,-13.4888,226,0.8244,0.6723,-7.6794,-54.277,28,0.7514,7668,3.9545,107.7709
rg,1625424654031851608,1,0.1697,-0.7444,0.2383,40,96.2524,53.5278,-10.6201,226,0.8374,0.7113,-5.6958,-51.2487,28,0.7524,7980,3.9545,105.3084
rg,1625424654031869356,1,-0.0872,-0.625,0.3232,41,44.5557,76.1108,8.606,226,0.8274,0.7304,-3.0096,-49.7443,28,0.7544,8009,3.9545,103.2188
rg,1625424654031887178,1,-0.2061,-0.5483,0.3979,42,-71.0449,2.1973,11.7188,226,0.7984,0.7264,-1.8161,-52.7397,28,0.7544,8202,3.9545,103.4324
rg,1625424654031904704,1,-0.0542,-0.8252,0.5222,43,-99.8535,-50.5981,5.249,226,0.7634,0.6223,-3.023,-58.1804,28,0.7544,8233,3.9545,106.8641
rg,1625424654031921785,1,0.1887,-1.0149,0.5671,44,-143.6157,-128.3569,45.4712,226,0.7334,0.5253,-4.121,-64.3406,28,0.7514,7892,3.9545,112.2596
rg,1625424654031939052,1,0.644,-1.4321,0.6091,45,-93.9941,-119.812,81.9092,226,0.7204,0.4612,-3.732,-68.568,28,0.7504,11192,3.9545,117.9944
rg,1625424654031956522,1,0.7671,-1.5229,0.5449,46,31.9214,-6.7749,81.0547,226,0.7194,0.4402,-1.6708,-67.4109,28,0.7514,8300,3.9545,119.445
rg,1625424654031973511,1,0.5042,-0.9326,0.2859,47,120.5444,65.2466,47.4243,226,0.7204,0.4102,0.1493,-62.7598,28,0.7514,7821,3.9545,117.8321
rg,1625424654031991592,1,0.2507,-0.5879,0.1921,48,148.5596,80.2002,3.6621,226,0.7194,0.4082,1.0097,-57.1819,28,0.7484,8307,3.9545,115.0813
rg,1625424654032008951,1,-0.0422,-0.144,0.1768,49,150.6348,90.0879,-46.5088,226,0.7224,0.4122,1.9913,-50.5793,28,0.7454,7846,3.9545,111.1147
rg,1625424654032026625,1,-0.3372,-0.0979,0.2712,50,59.3262,147.0337,-27.0386,226,0.7264,0.4312,6.6665,-47.8356,28,0.7454,8789,3.9545,106.0141
rg,1625424654032043614,1,-0.4163,-0.2217,0.4373,51,-22.0947,116.2109,4.6997,226,0.7294,0.4492,10.7007,-48.741,28,0.7454,7879,3.9545,102.6771
rg,1625424654032061103,1,-0.4148,-0.8083,0.9529,52,-150.4517,-42.4805,15.1367,226,0.7344,0.4742,10.4283,-54.0928,28,0.7464,8041,3.9545,104.4604
rg,1625424654032078647,1,-0.1416,-1.5022,0.9441,53,-125.6714,-144.8975,-2.6245,226,0.7434,0.4962,6.9212,-58.5185,28,0.7514,7928,3.9545,109.2629
rg,1625424654032095691,1,0.062,-1.6323,0.7966,54,-66.7114,-152.2827,1.1597,226,0.7614,0.5303,3.3225,-60.9392,28,0.7544,8137,3.9545,114.5517
rg,1625424654032113088,1,0.4329,-1.4192,0.7798,55,50.415,-111.3892,3.418,226,0.7844,0.5893,0.5109,-58.7921,28,0.7574,8010,3.9545,118.4634
rg,1625424654032131021,1,0.457,-1.0361,0.5205,56,103.3936,-41.9922,-15.5029,226,0.8134,0.6463,-1.7682,-54.8319,28,0.7594,8536,3.9545,119.4995
rg,1625424654032148954,1,0.3062,-0.8684,0.3608,57,106.7505,-10.8643,-20.752,226,0.8324,0.6883,-2.0603,-51.1761,28,0.7604,8108,3.9545,118.3439
rg,1625424654032166277,1,0.0322,-0.6741,0.3547,58,88.501,49.8657,-6.8359,226,0.8394,0.7194,-1,-48.0232,28,0.7604,8202,3.9545,116.66
rg,1625424654032846321,1,-0.2202,-0.5591,0.4263,59,-2.7466,24.9023,4.0283,226,0.8134,0.7284,-0.6154,-50.6035,28,0.7644,12129,3.9545,117.2925
rg,1625424654032920926,1,-0.1812,-0.6646,0.4736,60,-94.2993,-69.7021,1.2207,226,0.7794,0.6423,-1.7434,-54.5519,28,0.7624,8348,3.9545,119.5247
rg,1625424654032946011,1,0.2002,-0.9795,0.6125,61,-126.5259,-143.3716,35.5835,226,0.7494,0.5453,-3.9402,-60.0033,28,0.7604,8458,3.9545,125.138
rg,1625424654032971484,1,0.6775,-1.3562,0.6479,62,-87.0972,-127.6855,72.0825,226,0.7304,0.4902,-4.5583,-64.0656,28,0.7604,8684,3.9545,131.0448
rg,1625424654033006610,1,0.7844,-1.4758,0.5432,63,-45.8984,-79.7729,77.5757,226,0.7284,0.4642,-3.0282,-63.3932,28,0.7624,8584,3.9545,132.7419
rg,1625424654033045460,1,0.7585,-1.3564,0.3831,64,77.0264,30.4565,74.0967,226,0.7264,0.4472,-0.8195,-60.6915,28,0.7614,8687,3.9545,133.0392
rg,1625424654388651983,1,-0.1111,-0.0862,0.1387,65,142.5171,135.1929,-43.2129,226,0.7314,0.4402,1.9089,-54.15,28,0.7554,27998,3.9545,127.6273
rg,1625424654388693648,1,-0.3943,-0.2781,0.5339,66,-62.2559,102.417,17.4561,226,0.7354,0.4732,5.9943,-55.9714,28,0.7544,14819,3.9545,124.6697
rg,1625424654388715398,1,-0.3389,-1.0359,1.2402,67,-168.7012,-63.5986,13.5498,226,0.7414,0.4902,5.3975,-61.8255,28,0.7564,7617,3.9545,127.1934
rg,1625424654388735610,1,-0.1938,-1.4324,1.1404,68,-150.0244,-117.3706,7.9346,226,0.7534,0.5263,3.4984,-67.4661,28,0.7594,8166,3.9545,131.5916
rg,1625424654388754952,1,0.2324,-1.7263,0.7722,69,-17.5781,-131.1646,18.4326,226,0.7784,0.5783,1.7918,-67.8524,28,0.7634,8055,3.9545,136.7349
rg,1625424654388774386,1,0.5569,-1.3364,0.7524,70,94.3604,-68.3594,9.5825,226,0.8054,0.6313,0.1922,-63.7572,28,0.7654,8171,3.9545,139.3626
rg,1625424654388793264,1,0.3213,-0.8403,0.4146,71,121.521,-26.2451,-2.9297,226,0.8274,0.6763,-0.7164,-58.7081,28,0.7674,8602,3.9545,138.7279
rg,1625424654388811939,1,0.1489,-0.7056,0.4309,72,109.4971,49.0723,-9.8877,226,0.8334,0.7053,-0.3449,-54.3035,28,0.7664,8555,3.9545,136.8562
rg,1625424654388830076,1,-0.1506,-0.5112,0.4683,73,10.5591,64.209,6.958,226,0.8154,0.7234,1.8751,-53.6327,28,0.7684,8057,3.9545,134.9412
rg,1625424654388849084,1,-0.2866,-0.6206,0.4666,74,-100.2197,-29.7852,-7.9346,226,0.7804,0.6623,1.6605,-57.5752,28,0.7644,8077,3.9545,135.7258
rg,1625424654388867740,1,-0.2498,-0.7119,0.511,75,-129.2114,-87.0972,-9.4604,226,0.7484,0.5543,0.1694,-62.5501,28,0.7594,8612,3.9545,138.5401
rg,1625424654388886118,1,0.2356,-1.0732,0.6836,76,-125.1221,-173.2178,45.7153,226,0.7354,0.4972,-1.4956,-67.4226,28,0.7584,7744,3.9545,145.5979
rg,1625424654388904959,1,0.7908,-1.4937,0.8262,77,-39.3066,-133.1787,76.0498,226,0.7324,0.4742,-1.5386,-68.9066,28,0.7614,8629,3.9545,151.6703
rg,1625424654388923096,1,0.8962,-1.5862,0.4856,78,19.6533,-98.938,86.5479,226,0.7294,0.4492,-0.8898,-68.4819,28,0.7604,7992,3.9545,156.6065
rg,1625424654388940789,1,0.7212,-1.1321,0.2476,79,90.21,46.3257,47.6685,226,0.7274,0.4272,0.4104,-65.1715,28,0.7584,8600,3.9545,155.613
rg,1625424654388958834,1,0.155,-0.3003,0.1108,80,174.1943,112.4268,-15.1978,226,0.7284,0.4242,0.9777,-58.4291,28,0.7534,8271,3.9545,151.3035
rg,1625424654388977675,1,-0.0298,0.075,0.1807,81,153.0151,136.3525,-28.7476,226,0.7294,0.4322,3.5244,-50.3186,28,0.7544,10554,3.9545,146.2713
rg,1625424654388995849,1,-0.2542,-0.0022,0.2644,82,-20.2637,160.8887,6.897,226,0.7334,0.4532,9.3159,-50.3943,28,0.7534,9645,3.9545,141.5402
rg,1625424654389014338,1,-0.4443,-0.7249,1,83,-205.9326,43.8232,15.564,226,0.7354,0.4682,11.2581,-58.2487,28,0.7544,8149,3.9545,140.5218
rg,1625424654389032086,1,-0.417,-1.3042,1.4521,84,-232.9712,-42.6025,8.5449,226,0.7384,0.4862,10.8364,-66.5655,28,0.7564,8326,3.9545,142.342
rg,1625424654389050353,1,-0.1277,-1.8423,0.562,85,-80.5664,-127.9297,12.8174,226,0.7464,0.5133,9.124,-69.1516,28,0.7604,8726,3.9545,147.3093
rg,1625424654389067564,1,0.3237,-1.3545,0.7546,86,40.5273,-108.0322,20.813,226,0.7654,0.5463,7.4746,-66.5674,28,0.7634,9104,3.9545,151.704
rg,1625424654389085850,1,0.4504,-0.8845,0.6643,87,98.2666,-60.73,6.3477,226,0.7914,0.5873,5.5406,-61.8812,28,0.7674,8198,3.9545,154.0338
rg,1625424654389103728,1,0.438,-0.8252,0.5361,88,95.1538,-41.0156,-1.77,226,0.8184,0.6383,3.6223,-58.0855,28,0.7684,8546,3.9545,155.3762
rg,1625424654389121680,1,0.252,-0.8281,0.2783,89,72.2656,6.6528,-1.2207,226,0.8424,0.6783,2.9634,-55.7092,28,0.7664,8417,3.9545,155.0765
rg,1625424654389140021,1,0.042,-0.8325,0.3337,90,62.6221,43.457,6.4087,226,0.8584,0.7063,3.9476,-53.7647,28,0.7684,8235,3.9545,153.7705
rg,1625424654389158010,1,-0.1345,-0.6597,0.4373,91,39.0625,33.8135,6.7749,226,0.8474,0.7244,4.7463,-54.0508,28,0.7704,8491,3.9545,153.7595
rg,1625424654389175258,1,-0.127,-0.605,0.5129,92,-49.2554,-26.1841,16.4795,226,0.8074,0.7264,4.8585,-55.7303,28,0.7694,9025,3.9545,155.013
rg,1625424654389192635,1,0.0017,-0.7883,0.5356,93,-93.0786,-71.8994,31.1279,226,0.7664,0.6163,4.1748,-59.1902,28,0.7634,8891,3.9952,158.1221
rg,1625424654389210550,1,0.4573,-1.1699,0.6855,94,-120.8496,-111.5112,75.4395,226,0.7404,0.5193,3.8242,-63.6415,28,0.7614,8712,3.9952,163.5171
rg,1625424654389228169,1,0.7527,-1.447,0.9553,95,-40.8936,-26.7944,78.4912,226,0.7334,0.4782,5.1435,-64.8198,28,0.7674,8611,3.9952,165.8724
rg,1625424654389245639,1,0.6218,-1.3472,0.4402,96,61.1572,46.2646,84.4116,226,0.7284,0.4512,7.8822,-62.6451,28,0.7674,9280,3.9952,165.6478
rg,1625424654749590999,1,-0.3057,-0.2942,0.2556,97,153.7476,106.8726,-57.5562,226,0.7254,0.4152,9.1765,-56.7976,28,0.7614,26003,3.9952,160.8743
rg,1625424654749629756,1,-0.3401,0.0605,0.1582,98,97.9004,51.9409,2.9907,226,0.7294,0.4342,12.4299,-52.1719,28,0.7604,13588,3.9952,159.4705
rg,1625424654749650617,1,-0.2727,-0.1577,0.3086,99,-97.8394,-37.4146,14.9536,226,0.7314,0.4572,13.0529,-54.9419,28,0.7604,9565,3.9952,161.2176
rg,1625424654749670532,1,-0.1816,-0.9768,1.3164,100,-255.6763,-147.2168,12.5122,226,0.7364,0.4752,10.2682,-63.3078,28,0.7614,8127,3.9952,166.8087
rg,1625424654749689800,1,0.0679,-1.5889,1.5728,101,-241.0889,-163.0249,10.9863,226,0.7424,0.4942,7.7406,-71.2131,28,0.7644,8003,3.9952,-186.7906
rg,1625424654749708771,1,0.26,-1.936,0.4636,102,-52.3071,-127.8687,15.9912,226,0.7604,0.5223,6.1938,-72.8637,28,0.7684,7629,3.9952,-181.7115
rg,1625424654749727612,1,0.5188,-1.3511,0.8293,103,67.3828,-41.9312,8.9722,226,0.7854,0.5753,5.0689,-69.4531,28,0.7714,10495,3.9952,-179.971
rg,1625424654749747102,1,0.355,-0.8088,0.4824,104,121.7651,12.5732,-8.9111,226,0.8104,0.6183,3.9551,-64.2501,28,0.7744,7688,3.9952,-180.5875
rg,1625424654749765072,1,0.2371,-0.6929,0.3445,105,112.854,30.2734,-13.855,226,0.8364,0.6553,3.2173,-59.7919,28,0.7744,7860,3.9952,-181.9502
rg,1625424654749784080,1,0.0093,-0.6462,0.3206,106,74.4019,57.6782,-8.1177,226,0.8534,0.6863,3.9817,-57.0953,29,0.7744,8426,3.9952,-184.1041
rg,1625424654749802866,1,-0.2307,-0.6951,0.3979,107,16.1743,49.7437,-10.1929,226,0.8554,0.7103,5.1933,-56.7076,29,0.7764,7888,3.9952,-186.006
rg,1625424654749822504,1,-0.2986,-0.7017,0.5239,108,-36.0718,16.2354,3.1128,226,0.8244,0.7294,6.1803,-58.0532,29,0.7784,8110,3.9952,-186.4813
rg,1625424654749842345,1,-0.0452,-0.8,0.6267,109,-102.5391,-98.6938,20.2637,226,0.7804,0.6713,4.7678,-61.5225,29,0.7744,8641,3.9952,-182.6127
rg,1625424654749861261,1,0.2998,-1.1023,0.5627,110,-130.9814,-135.6812,43.7012,226,0.7464,0.5623,3.2613,-66.3972,28,0.7694,7811,3.9952,-176.9387
rg,1625424654749880139,1,0.6904,-1.426,0.7295,111,-89.7827,-99.1821,73.9136,226,0.7294,0.4832,3.5085,-69.5546,28,0.7704,8777,3.9952,-172.1197
rg,1625424654749898999,1,0.8374,-1.4778,0.8872,112,-23.0103,-44.0063,77.8809,226,0.7214,0.4572,4.7075,-69.8899,28,0.7714,7880,3.9952,-169.3663
rg,1625424654749917340,1,0.7651,-1.3518,0.4363,113,103.0884,26.4893,92.7734,226,0.7184,0.4262,7.294,-65.7999,28,0.7684,8441,3.9952,-169.0123
rg,1625424654749935440,1,0.3362,-0.7424,0.27,114,149.5361,90.4541,2.7466,226,0.7174,0.4072,7.8669,-60.4058,28,0.7674,7913,3.9952,-172.2942
rg,1625424654749954411,1,0.0767,-0.459,0.1724,115,169.6167,94.5435,-38.208,226,0.7184,0.4072,8.5213,-53.7763,28,0.7654,8793,3.9952,-176.8842
rg,1625424654749974845,1,-0.1777,-0.0505,0.2202,116,163.9404,113.1592,-52.9175,226,0.7184,0.4172,10.9352,-46.8677,28,0.7614,7928,3.9952,-181.5255
rg,1625424654749993409,1,-0.3025,0.0261,0.2024,117,89.2944,133.1787,-6.3477,226,0.7204,0.4252,16.189,-43.1775,28,0.7614,8154,3.9952,-185.3233
rg,1625424654750011268,1,-0.3201,0.0098,0.2234,118,9.9487,114.3799,15.2588,226,0.7214,0.4442,21.0813,-43.1909,28,0.7604,7967,3.9952,-188.0245
rg,1625424654750030220,1,-0.4448,-0.7317,0.8865,119,-149.8413,15.4419,5.127,226,0.7244,0.4692,19.7202,-51.0484,28,0.7614,10637,3.9952,-186.4448
rg,1625424654750050710,1,-0.3352,-1.1924,1.3206,120,-232.3608,-106.3843,-1.8311,226,0.7284,0.4912,16.9008,-58.7874,28,0.7624,8759,3.9952,-182.6734
rg,1625424654750068662,1,-0.0442,-1.7312,0.7195,121,-107.7881,-143.1274,7.6904,226,0.7364,0.5233,13.7576,-62.0115,28,0.7654,8672,3.9952,-177.4386
rg,1625424654750088004,1,0.353,-1.4893,0.7434,122,11.8408,-125.9155,9.8267,226,0.7574,0.5553,10.717,-60.5833,28,0.7714,8530,3.9952,-172.7483
rg,1625424654750106678,1,0.4797,-0.9722,0.6702,123,55.1758,-104.187,2.8076,226,0.7834,0.5863,7.7908,-56.5419,28,0.7744,8326,3.9952,-170.2084
rg,1625424654750124815,1,0.4478,-0.8228,0.4456,124,100.8911,-50.354,1.0376,226,0.8054,0.6193,5.4181,-52.4977,28,0.7744,8130,3.9952,-168.6024
rg,1625424654750143286,1,0.3977,-0.7053,0.2432,125,68.4204,2.1362,6.4697,226,0.8264,0.6553,4.4319,-50.389,28,0.7744,8306,3.9952,-168.5945
rg,1625424654750161090,1,0.1421,-0.7793,0.4666,126,26.123,52.3071,-3.9673,226,0.8374,0.6803,5.1212,-49.8191,28,0.7774,8147,3.9952,-170.3401
rg,1625424654750179375,1,-0.0056,-0.7869,0.5242,127,4.1504,51.7578,2.0752,226,0.8274,0.6953,6.3193,-50.0543,28,0.7794,8670,3.9952,-171.9047
rg,1625424654750205738,1,-0.0894,-0.8147,0.6316,128,-64.5142,-12.146,28.0762,226,0.7884,0.6963,6.8376,-52.578,28,0.7784,8578,3.9952,-170.8253
rg,1625424655106937333,1,0.6338,-1.3154,0.8079,129,-64.8193,-61.4014,74.585,79,0.7274,0.4812,6.6927,-54.9229,28,0.7724,27523,3.9952,-167.0639
rg,1625424655107028091,1,0.5303,-1.2751,0.4756,130,70.1904,38.0249,67.9321,79,0.7214,0.4202,8.7164,-52.6018,28,0.7674,16362,3.9952,-166.7763
rg,1625424655107050359,1,0.0769,-0.7698,0.3596,131,114.6851,84.5337,-15.625,79,0.7204,0.4102,9.8185,-48.9999,28,0.7654,7687,3.9952,-169.9252
rg,1625424655107072109,1,-0.2461,-0.238,0.2329,132,139.8315,86.6089,-45.6543,79,0.7214,0.4092,11.5719,-43.3674,28,0.7624,8452,3.9952,-174.0585
rg,1625424655107093617,1,-0.3572,-0.1321,0.2351,133,158.3862,96.6797,-52.5513,79,0.7244,0.4172,14.6286,-37.6462,28,0.7594,7629,3.9952,-178.1214
rg,1625424655107112902,1,-0.4524,-0.0085,0.2439,134,52.6123,50.5371,1.2817,79,0.7264,0.4292,17.9791,-35.2134,28,0.7584,8108,3.9952,-179.1229
rg,1625424655107132077,1,-0.3618,-0.3523,0.4004,135,-117.6758,-91.6748,15.2588,79,0.7294,0.4512,16.0742,-39.2833,28,0.7584,8998,3.9952,-176.3752
rg,1625424655107153011,1,-0.0107,-1.2612,1.5107,136,-233.6426,-213.8672,15.564,79,0.7334,0.4742,9.7148,-47.1649,28,0.7594,10629,3.9952,-169.8845
rg,1625424655107172278,1,0.2759,-1.7891,1.4309,137,-183.5327,-213.8062,14.6484,79,0.7414,0.4982,4.1213,-53.7842,28,0.7624,7803,3.9952,-162.8737
rg,1625424655107194453,1,0.5586,-1.8066,0.4507,138,-5.127,-156.7383,25.0244,79,0.7614,0.5373,0.4912,-54.5586,28,0.7674,8245,3.9952,-157.2554
rg,1625424655107327894,1,0.7222,-1.22,0.7058,139,96.3135,-18.6768,12.7563,79,0.7854,0.5803,-0.6029,-50.8942,28,0.7734,8584,3.9952,-156.3905
rg,1625424655107354757,1,0.2976,-0.7146,0.3853,140,121.9482,32.7148,-2.8687,79,0.8074,0.6153,-0.0743,-46.4844,28,0.7754,8530,3.9952,-158.5943
rg,1625424655107373375,1,0.0923,-0.6499,0.3772,141,96.7407,92.4072,-12.085,79,0.8174,0.6433,1.9168,-43.1834,29,0.7744,8509,3.9952,-161.5546
rg,1625424655107390549,1,-0.2153,-0.6384,0.4966,142,9.2773,87.0361,0.2441,79,0.8094,0.6623,4.9552,-43.2873,29,0.7784,8150,3.9952,-163.9517
rg,1625424655107409593,1,-0.365,-0.7156,0.4194,143,-91.7358,-11.2915,-8.1787,79,0.7764,0.6303,5.1424,-47.5181,29,0.7774,7917,3.9952,-163.9342
rg,1625424655107432324,1,-0.3457,-0.7703,0.4519,144,-114.0747,-68.4814,-5.5542,79,0.7454,0.5393,3.8491,-52.3503,29,0.7684,7843,3.9952,-162.0362
rg,1625424655107450053,1,0.1707,-1.0142,0.7312,145,-121.8262,-169.9219,41.1987,79,0.7374,0.4852,0.8366,-57.0101,28,0.7714,8777,3.9952,-155.5271
rg,1625424655107471247,1,0.7495,-1.458,0.6938,146,-4.4556,-164.1846,76.355,79,0.7294,0.4692,-1.1123,-57.4616,28,0.7744,8670,3.9952,-148.362
rg,1625424655107490254,1,1.0205,-1.4868,0.4197,147,32.7759,-146.1182,101.6235,79,0.7284,0.4432,-2.1613,-57.0507,28,0.7734,7952,3.9952,-141.2496
rg,1625424655107507817,1,0.7292,-1.0452,0.1365,148,101.5625,45.2271,37.4756,79,0.7254,0.4282,-0.9236,-52.3147,28,0.7704,8522,3.9952,-144.3999
rg,1625424655107525879,1,0.0933,-0.0381,0.1892,149,151.5503,125.3052,-23.3154,79,0.7254,0.4342,0.7081,-44.9243,28,0.7684,8417,3.9952,-148.8586
rg,1625424655107549259,1,-0.0042,0.0403,0.2495,150,115.5396,144.7754,-22.1558,79,0.7264,0.4442,4.4246,-38.6772,28,0.7664,8052,3.9952,-153.3559
rg,1625424655107569804,1,-0.2598,-0.1423,0.4058,151,-45.0439,153.6255,-0.4272,79,0.7274,0.4602,10.1531,-40.3187,28,0.7654,8088,3.9952,-157.2751
rg,1625424655107589145,1,-0.4849,-0.8997,0.9773,152,-182.9834,32.8369,6.5918,79,0.7294,0.4762,11.658,-47.8329,28,0.7654,8240,3.9952,-158.0529
rg,1625424655107608727,1,-0.4473,-1.3779,1.1133,153,-182.6782,-46.936,4.0894,79,0.7334,0.4922,10.7197,-54.9206,28,0.7664,8123,3.9952,-156.4833
rg,1625424655107628383,1,-0.0938,-1.7063,0.6274,154,-52.6733,-130.127,11.7798,79,0.7394,0.5193,7.9158,-56.848,28,0.7654,8704,3.9952,-151.9501
rg,1625424655107647223,1,0.3245,-1.1975,0.7317,155,48.2788,-118.4692,22.0337,79,0.7634,0.5503,5.1778,-54.4708,28,0.7694,9279,3.9952,-147.5365
rg,1625424655107666824,1,0.4915,-0.8643,0.6113,156,83.4351,-72.998,4.7607,79,0.7924,0.5893,2.4365,-50.9794,29,0.7744,10216,3.9952,-145.1279
rg,1625424655107685757,1,0.4553,-0.8354,0.375,157,69.7021,-15.9302,2.9907,79,0.8164,0.6223,1.0269,-48.6928,29,0.7764,8216,3.9952,-144.6096
rg,1625424655107703986,1,0.3301,-0.8447,0.2739,158,63.4155,16.9067,0.6104,79,0.8394,0.6463,1.9358,-47.1282,29,0.7764,8453,3.9952,-146.1881
rg,1625424655107722549,1,0.0825,-0.8384,0.3933,159,54.3823,74.0967,1.4648,79,0.8484,0.6723,3.734,-45.7426,29,0.7764,8275,3.9952,-148.3295
rg,1625424655107740538,1,-0.1868,-0.7063,0.5664,160,-2.9907,56.5796,6.3477,79,0.8404,0.6903,5.7926,-46.1874,28,0.7764,8335,3.9952,-149.803
rg,1625424655464809253,1,0.3723,-1.0107,0.5671,161,-106.8115,-88.9893,50.1099,79,0.7454,0.5723,4.1896,-51.0216,28,0.7724,25123,3.9952,-145.2064
rg,1625424655464851733,1,0.7361,-1.3523,1.0615,162,-60.9131,-36.5601,64.4531,79,0.7344,0.4982,4.3642,-53.8256,28,0.7794,14696,3.9952,-142.4931
rg,1625424655464898288,1,0.6594,-1.3569,0.4712,163,37.4756,26.3062,78.7964,79,0.7304,0.4752,6.4186,-52.8291,28,0.7794,8768,3.9952,-141.5173
rg,1625424655464919537,1,0.2532,-0.9719,0.4268,164,79.4067,102.6001,8.728,79,0.7284,0.4542,8.4538,-50.5626,28,0.7784,7700,3.9952,-144.6272
rg,1625424655464938526,1,-0.0073,-0.6746,0.3308,165,102.478,114.7461,-27.5879,79,0.7294,0.4362,10.4953,-46.7636,28,0.7774,7870,3.9952,-149.4055
rg,1625424655464958052,1,-0.3313,-0.2556,0.2292,166,135.437,113.5864,-54.4434,79,0.7314,0.4422,13.4315,-42.3889,28,0.7764,7722,3.9952,-154.1997
rg,1625424655464976912,1,-0.427,-0.0867,0.2268,167,75.0732,72.3267,-11.4746,79,0.7334,0.4652,16.969,-39.559,28,0.7754,8986,3.9952,-156.3795
rg,1625424655464995956,1,-0.3374,-0.2656,0.2959,168,9.9487,12.8174,8.3008,79,0.7364,0.4842,16.47,-41.8842,28,0.7754,7713,3.9952,-154.5792
rg,1625424655465014352,1,-0.2993,-0.5034,0.4648,169,-147.7661,-125.6104,7.5073,79,0.7394,0.5022,13.3966,-46.9768,28,0.7764,7888,3.9952,-150.7828
rg,1625424655465032063,1,0.1904,-1.4988,1.4712,170,-207.5195,-206.8481,12.5732,79,0.7514,0.5413,8.2883,-51.7137,28,0.7804,10983,3.9952,-144.8687
rg,1625424655465050070,1,0.5125,-1.8452,0.4697,171,-42.7856,-158.0811,22.644,79,0.7674,0.5773,4.3277,-53.6833,28,0.7824,8087,3.9952,-139.3723
rg,1625424655465068040,1,0.7874,-1.3743,0.6484,172,74.2798,-47.3633,15.7471,79,0.7904,0.6063,2.4863,-50.9839,28,0.7854,8163,3.9952,-137.5436
rg,1625424655465117004,1,0.4487,-0.8418,0.3638,173,133.7891,53.894,-6.7749,79,0.8204,0.6393,2.6188,-46.2699,28,0.7874,9544,3.9952,-139.4148
rg,1625424655465138049,1,0.2458,-0.6956,0.2812,174,126.1597,87.2192,-2.8687,79,0.8394,0.6683,4.228,-42.1795,28,0.7874,7812,3.9952,-142.0051
rg,1625424655465158705,1,-0.0786,-0.6338,0.3875,175,84.7778,131.0425,8.3008,79,0.8494,0.6943,8.4567,-39.782,28,0.7884,9375,3.9952,-145.2622
rg,1625424655465176861,1,-0.4341,-0.6877,0.571,176,-7.4463,92.8345,8.0566,79,0.8374,0.7113,12.162,-40.8418,28,0.7884,7973,3.9952,-147.5195
rg,1625424655465194701,1,-0.3601,-0.7769,0.4941,177,-81.4209,-60.4858,17.4561,79,0.8004,0.6953,11.2361,-44.2561,28,0.7864,8515,3.9952,-145.4618
rg,1625424655465212912,1,-0.1907,-0.8181,0.4355,178,-103.4546,-112.7319,28.0151,79,0.7684,0.5993,8.9794,-48.3395,28,0.7784,7953,3.9952,-141.4977
rg,1625424655465231178,1,0.3665,-1.0574,0.6763,179,-94.9707,-160.2173,58.1055,79,0.7494,0.5183,5.7008,-51.6385,28,0.7734,8117,3.9952,-135.0759
rg,1625424655465249185,1,0.7573,-1.1934,0.7715,180,-10.7422,-86.9751,68.7866,79,0.7454,0.4842,4.4583,-51.851,28,0.7804,7987,3.9952,-130.6444
rg,1625424655465268137,1,0.6982,-1.1956,0.4663,181,42.1143,-36.8652,62.7441,79,0.7384,0.4752,4.2633,-50.5338,28,0.7814,8179,3.9952,-127.98
rg,1625424655465286681,1,0.5232,-0.7468,0.282,182,82.2754,17.2729,20.3247,79,0.7374,0.4582,3.9533,-47.8567,28,0.7804,8068,3.9952,-128.0557
rg,1625424655465305003,1,0.1626,-0.3066,0.2507,183,93.8721,77.2705,-31.311,79,0.7374,0.4602,4.1757,-44.4293,28,0.7804,8209,3.9952,-131.2001
rg,1625424655465323251,1,-0.0142,-0.1982,0.3281,184,65.0635,120.9106,-34.9731,79,0.7384,0.4742,6.6545,-41.7101,28,0.7794,8019,3.9952,-135.5085
rg,1625424655465342166,1,-0.3716,-0.3911,0.6165,185,-27.4658,152.771,-8.3008,79,0.7404,0.4942,11.7011,-43.173,28,0.7784,8258,3.9952,-139.9066
rg,1625424655465360507,1,-0.4551,-0.9084,0.7473,186,-99.7925,8.667,6.958,79,0.7434,0.5092,12.5112,-47.4348,28,0.7794,8134,3.9952,-140.0276
rg,1625424655465378588,1,-0.3914,-1.2231,0.854,187,-107.9712,-61.8286,1.4648,79,0.7474,0.5333,10.7346,-51.6831,28,0.7794,8302,3.9952,-138.1305
rg,1625424655465396817,1,0.0308,-1.5552,0.9561,188,-53.0396,-132.6294,16.3574,79,0.7584,0.5673,7.5865,-53.313,28,0.7804,8205,3.9952,-133.5042
rg,1625424655465414565,1,0.427,-1.2998,0.6814,189,42.1143,-116.0278,26.062,79,0.7804,0.6023,4.6875,-51.5018,28,0.7854,8373,3.9952,-129.2252
rg,1625424655465432683,1,0.5024,-1.01,0.5125,190,69.519,-88.0737,17.6392,79,0.8084,0.6373,2.3803,-48.1244,28,0.7874,8235,3.9952,-127.5577
rg,1625424655465450727,1,0.3503,-0.8689,0.3362,191,100.8301,-15.3198,-6.7749,79,0.8304,0.6653,0.8862,-44.837,28,0.7874,8451,3.9952,-127.3571
rg,1625424655465469457,1,0.0076,-0.6963,0.3994,192,68.4814,56.9458,-8.0566,79,0.8384,0.6933,2.243,-42.7435,28,0.7904,8385,3.9952,-129.1798
rg,1625424655830672590,1,-0.0608,-0.8694,0.3777,193,-102.7832,-141.8457,10.8643,79,0.7664,0.6023,-1.3552,-47.7136,28,0.7774,27050,3.9952,-124.8834
rg,1625424655830708289,1,0.7278,-1.1462,0.7224,194,-34.0576,-128.7842,67.3828,79,0.7514,0.5123,-3.7377,-49.663,28,0.7774,13682,3.9952,-119.209
rg,1625424655830729038,1,0.8525,-1.2493,0.7341,195,10.7422,-75.8667,75.1953,79,0.7454,0.4952,-4.5146,-50.1932,28,0.7804,7772,3.9952,-114.8973
rg,1625424655830749527,1,0.8928,-1.2085,0.3699,196,51.8188,7.019,71.7773,79,0.7424,0.4812,-3.3206,-48.9479,28,0.7814,7964,3.9952,-113.2111
rg,1625424655830801789,1,0.3542,-0.7063,0.2192,197,83.6792,134.2773,-5.6152,79,0.7404,0.4682,-0.7583,-46.278,28,0.7814,7782,3.9952,-117.3121
rg,1625424655830850993,1,0.095,-0.3938,0.1567,198,108.0322,161.438,-24.231,79,0.7414,0.4692,2.6641,-42.8768,28,0.7794,8151,3.9952,-122.5406
rg,1625424655830974616,1,-0.188,-0.1255,0.2034,199,111.145,203.7964,-31.4331,79,0.7424,0.4822,9.2864,-38.7477,28,0.7774,8351,3.9952,-128.7763
rg,1625424655830998662,1,-0.5151,-0.2268,0.4619,200,-8.7891,198.0591,-4.0894,79,0.7444,0.4982,16.5998,-39.9163,28,0.7774,8480,3.9952,-134.0099
rg,1625424655831019448,1,-0.6492,-0.46,0.6565,201,-85.6323,127.0752,3.6621,79,0.7464,0.5153,21.0558,-44.623,28,0.7764,7795,3.9952,-137.585
rg,1625424655831040290,1,-0.6526,-1.0757,0.8191,202,-162.0483,-73.6084,-2.3804,79,0.7474,0.5323,19.2009,-50.608,28,0.7764,7971,3.9952,-135.4514
rg,1625424655831063669,1,-0.1423,-1.5813,0.9177,203,-105.835,-179.8096,11.1694,79,0.7554,0.5593,14.5873,-53.3927,28,0.7794,7847,3.9952,-129.3511
rg,1625424655831083640,1,0.1497,-1.531,0.7869,204,-45.3491,-193.7866,17.7002,79,0.7704,0.5873,9.8545,-54.1213,28,0.7824,8057,3.9952,-122.6183
rg,1625424655831102258,1,0.5266,-1.2104,0.6616,205,48.7671,-147.1558,4.3945,79,0.7934,0.6153,5.317,-51.7915,28,0.7844,7928,3.9952,-117.8407
rg,1625424655831121229,1,0.6128,-0.9478,0.4907,206,76.0498,-62.6831,-5.0049,79,0.8174,0.6463,2.2731,-48.9998,28,0.7884,8101,4.0249,-116.0984
rg,1625424655831140199,1,0.5032,-0.8652,0.3154,207,73.8525,-22.9492,-9.1553,79,0.8334,0.6733,0.2291,-46.7483,28,0.7884,7895,4.0249,-115.7151
rg,1625424655831159429,1,0.1714,-0.8042,0.3848,208,53.1616,58.2886,-11.7798,79,0.8444,0.6953,1.0622,-45.3173,28,0.7894,8032,4.0249,-117.7324
rg,1625424655831178529,1,-0.1069,-0.7217,0.4976,209,-16.9678,49.0112,1.3428,79,0.8364,0.7113,2.6909,-46.4243,28,0.7924,7968,4.0249,-119.115
rg,1625424655831197481,1,-0.1697,-0.8083,0.4958,210,-56.3354,6.5918,1.5259,79,0.8014,0.6953,1.8722,-49.8379,29,0.7894,9307,4.0249,-118.1328
rg,1625424655831218637,1,-0.0735,-0.864,0.4314,211,-89.9658,-75.3784,10.8643,79,0.7604,0.5813,0.0306,-54.1352,29,0.7834,9875,4.0249,-113.8351
rg,1625424655831237663,1,0.4092,-1.1108,0.5417,212,-81.543,-118.5913,55.7861,79,0.7504,0.5163,-1.4702,-57.8127,29,0.7834,8121,4.0249,-108.6381
rg,1625424655831256134,1,0.6794,-1.3652,0.7104,213,18.0664,-49.0723,63.9038,79,0.7434,0.4962,-1.2233,-57.3212,29,0.7864,8075,4.0249,-105.6157
rg,1625424655831276290,1,0.8259,-1.2627,0.3682,214,56.9458,-36.3159,87.5854,79,0.7384,0.4762,0.5445,-54.9727,28,0.7854,8254,4.0249,-104.2791
rg,1625424655831296427,1,0.5938,-1.03,0.2639,215,96.6187,83.4351,36.2549,79,0.7354,0.4442,2.5583,-51.8563,28,0.7834,8125,4.0249,-106.1431
rg,1625424655831316435,1,0.0261,-0.3354,0.1523,216,150.5127,140.8691,-35.2173,79,0.7364,0.4432,4.8833,-46.7209,28,0.7834,8393,4.0249,-111.3762
rg,1625424655831334942,1,-0.2483,-0.0496,0.2263,217,149.7192,170.7764,-40.9546,79,0.7364,0.4602,10.1916,-40.6416,28,0.7814,11533,4.0249,-117.1547
rg,1625424655831353598,1,-0.4314,-0.0576,0.3433,218,11.3525,122.6807,5.9204,79,0.7374,0.4842,15.5783,-40.1023,28,0.7804,9199,4.0249,-120.0891
rg,1625424655831372587,1,-0.5308,-0.5786,0.7031,219,-155.6396,-35.3394,5.0659,79,0.7404,0.5062,15.2603,-45.9741,28,0.7814,8654,4.0249,-118.9543
rg,1625424655831391817,1,-0.2229,-1.4661,1.2588,220,-201.1719,-190.1855,8.4839,79,0.7454,0.5323,10.2684,-52.7662,28,0.7834,9447,4.0249,-112.8344
rg,1625424655831409675,1,0.2947,-1.7483,0.6079,221,-46.3867,-203.2471,22.8882,79,0.7534,0.5663,5.4724,-54.3213,28,0.7864,9327,4.0249,-105.8055
rg,1625424655831428535,1,0.5071,-1.543,0.5645,222,12.5732,-170.5322,24.0479,79,0.7664,0.5913,2.0127,-52.4506,28,0.7884,8595,4.0249,-101.5384
rg,1625424655831447468,1,0.5576,-0.8391,0.5776,223,66.1011,-73.0591,2.0142,79,0.7964,0.6143,-0.2325,-49.6284,28,0.7924,10326,4.0249,-100.7124
rg,1625424655831465864,1,0.439,-0.7954,0.4514,224,71.4722,2.1362,-10.8032,79,0.8214,0.6453,-1.4718,-47.1439,28,0.7934,9144,4.0249,-101.0847
rg,1625424656191987487,1,-0.2319,-0.8137,0.4133,225,24.5972,34.79,-4.2725,79,0.8454,0.6983,-0.0386,-46.7414,28,0.7944,25684,4.0249,-102.2011
rg,1625424656192026927,1,-0.012,-0.6731,0.613,226,-90.3931,-69.6411,27.0386,79,0.7934,0.7113,-1.0285,-50.3995,28,0.7894,12608,4.0249,-99.3971
rg,1625424656192073000,1,0.3713,-0.9741,0.4553,227,-114.3188,-121.1548,59.082,79,0.7574,0.6183,-2.7377,-55.6658,28,0.7804,12300,4.0249,-94.0678
rg,1625424656192095434,1,0.866,-1.3228,0.7739,228,-82.7637,-76.5991,67.4438,79,0.7564,0.5463,-3.1208,-59.3027,28,0.7854,8366,4.0249,-89.9982
rg,1625424656192129354,1,0.8335,-1.4348,0.7024,229,-17.2119,-3.2959,66.1621,79,0.7494,0.5193,-1.8438,-60.2039,28,0.7884,8088,4.0249,-88.5436
rg,1625424656192149324,1,0.6699,-1.2534,0.4058,230,47.3633,88.8672,63.9648,79,0.7464,0.4922,1.182,-58.707,28,0.7894,7629,4.0249,-90.3179
rg,1625424656192168127,1,0.0479,-0.9692,0.5562,231,65.7959,174.5605,-15.4419,79,0.7434,0.4832,4.2316,-56.4209,28,0.7884,7744,4.0249,-96.5528
rg,1625424656192186727,1,-0.4116,-0.4839,0.2178,232,89.3555,167.4194,-36.7432,79,0.7424,0.4762,7.2256,-52.0919,28,0.7884,8584,4.0249,-102.0224
rg,1625424656192204919,1,-0.4331,-0.3127,0.1335,233,155.0903,102.9663,-31.4331,79,0.7424,0.4892,10.5256,-46.8657,28,0.7864,7773,4.0249,-105.9809
rg,1625424656192223555,1,-0.3391,-0.0559,0.1646,234,83.6182,39.4897,14.0991,79,0.7444,0.5052,13.8433,-43.1653,28,0.7864,8095,4.0249,-106.5617
rg,1625424656192244285,1,-0.2939,-0.0886,0.262,235,0.1221,-8.3618,23.0713,79,0.7464,0.5213,14.7791,-42.6259,28,0.7874,7837,4.0249,-105.5527
rg,1625424656192262903,1,-0.2544,-0.6682,0.8127,236,-179.4434,-129.7607,13.6108,79,0.7494,0.5523,11.5226,-48.6886,28,0.7864,8495,4.0249,-101.3147
rg,1625424656192282021,1,0.1699,-1.7324,1.145,237,-169.4946,-175.4761,15.3809,79,0.7554,0.5873,7.064,-54.7836,28,0.7894,8123,4.0249,-95.3827
rg,1625424656192299694,1,0.5244,-1.7344,0.3618,238,3.8452,-133.5449,27.9541,79,0.7704,0.6213,4.0387,-54.9936,28,0.7914,12225,4.0249,-90.4523
rg,1625424656192317460,1,0.6331,-1.0264,0.6013,239,95.459,-26.3672,6.5308,79,0.7914,0.6383,2.4163,-51.282,28,0.7954,8210,4.0249,-89.503
rg,1625424656192335263,1,0.2593,-0.6055,0.3,240,121.1548,14.5874,-4.2725,79,0.8154,0.6593,2.7762,-46.96,28,0.7974,8024,4.0249,-91.0708
rg,1625424656192354196,1,0.1152,-0.5752,0.3022,241,97.8394,81.9092,11.0474,89,0.8354,0.6773,4.8781,-43.7742,29,0.7974,8200,4.0249,-93.145
rg,1625424656192372128,1,-0.0959,-0.7256,0.5095,242,37.8418,81.4209,19.043,89,0.8454,0.6933,7.8095,-42.8801,29,0.7984,8023,4.0249,-94.8783
rg,1625424656192390376,1,-0.2637,-0.8306,0.5667,243,-35.8887,2.3804,13.855,89,0.8394,0.7063,8.5375,-44.7469,29,0.8014,9177,4.0249,-94.612
rg,1625424656192407882,1,-0.1597,-0.8269,0.6191,244,-66.04,-42.6636,20.6909,89,0.8094,0.7224,7.1107,-47.7223,29,0.8004,8508,4.0249,-91.8355
rg,1625424656192426315,1,0.1279,-0.8669,0.54,245,-76.8433,-87.3413,37.8418,89,0.7764,0.6853,5.4343,-50.7835,28,0.7924,8705,4.0249,-88.2148
rg,1625424656192444229,1,0.5125,-1.0408,0.5151,246,-92.4683,-95.6421,50.2319,89,0.7734,0.6023,3.6234,-54.5864,28,0.7964,9249,4.0249,-83.9534
rg,1625424656192462384,1,0.5515,-1.2493,0.6123,247,-2.3193,-1.0376,41.0767,89,0.7694,0.5753,3.9727,-54.9449,28,0.7984,10767,4.0249,-82.9938
rg,1625424656192492265,1,0.3953,-1.157,0.437,248,26.123,49.3164,26.9775,89,0.7674,0.5583,5.1486,-54.5083,28,0.7984,8566,4.0249,-84.0321
rg,1625424656192511217,1,-0.1191,-0.793,0.3665,249,64.3311,77.4536,-35.7666,89,0.7654,0.5523,5.9311,-52.6722,28,0.7984,8078,4.0249,-87.4255
rg,1625424656192618960,1,-0.2529,-0.5212,0.228,250,96.3745,62.5,-42.2363,89,0.7634,0.5593,6.882,-49.6453,28,0.7964,8205,4.0249,-90.4793
rg,1625424656192641357,1,-0.3127,-0.2437,0.2397,251,101.6846,40.2222,-10.0708,89,0.7644,0.5753,8.9792,-45.653,28,0.7964,8081,4.0249,-91.8885
rg,1625424656192659623,1,-0.1797,-0.2395,0.4211,252,-21.7896,-33.5083,24.4751,89,0.7664,0.5893,9.2059,-45.6532,29,0.7964,8270,4.0249,-90.1277
rg,1625424656192733595,1,-0.1409,-0.5049,0.6018,253,-87.4023,-78.9795,18.4326,89,0.7684,0.6093,7.3335,-48.656,29,0.7974,8527,4.0249,-87.2598
rg,1625424656192753084,1,0.1294,-1.3025,1.0288,254,-146.3013,-137.146,13.3057,89,0.7684,0.6353,3.8905,-54.1471,29,0.7984,8301,4.0249,-82.6138
rg,1625424656192772683,1,0.4163,-1.6292,0.5415,255,-36.6211,-108.8257,21.3013,89,0.7754,0.6563,1.4387,-56.0682,29,0.7994,8209,4.0249,-78.5848
rg,1625424656192791542,1,0.521,-1.1655,0.5779,256,14.0381,-69.519,18.4937,89,0.7824,0.6703,0.229,-54.4034,29,0.8014,8397,4.0249,-77.4983
rg,1625424656557817258,1,0.0527,-0.7544,0.3782,257,70.6177,52.4902,0.9155,89,0.8364,0.7043,1.3571,-51.9491,29,0.8054,25356,4.0249,-79.1651
rg,1625424656557858107,1,-0.0996,-0.8235,0.342,258,65.6738,50.4761,12.3901,89,0.8574,0.7214,3.2049,-49.9704,28,0.8044,9365,4.0249,-80.4362
rg,1625424656557879152,1,-0.1885,-0.7734,0.4824,259,38.4521,-17.1509,10.0098,89,0.8734,0.7404,3.3994,-48.6922,28,0.8074,14227,4.0249,-79.6657
rg,1625424656557899474,1,0.1074,-0.6245,0.6614,260,-33.4473,-66.2231,32.6538,89,0.8504,0.7544,2.2665,-49.6637,28,0.8064,10598,4.0249,-76.7871
rg,1625424656557918629,1,0.344,-0.7544,0.6638,261,-74.646,-76.5381,34.4238,89,0.8054,0.7604,0.3416,-53.4843,28,0.7994,8453,4.0249,-73.3652
rg,1625424656557936543,1,0.4553,-0.9424,0.5317,262,-111.0229,-85.5103,34.9731,89,0.7734,0.6873,-1.2996,-58.1915,28,0.7914,8028,4.0249,-69.7189
rg,1625424656557955365,1,0.6938,-1.1687,0.5117,263,-95.5811,-25.3296,48.645,89,0.7564,0.5963,-1.1504,-62.3194,28,0.7874,7610,4.0249,-67.8374
rg,1625424656557973909,1,0.4656,-1.1763,0.6836,264,-11.1694,95.5811,36.377,89,0.7524,0.5433,1.1952,-62.6604,28,0.7934,10181,4.0249,-70.5665
rg,1625424656558015795,1,0.2107,-1.042,0.4934,265,23.7427,71.8994,16.0522,89,0.7494,0.5163,2.6341,-61.8524,28,0.7944,8771,4.0249,-72.8254
rg,1625424656558036487,1,0.0315,-0.8662,0.3582,266,35.2173,66.1011,-18.9209,89,0.7474,0.5062,3.0484,-60.7916,28,0.7944,8425,4.0249,-75.5247
rg,1625424656558055198,1,-0.2742,-0.4951,0.2732,267,80.5664,65.918,-42.7246,89,0.7474,0.5112,3.7963,-57.7608,28,0.7914,8501,4.0249,-78.6416
rg,1625424656558073686,1,-0.3684,-0.3679,0.4067,268,37.0483,49.4995,3.6011,89,0.7494,0.5263,6.132,-55.8964,28,0.7914,8639,4.0249,-80.1721
rg,1625424656558091989,1,-0.1965,-0.5759,0.4861,269,-8.3618,-0.3052,22.3389,89,0.7514,0.5433,5.8679,-57.5026,28,0.7924,8125,4.0249,-77.54
rg,1625424656558109996,1,-0.0632,-0.834,0.6809,270,-94.2383,-114.9292,18.6768,89,0.7524,0.5593,4.066,-60.6072,28,0.7924,8307,4.0249,-73.165
rg,1625424656558135468,1,0.2793,-1.4119,0.8108,271,-84.8999,-127.5635,15.3198,89,0.7564,0.5803,1.7055,-63.7221,28,0.7944,7808,4.0249,-68.3455
rg,1625424656558157458,1,0.4414,-1.3613,0.5093,272,3.7231,-64.5142,19.5312,89,0.7624,0.6083,0.5493,-63.7269,28,0.7964,8774,4.0249,-65.6928
rg,1625424656558178354,1,0.4563,-1.1731,0.5356,273,30.7617,-22.0947,13.916,89,0.7764,0.6333,-0.0444,-62.4327,28,0.7994,8493,4.0249,-64.6626
rg,1625424656558197510,1,0.2339,-0.8787,0.5273,274,52.3071,27.6489,-2.9297,89,0.7984,0.6553,-0.1246,-60.1975,28,0.8024,8340,4.0249,-65.7016
rg,1625424656558216609,1,0.0049,-0.8137,0.3625,275,69.2139,37.7197,2.9297,89,0.8214,0.6753,0.7402,-57.6569,28,0.8054,8286,4.0249,-66.9353
rg,1625424656558235468,1,-0.1001,-0.7927,0.3455,276,69.397,35.4614,9.2773,89,0.8364,0.6923,1.8606,-55.5623,28,0.8074,8296,4.0249,-67.5649
rg,1625424656558254382,1,-0.1226,-0.7739,0.4133,277,40.7104,1.2207,10.6201,89,0.8384,0.7073,2.4765,-54.1653,28,0.8084,7948,4.0249,-67.3653
rg,1625424656558273686,1,0.0564,-0.7612,0.5564,278,-43.5181,-73.7305,20.4468,89,0.8144,0.7224,1.2312,-55.7833,28,0.8074,8468,4.0249,-64.4738
rg,1625424656558293045,1,0.2163,-0.9209,0.4668,279,-77.0264,-91.3086,23.2544,89,0.7814,0.6903,-0.4485,-59.105,28,0.8034,8729,4.0249,-60.8868
rg,1625424656558312052,1,0.3113,-1.0098,0.449,280,-79.6509,-86.4258,36.9873,89,0.7594,0.6073,-1.6543,-62.5535,28,0.7964,8478,4.0249,-57.1244
rg,1625424656558359699,1,0.6526,-1.1382,0.6677,281,-27.6489,-53.894,61.5234,89,0.7564,0.5603,-1.3779,-63.6212,28,0.7964,8468,4.0249,-54.0891
rg,1625424656558382948,1,0.7056,-1.1975,0.5554,282,39.0625,33.5693,69.7632,89,0.7494,0.5353,0.6858,-62.1018,28,0.7964,8644,4.0249,-54.0363
rg,1625424656558402196,1,0.4417,-0.9817,0.366,283,46.9971,109.9243,31.4941,89,0.7474,0.5213,2.9714,-60.5892,28,0.7954,8644,4.0249,-57.3179
rg,1625424656558423426,1,-0.1013,-0.5417,0.196,284,90.332,144.2871,-28.3813,89,0.7464,0.5173,5.2092,-57.7372,28,0.7934,10599,4.0249,-62.8786
rg,1625424656558440840,1,-0.3459,-0.281,0.2971,285,105.1636,140.5029,-37.7808,89,0.7474,0.5293,8.4709,-54.1516,28,0.7924,8664,4.0249,-68.1901
rg,1625424656558458272,1,-0.4512,-0.2629,0.4053,286,55.4199,124.7559,-19.5923,89,0.7474,0.5433,12.1152,-52.1258,28,0.7894,8172,4.0249,-72.6084
rg,1625424656558477594,1,-0.5444,-0.5342,0.6118,287,-70.1904,5.6763,0.2441,89,0.7494,0.5543,13.1031,-54.5909,28,0.7884,8726,4.0249,-72.7257
rg,1625424656558498176,1,-0.3108,-1.1155,0.9197,288,-141.4795,-156.189,-0.3662,89,0.7524,0.5763,9.6643,-59.0128,28,0.7904,8541,4.0249,-67.3613
rg,1625424656916032985,1,0.7202,-1.1675,0.4832,289,83.9844,-99.6704,4.8218,89,0.7994,0.6543,6.2514,-55.4633,28,0.7984,26763,4.0249,-63.9658
rg,1625424656916115553,1,0.4084,-0.7773,0.2361,290,104.0039,-43.2739,-6.2256,89,0.8224,0.6773,4.8671,-51.9539,28,0.8004,9161,4.0249,-64.645
rg,1625424656916148120,1,0.0576,-0.6626,0.3992,291,47.3633,81.1157,1.709,89,0.8294,0.7123,6.9869,-50.3976,28,0.8034,15346,4.0249,-67.1535
rg,1625424656916178891,1,-0.1907,-0.7217,0.502,292,-52.9175,28.3813,4.5776,89,0.8074,0.7123,8.0371,-52.7876,28,0.8024,8346,4.0249,-67.9635
rg,1625424656916209291,1,-0.2263,-0.8623,0.4219,293,-74.9512,-68.7256,3.2959,89,0.7844,0.6633,6.7628,-55.8976,28,0.7974,7721,4.0249,-65.6949
rg,1625424656916237672,1,0.0215,-0.9099,0.4683,294,-67.3218,-114.1357,35.5835,89,0.7644,0.6113,4.574,-58.3021,28,0.7914,7954,4.0249,-61.0709
rg,1625424656916266516,1,0.6272,-1.0371,0.5986,295,-26.7944,-131.958,78.3081,89,0.7564,0.5683,3.31,-58.9966,28,0.7884,7755,4.0249,-54.9253
rg,1625424656916295286,1,0.8623,-1.1262,0.5916,296,16.3574,-38.6353,61.6455,89,0.7514,0.5433,3.235,-58.293,28,0.7904,8561,4.0249,-52.3407
rg,1625424656916323092,1,0.5847,-0.9834,0.3806,297,24.5972,69.7632,29.2358,89,0.7474,0.5273,4.4814,-57.7832,28,0.7894,8823,4.0249,-54.129
rg,1625424656916351195,1,0.322,-0.8044,0.3391,298,30.5176,121.6431,2.3193,89,0.7464,0.5133,6.2017,-57.2818,28,0.7874,7646,4.0249,-58.2411
rg,1625424656916377557,1,-0.1191,-0.4714,0.3306,299,53.1006,162.4756,-23.9868,89,0.7484,0.5153,9.1696,-55.8626,28,0.7864,7845,4.0249,-64.2328
rg,1625424656916437597,1,-0.4788,-0.4976,0.5625,300,16.8457,147.8271,-23.8647,89,0.7504,0.5303,12.5862,-55.7375,28,0.7844,9419,4.0249,-69.6775
rg,1625424656916468979,1,-0.554,-0.7793,0.6174,301,-53.0396,4.6387,-3.6621,89,0.7544,0.5473,13.2105,-57.7526,28,0.7864,9746,4.0249,-69.8941
rg,1625424656916498027,1,-0.4316,-0.991,0.7451,302,-79.4067,-76.355,2.5024,89,0.7584,0.5653,11.9707,-60.1335,28,0.7854,8088,4.0249,-67.1169
rg,1625424656916526000,1,0.0786,-1.3147,0.8838,303,-59.7534,-172.9126,14.0381,89,0.7704,0.5903,8.5222,-61.203,28,0.7884,8284,4.0249,-60.6704
rg,1625424656916553455,1,0.552,-1.2532,0.5967,304,24.4141,-163.3301,22.522,89,0.7894,0.6263,4.9638,-59.6153,28,0.7944,7860,4.0249,-54.5392
rg,1625424656916579891,1,0.7432,-1.0654,0.426,305,75.4395,-69.7632,18.6768,89,0.8224,0.6713,2.7452,-56.6939,29,0.7984,11909,4.0249,-51.8315
rg,1625424656916607141,1,0.3962,-0.8582,0.2297,306,82.5806,48.4009,2.9297,89,0.8354,0.6973,2.9159,-54.1162,29,0.7984,9011,4.0249,-53.4202
rg,1625424656916633985,1,0.0229,-0.6567,0.4089,307,59.1431,92.2852,12.085,89,0.8334,0.7113,6.0825,-54.0341,29,0.8014,8406,4.0249,-56.6201
rg,1625424656916661254,1,-0.1431,-0.6707,0.5322,308,-29.1138,103.0273,18.8599,89,0.8064,0.7143,9.1912,-55.48,28,0.8004,8268,4.0249,-59.5731
rg,1625424656916687152,1,-0.3325,-0.8208,0.4312,309,-72.2656,5.8594,10.2539,89,0.7774,0.6533,10.075,-58.6065,28,0.7954,8092,4.0249,-59.5973
rg,1625424656916714811,1,0.0974,-0.9934,0.5498,310,-67.688,-93.0786,63.7207,89,0.7594,0.5833,9.813,-60.6012,28,0.7914,9369,4.0249,-55.0379
rg,1625424656916751417,1,0.5916,-1.3455,0.8093,311,6.8359,-75.5005,92.9565,89,0.7494,0.5553,10.381,-59.4592,28,0.7914,9664,4.0249,-50.5035
rg,1625424656916785522,1,0.7913,-1.4036,0.5046,312,31.3721,-60.9741,101.9897,89,0.7424,0.5353,11.1807,-57.9551,28,0.7894,8409,4.0249,-46.3552
rg,1625424656916814644,1,0.5227,-1.3035,0.3992,313,71.167,55.8472,26.001,89,0.7374,0.5173,12.065,-55.9383,28,0.7844,8603,4.0249,-47.8261
rg,1625424656916842987,1,-0.0833,-0.7236,0.3887,314,121.8262,113.5254,-37.7197,89,0.7394,0.5092,13.2373,-52.3262,28,0.7834,8445,4.0249,-52.5573
rg,1625424656916879279,1,-0.3384,-0.1777,0.207,315,182.1289,121.3989,-44.2505,89,0.7394,0.5102,16.4404,-46.0253,28,0.7814,8392,4.0249,-57.392
rg,1625424656916908789,1,-0.3743,-0.0352,0.217,316,174.8047,120.7275,-24.5361,89,0.7384,0.5213,20.884,-39.6478,28,0.7774,8127,4.0249,-61.3045
rg,1625424656916983076,1,-0.4238,0.0808,0.2402,317,32.7759,58.1665,11.7798,89,0.7394,0.5383,24.5692,-37.6985,28,0.7764,8312,4.0249,-62.0667
rg,1625424656917021072,1,-0.4429,-0.3813,0.498,318,-163.6963,-73.7915,5.0659,89,0.7414,0.5473,22.8859,-43.3013,28,0.7784,8158,4.0249,-59.815
rg,1625424656917050434,1,-0.1646,-1.2639,1.3491,319,-233.8867,-148.6816,7.8125,89,0.7434,0.5683,17.065,-51.0417,28,0.7794,9096,4.026,-53.0855
rg,1625424656917078556,1,0.2678,-1.8171,0.6462,320,-101.1353,-197.937,12.3291,89,0.7514,0.5873,11.7514,-54.1257,28,0.7824,10265,4.026,-46.4912
rg,1625424657272560464,1,0.6028,-0.9714,0.5681,321,92.6514,-38.3911,-8.1787,89,0.8154,0.6533,9.0967,-50.616,28,0.7904,25602,4.026,-45.5814
rg,1625424657272631600,1,0.3584,-0.8086,0.2461,322,89.2334,19.165,-2.2583,89,0.8554,0.6923,9.0966,-48.5871,28,0.7904,8879,4.026,-47.0889
rg,1625424657272654441,1,0.093,-0.8291,0.291,323,68.4814,78.0029,-0.7935,89,0.8824,0.7224,10.5864,-47.1125,28,0.7904,10658,4.026,-49.6075
rg,1625424657272675263,1,-0.1489,-0.7661,0.3975,324,46.814,58.0444,8.1177,89,0.8844,0.7354,12.3882,-46.1407,28,0.7924,7966,4.026,-51.2176
rg,1625424657272695566,1,-0.2349,-0.7085,0.4756,325,7.2632,31.7993,19.6533,89,0.8424,0.7484,13.9525,-46.3177,28,0.7914,8318,4.026,-51.6881
rg,1625424657272714591,1,-0.1165,-0.6301,0.5308,326,-67.3218,-64.7583,33.4473,89,0.7864,0.7454,12.9575,-48.4618,28,0.7874,8535,4.026,-48.8237
rg,1625424657272737173,1,0.2163,-0.8499,0.5217,327,-87.8906,-118.3472,59.6924,89,0.7494,0.6523,10.7875,-51.2609,28,0.7814,11632,4.026,-43.6207
rg,1625424657272756532,1,0.7571,-1.2207,0.6611,328,-98.7549,-108.0933,98.3887,89,0.7374,0.5713,9.894,-54.4844,28,0.7814,7831,4.026,-37.7409
rg,1625424657272774946,1,0.8765,-1.449,0.646,329,4.1504,15.686,81.2988,89,0.7324,0.5423,11.4794,-54.4512,28,0.7854,8445,4.026,-36.4182
rg,1625424657272792989,1,0.8708,-1.4001,0.469,330,40.1611,51.5747,78.5522,89,0.7294,0.5112,13.718,-53.3887,28,0.7854,7887,4.026,-36.3757
rg,1625424657272810402,1,0.3401,-1.0789,0.5049,331,68.5425,153.1982,-10.5591,89,0.7284,0.4902,15.9346,-52.4595,28,0.7824,8243,4.026,-41.8193
rg,1625424657272828631,1,-0.4011,-0.7019,0.5542,332,101.3794,191.2231,-71.228,89,0.7314,0.4762,18.7397,-50.8051,28,0.7804,9785,4.026,-49.9278
rg,1625424657272847526,1,-0.658,-0.3892,0.2324,333,151.062,138.1836,-38.147,89,0.7294,0.4812,22.5556,-46.8999,28,0.7804,8723,4.026,-55.4531
rg,1625424657272865903,1,-0.5825,-0.2317,0.1733,334,146.5454,81.2988,-3.7842,89,0.7314,0.4972,25.1886,-42.6761,28,0.7794,8314,4.026,-55.3184
rg,1625424657272884261,1,-0.3987,-0.0364,0.3113,335,12.3291,-38.6963,17.7002,89,0.7324,0.5133,25.6275,-40.5109,28,0.7784,8649,4.026,-53.1699
rg,1625424657272902786,1,-0.2988,-0.4868,0.6746,336,-167.4805,-163.0249,11.2915,89,0.7354,0.5283,20.954,-44.9395,28,0.7794,8088,4.026,-47.8952
rg,1625424657272920792,1,0.1968,-1.4673,1.2727,337,-211.853,-215.9424,20.2026,89,0.7404,0.5623,14.8257,-51.2856,28,0.7834,10338,4.026,-40.5954
rg,1625424657272938632,1,0.5308,-1.8728,0.4841,338,-48.7671,-150.0854,26.4282,89,0.7524,0.5993,10.8948,-52.8937,28,0.7834,8872,4.026,-35.2924
rg,1625424657272956379,1,0.6521,-1.2976,0.6028,339,20.5688,-101.7456,17.2119,89,0.7684,0.6203,8.5613,-50.2629,28,0.7904,8304,4.026,-33.9928
rg,1625424657272974237,1,0.5159,-0.9568,0.5679,340,107.7271,3.2959,-13.0615,89,0.7954,0.6463,7.0146,-46.349,28,0.7954,8848,4.026,-34.5357
rg,1625424657272992150,1,0.2717,-0.6177,0.3489,341,115.4785,49.8047,-7.8125,89,0.8204,0.6693,7.1564,-42.4626,28,0.7964,8324,4.026,-36.2694
rg,1625424657273009767,1,0.0164,-0.5723,0.2444,342,83.5571,93.75,14.1602,89,0.8504,0.6953,10.0105,-40.3792,28,0.7974,8123,4.026,-38.4794
rg,1625424657273027570,1,-0.0415,-0.6169,0.3308,343,69.2749,87.1582,17.395,89,0.8674,0.7163,13.2277,-38.7015,28,0.7974,7996,4.026,-40.3316
rg,1625424657273065861,1,-0.2827,-0.7322,0.4495,344,29.7852,42.6025,-0.6714,89,0.8724,0.7304,14.7586,-38.5262,28,0.7974,8943,4.026,-41.6228
rg,1625424657273088517,1,-0.1833,-0.7388,0.5938,345,-29.7852,-55.481,31.9214,89,0.8444,0.7464,13.7072,-39.6021,28,0.7994,8794,4.026,-39.2813
rg,1625424657273107523,1,0.2373,-0.7932,0.7068,346,-99.4263,-130.249,41.3818,89,0.7964,0.7434,9.9023,-42.9168,28,0.7974,9027,4.026,-34.5532
rg,1625424657273126697,1,0.5256,-1.0959,0.5735,347,-101.4404,-119.4458,40.2832,89,0.7614,0.6693,6.4643,-47.0008,28,0.7914,8624,4.026,-30.0721
rg,1625424657273144666,1,0.6738,-1.2068,0.5552,348,-88.7451,-86.6089,56.0913,89,0.7384,0.5713,4.5248,-50.7755,28,0.7854,8902,4.026,-26.001
rg,1625424657273163302,1,0.8792,-1.1331,0.7859,349,-29.2358,30.5176,59.9976,89,0.7344,0.5263,5.7878,-52.033,28,0.7894,8692,4.026,-25.4625
rg,1625424657273181549,1,0.4341,-1.1082,0.5889,350,30.2124,106.3232,32.1045,89,0.7314,0.4992,8.4567,-51.5102,28,0.7884,8974,4.026,-28.0811
rg,1625424657273200018,1,-0.0046,-0.7678,0.2705,351,55.3589,115.9058,-34.9121,89,0.7294,0.4802,9.956,-50.7695,28,0.7884,8494,4.026,-32.7406
rg,1625424657273219636,1,-0.2131,-0.5986,0.1663,352,84.8999,111.9995,-58.5327,89,0.7294,0.4822,12.0582,-48.2925,28,0.7854,8311,4.026,-37.737
rg,1625424657628220493,1,-0.4749,-0.5449,0.5562,353,-61.4624,4.6387,15.686,86,0.7334,0.5173,13.404,-50.5426,28,0.7844,25022,4.026,-37.4473
rg,1625424657628251782,1,-0.0244,-1.3591,0.9333,354,-125.6714,-171.3867,13.3667,86,0.7424,0.5523,9.2021,-54.5925,28,0.7864,17030,4.026,-31.5958
rg,1625424657628292203,1,0.4126,-1.4441,0.5229,355,-11.7188,-152.0996,24.231,86,0.7514,0.5783,5.5867,-54.9162,28,0.7894,7826,4.026,-26.1138
rg,1625424657628318305,1,0.5251,-1.251,0.4922,356,34.4238,-114.7461,19.2261,86,0.7644,0.6033,2.9666,-52.7223,28,0.7924,8117,4.026,-23.7241
rg,1625424657628337997,1,0.4668,-0.8296,0.4917,357,68.5425,-37.2314,-6.5918,86,0.7844,0.6273,0.7461,-50.1805,28,0.7964,7854,4.026,-22.7597
rg,1625424657628357077,1,0.1807,-0.6785,0.3972,358,70.6177,22.522,-9.0942,86,0.8054,0.6513,0.5239,-47.7256,28,0.7994,7808,4.026,-23.6962
rg,1625424657628375806,1,0.072,-0.7063,0.4229,359,59.5093,46.0815,5.7373,86,0.8264,0.6773,2.4932,-46.4158,28,0.8014,8465,4.026,-24.9294
rg,1625424657628393757,1,-0.0771,-0.8337,0.5359,360,25.4517,38.8184,16.9067,86,0.8344,0.6983,4.1285,-45.8536,28,0.8024,8309,4.026,-25.6027
rg,1625424657628411837,1,-0.1228,-0.9221,0.5542,361,-19.5923,-42.1143,11.5967,86,0.8294,0.7133,3.4078,-47.0377,28,0.8054,7944,4.026,-24.0944
rg,1625424657628430010,1,0.0247,-0.9292,0.5396,362,-44.3115,-73.4253,21.6064,86,0.8004,0.7043,1.6643,-49.1388,28,0.8064,7726,4.026,-21.3471
rg,1625424657628459854,1,0.2175,-0.9214,0.5276,363,-64.27,-85.3882,24.292,86,0.7674,0.6443,-0.2578,-52.0796,28,0.8004,7885,4.026,-18.0895
rg,1625424657628477712,1,0.4426,-0.9299,0.5049,364,-42.5415,-80.1392,35.1562,86,0.7534,0.5793,-1.9108,-54.1747,28,0.7974,7765,4.026,-14.6654
rg,1625424657628494662,1,0.5789,-0.9253,0.5896,365,-17.9443,-64.0259,42.1753,86,0.7484,0.5463,-2.9983,-55.1282,28,0.7974,7968,4.026,-11.5892
rg,1625424657628511519,1,0.6223,-0.9753,0.4468,366,20.6299,2.1362,41.9312,86,0.7424,0.5363,-2.6144,-54.6878,28,0.7964,7998,4.026,-10.6868
rg,1625424657628529655,1,0.4353,-0.7456,0.2341,367,36.0107,47.5464,3.479,86,0.7404,0.5303,-2.4157,-53.7855,28,0.7944,7793,4.026,-12.1367
rg,1625424657628549273,1,0.2573,-0.5671,0.2036,368,47.0581,76.2329,-18.6157,86,0.7394,0.5313,-1.9968,-52.3767,29,0.7904,7997,4.026,-15.014
rg,1625424657628567150,1,-0.0977,-0.4009,0.3835,369,24.4751,151.5503,-29.9072,86,0.7404,0.5443,1.2634,-51.114,29,0.7884,7885,4.026,-20.5181
rg,1625424657628584341,1,-0.4597,-0.696,0.7485,370,-6.0425,167.9077,-22.583,86,0.7414,0.5553,5.0762,-52.81,29,0.7874,8065,4.026,-25.0521
rg,1625424657628601514,1,-0.5303,-0.9214,0.7871,371,-66.7114,56.8848,-3.9673,86,0.7424,0.5693,6.9905,-55.547,29,0.7864,7935,4.026,-27.0069
rg,1625424657628619372,1,-0.3203,-1.2935,0.7849,372,-62.8052,-101.6846,2.1362,86,0.7514,0.5913,5.0401,-57.803,28,0.7874,8086,4.026,-23.5555
rg,1625424657628637174,1,0.2095,-1.2686,0.7451,373,-3.8452,-167.1143,21.4844,86,0.7704,0.6243,1.3415,-57.7547,28,0.7914,13494,4.026,-17.4487
rg,1625424657628655643,1,0.5457,-1.0688,0.5518,374,57.0679,-137.9395,13.6108,86,0.7994,0.6563,-2.1924,-55.6781,28,0.7954,9760,4.026,-12.5609
rg,1625424657628673612,1,0.4517,-0.9036,0.3242,375,76.1108,-54.3823,0.9155,86,0.8114,0.6783,-4.3071,-53.2487,28,0.7974,8363,4.026,-10.766
rg,1625424657628691915,1,0.1553,-0.7751,0.4053,376,16.5405,13.4888,13.3667,86,0.8034,0.6903,-3.7875,-52.9254,28,0.7984,8476,4.026,-10.8538
rg,1625424657628709903,1,-0.0376,-0.7937,0.5537,377,-39.7949,12.6343,15.0757,86,0.7734,0.6963,-3.5896,-55.9146,28,0.7934,8103,4.026,-10.3671
rg,1625424657628749898,1,-0.0334,-0.9163,0.4939,378,-80.1392,-31.25,-0.9766,86,0.7534,0.6393,-4.0461,-59.3459,28,0.7864,9198,4.026,-8.094
rg,1625424657628770275,1,0.2122,-0.9827,0.5591,379,-57.8613,-85.144,50.4761,86,0.7464,0.5933,-4.203,-61.9689,28,0.7844,8055,4.026,-4.121
rg,1625424657628788004,1,0.7153,-1.2021,0.6191,380,6.6528,-71.7163,85.144,86,0.7424,0.5803,-3.4479,-61.9951,28,0.7834,8111,4.026,0.0123
rg,1625424657628806140,1,0.8628,-1.1873,0.3784,381,35.7056,8.9111,64.3921,86,0.7394,0.5633,-2.1992,-60.9383,28,0.7844,8265,4.026,0.9283
rg,1625424657628824350,1,0.6479,-1.0608,0.3027,382,46.875,79.3457,32.959,86,0.7374,0.5593,-0.5681,-59.4492,28,0.7824,8529,4.026,-1.1788
rg,1625424657628842097,1,0.1147,-0.5891,0.2493,383,61.8896,169.3115,-11.5967,86,0.7384,0.5533,2.1782,-57.3468,28,0.7804,8344,4.026,-7.1966
rg,1625424657628860418,1,-0.2993,-0.3872,0.282,384,68.7866,197.6318,-33.3252,86,0.7414,0.5563,6.5641,-55.0375,28,0.7794,8196,4.026,-14.4889
rg,1625424657993107004,1,-0.6667,-0.8269,0.7024,385,-68.3594,-28.3813,10.9253,86,0.7514,0.5983,6.8578,-57.4497,28,0.7814,25333,4.026,-13.2841
rg,1625424657993167469,1,0.2104,-1.3674,0.9692,386,-61.2183,-230.7739,38.7573,86,0.7714,0.6413,2.8073,-59.0458,28,0.7874,11030,4.026,-4.5808
rg,1625424657993190792,1,0.7461,-1.4358,0.6116,387,50.7202,-172.4854,31.4331,86,0.7954,0.6663,-0.8202,-57.1717,28,0.7904,7860,4.026,1.9045
rg,1625424657993212188,1,0.8369,-1.2715,0.5,388,93.689,-113.0981,21.1182,86,0.8194,0.6903,-3.8183,-53.9698,28,0.7924,8055,4.026,6.0867
rg,1625424657993231639,1,0.571,-0.8198,0.3057,389,130.0049,26.062,-1.5869,86,0.8484,0.7163,-4.3404,-49.2213,28,0.7914,8329,4.026,5.2113
rg,1625424657993251498,1,0.1023,-0.5957,0.4138,390,97.168,140.5029,1.5259,86,0.8724,0.7384,-0.6573,-45.3891,28,0.7924,8133,4.026,1.1262
rg,1625424657993271672,1,-0.3015,-0.625,0.5513,391,41.4429,127.1973,7.019,86,0.8784,0.7624,3.9316,-43.9406,28,0.7924,11377,4.026,-2.2438
rg,1625424657993291808,1,-0.5049,-0.6445,0.3552,392,-57.8613,-23.4375,1.4648,86,0.8354,0.7734,4.4746,-46.7459,28,0.7924,8971,4.026,-1.5962
rg,1625424657993310870,1,-0.333,-0.5859,0.364,393,-112.915,-114.0747,10.8032,86,0.7924,0.7454,2.6566,-51.4135,28,0.7874,7815,4.026,2.0809
rg,1625424657993351495,1,0.5212,-1.0386,0.7605,394,-160.4614,-213.1958,28.1982,86,0.7494,0.6313,-1.8706,-57.3412,28,0.7784,10616,4.026,10.5161
rg,1625424657993373837,1,0.8396,-1.2751,0.6746,395,-112.3047,-196.9604,73.3643,86,0.7344,0.5543,-4.3318,-62.4246,28,0.7754,8294,4.026,18.8463
rg,1625424657993392269,1,1.1323,-1.3748,0.5688,396,-24.5361,-34.1187,75.9888,86,0.7294,0.5223,-3.4742,-63.7236,28,0.7784,8144,4.026,21.4609
rg,1625424657993411220,1,0.8372,-1.2158,0.4363,397,36.0107,112.9761,44.7998,86,0.7254,0.4922,-0.9678,-62.3654,28,0.7774,8400,4.026,18.2294
rg,1625424657993429226,1,0.5317,-0.9646,0.3628,398,47.7295,175.8423,7.8735,86,0.7244,0.4762,1.7137,-59.9315,28,0.7764,8191,4.026,10.1153
rg,1625424657993447695,1,-0.1042,-0.4402,0.1597,399,94.2993,234.8022,-48.0957,86,0.7244,0.4712,5.3675,-57.1078,28,0.7744,8581,4.026,1.1022
rg,1625424657993465905,1,-0.5332,-0.3015,0.3062,400,93.811,267.5171,-41.5039,86,0.7264,0.4752,11.5889,-54.503,29,0.7714,8124,4.026,-8.6864
rg,1625424657993483300,1,-0.8257,-0.387,0.4482,401,1.709,145.5078,5.9814,86,0.7284,0.4892,16.649,-55.2532,29,0.7724,8612,4.026,-13.3971
rg,1625424657993501288,1,-0.8301,-0.5642,0.5354,402,-57.8613,28.7476,13.1226,86,0.7294,0.5012,18.862,-57.5233,29,0.7704,8014,4.026,-14.0469
rg,1625424657993518813,1,-0.5654,-0.9312,0.6792,403,-131.958,-182.5562,23.3154,86,0.7344,0.5203,16.2241,-60.5151,29,0.7734,8682,4.026,-6.9415
rg,1625424657993535892,1,0.1458,-1.3391,0.9548,404,-95.8862,-273.1323,42.3584,86,0.7414,0.5413,11.6387,-61.5186,28,0.7774,8077,4.026,3.7989
rg,1625424657993554343,1,0.4546,-1.4541,0.7625,405,-34.1797,-257.0801,38.9404,86,0.7584,0.5753,7.1984,-59.5604,28,0.7814,8348,4.026,11.9097
rg,1625424657993572072,1,0.8098,-1.3921,0.5837,406,58.3496,-165.1611,19.6533,86,0.7844,0.6163,3.1051,-56.9423,28,0.7854,8148,4.026,17.897
rg,1625424657993595320,1,0.7258,-1.1101,0.4414,407,119.5068,-27.771,-9.0942,86,0.8204,0.6513,0.8942,-52.5218,28,0.7884,8459,4.026,18.5227
rg,1625424657993613456,1,0.4521,-0.8474,0.271,408,134.3994,83.1299,-3.479,86,0.8594,0.6883,1.8449,-47.8981,28,0.7884,8537,4.026,15.8191
rg,1625424657993631333,1,0.2429,-0.74,0.2439,409,127.1362,127.0752,-2.7466,86,0.8844,0.7194,5.1228,-43.8544,28,0.7874,8785,4.026,12.0519
rg,1625424657993648246,1,-0.1648,-0.5999,0.356,410,110.6567,183.5938,4.2114,86,0.9004,0.7394,10.9619,-40.708,28,0.7864,9330,4.026,7.1444
rg,1625424657993665141,1,-0.5286,-0.6128,0.4475,411,86.2427,125.1831,1.4648,86,0.9124,0.7564,15.7608,-38.434,28,0.7874,10508,4.026,3.8468
rg,1625424657993696615,1,-0.5593,-0.3921,0.3586,412,-19.104,-18.8599,23.8647,86,0.8714,0.7674,16.9318,-39.0907,28,0.7864,8639,4.026,5.0419
rg,1625424657993715362,1,-0.126,-0.3428,0.4517,413,-169.0674,-199.7681,32.2266,86,0.8074,0.7664,11.685,-44.1517,28,0.7834,8871,4.026,11.5356
rg,1625424657993732812,1,0.5808,-0.8765,0.7678,414,-226.6846,-306.3965,46.2036,86,0.7644,0.6823,3.5516,-51.9645,28,0.7794,8680,4.026,21.9678
rg,1625424657993751819,1,0.9163,-1.3657,0.3247,415,-203.6743,-262.2681,61.1572,86,0.7334,0.5743,0.7766,-58.8632,29,0.7714,8892,4.026,29.6956
rg,1625424657993769140,1,0.9597,-1.3262,0.0625,416,-111.6333,-91.2476,88.0127,86,0.7254,0.5133,0.7859,-64.1068,29,0.7714,8772,4.026,34.6185
rg,1625424658352905691,1,-0.0195,-1.0615,0.3562,417,20.0195,237.915,-27.4048,86,0.7184,0.4612,3.9377,-63.9645,28,0.7654,26281,4.026,25.5839
rg,1625424658352970045,1,-0.6953,-0.7158,0.4751,418,87.2803,165.8936,-33.8745,86,0.7174,0.4712,7.0871,-60.8568,28,0.7624,15806,4.026,19.1083
rg,1625424658352991163,1,-0.6843,-0.5334,0.4373,419,56.8237,37.7808,9.4604,86,0.7194,0.4792,9.5568,-58.444,28,0.7614,7603,4.026,18.0516
rg,1625424658353011206,1,-0.5696,-0.5405,0.3977,420,17.6392,-36.438,19.4092,86,0.7204,0.4902,10.6048,-57.2859,28,0.7614,7611,4.026,19.7666
rg,1625424658353029564,1,-0.2974,-0.8213,0.564,421,-63.1714,-168.396,27.8931,86,0.7234,0.5072,8.2441,-58.6803,28,0.7614,7608,4.026,26.1675
rg,1625424658353048718,1,0.2139,-1.2686,0.8123,422,-79.9561,-211.1816,29.9072,86,0.7274,0.5343,4.0758,-60.2149,28,0.7644,7669,4.026,34.479
rg,1625424658353067854,1,0.373,-1.4021,0.6348,423,-19.4702,-203.0029,24.7803,86,0.7404,0.5683,0.1291,-61.1748,28,0.7694,9135,4.026,42.015
rg,1625424658353086675,1,0.5791,-1.3003,0.4739,424,55.0537,-110.5347,17.2119,86,0.7674,0.5993,-2.3286,-59.3602,28,0.7744,8377,4.026,46.1805
rg,1625424658353104848,1,0.5005,-1.0466,0.4873,425,118.4692,-7.5073,-6.1035,86,0.7994,0.6333,-3.5108,-54.831,28,0.7804,7689,4.026,46.2742
rg,1625424658353123354,1,0.3635,-0.9138,0.3804,426,133.9111,30.6396,-6.4697,86,0.8384,0.6673,-3.3601,-49.8646,28,0.7824,8209,4.026,45.1527
rg,1625424658353140730,1,0.0549,-0.7642,0.3972,427,133.2397,99.0601,4.2114,86,0.8814,0.7023,-0.5887,-44.9392,28,0.7814,8187,4.026,42.3732
rg,1625424658353159273,1,-0.2002,-0.6445,0.4224,428,114.7461,98.1445,15.564,86,0.9104,0.7284,3.2823,-40.8536,28,0.7814,10384,4.026,40.179
rg,1625424658353177112,1,-0.3257,-0.4915,0.3594,429,80.3223,15.3809,7.9346,86,0.9225,0.7454,4.9122,-38.1002,28,0.7844,7850,4.026,40.0309
rg,1625424658353194488,1,-0.1465,-0.2793,0.425,430,-34.668,-92.9565,29.8462,86,0.8974,0.7594,3.2032,-39.0605,28,0.7864,8628,4.026,43.3081
rg,1625424658353211530,1,0.0903,-0.3564,0.5771,431,-117.6147,-154.1748,41.748,86,0.8354,0.7604,-0.7322,-43.3405,28,0.7864,8125,4.0271,48.6566
rg,1625424658353230221,1,0.5493,-0.802,0.7949,432,-222.3511,-202.0874,24.4751,86,0.7844,0.7434,-6.324,-52.6846,29,0.7844,8303,4.0271,55.3849
rg,1625424658353248802,1,0.7544,-1.2222,0.2168,433,-194.6411,-137.0239,42.4805,86,0.7444,0.6423,-8.7909,-62.0673,29,0.7804,8196,4.0271,61.1249
rg,1625424658353265622,1,0.8169,-1.2668,0.1035,434,-171.0815,-62.3169,53.833,86,0.7204,0.5353,-8.7578,-70.1327,29,0.7724,8055,4.0271,64.4833
rg,1625424658353282942,1,0.8274,-1.1948,0.7095,435,-97.0459,119.0796,46.875,86,0.7174,0.4882,-6.357,-73.1014,29,0.7714,7925,4.0271,60.4748
rg,1625424658353300337,1,0.0884,-1.3865,0.8376,436,-7.6904,231.7505,41.8701,86,0.7133,0.4652,-1.9189,-72.2376,29,0.7694,8110,4.0271,52.0475
rg,1625424658353317917,1,-0.0769,-1.3689,0.7327,437,0.6104,187.8662,47.9736,86,0.7113,0.4482,2.3768,-71.8108,29,0.7654,7959,4.0271,45.4779
rg,1625424658353335293,1,-0.3704,-1.3704,0.4883,438,28.3813,108.6426,-31.3721,86,0.7093,0.4312,3.0333,-70.8181,29,0.7624,8460,4.0271,40.9646
rg,1625424658353352854,1,-0.5791,-0.9331,0.2649,439,87.7075,-0.5493,-80.7495,86,0.7133,0.4232,1.0747,-67.4556,28,0.7614,8365,4.0271,39.8736
rg,1625424658353370396,1,-0.459,-0.4968,0.1895,440,135.437,-64.3921,-33.4473,86,0.7163,0.4322,0.231,-62.0682,28,0.7604,12235,4.0271,41.7103
rg,1625424658353388143,1,-0.2129,-0.2407,0.21,441,99.7925,-119.6899,18.4937,86,0.7184,0.4472,-0.2639,-57.6449,28,0.7614,8350,4.0271,46.2754
rg,1625424658353405519,1,0.0664,-0.4187,0.3215,442,-2.9297,-197.5708,36.9263,86,0.7224,0.4652,-3.4772,-57.7936,28,0.7644,8398,4.0271,53.743
rg,1625424658353422765,1,0.2881,-0.6663,0.5811,443,-48.0957,-213.3789,38.0249,86,0.7274,0.4892,-7.1141,-60.1216,28,0.7674,8415,4.0271,61.8545
rg,1625424658353439845,1,0.634,-1.2385,0.7041,444,-44.3726,-141.1743,38.147,86,0.7364,0.5213,-9.1112,-62.6982,28,0.7724,8605,4.0271,67.6116
rg,1625424658353457128,1,0.6829,-1.27,0.4377,445,25.8789,-38.0249,30.7007,86,0.7554,0.5593,-9.4174,-62.2607,28,0.7754,8386,4.0271,69.5923
rg,1625424658353474689,1,0.4973,-1.0254,0.676,446,58.8989,64.7583,1.6479,86,0.7794,0.5953,-8.6023,-59.3293,28,0.7834,8326,4.0271,67.2811
rg,1625424658353491621,1,0.2014,-0.9307,0.6006,447,71.4111,113.2812,6.5918,86,0.8174,0.6403,-6.0394,-55.9056,28,0.7874,11103,4.0271,63.5439
rg,1625424658353508904,1,-0.0427,-0.8862,0.5042,448,65.918,117.7368,10.6201,86,0.8534,0.6723,-2.65,-53.1664,28,0.7904,8970,4.0271,59.9657
rg,1625424658719154345,1,-0.231,-0.6885,0.4534,449,41.1377,9.2773,3.6011,86,0.9064,0.7234,-1.5985,-51.6381,28,0.7924,24903,4.0271,59.7756
rg,1625424658719193024,1,0.105,-0.5283,0.4409,450,-84.7168,-105.896,36.438,86,0.8394,0.7354,-3.2175,-55.1284,28,0.7964,16408,4.0271,64.0539
rg,1625424658719214920,1,0.3469,-0.8069,0.571,451,-181.2134,-142.334,11.2305,86,0.7834,0.7274,-6.369,-62.7662,28,0.7944,8309,4.0271,69.2117
rg,1625424658719236020,1,0.5142,-1.1321,0.3513,452,-171.875,-124.2676,28.9917,86,0.7454,0.6493,-7.9147,-70.6093,29,0.7894,8466,4.0271,74.3475
rg,1625424658719255952,1,0.6609,-1.2454,0.2974,453,-147.522,-85.6934,51.0864,86,0.7204,0.5393,-6.5713,-75.8867,29,0.7814,8362,4.0271,75.8926
rg,1625424658719275662,1,0.7932,-1.3293,0.6177,454,-80.5054,40.6494,65.2466,86,0.7163,0.4872,-3.7193,-75.5958,29,0.7804,8551,4.0271,71.906
rg,1625424658719295465,1,0.4058,-1.3977,0.5715,455,24.0479,151.2451,68.2373,86,0.7103,0.4622,0.073,-74.076,28,0.7754,9838,4.0271,66.7389
rg,1625424658719314490,1,0.145,-1.3545,0.5332,456,41.3818,145.4468,38.4521,86,0.7093,0.4472,2.9706,-72.3246,28,0.7684,8177,4.0271,61.6037
rg,1625424658719332736,1,-0.3982,-1.2178,0.4282,457,94.8486,120.6665,-38.5132,86,0.7083,0.4352,3.6644,-68.7505,28,0.7664,7727,4.0271,56.5601
rg,1625424658719351483,1,-0.5933,-0.9285,0.3547,458,136.4746,89.8438,-52.3682,86,0.7083,0.4162,4.4247,-61.5046,28,0.7614,8608,4.0271,53.9733
rg,1625424658719370285,1,-0.4629,-0.3142,0.0139,459,229.8584,-7.1411,-27.4658,86,0.7083,0.4162,5.13,-52.9179,28,0.7614,8356,4.0271,53.7181
rg,1625424658719389014,1,-0.3083,0.1084,0.0569,460,190.8569,-74.2798,-10.376,86,0.7113,0.4222,4.9893,-44.3678,28,0.7594,8260,4.0271,55.9156
rg,1625424658719407075,1,-0.1687,0.1089,0.1243,461,-14.5264,-125.7935,28.7476,86,0.7143,0.4472,3.7683,-43.0206,28,0.7614,10674,4.0271,60.4017
rg,1625424658719425729,1,-0.0149,-0.4905,0.4917,462,-225.647,-197.8149,49.4995,86,0.7163,0.4652,-0.1823,-51.8638,28,0.7644,8321,4.0271,67.5492
rg,1625424658719444365,1,0.6772,-1.9653,1.6279,463,-228.2104,-154.6021,40.8325,86,0.7224,0.4912,-2.7817,-61.0446,28,0.7684,8416,4.0271,73.6315
rg,1625424658719470522,1,0.6797,-2.0945,0.2566,464,-92.3462,-115.0513,40.4663,86,0.7344,0.5293,-3.9778,-61.6426,28,0.7734,9662,4.0271,78.1931
rg,1625424658719491325,1,0.8076,-1.7107,0.467,465,88.9282,-35.4614,28.5034,86,0.7554,0.5523,-4.4884,-58.6812,28,0.7814,8805,4.0271,80.0028
rg,1625424658719509831,1,0.5371,-0.8298,0.6233,466,177.4902,97.5952,2.4414,86,0.7894,0.5883,-3.0648,-51.1881,28,0.7864,9334,4.0271,76.7809
rg,1625424658719561329,1,0.1421,-0.4578,0.25,467,142.0288,138.2446,3.479,86,0.8214,0.6213,0.1966,-45.7962,28,0.7884,9025,4.0271,72.7254
rg,1625424658719582484,1,-0.1272,-0.5239,0.4207,468,69.8853,160.5835,7.8735,86,0.8574,0.6563,5.374,-43.4166,28,0.7884,8714,4.0271,68.439
rg,1625424658719600897,1,-0.4934,-0.7764,0.512,469,21.4233,98.7549,-12.6953,86,0.8814,0.6813,8.7533,-43.3947,28,0.7924,8683,4.0271,65.2877
rg,1625424658719618903,1,-0.603,-0.8508,0.4949,470,7.019,31.0059,-7.5073,86,0.8884,0.6953,10.3259,-43.8415,28,0.7944,8500,4.0271,64.1128
rg,1625424658719636816,1,-0.2029,-0.698,0.5237,471,-46.5698,-121.1548,38.3911,86,0.8544,0.7083,8.083,-45.3212,28,0.7964,8709,4.0271,68.6045
rg,1625424658719655100,1,0.3462,-0.7559,0.667,472,-127.7466,-205.5664,36.2549,86,0.7974,0.7063,2.6184,-49.8734,28,0.7974,8529,4.0271,75.6947
rg,1625424658719673124,1,0.6013,-0.9709,0.488,473,-147.1558,-176.2085,20.6909,86,0.7544,0.6873,-2.1092,-56.1662,28,0.7904,8781,4.0271,81.8533
rg,1625424658719691075,1,0.7393,-1.1335,0.3225,474,-122.9248,-145.0806,40.7104,86,0.7304,0.5883,-4.8046,-62.0058,28,0.7844,8217,4.0271,87.7472
rg,1625424658719720232,1,0.9448,-1.1069,0.322,475,-72.8149,19.6533,69.0918,86,0.7264,0.5062,-3.2756,-65.297,28,0.7874,8882,4.0271,88.3249
rg,1625424658719738497,1,0.7405,-1.2344,0.6123,476,-6.4697,195.7397,63.5376,86,0.7214,0.4832,1.3034,-65.3819,28,0.7864,9033,4.0271,82.2561
rg,1625424658719756466,1,0.1787,-1.3003,0.6301,477,2.5635,263.6719,30.6396,86,0.7194,0.4672,6.3969,-65.8398,28,0.7844,8601,4.0271,73.1494
rg,1625424658719774787,1,-0.5073,-1.2681,0.4443,478,25.5127,260.8032,-3.0518,86,0.7184,0.4632,9.511,-64.6416,28,0.7814,8702,4.0271,64.3647
rg,1625424658719793126,1,-0.7346,-1.0566,0.3037,479,117.0044,167.6636,-52.7954,86,0.7174,0.4652,11.5711,-61.5538,28,0.7784,8601,4.0271,57.2985
rg,1625424658719811780,1,-0.7009,-0.4949,0.1873,480,190.6128,49.2554,-28.8696,86,0.7204,0.4732,13.1235,-54.6095,28,0.7784,9180,4.0271,55.0282
rg,1625424659078645205,1,-0.2322,-0.4641,0.4009,481,-108.3984,-222.5342,22.7661,86,0.7314,0.5213,9.2277,-57.1667,28,0.7834,24957,4.0271,63.095
rg,1625424659078684995,1,0.5752,-1.6096,0.8386,482,-94.8486,-222.5952,36.7432,86,0.7424,0.5663,4.862,-60.1072,28,0.7894,15999,4.0271,71.5032
rg,1625424659078706298,1,0.7329,-1.4634,0.332,483,39.7949,-116.8213,28.6865,86,0.7584,0.5913,2.3349,-58.8097,28,0.7934,7588,4.0271,76.0535
rg,1625424659078726434,1,0.7183,-1.1418,0.5466,484,69.397,-43.335,7.2021,86,0.7824,0.6163,0.4544,-56.1829,28,0.7984,8109,4.0271,77.6332
rg,1625424659078746292,1,0.4319,-0.7388,0.5386,485,94.2993,64.8193,-7.9346,86,0.8094,0.6443,0.7153,-52.3504,28,0.8024,8309,4.0271,75.3061
rg,1625424659078789305,1,0.1257,-0.7087,0.4565,486,50.7812,117.0654,6.4087,86,0.8404,0.6693,3.4481,-50.6298,28,0.8044,7932,4.0271,71.7849
rg,1625424659078809644,1,-0.1426,-0.8232,0.5107,487,32.6538,128.0518,9.4604,86,0.8694,0.6993,6.94,-50.1684,28,0.8044,9305,4.0271,68.3816
rg,1625424659078828668,1,-0.2124,-0.8494,0.4883,488,27.71,76.4771,7.6904,86,0.8884,0.7174,9.5164,-49.7924,28,0.8054,9119,4.0271,66.1605
rg,1625424659078846563,1,-0.3223,-0.792,0.4358,489,19.5312,-4.4556,0.9766,86,0.8934,0.7274,9.8343,-49.4022,28,0.8064,8346,4.0271,66.2571
rg,1625424659078864902,1,-0.0554,-0.5823,0.4568,490,-37.7197,-87.0972,42.4805,86,0.8704,0.7354,8.6812,-50.3813,28,0.8104,8293,4.0271,70.0532
rg,1625424659078883129,1,0.1594,-0.5989,0.5559,491,-89.8438,-124.1455,46.4478,86,0.8104,0.7404,6.0709,-53.2839,28,0.8084,7704,4.0271,75.1724
rg,1625424659078900857,1,0.3132,-0.7737,0.4597,492,-163.9404,-148.9868,15.3809,86,0.7584,0.6923,2.3551,-59.6474,28,0.8024,8730,4.0271,80.5148
rg,1625424659078918622,1,0.5183,-1.0652,0.3044,493,-152.9541,-126.6479,41.3818,86,0.7324,0.5643,0.4972,-66.1161,28,0.7914,8473,4.0271,85.8046
rg,1625424659078935960,1,0.8149,-1.2341,0.6465,494,-89.2334,-13.2446,68.6646,86,0.7294,0.5022,1.6739,-69.504,29,0.7944,8623,4.0271,87.357
rg,1625424659078953743,1,0.8015,-1.4121,0.7502,495,-23.6816,58.5327,69.0308,86,0.7224,0.4842,3.9792,-70.2336,29,0.7904,7795,4.0271,86.1087
rg,1625424659078971712,1,0.6387,-1.4651,0.5527,496,23.6816,113.4644,74.4629,86,0.7184,0.4672,7.3079,-69.5623,29,0.7884,8723,4.0271,82.8369
rg,1625424659078989180,1,0.1196,-1.4141,0.5186,497,57.8613,188.2324,1.0986,86,0.7204,0.4562,9.5566,-68.2934,29,0.7854,7842,4.0271,75.7462
rg,1625424659079006834,1,-0.1926,-1.2109,0.4602,498,90.9424,186.8896,-34.1187,86,0.7214,0.4552,10.5053,-63.8606,28,0.7834,8763,4.0271,68.9677
rg,1625424659079024228,1,-0.5823,-0.6953,0.2356,499,187.6831,114.7461,-64.6973,86,0.7224,0.4592,11.5395,-57.6136,28,0.7794,8276,4.0271,63.6352
rg,1625424659079042178,1,-0.5107,-0.1746,0.1863,500,205.9326,38.7573,-32.4097,86,0.7264,0.4652,13.3942,-49.2012,28,0.7804,11606,4.0271,61.8558
rg,1625424659079059961,1,-0.4998,0.0627,0.1794,501,98.1445,-20.0806,0,86,0.7294,0.4782,14.8308,-44.3328,28,0.7794,8274,4.0271,62.7343
rg,1625424659079077837,1,-0.3621,-0.229,0.2737,502,-90.1489,-127.0752,25.9399,86,0.7334,0.4932,13.1845,-46.712,29,0.7824,8444,4.0271,67.2379
rg,1625424659079095638,1,-0.0254,-0.9478,1.0635,503,-168.7622,-184.1431,32.4707,86,0.7384,0.5052,7.8271,-53.8937,29,0.7854,7953,4.0271,75.9391
rg,1625424659079113533,1,0.4666,-1.5457,1.6636,504,-213.623,-258.4839,40.9546,86,0.7444,0.5303,2.9542,-61.0669,29,0.7884,8558,4.0271,85.6406
rg,1625424659079143746,1,0.6719,-1.8423,0.4263,505,-16.5405,-178.2837,37.1094,86,0.7624,0.5753,0.0256,-62.1016,29,0.7944,8763,4.0271,92.5918
rg,1625424659079163344,1,0.8491,-1.3396,0.5027,506,103.0273,-43.335,17.4561,86,0.7964,0.6143,-1.3821,-58.2449,28,0.8024,8818,4.0271,94.3997
rg,1625424659079181979,1,0.5032,-0.7136,0.3484,507,131.2256,31.25,5.4932,86,0.8254,0.6443,-0.7015,-52.8934,28,0.8044,8177,4.0271,91.4657
rg,1625424659079199244,1,0.2812,-0.5264,0.2312,508,119.4458,125.7324,-0.2441,86,0.8524,0.6733,1.4783,-48.6162,28,0.8054,8247,4.0271,87.5278
rg,1625424659079216583,1,-0.1067,-0.4871,0.3647,509,57.251,193.1763,11.5967,86,0.8724,0.6983,7.3115,-46.9172,28,0.8064,8285,4.0271,82.1021
rg,1625424659079234384,1,-0.4597,-0.6528,0.48,510,8.2397,108.2153,10.437,86,0.8764,0.7123,11.4033,-47.2871,28,0.8104,8203,4.0271,79.1407
rg,1625424659079251871,1,-0.5642,-0.6709,0.323,511,-26.1841,19.165,3.1128,86,0.8394,0.7254,13.002,-48.973,28,0.8124,8353,4.0271,78.5213
rg,1625424659079270136,1,-0.2588,-0.6626,0.4368,512,-137.6953,-151.4893,21.8506,86,0.7844,0.7194,10.1258,-53.6706,28,0.8094,8231,4.0271,83.8329
rg,1625424659438341687,1,0.9241,-1.3311,0.4629,513,-64.27,-162.9028,70.1904,86,0.7314,0.5022,7.1307,-55.7348,28,0.7974,26951,4.0271,90.7697
rg,1625424659438378439,1,0.9177,-1.2473,0.4233,514,49.3164,76.5991,56.1523,86,0.7234,0.4722,9.1999,-54.4363,28,0.7924,13631,4.0271,89.4372
rg,1625424659438399427,1,0.6096,-1.1758,0.4119,515,56.9458,159.0576,20.9961,86,0.7224,0.4582,12.288,-53.6214,28,0.7894,7788,4.0271,84.5851
rg,1625424659438419804,1,-0.0486,-1.1553,0.613,516,58.4717,235.9619,-20.813,86,0.7224,0.4552,16.7712,-53.7276,28,0.7864,7878,4.0271,76.1543
rg,1625424659438439124,1,-0.6169,-0.9172,0.2578,517,130.7373,184.5703,-39.3677,86,0.7224,0.4492,20.6345,-51.5147,28,0.7834,8020,4.0271,68.7708
rg,1625424659438458389,1,-0.6553,-0.6907,0.1074,518,177.7954,126.8921,-35.5225,86,0.7244,0.4502,23.1725,-45.1957,28,0.7814,9375,4.0271,65.7289
rg,1625424659438477543,1,-0.5044,-0.1711,0.2129,519,185.5469,36.0107,-11.9629,86,0.7294,0.4612,25.3197,-38.2152,28,0.7804,8450,4.0271,64.4396
rg,1625424659438496179,1,-0.4265,0.0266,0.3289,520,50.293,-37.2314,8.8501,86,0.7334,0.4752,25.5059,-34.5793,28,0.7814,8541,4.0271,66.2348
rg,1625424659438514073,1,-0.3291,-0.4136,0.4692,521,-114.8071,-132.5684,19.5312,86,0.7364,0.4902,21.7999,-37.7602,28,0.7844,7891,4.0271,70.2333
rg,1625424659438543952,1,-0.2407,-0.7578,0.8,522,-177.3071,-177.7344,23.8647,86,0.7424,0.5082,16.6796,-43.1862,28,0.7864,8191,4.0271,75.8178
rg,1625424659438562680,1,0.2905,-1.5889,1.1624,523,-148.2544,-199.0967,26.6724,86,0.7514,0.5293,10.9513,-47.9235,28,0.7914,7915,4.0271,82.3484
rg,1625424659438580982,1,0.5767,-1.5776,0.5261,524,3.6011,-149.353,27.2217,86,0.7694,0.5683,6.6691,-47.831,28,0.7984,8090,4.0271,87.4045
rg,1625424659438599340,1,0.6755,-1.3496,0.5815,525,47.6074,-96.0693,16.3574,86,0.7924,0.6053,3.38,-46.305,28,0.8014,7979,4.0271,90.5835
rg,1625424659438647280,1,0.5627,-0.8853,0.4951,526,81.3599,1.1597,-3.6621,86,0.8164,0.6293,2.0977,-43.555,28,0.8054,8102,4.0271,90.3858
rg,1625424659438667657,1,0.2954,-0.6895,0.4045,527,49.8047,62.9883,-6.1035,86,0.8394,0.6563,2.9066,-42.2307,28,0.8084,8045,4.0271,88.4533
rg,1625424659438692071,1,0.0283,-0.7573,0.4902,528,13.0615,79.7119,2.5024,86,0.8644,0.6853,5.1348,-42.4289,28,0.8104,11229,4.0271,86.3407
rg,1625424659438711188,1,-0.1785,-0.8474,0.4207,529,3.54,6.1646,-9.7656,86,0.8704,0.6983,5.2807,-43.1283,28,0.8124,8317,4.0271,85.8118
rg,1625424659438730842,1,-0.2131,-0.7976,0.3503,530,-10.9863,-40.7104,-7.0801,86,0.8624,0.7103,3.1262,-45.1056,28,0.8144,8382,4.0271,88.5431
rg,1625424659438750330,1,0.1138,-0.7227,0.4941,531,-64.3311,-126.77,27.832,86,0.8174,0.7143,0.0531,-47.9494,28,0.8144,8340,4.0271,92.9792
rg,1625424659438768706,1,0.3848,-0.8457,0.418,532,-110.4736,-167.1753,25.6348,86,0.7714,0.6873,-4.2307,-53.1351,28,0.8104,8000,4.0271,98.8282
rg,1625424659438788490,1,0.5952,-1.0862,0.3625,533,-115.6006,-164.0015,26.1841,86,0.7424,0.5933,-7.0617,-58.6184,28,0.8004,8329,4.0271,104.2227
rg,1625424659438807032,1,0.7295,-1.1873,0.4502,534,-83.4961,-92.4072,47.3022,86,0.7344,0.5163,-8.1372,-62.5821,28,0.7994,8685,4.0271,108.4445
rg,1625424659438826186,1,0.7266,-1.2864,0.5386,535,12.8784,50.7202,63.4155,86,0.7274,0.4882,-5.7145,-62.1457,28,0.7954,8779,4.0271,107.8263
rg,1625424659438844914,1,0.6155,-1.2695,0.5442,536,35.2783,121.9482,82.8247,86,0.7244,0.4772,-1.2134,-60.7282,28,0.7924,8244,4.0271,105.1129
rg,1625424659438865383,1,0.1238,-1.1255,0.4182,537,71.6553,206.2988,36.9873,86,0.7234,0.4692,4.0178,-58.3643,28,0.7884,10538,4.0271,98.7492
rg,1625424659438883796,1,-0.3369,-0.7859,0.2939,538,133.4839,181.5186,-17.7612,86,0.7244,0.4702,8.127,-54.1187,28,0.7864,8662,4.0271,92.2889
rg,1625424659438903061,1,-0.5012,-0.5972,0.3091,539,154.541,160.0342,-33.8135,86,0.7264,0.4732,11.9207,-48.5549,28,0.7834,8154,4.0271,87.4912
rg,1625424659438953540,1,-0.6365,-0.2747,0.2986,540,146.1182,90.8813,-13.7329,86,0.7294,0.4802,15.6489,-43.3041,28,0.7814,9054,4.0271,84.5181
rg,1625424659438980140,1,-0.5657,-0.1506,0.2825,541,47.7905,-30.0903,16.2964,86,0.7334,0.4932,16.7989,-40.6961,28,0.7814,8909,4.0271,85.9894
rg,1625424659439001832,1,-0.4158,-0.4783,0.5173,542,-92.8955,-151.123,23.9868,86,0.7364,0.5072,13.5056,-43.1788,28,0.7804,8706,4.0271,90.8883
rg,1625424659439024469,1,0.0774,-1.1748,1.2151,543,-165.2832,-246.0938,32.8369,86,0.7424,0.5173,7.0068,-48.3599,28,0.7864,8589,4.0271,98.9847
rg,1625424659439044234,1,0.3298,-1.5012,1.1042,544,-123.9014,-233.7036,23.9258,86,0.7514,0.5403,1.5689,-50.7683,28,0.7914,8982,4.0271,105.565
rg,1625424659814255146,1,0.5273,-0.9207,0.5032,545,77.3315,16.6016,-8.606,86,0.8144,0.6293,0.6638,-48.0537,28,0.8054,25435,4.0282,104.7982
rg,1625424659814329335,1,0.0801,-0.8025,0.4214,546,53.4668,90.21,-4.6997,86,0.8544,0.6723,2.7322,-46.5488,28,0.8074,14264,4.0282,102.0032
rg,1625424659814352509,1,-0.1514,-0.7988,0.4219,547,49.9268,77.9419,2.3804,86,0.8724,0.6893,5.2274,-45.3017,29,0.8074,8364,4.0282,99.7949
rg,1625424659814374664,1,-0.231,-0.7712,0.4087,548,52.063,38.5742,-0.7935,86,0.8844,0.7093,6.8223,-44.0344,29,0.8084,8404,4.0282,98.6225
rg,1625424659814394707,1,-0.217,-0.6204,0.2842,549,33.9966,-53.7109,1.1597,86,0.8854,0.7224,5.7517,-43.2936,29,0.8114,7908,4.0282,100.0622
rg,1625424659814414157,1,0.0803,-0.5503,0.4583,550,-32.5317,-125.7324,31.4941,86,0.8464,0.7354,2.5455,-44.5341,28,0.8114,11255,4.0282,104.4493
rg,1625424659814434978,1,0.4631,-0.8123,0.5554,551,-114.9292,-175.5981,36.7432,86,0.7944,0.7244,-2.1904,-49.4906,28,0.8094,8147,4.0282,110.6075
rg,1625424659814455410,1,0.6143,-1.1052,0.3606,552,-125.6714,-142.0288,20.2637,86,0.7564,0.6433,-5.9575,-55.6198,28,0.8044,8066,4.0282,115.6982
rg,1625424659814474972,1,0.6318,-1.178,0.3608,553,-103.6987,-87.0972,26.123,86,0.7284,0.5363,-7.7156,-60.7749,28,0.7944,8585,4.0282,119.3309
rg,1625424659814494793,1,0.5823,-1.1511,0.4409,554,-39.7949,18.5547,51.9409,86,0.7204,0.4822,-6.227,-62.6913,28,0.7914,9306,4.0282,119.7051
rg,1625424659814513761,1,0.2266,-1.0933,0.575,555,53.0396,104.0039,43.5181,86,0.7153,0.4592,-2.8978,-60.3165,28,0.7854,9896,4.0282,116.8549
rg,1625424659814532600,1,0.2229,-1.0684,0.5271,556,52.6123,49.0723,56.7627,86,0.7143,0.4452,-0.2597,-58.3215,28,0.7814,7843,4.0282,116.3166
rg,1625424659814551588,1,-0.0452,-1.0906,0.4951,557,65.3687,59.1431,28.6255,86,0.7133,0.4372,1.3811,-55.4927,28,0.7774,8613,4.0282,114.6991
rg,1625424659814569890,1,-0.1348,-0.9895,0.4998,558,94.1162,41.2598,5.4321,86,0.7133,0.4292,2.7437,-52.0703,29,0.7744,8195,4.0282,113.493
rg,1625424659814588525,1,-0.2656,-0.6938,0.3674,559,129.5776,6.958,7.3853,86,0.7153,0.4232,3.7709,-47.2645,29,0.7714,8644,4.0282,113.4814
rg,1625424659814606716,1,-0.1748,-0.4238,0.3149,560,114.502,-44.9829,25.0244,86,0.7174,0.4162,3.7842,-42.7849,29,0.7714,7806,4.0282,115.4752
rg,1625424659814625203,1,-0.0779,-0.3582,0.3401,561,87.4634,-70.0073,28.6865,86,0.7194,0.4112,2.6404,-39.2784,29,0.7684,8357,4.0282,118.1824
rg,1625424659814643634,1,0.1045,-0.5088,0.5027,562,18.7378,-105.2246,15.686,86,0.7214,0.4122,-0.65,-38.7042,28,0.7684,8584,4.0282,121.3092
rg,1625424659814705709,1,0.2334,-0.8315,0.6221,563,-24.353,-95.9473,1.77,86,0.7244,0.4112,-4.0224,-40.3238,28,0.7684,8745,4.0282,123.8244
rg,1625424659814727937,1,0.2805,-1.022,0.6455,564,-13.6719,-56.2134,-2.0752,86,0.7274,0.4132,-6.1266,-41.6491,28,0.7704,8636,4.0282,125.2953
rg,1625424659814770969,1,0.2544,-1.0032,0.6414,565,2.4414,-34.3628,-4.1504,86,0.7294,0.4162,-7.4956,-42.2442,28,0.7714,8468,4.0282,126.1638
rg,1625424659814794124,1,0.1484,-0.8184,0.6145,566,19.8975,-13.7329,-12.8174,86,0.7304,0.4172,-8.2779,-41.8656,28,0.7714,8330,4.0282,126.2074
rg,1625424659814814834,1,0.0833,-0.7214,0.5857,567,10.0098,-14.2822,-16.7236,86,0.7354,0.4162,-9.024,-41.7987,28,0.7724,8116,4.0282,126.1418
rg,1625424659814834655,1,0.0762,-0.7251,0.5706,568,-0.3662,-18.3105,-15.625,86,0.7364,0.4172,-9.8956,-42.2441,28,0.7724,7973,4.0282,126.2377
rg,1625424659814853290,1,0.1326,-0.7917,0.5627,569,-12.7563,-28.2593,-14.9536,86,0.7354,0.4152,-11.0481,-43.2924,28,0.7724,8107,4.0282,126.6571
rg,1625424659814873019,1,0.1812,-0.7922,0.5188,570,-7.019,-31.9214,-13.855,86,0.7404,0.4172,-12.3475,-44.1929,28,0.7734,8018,4.0282,127.2536
rg,1625424659814892450,1,0.1987,-0.7808,0.5125,571,-3.6621,-31.25,-13.0005,86,0.7424,0.4132,-13.6555,-44.8017,28,0.7734,8596,4.0282,127.8557
rg,1625424659814911549,1,0.2173,-0.7651,0.5081,572,1.8311,-35.0952,-13.2446,86,0.7434,0.4132,-15.0087,-45.3356,28,0.7734,8862,4.0282,128.6056
rg,1625424659814930406,1,0.2502,-0.7878,0.5161,573,5.8594,-37.0483,-11.4746,86,0.7474,0.4132,-16.3694,-45.7495,28,0.7724,9967,4.0282,129.4891
rg,1625424659814948541,1,0.2644,-0.8306,0.5447,574,11.4136,-34.5459,-9.0332,86,0.7484,0.4112,-17.534,-45.9463,28,0.7734,10239,4.0282,130.3871
rg,1625424659814966862,1,0.2595,-0.8594,0.5354,575,23.6206,-28.0762,-5.4932,86,0.7504,0.4112,-18.3548,-45.6904,28,0.7734,9078,4.0282,131.2202
rg,1625424659814985256,1,0.2449,-0.8342,0.5247,576,34.79,-27.832,-2.8076,86,0.7514,0.4102,-19.0497,-45.0226,28,0.7734,8901,4.0282,132.1289
rg,1625424660170688045,1,0.2532,-0.769,0.4629,577,45.6543,-38.4521,0.6104,86,0.7564,0.4102,-20.1341,-44.1238,29,0.7744,25666,4.0282,133.5303
rg,1625424660170777404,1,0.2424,-0.7788,0.4919,578,50.5371,-46.3257,-4.0894,85,0.7574,0.4122,-21.3847,-43.0897,29,0.7744,9666,4.0282,134.9648
rg,1625424660170813488,1,0.2061,-0.7654,0.5278,579,55.7251,-49.3164,-0.8545,85,0.7584,0.4072,-22.4107,-41.6734,29,0.7744,11716,4.0282,136.6303
rg,1625424660170847609,1,0.1985,-0.7332,0.5647,580,62.8052,-49.0723,6.1646,85,0.7584,0.4062,-23.328,-40.2302,29,0.7744,7681,4.0282,138.4072
rg,1625424660170879192,1,0.2788,-0.7234,0.5947,581,59.4482,-49.4385,14.0381,85,0.7584,0.4032,-24.2276,-39.0237,29,0.7734,10018,4.0282,140.4314
rg,1625424660170908219,1,0.3379,-0.7507,0.6035,582,52.2461,-48.8892,15.3809,85,0.7594,0.4032,-25.1842,-38.2116,29,0.7734,7851,4.0282,142.5113
rg,1625424660170937635,1,0.3552,-0.7642,0.606,583,49.9268,-44.9219,12.3291,85,0.7594,0.4032,-26.1075,-37.4758,29,0.7734,7678,4.0282,144.4024
rg,1625424660170964513,1,0.3499,-0.7773,0.604,584,47.4243,-31.0059,4.0894,85,0.7594,0.4042,-26.7602,-36.6182,29,0.7724,8832,4.0282,145.6525
rg,1625424660171050352,1,0.2661,-0.7742,0.5933,585,47.4854,-24.231,-5.127,85,0.7604,0.4032,-27.2408,-35.598,29,0.7714,8670,4.0282,146.4169
rg,1625424660171086714,1,0.1846,-0.7439,0.5757,586,49.7437,-32.3486,-15.0146,85,0.7604,0.4052,-28.0473,-34.4613,29,0.7734,8266,4.0282,147.0403
rg,1625424660171149936,1,0.1614,-0.7346,0.5881,587,51.7578,-40.5273,-19.9585,85,0.7594,0.4042,-29.1588,-33.2631,29,0.7724,7709,4.0282,147.6742
rg,1625424660171182871,1,0.1514,-0.7454,0.6384,588,54.8706,-62.1338,-26.3062,85,0.7614,0.4032,-31.0556,-32.0572,29,0.7704,8007,4.0282,148.5681
rg,1625424660171241499,1,0.2021,-0.7371,0.6602,589,57.373,-72.0215,-26.2451,85,0.7614,0.4012,-33.6075,-30.9996,29,0.7734,8190,4.0282,150.0254
rg,1625424660171272675,1,0.3093,-0.7119,0.6577,590,61.0352,-87.7686,-22.522,85,0.7614,0.3992,-36.6039,-30.1131,28,0.7734,9739,4.0282,151.9314
rg,1625424660171303313,1,0.3687,-0.6753,0.6235,591,63.9038,-93.1396,-19.165,85,0.7624,0.4002,-39.6199,-29.2724,28,0.7724,10000,4.0282,154.0037
rg,1625424660171331450,1,0.4102,-0.6499,0.6145,592,65.7349,-92.7734,-14.8926,85,0.7614,0.3972,-42.5976,-28.5768,28,0.7724,8235,4.0282,156.2315
rg,1625424660171358329,1,0.4636,-0.6384,0.5872,593,64.8804,-88.0737,-16.4795,85,0.7624,0.3992,-45.4849,-27.9389,28,0.7724,7880,4.0282,158.3708
rg,1625424660171398358,1,0.4871,-0.6306,0.5688,594,65.0024,-75.4395,-19.8975,85,0.7614,0.4002,-47.9707,-27.0618,28,0.7724,8464,4.0282,160.0951
rg,1625424660171426885,1,0.4585,-0.624,0.5991,595,66.6504,-61.1572,-24.9023,85,0.7634,0.3982,-49.8837,-25.6325,28,0.7724,13472,4.0282,161.1566
rg,1625424660171454856,1,0.3953,-0.6582,0.6868,596,71.5332,-51.2695,-26.6724,85,0.7644,0.3972,-51.2108,-23.6891,28,0.7724,8106,4.0282,161.7999
rg,1625424660171482123,1,0.3601,-0.6768,0.7183,597,74.4019,-52.8564,-23.5596,85,0.7644,0.3942,-52.4268,-21.8404,29,0.7724,8022,4.0282,162.6622
rg,1625424660171507871,1,0.3789,-0.6704,0.7371,598,75.9277,-58.7769,-22.4609,85,0.7644,0.3962,-53.8367,-20.0787,29,0.7714,8172,4.0282,163.6895
rg,1625424660171536972,1,0.4575,-0.6526,0.7209,599,76.9653,-67.0776,-16.2964,85,0.7644,0.3972,-55.5865,-18.7628,29,0.7714,8053,4.0282,165.2905
rg,1625424660171581003,1,0.5305,-0.6238,0.6907,600,77.8198,-62.0728,-13.4277,85,0.7644,0.3972,-57.2227,-17.4917,28,0.7714,10124,4.0282,166.9706
rg,1625424660171613735,1,0.5632,-0.5854,0.6572,601,78.064,-49.1943,-11.6577,85,0.7644,0.3992,-58.4103,-16.0731,28,0.7704,9070,4.0282,168.479
rg,1625424660171643762,1,0.5725,-0.5664,0.658,602,75.5615,-34.0576,-11.5967,85,0.7654,0.3982,-59.0152,-14.4678,28,0.7714,9018,4.0282,169.6469
rg,1625424660171673881,1,0.5569,-0.5649,0.6589,603,75.8057,-26.001,-15.1367,85,0.7654,0.3962,-58.9924,-12.3364,28,0.7714,8480,4.0282,170.2182
rg,1625424660171735862,1,0.4927,-0.5652,0.7183,604,76.2329,-12.146,-18.3716,85,0.7644,0.3962,-58.6255,-9.9886,28,0.7704,8349,4.0282,170.5015
rg,1625424660171768223,1,0.4177,-0.5503,0.782,605,77.6367,-9.3384,-14.2212,85,0.7664,0.3982,-57.9514,-7.8068,28,0.7704,8525,4.0282,171.0341
rg,1625424660171797676,1,0.4153,-0.5525,0.8379,606,76.1719,-23.3154,-11.8408,85,0.7654,0.3982,-57.786,-5.9475,28,0.7704,8343,4.0282,-188.1417
rg,1625424660171826276,1,0.449,-0.5356,0.8401,607,75.8667,-33.3862,-10.6812,85,0.7654,0.3952,-58.1448,-4.1702,28,0.7704,8268,4.0282,-187.2351
rg,1625424660171855970,1,0.5342,-0.4993,0.8069,608,72.5098,-46.7529,-7.4463,85,0.7644,0.3932,-59.1053,-2.7733,28,0.7694,8801,4.0282,-186.0486
rg,1625424660532033121,1,0.6233,-0.4583,0.7434,609,69.7632,-26.1841,-4.3335,85,0.7664,0.3932,-59.431,-1.5461,28,0.7694,26199,4.0282,-184.771
rg,1625424660532074577,1,0.574,-0.459,0.7961,610,67.8101,-3.7842,-4.6387,85,0.7674,0.3932,-58.7361,-0.3551,28,0.7694,15869,4.0282,-183.5487
rg,1625424660532096102,1,0.5247,-0.4377,0.8474,611,68.2373,1.0986,-2.2583,85,0.7674,0.3932,-57.7444,0.7629,28,0.7694,7569,4.0282,-182.212
rg,1625424660532115755,1,0.5066,-0.4229,0.8708,612,68.6035,0.6714,-0.4883,85,0.7674,0.3932,-56.7582,1.826,28,0.7694,8042,4.0282,-180.794
rg,1625424660532134946,1,0.5046,-0.3933,0.8794,613,66.7725,-6.5918,3.7842,85,0.7674,0.3922,-56.0866,2.6571,28,0.7694,7927,4.0282,-179.1716
rg,1625424660532154007,1,0.5491,-0.3701,0.8801,614,63.8428,-11.9019,8.1787,85,0.7674,0.3912,-55.7247,3.2213,28,0.7694,8442,4.0282,-177.3461
rg,1625424660532173272,1,0.5684,-0.3584,0.8953,615,60.9131,-11.9629,11.1694,85,0.7684,0.3912,-55.4006,3.4475,28,0.7694,9108,4.0282,-175.3125
rg,1625424660532192110,1,0.6238,-0.3589,0.8945,616,52.9175,-7.2632,12.5732,85,0.7684,0.3892,-54.9894,3.4159,28,0.7694,11760,4.0282,-173.2628
rg,1625424660532209856,1,0.6182,-0.3557,0.8752,617,49.4385,9.2773,14.7705,85,0.7684,0.3882,-53.9527,3.1082,28,0.7694,9848,4.0282,-171.0339
rg,1625424660532227750,1,0.6208,-0.3633,0.8865,618,45.9595,16.9678,15.3198,85,0.7694,0.3872,-52.3741,2.6592,28,0.7694,8403,4.0282,-168.7928
rg,1625424660532245218,1,0.5828,-0.3572,0.8984,619,45.3491,29.8462,16.6016,85,0.7694,0.3852,-50.52,2.275,28,0.7694,8225,4.0282,-166.6093
rg,1625424660532261945,1,0.5371,-0.3704,0.9172,620,45.8374,40.1611,20.2026,85,0.7704,0.3852,-48.2287,1.8275,28,0.7694,8083,4.0282,-164.2931
rg,1625424660532291176,1,0.5015,-0.3562,0.949,621,45.9595,44.7998,24.8413,85,0.7734,0.3842,-45.7341,1.3988,28,0.7704,8352,4.0282,-161.9024
rg,1625424660532308829,1,0.4912,-0.325,0.9495,622,46.2646,44.8608,26.9165,85,0.7704,0.3852,-43.2923,1.1485,28,0.7704,8649,4.0282,-159.615
rg,1625424660532326149,1,0.4758,-0.3064,0.9534,623,41.2598,43.9453,26.4893,85,0.7694,0.3862,-40.9335,0.9048,28,0.7694,8342,4.0282,-157.5188
rg,1625424660532343190,1,0.4705,-0.3352,0.9636,624,33.02,39.5508,27.71,85,0.7714,0.3852,-38.811,0.3567,28,0.7694,7825,4.0282,-155.4408
rg,1625424660532360381,1,0.4524,-0.3643,0.9707,625,27.8931,39.7339,24.353,85,0.7714,0.3842,-36.7095,-0.2279,28,0.7694,7959,4.0282,-153.6117
rg,1625424660532377663,1,0.4155,-0.4004,0.9951,626,26.4282,39.6729,20.9351,85,0.7714,0.3852,-34.5953,-0.7282,28,0.7684,9018,4.0282,-152.0173
rg,1625424660532394761,1,0.3647,-0.4163,0.9998,627,26.2451,34.1797,19.4702,85,0.7714,0.3832,-32.6759,-1.1477,28,0.7684,9939,4.0282,-150.5579
rg,1625424660532411895,1,0.3447,-0.4153,0.9905,628,26.4893,18.1274,15.625,85,0.7734,0.3842,-31.431,-1.4118,28,0.7694,8684,4.0282,-149.3283
rg,1625424660532428715,1,0.3723,-0.408,0.9802,629,25.8789,2.5024,10.8032,85,0.7734,0.3842,-30.9117,-1.545,28,0.7694,8864,4.0282,-148.3498
rg,1625424660532446053,1,0.4099,-0.4004,0.9778,630,26.6113,-2.0752,8.728,85,0.7744,0.3852,-30.6648,-1.5656,28,0.7694,8703,4.0282,-147.4883
rg,1625424660532463336,1,0.4192,-0.3945,0.9932,631,26.6113,-0.7324,9.8877,85,0.7754,0.3852,-30.3765,-1.5816,28,0.7704,8532,4.0282,-146.5937
rg,1625424660532480878,1,0.446,-0.3708,1,632,26.5503,9.7656,13.6719,85,0.7734,0.3852,-29.7178,-1.6115,28,0.7694,8383,4.0282,-145.5769
rg,1625424660532498086,1,0.469,-0.3408,0.9834,633,26.4893,26.1841,20.5078,85,0.7764,0.3852,-28.4754,-1.7075,28,0.7704,8959,4.0282,-144.3161
rg,1625424660532515258,1,0.4724,-0.3323,0.9958,634,26.4893,47.4243,28.6255,85,0.7764,0.3872,-26.4176,-1.8869,28,0.7714,8407,4.0282,-142.7699
rg,1625424660532532115,1,0.4595,-0.3264,0.9932,635,24.8413,59.021,29.4189,85,0.7764,0.3872,-23.9511,-2.0559,28,0.7704,8225,4.0282,-141.2705
rg,1625424660532659651,1,0.4004,-0.324,0.9968,636,21.7285,72.5098,29.8462,85,0.7774,0.3882,-20.9257,-2.2669,28,0.7704,8077,4.0282,-139.8404
rg,1625424660532680138,1,0.3186,-0.3186,0.9976,637,18.4326,74.0967,27.1606,85,0.7774,0.3892,-17.7951,-2.4826,28,0.7724,8284,4.0282,-138.5999
rg,1625424660532750010,1,0.2883,-0.3169,0.9958,638,17.2119,71.7773,25.6958,85,0.7774,0.3892,-14.9395,-2.6814,28,0.7714,8842,4.0282,-137.5902
rg,1625424660532775036,1,0.2483,-0.3103,0.9934,639,15.3198,60.6079,21.6064,85,0.7774,0.3922,-12.4398,-2.8269,28,0.7714,8294,4.0282,-136.6725
rg,1625424660532792763,1,0.2378,-0.3054,0.9927,640,14.1602,41.9922,15.0757,85,0.7784,0.3952,-10.7674,-2.9247,28,0.7714,8725,4.0282,-136.023
rg,1625424660896817730,1,0.3198,-0.3169,0.9568,641,16.1743,13.9771,1.8311,85,0.7814,0.4002,-10.4891,-2.8719,28,0.7734,25790,4.0282,-135.8675
rg,1625424660896872616,1,0.3076,-0.3052,0.948,642,20.2026,14.0381,-2.8687,85,0.7844,0.4022,-10.2102,-2.609,28,0.7744,13441,4.0282,-135.9076
rg,1625424660896893511,1,0.2522,-0.28,0.9209,643,22.0337,17.7612,-3.9673,85,0.7864,0.4062,-9.6585,-2.2268,28,0.7744,8802,4.0282,-136.0049
rg,1625424660896913702,1,0.2354,-0.2881,0.9709,644,20.1416,16.3574,-0.1221,85,0.7874,0.4052,-9.1517,-1.9715,28,0.7744,8330,4.0282,-135.9409
rg,1625424660896932430,1,0.2705,-0.3159,1.0303,645,19.3481,10.0098,5.0049,85,0.7884,0.4062,-8.9514,-1.809,29,0.7754,8113,4.0282,-135.659
rg,1625424660896950453,1,0.2935,-0.3306,1.0715,646,18.4937,5.249,7.019,85,0.7894,0.4072,-9.2437,-1.7645,29,0.7754,8073,4.0282,-135.2047
rg,1625424660896969181,1,0.3594,-0.335,1.1191,647,16.3574,-7.6294,8.4229,85,0.7904,0.4082,-9.8564,-1.7348,29,0.7754,9334,4.0282,-134.7622
rg,1625424660896987908,1,0.4297,-0.2561,1.0334,648,15.4419,-25.3906,5.9204,85,0.7894,0.4082,-11.3427,-1.6201,29,0.7754,8179,4.0282,-134.4136
rg,1625424660897006025,1,0.4299,-0.2031,0.9045,649,7.9956,-24.5361,3.6011,85,0.7924,0.4082,-12.851,-1.7407,28,0.7764,8488,4.0282,-134.1563
rg,1625424660897023567,1,0.4316,-0.2078,0.8899,650,3.2349,-19.104,4.4556,85,0.7934,0.4092,-14.0992,-2.077,28,0.7774,7717,4.0282,-133.852
rg,1625424660897094272,1,0.4221,-0.2556,0.9067,651,-6.3477,-8.4229,6.7139,85,0.7914,0.4092,-14.8277,-2.9082,28,0.7764,8230,4.0282,-133.4325
rg,1625424660897115500,1,0.3953,-0.324,0.9277,652,-7.9956,-0.061,9.3994,85,0.7964,0.4112,-15.1039,-3.9403,28,0.7774,7746,4.0282,-132.8828
rg,1625424660897133153,1,0.3794,-0.3416,0.929,653,-4.3945,1.6479,10.1318,85,0.7974,0.4132,-15.2158,-4.8589,28,0.7784,8650,4.0282,-132.3005
rg,1625424660897150288,1,0.3506,-0.3423,0.9355,654,3.479,9.2163,11.6577,85,0.7964,0.4142,-14.9882,-5.4183,28,0.7774,7788,4.0282,-131.6986
rg,1625424660897168089,1,0.3477,-0.3328,0.9512,655,10.8643,14.4653,14.5874,85,0.7984,0.4172,-14.5301,-5.6537,28,0.7784,8728,4.0282,-131.0171
rg,1625424660897187595,1,0.3528,-0.3257,0.9556,656,14.2822,15.8691,16.4185,85,0.8004,0.4192,-13.8884,-5.6739,28,0.7784,7825,4.0238,-130.2918
rg,1625424660897205822,1,0.355,-0.3269,0.9487,657,17.334,22.7051,17.395,85,0.8004,0.4202,-13.1506,-5.6339,28,0.7784,8413,4.0238,-129.5494
rg,1625424660897223364,1,0.3228,-0.3308,0.947,658,20.9961,32.0435,17.395,85,0.8024,0.4222,-12.0081,-5.4434,28,0.7794,7913,4.0238,-128.8479
rg,1625424660897241314,1,0.2888,-0.3208,0.9392,659,24.7803,36.9263,16.1133,85,0.8044,0.4222,-10.4682,-5.0101,28,0.7804,8144,4.0238,-128.1521
rg,1625424660897258819,1,0.2222,-0.2874,0.9661,660,26.6113,43.6401,18.7988,85,0.8044,0.4252,-8.7559,-4.5001,28,0.7804,7922,4.0238,-127.4574
rg,1625424660897275212,1,0.1882,-0.2314,0.99,661,26.4282,38.8794,23.2544,85,0.8064,0.4242,-7.2126,-3.8984,28,0.7814,8103,4.0238,-126.5846
rg,1625424660897292254,1,0.2112,-0.2043,1.001,662,17.2729,23.2544,26.7944,85,0.8074,0.4262,-6.3946,-3.6265,28,0.7814,11215,4.0238,-125.5322
rg,1625424660897310408,1,0.2607,-0.228,0.9919,663,9.6436,10.8643,28.6255,85,0.8084,0.4292,-6.2052,-3.7222,28,0.7824,8373,4.0238,-124.3703
rg,1625424660897328098,1,0.2769,-0.2551,0.9897,664,7.019,15.686,25.6348,85,0.8094,0.4282,-5.868,-3.9552,28,0.7824,9320,4.0238,-123.3386
rg,1625424660897345973,1,0.2576,-0.2507,0.99,665,6.3477,20.0806,22.7661,85,0.8104,0.4332,-5.3339,-4.1782,28,0.7834,8582,4.0238,-122.4422
rg,1625424660897377964,1,0.2004,-0.2581,1,666,5.5542,23.2544,20.1416,85,0.8114,0.4322,-4.5742,-4.4187,28,0.7834,8120,4.0238,-121.6682
rg,1625424660897396914,1,0.1812,-0.2708,1.0046,667,5.5542,20.5078,20.0806,85,0.8114,0.4342,-3.9071,-4.6654,28,0.7824,9345,4.0238,-120.897
rg,1625424660897414548,1,0.1782,-0.2722,1.011,668,7.2632,13.0615,17.334,85,0.8124,0.4332,-3.5597,-4.8216,28,0.7844,9013,4.0238,-120.22
rg,1625424660897431924,1,0.1899,-0.2722,1.0122,669,8.8501,5.5542,16.2964,85,0.8134,0.4352,-3.5502,-4.904,28,0.7844,9149,4.0238,-119.5632
rg,1625424660897450207,1,0.1938,-0.2632,1.01,670,9.1553,3.8452,14.1602,85,0.8124,0.4352,-3.6252,-4.9489,28,0.7834,8211,4.0238,-118.9876
rg,1625424660897468138,1,0.1829,-0.2551,1.0054,671,9.6436,2.3804,11.4136,85,0.8124,0.4372,-3.744,-4.9533,29,0.7844,9009,4.0238,-118.5171
rg,1625424660897485902,1,0.1636,-0.2451,1.0193,672,9.0942,3.6621,8.9722,85,0.8164,0.4382,-3.7708,-4.9467,29,0.7864,8622,4.0238,-118.1496
rg,1625424661251122329,1,0.1655,-0.2432,1.0044,673,4.7607,-7.2021,9.8267,85,0.8194,0.4372,-4.2336,-5.123,29,0.7864,24918,4.0238,-117.709
rg,1625424661251152226,1,0.1753,-0.2512,1.0103,674,2.5024,-10.0098,9.3994,85,0.8204,0.4372,-4.8077,-5.3993,28,0.7874,9047,4.0238,-117.2704
rg,1625424661251172472,1,0.1758,-0.2783,1.0151,675,4.3945,-10.3149,8.1177,85,0.8214,0.4392,-5.372,-5.6425,28,0.7874,9950,4.0238,-116.873
rg,1625424661251191385,1,0.175,-0.2673,1.0076,676,6.5918,-10.0708,7.3853,85,0.8224,0.4412,-5.8922,-5.7734,28,0.7884,8002,4.0238,-116.503
rg,1625424661251209649,1,0.1589,-0.2563,1.033,677,9.2163,-11.1694,7.1411,85,0.8234,0.4412,-6.4102,-5.7604,28,0.7884,8288,4.0238,-116.1388
rg,1625424661251226820,1,0.1343,-0.2139,1.019,678,11.0474,-13.855,7.5684,85,0.8254,0.4422,-6.9666,-5.6006,28,0.7884,8332,4.0238,-115.7532
rg,1625424661251245233,1,0.1309,-0.1946,1.0283,679,9.3384,-15.8691,9.9487,85,0.8254,0.4422,-7.6899,-5.6358,28,0.7894,7974,4.0238,-115.2247
rg,1625424661251281427,1,0.1489,-0.1899,1.0325,680,2.1362,-26.001,12.0239,85,0.8254,0.4452,-8.7434,-5.8776,28,0.7884,9579,4.0238,-114.6025
rg,1625424661251302025,1,0.2107,-0.2314,1.0081,681,-2.9297,-36.5601,12.085,85,0.8254,0.4452,-10.2504,-6.3761,29,0.7884,8624,4.0238,-113.9138
rg,1625424661251320697,1,0.2312,-0.2556,0.9978,682,-1.6479,-32.3486,9.0332,85,0.8264,0.4442,-11.5853,-6.8516,29,0.7864,8390,4.0238,-113.3395
rg,1625424661251338609,1,0.2202,-0.2583,0.9871,683,2.1973,-27.3438,8.4839,85,0.8274,0.4452,-12.6499,-7.1714,29,0.7894,8370,4.0238,-112.7957
rg,1625424661251356373,1,0.2295,-0.2454,0.9915,684,2.8687,-26.6113,9.0332,85,0.8274,0.4472,-13.6563,-7.4368,28,0.7894,13072,4.0238,-112.2297
rg,1625424661251373859,1,0.2688,-0.2524,0.9917,685,3.7842,-26.123,11.7188,85,0.8284,0.4482,-14.6684,-7.7057,28,0.7894,7781,4.0238,-111.544
rg,1625424661251391494,1,0.2817,-0.2422,0.9846,686,4.3335,-24.8413,13.7329,85,0.8274,0.4482,-15.639,-7.9565,28,0.7894,8376,4.0238,-110.778
rg,1625424661251408146,1,0.3013,-0.2346,0.9866,687,4.9438,-17.8223,14.6484,85,0.8274,0.4482,-16.2943,-8.1656,28,0.7904,8109,4.0238,-110.0124
rg,1625424661251424836,1,0.2996,-0.2241,0.9736,688,4.4556,-9.1553,16.4185,85,0.8284,0.4472,-16.5741,-8.3825,28,0.7904,8682,4.0238,-109.2265
rg,1625424661251441878,1,0.2815,-0.2246,0.99,689,2.2583,-3.7842,16.8457,85,0.8284,0.4482,-16.578,-8.6702,28,0.7934,8570,4.0238,-108.4579
rg,1625424661251458549,1,0.2744,-0.2273,0.9924,690,1.2207,-1.1597,17.0898,85,0.8294,0.4482,-16.42,-8.9967,28,0.7904,8897,4.0238,-107.6962
rg,1625424661251475109,1,0.2454,-0.2285,0.9966,691,0.9766,-0.061,17.7002,85,0.8284,0.4482,-16.1909,-9.3168,28,0.7904,8583,4.0238,-106.9235
rg,1625424661251491539,1,0.2231,-0.2395,0.9973,692,0.6104,1.6479,18.4326,97,0.8294,0.4482,-15.8468,-9.6639,28,0.7904,7934,4.0238,-106.1319
rg,1625424661251508821,1,0.2134,-0.2327,0.9998,693,-0.2441,1.4038,17.6392,97,0.8304,0.4472,-15.4819,-10.0114,28,0.7914,7899,4.0238,-105.3801
rg,1625424661251525381,1,0.199,-0.2456,1.0129,694,-0.2441,1.2207,19.4702,97,0.8294,0.4472,-15.1083,-10.3713,28,0.7894,8271,4.0238,-104.5563
rg,1625424661251551833,1,0.1943,-0.2546,1.0032,695,0.9155,0.9766,19.4092,97,0.8304,0.4502,-14.7484,-10.6893,28,0.7884,8379,4.0238,-103.7338
rg,1625424661251569300,1,0.1826,-0.2522,1.0112,696,0.4883,-0.5493,18.0664,97,0.8304,0.4502,-14.4408,-10.9862,28,0.7914,8701,4.0238,-102.9628
rg,1625424661251586194,1,0.1812,-0.2546,1.0132,697,0.9766,-0.3052,17.334,97,0.8294,0.4512,-14.1339,-11.2437,28,0.7904,8488,4.0238,-102.2277
rg,1625424661251602865,1,0.1746,-0.2571,1.0061,698,1.2817,-2.9907,17.7612,97,0.8304,0.4512,-13.9261,-11.4937,28,0.7904,8729,4.0238,-101.4558
rg,1625424661251619314,1,0.179,-0.2622,1.0205,699,2.5635,-6.8359,18.0054,97,0.8314,0.4482,-13.8756,-11.6938,29,0.7914,9009,4.0238,-100.6446
rg,1625424661251635522,1,0.1843,-0.2495,1.0112,700,2.3804,-8.0566,15.7471,97,0.8304,0.4492,-13.9062,-11.8514,29,0.7904,11094,4.0238,-99.9212
rg,1625424661251652045,1,0.1909,-0.2529,1.0007,701,3.54,-9.2163,15.9912,97,0.8314,0.4482,-13.9946,-11.975,29,0.7874,8467,4.0238,-99.1757
rg,1625424661251668549,1,0.1951,-0.2441,1.0002,702,3.2349,-10.6812,15.5029,97,0.8334,0.4492,-14.1489,-12.087,29,0.7914,8529,4.0238,-98.442
rg,1625424661251685331,1,0.1951,-0.2312,1.0117,703,2.9297,-11.5967,15.686,97,0.8314,0.4502,-14.3265,-12.1788,28,0.7904,8505,4.0238,-97.7013
rg,1625424661251702003,1,0.2109,-0.2505,1.0029,704,1.4038,-10.3149,14.8926,97,0.8324,0.4512,-14.4875,-12.3654,28,0.7914,9008,4.0238,-96.9919
rg,1625424661611097616,1,0.2217,-0.241,0.9883,705,3.0518,-10.6201,14.8926,97,0.8354,0.4512,-14.6822,-12.469,28,0.7914,25357,4.0238,-96.2833
rg,1625424661611150427,1,0.219,-0.2461,0.9995,706,3.0518,-8.8501,15.8691,97,0.8354,0.4522,-14.7903,-12.5728,28,0.7924,11493,4.0238,-95.5521
rg,1625424661611172451,1,0.2161,-0.2405,1.0039,707,3.2349,-6.958,17.5171,97,0.8364,0.4522,-14.7864,-12.6729,28,0.7924,8222,4.0238,-94.7734
rg,1625424661611192994,1,0.2102,-0.2366,1.0007,708,2.7466,-5.3101,18.6157,97,0.8364,0.4522,-14.6969,-12.7886,28,0.7924,9644,4.0238,-93.9682
rg,1625424661611211795,1,0.2092,-0.2397,1.0017,709,2.8687,-5.0049,19.9585,97,0.8374,0.4532,-14.5827,-12.9126,28,0.7934,8386,4.0238,-93.1116
rg,1625424661611251269,1,0.2087,-0.2405,0.9998,710,3.2959,-4.1504,20.5688,97,0.8374,0.4522,-14.4325,-13.0193,28,0.7934,7661,4.0238,-92.2395
rg,1625424661611269977,1,0.2034,-0.2441,1.0098,711,2.8076,-1.8921,20.874,97,0.8374,0.4522,-14.1804,-13.1386,28,0.7924,9127,4.0238,-91.3775
rg,1625424661611287908,1,0.2024,-0.2434,1.0046,712,2.1973,-2.1362,20.752,97,0.8384,0.4522,-13.9472,-13.274,28,0.7924,8457,4.0238,-90.5204
rg,1625424661611305301,1,0.1919,-0.2437,1.0081,713,2.8687,-1.4038,20.2026,97,0.8374,0.4522,-13.6676,-13.376,28,0.7944,7689,4.0238,-89.7408
rg,1625424661611322399,1,0.1895,-0.2366,1.0103,714,2.2583,-2.9907,20.6909,97,0.8364,0.4532,-13.4564,-13.4754,28,0.7924,8102,4.0238,-88.8868
rg,1625424661611339292,1,0.1926,-0.2288,1.0037,715,1.8311,-2.5024,19.4092,97,0.8404,0.4542,-13.2554,-13.558,28,0.7924,8121,4.0238,-88.0937
rg,1625424661611356241,1,0.1885,-0.2395,1.0022,716,-0.1831,-2.9907,19.5923,97,0.8384,0.4512,-13.0692,-13.7265,28,0.7934,8161,4.0238,-87.3721
rg,1625424661611374338,1,0.1833,-0.2439,1.0117,717,-1.0376,-2.0142,16.2964,97,0.8404,0.4522,-12.8662,-13.9074,28,0.7934,8965,4.0238,-86.7053
rg,1625424661611392417,1,0.1665,-0.2527,1.0247,718,-0.4883,-0.9766,16.9067,97,0.8394,0.4522,-12.5828,-14.0712,28,0.7924,9468,4.0238,-86.0244
rg,1625424661611410663,1,0.1509,-0.259,1.0171,719,0.7324,-3.6621,18.0664,97,0.8424,0.4542,-12.3703,-14.2099,28,0.7924,7838,4.0238,-85.2689
rg,1625424661611427871,1,0.1584,-0.2556,1.0117,720,1.5869,-6.1035,16.7236,97,0.8434,0.4532,-12.2903,-14.2964,28,0.7934,8775,4.0238,-84.5447
rg,1625424661611444802,1,0.1719,-0.2534,1.0132,721,1.2817,-7.019,17.5781,97,0.8424,0.4542,-12.2673,-14.3946,28,0.7924,7912,4.0238,-83.7792
rg,1625424661611462084,1,0.1775,-0.2568,1.0107,722,2.3804,-5.6763,15.7471,97,0.8444,0.4552,-12.2231,-14.435,28,0.7934,7909,4.0238,-83.0989
rg,1625424661611478977,1,0.1687,-0.2578,1.0154,723,3.1738,-7.2632,16.3574,97,0.8444,0.4542,-12.2153,-14.45,28,0.7944,7948,4.0238,-82.3786
rg,1625424661611496871,1,0.1648,-0.2527,1.022,724,3.3569,-7.6294,16.9678,97,0.8444,0.4552,-12.2059,-14.4485,28,0.7934,8311,4.0238,-81.6335
rg,1625424661611534474,1,0.1675,-0.2534,1.0171,725,4.2725,-8.2397,16.2354,97,0.8464,0.4562,-12.2351,-14.4099,28,0.7934,7948,4.0238,-80.9104
rg,1625424661611553534,1,0.1741,-0.2375,1.0022,726,3.9062,-8.5449,16.1133,97,0.8474,0.4562,-12.2971,-14.3616,28,0.7944,8329,4.0238,-80.1942
rg,1625424661611572076,1,0.1714,-0.2358,1.0164,727,3.9062,-9.0332,16.7847,97,0.8474,0.4582,-12.346,-14.329,28,0.7954,8554,4.0238,-79.4446
rg,1625424661611589562,1,0.1643,-0.229,1.0198,728,3.3569,-7.7515,16.4185,97,0.8454,0.4602,-12.345,-14.2804,28,0.7934,8139,4.0238,-78.7297
rg,1625424661611608308,1,0.1636,-0.239,1.0098,729,2.6855,-10.9253,18.4326,97,0.8484,0.4592,-12.4476,-14.3117,28,0.7944,8463,4.0238,-77.8964
rg,1625424661611626387,1,0.1746,-0.2402,1.0164,730,1.6479,-10.9863,17.7002,97,0.8484,0.4602,-12.5761,-14.3779,28,0.7944,13340,4.0238,-77.0916
rg,1625424661611645263,1,0.175,-0.2473,1.0186,731,1.4038,-9.4604,15.686,97,0.8484,0.4602,-12.6594,-14.446,28,0.7944,8491,4.0238,-76.3793
rg,1625424661611662063,1,0.1646,-0.2522,1.0159,732,1.8311,-8.3618,15.686,97,0.8494,0.4602,-12.6745,-14.5042,28,0.7954,8513,4.0238,-75.6759
rg,1625424661611680161,1,0.1633,-0.2449,1.011,733,2.5024,-9.3994,15.625,97,0.8494,0.4612,-12.7448,-14.567,28,0.7954,8144,4.0238,-74.9424
rg,1625424661611697814,1,0.1658,-0.2468,1.019,734,2.5635,-11.2915,16.0522,97,0.8504,0.4602,-12.8666,-14.5898,28,0.7954,8149,4.0238,-74.1975
rg,1625424661611716356,1,0.1772,-0.2468,1.0056,735,2.6245,-11.4746,15.0757,97,0.8494,0.4602,-13.029,-14.61,29,0.7944,10069,4.0238,-73.4876
rg,1625424661611734879,1,0.177,-0.2456,1.009,736,2.4414,-9.2773,14.3433,97,0.8514,0.4612,-13.1058,-14.622,29,0.7954,8235,4.0238,-72.8305
rg,1625424661963297830,1,0.1677,-0.2439,0.9961,737,2.0142,-7.9346,16.6626,97,0.8524,0.4602,-13.0888,-14.6718,28,0.7964,25748,4.0238,-72.0946
rg,1625424661963349603,1,0.1619,-0.2515,1.0161,738,2.5024,-6.7139,15.9912,97,0.8524,0.4592,-12.993,-14.6973,28,0.7964,11335,4.0238,-71.397
rg,1625424661963370849,1,0.166,-0.2393,1.019,739,3.2959,-7.5073,16.9067,97,0.8534,0.4602,-12.9503,-14.6706,28,0.7964,8595,4.0238,-70.6617
rg,1625424661963423326,1,0.1631,-0.2417,1.0112,740,3.0518,-9.1553,18.2495,97,0.8524,0.4602,-12.9554,-14.6794,28,0.7964,7921,4.0238,-69.8535
rg,1625424661963442702,1,0.1619,-0.2432,1.012,741,2.7466,-8.3618,15.7471,97,0.8534,0.4592,-12.9759,-14.7235,28,0.7964,7946,4.0238,-69.0782
rg,1625424661963460947,1,0.1589,-0.2419,1.0127,742,3.1738,-8.4839,15.3198,97,0.8534,0.4582,-12.9741,-14.6977,28,0.7964,8338,4.0238,-68.3937
rg,1625424661963478008,1,0.167,-0.2454,1.0168,743,3.7231,-9.3384,16.2964,97,0.8534,0.4582,-13.0111,-14.6672,28,0.7974,9039,4.0238,-67.6602
rg,1625424661963494994,1,0.1658,-0.2485,1.0122,744,2.5024,-9.2773,15.9912,97,0.8544,0.4592,-13.046,-14.6935,29,0.7974,8517,4.0238,-66.937
rg,1625424661963511757,1,0.1665,-0.2478,1.0142,745,3.6011,-9.2163,15.8691,97,0.8544,0.4582,-13.0354,-14.6459,29,0.7974,8399,4.0238,-66.2242
rg,1625424661963529243,1,0.167,-0.2449,1.0063,746,3.418,-7.9346,16.3574,97,0.8534,0.4582,-13.0193,-14.6318,29,0.7964,8388,4.0238,-65.5015
rg,1625424661963547304,1,0.1707,-0.2305,1.0056,747,3.479,-7.8125,16.4185,97,0.8554,0.4612,-13.0083,-14.5851,29,0.7974,8066,4.0238,-64.7846
rg,1625424661963564901,1,0.157,-0.2361,1.0129,748,1.2817,-8.1787,16.9067,97,0.8554,0.4612,-12.9748,-14.6412,29,0.7974,8167,4.0238,-64.0422
rg,1625424661963582128,1,0.1594,-0.2441,1.0151,749,0.7324,-8.3008,16.9678,97,0.8554,0.4602,-12.9495,-14.7336,29,0.7964,8484,4.0238,-63.293
rg,1625424661963598910,1,0.1494,-0.2539,1.0161,750,1.9531,-8.2397,16.6016,97,0.8564,0.4602,-12.9035,-14.7901,29,0.7974,8126,4.0238,-62.555
rg,1625424661963615952,1,0.1411,-0.2468,1.0212,751,1.709,-8.3618,15.564,97,0.8574,0.4602,-12.8555,-14.8267,29,0.7984,8312,4.0238,-61.8613
rg,1625424661963633049,1,0.1492,-0.2454,1.0144,752,3.479,-10.6812,16.1133,97,0.8574,0.4602,-12.9123,-14.8021,29,0.7984,8585,4.0238,-61.1215
rg,1625424661963651054,1,0.1599,-0.2466,1.0129,753,2.6245,-10.5591,16.6626,97,0.8574,0.4602,-13.0104,-14.8237,29,0.7974,7946,4.0238,-60.3724
rg,1625424661963668929,1,0.1614,-0.2456,1.0186,754,3.6621,-10.7422,15.8691,97,0.8584,0.4612,-13.0931,-14.7962,29,0.7984,8306,4.0238,-59.6404
rg,1625424661963698863,1,0.1562,-0.2429,1.0151,755,3.54,-10.0098,14.7095,97,0.8584,0.4612,-13.1443,-14.7537,29,0.7984,7981,4.0238,-58.9641
rg,1625424661963717201,1,0.1545,-0.2415,1.0186,756,2.5635,-11.5967,15.1978,97,0.8594,0.4622,-13.2454,-14.756,29,0.7984,8225,4.0238,-58.2524
rg,1625424661963734391,1,0.1543,-0.2451,1.0146,757,2.9297,-11.9019,15.625,97,0.8594,0.4622,-13.3502,-14.7594,29,0.7994,9973,4.0238,-57.5181
rg,1625424661963751192,1,0.1587,-0.2441,1.0151,758,3.0518,-13.1226,15.1367,97,0.8604,0.4622,-13.4915,-14.7565,29,0.7994,8084,4.0238,-56.7904
rg,1625424661963768604,1,0.1589,-0.2307,1.0149,759,2.8687,-14.0991,16.2354,97,0.8604,0.4622,-13.676,-14.7461,29,0.7984,8119,4.0238,-56.0154
rg,1625424661963786386,1,0.1572,-0.2366,1.0139,760,3.2959,-13.2446,16.1133,97,0.8604,0.4622,-13.8179,-14.7312,28,0.7994,8123,4.0238,-55.2507
rg,1625424661963805336,1,0.1567,-0.2427,1.0122,761,2.1973,-13.7329,15.686,97,0.8604,0.4622,-13.9609,-14.7959,28,0.8004,8167,4.0238,-54.5397
rg,1625424661963823007,1,0.1555,-0.2439,1.0168,762,1.6479,-12.6343,14.2822,97,0.8594,0.4642,-14.0805,-14.8436,28,0.7984,8157,4.0238,-53.8505
rg,1625424661963840604,1,0.1592,-0.2441,1.0178,763,2.4414,-13.4277,14.8926,97,0.8604,0.4632,-14.2266,-14.8675,28,0.7994,8195,4.0238,-53.1285
rg,1625424661963857738,1,0.1611,-0.2432,1.0171,764,3.418,-13.2446,13.7939,97,0.8614,0.4642,-14.3799,-14.8773,28,0.8004,8161,4.0238,-52.4408
rg,1625424661963874724,1,0.1655,-0.2417,1.0117,765,3.6011,-15.0757,15.9302,97,0.8594,0.4632,-14.5824,-14.8706,28,0.7994,8223,4.0238,-51.6597
rg,1625424661963891951,1,0.1692,-0.2434,1.0137,766,3.2349,-14.0381,15.3198,97,0.8614,0.4642,-14.75,-14.875,28,0.7974,8230,4.0238,-50.9129
rg,1625424661963909271,1,0.168,-0.2454,1.011,767,3.0518,-12.6953,14.8926,97,0.8614,0.4642,-14.8617,-14.8861,28,0.8004,8270,4.0238,-50.1958
rg,1625424661963927998,1,0.1714,-0.241,1.0166,768,2.4414,-10.8032,14.6484,97,0.8604,0.4642,-14.9042,-14.902,28,0.7994,8325,4.0238,-49.5117
rg,1625424662312810747,1,0.1692,-0.2439,1.0061,769,1.6479,-10.5591,16.2964,97,0.8614,0.4652,-14.9167,-14.9774,28,0.8004,26858,4.0249,-48.7613
rg,1625424662312946336,1,0.1541,-0.2476,1.0103,770,3.0518,-11.1084,15.9912,97,0.8624,0.4652,-14.9187,-14.9979,28,0.8004,14870,4.0249,-48.0162
rg,1625424662312973880,1,0.1602,-0.2397,1.0105,771,2.8076,-10.5591,16.5405,97,0.8624,0.4662,-14.907,-15.0143,28,0.8004,7903,4.0249,-47.2595
rg,1625424662312996552,1,0.1609,-0.2405,1.0125,772,3.0518,-10.376,15.0757,97,0.8614,0.4662,-14.8546,-15.0263,28,0.8004,9439,4.0249,-46.6037
rg,1625424662313084593,1,0.1604,-0.24,1.0215,773,3.1128,-9.4604,15.0146,97,0.8624,0.4652,-14.816,-15.0047,28,0.8014,11004,4.0249,-45.9215
rg,1625424662313115027,1,0.1575,-0.239,1.0103,774,2.2583,-10.8643,15.625,97,0.8624,0.4672,-14.8239,-15.0315,28,0.8004,7810,4.0249,-45.1989
rg,1625424662313134920,1,0.1558,-0.2361,1.0129,775,2.5635,-10.376,16.1743,97,0.8634,0.4672,-14.8027,-15.0415,28,0.8014,7816,4.0249,-44.4617
rg,1625424662313155740,1,0.1587,-0.2417,1.0198,776,2.8687,-9.8877,15.0757,97,0.8634,0.4672,-14.8036,-15.0521,28,0.8014,7793,4.0249,-43.733
rg,1625424662313175560,1,0.1562,-0.2393,1.0156,777,3.2959,-10.1318,16.9678,97,0.8624,0.4662,-14.7653,-15.0446,28,0.8014,7857,4.0249,-42.9656
rg,1625424662313199529,1,0.157,-0.2371,1.0076,778,3.6011,-10.1929,15.8691,97,0.8634,0.4652,-14.7467,-15.0133,28,0.8024,8146,4.0249,-42.2415
rg,1625424662313864306,1,0.1636,-0.2371,1.0159,779,2.6245,-11.0474,16.1133,97,0.8644,0.4662,-14.7707,-15.0228,28,0.8014,8026,4.0249,-41.4993
rg,1625424662313947587,1,0.1646,-0.2427,1.0144,780,2.9297,-9.2773,14.8315,97,0.8634,0.4642,-14.7409,-15.0147,28,0.8014,7848,4.0249,-40.8242
rg,1625424662313976816,1,0.1704,-0.2417,1.0098,781,3.1128,-8.728,15.7471,97,0.8644,0.4652,-14.6958,-15.0073,28,0.8014,7894,4.0249,-40.1183
rg,1625424662314000026,1,0.166,-0.24,1.0186,782,2.8687,-7.1411,14.8315,97,0.8644,0.4652,-14.5998,-14.9697,28,0.8024,7914,4.0249,-39.4705
rg,1625424662314023883,1,0.1658,-0.2449,1.0146,783,2.9297,-7.6294,15.1367,97,0.8644,0.4662,-14.5131,-14.9646,28,0.8014,7899,4.0249,-38.7998
rg,1625424662314051724,1,0.1628,-0.2461,1.0127,784,4.2114,-6.8359,15.3809,97,0.8644,0.4662,-14.3914,-14.9113,28,0.8014,7958,4.0249,-38.127
rg,1625424662314119833,1,0.1531,-0.2393,1.0164,785,3.8452,-6.5308,15.1367,97,0.8644,0.4682,-14.264,-14.8579,28,0.8024,7959,4.0249,-37.47
rg,1625424662314143284,1,0.1599,-0.2363,1.0203,786,3.6011,-6.0425,16.3574,97,0.8654,0.4692,-14.1051,-14.8125,28,0.8014,8017,4.0249,-36.7726
rg,1625424662314164381,1,0.1506,-0.2307,1.0159,787,3.9673,-5.9814,15.8081,97,0.8664,0.4692,-13.9387,-14.7368,28,0.8024,8019,4.0249,-36.1
rg,1625424662314186239,1,0.1382,-0.2373,1.0234,788,3.6621,-7.0801,16.7236,97,0.8654,0.4702,-13.7965,-14.6841,28,0.8034,8045,4.0249,-35.3794
rg,1625424662314205077,1,0.1321,-0.2371,1.0273,789,3.2959,-7.3242,16.7236,97,0.8664,0.4712,-13.6432,-14.6565,29,0.8004,8096,4.0249,-34.6538
rg,1625424662314226397,1,0.1492,-0.2371,1.0168,790,3.2349,-8.3618,16.7847,97,0.8674,0.4732,-13.5745,-14.6395,29,0.8024,8109,4.0249,-33.9136
rg,1625424662314245457,1,0.1428,-0.2344,1.0239,791,2.7466,-8.3618,16.3574,97,0.8674,0.4732,-13.5308,-14.6504,29,0.8034,8135,4.0249,-33.148
rg,1625424662314265592,1,0.1396,-0.2341,1.0176,792,2.6855,-8.2397,15.564,97,0.8674,0.4752,-13.5052,-14.6629,28,0.8034,10065,4.0249,-32.4097
rg,1625424662314284189,1,0.1377,-0.2358,1.0342,793,2.9907,-9.6436,16.4185,97,0.8664,0.4752,-13.4662,-14.6421,28,0.8014,8179,4.0249,-31.6737
rg,1625424662314304028,1,0.1484,-0.2393,1.0134,794,2.3193,-10.7422,14.2212,97,0.8674,0.4742,-13.5215,-14.6491,28,0.8024,8266,4.0249,-31.0092
rg,1625424662314323755,1,0.1565,-0.231,1.0171,795,2.5635,-12.6953,16.5405,97,0.8674,0.4732,-13.6221,-14.6578,28,0.8024,8185,4.0249,-30.3124
rg,1625424662314344278,1,0.1504,-0.238,1.0227,796,2.4414,-11.9019,15.1978,97,0.8674,0.4702,-13.7074,-14.6661,28,0.8024,8253,4.0249,-29.5984
rg,1625424662314364691,1,0.1472,-0.2407,1.0195,797,1.709,-12.5122,15.9912,97,0.8684,0.4742,-13.7984,-14.7207,28,0.8024,8282,4.0249,-28.8445
rg,1625424662314385196,1,0.1482,-0.2332,1.0171,798,3.1128,-11.9629,14.2822,97,0.8684,0.4732,-13.8853,-14.6857,28,0.8034,8314,4.0249,-28.1682
rg,1625424662314406257,1,0.1565,-0.2354,1.019,799,1.77,-11.5967,15.1978,97,0.8674,0.4742,-13.9621,-14.7182,28,0.8014,8202,4.0249,-27.458
rg,1625424662314452398,1,0.1621,-0.241,1.0186,800,1.709,-10.6201,14.0381,97,0.8694,0.4752,-14.0211,-14.7516,28,0.8024,8232,4.0249,-26.8013
rg,1625424662670612047,1,0.1479,-0.2288,1.0044,801,2.0142,-10.5591,14.5264,97,0.8684,0.4742,-14.0456,-14.757,28,0.8034,25991,4.0249,-26.1307
rg,1625424662670651575,1,0.1445,-0.24,1.0251,802,2.3804,-11.4136,15.3809,97,0.8694,0.4742,-14.0941,-14.7672,28,0.8034,13980,4.0249,-25.4148
rg,1625424662670672099,1,0.1479,-0.2285,1.0227,803,1.77,-11.3525,14.8926,97,0.8694,0.4752,-14.1369,-14.7788,28,0.8034,7502,4.0249,-24.7235
rg,1625424662670691511,1,0.147,-0.2339,1.0195,804,0.8545,-13.0005,15.8081,97,0.8694,0.4742,-14.2301,-14.8537,28,0.8034,8252,4.0249,-23.9748
rg,1625424662670709941,1,0.1428,-0.2375,1.0193,805,0.7935,-12.8174,15.2588,97,0.8694,0.4742,-14.3059,-14.9506,28,0.8034,8249,4.0249,-23.2434
rg,1625424662670727890,1,0.1506,-0.2368,1.021,806,1.4038,-13.3667,16.1743,88,0.8704,0.4752,-14.4077,-15.0094,28,0.8034,7929,4.0249,-22.4751
rg,1625424662670745561,1,0.1506,-0.2349,1.0203,807,1.709,-13.0005,15.625,88,0.8704,0.4752,-14.4968,-15.0447,28,0.8044,8645,4.0249,-21.7338
rg,1625424662670762788,1,0.1553,-0.2305,1.0164,808,2.6245,-12.3291,15.0757,88,0.8714,0.4752,-14.5935,-15.0698,28,0.8044,8112,4.0249,-20.9849
rg,1625424662670779774,1,0.1575,-0.24,1.0261,809,1.9531,-12.207,15.3809,88,0.8704,0.4762,-14.6587,-15.0989,28,0.8034,7694,4.0249,-20.2597
rg,1625424662670797889,1,0.1516,-0.2417,1.0217,810,2.1362,-13.1836,17.0898,88,0.8684,0.4762,-14.7294,-15.1462,28,0.8024,9506,4.0249,-19.4542
rg,1625424662670815764,1,0.1501,-0.2371,1.0125,811,2.0752,-11.7798,15.2588,88,0.8714,0.4762,-14.7621,-15.1671,28,0.8034,8142,4.0249,-18.7386
rg,1625424662670834084,1,0.1528,-0.2336,1.0127,812,2.4414,-11.7188,15.1367,88,0.8724,0.4762,-14.7974,-15.1816,28,0.8034,8019,4.0249,-18.026
rg,1625424662670851866,1,0.1497,-0.2317,1.019,813,2.7466,-11.4136,14.9536,88,0.8704,0.4762,-14.8138,-15.156,28,0.8024,8257,4.0249,-17.3304
rg,1625424662671336098,1,0.1558,-0.2358,1.0161,814,2.3193,-11.4136,15.0757,88,0.8724,0.4752,-14.8419,-15.1605,28,0.8044,8066,4.0249,-16.6271
rg,1625424662671407968,1,0.1523,-0.2371,1.0225,815,2.7466,-11.7188,15.4419,88,0.8724,0.4762,-14.8529,-15.1345,28,0.8044,8450,4.0249,-15.9453
rg,1625424662671430714,1,0.1479,-0.2358,1.0225,816,2.3193,-9.9487,13.916,88,0.8714,0.4752,-14.8172,-15.1207,28,0.8024,7876,4.0249,-15.3049
rg,1625424662671452368,1,0.1477,-0.2275,1.0161,817,2.9907,-11.2915,14.7095,88,0.8724,0.4772,-14.8286,-15.0776,29,0.8004,8504,4.0249,-14.6221
rg,1625424662671473021,1,0.1472,-0.2341,1.0173,818,2.5024,-10.6201,14.3433,88,0.8724,0.4772,-14.8159,-15.0637,29,0.8044,8553,4.0249,-13.9574
rg,1625424662671494249,1,0.145,-0.2373,1.0168,819,1.4648,-10.7422,14.0991,88,0.8714,0.4762,-14.8061,-15.0966,29,0.8044,8559,4.0249,-13.2992
rg,1625424662671513216,1,0.1418,-0.2288,1.011,820,2.5635,-12.5732,14.5264,88,0.8734,0.4762,-14.8583,-15.0783,29,0.8044,11853,4.0249,-12.6083
rg,1625424662671531388,1,0.1497,-0.2346,1.0247,821,0.7324,-12.9395,14.6484,88,0.8734,0.4762,-14.933,-15.1429,28,0.8044,9570,4.0249,-11.9067
rg,1625424662671552504,1,0.1555,-0.2407,1.0217,822,1.3428,-13.0005,14.8315,88,0.8734,0.4762,-15.0172,-15.1983,28,0.8044,8273,4.0249,-11.1935
rg,1625424662671572416,1,0.1455,-0.2432,1.0273,823,1.9531,-11.8408,15.0757,88,0.8734,0.4762,-15.0275,-15.2294,28,0.8044,8290,4.0249,-10.4829
rg,1625424662671592310,1,0.1453,-0.2332,1.0134,824,2.9297,-13.4277,16.3574,88,0.8744,0.4772,-15.0891,-15.224,28,0.8054,8319,4.0249,-9.7075
rg,1625424662671610926,1,0.1523,-0.2339,1.022,825,1.6479,-12.0239,15.4419,88,0.8744,0.4772,-15.153,-15.2508,28,0.8044,8684,4.0249,-8.9715
rg,1625424662671631487,1,0.1555,-0.2349,1.0203,826,1.709,-12.146,15.5029,88,0.8744,0.4772,-15.1934,-15.287,28,0.8054,8856,4.0249,-8.2429
rg,1625424662671650584,1,0.1621,-0.238,1.0181,827,1.709,-11.5967,15.0757,88,0.8704,0.4762,-15.2243,-15.3199,28,0.8034,7980,4.0249,-7.5366
rg,1625424662671668922,1,0.1516,-0.238,1.0156,828,1.77,-11.5356,15.564,88,0.8734,0.4772,-15.2247,-15.3553,29,0.8054,8003,4.0249,-6.8114
rg,1625424662671687038,1,0.144,-0.24,1.0142,829,1.8311,-11.5356,16.2354,88,0.8744,0.4762,-15.2017,-15.3987,29,0.8054,10552,4.0249,-6.0582
rg,1625424662671723973,1,0.1377,-0.2346,1.0122,830,2.6245,-11.9629,15.5029,88,0.8734,0.4762,-15.2345,-15.4101,29,0.8054,8175,4.0249,-5.3273
rg,1625424662671744145,1,0.1504,-0.2358,1.0183,831,2.0142,-12.3901,15.1367,88,0.8734,0.4762,-15.2678,-15.4244,29,0.8044,8836,4.0249,-4.6117
rg,1625424662671762649,1,0.1499,-0.2336,1.02,832,1.4038,-11.7798,14.4653,88,0.8744,0.4762,-15.2818,-15.4483,28,0.8044,8134,4.0249,-3.9313
rg,1625424663030478626,1,0.1443,-0.241,1.0105,833,1.8921,-12.207,15.2588,88,0.8754,0.4782,-15.2857,-15.4605,28,0.8054,25379,4.0249,-3.1902
rg,1625424663030530324,1,0.1506,-0.2371,1.0173,834,1.709,-11.8408,14.7095,88,0.8754,0.4782,-15.3072,-15.4952,28,0.8054,14781,4.0249,-2.51
rg,1625424663030562035,1,0.1555,-0.2334,1.0159,835,2.3804,-12.6343,15.9912,88,0.8754,0.4792,-15.3486,-15.4983,28,0.8054,7944,4.0249,-1.7589
rg,1625424663030592005,1,0.1533,-0.239,1.0222,836,1.8921,-11.6577,14.4043,88,0.8754,0.4772,-15.3607,-15.5104,28,0.8054,7590,4.0249,-1.0798
rg,1625424663030620511,1,0.147,-0.2378,1.0208,837,2.3193,-10.5591,13.916,88,0.8744,0.4782,-15.3355,-15.4968,28,0.8064,9138,4.0249,-0.4056
rg,1625424663030647944,1,0.146,-0.2341,1.021,838,2.1973,-11.9629,14.4653,88,0.8754,0.4782,-15.3447,-15.4881,28,0.8054,7963,4.0249,0.2767
rg,1625424663030675154,1,0.1587,-0.2334,1.0168,839,1.5869,-11.5356,14.7705,88,0.8744,0.4772,-15.3619,-15.5069,28,0.8054,9776,4.0249,0.9667
rg,1625424663030701864,1,0.1567,-0.239,1.0105,840,2.3804,-11.4746,14.7705,88,0.8754,0.4782,-15.3732,-15.5087,28,0.8054,7996,4.0249,1.66
rg,1625424663030728185,1,0.1548,-0.2366,1.0173,841,2.3193,-10.7422,15.0146,88,0.8754,0.4782,-15.3257,-15.5434,28,0.8064,7882,4.0249,2.373
rg,1625424663030754376,1,0.1443,-0.2349,1.0181,842,1.8311,-11.4136,15.625,88,0.8754,0.4782,-15.2982,-15.5607,28,0.8054,12576,4.0249,3.096
rg,1625424663030974279,1,0.147,-0.2354,1.0161,843,1.77,-11.5356,15.3198,88,0.8764,0.4782,-15.2878,-15.548,28,0.8064,7712,4.0249,3.8301
rg,1625424663031051538,1,0.1458,-0.2322,1.0146,844,2.1973,-11.9019,14.7095,88,0.8764,0.4782,-15.2948,-15.538,28,0.8064,8120,4.0249,4.5209
rg,1625424663031144467,1,0.1516,-0.241,1.0188,845,2.0142,-12.146,14.5874,88,0.8754,0.4792,-15.3226,-15.5523,28,0.8064,8543,4.0249,5.2141
rg,1625424663031183792,1,0.1506,-0.2371,1.0176,846,1.8921,-12.6343,15.2588,88,0.8764,0.4792,-15.3593,-15.5721,28,0.8064,10001,4.0249,5.9375
rg,1625424663031211946,1,0.1558,-0.2368,1.0181,847,1.709,-13.0615,15.2588,88,0.8764,0.4792,-15.4213,-15.5996,28,0.8034,10199,4.0249,6.6655
rg,1625424663031242731,1,0.1458,-0.2361,1.011,848,1.5869,-12.085,15.1978,88,0.8764,0.4782,-15.4011,-15.5911,29,0.8064,7848,4.0249,7.2998
rg,1625424663031271757,1,0.1406,-0.2373,1.0171,849,2.1362,-12.9395,15.3809,88,0.8754,0.4782,-15.4237,-15.6034,29,0.8054,8618,4.0249,8.0317
rg,1625424663031301356,1,0.1599,-0.2336,1.021,850,2.1362,-13.2446,15.9302,88,0.8774,0.4782,-15.4908,-15.6129,29,0.8034,7893,4.0249,8.7863
rg,1625424663031333086,1,0.1631,-0.238,1.0137,851,0.9155,-11.1694,14.3433,88,0.8764,0.4782,-15.501,-15.6614,29,0.8064,8282,4.0249,9.4577
rg,1625424663031361704,1,0.1565,-0.24,1.0229,852,1.4038,-12.0239,14.9536,88,0.8774,0.4782,-15.5195,-15.6971,28,0.8064,8675,4.0249,10.1628
rg,1625424663031390155,1,0.1458,-0.2334,1.02,853,2.1362,-10.498,13.916,88,0.8774,0.4782,-15.4688,-15.6735,28,0.8054,7939,4.0249,10.8054
rg,1625424663031416883,1,0.1472,-0.2256,1.0129,854,2.1973,-11.1694,14.1602,88,0.8774,0.4782,-15.4495,-15.639,28,0.8064,8338,4.0249,11.4618
rg,1625424663031447965,1,0.1494,-0.2295,1.0215,855,1.6479,-11.8408,15.1978,88,0.8774,0.4782,-15.4474,-15.6451,28,0.8064,7986,4.0249,12.1686
rg,1625424663031476545,1,0.1536,-0.2324,1.02,856,2.6855,-11.7188,15.7471,88,0.8744,0.4782,-15.4438,-15.6222,29,0.8054,8377,4.0249,12.8979
