name,time,activity,ax,ay,az,batch_val,gx,gy,gz,ibat,index,middle,pitch,roll,temp,thumb,ts,vbat,yaw
lg,1625400092939663830,0,0.4788,0.0308,0.9578,1,-2.7466,39.856,4.8828,71,1.2756,1.0515,-35.3476,14.3578,24,0.061,19584,3.971,129.8082
lg,1625400092939722553,0,0.3542,0.0435,0.9565,2,-7.3853,17.0288,7.3242,71,1.2746,1.0495,-34.1858,13.2245,24,0.06,8513,3.971,130.6578
lg,1625400092939743997,0,0.4502,0.052,0.9617,3,-10.376,-8.1787,10.0708,71,1.2756,1.0515,-34.2391,12.1529,24,0.062,7906,3.971,131.2929
lg,1625400092939764386,0,0.4836,0.0505,0.9502,4,-11.7188,-8.606,12.2681,71,1.2756,1.0505,-34.3042,11.0207,24,0.062,7989,3.971,132.083
lg,1625400092939783849,0,0.4773,0.0527,0.9309,5,-10.6201,-5.188,14.2822,71,1.2746,1.0505,-34.3267,9.9066,24,0.062,8177,3.971,132.9055
lg,1625400092939803590,0,0.4502,0.0632,0.8992,6,-12.4512,-7.4463,13.4277,71,1.2756,1.0505,-34.3954,8.8278,24,0.063,7996,3.971,133.6311
lg,1625400092939843182,0,0.354,0.1174,0.8823,7,-19.6533,-13.6108,6.8359,71,1.2756,1.0505,-34.4637,7.858,24,0.062,7992,3.971,133.8912
lg,1625400092939865978,0,0.4949,0.0283,0.8965,8,-38.208,-55.542,9.8877,71,1.2736,1.0515,-36.6639,5.9209,24,0.061,33370,3.971,134.0671
lg,1625400092939884608,0,0.5461,-0.0281,0.9036,9,-39.4897,-57.0679,5.4932,71,1.2726,1.0505,-38.7238,4.0031,24,0.061,8080,3.971,134.2883
lg,1625400092939905738,0,0.5989,-0.053,0.8906,10,-37.5977,-54.4434,-4.5776,71,1.2736,1.0515,-40.6803,2.4443,23,0.059,8017,3.971,134.0873
lg,1625400092939926386,0,0.5913,-0.0728,0.8608,11,-35.5835,-47.4854,-8.2397,71,1.2736,1.0515,-42.3055,1.0554,23,0.059,8089,3.971,133.7737
lg,1625400092939945219,0,0.5972,-0.0676,0.8391,12,-34.3018,-47.9126,-12.146,71,1.2746,1.0515,-43.9242,-0.0879,23,0.058,8083,3.971,133.2508
lg,1625400092939964664,0,0.8806,-0.6479,0.8608,13,-6.7139,-51.9409,20.9351,160,1.2716,1.0535,-45.9973,-2.7382,24,0.058,13806,3.8544,135.5588
lg,1625400092939983330,0,0.8401,-0.6421,0.8823,14,9.9487,-3.1128,16.6626,160,1.2736,1.0555,-45.9372,-4.4605,24,0.055,8378,3.8544,137.5618
lg,1625400092940002534,0,0.7192,-0.668,0.9255,15,19.4092,24.5361,15.5029,160,1.2756,1.0565,-44.5567,-5.641,24,0.055,8092,3.8544,139.3443
lg,1625400092940022053,0,0.4744,-0.7205,0.9285,16,47.6685,57.1289,3.7842,160,1.2766,1.0575,-41.6325,-5.2172,24,0.056,8177,3.8544,140.3433
lg,1625400092940039867,0,0.2761,-0.7378,0.9404,17,64.4531,66.04,6.4087,160,1.2796,1.0575,-38.1439,-4.2516,24,0.056,8182,3.8544,141.4501
lg,1625400092940059016,0,0.2463,-0.7078,0.8169,18,69.9463,53.1616,11.0474,160,1.2786,1.0565,-35.3044,-3.3425,24,0.058,9961,3.8544,142.8601
lg,1625400092940077034,0,0.2717,-0.687,0.7739,19,66.7725,45.105,12.8784,160,1.2796,1.0525,-33.3902,-2.8003,24,0.058,8240,3.8544,144.4464
lg,1625400092940095071,0,0.3408,-0.6084,0.7212,20,58.96,26.6724,16.1133,160,1.2806,1.0465,-32.0063,-2.3719,24,0.056,8239,3.8544,146.0108
lg,1625400092940113497,0,0.3643,-0.55,0.7605,21,44.8608,11.4136,10.9863,160,1.2816,1.0375,-31.2898,-2.2149,24,0.058,8281,3.8544,147.24
lg,1625400092940147534,0,0.3723,-0.3821,0.6465,22,16.0522,-7.2632,6.958,160,1.2826,1.0315,-31.4879,-2.8831,24,0.055,8335,3.8544,148.1739
lg,1625400092940169830,0,0.3921,-0.4351,0.7268,23,-3.7231,-16.7236,10.1929,160,1.2826,1.0315,-31.9748,-4.446,24,0.058,8289,3.8544,149.3013
lg,1625400092940189738,0,0.4888,-0.478,0.8169,24,-20.6909,-24.6582,14.4043,160,1.2826,1.0365,-32.8007,-6.7363,24,0.06,8372,3.8544,150.6509
lg,1625400092940221053,0,0.4692,-0.5957,0.8298,25,-36.8652,-8.7891,13.1836,160,1.2826,1.0435,-32.8675,-9.7575,24,0.061,8331,3.8544,151.9761
lg,1625400092940243108,0,0.3613,-0.6177,0.8108,26,-36.438,-4.8828,9.8267,160,1.2826,1.0495,-32.2193,-12.4759,24,0.062,8367,3.8544,152.8767
lg,1625400092940263978,0,0.2502,-0.6455,0.835,27,-32.2876,14.3433,4.9438,160,1.2836,1.0555,-30.978,-14.8915,24,0.064,8434,3.8544,153.5206
lg,1625400092940281978,0,0.0339,-0.5918,0.7202,28,-26.9165,18.9209,3.54,160,1.2826,1.0585,-29.209,-16.9965,24,0.065,8404,3.8544,153.9797
lg,1625400092940300127,0,-0.0918,-0.4783,0.6609,29,-32.8369,-11.4746,4.3945,160,1.2846,1.0615,-28.3156,-19.2897,24,0.065,8434,3.8544,154.714
lg,1625400092940319478,0,0.0461,-0.478,0.6746,30,-42.9077,-44.3726,7.5073,160,1.2836,1.0625,-30.1975,-23.1621,24,0.064,8435,3.8544,156.9737
lg,1625400092940338090,0,0.2349,-0.52,0.6572,31,-68.9697,-110.9009,20.9351,160,1.2836,1.0625,-33.258,-28.2186,24,0.061,8490,3.8544,160.4408
lg,1625400092940357182,0,0.5652,-0.6746,0.7671,32,-82.0312,-128.2959,26.4893,160,1.2826,1.0625,-36.8944,-34.5371,24,0.062,8506,3.8544,165.1122
lg,1625400093299168349,0,0.4436,-0.6304,0.7202,33,-44.4336,-26.7944,24.4751,160,1.2816,1.0625,-36.0655,-36.9899,24,0.066,24900,3.8544,166.501
lg,1625400093299220534,0,0.4719,-0.7612,0.7358,34,-18.0664,-16.8457,24.4751,160,1.2816,1.0645,-35.7212,-39.1982,24,0.061,13007,3.8544,168.5362
lg,1625400093299241719,0,0.7568,-0.8115,0.8203,35,-5.6152,-14.8315,28.4424,160,1.2826,1.0655,-35.3428,-40.5299,24,0.061,11837,3.8544,170.2016
lg,1625400093299262460,0,0.6614,-0.8252,0.8171,36,7.2021,12.5732,26.123,160,1.2836,1.0665,-33.3447,-39.6123,24,0.061,7941,3.8544,169.7681
lg,1625400093299283719,0,0.52,-0.8093,0.7878,37,34.79,62.8662,16.4795,160,1.2846,1.0675,-30.645,-37.8156,24,0.062,8065,3.8544,168.657
lg,1625400093299303275,0,0.3438,-0.6643,0.708,38,54.9927,75.5005,10.2539,160,1.2866,1.0685,-27.5489,-35.032,24,0.064,7992,3.8544,167.0999
lg,1625400093299321756,0,0.4211,-0.7114,0.7019,39,53.3447,73.1201,13.5498,160,1.2866,1.0685,-24.6296,-32.8419,24,0.063,8152,3.8544,166.0949
lg,1625400093299339793,0,0.4919,-0.7073,0.6765,40,53.5278,73.8525,15.0757,160,1.2876,1.0685,-21.9147,-30.7148,24,0.064,9031,3.8544,165.1432
lg,1625400093299359849,0,0.3704,-0.7053,0.6804,41,64.0259,101.6235,6.5918,160,1.2866,1.0675,-18.2422,-28.1051,24,0.063,8497,3.8544,163.4785
lg,1625400093299377941,0,0.03,-0.6787,0.6802,42,76.8433,117.2485,-3.7842,160,1.2856,1.0655,-13.5281,-25.0846,24,0.063,7980,3.8544,161.3812
lg,1625400093299396700,0,-0.1279,-0.6509,0.6265,43,78.9185,104.4312,-7.9956,160,1.2856,1.0625,-8.8676,-22.314,24,0.063,7987,3.8544,159.5734
lg,1625400093299416589,0,-0.179,-0.5566,0.6074,44,63.4155,35.2173,-4.3335,160,1.2856,1.0595,-6.829,-20.4608,24,0.061,8034,3.8544,159.0239
lg,1625400093299435386,0,0.125,-0.5208,0.6235,45,40.8325,-39.1846,2.3804,160,1.2856,1.0575,-8.3526,-19.6618,24,0.061,8019,3.8544,159.747
lg,1625400093299453830,0,0.3286,-0.5505,0.6589,46,28.3813,-53.6499,7.5073,160,1.2866,1.0555,-10.7778,-19.4366,24,0.059,8081,3.8544,160.8708
lg,1625400093299472293,0,0.4836,-0.6138,0.7659,47,18.7378,-33.3252,5.3101,160,1.2866,1.0545,-12.5819,-19.5043,24,0.061,8057,3.8544,161.6588
lg,1625400093299491275,0,0.3347,-0.6189,0.783,48,19.2871,4.6997,1.77,160,1.2866,1.0535,-12.6391,-19.4425,24,0.061,8111,3.8544,161.8177
lg,1625400093299510830,0,0.2947,-0.5654,0.7471,49,16.9678,5.6763,-0.4883,160,1.2876,1.0555,-12.6417,-19.4127,24,0.061,8141,3.8544,161.8684
lg,1625400093299529386,0,0.3562,-0.4851,0.7495,50,0.6714,-13.6108,-3.0518,160,1.2876,1.0605,-13.561,-19.9017,24,0.062,8139,3.8544,162.0507
lg,1625400093299547534,0,0.4829,-0.4866,0.7283,51,-24.9634,-14.3433,-0.1831,160,1.2896,1.0655,-14.7047,-21.4329,24,0.065,8174,3.8544,162.3757
lg,1625400093299566071,0,0.5237,-0.5193,0.7712,52,-34.5459,-9.2163,0.3052,160,1.2896,1.0675,-15.5377,-23.432,24,0.067,8181,3.8544,162.6903
lg,1625400093299584608,0,0.467,-0.7971,0.9045,53,-37.5366,11.0474,-5.9814,160,1.2886,1.0655,-15.4791,-25.4887,23,0.068,8163,3.8544,162.4595
lg,1625400093299602460,0,0.2976,-0.875,0.8706,54,-18.6768,31.7383,-21.0571,160,1.2886,1.0615,-14.6658,-26.6403,23,0.066,8261,3.8544,161.3015
lg,1625400093299621608,0,0.1289,-0.686,0.7524,55,-8.2397,39.1846,-29.7852,160,1.2846,1.0565,-13.6901,-26.6945,23,0.067,8706,3.8544,159.3106
lg,1625400093299640108,0,-0.166,-0.5344,0.6245,56,9.0332,45.6543,-32.6538,160,1.2826,1.0525,-11.9583,-26.4661,24,0.066,8268,3.8544,157.8222
lg,1625400093299658219,0,-0.1428,-0.4805,0.5945,57,2.8076,-7.6904,-33.2642,160,1.2786,1.0495,-11.9659,-26.6167,24,0.064,8311,3.8544,156.8489
lg,1625400093299676275,0,0.1328,-0.5637,0.6943,58,-18.0054,-74.646,-33.8745,160,1.2746,1.0485,-15.0953,-27.8644,24,0.064,8317,3.8544,157.1223
lg,1625400093299695293,0,0.4246,-0.554,0.6978,59,-20.5078,-81.2378,-31.4331,160,1.2696,1.0475,-18.9478,-29.2063,24,0.068,8523,3.8544,157.7024
lg,1625400093299714478,0,0.4763,-0.5442,0.7183,60,-19.6533,-67.0166,-30.8838,160,1.2636,1.0475,-22.2268,-30.3771,24,0.066,8341,3.8544,158.0834
lg,1625400093299732386,0,0.4158,-0.5134,0.71,61,-16.0522,-37.2314,-32.2266,160,1.2576,1.0465,-24.2805,-31.0734,24,0.059,8445,3.8544,157.7882
lg,1625400093299750182,0,0.2629,-0.5186,0.7148,62,-5.5542,-20.3857,-40.0391,160,1.2556,1.0465,-25.4939,-31.0489,24,0.059,8412,3.8544,156.8239
lg,1625400093299768923,0,0.2073,-0.4719,0.6921,63,6.4087,-18.6157,-37.6587,160,1.2556,1.0465,-26.155,-30.6397,24,0.057,8443,3.8544,156.1936
lg,1625400093299788071,0,0.1462,-0.512,0.6948,64,0.3662,-15.3809,-13.9771,160,1.2556,1.0465,-26.3193,-30.784,24,0.056,8494,3.8544,156.117
lg,1625400093680975571,0,0.5005,-0.614,0.8464,65,-25.4517,-43.2129,43.8843,160,1.2616,1.0495,-26.814,-33.1997,24,0.054,24518,3.8544,158.8961
lg,1625400093681017960,0,0.7654,-0.8037,0.9407,66,-18.2495,-34.1187,43.1519,160,1.2636,1.0515,-27.1579,-35.3146,24,0.055,10433,3.8544,161.4863
lg,1625400093681039422,0,0.7986,-0.8928,0.9573,67,14.6484,11.3525,16.9678,160,1.2676,1.0535,-26.4168,-35.1765,24,0.058,10364,3.8544,161.9494
lg,1625400093681060256,0,0.4324,-0.8247,0.9062,68,55.481,61.1572,-7.019,160,1.2706,1.0555,-24.2807,-32.4949,24,0.06,8126,3.8544,160.3141
lg,1625400093681079330,0,0.1797,-0.8044,0.7742,69,66.2231,64.3311,-9.7656,160,1.2726,1.0565,-21.7239,-29.7181,24,0.061,8199,3.8544,158.7523
lg,1625400093681098774,0,0.1406,-0.7759,0.7502,70,64.5142,52.9175,-7.7515,160,1.2746,1.0575,-19.8984,-27.5717,24,0.062,7980,3.8544,157.9955
lg,1625400093681117663,0,0.1758,-0.7507,0.7788,71,56.5186,28.0151,-0.5493,160,1.2756,1.0575,-18.5209,-25.8003,24,0.065,8075,3.8544,157.6744
lg,1625400093681136256,0,0.3259,-0.5828,0.7151,72,40.4053,9.0942,5.7983,160,1.2766,1.0585,-18.1466,-24.7214,24,0.063,8812,3.8544,157.8955
lg,1625400093681154126,0,0.4336,-0.5034,0.6917,73,4.8828,8.667,10.3149,160,1.2746,1.0585,-18.0113,-25.0131,24,0.064,10294,3.8544,158.2651
lg,1625400093681172885,0,0.4438,-0.4919,0.7888,74,-19.7144,9.2773,7.8735,160,1.2756,1.0595,-17.8378,-26.0934,24,0.065,8105,3.8544,158.4764
lg,1625400093681190848,0,0.4395,-0.5774,0.7871,75,-26.001,11.7798,11.4136,160,1.2776,1.0615,-17.5535,-27.6346,24,0.065,8105,3.8544,158.8202
lg,1625400093681208848,0,0.356,-0.6367,0.8,76,-38.6353,21.1182,3.7842,160,1.2756,1.0625,-16.8128,-29.5079,24,0.064,8277,3.8544,158.6628
lg,1625400093681226608,0,0.0879,-0.6758,0.8057,77,-35.8276,26.3062,-7.9346,160,1.2766,1.0625,-15.6009,-31.1215,24,0.065,8143,3.8544,157.9397
lg,1625400093681244460,0,-0.0396,-0.6707,0.793,78,-33.3862,19.9585,-11.5356,160,1.2766,1.0625,-15.0319,-32.8228,24,0.067,8159,3.8544,157.5076
lg,1625400093681262311,0,-0.0796,-0.6499,0.7241,79,-38.269,-28.1982,-15.3809,160,1.2756,1.0615,-15.5448,-34.7391,24,0.065,8221,3.8544,157.713
lg,1625400093681280663,0,0.1938,-0.6233,0.7358,80,-47.2412,-78.9185,-14.5264,160,1.2746,1.0615,-18.2582,-37.2579,24,0.065,8273,3.8544,159.2214
lg,1625400093681298460,0,0.2361,-0.5195,0.6455,81,-37.5977,-79.2847,-20.9351,160,1.2756,1.0615,-21.1898,-38.3629,24,0.064,8313,3.8544,160.1382
lg,1625400093681316200,0,0.1931,-0.4204,0.552,82,-14.7095,-52.5513,-9.7046,160,1.2756,1.0615,-22.8332,-39.3056,24,0.064,10121,3.8544,161.2175
lg,1625400093681333497,0,0.4534,-0.5715,0.7402,83,-32.3486,-66.4062,16.4795,160,1.2766,1.0625,-24.532,-41.4989,24,0.062,8287,3.8544,163.6238
lg,1625400093681350885,0,0.7224,-0.7593,0.8528,84,-25.4517,-31.8604,27.5269,160,1.2756,1.0625,-25.0273,-43.285,24,0.061,8622,3.8544,165.4703
lg,1625400093681368052,0,0.6721,-0.8018,0.8459,85,-15.5029,-1.8311,23.8647,160,1.2766,1.0645,-24.0055,-43.4621,24,0.062,8343,3.8544,165.4756
lg,1625400093681385885,0,0.4917,-0.7529,0.8152,86,2.5635,33.1421,17.2729,160,1.2776,1.0655,-22.5639,-43.1441,24,0.06,8407,3.8544,165.0123
lg,1625400093681403997,0,0.363,-0.7437,0.7986,87,16.6626,33.8745,10.5591,160,1.2776,1.0655,-21.118,-42.2172,24,0.059,9029,3.8544,164.3481
lg,1625400093681422460,0,0.2078,-0.7493,0.793,88,36.438,33.2642,8.7891,160,1.2796,1.0665,-19.482,-40.575,24,0.061,8420,3.8544,163.7085
lg,1625400093681440756,0,0.0769,-0.7312,0.6831,89,48.1567,12.146,0.2441,160,1.2806,1.0665,-18.5156,-38.8084,24,0.061,8453,3.8544,163.4841
lg,1625400093681460200,0,0.106,-0.7041,0.6707,90,51.3306,-4.6997,0.5493,160,1.2816,1.0665,-18.1701,-37.1114,24,0.062,8479,3.8544,163.7303
lg,1625400093681478385,0,0.1804,-0.7175,0.6692,91,50.7812,-25.0854,6.0425,160,1.2846,1.0655,-18.5313,-35.7436,24,0.061,8496,3.8544,164.6929
lg,1625400093681496052,0,0.2827,-0.7305,0.6904,92,44.3726,-43.6401,10.7422,160,1.2826,1.0635,-19.5971,-34.8714,24,0.062,10423,3.8544,166.2722
lg,1625400093681513608,0,0.4998,-0.5706,0.584,93,34.729,-58.5327,7.6904,160,1.2846,1.0615,-21.8088,-34.4159,24,0.063,8603,3.8544,168.0789
lg,1625400093681530867,0,0.6609,-0.4802,0.6177,94,7.6904,-42.5415,6.5308,160,1.2836,1.0615,-23.7651,-34.7105,24,0.064,8608,3.8544,169.4026
lg,1625400093681548293,0,0.6768,-0.5371,0.6775,95,-8.0566,-15.1978,-0.3052,160,1.2846,1.0625,-24.8226,-35.3035,24,0.065,8629,3.8544,169.8257
lg,1625400093681565885,0,0.5088,-0.6628,0.7227,96,-15.3809,5.4321,-4.2725,160,1.2846,1.0645,-24.5867,-36.1089,24,0.065,8599,3.8544,169.6653
lg,1625400094031147774,0,0.0957,-0.7126,0.7544,97,-38.0859,-19.2261,-13.6719,160,1.2846,1.0675,-24.7755,-37.9397,24,0.064,25077,3.8544,169.8129
lg,1625400094031227219,0,0.2581,-0.7822,0.8323,98,-43.7012,-56.5796,-14.5874,160,1.2826,1.0655,-26.4105,-40.3618,24,0.06,9399,3.8544,170.9825
lg,1625400094031250663,0,0.2852,-0.8572,0.8457,99,-38.208,-54.1992,-16.4795,160,1.2816,1.0635,-28.0014,-41.1386,24,0.06,7925,3.8544,171.1465
lg,1625400094031272996,0,0.1572,-0.3533,0.5576,100,32.5317,-12.0239,-60.5469,160,1.2796,1.0635,-28.0377,-38.2763,24,0.058,14824,3.8544,169.0402
lg,1625400094031295089,0,-0.0159,-0.2578,0.4707,101,19.3481,-10.9863,-23.7427,160,1.2796,1.0645,-29.0344,-38.411,24,0.057,8138,3.8544,169.8338
lg,1625400094031316496,0,0.2981,-0.418,0.6582,102,-23.1934,-74.707,3.1738,160,1.2796,1.0645,-30.9854,-40.4227,24,0.055,9495,3.8544,-187.8901
lg,1625400094031334904,0,0.6333,-0.7349,0.8347,103,-23.5596,-61.0962,14.0991,160,1.2806,1.0655,-32.3684,-42.6503,24,0.055,8037,3.8544,-185.4704
lg,1625400094031353959,0,0.5928,-0.6548,0.8013,104,-9.1553,-7.7515,20.0806,160,1.2816,1.0665,-31.9399,-43.3679,24,0.055,8028,3.8544,-184.6084
lg,1625400094031374367,0,0.5872,-0.6768,0.8145,105,-7.2021,-1.709,17.9443,160,1.2816,1.0685,-31.5105,-43.7391,24,0.056,8071,3.8544,-184.0916
lg,1625400094031393607,0,0.7493,-0.7454,0.8782,106,1.709,7.8125,11.7798,160,1.2806,1.0695,-31.0162,-43.6016,24,0.057,8095,3.8544,-184.0237
lg,1625400094031412626,0,0.5342,-0.7642,0.8633,107,21.1182,60.5469,6.0425,160,1.2816,1.0705,-28.8353,-41.818,24,0.056,8144,3.8544,-185.768
lg,1625400094031433311,0,0.1992,-0.7664,0.8022,108,39.5508,75.0122,3.0518,160,1.2826,1.0715,-25.7618,-39.3589,24,0.056,10269,3.8544,-187.8143
lg,1625400094031455774,0,-0.0171,-0.8005,0.7517,109,55.603,39.7949,-4.0894,160,1.2826,1.0705,-23.6064,-36.9541,24,0.055,10006,3.8544,171.1216
lg,1625400094031474959,0,0.1128,-0.7539,0.6814,110,59.1431,-7.7515,2.6855,160,1.2826,1.0685,-23.1326,-35.1737,24,0.054,8112,3.8544,-188.3874
lg,1625400094031494533,0,0.2158,-0.7346,0.6743,111,57.1289,-16.1743,10.0098,160,1.2836,1.0645,-23.024,-33.6984,24,0.055,8132,3.8544,-187.4235
lg,1625400094031514774,0,0.3508,-0.6904,0.6599,112,51.5747,-31.0059,16.1133,160,1.2846,1.0585,-23.6068,-32.6647,24,0.053,8123,3.8544,-185.8976
lg,1625400094031532330,0,0.5708,-0.626,0.6409,113,33.2642,-45.9595,16.8457,160,1.2856,1.0505,-25.1463,-32.4607,24,0.054,8214,3.8544,-184.0174
lg,1625400094031550885,0,0.6958,-0.5874,0.6621,114,23.0103,-39.917,14.2212,160,1.2866,1.0435,-26.6949,-32.4997,24,0.054,8161,3.8544,-182.3966
lg,1625400094031571496,0,0.6687,-0.6101,0.6821,115,9.0332,-3.54,10.6812,160,1.2846,1.0385,-26.9602,-32.6843,24,0.054,8260,3.8544,-181.7608
lg,1625400094031590626,0,0.3735,-0.5715,0.7239,116,6.4697,28.5034,5.8594,160,1.2866,1.0365,-25.6824,-32.4405,24,0.054,8330,3.8544,-182.1264
lg,1625400094031611515,0,0.2676,-0.5303,0.678,117,-1.5259,24.292,2.0752,160,1.2866,1.0405,-24.8018,-33.2014,24,0.056,8266,3.8544,-182.3489
lg,1625400094031630107,0,0.25,-0.6174,0.7661,118,-28.0151,-7.2632,-4.6997,89,1.2856,1.0475,-24.7288,-34.549,24,0.058,8267,3.9512,-182.2491
lg,1625400094031649496,0,0.3687,-0.6021,0.7278,119,-48.2178,-24.1089,-0.1831,89,1.2866,1.0575,-25.3721,-36.9269,24,0.058,8329,3.9512,-181.552
lg,1625400094031670256,0,0.4346,-0.7476,0.7981,120,-55.481,-22.9492,-2.9297,89,1.2856,1.0635,-26.0112,-39.6099,24,0.055,8350,3.9512,-180.9196
lg,1625400094031689219,0,0.3403,-0.8467,0.8367,121,-54.5654,-7.9346,-3.8452,89,1.2846,1.0645,-25.9511,-42.058,24,0.056,8385,3.9512,-180.7235
lg,1625400094031708515,0,0.2183,-0.7434,0.7915,122,-48.8281,-0.7935,-4.6997,89,1.2826,1.0625,-25.5247,-43.9835,24,0.055,8416,3.9512,-180.8446
lg,1625400094031728515,0,-0.0535,-0.531,0.604,123,18.1274,-14.8315,-59.082,89,1.2826,1.0625,-26.4564,-42.4979,24,0.053,8400,3.9512,-182.3401
lg,1625400094031748274,0,-0.2302,-0.2439,0.3984,124,24.4141,-14.3433,-62.8662,89,1.2816,1.0635,-26.5915,-41.0132,24,0.052,8405,3.9512,-183.0099
lg,1625400094031766959,0,0.0266,-0.2346,0.4253,125,-0.1831,-60.4858,-14.4653,89,1.2816,1.0635,-27.8997,-41.0685,24,0.054,8502,3.9512,-181.9522
lg,1625400094031787978,0,0.5977,-0.5679,0.7319,126,-31.9824,-96.4355,22.7661,89,1.2826,1.0655,-30.2978,-44.0388,24,0.054,8921,3.9512,-178.249
lg,1625400094031805330,0,0.8052,-0.7529,0.8647,127,-22.1558,-30.2734,31.0669,89,1.2836,1.0665,-30.4569,-45.8181,24,0.054,8558,3.9512,-176.2963
lg,1625400094031837237,0,0.6895,-0.7837,0.8438,128,-7.5684,11.2915,23.0103,89,1.2836,1.0675,-29.4969,-46.174,24,0.055,9729,3.9512,-176.0013
lg,1625400094405253941,0,0.3301,-0.6621,0.7114,129,32.5928,75.1343,11.2305,89,1.2856,1.0695,-26.6405,-43.764,24,0.057,24115,3.9512,-178.1201
lg,1625400094405297978,0,0.1038,-0.7397,0.7109,130,44.0674,64.9414,2.5024,89,1.2856,1.0705,-23.8599,-41.3125,24,0.057,9048,3.9512,-179.9238
lg,1625400094405319681,0,-0.0317,-0.7949,0.7229,131,50.7202,48.4619,-5.5542,89,1.2856,1.0715,-21.5541,-38.968,24,0.054,8075,3.9512,-181.3347
lg,1625400094405340348,0,0.1235,-0.7773,0.6873,132,62.0728,-11.2915,1.0986,89,1.2886,1.0715,-21.3115,-37.0115,24,0.054,14450,3.9512,-180.841
lg,1625400094405359996,0,0.4214,-0.5598,0.6194,133,49.0723,-39.3677,6.6528,89,1.2886,1.0715,-22.6294,-35.7014,24,0.052,8001,3.9512,-179.5357
lg,1625400094405379441,0,0.667,-0.3945,0.4746,134,28.2593,-42.7246,8.4839,89,1.2886,1.0705,-24.7572,-35.2393,24,0.054,8002,3.9512,-178.1107
lg,1625400094405398367,0,0.8613,-0.4851,0.6631,135,-10.376,-16.3574,5.188,89,1.2886,1.0715,-25.9941,-35.936,23,0.055,8016,3.9512,-177.4885
lg,1625400094405420404,0,0.6775,-0.7356,0.8052,136,-21.7285,28.6865,-7.2021,89,1.2886,1.0745,-25.4738,-36.5951,23,0.056,9584,3.9512,-178.3989
lg,1625400094405440218,0,0.2542,-0.7437,0.7417,137,-10.2539,69.1528,-25.8789,89,1.2866,1.0745,-23.4119,-36.2265,23,0.055,8336,3.9512,-180.9691
lg,1625400094405459941,0,0.0469,-0.7297,0.7419,138,-6.958,75.5615,-31.6772,89,1.2866,1.0745,-20.5477,-35.7486,23,0.056,8057,3.9512,-183.8367
lg,1625400094405480329,0,-0.2065,-0.699,0.7122,139,-10.1318,34.8511,-29.6021,89,1.2856,1.0725,-18.9102,-35.8647,24,0.054,8089,3.9512,-185.6001
lg,1625400094405499978,0,-0.1074,-0.6956,0.707,140,11.3525,-36.3159,-47.4854,89,1.2856,1.0725,-20.2343,-35.5178,24,0.055,8109,3.9512,-186.2131
lg,1625400094405518811,0,-0.033,-0.5093,0.5527,141,21.7896,-46.7529,-48.7061,89,1.2846,1.0725,-22.055,-34.1542,24,0.057,8108,3.9512,-186.3837
lg,1625400094405536811,0,0.1975,-0.2317,0.4622,142,11.7188,-57.1289,-17.0288,89,1.2846,1.0725,-24.2763,-33.6792,24,0.057,8093,3.9512,-185.7241
lg,1625400094405557718,0,0.3779,-0.4648,0.7415,143,-22.522,-75.8057,-0.9766,89,1.2856,1.0735,-26.7415,-35.3081,24,0.059,8326,3.9512,-183.8815
lg,1625400094405578737,0,0.5918,-0.7126,0.8093,144,-25.9399,-67.2607,8.606,89,1.2856,1.0735,-28.2151,-37.2973,24,0.058,8187,3.9512,-181.7393
lg,1625400094405598459,0,0.677,-0.6843,0.843,145,-13.7939,-38.8794,16.9678,89,1.2856,1.0755,-29.1011,-38.7916,24,0.058,9429,3.9512,-179.9727
lg,1625400094405618089,0,0.6523,-0.7957,0.8616,146,-2.4414,3.418,17.6392,89,1.2856,1.0745,-28.5569,-39.2687,24,0.058,9792,3.9512,-179.3849
lg,1625400094405639792,0,0.5854,-0.728,0.8098,147,9.3384,26.7944,11.4746,89,1.2886,1.0765,-27.4235,-38.8218,24,0.057,8279,3.9512,-179.7032
lg,1625400094405662070,0,0.3472,-0.6746,0.7725,148,25.0244,49.6216,11.5967,89,1.2876,1.0775,-24.9734,-37.5573,24,0.057,11380,3.9512,-180.5893
lg,1625400094405680922,0,0.1899,-0.7666,0.7402,149,38.5132,40.8325,8.9722,89,1.2886,1.0775,-22.8824,-36.0673,24,0.058,8536,3.9512,-181.1915
lg,1625400094405717959,0,0.1362,-0.7571,0.7417,150,51.2695,13.9771,-1.2207,89,1.2896,1.0785,-21.8561,-34.2714,24,0.055,8324,3.9512,-181.4183
lg,1625400094405743478,0,0.2048,-0.7312,0.6973,151,54.9927,-7.6904,4.6997,89,1.2906,1.0785,-21.6136,-32.7038,24,0.052,8405,3.9512,-180.8747
lg,1625400094405765200,0,0.2449,-0.7285,0.6902,152,53.4668,-16.6626,8.4229,89,1.2906,1.0785,-21.7055,-31.3865,24,0.051,8393,3.9512,-179.9738
lg,1625400094405787552,0,0.4614,-0.5469,0.6238,153,41.1987,-33.2031,10.5591,89,1.2916,1.0765,-22.9188,-30.5308,24,0.052,8359,3.9512,-178.7105
lg,1625400094405807404,0,0.6577,-0.3789,0.5977,154,14.2822,-19.3481,12.3901,89,1.2896,1.0755,-24.1005,-30.3679,24,0.052,9032,3.9512,-177.798
lg,1625400094405826292,0,0.5686,-0.5801,0.7222,155,-8.9111,-0.5493,-0.3662,89,1.2896,1.0755,-24.4223,-31.0254,24,0.052,8474,3.9512,-177.6735
lg,1625400094405845015,0,0.4553,-0.626,0.7451,156,-14.0991,8.3618,-7.5073,89,1.2896,1.0775,-24.3235,-31.7376,24,0.052,8527,3.9512,-178.0026
lg,1625400094405864367,0,0.2654,-0.5872,0.7173,157,-23.8037,17.0288,-10.437,89,1.2896,1.0785,-23.6443,-32.6722,24,0.053,8473,3.9512,-178.6632
lg,1625400094405882552,0,0.1558,-0.6221,0.7432,158,-32.5928,-0.3052,-12.9395,89,1.2896,1.0795,-23.3711,-34.0835,24,0.054,8499,3.9512,-179.0123
lg,1625400094405900959,0,0.1301,-0.7871,0.8486,159,-38.5742,-26.7944,-14.8315,89,1.2876,1.0765,-23.9251,-36.0401,24,0.054,8447,3.9512,-178.7321
lg,1625400094405919181,0,0.0049,-0.8237,0.9524,160,-15.0757,-42.7246,-33.02,89,1.2876,1.0755,-25.1621,-36.8171,24,0.056,8579,3.9512,-178.7029
lg,1625400094738082700,0,0.4663,-0.3809,0.5779,161,0.9155,-52.4292,-13.5498,89,1.2876,1.0765,-27.4959,-37.0548,24,0.057,24328,3.9512,-177.8325
lg,1625400094738117237,0,0.3723,-0.5862,0.7805,162,-8.2397,-27.0996,-0.7324,89,1.2876,1.0775,-28.1017,-37.7011,24,0.057,9436,3.9512,-177.121
lg,1625400094738137718,0,0.4392,-0.6179,0.8066,163,-6.1646,-14.8926,17.0898,89,1.2886,1.0775,-27.9533,-38.4081,24,0.056,13525,3.9512,-176.1051
lg,1625400094738157033,0,0.6194,-0.752,0.8804,164,-2.3193,-10.0098,24.5361,89,1.2886,1.0785,-27.651,-39.1089,24,0.055,7931,3.9512,-174.9223
lg,1625400094738175089,0,0.7302,-0.7295,0.8894,165,7.8735,23.3154,22.7661,89,1.2896,1.0795,-26.5397,-38.8553,24,0.054,10844,3.9512,-174.791
lg,1625400094738193514,0,0.5256,-0.7307,0.8455,166,22.644,67.5659,20.2026,89,1.2886,1.0795,-23.8706,-37.532,24,0.054,7995,3.9512,-175.9118
lg,1625400094738211126,0,0.3933,-0.7397,0.8469,167,31.25,78.5522,17.0288,89,1.2906,1.0805,-20.5559,-35.9208,24,0.055,7991,3.9512,-177.2793
lg,1625400094738229218,0,0.1267,-0.8003,0.7761,168,52.9785,77.3926,1.8921,89,1.2916,1.0815,-17.4421,-33.6283,24,0.055,8088,3.9512,-178.9307
lg,1625400094738246959,0,-0.0327,-0.7378,0.7168,169,69.0308,40.5884,-2.0752,89,1.2916,1.0815,-15.3886,-31.0951,24,0.052,8005,3.9512,-179.7453
lg,1625400094738264922,0,0.104,-0.6814,0.6335,170,60.73,-3.479,12.7563,89,1.2926,1.0805,-14.9175,-29.4494,24,0.051,8504,3.9512,-179.0404
lg,1625400094738282200,0,0.2124,-0.7073,0.6597,171,54.7485,-24.7803,16.6626,89,1.2926,1.0785,-15.6919,-28.0761,24,0.051,8071,3.9512,-177.8072
lg,1625400094738299144,0,0.5029,-0.5356,0.7046,172,40.2222,-52.124,19.165,89,1.2926,1.0745,-17.7221,-27.2866,24,0.049,8180,3.9512,-176.0018
lg,1625400094738315996,0,0.7815,-0.4219,0.6404,173,7.5073,-31.0059,17.8223,89,1.2926,1.0735,-19.547,-27.5658,24,0.048,8164,3.9512,-174.6756
lg,1625400094738333051,0,0.6646,-0.5596,0.7463,174,-5.8594,4.1504,4.0283,89,1.2926,1.0745,-19.9505,-28.134,24,0.049,8139,3.9512,-174.4998
lg,1625400094738352570,0,0.3035,-0.6157,0.7405,175,-9.7046,20.9961,-2.1973,89,1.2916,1.0765,-18.8881,-28.7365,24,0.05,9125,3.9512,-175.2821
lg,1625400094738370126,0,0.2129,-0.5645,0.7302,176,-13.2446,29.7241,-10.1929,89,1.2906,1.0785,-17.8212,-29.3099,24,0.052,8195,3.9512,-176.152
lg,1625400094738387755,0,0.0278,-0.5647,0.7771,177,-19.8364,6.897,-13.9771,89,1.2906,1.0795,-17.2289,-30.1725,24,0.052,8199,3.9512,-176.7255
lg,1625400094738404755,0,-0.0146,-0.6499,0.7776,178,-28.0151,-31.0669,-10.2539,89,1.2906,1.0795,-17.8014,-31.7713,24,0.053,8370,3.9512,-176.3126
lg,1625400094738422051,0,0.0852,-0.6311,0.7874,179,-31.7993,-52.7344,-6.7749,89,1.2896,1.0785,-19.5089,-33.637,24,0.053,8234,3.9512,-175.2598
lg,1625400094738439366,0,0.344,-0.5496,0.7344,180,-31.25,-63.2935,0.1221,89,1.2886,1.0765,-21.616,-35.5409,24,0.057,8257,3.9512,-173.6758
lg,1625400094738456089,0,0.2227,-0.3865,0.698,181,-6.4697,-40.1611,-11.5356,89,1.2886,1.0765,-22.9456,-35.7493,24,0.057,8323,3.9512,-173.1694
lg,1625400094738472959,0,0.0205,-0.4224,0.6353,182,-12.207,-39.2456,0,89,1.2886,1.0775,-23.3749,-36.5293,24,0.056,10766,3.9512,-172.2034
lg,1625400094738489977,0,0.3757,-0.5654,0.7278,183,-36.5601,-90.7593,31.5552,89,1.2896,1.0775,-25.3885,-39.4951,24,0.056,8326,3.9512,-168.6353
lg,1625400094738507218,0,0.5908,-0.7612,0.9238,184,-41.0767,-106.7505,34.1187,89,1.2896,1.0785,-27.7069,-43.0448,24,0.056,8419,3.9512,-164.3366
lg,1625400094738524589,0,1.1953,-1.0105,0.9841,185,-2.1973,-54.5044,19.7144,89,1.2906,1.0785,-29.2163,-44.3447,24,0.056,8440,3.9512,-161.926
lg,1625400094738541996,0,0.4919,-0.8521,0.8025,186,44.0063,72.3267,9.7046,89,1.2916,1.0805,-26.5943,-41.7811,24,0.057,8546,3.9512,-163.7991
lg,1625400094738559200,0,0.1289,-0.7341,0.6885,187,69.1528,72.2656,-5.249,89,1.2926,1.0815,-23.7823,-38.2916,24,0.057,8473,3.9512,-165.9165
lg,1625400094738576551,0,0.0581,-0.7004,0.667,188,72.2656,60.2417,2.5024,89,1.2936,1.0815,-21.0231,-35.1929,24,0.053,8485,3.9512,-167.2326
lg,1625400094738593051,0,0.0852,-0.6404,0.5901,189,68.2373,19.9585,15.7471,89,1.2936,1.0815,-19.4257,-33.0012,24,0.053,8493,3.9512,-166.9626
lg,1625400094738610033,0,0.3052,-0.656,0.6211,190,56.3354,-22.0947,23.7427,89,1.2946,1.0795,-19.647,-31.7342,24,0.053,8514,3.9512,-165.4317
lg,1625400094738626681,0,0.4932,-0.6782,0.6809,191,49.4385,-39.0015,19.8364,89,1.2946,1.0775,-20.8731,-30.7933,24,0.055,8507,3.9512,-163.6832
lg,1625400094738643107,0,0.5413,-0.634,0.73,192,47.1191,-33.3862,15.8081,89,1.2966,1.0745,-22.0389,-29.7612,24,0.057,8621,3.9512,-162.2423
lg,1625400095108279773,0,0.4131,-0.4866,0.7458,193,2.9297,1.5869,6.4087,89,1.2966,1.0745,-21.9649,-29.8434,24,0.058,24929,3.9512,-161.9906
lg,1625400095108314811,0,0.4136,-0.5095,0.7834,194,-9.5215,-3.1738,-0.7935,89,1.2956,1.0785,-22.0988,-30.3865,24,0.059,13571,3.9512,-162.1429
lg,1625400095108335329,0,0.2444,-0.4998,0.7729,195,-23.6816,7.6904,-7.5684,89,1.2956,1.0805,-21.6011,-31.6325,24,0.057,8027,3.9512,-162.6296
lg,1625400095108354940,0,0.1655,-0.5942,0.8252,196,-42.9077,6.4697,-8.728,89,1.2946,1.0805,-21.082,-33.3357,24,0.054,7947,3.9512,-163.0412
lg,1625400095108373199,0,0.093,-0.6631,0.8618,197,-45.4712,-16.4795,-10.437,89,1.2946,1.0785,-21.222,-35.3258,24,0.055,7895,3.9512,-162.9594
lg,1625400095108391014,0,0.1641,-0.6138,0.8574,198,-43.8232,-24.5361,-10.3149,89,1.2926,1.0765,-21.975,-36.1865,24,0.057,7945,3.9512,-163.1658
lg,1625400095108408292,0,-0.0022,-0.5366,0.759,199,10.8032,-34.2407,-46.4478,89,1.2926,1.0775,-23.0614,-35.5968,24,0.057,8966,3.9512,-163.864
lg,1625400095108425588,0,-0.1162,-0.3049,0.5459,200,11.1694,-39.3677,-36.1938,89,1.2916,1.0775,-23.9214,-34.7556,24,0.057,8540,3.9512,-164.2589
lg,1625400095108442755,0,0.2876,-0.3743,0.7043,201,-25.2075,-98.2666,8.1787,89,1.2906,1.0775,-26.7435,-36.6847,24,0.057,7928,3.9512,-161.5385
lg,1625400095108460533,0,0.6477,-0.76,0.8523,202,-40.1001,-94.5435,25.5127,89,1.2916,1.0785,-29.1602,-40.1447,24,0.055,7959,3.9512,-157.8776
lg,1625400095108480940,0,0.8674,-0.8567,1.0054,203,-27.8931,-75.7446,23.1934,89,1.2916,1.0785,-30.957,-42.8251,24,0.057,7991,3.9512,-154.7445
lg,1625400095108500051,0,0.802,-0.8267,0.8936,204,5.249,24.0479,24.353,89,1.2926,1.0805,-29.6839,-42.6384,24,0.056,8149,3.9512,-154.6835
lg,1625400095108517940,0,0.4692,-0.7729,0.8689,205,21.7285,54.4434,14.5874,89,1.2926,1.0805,-27.3739,-41.1656,24,0.055,8015,3.9512,-155.8727
lg,1625400095108535607,0,0.4412,-0.7114,0.7771,206,29.7852,52.1851,12.146,89,1.2926,1.0815,-25.2891,-39.5349,24,0.056,8058,3.9512,-156.9505
lg,1625400095108553107,0,0.2888,-0.7317,0.7112,207,41.5039,63.1104,10.1929,89,1.2936,1.0815,-22.7005,-37.5746,24,0.056,8089,3.9512,-158.2138
lg,1625400095108570662,0,0.1104,-0.7239,0.6836,208,52.7954,42.1753,-4.5166,89,1.2936,1.0825,-20.8284,-35.3881,24,0.055,8123,3.9512,-159.2941
lg,1625400095108588014,0,0.1013,-0.6904,0.6809,209,53.833,24.231,-2.7466,89,1.2946,1.0825,-19.5234,-33.419,24,0.054,8128,3.9512,-159.8177
lg,1625400095108604922,0,0.1868,-0.6709,0.6987,210,46.2036,-11.4746,2.7466,89,1.2936,1.0815,-19.5176,-32.1172,24,0.054,8103,3.9512,-159.3097
lg,1625400095108621625,0,0.6279,-0.3835,0.5974,211,13.7329,-40.8325,13.1226,89,1.2946,1.0815,-21.4595,-32.0706,24,0.054,8151,3.9512,-157.9041
lg,1625400095108639107,0,0.7729,-0.4326,0.7122,212,-4.4556,-34.6069,14.9536,89,1.2946,1.0825,-23.0735,-32.894,24,0.054,8184,3.9512,-156.4996
lg,1625400095108656292,0,0.729,-0.6216,0.8013,213,-17.4561,3.9062,-3.7231,89,1.2936,1.0835,-23.5174,-33.6637,24,0.055,8193,3.9512,-156.6615
lg,1625400095108673181,0,0.4514,-0.616,0.7395,214,-13.3057,45.0439,-19.2871,89,1.2936,1.0845,-22.5163,-33.7258,24,0.056,8417,3.9512,-158.3558
lg,1625400095108691070,0,0.0229,-0.5837,0.7366,215,-12.6343,61.6455,-25.6348,89,1.2936,1.0855,-20.0425,-33.4986,24,0.059,8243,3.9512,-160.7865
lg,1625400095108708903,0,-0.1821,-0.6448,0.7905,216,-18.0054,19.5312,-25.1465,89,1.2946,1.0845,-18.8139,-33.9943,24,0.059,9412,3.9512,-162.0588
lg,1625400095108726848,0,-0.0684,-0.5854,0.6643,217,-5.127,-54.5044,-36.9263,89,1.2936,1.0845,-20.5436,-34.5008,24,0.06,8463,3.9512,-161.9515
lg,1625400095108745014,0,0.0342,-0.498,0.6279,218,-6.2866,-71.7163,-36.0107,89,1.2936,1.0835,-23.6513,-35.1917,24,0.059,8372,3.9512,-160.8226
lg,1625400095108762366,0,0.3484,-0.3792,0.6736,219,-16.1133,-85.8765,-18.0054,89,1.2936,1.0835,-27.0256,-36.4415,24,0.057,9541,3.9512,-159.2627
lg,1625400095108779644,0,0.5039,-0.5879,0.7915,220,-25.0244,-66.1621,1.4648,89,1.2936,1.0845,-29.0751,-38.3175,24,0.056,8367,3.9512,-157.3845
lg,1625400095108796792,0,0.6724,-0.7886,0.918,221,-17.4561,-47.3022,8.8501,89,1.2926,1.0845,-30.3026,-39.9348,24,0.055,9144,3.9512,-155.6485
lg,1625400095108813366,0,0.7178,-0.7849,0.8921,222,0.7935,6.0425,10.0708,89,1.2926,1.0855,-29.8859,-40.036,24,0.055,8508,3.9512,-155.45
lg,1625400095108830422,0,0.4731,-0.8057,0.8264,223,20.0806,46.4478,6.4087,89,1.2926,1.0855,-27.9947,-38.8589,24,0.056,8456,3.9512,-156.4906
lg,1625400095108847385,0,0.3821,-0.7297,0.7795,224,31.7383,52.7344,5.5542,89,1.2936,1.0865,-25.8759,-37.1909,24,0.055,8492,3.9512,-157.6722
lg,1625400095464511292,0,0.1802,-0.667,0.6541,225,57.4341,0.3662,-3.54,89,1.2966,1.0875,-25.3689,-35.1967,24,0.057,24784,3.9512,-157.6421
lg,1625400095464543662,0,0.3293,-0.6704,0.6436,226,52.6123,-27.4658,3.2349,89,1.2976,1.0865,-25.9764,-33.8932,24,0.054,9276,3.9512,-156.6359
lg,1625400095464564255,0,0.4634,-0.7009,0.6833,227,49.1943,-35.7056,5.5542,89,1.2986,1.0865,-27.0284,-32.878,24,0.054,12932,3.9512,-155.3431
lg,1625400095464583958,0,0.5483,-0.6235,0.6924,228,43.2739,-19.2261,5.3711,89,1.2986,1.0855,-27.7016,-31.7998,24,0.053,10431,3.9512,-154.5193
lg,1625400095464602125,0,0.5955,-0.4363,0.6782,229,30.2734,-7.019,2.9907,92,1.2986,1.0855,-28.2155,-30.7482,24,0.053,7870,3.9424,-154.23
lg,1625400095464619977,0,0.6018,-0.4465,0.7056,230,3.7842,6.4697,-0.7324,92,1.2976,1.0865,-28.3007,-30.5614,24,0.054,7939,3.9424,-154.3867
lg,1625400095464637718,0,0.5859,-0.4299,0.6968,231,-3.3569,16.9678,-2.2583,92,1.2976,1.0875,-28.0454,-30.5005,24,0.054,7902,3.9424,-154.853
lg,1625400095464655644,0,0.395,-0.3748,0.699,232,-27.5879,36.1938,-6.4087,92,1.2966,1.0885,-26.8707,-30.9997,24,0.056,7986,3.9424,-155.9869
lg,1625400095464673625,0,0.1565,-0.626,0.8831,233,-42.4805,27.0386,-9.8877,92,1.2946,1.0855,-25.4337,-32.4249,24,0.059,8170,3.9424,-156.924
lg,1625400095464691403,0,0.0798,-0.7095,0.9277,234,-44.1895,17.395,-10.8032,92,1.2936,1.0825,-24.7677,-33.7922,24,0.057,7992,3.9424,-157.5605
lg,1625400095464711088,0,-0.0972,-0.771,1.0249,235,-5.249,-10.9253,-42.9688,92,1.2936,1.0815,-24.9759,-33.5806,24,0.059,8064,3.9424,-158.809
lg,1625400095464729181,0,-0.1194,-0.3823,0.5679,236,28.9307,-36.9873,-63.9038,92,1.2936,1.0815,-26.292,-31.7956,24,0.058,8822,3.9424,-160.2759
lg,1625400095464746514,0,0.1606,-0.2427,0.5618,237,0.3662,-74.8901,-14.3433,92,1.2946,1.0825,-29.5281,-33.2968,24,0.058,11581,3.9424,-158.0809
lg,1625400095464763570,0,0.5366,-0.4763,0.8191,238,-29.8462,-92.041,12.6343,92,1.2946,1.0835,-32.2493,-35.8522,24,0.058,8080,3.9424,-155.2195
lg,1625400095464780458,0,0.7192,-0.751,0.9587,239,-21.6675,-43.2739,20.6299,92,1.2956,1.0835,-33.056,-37.8849,24,0.057,8214,3.9424,-153.1555
lg,1625400095464796866,0,0.6997,-0.78,0.9524,240,2.0752,20.0195,20.752,92,1.2956,1.0845,-31.775,-37.953,24,0.056,8319,3.9424,-152.9397
lg,1625400095464813736,0,0.6025,-0.7322,0.8906,241,12.4512,46.5698,18.7988,92,1.2956,1.0855,-29.6777,-37.1849,24,0.056,8271,3.9424,-153.5461
lg,1625400095464830458,0,0.4441,-0.6548,0.8086,242,24.6582,66.9556,14.9536,92,1.2966,1.0865,-26.9159,-35.6703,24,0.056,8942,3.9424,-154.7762
lg,1625400095464847125,0,0.2849,-0.6987,0.7708,243,34.3628,62.2559,3.8452,92,1.2956,1.0855,-24.3407,-33.9478,24,0.057,8625,3.9424,-156.0885
lg,1625400095464863699,0,0.1184,-0.7964,0.7493,244,48.4619,39.4287,-10.437,92,1.2966,1.0875,-22.5656,-32.0323,24,0.055,8246,3.9424,-157.1723
lg,1625400095464880218,0,0.1135,-0.7673,0.7336,245,52.002,21.8506,-13.9771,92,1.2976,1.0875,-21.4912,-30.178,24,0.055,8277,3.9424,-157.9361
lg,1625400095464896607,0,0.2073,-0.6887,0.7117,246,54.3213,-2.0752,-4.3945,92,1.2966,1.0875,-21.2896,-28.5345,24,0.054,8277,3.9424,-157.8419
lg,1625400095464913199,0,0.5928,-0.311,0.6311,247,22.583,-26.9775,7.5073,92,1.2976,1.0875,-22.8214,-27.8636,24,0.054,8310,3.9424,-157.0403
lg,1625400095464930199,0,0.7485,-0.3689,0.7029,248,-0.9766,-24.7192,11.7188,92,1.2976,1.0885,-23.868,-28.9845,24,0.055,8367,3.9424,-156.398
lg,1625400095464947384,0,0.8547,-0.6289,0.8352,249,-21.2402,1.8921,-0.8545,92,1.2966,1.0885,-24.4209,-30.0639,24,0.055,8514,3.9424,-156.3599
lg,1625400095464964199,0,0.6079,-0.6562,0.8047,250,-14.5874,67.5049,-15.625,92,1.2966,1.0885,-22.648,-30.1503,24,0.056,8371,3.9424,-158.2941
lg,1625400095464981125,0,0.0728,-0.6533,0.873,251,-6.7749,99.7925,-31.25,92,1.2966,1.0875,-19.0932,-29.5236,24,0.057,8549,3.9424,-161.4732
lg,1625400095464997681,0,-0.2029,-0.7971,0.9692,252,7.019,87.0361,-41.9922,92,1.2966,1.0855,-15.7441,-28.8207,24,0.058,8429,3.9424,-164.5953
lg,1625400095465014403,0,-0.1951,-0.7512,0.6797,253,25.5127,-10.1929,-78.3691,92,1.2956,1.0855,-16.6017,-27.812,24,0.057,8470,3.9424,-167.0482
lg,1625400095465031107,0,0.3252,-0.3682,0.6287,254,23.4375,-62.2559,-57.8003,92,1.2966,1.0845,-20.1523,-26.6612,24,0.057,8517,3.9424,-167.9854
lg,1625400095465047514,0,0.3459,-0.2393,0.5859,255,22.2778,-5.6763,-38.3301,92,1.2956,1.0855,-21.3563,-25.1133,24,0.057,9312,3.9424,-169.4187
lg,1625400095465063736,0,0.0378,-0.3728,0.7468,256,4.2725,15.0757,-16.7236,92,1.2966,1.0855,-20.3597,-24.6692,24,0.056,10321,3.9424,-170.317
lg,1625400095847509051,0,0.6924,-0.6992,0.9089,257,-4.2725,-42.2363,13.9771,92,1.2976,1.0875,-22.0762,-25.7757,24,0.056,24802,3.9424,-168.8346
lg,1625400095847543699,0,0.8411,-0.7178,0.9431,258,13.3057,4.7607,2.5024,92,1.2986,1.0875,-22.3915,-25.6398,24,0.056,9556,3.9424,-168.6795
lg,1625400095847564292,0,0.2629,-0.6416,0.8074,259,42.1143,68.7866,-6.6528,92,1.2986,1.0885,-19.7157,-23.9418,24,0.056,14239,3.9424,-169.9747
lg,1625400095847583792,0,0.011,-0.6846,0.7852,260,46.5698,34.0576,-9.3994,92,1.2996,1.0895,-17.907,-22.4882,24,0.056,7988,3.9424,-170.6598
lg,1625400095847602180,0,0.0146,-0.6838,0.7939,261,46.4478,3.8452,-6.7749,92,1.2996,1.0905,-17.2316,-21.2808,24,0.056,7977,3.9424,-170.7463
lg,1625400095847620143,0,0.2708,-0.6257,0.7971,262,38.9404,-40.8936,4.9438,92,1.2996,1.0905,-18.6162,-20.64,24,0.054,7963,3.9424,-169.7364
lg,1625400095847637717,0,0.7542,-0.3936,0.7256,263,12.3291,-46.936,18.6768,92,1.2996,1.0905,-21.0148,-20.8784,24,0.054,9636,3.9424,-168.2067
lg,1625400095847654866,0,0.8806,-0.5715,0.9016,264,-10.8643,-19.5923,8.667,92,1.2996,1.0905,-22.3403,-21.926,24,0.055,9009,3.9424,-167.4101
lg,1625400095847672403,0,0.9143,-0.5728,0.8008,265,-7.2021,3.8452,-1.8311,92,1.2966,1.0885,-22.7844,-22.5672,24,0.056,8090,3.9424,-167.3885
lg,1625400095847690014,0,0.4463,-0.488,0.824,266,-5.6763,68.1763,-17.7002,92,1.2966,1.0875,-20.6362,-22.4218,24,0.059,8009,3.9424,-169.1006
lg,1625400095847707143,0,-0.0532,-0.7954,0.9778,267,13.4888,64.4531,-42.6636,92,1.2966,1.0865,-18.0407,-21.6752,24,0.056,7937,3.9424,-171.5548
lg,1625400095847724792,0,-0.1392,-0.9377,0.8779,268,23.6816,28.3813,-60.3027,92,1.2966,1.0855,-16.9974,-20.8948,24,0.056,7984,3.9424,-174.0241
lg,1625400095847742014,0,0.252,-0.5894,0.8225,269,47.4243,-30.2124,-57.1899,92,1.2966,1.0855,-18.8089,-19.0259,24,0.056,8018,3.9424,-175.674
lg,1625400095847758736,0,0.4768,-0.2148,0.5547,270,57.5562,-4.0283,-52.063,92,1.2976,1.0855,-20.357,-16.1009,24,0.056,8061,3.9424,-177.7294
lg,1625400095847780699,0,0.1199,-0.2791,0.7441,271,54.3213,52.124,-24.1089,92,1.2966,1.0855,-18.1337,-13.6071,24,0.057,8057,3.9424,-179.2102
lg,1625400095847798106,0,0.0276,-0.0916,0.4431,272,31.4941,16.6016,-21.1182,92,1.2966,1.0855,-17.0975,-11.9623,24,0.055,8079,3.9424,-180.2464
lg,1625400095847814903,0,0.1401,-0.3555,0.7117,273,-9.7656,-45.8374,-5.6152,92,1.2966,1.0855,-18.6641,-12.9948,24,0.056,10598,3.9424,-179.8871
lg,1625400095847831440,0,0.5234,-0.479,0.8225,274,-8.4839,-82.8857,0.6714,92,1.2966,1.0855,-22.2864,-14.2609,24,0.057,8096,3.9424,-178.8159
lg,1625400095847848458,0,0.6707,-0.5127,0.8625,275,-5.6763,-69.3359,3.6011,92,1.2976,1.0855,-25.3898,-15.4453,24,0.057,8091,3.9424,-177.6562
lg,1625400095847865829,0,0.6343,-0.5859,0.8647,276,7.6904,-18.4326,1.709,92,1.2966,1.0855,-26.3456,-15.9536,24,0.055,8236,3.9424,-177.0624
lg,1625400095847883199,0,0.4729,-0.5449,0.8469,277,15.4419,9.5825,-2.6855,92,1.2966,1.0855,-25.9928,-15.8932,24,0.055,8207,3.9424,-177.0005
lg,1625400095847900717,0,0.3931,-0.5359,0.833,278,18.0054,8.1177,-2.8687,92,1.2976,1.0865,-25.5262,-15.7538,24,0.055,8204,3.9424,-176.923
lg,1625400095847918847,0,0.3687,-0.552,0.8584,279,24.4751,-2.9907,-3.8452,92,1.2976,1.0865,-25.4924,-15.4103,24,0.054,8245,3.9424,-176.7517
lg,1625400095847936588,0,0.3257,-0.5547,0.8528,280,35.9497,-8.8501,-6.1035,92,1.2986,1.0855,-25.6294,-14.6313,24,0.056,8262,3.9424,-176.5951
lg,1625400095847953958,0,0.2,-0.5913,0.8184,281,42.7246,-13.0005,-6.7139,92,1.2986,1.0865,-25.9566,-13.452,24,0.054,8400,3.9424,-176.2442
lg,1625400095847971255,0,0.168,-0.5688,0.814,282,56.2134,-29.541,-4.2114,92,1.2986,1.0855,-26.5687,-12.1733,24,0.056,8298,3.9424,-175.7241
lg,1625400095847988292,0,0.2305,-0.5293,0.772,283,59.5093,-60.4858,3.0518,92,1.3006,1.0885,-28.4741,-11.0574,24,0.055,9975,3.9424,-174.6092
lg,1625400095848004995,0,0.4031,-0.4834,0.7695,284,57.373,-85.083,8.0566,92,1.3016,1.0885,-31.6246,-10.1759,24,0.054,8428,3.9424,-173.1014
lg,1625400095848021588,0,0.5369,-0.532,0.8186,285,56.2134,-88.1348,4.1504,92,1.3016,1.0885,-35.0169,-9.359,24,0.054,8451,3.9424,-171.6979
lg,1625400095848038384,0,0.5996,-0.4727,0.8203,286,58.8379,-83.8623,0.2441,92,1.3016,1.0885,-38.0214,-7.982,24,0.054,8473,3.9424,-170.7633
lg,1625400095848054736,0,0.5505,-0.4805,0.8303,287,63.9038,-66.04,-4.3335,92,1.3016,1.0885,-40.4104,-6.5252,24,0.054,8448,3.9424,-169.9551
lg,1625400095848071347,0,0.5061,-0.4675,0.8374,288,68.2983,-55.8472,-7.019,92,1.3026,1.0895,-42.2505,-4.788,24,0.054,8573,3.9424,-169.3506
lg,1625400096172740643,0,0.5029,-0.501,0.8994,289,75.6226,-63.4155,-14.5874,92,1.3026,1.0895,-44.4215,-2.2033,24,0.054,24685,3.9424,-169.3883
lg,1625400096172785791,0,0.5581,-0.4751,0.8831,290,85.022,-67.3218,-23.8647,92,1.2976,1.0875,-46.6863,0.9801,24,0.054,9180,3.9424,-169.8951
lg,1625400096172806625,0,0.6199,-0.4512,0.865,291,91.4917,-63.1104,-34.3628,92,1.3016,1.0875,-49.0997,5.2069,24,0.055,9932,3.9424,-171.3548
lg,1625400096172826069,0,0.9314,-0.2383,0.6165,292,88.9282,-81.665,-78.9795,92,1.3016,1.0865,-52.1557,12.2681,24,0.055,8002,3.9424,-176.4136
lg,1625400096172844551,0,0.606,-0.4333,0.8054,293,94.7876,3.2959,-52.6123,92,1.2996,1.0845,-51.1682,16.5699,24,0.056,11424,3.9424,-178.0465
lg,1625400096172863032,0,0.5042,-0.28,0.7788,294,94.2383,2.8076,-62.8052,92,1.2986,1.0815,-49.821,21.1497,24,0.056,10826,3.9424,-180.2636
lg,1625400096172880699,0,0.5559,-0.3245,0.7776,295,92.5293,4.7607,-64.3311,92,1.2976,1.0805,-48.4244,25.4581,24,0.057,8004,3.9424,-182.2015
lg,1625400096172898014,0,0.5596,-0.27,0.7786,296,98.0225,17.7612,-69.8853,92,1.2966,1.0795,-46.3844,29.7385,24,0.058,8026,3.9424,-183.8921
lg,1625400096172915588,0,0.5051,-0.2507,0.7681,297,100.8301,27.2827,-71.5332,92,1.2956,1.0775,-43.4578,33.5587,24,0.057,8073,3.9424,-184.7226
lg,1625400096172934032,0,0.3728,-0.2075,0.7717,298,108.9478,41.5649,-69.7021,92,1.2956,1.0775,-40.2952,36.9902,24,0.059,8091,3.9424,-185.0266
lg,1625400096172951643,0,0.2688,-0.1409,0.7708,299,110.1074,33.9355,-63.3545,92,1.2936,1.0755,-37.3134,40.2464,24,0.058,9677,3.9424,-185.1314
lg,1625400096172968736,0,0.2419,-0.0632,0.7268,300,105.1636,10.2539,-56.3965,92,1.2916,1.0755,-35.1802,43.5565,24,0.059,8170,3.9424,-185.6918
lg,1625400096172985773,0,0.3213,0.033,0.6382,301,99.6704,-4.9438,-53.3447,92,1.2916,1.0755,-34.1766,46.7535,24,0.059,8180,3.9424,-186.927
lg,1625400096173003051,0,0.3655,0.0535,0.6255,302,79.1626,-15.8081,-41.3208,92,1.2906,1.0745,-33.5056,49.3801,24,0.058,8199,3.9424,-187.9253
lg,1625400096173020828,0,0.3994,0.0569,0.6707,303,52.9785,-9.6436,-33.5083,92,1.2896,1.0745,-32.9288,50.6045,24,0.059,8242,3.9424,-188.3918
lg,1625400096173038069,0,0.3328,-0.0159,0.7783,304,33.8135,-10.5591,-29.2358,92,1.2896,1.0745,-32.337,50.6786,24,0.06,8248,3.9424,171.4145
lg,1625400096173055402,0,0.3118,-0.0498,0.7256,305,55.542,-39.7339,-24.6582,92,1.2906,1.0745,-32.67,52.0525,24,0.061,11254,3.9424,170.3007
lg,1625400096173072865,0,0.3293,-0.1106,0.9192,306,47.2412,-57.4341,-19.6533,92,1.2886,1.0745,-33.4812,53.2433,24,0.06,8342,3.9424,168.7404
lg,1625400096173090606,0,0.3828,-0.147,0.905,307,47.9126,-69.5801,-18.7378,92,1.2886,1.0745,-34.7048,54.7278,24,0.06,8298,3.9424,166.7318
lg,1625400096173107440,0,0.5063,-0.1069,0.9482,308,50.9644,-80.1392,-17.8833,92,1.2896,1.0745,-36.2414,56.7719,24,0.06,8332,3.9424,164.2132
lg,1625400096173124865,0,0.5815,-0.0935,0.9329,309,56.8848,-71.6553,-18.3716,92,1.2886,1.0745,-37.5841,59.0131,24,0.061,8383,3.9424,161.953
lg,1625400096173142180,0,0.5413,-0.033,0.884,310,58.96,-55.8472,-18.7988,92,1.2886,1.0735,-38.4235,61.0107,24,0.06,9760,3.9424,160.3387
lg,1625400096173177662,0,0.5278,0.0076,0.8621,311,55.542,-51.6968,-18.8599,92,1.2856,1.0725,-39.0724,62.8072,24,0.06,8596,3.9424,158.894
lg,1625400096173197217,0,0.5303,0.0188,0.8701,312,54.6875,-50.9033,-18.6157,92,1.2866,1.0725,-39.648,64.543,24,0.059,8526,3.9424,157.5049
lg,1625400096173216180,0,0.5356,0.0339,0.8591,313,51.7578,-45.2881,-18.4937,92,1.2856,1.0725,-40.0902,66.0086,24,0.06,8476,3.9424,156.3866
lg,1625400096173234643,0,0.5232,0.0691,0.8374,314,48.2788,-33.9966,-19.2261,92,1.2856,1.0725,-40.2511,67.0227,24,0.06,8501,3.9424,155.7927
lg,1625400096173253014,0,0.4507,0.0781,0.833,315,43.7622,-27.5269,-21.3623,92,1.2846,1.0725,-40.0978,67.5859,24,0.057,8518,3.9424,155.5402
lg,1625400096173269662,0,0.3782,0.051,0.8601,316,41.3818,-28.9307,-22.3999,92,1.2846,1.0725,-39.7896,67.9544,24,0.059,8598,3.9424,155.2989
lg,1625400096173286514,0,0.3452,0.0691,0.9009,317,36.8652,-39.0015,-22.0947,92,1.2826,1.0715,-39.5668,68.4189,24,0.058,8583,3.9424,154.5877
lg,1625400096173304347,0,0.3433,0.0403,0.9236,318,34.0576,-59.1431,-27.832,92,1.2826,1.0725,-39.4373,69.3999,24,0.058,8595,3.9424,152.8271
lg,1625400096173321921,0,0.4048,0.0593,0.9009,319,35.3394,-77.3315,-31.189,92,1.2836,1.0725,-39.4878,71.1038,24,0.058,8600,3.9424,150.0726
lg,1625400096173338643,0,0.448,0.0911,0.8792,320,35.7056,-84.1675,-33.6304,92,1.2826,1.0725,-39.4921,73.2887,24,0.059,8596,3.9424,146.6935
lg,1625400096552395143,0,0.4668,0.2065,0.8511,321,25.0244,-89.5996,-48.4619,92,1.2836,1.0735,-38.7837,75.2887,24,0.059,25102,3.9424,142.9981
lg,1625400096552450162,0,0.5144,0.1499,0.8438,322,15.0146,-110.7178,-48.4619,92,1.2826,1.0735,-38.5761,77.4043,24,0.059,11086,3.9424,137.8796
lg,1625400096552471273,0,0.5537,0.1418,0.9541,323,1.5869,-125.7935,-40.7104,92,1.2826,1.0735,-38.6713,79.0111,24,0.059,8343,3.9424,132.5554
lg,1625400096552491254,0,0.5977,0.041,1.1235,324,-14.2212,-123.9624,-34.2407,92,1.2826,1.0735,-38.767,80.0503,24,0.058,8074,3.9424,127.5564
lg,1625400096552510847,0,0.6226,-0.0432,1.2375,325,-24.1699,-129.8218,-31.1279,92,1.2816,1.0725,-39.0124,80.8007,24,0.059,8196,3.9424,122.3354
lg,1625400096552529884,0,0.7886,-0.0288,1.1304,326,-25.6958,-130.7373,-25.8789,92,1.2826,1.0725,-39.6619,81.7801,24,0.059,8080,3.9424,116.6895
lg,1625400096552549699,0,1.0352,-0.0034,0.9307,327,-30.2734,-126.6479,-22.8882,92,1.2806,1.0725,-40.581,82.9463,23,0.059,11447,3.9424,111.2137
lg,1625400096552568291,0,1.1016,-0.0039,0.8333,328,-32.5928,-107.605,-22.7051,92,1.2806,1.0725,-41.3828,82.876,23,0.059,8145,3.9424,107.8309
lg,1625400096552586773,0,1.1152,-0.0122,0.7244,329,-33.1421,-55.7861,-22.1558,92,1.2796,1.0725,-42.123,81.9605,23,0.058,8191,3.9424,105.8298
lg,1625400096552605662,0,1.0078,-0.0842,0.698,330,-32.5928,-12.8174,-24.5361,92,1.2796,1.0725,-42.5806,79.4598,23,0.061,8191,3.9424,106.174
lg,1625400096552626550,0,0.8777,-0.1431,0.6597,331,-28.9307,21.1182,-24.1699,92,1.2786,1.0725,-42.7859,75.7846,24,0.058,8214,3.9424,108.3794
lg,1625400096552646013,0,0.7974,-0.1311,0.6602,332,-25.9399,31.25,-25.0854,92,1.2786,1.0725,-42.4796,71.4947,24,0.059,8848,3.9424,111.6134
lg,1625400096552666217,0,0.679,-0.0789,0.6411,333,-21.8506,42.0532,-26.3672,92,1.2756,1.0715,-41.8792,67.3999,24,0.058,8788,3.9424,114.7228
lg,1625400096552685087,0,0.6118,-0.0068,0.6084,334,-18.3105,37.5366,-26.9775,92,1.2766,1.0725,-41.0539,63.8256,24,0.057,8280,3.9424,117.3441
lg,1625400096552702717,0,0.5583,0.0132,0.5737,335,-15.9302,22.644,-31.5552,92,1.2756,1.0725,-40.1988,61.0654,23,0.057,8248,3.9424,118.9343
lg,1625400096552722532,0,0.5688,0.0715,0.6064,336,-14.1602,9.5825,-35.7666,92,1.2756,1.0725,-39.2843,59.0966,23,0.057,8289,3.9424,119.5707
lg,1625400096552740291,0,0.5901,0.0703,0.5901,337,-10.437,-12.7563,-43.457,92,1.2756,1.0715,-38.6704,58.1064,23,0.058,8344,3.9424,118.9123
lg,1625400096552757902,0,0.6304,0.075,0.6042,338,-3.6011,-30.1514,-50.9644,92,1.2746,1.0725,-38.2259,58.0512,24,0.058,8332,3.9424,117.2271
lg,1625400096552776921,0,0.6887,0.0398,0.6306,339,2.6855,-39.3677,-58.0444,92,1.2746,1.0725,-37.8355,58.5648,24,0.059,8391,3.9424,114.9727
lg,1625400096552794254,0,0.7126,0.0574,0.6377,340,7.6294,-44.7998,-61.4014,92,1.2746,1.0725,-37.4726,59.4412,24,0.058,8393,3.9424,112.4155
lg,1625400096552811810,0,0.7468,0.0435,0.6589,341,15.1978,-43.8232,-63.2324,92,1.2746,1.0725,-36.9906,60.5986,24,0.059,8377,3.9424,109.8767
lg,1625400096552830069,0,0.7993,0.094,0.6555,342,20.3857,-35.4614,-63.9648,91,1.2736,1.0715,-36.2985,61.8168,24,0.057,8413,3.9435,107.661
lg,1625400096552847347,0,0.813,0.1265,0.6582,343,21.7896,-22.4609,-62.561,91,1.2726,1.0715,-35.378,62.7093,24,0.058,8434,3.9435,106.076
lg,1625400096552865069,0,0.8008,0.1321,0.6919,344,23.3154,-15.686,-60.9741,91,1.2726,1.0715,-34.3279,63.3359,24,0.057,8481,3.9435,104.9045
lg,1625400096552882458,0,0.7959,0.1328,0.7292,345,22.2778,0.3662,-57.251,91,1.2726,1.0715,-33.1252,63.3993,24,0.058,8511,3.9435,104.5483
lg,1625400096552899791,0,0.7739,0.1482,0.7734,346,22.7051,11.4136,-54.6265,91,1.2716,1.0725,-31.767,63.1295,24,0.058,9212,3.9435,104.7267
lg,1625400096552917106,0,0.8325,0.1475,0.7778,347,23.6206,19.8364,-49.7437,91,1.2716,1.0715,-30.5342,62.726,24,0.058,9793,3.9435,105.2845
lg,1625400096552934180,0,0.8887,0.1702,0.7832,348,24.7803,38.269,-47.1191,91,1.2706,1.0705,-29.1206,62.0672,24,0.058,8569,3.9435,106.5591
lg,1625400096552952013,0,0.8452,0.2063,0.7681,349,26.123,62.439,-51.6357,91,1.2706,1.0705,-27.0541,61.1501,24,0.057,8569,3.9435,108.599
lg,1625400096552969680,0,0.7874,0.2202,0.7905,350,26.4282,70.6177,-53.2227,91,1.2696,1.0705,-24.4408,59.9476,24,0.058,9139,3.9435,111.0442
lg,1625400096552987421,0,0.6648,0.2163,0.7717,351,27.0996,78.186,-54.6265,91,1.2686,1.0695,-21.7851,59.008,24,0.057,8712,3.9435,113.3469
lg,1625400096553006050,0,0.5635,0.2041,0.823,352,28.0151,69.397,-59.1431,91,1.2686,1.0705,-19.0034,58.2592,24,0.057,8630,3.9435,115.1184
lg,1625400096905623161,0,0.6389,0.2444,0.7996,353,35.7056,22.8882,-70.6787,91,1.2706,1.0705,-17.0518,58.847,24,0.058,24907,3.9435,114.348
lg,1625400096905669513,0,0.6917,0.3647,0.7097,354,38.7573,10.7422,-75.1953,91,1.2706,1.0705,-15.1798,59.7853,24,0.057,9422,3.9435,113.2119
lg,1625400096905691032,0,0.6843,0.3748,0.7061,355,34.4849,4.7607,-80.5664,91,1.2706,1.0705,-13.5761,60.5267,24,0.058,8405,3.9435,111.8639
lg,1625400096905714087,0,0.7485,0.3774,0.7153,356,21.7285,-0.6104,-67.2607,91,1.2696,1.0705,-12.4172,60.7678,24,0.058,10038,3.9435,110.7179
lg,1625400096905733846,0,0.7966,0.333,0.7627,357,16.6626,8.1177,-52.9785,91,1.2696,1.0705,-11.6667,60.5685,24,0.057,7884,3.9435,110.1798
lg,1625400096905752698,0,0.8079,0.3352,0.7637,358,15.0146,17.9443,-46.6919,91,1.2686,1.0695,-10.9761,60.2176,23,0.057,7929,3.9435,110.0944
lg,1625400096905771791,0,0.7356,0.3169,0.7578,359,14.7095,40.1611,-36.6211,91,1.2686,1.0695,-10.1431,59.621,23,0.057,7982,3.9435,110.9812
lg,1625400096905790476,0,0.6179,0.3274,0.7373,360,12.8174,51.4526,-28.7476,91,1.2676,1.0695,-9.2116,58.8518,23,0.057,7988,3.9435,112.3865
lg,1625400096905809069,0,0.5793,0.3362,0.7261,361,10.9253,50.354,-23.5596,91,1.2666,1.0695,-8.6027,57.94,23,0.057,9139,3.9435,113.6781
lg,1625400096905827421,0,0.5071,0.293,0.751,362,8.728,38.8794,-19.2871,91,1.2666,1.0685,-8.0858,56.985,24,0.057,8466,3.9435,114.7754
lg,1625400096905846717,0,0.4631,0.2708,0.7424,363,6.897,23.8647,-14.8926,91,1.2666,1.0695,-7.9817,55.9915,24,0.057,9447,3.9435,115.4309
lg,1625400096905866606,0,0.4893,0.2354,0.7888,364,4.4556,3.2349,-12.2681,91,1.2666,1.0685,-8.4417,54.931,24,0.057,9900,3.9435,115.4467
lg,1625400096905885532,0,0.5293,0.2244,0.801,365,5.9204,-3.418,-10.7422,91,1.2666,1.0685,-9.156,53.985,24,0.058,8053,3.9435,115.276
lg,1625400096905903161,0,0.5427,0.2229,0.7922,366,7.5684,-3.6621,-10.9253,91,1.2656,1.0685,-9.888,53.1614,23,0.057,8113,3.9435,115.0945
lg,1625400096905921495,0,0.5532,0.2756,0.7893,367,9.0942,-1.77,-10.5591,91,1.2666,1.0685,-10.5556,52.4961,23,0.057,8116,3.9435,114.9744
lg,1625400096905939217,0,0.5654,0.3042,0.7646,368,11.4746,1.4648,-11.4746,91,1.2666,1.0685,-11.1237,52.0124,23,0.057,8114,3.9435,114.9252
lg,1625400096905956421,0,0.5408,0.3188,0.751,369,10.2539,4.0894,-13.0005,91,1.2666,1.0685,-11.4234,51.5341,23,0.057,8184,3.9435,114.8784
lg,1625400096905973772,0,0.4983,0.3521,0.77,370,10.1929,3.2959,-16.2964,91,1.2666,1.0685,-11.6134,51.0863,24,0.057,8218,3.9435,114.7572
lg,1625400096905990958,0,0.4861,0.3201,0.8,371,8.3008,-7.9346,-20.2026,91,1.2666,1.0685,-11.9288,50.5762,24,0.057,8203,3.9435,114.1933
lg,1625400096906007939,0,0.5325,0.3201,0.8372,372,10.8032,-17.7612,-23.1323,91,1.2676,1.0685,-12.4481,50.2532,24,0.057,10087,3.9435,113.243
lg,1625400096906027254,0,0.5627,0.3506,0.8423,373,12.3291,-23.3765,-24.7803,91,1.2676,1.0695,-13.0755,50.1203,24,0.057,8431,3.9435,112.0614
lg,1625400096906045124,0,0.6028,0.3462,0.8188,374,11.7798,-26.4282,-25.1465,91,1.2676,1.0685,-13.8401,50.044,24,0.058,8354,3.9435,110.7709
lg,1625400096906063106,0,0.6274,0.3523,0.8152,375,11.2305,-28.1982,-25.5737,91,1.2676,1.0685,-14.6508,50.0082,24,0.057,8307,3.9435,109.4133
lg,1625400096906081791,0,0.6809,0.364,0.7979,376,9.7656,-25.6958,-23.5596,91,1.2666,1.0685,-15.5219,49.963,24,0.057,8347,3.9435,108.1797
lg,1625400096906100365,0,0.7024,0.3745,0.7871,377,9.5215,-19.104,-19.7144,91,1.2666,1.0685,-16.3476,49.8804,24,0.057,8356,3.9435,107.2556
lg,1625400096906119309,0,0.6987,0.3611,0.7747,378,8.4839,-16.1743,-17.5781,91,1.2656,1.0675,-17.1535,49.7198,24,0.057,9490,3.9435,106.4918
lg,1625400096906137013,0,0.6909,0.3613,0.7671,379,7.0801,-15.4419,-15.9912,91,1.2656,1.0675,-17.984,49.4725,24,0.057,8449,3.9435,105.8085
lg,1625400096906154939,0,0.7002,0.3372,0.769,380,6.2866,-11.0474,-11.5356,91,1.2656,1.0675,-18.8157,49.1224,24,0.057,8397,3.9435,105.3959
lg,1625400096906171884,0,0.667,0.3242,0.7771,381,5.8594,-6.897,-6.3477,91,1.2646,1.0675,-19.6215,48.6332,24,0.057,8472,3.9435,105.2815
lg,1625400096906190161,0,0.6399,0.3284,0.7754,382,5.9814,-6.4697,-0.3662,91,1.2666,1.0675,-20.5237,48.0986,24,0.057,8481,3.9435,105.3565
lg,1625400096906208198,0,0.6487,0.3235,0.7759,383,6.2866,-6.6528,2.5024,91,1.2656,1.0675,-21.5004,47.5578,24,0.057,10144,3.9435,105.5187
lg,1625400096906226272,0,0.6467,0.3044,0.7852,384,6.6528,-7.3242,3.418,91,1.2656,1.0675,-22.4883,46.9965,23,0.057,8476,3.9435,105.714
lg,1625400097281817068,0,0.6814,0.3015,0.7756,385,10.498,-2.0142,3.7842,91,1.2666,1.0685,-23.372,46.5539,23,0.058,24596,3.9435,106.0912
lg,1625400097281854272,0,0.6719,0.3167,0.7854,386,11.7188,4.1504,3.8452,91,1.2666,1.0685,-24.0176,46.0998,24,0.057,8838,3.9435,106.671
lg,1625400097281874476,0,0.6409,0.3298,0.77,387,12.5122,13.2446,3.9062,91,1.2666,1.0685,-24.3413,45.5959,24,0.058,10748,3.9435,107.5329
lg,1625400097281897365,0,0.627,0.3577,0.7639,388,12.3901,19.2261,3.7842,91,1.2666,1.0685,-24.4363,45.0791,24,0.057,8222,3.9435,108.5521
lg,1625400097281916587,0,0.5955,0.3513,0.7676,389,10.1929,23.9258,4.9438,91,1.2676,1.0685,-24.3658,44.3895,24,0.058,7986,3.9435,109.7546
lg,1625400097281938568,0,0.5925,0.3726,0.7878,390,10.7422,23.4375,4.6387,91,1.2676,1.0685,-24.2501,43.7759,24,0.058,7945,3.9435,110.9072
lg,1625400097281960106,0,0.5642,0.3584,0.7881,391,8.7891,26.6724,5.188,91,1.2666,1.0685,-24.0085,43.0274,24,0.058,9823,3.9435,112.1721
lg,1625400097281983643,0,0.5339,0.3401,0.8123,392,8.0566,26.9775,4.2114,91,1.2676,1.0685,-23.661,42.2214,24,0.058,8479,3.9435,113.4191
lg,1625400097282001420,0,0.4993,0.3362,0.8074,393,8.667,26.7334,3.7231,91,1.2656,1.0675,-23.2473,41.4759,24,0.058,8364,3.9435,114.6191
lg,1625400097282018439,0,0.457,0.3208,0.8054,394,9.2163,22.8882,3.479,91,1.2676,1.0685,-22.8734,40.7933,24,0.057,12261,3.9435,115.6893
lg,1625400097282035717,0,0.4414,0.3135,0.7986,395,10.1318,17.2729,2.9907,91,1.2676,1.0685,-22.6393,40.2343,24,0.058,8120,3.9435,116.5662
lg,1625400097282052643,0,0.4512,0.3213,0.7939,396,10.376,13.5498,2.0752,91,1.2676,1.0685,-22.478,39.7614,24,0.058,8144,3.9435,117.2923
lg,1625400097282069531,0,0.4539,0.3257,0.7949,397,13.4277,3.6621,0.9155,91,1.2676,1.0685,-22.6317,39.5832,24,0.058,8171,3.9435,117.6809
lg,1625400097282086531,0,0.4529,0.3093,0.7913,398,15.686,-5.9814,-2.1362,91,1.2676,1.0685,-23.009,39.6108,24,0.058,8108,3.9435,117.7118
lg,1625400097282104661,0,0.46,0.322,0.7905,399,16.6626,-9.6436,-3.418,91,1.2666,1.0685,-23.5749,39.8872,24,0.058,8333,3.9435,117.4512
lg,1625400097282138476,0,0.4846,0.3342,0.7754,400,19.8364,-18.9209,-4.2114,91,1.2666,1.0675,-24.3182,40.3284,24,0.058,10433,3.9435,117.0264
lg,1625400097282157883,0,0.4771,0.3289,0.7734,401,20.3857,-21.0571,-4.3945,91,1.2676,1.0675,-25.0804,40.7992,24,0.057,8252,3.9435,116.5466
lg,1625400097282175661,0,0.5056,0.3318,0.7798,402,21.1792,-21.9116,-3.2959,91,1.2676,1.0685,-25.9126,41.2977,24,0.058,8241,3.9435,116.0819
lg,1625400097282193235,0,0.5266,0.3242,0.7891,403,23.7427,-22.8882,-3.3569,91,1.2686,1.0685,-26.7737,41.8852,24,0.058,8288,3.9435,115.6018
lg,1625400097282210235,0,0.5544,0.3181,0.7949,404,24.7192,-23.6816,-4.2725,91,1.2676,1.0685,-27.6611,42.5253,24,0.058,8304,3.9435,115.076
lg,1625400097282227494,0,0.5603,0.2971,0.832,405,28.6255,-23.0713,-6.2866,91,1.2676,1.0685,-28.4154,43.2444,24,0.058,8357,3.9435,114.5531
lg,1625400097282244309,0,0.5723,0.2905,0.8167,406,37.2314,-21.3623,-8.3618,91,1.2686,1.0685,-29.0692,44.3083,24,0.058,8360,3.9435,114.0211
lg,1625400097282263939,0,0.5859,0.3237,0.7788,407,42.9688,-19.3481,-10.0098,91,1.2686,1.0685,-29.537,45.8708,24,0.058,8413,3.9435,113.4394
lg,1625400097282283698,0,0.5923,0.3516,0.7495,408,50.415,-17.8223,-13.0005,91,1.2696,1.0685,-29.9407,47.6192,24,0.059,8551,3.9435,112.8057
lg,1625400097282302754,0,0.5806,0.3647,0.7253,409,52.124,-12.5732,-13.3057,91,1.2696,1.0685,-30.1558,49.3488,24,0.058,8489,3.9435,112.3479
lg,1625400097282320494,0,0.5496,0.3401,0.7427,410,53.5889,-7.9346,-12.8784,91,1.2706,1.0685,-30.1992,50.8974,24,0.058,8535,3.9435,112.1494
lg,1625400097282338754,0,0.5447,0.3257,0.7686,411,61.0352,-8.9111,-13.4277,91,1.2706,1.0685,-30.2257,52.6475,24,0.058,8531,3.9435,111.9665
lg,1625400097282355902,0,0.564,0.333,0.7686,412,66.1621,-9.5215,-13.916,91,1.2706,1.0685,-30.2735,54.5834,24,0.058,8514,3.9435,111.7718
lg,1625400097282373328,0,0.575,0.3315,0.7483,413,78.064,-11.2915,-15.0757,91,1.2706,1.0685,-30.3543,57.0072,24,0.058,8548,3.9435,111.5044
lg,1625400097282391180,0,0.5874,0.3535,0.7524,414,89.2334,-11.2915,-16.2964,91,1.2716,1.0695,-30.3767,59.85,24,0.058,8566,3.9435,111.2393
lg,1625400097282421291,0,0.5901,0.365,0.7183,415,101.1353,-8.728,-16.2354,91,1.2726,1.0695,-30.3621,63.0861,24,0.058,8574,3.9435,111.1087
lg,1625400097282449643,0,0.5974,0.3752,0.6968,416,106.6284,-6.7749,-15.8081,91,1.2726,1.0695,-30.3147,66.6804,24,0.058,8601,3.9435,111.186
lg,1625400097621107198,0,0.5989,0.4673,0.6201,417,130.3101,0.6714,-13.3057,91,1.2746,1.0695,-30.2315,70.9417,24,0.059,25022,3.9435,111.5093
lg,1625400097621142698,0,0.615,0.501,0.6128,418,137.8784,4.0283,-12.3291,91,1.2736,1.0705,-30.165,75.3434,24,0.058,10710,3.9435,112.0662
lg,1625400097621163179,0,0.613,0.5657,0.5757,419,143.2495,5.8594,-13.916,91,1.2746,1.0705,-29.9971,79.9201,24,0.058,8150,3.9435,112.728
lg,1625400097621182661,0,0.5896,0.6226,0.574,420,143.2495,7.3853,-14.8926,91,1.2746,1.0695,-29.7263,84.3512,24,0.058,11593,3.9435,113.5512
lg,1625400097621200772,0,0.5933,0.6704,0.5469,421,141.6016,6.1646,-14.8926,91,1.2756,1.0705,-29.4795,88.6858,24,0.058,11111,3.9435,114.3846
lg,1625400097621218791,0,0.6216,0.7366,0.5237,422,135.8032,6.4697,-15.0146,91,1.2756,1.0705,-29.2609,92.7457,24,0.058,7985,3.9435,115.2843
lg,1625400097621235939,0,0.6218,0.8308,0.5081,423,122.3755,9.5825,-15.1367,91,1.2756,1.0705,-28.9982,96.1506,24,0.058,7983,3.9435,116.3837
lg,1625400097621253328,0,0.6348,0.8604,0.499,424,112.9761,10.2539,-14.5874,91,1.2766,1.0705,-28.8121,99.09,24,0.058,8017,3.9435,117.5701
lg,1625400097621271365,0,0.5872,0.9358,0.5322,425,85.9985,18.0054,-14.5874,91,1.2766,1.0705,-28.5765,100.6429,24,0.058,8091,3.9435,119.1909
lg,1625400097621289031,0,0.4985,1.0388,0.5642,426,50.9644,23.4375,-18.3105,91,1.2756,1.0695,-28.0337,100.587,24,0.06,10031,3.9435,121.1246
lg,1625400097621306328,0,0.4331,1.1118,0.6135,427,8.667,24.8413,-16.7847,91,1.2756,1.0695,-27.4021,98.7905,24,0.059,8150,3.9435,123.0974
lg,1625400097621324031,0,0.4336,1.0901,0.6333,428,-15.564,15.0757,-15.0146,91,1.2766,1.0705,-26.7634,96.2821,24,0.059,8164,3.9435,124.5669
lg,1625400097621341272,0,0.5234,0.9287,0.7361,429,-58.0444,11.1694,-5.9814,91,1.2766,1.0705,-26.6894,92.0664,24,0.059,8157,3.9435,125.8408
lg,1625400097621384642,0,0.5925,0.7727,0.8254,430,-77.9419,18.4326,3.479,91,1.2776,1.0705,-27.1401,86.8446,24,0.059,8162,3.9435,127.4622
lg,1625400097621407068,0,0.6165,0.7058,0.8403,431,-79.5288,27.771,8.7891,91,1.2766,1.0705,-27.6901,81.4235,24,0.059,8168,3.9435,129.5163
lg,1625400097621424346,0,0.502,0.7363,0.7693,432,-75.1343,53.4668,13.9771,91,1.2756,1.0705,-27.8949,75.8133,24,0.06,8206,3.9435,132.6876
lg,1625400097621441439,0,0.3286,0.762,0.6606,433,-80.6274,52.8564,15.5029,91,1.2766,1.0705,-27.5756,70.3217,24,0.059,8196,3.9435,135.6859
lg,1625400097621458439,0,0.2603,0.7737,0.6416,434,-87.2192,40.7104,16.4795,91,1.2776,1.0705,-27.3481,65.0921,24,0.06,8244,3.9435,137.3195
lg,1625400097621474772,0,0.2173,0.7358,0.6257,435,-104.7363,-0.5493,20.874,91,1.2776,1.0705,-27.5438,60.0536,24,0.06,8280,3.9435,138.0146
lg,1625400097621493587,0,0.2712,0.6052,0.6748,436,-119.0186,-41.5649,27.0386,91,1.2776,1.0705,-28.9402,54.9716,24,0.06,8279,3.9435,137.4207
lg,1625400097621511902,0,0.3921,0.4971,0.7112,437,-122.2534,-66.4062,35.7056,91,1.2766,1.0705,-31.5286,49.9873,24,0.06,11565,3.9435,136.3793
lg,1625400097621531253,0,0.5308,0.4214,0.7366,438,-115.1123,-74.5239,42.6636,91,1.2776,1.0705,-34.8359,45.2774,24,0.06,8599,3.9435,135.5395
lg,1625400097621548735,0,0.6165,0.4543,0.7021,439,-101.8677,-64.0869,45.6543,91,1.2786,1.0715,-38.004,41.0256,24,0.06,12033,3.9435,135.2967
lg,1625400097621566698,0,0.5874,0.5093,0.6284,440,-94.4824,-51.8799,43.0298,91,1.2786,1.0715,-40.5931,37.1443,24,0.061,9025,3.9435,135.3785
lg,1625400097621584550,0,0.5698,0.5366,0.613,441,-100.5249,-50.8423,42.6025,91,1.2796,1.0715,-42.9932,33.1109,24,0.061,8505,3.9435,135.5509
lg,1625400097621602568,0,0.6125,0.4561,0.6448,442,-110.4126,-48.1567,45.3491,91,1.2786,1.0715,-45.3442,28.2443,24,0.062,8489,3.9435,136.2791
lg,1625400097621619531,0,0.6204,0.4226,0.678,443,-112.7319,-47.1191,46.814,91,1.2796,1.0715,-47.526,22.8255,24,0.063,8545,3.9435,137.543
lg,1625400097621637142,0,0.6338,0.3474,0.7544,444,-113.1592,-38.5132,48.2788,91,1.2796,1.0715,-49.2069,16.9724,24,0.064,8508,3.9435,139.3954
lg,1625400097621654476,0,0.6204,0.2649,0.7878,445,-105.7739,-35.6445,47.0581,91,1.2786,1.0705,-50.5337,11.1081,24,0.063,9252,3.9435,141.6018
lg,1625400097621671253,0,0.5017,-0.1594,1.3811,446,-90.332,-34.5459,44.7998,91,1.2786,1.0715,-51.0211,4.6117,24,0.062,8606,3.9435,144.8252
lg,1625400097621704642,0,0.6855,0.2803,0.8142,447,-51.6357,-34.9731,43.8232,91,1.2786,1.0715,-52.044,1.1635,24,0.062,8629,3.9435,146.9594
lg,1625400097621723957,0,0.6902,0.2664,0.7483,448,-47.6685,-31.0669,40.4663,91,1.2786,1.0715,-52.8653,-1.5308,24,0.062,8672,3.9435,148.6332
lg,1625400097988914772,0,0.6631,0.3213,0.6685,449,-28.3813,-17.8223,30.7007,91,1.2796,1.0725,-53.2309,-3.0385,24,0.063,24724,3.9435,149.6871
lg,1625400097988948050,0,0.5825,0.3643,0.634,450,-31.311,-14.8926,31.4941,91,1.2796,1.0725,-53.3878,-4.4006,24,0.065,14130,3.9435,150.5474
lg,1625400097988968494,0,0.5789,0.3479,0.6355,451,-35.4004,-18.2495,33.6914,91,1.2796,1.0725,-53.7962,-6.4588,24,0.064,8047,3.9435,151.8581
lg,1625400097988987753,0,0.5999,0.2974,0.6902,452,-41.687,-23.9258,40.4053,90,1.2796,1.0725,-54.1168,-8.9864,24,0.064,7959,3.9479,153.5747
lg,1625400097989006346,0,0.5999,0.2534,0.7412,453,-43.7012,-25.6958,43.6401,90,1.2796,1.0725,-54.3269,-11.9097,24,0.064,7968,3.9479,155.6432
lg,1625400097989024457,0,0.6064,0.2007,0.7803,454,-42.1753,-29.1748,46.936,90,1.2806,1.0725,-54.4968,-15.1182,24,0.064,8760,3.9479,158.104
lg,1625400097989041846,0,0.6245,0.1716,0.8098,455,-40.8936,-32.4097,47.7905,90,1.2796,1.0725,-54.6688,-18.4583,24,0.063,8529,3.9479,160.7737
lg,1625400097989059568,0,0.6514,0.1621,0.812,456,-35.4614,-38.3301,47.6685,90,1.2796,1.0725,-55.0007,-21.6015,23,0.063,8520,3.9479,163.5229
lg,1625400097989076698,0,0.7278,0.1636,0.7993,457,-30.4565,-36.438,48.584,90,1.2786,1.0725,-55.2815,-24.5657,23,0.063,8144,3.9479,166.31
lg,1625400097989093531,0,0.74,0.1628,0.7974,458,-28.3203,-36.6211,47.5464,90,1.2786,1.0735,-55.3927,-27.0969,23,0.062,8029,3.9479,168.8665
lg,1625400097989110253,0,0.7754,0.1724,0.7629,459,-23.5596,-26.062,46.1426,90,1.2796,1.0725,-55.3265,-29.2757,23,0.062,8030,3.9479,171.0882
lg,1625400097989127364,0,0.7583,0.1904,0.7297,460,-19.6533,-17.0898,42.6025,90,1.2796,1.0725,-55.031,-30.7162,24,0.061,8057,3.9479,-187.3435
lg,1625400097989144568,0,0.7151,0.2449,0.6997,461,-18.0054,-6.1646,42.2363,90,1.2806,1.0735,-54.4103,-31.4786,24,0.062,9386,3.9479,-186.4162
lg,1625400097989161716,0,0.6619,0.2144,0.6738,462,-18.7988,-3.0518,41.748,90,1.2806,1.0735,-53.6281,-32.1853,24,0.062,8212,3.9479,-185.6655
lg,1625400097989197716,0,0.6292,0.2268,0.6804,463,-21.6064,2.1362,44.7388,90,1.2806,1.0735,-52.6121,-32.7857,24,0.062,8107,3.9479,-185.0221
lg,1625400097989218142,0,0.5674,0.1738,0.7305,464,-24.7803,-1.5869,47.7295,90,1.2806,1.0735,-51.4569,-33.7246,24,0.062,9801,3.9479,-184.0845
lg,1625400097989236975,0,0.6074,0.1628,0.7327,465,-26.3672,-15.0757,49.5605,90,1.2816,1.0745,-50.7716,-35.1847,24,0.062,8203,3.9479,-182.5432
lg,1625400097989254957,0,0.647,0.0977,0.7571,466,-23.5596,-22.0337,51.0254,90,1.2816,1.0745,-50.225,-36.9048,24,0.061,8300,3.9479,-180.574
lg,1625400097989272531,0,0.6499,0.113,0.7529,467,-20.1416,-21.7285,51.8799,90,1.2796,1.0735,-49.546,-38.3109,24,0.062,8690,3.9479,-178.6652
lg,1625400097989289772,0,0.6589,0.0969,0.7754,468,-15.8691,-19.9585,52.063,90,1.2796,1.0735,-48.8822,-39.4997,24,0.062,8253,3.9479,-176.8741
lg,1625400097989306457,0,0.6628,0.123,0.7126,469,-10.9863,-18.7988,53.2837,90,1.2806,1.0735,-48.2745,-40.4114,24,0.062,8282,3.9479,-175.1341
lg,1625400097989323050,0,0.6655,0.1182,0.7388,470,-8.667,-19.8364,51.6357,90,1.2816,1.0745,-47.7052,-41.1331,24,0.061,8319,3.9479,-173.4766
lg,1625400097989340790,0,0.6799,0.1116,0.7317,471,-7.0801,-17.0898,53.5278,90,1.2806,1.0745,-47.0325,-41.756,24,0.062,8348,3.9479,-171.8499
lg,1625400097989358642,0,0.7112,0.1326,0.7007,472,-5.3711,-19.4092,50.354,90,1.2806,1.0745,-46.6322,-42.2476,24,0.061,8365,3.9479,-170.2815
lg,1625400097989375920,0,0.7173,0.113,0.7024,473,-4.0894,-18.4326,47.0581,90,1.2816,1.0735,-46.2816,-42.5726,24,0.061,8803,3.9479,-168.877
lg,1625400097989393031,0,0.7393,0.0942,0.7153,474,-2.3193,-18.9209,43.0908,90,1.2816,1.0745,-46.049,-42.7512,24,0.061,8426,3.9479,-167.5932
lg,1625400097989410364,0,0.748,0.0837,0.7192,475,0.2441,-13.1836,39.7339,90,1.2816,1.0745,-45.742,-42.579,24,0.061,8426,3.9479,-166.6615
lg,1625400097989427494,0,0.7478,0.0828,0.7085,476,1.77,-10.6812,37.2314,90,1.2816,1.0745,-45.4995,-42.0335,24,0.061,8656,3.9479,-166.0743
lg,1625400097989444513,0,0.7266,0.0857,0.6926,477,4.6387,-4.8218,35.0952,90,1.2816,1.0725,-45.1107,-41.3325,24,0.062,8476,3.9479,-165.6307
lg,1625400097989461772,0,0.6995,0.0645,0.6868,478,7.2021,-6.0425,32.7148,90,1.2816,1.0745,-44.7884,-40.5365,24,0.062,8485,3.9479,-165.1941
lg,1625400097989478679,0,0.7092,0.0498,0.7097,479,7.8735,-5.0049,33.2031,90,1.2826,1.0745,-44.4023,-39.7523,24,0.061,8512,3.9479,-164.7251
lg,1625400097989495401,0,0.6958,0.0374,0.7322,480,8.606,-4.4556,32.6538,90,1.2826,1.0745,-44.0104,-38.846,24,0.061,8581,3.9479,-164.3133
lg,1625400098340981957,0,0.7217,0.0249,0.698,481,14.7705,-7.8125,27.6489,90,1.2826,1.0765,-43.9363,-37.7002,24,0.062,24994,3.9479,-163.9612
lg,1625400098341038438,0,0.7375,0.0398,0.719,482,18.7378,-3.0518,22.7661,90,1.2836,1.0755,-43.806,-36.2665,24,0.062,12564,3.9479,-163.8732
lg,1625400098341060290,0,0.7314,0.054,0.7214,483,19.7754,3.418,19.7144,90,1.2836,1.0765,-43.5448,-34.5638,24,0.062,9985,3.9479,-164.1132
lg,1625400098341083512,0,0.7114,0.0803,0.7,484,18.2495,7.4463,19.2871,90,1.2846,1.0765,-43.1914,-32.8257,24,0.063,7934,3.9479,-164.4785
lg,1625400098341105901,0,0.719,0.0796,0.7117,485,17.8833,9.5215,19.5312,90,1.2846,1.0755,-42.6997,-31.1407,24,0.063,7951,3.9479,-164.8212
lg,1625400098341127327,0,0.6924,0.0623,0.7419,486,14.5874,13.4277,20.0195,90,1.2846,1.0765,-42.0407,-29.6076,24,0.063,8195,3.9479,-165.1711
lg,1625400098341148494,0,0.6646,0.0479,0.7991,487,11.1694,19.5312,21.7285,90,1.2846,1.0765,-41.0219,-28.2178,24,0.062,8004,3.9479,-165.5307
lg,1625400098341169272,0,0.6416,0.0291,0.8127,488,9.6436,20.0195,23.6816,90,1.2836,1.0755,-39.9142,-27.0414,24,0.062,9362,3.9479,-165.7076
lg,1625400098341188716,0,0.6643,0.0234,0.835,489,8.9111,18.6157,25.2686,90,1.2836,1.0755,-38.8631,-26.1048,24,0.062,8018,3.9479,-165.6893
lg,1625400098341210994,0,0.6824,0.0154,0.8464,490,6.7749,22.0947,25.8179,90,1.2836,1.0765,-37.5697,-25.1496,24,0.062,8649,3.9479,-165.7502
lg,1625400098341230920,0,0.6743,0.0366,0.8584,491,5.0049,32.2266,25.6958,90,1.2836,1.0755,-36.11,-24.2035,24,0.062,8040,3.9479,-165.9018
lg,1625400098341250790,0,0.625,0.0427,0.835,492,3.6011,40.8936,24.6582,90,1.2836,1.0755,-34.3568,-23.2093,24,0.062,8243,3.9479,-166.2152
lg,1625400098341270568,0,0.6245,0.012,0.8438,493,1.5869,43.2739,24.0479,90,1.2836,1.0755,-32.5606,-22.3901,24,0.062,8128,3.9479,-166.473
lg,1625400098341289216,0,0.6221,0.0173,0.8369,494,2.1973,46.0815,22.644,90,1.2836,1.0755,-30.7533,-21.5313,24,0.062,8282,3.9479,-166.7707
lg,1625400098341306864,0,0.5842,0.0054,0.8281,495,2.1362,53.7109,19.5312,90,1.2836,1.0755,-28.7121,-20.6175,24,0.062,8186,3.9479,-167.2414
lg,1625400098341325364,0,0.5137,0.0298,0.8564,496,3.1738,56.2744,15.8081,90,1.2846,1.0765,-26.5409,-19.5469,24,0.062,8302,3.9479,-167.861
lg,1625400098341342068,0,0.5051,0.0637,0.8579,497,2.6855,56.0303,13.7939,90,1.2836,1.0765,-24.3768,-18.4959,24,0.062,8144,3.9479,-168.4778
lg,1625400098341360253,0,0.415,0.0291,0.8674,498,1.1597,51.5747,7.1411,90,1.2826,1.0755,-22.4266,-17.5085,24,0.062,8183,3.9479,-169.2063
lg,1625400098341378309,0,0.3599,0.0413,0.8604,499,0,38.147,3.2349,90,1.2836,1.0755,-20.9877,-16.5942,24,0.062,8220,3.9479,-169.8596
lg,1625400098341396697,0,0.3425,0.0398,0.8621,500,-1.0376,29.0527,2.1362,90,1.2836,1.0755,-20.4459,-15.9046,24,0.062,8183,3.9479,-170.308
lg,1625400098341414957,0,0.3574,0.033,0.8184,501,-3.418,1.8921,-1.0986,90,1.2836,1.0765,-20.5392,-15.3187,24,0.062,8239,3.9479,-170.6224
lg,1625400098341432123,0,0.425,0.0063,0.8418,502,-6.897,-19.3481,-3.1738,90,1.2846,1.0765,-21.5842,-15.0308,24,0.062,8268,3.9479,-170.747
lg,1625400098341450975,0,0.5181,-0.0078,0.8354,503,-7.3242,-26.6113,-3.6011,90,1.2846,1.0765,-23.2838,-14.8379,24,0.062,8282,3.9479,-170.7895
lg,1625400098341471864,0,0.5576,-0.0159,0.8425,504,-5.3101,-36.0107,-5.0659,90,1.2846,1.0755,-25.139,-14.6285,24,0.062,8290,3.9479,-170.8008
lg,1625400098341491049,0,0.6282,-0.0103,0.832,505,-4.3335,-34.9731,-8.728,90,1.2846,1.0765,-27.0582,-14.3167,24,0.062,8330,3.9479,-170.9982
lg,1625400098341508883,0,0.6392,0.0164,0.832,506,-1.6479,-29.2358,-9.9487,90,1.2856,1.0765,-28.7175,-13.7806,24,0.063,8345,3.9479,-171.3664
lg,1625400098341527512,0,0.6514,0.0317,0.8289,507,-1.5259,-27.4658,-11.4746,90,1.2856,1.0765,-30.2833,-13.1636,24,0.063,11906,3.9479,-171.8629
lg,1625400098341546309,0,0.6709,0.0222,0.8171,508,-3.418,-27.2827,-10.1929,90,1.2856,1.0765,-31.8114,-12.6818,24,0.063,8485,3.9479,-172.3102
lg,1625400098341563327,0,0.6687,0.0293,0.8169,509,-3.54,-29.1748,-9.7656,90,1.2856,1.0765,-33.3014,-12.2957,24,0.062,8479,3.9479,-172.7309
lg,1625400098341582086,0,0.6675,0.0129,0.8284,510,-5.249,-26.7334,-8.3008,90,1.2856,1.0765,-34.6818,-11.9927,24,0.063,9148,3.9479,-173.0975
lg,1625400098341601364,0,0.6741,0.0103,0.8206,511,-4.4556,-23.7427,-4.3945,90,1.2856,1.0765,-35.8435,-11.7092,24,0.063,8669,3.9479,-173.3431
lg,1625400098341622309,0,0.6963,-0.0134,0.7959,512,-5.188,-20.752,-3.0518,90,1.2856,1.0765,-36.8949,-11.5511,24,0.063,8884,3.9479,-173.5198
lg,1625400098704248901,0,0.6956,-0.0208,0.7817,513,-3.1738,-8.4229,-0.7935,90,1.2856,1.0765,-37.3069,-11.2696,24,0.062,24830,3.9479,-173.7698
lg,1625400098704284345,0,0.7234,0.0015,0.7754,514,-1.8311,-2.0142,-2.8076,90,1.2856,1.0775,-37.6412,-10.8523,24,0.062,13965,3.9479,-174.1457
lg,1625400098704305271,0,0.6877,-0.0063,0.7986,515,-1.2207,4.6387,-2.5635,90,1.2856,1.0765,-37.6072,-10.4003,24,0.062,7942,3.9479,-174.5616
lg,1625400098704325142,0,0.6536,0.0303,0.8,516,-0.1831,7.8125,-1.0986,90,1.2856,1.0765,-37.3872,-9.8458,24,0.062,7947,3.9479,-174.9861
lg,1625400098704344327,0,0.6416,0.0327,0.811,517,-0.3662,6.7139,0.3052,90,1.2856,1.0765,-37.1719,-9.3603,24,0.062,7898,3.9479,-175.3193
lg,1625400098704362882,0,0.5996,-0.0061,0.8247,518,0.3052,6.4697,3.7842,90,1.2856,1.0775,-36.8509,-9.0693,24,0.062,8010,3.9479,-175.4039
lg,1625400098704380790,0,0.5864,0,0.8257,519,-0.1831,1.4038,8.1787,90,1.2846,1.0755,-36.6901,-8.9446,24,0.062,8126,3.9479,-175.2332
lg,1625400098704398253,0,0.5994,-0.022,0.8069,520,-2.9297,-4.2114,13.1226,90,1.2836,1.0765,-36.7685,-9.1731,24,0.062,7966,3.9479,-174.7302
lg,1625400098704416031,0,0.6226,-0.0168,0.8237,521,-3.2349,-5.4321,15.2588,90,1.2836,1.0765,-36.9641,-9.4591,24,0.062,8031,3.9479,-174.126
lg,1625400098704433716,0,0.6467,-0.0344,0.8254,522,-1.9531,-4.3335,15.564,90,1.2836,1.0765,-37.0718,-9.7432,24,0.061,8024,3.9479,-173.4888
lg,1625400098704450771,0,0.6331,-0.0684,0.8179,523,0.7935,-1.8311,14.0381,90,1.2836,1.0765,-37.0642,-9.9411,24,0.062,8048,3.9479,-172.8992
lg,1625400098704468605,0,0.6277,-0.0635,0.821,524,3.418,-1.0986,12.4512,90,1.2846,1.0765,-37.0414,-9.9786,24,0.062,8050,3.9479,-172.3974
lg,1625400098704485642,0,0.6199,-0.0532,0.8047,525,5.5542,1.5259,9.0942,90,1.2846,1.0765,-36.9352,-9.7732,24,0.062,8072,3.9479,-172.1111
lg,1625400098704502808,0,0.5911,-0.0542,0.7961,526,9.9487,-2.0752,4.9438,90,1.2846,1.0765,-36.9628,-9.2972,24,0.063,8120,3.9479,-171.9931
lg,1625400098704520716,0,0.5923,-0.0398,0.803,527,11.9629,-5.0659,1.5259,90,1.2836,1.0765,-37.1254,-8.6296,24,0.062,8617,3.9479,-172.0357
lg,1625400098704540290,0,0.584,-0.0149,0.8098,528,12.2681,-7.9956,-1.5259,90,1.2856,1.0765,-37.3946,-7.8223,24,0.063,12488,3.9479,-172.2411
lg,1625400098704559123,0,0.583,-0.0178,0.8359,529,12.5732,-9.5825,-2.9297,90,1.2856,1.0775,-37.6849,-6.9981,24,0.062,8232,3.9479,-172.4915
lg,1625400098704577308,0,0.6179,0.0173,0.8162,530,11.1084,-12.207,-3.2349,90,1.2866,1.0775,-38.1596,-6.1688,24,0.062,8272,3.9479,-172.7872
lg,1625400098704594938,0,0.6138,0.0039,0.824,531,9.7046,-12.9395,-3.2349,90,1.2856,1.0775,-38.6377,-5.5063,24,0.062,8259,3.9479,-173.0696
lg,1625400098704612512,0,0.6328,0.0144,0.8254,532,7.2632,-15.0757,-2.4414,90,1.2866,1.0775,-39.1934,-4.9184,24,0.062,8233,3.9479,-173.2905
lg,1625400098704630920,0,0.6472,0.0103,0.8108,533,4.9438,-16.3574,-1.709,90,1.2856,1.0775,-39.8177,-4.4816,24,0.062,8848,3.9479,-173.4545
lg,1625400098704648327,0,0.6458,0.0063,0.8142,534,3.2349,-13.9771,-1.1597,90,1.2846,1.0765,-40.3128,-4.1479,24,0.062,8464,3.9479,-173.5899
lg,1625400098704666049,0,0.6506,-0.012,0.8235,535,3.7842,-13.5498,-0.3662,90,1.2846,1.0765,-40.6912,-3.9404,24,0.062,8321,3.9479,-173.6021
lg,1625400098704683957,0,0.6567,-0.0051,0.7961,536,4.9438,-13.1226,1.3428,90,1.2846,1.0765,-41.1525,-3.6745,24,0.061,8321,3.9479,-173.5805
lg,1625400098704701679,0,0.6492,-0.0347,0.8052,537,5.249,-14.8315,3.6011,90,1.2856,1.0765,-41.6295,-3.5744,23,0.062,8422,3.9479,-173.3719
lg,1625400098704719179,0,0.675,-0.0288,0.7957,538,7.2632,-12.207,5.6763,90,1.2846,1.0765,-42.0356,-3.4531,23,0.062,8463,3.9479,-173.0682
lg,1625400098704736475,0,0.6667,-0.0234,0.8076,539,7.3853,-10.9253,7.0801,90,1.2866,1.0765,-42.3222,-3.3502,23,0.062,8425,3.9479,-172.7104
lg,1625400098704753308,0,0.636,-0.0288,0.801,540,9.0332,-9.8267,10.0098,90,1.2846,1.0765,-42.5235,-3.3218,24,0.062,8432,3.9479,-172.1739
lg,1625400098704769845,0,0.6428,-0.0247,0.8015,541,8.3008,-9.5825,13.3667,90,1.2846,1.0775,-42.7103,-3.4371,24,0.062,8492,3.9479,-171.4615
lg,1625400098704786234,0,0.6497,-0.033,0.8103,542,9.6436,-8.7891,16.4185,90,1.2856,1.0775,-42.8482,-3.6325,24,0.062,8478,3.9479,-170.5694
lg,1625400098704802957,0,0.6355,-0.0283,0.8103,543,9.4604,-7.6294,18.4326,90,1.2856,1.0775,-42.9571,-3.9135,24,0.062,8513,3.9479,-169.5663
lg,1625400098704819845,0,0.6272,-0.0269,0.8057,544,9.7046,-5.6152,21.7285,90,1.2846,1.0765,-42.9065,-4.2622,24,0.063,8514,3.9479,-168.4176
lg,1625400099069323438,0,0.5203,0.01,0.7988,545,7.2632,-15.686,43.6401,90,1.2866,1.0775,-42.9884,-5.4131,24,0.063,26681,3.9479,-166.1236
lg,1625400099069363216,0,0.5425,-0.0012,0.8228,546,0.061,-29.6021,56.5796,90,1.2866,1.0775,-43.5104,-7.5098,24,0.064,11274,3.9479,-162.9487
lg,1625400099069384086,0,0.606,-0.0334,0.8118,547,-6.3477,-35.0952,72.7539,90,1.2866,1.0775,-44.2433,-10.6136,24,0.064,9620,3.9479,-158.7359
lg,1625400099069405104,0,0.7051,-0.051,0.7964,548,-10.6812,-42.1753,81.7261,90,1.2866,1.0775,-45.068,-14.2622,24,0.064,7943,3.9479,-153.9326
lg,1625400099069424604,0,0.8066,-0.0974,0.7642,549,-12.9395,-38.208,85.8154,90,1.2866,1.0775,-45.6149,-18.2783,24,0.064,7950,3.9479,-148.8131
lg,1625400099069442734,0,0.8408,-0.1294,0.7651,550,-11.3525,-25.5127,81.1157,90,1.2866,1.0775,-45.5267,-21.8678,24,0.064,9655,3.9479,-144.1851
lg,1625400099069460179,0,0.8301,-0.1436,0.7561,551,-7.9346,-12.6953,79.0405,90,1.2866,1.0775,-44.8163,-24.8846,24,0.064,8012,3.9479,-140.0782
lg,1625400099069478030,0,0.7168,-0.1587,0.7524,552,-1.8311,3.8452,71.228,90,1.2876,1.0775,-43.3889,-26.8524,24,0.064,8086,3.9479,-136.9731
lg,1625400099069496012,0,0.6155,-0.1707,0.7627,553,3.479,5.7373,64.0869,90,1.2876,1.0775,-41.8327,-28.1052,24,0.064,8048,3.9479,-134.4457
lg,1625400099069513512,0,0.5906,-0.1829,0.7568,554,5.7983,-1.3428,59.2041,90,1.2876,1.0775,-40.5951,-29.1075,24,0.064,9444,3.9479,-132.0583
lg,1625400099069530919,0,0.5825,-0.1748,0.7476,555,8.3008,-1.4648,59.9365,90,1.2876,1.0775,-39.4163,-29.9104,24,0.064,8573,3.9479,-129.7176
lg,1625400099069548142,0,0.6138,-0.1111,0.647,556,10.498,-0.8545,61.2183,90,1.2866,1.0765,-38.418,-30.4729,24,0.064,8603,3.9479,-127.4497
lg,1625400099069587067,0,0.4719,-0.2397,0.9666,557,-14.8926,10.1318,62.2559,90,1.2856,1.0775,-36.3241,-31.7872,24,0.063,8116,3.9479,-125.5056
lg,1625400099069606179,0,0.7339,-0.3435,0.9343,558,10.2539,-39.2456,39.978,90,1.2856,1.0775,-36.812,-32.5376,24,0.063,8159,3.9479,-123.053
lg,1625400099069623660,0,0.8215,-0.249,0.8579,559,23.8037,-31.1279,38.147,90,1.2856,1.0775,-37.2964,-32.4681,24,0.063,8153,3.9479,-120.9603
lg,1625400099069641345,0,0.665,-0.1917,0.823,560,35.0952,8.9111,42.8467,90,1.2846,1.0765,-36.177,-31.2668,24,0.062,8282,3.9479,-119.839
lg,1625400099069658549,0,0.5447,-0.1382,0.7964,561,33.6304,11.9019,47.5464,90,1.2866,1.0775,-34.7789,-30.0671,24,0.062,8266,3.9479,-118.6378
lg,1625400099069676475,0,0.5386,-0.1292,0.7786,562,32.1655,8.7891,51.8799,90,1.2866,1.0775,-33.8305,-29.455,24,0.061,8274,3.9479,-116.8482
lg,1625400099069693623,0,0.605,-0.1135,0.7642,563,23.1934,-6.8359,54.0161,90,1.2876,1.0775,-33.4003,-29.1573,24,0.062,8275,3.9479,-114.8276
lg,1625400099069711456,0,0.7131,-0.1235,0.7549,564,11.4136,-1.77,58.0444,84,1.2876,1.0775,-32.77,-29.5625,24,0.062,10178,3.9512,-112.9107
lg,1625400099069728901,0,0.6802,-0.3098,1.0278,565,5.6152,-4.3945,46.936,84,1.2876,1.0775,-31.9938,-29.9177,24,0.061,8350,3.9512,-111.1558
lg,1625400099069746327,0,0.803,-0.146,0.7788,566,20.874,6.4087,36.9873,84,1.2876,1.0785,-31.6066,-29.1746,24,0.06,8396,3.9512,-110.1321
lg,1625400099069764123,0,0.6321,-0.179,0.8086,567,19.5312,18.6157,28.1372,84,1.2876,1.0785,-30.6745,-28.1612,24,0.06,8340,3.9512,-109.7257
lg,1625400099069782253,0,0.6091,-0.1667,0.7866,568,17.5781,15.2588,23.7427,84,1.2886,1.0785,-30.2614,-27.2324,24,0.061,8644,3.9512,-109.4009
lg,1625400099069799679,0,0.5925,-0.1772,0.7859,569,13.916,3.9673,16.9678,84,1.2886,1.0775,-30.0744,-26.4493,24,0.06,8464,3.9512,-109.0596
lg,1625400099069817382,0,0.5813,-0.168,0.7944,570,9.7656,-3.0518,11.9629,84,1.2886,1.0785,-30.2117,-25.7979,24,0.06,8451,3.9512,-108.7764
lg,1625400099069834623,0,0.6094,-0.1963,0.8013,571,7.3853,-6.5308,9.3994,84,1.2886,1.0785,-30.5422,-25.319,24,0.06,8477,3.9512,-108.4815
lg,1625400099069852197,0,0.6143,-0.2209,0.8098,572,7.6294,-8.667,8.0566,84,1.2896,1.0785,-30.9966,-24.874,24,0.061,8462,3.9512,-108.142
lg,1625400099069869308,0,0.6272,-0.2263,0.8047,573,8.3008,-10.5591,7.6904,84,1.2896,1.0785,-31.5445,-24.4323,24,0.061,8549,3.9512,-107.8106
lg,1625400099069886253,0,0.677,-0.2266,0.8103,574,10.376,-6.897,7.4463,84,1.2886,1.0775,-31.9624,-23.93,24,0.061,8606,3.9512,-107.5315
lg,1625400099069903938,0,0.6731,-0.2156,0.7991,575,14.4043,2.8076,7.9346,84,1.2886,1.0785,-32.0177,-23.1821,24,0.061,8575,3.9512,-107.4184
lg,1625400099069941012,0,0.6064,-0.2041,0.7993,576,18.5547,10.376,8.1177,84,1.2896,1.0775,-31.6837,-22.1898,24,0.06,8578,3.9512,-107.4381
lg,1625400099422286752,0,0.5923,-0.1799,0.8174,577,15.2588,5.3711,10.376,84,1.2906,1.0785,-31.4785,-21.3929,24,0.061,24976,3.9512,-107.2803
lg,1625400099422322530,0,0.6301,-0.178,0.8354,578,14.5264,-0.4883,10.7422,84,1.2896,1.0785,-31.5412,-20.7081,24,0.06,9713,3.9512,-106.9904
lg,1625400099422342975,0,0.637,-0.1631,0.8115,579,12.6343,6.5308,11.2305,84,1.2916,1.0785,-31.3831,-20.0569,24,0.06,10455,3.9512,-106.7898
lg,1625400099422362271,0,0.6311,-0.1526,0.8245,580,12.8174,8.4229,7.9956,84,1.2906,1.0785,-31.1844,-19.3001,24,0.061,8159,3.9512,-106.7614
lg,1625400099422380641,0,0.6123,-0.1514,0.8057,581,12.085,7.9956,4.9438,84,1.2906,1.0785,-31.041,-18.5423,24,0.061,9667,3.9512,-106.8367
lg,1625400099422398938,0,0.6316,-0.1145,0.7974,582,12.4512,6.1035,4.6387,84,1.2906,1.0785,-31.0366,-17.7243,24,0.061,7962,3.9512,-106.9208
lg,1625400099422416901,0,0.6143,-0.1733,0.8513,583,9.4604,5.0659,0,84,1.2906,1.0775,-31.008,-17.0705,24,0.061,7994,3.9512,-107.118
lg,1625400099422435178,0,0.5671,-0.1333,0.8074,584,12.6343,11.2305,3.418,84,1.2896,1.0785,-30.6868,-16.2717,24,0.061,8414,3.9512,-107.2714
lg,1625400099422453901,0,0.5452,-0.1487,0.8096,585,10.437,10.0708,3.479,84,1.2886,1.0785,-30.3759,-15.7579,24,0.061,8054,3.9512,-107.2763
lg,1625400099422472030,0,0.5237,-0.1655,0.845,586,8.3008,0.7324,5.0049,84,1.2896,1.0785,-30.3259,-15.3476,24,0.061,8165,3.9512,-107.1579
lg,1625400099422490549,0,0.5652,-0.1794,0.8408,587,6.2256,-4.6997,7.2632,84,1.2906,1.0785,-30.5417,-15.1619,24,0.061,8095,3.9512,-106.8421
lg,1625400099422508271,0,0.5952,-0.1721,0.8469,588,8.2397,-3.479,8.4839,84,1.2896,1.0785,-30.7397,-14.905,23,0.061,8123,3.9512,-106.4931
lg,1625400099422525678,0,0.5952,-0.1694,0.8323,589,8.606,-3.1128,8.8501,84,1.2896,1.0775,-30.9318,-14.6524,23,0.061,8118,3.9512,-106.1261
lg,1625400099422542956,0,0.6023,-0.187,0.844,590,10.6812,0.6714,9.3994,84,1.2896,1.0785,-30.9596,-14.3545,23,0.062,8183,3.9512,-105.7545
lg,1625400099422582530,0,0.6177,-0.1819,0.8369,591,13.4888,-2.3804,5.7983,84,1.2906,1.0785,-31.1783,-13.8832,23,0.061,8139,3.9512,-105.5085
lg,1625400099422603067,0,0.6184,-0.2061,0.8579,592,13.0615,-0.4883,4.8828,84,1.2906,1.0785,-31.2786,-13.4464,24,0.061,8250,3.9512,-105.2994
lg,1625400099422620382,0,0.5759,-0.179,0.843,593,16.2354,12.8174,7.2632,84,1.2896,1.0785,-30.8053,-12.839,24,0.06,8187,3.9512,-105.1379
lg,1625400099422637752,0,0.499,-0.1548,0.8179,594,18.6768,11.4746,8.9111,84,1.2896,1.0785,-30.2797,-12.154,24,0.059,8246,3.9512,-104.8946
lg,1625400099422655030,0,0.5225,-0.1477,0.8479,595,14.2212,-4.3335,6.3477,84,1.2916,1.0785,-30.4273,-11.661,24,0.059,12189,3.9512,-104.6122
lg,1625400099422672493,0,0.5735,-0.1699,0.8511,596,15.4419,-4.5776,8.3618,84,1.2916,1.0785,-30.651,-11.2426,24,0.059,8310,3.9512,-104.1984
lg,1625400099422689623,0,0.5527,-0.1484,0.8806,597,16.5405,0.6714,10.2539,84,1.2916,1.0785,-30.5821,-10.7498,24,0.06,8348,3.9512,-103.7719
lg,1625400099422707401,0,0.5464,-0.1538,0.8606,598,17.2119,0.2441,9.9487,84,1.2916,1.0785,-30.4669,-10.255,24,0.059,8357,3.9512,-103.339
lg,1625400099422724493,0,0.4924,-0.124,0.8643,599,15.1367,6.3477,15.7471,84,1.2906,1.0785,-30.0589,-9.9016,24,0.059,8359,3.9512,-102.7161
lg,1625400099422747456,0,0.4351,-0.147,0.8655,600,12.3901,-4.5776,18.5547,84,1.2916,1.0785,-29.9572,-9.8348,24,0.059,10441,3.9512,-101.8413
lg,1625400099422768326,0,0.4961,-0.1616,0.8638,601,7.0801,-23.9258,19.8364,84,1.2896,1.0785,-30.7295,-10.1351,24,0.059,8847,3.9512,-100.7279
lg,1625400099422789475,0,0.5989,-0.1516,0.8455,602,4.0894,-26.8555,21.7896,84,1.2896,1.0775,-31.7802,-10.6087,24,0.059,8467,3.9512,-99.4969
lg,1625400099422808771,0,0.6389,-0.1479,0.8098,603,2.4414,-25.7568,18.4326,84,1.2906,1.0775,-32.8781,-11.0807,24,0.058,8478,3.9512,-98.4141
lg,1625400099422826567,0,0.6294,-0.1692,0.8325,604,2.3804,-26.5503,15.8691,84,1.2906,1.0785,-33.9253,-11.5465,24,0.059,8533,3.9512,-97.4095
lg,1625400099422844308,0,0.645,-0.1992,0.8542,605,2.0142,-23.5596,11.5967,84,1.2906,1.0785,-34.8347,-11.9665,24,0.059,8573,3.9512,-96.5918
lg,1625400099422881956,0,0.6208,-0.197,0.8352,606,5.6763,-16.7847,7.6904,84,1.2906,1.0775,-35.4559,-12.0985,24,0.059,8570,3.9512,-96.0238
lg,1625400099422905975,0,0.5876,-0.2095,0.8181,607,9.1553,-16.0522,5.7983,84,1.2906,1.0775,-35.9982,-12.0806,24,0.059,8580,3.9512,-95.5265
lg,1625400099422925549,0,0.5713,-0.2026,0.803,608,8.3008,-15.1367,5.9814,84,1.2906,1.0785,-36.5288,-12.0446,24,0.059,8594,3.9512,-95.0368
lg,1625400099792114789,0,0.6265,-0.1931,0.8113,609,15.3198,-11.7798,7.6904,84,1.2916,1.0775,-36.9292,-11.781,24,0.058,24763,3.9512,-94.509
lg,1625400099792157697,0,0.616,-0.1831,0.8191,610,17.8223,1.4648,9.1553,84,1.2916,1.0785,-36.7628,-11.3603,24,0.059,14160,3.9512,-94.057
lg,1625400099792179326,0,0.584,-0.1829,0.8228,611,18.2495,3.7231,10.498,84,1.2916,1.0785,-36.3107,-10.9564,24,0.058,7923,3.9512,-93.5613
lg,1625400099792199567,0,0.5842,-0.1821,0.8491,612,18.3105,7.1411,9.2773,84,1.2916,1.0785,-35.8586,-10.4977,24,0.059,7949,3.9512,-93.1492
lg,1625400099792219345,0,0.5383,-0.1736,0.8511,613,18.0664,7.5073,4.4556,84,1.2916,1.0785,-35.3627,-9.9055,24,0.059,7886,3.9512,-92.9745
lg,1625400099792238271,0,0.4421,-0.1555,0.8479,614,19.165,3.54,0.7935,84,1.2916,1.0785,-35.2666,-9.1601,24,0.058,7938,3.9512,-93.0519
lg,1625400099792257178,0,0.4851,-0.1267,0.8459,615,15.0757,-18.6768,-5.3711,84,1.2916,1.0785,-35.7991,-8.4604,24,0.058,8834,3.9512,-93.1875
lg,1625400099792275900,0,0.5618,-0.1655,0.8894,616,9.7656,-31.0669,-8.1177,84,1.2906,1.0775,-36.9033,-8.0509,24,0.059,8161,3.9512,-93.3137
lg,1625400099792293697,0,0.5784,-0.157,0.8345,617,10.8643,-30.1514,-10.0708,84,1.2916,1.0785,-38.0066,-7.5678,24,0.059,12895,3.9512,-93.5284
lg,1625400099792311400,0,0.5593,-0.1487,0.8369,618,9.8877,-31.3721,-9.8267,84,1.2916,1.0785,-39.101,-7.0948,24,0.059,8004,3.9512,-93.7564
lg,1625400099792329604,0,0.6223,-0.1555,0.8118,619,6.4697,-36.377,-8.3618,84,1.2916,1.0785,-40.4851,-6.8599,24,0.059,8741,3.9512,-93.8607
lg,1625400099792346715,0,0.5952,-0.1677,0.7939,620,4.8218,-27.6489,-2.6855,84,1.2916,1.0785,-41.4158,-6.902,24,0.058,7999,3.9512,-93.6867
lg,1625400099792364141,0,0.5986,-0.1826,0.7854,621,2.5024,-26.062,0.6714,84,1.2916,1.0785,-42.2454,-7.2018,24,0.059,8472,3.9512,-93.3039
lg,1625400099792415104,0,0.5867,-0.1736,0.7725,622,1.8311,-28.0151,1.8921,84,1.2916,1.0785,-43.1083,-7.5642,24,0.058,7999,3.9512,-92.8465
lg,1625400099792438900,0,0.6277,-0.2129,0.7788,623,1.2207,-28.9307,3.54,84,1.2906,1.0775,-44.019,-8.1289,24,0.058,9157,3.9512,-92.2061
lg,1625400099792458160,0,0.667,-0.2202,0.7708,624,2.2583,-28.6255,1.0376,84,1.2896,1.0775,-44.9682,-8.5728,24,0.058,8066,3.9512,-91.6823
lg,1625400099792476123,0,0.675,-0.2212,0.8054,625,5.249,-22.7051,-1.2207,84,1.2906,1.0775,-45.6251,-8.747,24,0.059,8505,3.9512,-91.3458
lg,1625400099792494252,0,0.6572,-0.2234,0.8081,626,6.7139,-19.7754,-2.7466,84,1.2896,1.0775,-46.1169,-8.7891,24,0.059,8147,3.9512,-91.1132
lg,1625400099792514234,0,0.6526,-0.2026,0.8003,627,8.0566,-17.6392,-3.7842,84,1.2896,1.0775,-46.518,-8.6649,24,0.059,8523,3.9512,-90.9984
lg,1625400099792530956,0,0.6409,-0.1721,0.8035,628,7.2021,-17.7002,-2.9907,84,1.2896,1.0775,-46.8828,-8.5184,24,0.059,8180,3.9512,-90.9031
lg,1625400099792548234,0,0.6494,-0.1721,0.7954,629,6.4087,-19.043,-2.1362,84,1.2896,1.0775,-47.2136,-8.529,24,0.059,8587,3.9512,-90.652
lg,1625400099792565548,0,0.6421,-0.1631,0.7935,630,5.5542,-14.5264,2.1362,84,1.2896,1.0775,-47.4129,-8.6319,24,0.059,8598,3.9512,-90.2959
lg,1625400099792583215,0,0.6108,-0.1611,0.7778,631,4.9438,-14.7705,4.3945,84,1.2896,1.0785,-47.5673,-8.8621,24,0.059,9011,3.9512,-89.801
lg,1625400099792601048,0,0.6025,-0.1724,0.7905,632,2.4414,-21.3623,5.6152,84,1.2906,1.0775,-47.9308,-9.3159,24,0.059,8288,3.9512,-89.1512
lg,1625400099792618493,0,0.6428,-0.199,0.7915,633,1.8921,-24.231,7.0801,84,1.2906,1.0775,-48.4406,-9.9535,24,0.059,8672,3.9512,-88.323
lg,1625400099792636030,0,0.6765,-0.1943,0.7859,634,2.1973,-22.8271,7.4463,84,1.2896,1.0775,-48.931,-10.5614,24,0.059,8372,3.9512,-87.4971
lg,1625400099792655419,0,0.6606,-0.1934,0.7915,635,3.9673,-17.334,6.4087,84,1.2896,1.0775,-49.1578,-10.9874,24,0.059,8738,3.9512,-86.8036
lg,1625400099792673586,0,0.6689,-0.1685,0.7732,636,5.0659,-13.1836,5.3711,84,1.2906,1.0765,-49.2642,-11.2041,24,0.059,8734,3.9512,-86.2809
lg,1625400099792708604,0,0.637,-0.1848,0.7866,637,6.5308,-10.6201,4.3335,84,1.2906,1.0775,-49.1983,-11.3298,24,0.06,8778,3.9512,-85.8215
lg,1625400099792729271,0,0.6243,-0.1846,0.7759,638,6.4697,-7.8125,4.2114,84,1.2906,1.0775,-49.0189,-11.4279,24,0.059,8792,3.9512,-85.4023
lg,1625400099792747604,0,0.6143,-0.1921,0.79,639,7.3242,-9.0332,4.6387,84,1.2906,1.0775,-48.8576,-11.5445,24,0.059,8474,3.9512,-84.9377
lg,1625400099792765178,0,0.6174,-0.1831,0.7761,640,7.4463,-10.1318,4.7607,84,1.2906,1.0775,-48.7646,-11.6326,24,0.059,8938,3.9512,-84.4698
lg,1625400100162729937,0,0.6167,-0.1912,0.79,641,5.6763,-13.7329,8.667,84,1.2916,1.0785,-48.7602,-12.0118,24,0.06,25012,3.9512,-83.7147
lg,1625400100162780567,0,0.5933,-0.179,0.7832,642,6.2866,-13.7329,9.4604,84,1.2916,1.0785,-48.7611,-12.3396,24,0.06,10868,3.9512,-83.0097
lg,1625400100162800956,0,0.5942,-0.1958,0.8059,643,4.3335,-16.4795,8.1787,84,1.2926,1.0785,-48.8011,-12.754,24,0.06,8162,3.9512,-82.2614
lg,1625400100162819919,0,0.5886,-0.1746,0.7856,644,4.6387,-19.2261,5.5542,84,1.2916,1.0785,-48.9882,-12.9979,24,0.06,8822,3.9512,-81.6815
lg,1625400100162838215,0,0.6006,-0.1763,0.7751,645,3.2349,-24.292,3.0518,84,1.2916,1.0785,-49.4189,-13.2482,24,0.06,8037,3.9512,-81.1705
lg,1625400100162856270,0,0.6348,-0.1938,0.7869,646,1.3428,-27.4048,1.5869,84,1.2926,1.0785,-50.0552,-13.6022,24,0.061,8022,3.9512,-80.6525
lg,1625400100162876085,0,0.6794,-0.1975,0.8047,647,0.9155,-23.3154,0.5493,84,1.2926,1.0775,-50.5138,-13.8612,24,0.061,9038,3.9512,-80.268
lg,1625400100162909845,0,0.6584,-0.217,0.8071,648,4.8218,-13.6719,0.2441,84,1.2906,1.0775,-50.5425,-13.8933,24,0.061,8170,3.9512,-80.0038
lg,1625400100162929715,0,0.623,-0.197,0.7778,649,5.0049,-10.9253,-0.3052,84,1.2906,1.0765,-50.4544,-13.8176,24,0.06,8019,3.9512,-79.8481
lg,1625400100162951289,0,0.6279,-0.1855,0.7949,650,4.8828,-12.6343,-0.7935,84,1.2906,1.0765,-50.4303,-13.6932,24,0.061,7945,3.9512,-79.736
lg,1625400100162971474,0,0.6487,-0.1946,0.8008,651,3.8452,-15.0146,-1.5869,84,1.2906,1.0775,-50.5307,-13.6307,24,0.061,7982,3.9512,-79.6137
lg,1625400100163041956,0,0.6716,-0.2002,0.7883,652,4.8828,-9.9487,-2.4414,84,1.2906,1.0765,-50.4918,-13.4593,24,0.061,8043,3.9512,-79.5959
lg,1625400100163068659,0,0.6775,-0.1958,0.7944,653,4.7607,-7.6294,-1.8311,84,1.2926,1.0775,-50.3799,-13.2619,24,0.061,8077,3.9512,-79.6016
lg,1625400100163088104,0,0.6545,-0.1848,0.7817,654,5.4321,-4.2114,-3.2349,84,1.2906,1.0775,-50.0939,-12.8939,24,0.061,9809,3.9512,-79.8073
lg,1625400100163109604,0,0.6426,-0.179,0.7903,655,5.8594,-3.2959,-4.7607,84,1.2906,1.0775,-49.7911,-12.4639,24,0.061,8134,3.9512,-80.0583
lg,1625400100163133159,0,0.6335,-0.1895,0.7729,656,4.2725,-4.6997,-6.4087,84,1.2916,1.0775,-49.5722,-12.1046,24,0.061,8133,3.9512,-80.3381
lg,1625400100163152974,0,0.6389,-0.1831,0.8064,657,3.7842,-7.0801,-7.5073,84,1.2906,1.0775,-49.4292,-11.708,24,0.061,8199,3.9512,-80.6773
lg,1625400100163171215,0,0.6328,-0.1765,0.792,658,4.5776,-9.4604,-8.4839,84,1.2906,1.0765,-49.4005,-11.2634,24,0.061,8194,3.9512,-81.043
lg,1625400100163189326,0,0.6194,-0.1436,0.7766,659,1.8311,-11.6577,-10.0708,84,1.2916,1.0775,-49.4749,-10.7914,24,0.061,8219,3.9512,-81.5451
lg,1625400100163209122,0,0.6172,-0.1567,0.7834,660,0.1831,-17.2729,-11.4136,84,1.2916,1.0775,-49.7566,-10.4278,24,0.06,8232,3.9512,-82.0242
lg,1625400100163227974,0,0.6162,-0.1809,0.7991,661,-0.4272,-18.5547,-11.8408,84,1.2916,1.0775,-50.0455,-10.1049,24,0.062,8213,3.9512,-82.4983
lg,1625400100163248345,0,0.626,-0.1914,0.821,662,-2.0142,-21.7285,-10.8643,84,1.2926,1.0775,-50.4314,-9.9991,24,0.062,11532,3.9512,-82.8168
lg,1625400100163268789,0,0.6309,-0.1836,0.8035,663,-2.2583,-21.4233,-10.437,84,1.2926,1.0775,-50.7968,-9.9195,24,0.061,8374,3.9512,-83.0787
lg,1625400100163288770,0,0.6401,-0.1948,0.7944,664,-0.4883,-21.1792,-9.2773,84,1.2926,1.0775,-51.1774,-9.8544,24,0.062,8316,3.9512,-83.2816
lg,1625400100163309585,0,0.6345,-0.1841,0.8,665,-0.3662,-20.1416,-8.1787,84,1.2926,1.0775,-51.4805,-9.7896,24,0.061,8328,3.9512,-83.4577
lg,1625400100163327345,0,0.6497,-0.1812,0.7913,666,0.061,-20.4468,-8.0566,84,1.2926,1.0775,-51.8199,-9.7117,24,0.061,8465,3.9512,-83.6267
lg,1625400100163346437,0,0.6611,-0.1726,0.7795,667,0.061,-19.8364,-8.2397,84,1.2926,1.0775,-52.1595,-9.5974,24,0.06,9031,3.9512,-83.8318
lg,1625400100163365900,0,0.6536,-0.1689,0.7671,668,0.3052,-19.4702,-8.667,84,1.2916,1.0765,-52.4972,-9.4865,24,0.059,8797,3.9512,-84.029
lg,1625400100163414400,0,0.6797,-0.1655,0.7593,669,-0.2441,-19.7144,-7.9346,84,1.2906,1.0765,-52.8625,-9.3894,24,0.059,8384,3.9512,-84.2242
lg,1625400100163464641,0,0.6692,-0.1638,0.77,670,0.4883,-18.7378,-7.5684,84,1.2916,1.0775,-53.1412,-9.2625,24,0.059,8439,3.9512,-84.4155
lg,1625400100163484956,0,0.6733,-0.1633,0.7485,671,0.1221,-18.0664,-7.9346,84,1.2916,1.0765,-53.4218,-9.1402,24,0.058,8455,3.9512,-84.6267
lg,1625400100163504863,0,0.6758,-0.1589,0.749,672,-0.2441,-18.3105,-8.1787,84,1.2926,1.0775,-53.7314,-9.0986,24,0.059,8523,3.9512,-84.8111
lg,1625400100547978048,0,0.696,-0.1892,0.7495,673,-1.2207,-18.5547,-9.8267,84,1.2876,1.0775,-54.049,-9.0242,24,0.059,23680,3.9512,-85.069
lg,1625400100548054381,0,0.698,-0.1902,0.7612,674,-0.1221,-18.0664,-10.6812,86,1.2926,1.0775,-54.3265,-8.8489,24,0.059,8823,3.9512,-85.395
lg,1625400100548076863,0,0.697,-0.1724,0.7593,675,0.1221,-16.2964,-11.8408,86,1.2926,1.0775,-54.5346,-8.5236,24,0.058,9971,3.9512,-85.8699
lg,1625400100548098289,0,0.6821,-0.176,0.7449,676,0.4883,-13.916,-11.7798,86,1.2926,1.0775,-54.6359,-8.2027,24,0.058,10205,3.9512,-86.3379
lg,1625400100548117474,0,0.6787,-0.1672,0.741,677,0.8545,-14.7705,-10.0098,86,1.2926,1.0775,-54.7572,-7.9537,24,0.057,7911,3.9512,-86.6933
lg,1625400100548136400,0,0.6753,-0.1746,0.751,678,-0.4883,-15.564,-9.0942,86,1.2926,1.0775,-54.8783,-7.8451,24,0.057,7906,3.9512,-86.9549
lg,1625400100548155122,0,0.6758,-0.1807,0.7603,679,0.1831,-17.2729,-7.4463,86,1.2916,1.0775,-55.0394,-7.8359,24,0.058,8012,3.9512,-87.07
lg,1625400100548175937,0,0.6821,-0.1665,0.7468,680,0.4272,-19.2261,-6.4087,86,1.2926,1.0775,-55.2965,-7.846,24,0.058,7937,3.9512,-87.1311
lg,1625400100548201067,0,0.6709,-0.1772,0.7446,681,1.2207,-19.8975,-6.5918,86,1.2876,1.0785,-55.5851,-7.8784,24,0.059,8620,3.9512,-87.117
lg,1625400100548220492,0,0.668,-0.1731,0.7515,682,1.8921,-20.9961,-5.9204,86,1.2916,1.0775,-55.8577,-7.8952,24,0.059,8071,3.9512,-87.1059
lg,1625400100548293363,0,0.6721,-0.1626,0.741,683,0.9155,-21.7896,-5.3711,86,1.2906,1.0735,-56.1711,-7.9553,24,0.058,8050,3.9512,-87.0757
lg,1625400100548318715,0,0.6819,-0.1592,0.7397,684,1.0986,-22.9492,-4.6387,86,1.2926,1.0775,-56.5316,-8.046,24,0.058,8474,3.9512,-86.9927
lg,1625400100548337030,0,0.6926,-0.1748,0.7402,685,0.7935,-23.9258,-4.8828,86,1.2926,1.0755,-56.9309,-8.2015,24,0.058,8132,3.9512,-86.8659
lg,1625400100548355844,0,0.7109,-0.1785,0.7324,686,0.7324,-24.231,-4.6997,86,1.2916,1.0775,-57.3642,-8.3882,24,0.058,9002,3.9512,-86.707
lg,1625400100548374567,0,0.7124,-0.1746,0.7083,687,0.9766,-23.9868,-4.2725,86,1.2926,1.0775,-57.8069,-8.5903,24,0.058,8458,3.9512,-86.5156
lg,1625400100548393085,0,0.7207,-0.1851,0.7224,688,0.8545,-24.6582,-4.3335,86,1.2926,1.0775,-58.2482,-8.8271,24,0.057,8206,3.9512,-86.2945
lg,1625400100548414530,0,0.7231,-0.1611,0.7197,689,1.3428,-24.9634,-4.2725,86,1.2926,1.0775,-58.6958,-8.9508,24,0.057,8173,3.9512,-86.1486
lg,1625400100548433233,0,0.7034,-0.1733,0.708,690,1.4648,-22.0337,-3.7231,86,1.2916,1.0775,-58.9932,-9.1385,24,0.057,8321,3.9512,-85.9397
lg,1625400100548453474,0,0.7141,-0.187,0.7139,691,1.709,-22.3389,-2.8687,86,1.2926,1.0785,-59.2898,-9.4247,24,0.057,10041,3.9512,-85.6165
lg,1625400100548472437,0,0.7119,-0.1809,0.7131,692,2.9907,-23.6816,-2.4414,86,1.2896,1.0735,-59.6228,-9.6736,24,0.057,8543,3.9512,-85.2652
lg,1625400100548491955,0,0.7261,-0.1736,0.6934,693,2.7466,-23.1323,-2.0142,86,1.2906,1.0765,-59.9702,-9.936,24,0.057,8691,3.9512,-84.9012
lg,1625400100548509918,0,0.729,-0.1738,0.6997,694,2.5635,-22.7661,-1.8311,86,1.2906,1.0765,-60.2185,-10.1725,24,0.057,8316,3.9512,-84.5563
lg,1625400100548529863,0,0.7322,-0.1687,0.7021,695,3.54,-21.2402,-1.0376,86,1.2906,1.0765,-60.458,-10.4095,24,0.056,8321,3.9512,-84.1696
lg,1625400100548549715,0,0.7275,-0.1782,0.6899,696,3.6621,-20.0195,-1.3428,86,1.2906,1.0775,-60.6515,-10.6545,24,0.056,8430,3.9512,-83.7799
lg,1625400100548569604,0,0.7446,-0.1829,0.7166,697,3.9673,-19.4092,-1.2817,86,1.2906,1.0765,-60.7969,-10.8698,24,0.056,8409,3.9512,-83.4047
lg,1625400100548642992,0,0.749,-0.1689,0.6985,698,4.2725,-18.9209,-1.5259,86,1.2916,1.0775,-60.9078,-10.9503,24,0.056,8436,3.9512,-83.1451
lg,1625400100548675363,0,0.7395,-0.189,0.6909,699,4.8828,-15.7471,-2.0752,86,1.2916,1.0765,-60.9357,-11.0679,24,0.057,8461,3.9512,-82.8504
lg,1625400100548695918,0,0.7412,-0.1536,0.6873,700,4.6997,-13.4888,-1.9531,86,1.2916,1.0775,-60.8921,-11.0105,24,0.057,8496,3.9512,-82.7225
lg,1625400100548730159,0,0.728,-0.1689,0.6838,701,5.7373,-9.7046,-0.3052,86,1.2916,1.0765,-60.6727,-11.0515,24,0.056,8485,3.9512,-82.4549
lg,1625400100548748604,0,0.7258,-0.1716,0.6794,702,5.9204,-9.5215,-0.3052,86,1.2916,1.0775,-60.4438,-11.0985,24,0.056,8528,3.9512,-82.1811
lg,1625400100548766918,0,0.7375,-0.1636,0.6992,703,4.6997,-8.1177,0.3662,86,1.2906,1.0765,-60.1671,-11.1577,24,0.056,8478,3.9512,-81.9274
lg,1625400100548787641,0,0.7419,-0.1704,0.7061,704,5.7373,-6.958,1.8311,86,1.2896,1.0765,-59.8389,-11.2773,24,0.056,8576,3.9512,-81.561
lg,1625400125977419325,2,0.7837,-0.0825,0.605,705,-16.6626,-42.1143,-16.0522,62,1.2936,1.0745,-67.8527,-5.5283,24,0.053,19474,3.9842,-170.3139
lg,1625400125977490544,2,0.7927,-0.0928,0.616,706,-21.0571,-43.7012,-13.916,62,1.2936,1.0755,-68.966,-5.5749,24,0.054,8516,3.9842,-171.1916
lg,1625400125977513154,2,0.7969,-0.1045,0.6145,707,-24.292,-38.6353,-12.085,62,1.2946,1.0735,-69.8381,-5.9316,24,0.055,7901,3.9842,-171.8759
lg,1625400125977533227,2,0.7649,-0.145,0.6335,708,-24.4141,-36.5601,-9.8267,62,1.2946,1.0765,-70.5105,-6.7654,24,0.055,7875,3.9842,-172.0778
lg,1625400125977552467,2,0.7876,-0.1333,0.6194,709,-25.1465,-38.0249,-8.3618,62,1.2926,1.0755,-71.26,-7.7403,24,0.054,8064,3.9842,-172.1404
lg,1625400125977571780,2,0.8145,-0.1289,0.6221,710,-24.7192,-38.269,-6.5308,62,1.2946,1.0755,-72.0088,-8.8878,24,0.055,7940,3.9842,-171.9865
lg,1625400125977589965,2,0.8611,-0.105,0.6096,711,-24.7803,-34.4849,-5.188,62,1.2946,1.0775,-72.6548,-9.9761,24,0.054,7953,3.9842,-171.8726
lg,1625400125977608390,2,0.8706,-0.1057,0.6021,712,-26.1841,-32.0435,-5.249,62,1.2946,1.0765,-73.2049,-11.0705,24,0.055,7953,3.9842,-171.804
lg,1625400125977626648,2,0.9458,-0.0728,0.5837,713,-29.1748,-25.5127,-1.9531,62,1.2946,1.0765,-73.581,-12.3411,24,0.054,7985,3.9842,-171.6512
lg,1625400125977644962,2,0.9963,-0.1406,0.6113,714,-32.6538,-12.2681,-1.77,62,1.2956,1.0775,-73.4292,-13.7847,24,0.054,8036,3.9842,-171.4935
lg,1625400125977664091,2,1.011,-0.177,0.6294,715,-30.3955,-3.6011,-2.3804,62,1.2946,1.0765,-72.941,-14.906,24,0.054,8040,3.9842,-171.5933
lg,1625400125977682979,2,0.9453,-0.2751,0.6821,716,-24.231,22.644,-5.7373,62,1.2966,1.0755,-71.3553,-14.9737,24,0.054,8068,3.9842,-172.6005
lg,1625400125977701015,2,0.822,-0.271,0.6531,717,-14.2822,43.1519,-5.3101,62,1.2976,1.0775,-68.9428,-14.3143,24,0.054,8077,3.9842,-173.9916
lg,1625400125977718755,2,0.7661,-0.2554,0.6465,718,-11.9629,49.1333,-3.479,62,1.2966,1.0775,-66.299,-13.792,24,0.053,8142,3.9842,-175.1607
lg,1625400125977736902,2,0.7209,-0.1262,0.5933,719,-12.9395,47.7295,0.3052,62,1.2976,1.0775,-63.8236,-13.2497,24,0.053,8116,3.9842,-176.3195
lg,1625400125977755364,2,0.769,-0.1003,0.5574,720,-18.0664,38.0859,2.8687,62,1.2966,1.0785,-61.9233,-13.3306,24,0.054,9181,3.9842,-177.0076
lg,1625400125977773307,2,0.3538,-0.5125,0.7693,721,-72.2046,-103.1494,9.5825,145,1.1976,1.0455,-65.2171,-22.313,24,0.036,13924,3.894,-170.5024
lg,1625400125977791177,2,0.6851,-0.6145,0.8518,722,-64.1479,-131.897,24.9634,145,1.1956,1.0465,-68.1202,-33.6027,24,0.038,8440,3.894,-161.1067
lg,1625400125977841767,2,0.9326,-0.6208,0.8857,723,-30.3955,-63.0493,25.5737,145,1.1906,1.0475,-68.4226,-40.7132,24,0.04,8240,3.894,-154.7321
lg,1625400125977863525,2,0.5281,-0.6506,0.8098,724,3.9673,7.5684,15.9912,145,1.1896,1.0495,-66.2965,-41.0404,24,0.041,8254,3.894,-154.2028
lg,1625400125977881543,2,0.3645,-0.8733,0.855,725,31.4941,-22.583,3.6011,145,1.1986,1.0545,-65.151,-41.7613,24,0.043,9109,3.894,-152.1127
lg,1625400125977899764,2,0.4475,-0.781,0.8811,726,64.3311,-16.6626,16.3574,145,1.2146,1.0575,-63.6328,-41.1541,24,0.043,9715,3.894,-149.9496
lg,1625400125977917800,2,0.4375,-0.7148,0.8477,727,83.8623,-6.4087,16.6016,145,1.2366,1.0605,-61.8836,-39.0954,24,0.043,8338,3.894,-148.5015
lg,1625400125977935540,2,0.415,-0.7864,0.8584,728,117.3096,-9.0942,6.7749,145,1.2556,1.0635,-60.4884,-35.5682,24,0.042,8519,3.894,-147.2712
lg,1625400125977953706,2,0.5244,-0.8125,0.7732,729,138.0615,-17.395,-7.6294,145,1.2676,1.0655,-59.9536,-31.1643,24,0.042,8393,3.894,-146.2317
lg,1625400125977971797,2,0.5142,-0.8418,0.7139,730,152.9541,-3.418,-17.0288,145,1.2736,1.0665,-59.2091,-25.5608,24,0.039,8435,3.894,-146.0523
lg,1625400125977990259,2,0.4683,-0.7405,0.6348,731,158.4473,5.8594,-21.5454,145,1.2766,1.0675,-58.1898,-19.2559,24,0.038,8405,3.894,-146.4779
lg,1625400125978008573,2,0.4417,-0.4602,0.6204,732,147.8271,-3.9062,-30.2124,145,1.2776,1.0685,-57.6861,-12.7841,24,0.043,8497,3.894,-147.5443
lg,1625400125978026628,2,0.4617,0.0864,0.4233,733,96.3745,-22.8882,-25.8789,145,1.2796,1.0685,-58.3965,-6.368,24,0.043,8697,3.894,-150.2018
lg,1625400125978045794,2,0.5217,0.072,0.502,734,8.2397,-19.5923,6.897,145,1.2806,1.0695,-58.6703,-5.8635,24,0.045,8463,3.894,-150.1676
lg,1625400125978064033,2,0.5747,-0.0132,0.6836,735,-7.5684,-27.4658,10.6812,145,1.2816,1.0695,-59.2842,-7.542,24,0.046,8516,3.894,-148.8839
lg,1625400125978081810,2,0.5972,-0.3586,0.9387,736,-14.8315,-35.0952,0.5493,145,1.2816,1.0705,-59.5979,-9.3815,24,0.046,8487,3.894,-147.6886
lg,1625400126350360308,2,0.1699,-0.2222,0.8013,737,-2.1973,-16.7236,3.6621,145,1.2836,1.0705,-58.5474,-10.3404,24,0.048,24609,3.894,-146.8066
lg,1625400126350399325,2,0.3657,-0.3389,0.9495,738,-24.7803,-76.0498,1.5259,145,1.2846,1.0705,-60.0719,-13.0931,24,0.049,12211,3.894,-144.9438
lg,1625400126350419769,2,0.5852,-0.4932,1.0828,739,-48.1567,-98.6938,3.2349,145,1.2836,1.0705,-62.5367,-17.9201,24,0.05,10369,3.894,-141.8228
lg,1625400126350467340,2,0.9934,-0.4089,0.8838,740,-73.7305,-64.5142,28.6255,145,1.2826,1.0705,-63.8041,-25.1986,24,0.049,8085,3.894,-137.0155
lg,1625400126350488043,2,1.1162,-0.4836,0.8137,741,-93.3228,27.2217,48.584,145,1.2806,1.0695,-61.3829,-31.4646,24,0.049,8041,3.894,-134.208
lg,1625400126350506579,2,1.0251,-0.5178,0.782,742,-100.0977,63.0493,44.1284,145,1.2776,1.0685,-57.301,-35.826,24,0.044,8132,3.894,-133.8813
lg,1625400126350534059,2,0.5459,-0.4929,0.9724,743,-89.8438,155.1514,9.8877,145,1.2656,1.0665,-50.9202,-34.3659,24,0.043,12279,3.894,-139.9185
lg,1625400126350552485,2,-0.4011,-0.4756,0.9312,744,-76.5991,176.5137,-16.0522,145,1.2546,1.0645,-43.45,-30.8989,24,0.048,8327,3.894,-147.3328
lg,1625400126350570761,2,-0.6729,-0.2656,0.7693,745,-32.4097,161.8042,-24.353,145,1.2416,1.0605,-36.1185,-28.3835,24,0.049,8175,3.894,-152.8739
lg,1625400126350589612,2,-0.8403,-0.1072,0.5144,746,-31.5552,24.9634,-13.2446,145,1.2326,1.0575,-33.2678,-28.5647,24,0.046,8135,3.894,-154.2734
lg,1625400126350608760,2,-0.0684,-0.3086,0.5933,747,-62.8662,-134.0942,10.8032,145,1.2276,1.0555,-36.1889,-33.1379,24,0.043,8093,3.894,-150.5621
lg,1625400126350627314,2,0.8269,-0.6924,0.8416,748,-72.0215,-181.7017,10.9863,145,1.2216,1.0535,-41.7484,-40.055,24,0.042,9437,3.894,-144.3666
lg,1625400126350646332,2,1.114,-0.7507,0.9348,749,-56.3965,-145.2026,8.8501,145,1.2196,1.0535,-45.7358,-46.299,24,0.04,8209,3.894,-138.5196
lg,1625400126350665053,2,1.0632,-0.7512,0.8945,750,-2.8076,-20.4468,3.7842,145,1.2166,1.0545,-46.0445,-46.853,24,0.04,8239,3.894,-137.7143
lg,1625400126350684608,2,0.5071,-0.6846,0.7852,751,42.2974,35.1562,-6.7749,145,1.2206,1.0555,-44.4723,-43.6769,24,0.043,8258,3.894,-139.6059
lg,1625400126350702681,2,0.2954,-0.7002,0.8022,752,60.3027,34.668,-9.7656,145,1.2296,1.0585,-42.846,-39.7547,24,0.043,8447,3.894,-140.815
lg,1625400126350720458,2,0.1987,-0.6455,0.7988,753,85.6323,8.9722,-2.9297,145,1.2436,1.0615,-41.4314,-36.0405,24,0.046,8294,3.894,-141.2222
lg,1625400126350738698,2,0.3267,-0.5469,0.8113,754,104.0039,-13.7329,6.8359,145,1.2586,1.0635,-40.8357,-32.2773,24,0.045,8302,3.894,-140.5461
lg,1625400126350757753,2,0.437,-0.6355,0.824,755,115.6006,-22.7051,6.6528,145,1.2696,1.0645,-40.7766,-28.5378,24,0.046,8361,3.894,-139.4369
lg,1625400126350795436,2,0.4626,-0.7278,0.8179,756,118.042,-26.7944,1.9531,145,1.2766,1.0665,-41.0784,-25.1724,24,0.041,8380,3.894,-138.1225
lg,1625400126350816639,2,0.5459,-0.8945,0.7957,757,122.7417,-36.0718,-9.7046,145,1.2796,1.0665,-42.0169,-21.5708,24,0.04,8366,3.894,-137.091
lg,1625400126350835619,2,0.5972,-0.7725,0.7546,758,140.0757,-28.9307,-23.8037,145,1.2826,1.0675,-43.029,-16.6265,24,0.045,8390,3.894,-137.0337
lg,1625400126350853970,2,0.6699,-0.5645,0.6755,759,137.207,-12.4512,-26.1841,145,1.2826,1.0685,-43.6441,-11.3019,24,0.045,8405,3.894,-137.5861
lg,1625400126350873636,2,0.5889,-0.4595,0.6616,760,132.2021,-6.958,-29.9072,145,1.2846,1.0695,-44.0066,-5.6766,24,0.047,8434,3.894,-138.6582
lg,1625400126350892413,2,0.5229,-0.1895,0.6738,761,111.145,1.0986,-26.6724,145,1.2856,1.0695,-43.7535,-0.6749,24,0.047,8456,3.894,-139.8191
lg,1625400126350911634,2,0.4517,0.0349,0.6814,762,62.0728,-4.3335,-24.1699,145,1.2856,1.0705,-43.493,2.8744,24,0.048,10304,3.894,-141.26
lg,1625400126350930430,2,0.4912,-0.0386,0.8513,763,-12.5122,-23.1323,5.188,145,1.2856,1.0705,-43.8844,1.959,24,0.05,8565,3.894,-140.8517
lg,1625400126350950003,2,0.9148,-0.1562,0.8691,764,-69.0308,-32.1655,29.1138,145,1.2846,1.0695,-45.2441,-2.4125,24,0.051,8745,3.894,-138.8735
lg,1625400126350968261,2,0.9949,-0.2917,1.0171,765,-98.7549,35.2173,42.2363,145,1.2836,1.0695,-43.619,-8.4035,24,0.047,8773,3.894,-136.3143
lg,1625400126350986686,2,0.7939,-0.3611,0.9646,766,-101.7456,73.6084,36.6821,145,1.2796,1.0685,-39.9504,-14.1685,24,0.045,8631,3.894,-134.5202
lg,1625400126351004574,2,0.418,-0.4688,0.9089,767,-116.6382,90.8813,13.7939,145,1.2686,1.0665,-35.6576,-18.9939,24,0.046,8522,3.894,-134.8174
lg,1625400126351024277,2,0.1309,-0.3555,1.1941,768,-133.1177,105.7129,-9.9487,145,1.2476,1.0615,-30.7567,-22.9184,24,0.048,8769,3.894,-137.19
lg,1625400126722877849,2,-0.8142,0.4031,0.7158,769,-68.4204,103.5156,-25.0244,145,1.1956,1.0335,-27.6803,-24.223,24,0.043,24802,3.894,-139.0489
lg,1625400126722917865,2,-0.0435,-0.6553,0.7668,770,-86.4868,-101.3184,-2.3804,145,1.1976,1.0325,-34.8017,-32.3986,24,0.039,9579,3.894,-132.8364
lg,1625400126722938494,2,1.7134,-0.8171,1.0195,771,-98.5107,-248.1689,17.334,145,1.1966,1.0295,-42.9213,-41.8413,24,0.039,10717,3.894,-124.2458
lg,1625400126722957808,2,1.1382,-0.5632,0.8269,772,-20.2637,49.3164,21.4844,145,1.1946,1.0295,-41.1036,-41.7461,24,0.038,8160,3.894,-125.3553
lg,1625400126723007009,2,0.5974,-0.4436,0.645,773,-6.958,102.417,10.437,145,1.1906,1.0295,-37.4895,-39.6928,24,0.038,7964,3.894,-128.741
lg,1625400126723028119,2,0.0479,-0.5168,0.6514,774,-19.104,58.4717,2.3193,145,1.1866,1.0335,-34.3605,-39.3568,24,0.039,7956,3.894,-130.5374
lg,1625400126723047600,2,0.1453,-0.8508,0.9329,775,-8.4229,-21.6064,8.728,145,1.1876,1.0395,-33.7333,-40.3753,24,0.041,7987,3.894,-129.4773
lg,1625400126723066451,2,0.2456,-0.7856,0.8267,776,37.9639,-35.2783,3.7231,145,1.1996,1.0475,-33.8713,-39.6868,24,0.041,9324,3.894,-128.1592
lg,1625400126723083894,2,0.248,-0.748,0.8062,777,57.8003,-30.7007,5.9204,145,1.2206,1.0545,-34.3651,-37.7449,24,0.043,8657,3.894,-126.6305
lg,1625400126723101227,2,0.3606,-0.7798,0.7817,778,78.7964,-62.7441,0.9766,145,1.2436,1.0585,-35.703,-36.0093,24,0.043,8023,3.894,-124.5505
lg,1625400126723118282,2,0.6448,-0.8723,0.8499,779,99.9756,-79.7119,-1.0376,145,1.2646,1.0625,-38.0257,-33.7875,24,0.045,11169,3.894,-122.0514
lg,1625400126723135633,2,0.8291,-1.0002,0.7097,780,120.8496,-35.5225,-5.188,145,1.2716,1.0645,-39.2519,-30.2855,24,0.042,8044,3.894,-120.7765
lg,1625400126723153428,2,0.615,-0.8882,0.7175,781,145.813,16.4185,-26.4282,145,1.2756,1.0655,-38.8225,-24.3908,24,0.04,8164,3.894,-121.7755
lg,1625400126723171131,2,0.4722,-0.7559,0.7173,782,154.2969,21.0571,-35.8887,145,1.2786,1.0665,-38.1391,-17.5543,24,0.04,8132,3.894,-123.4686
lg,1625400126723188149,2,0.4331,-0.2126,0.4646,783,136.3525,3.9062,-39.7339,145,1.2796,1.0675,-38.4708,-11.1402,24,0.045,8133,3.894,-125.3232
lg,1625400126723205815,2,0.4163,0.1477,0.4067,784,68.3594,-0.6714,-12.7563,145,1.2806,1.0675,-38.9074,-6.9217,24,0.047,8338,3.894,-126.6633
lg,1625400126723224017,2,0.4033,-0.0215,0.5637,785,11.3525,-25.7568,5.8594,145,1.2826,1.0685,-39.758,-6.5604,24,0.048,8296,3.894,-126.3305
lg,1625400126723241609,2,0.4529,-0.1587,0.7234,786,-5.3101,-51.1475,4.6387,145,1.2826,1.0685,-41.4212,-7.3973,24,0.048,8196,3.894,-125.5955
lg,1625400126723271774,2,0.4697,-0.3916,0.9604,787,-18.3716,-59.5093,1.3428,145,1.2826,1.0685,-43.1186,-9.1924,24,0.047,8204,3.894,-124.5938
lg,1625400126723290088,2,0.302,-0.4563,0.9661,788,-25.0244,-43.1519,14.7705,125,1.2836,1.0695,-43.6954,-11.848,24,0.048,10981,3.916,-122.8125
lg,1625400126723307865,2,0.5283,-0.3145,0.8298,789,-48.7671,-67.3218,34.3628,125,1.2836,1.0695,-45.4483,-16.1503,24,0.05,10268,3.916,-119.7476
lg,1625400126723324976,2,1.155,-0.2983,0.7207,790,-77.9419,-58.5938,51.6357,125,1.2836,1.0695,-47.3642,-22.3393,24,0.051,8473,3.916,-115.6089
lg,1625400126723353141,2,1.1748,-0.2039,0.7747,791,-86.3647,62.3169,63.1714,125,1.2836,1.0685,-44.3969,-26.8419,24,0.05,8611,3.916,-113.9712
lg,1625400126723371992,2,0.7004,-0.3435,0.9509,792,-114.0137,134.3994,53.4058,125,1.2826,1.0685,-38.3255,-30.4431,24,0.049,8474,3.916,-115.1593
lg,1625400126723390028,2,0.4624,-0.5369,1.0886,793,-129.5166,131.958,37.9028,125,1.2776,1.0675,-32.0097,-34.511,24,0.046,8451,3.916,-117.1018
lg,1625400126723407675,2,0.0894,-0.7126,1.1768,794,-134.3384,95.5811,4.3945,125,1.2626,1.0655,-27.7777,-38.4545,24,0.045,9098,3.916,-119.6945
lg,1625400126723425675,2,-0.0042,-0.3186,0.8149,795,-98.8159,67.9932,-4.5166,125,1.2406,1.0615,-24.7923,-40.7043,24,0.048,8692,3.916,-122.1629
lg,1625400126723443155,2,-0.0757,-0.3059,0.6384,796,-50.8423,62.7441,8.2397,125,1.2296,1.0575,-21.5622,-41.479,24,0.047,8540,3.916,-123.9738
lg,1625400126723460358,2,-0.1289,-0.4451,0.6328,797,-40.7715,45.0439,3.418,125,1.2236,1.0555,-19.9989,-42.3853,24,0.045,8494,3.916,-124.6162
lg,1625400126723477542,2,0.189,-0.5583,0.7405,798,-30.8838,-38.8794,-10.0708,125,1.2196,1.0545,-21.0683,-43.6701,24,0.043,10748,3.916,-123.8774
lg,1625400126723494801,2,0.3052,-0.5261,0.7566,799,-21.7896,-40.2832,-11.1694,125,1.2166,1.0545,-22.4766,-44.5483,24,0.042,8646,3.916,-123.1239
lg,1625400126723514226,2,0.2576,-0.5227,0.6929,800,3.9673,-24.1089,-9.4604,125,1.2156,1.0555,-23.1923,-44.2397,24,0.043,8650,3.916,-122.8049
lg,1625400127072633978,2,0.449,-0.6956,0.813,801,66.9556,-53.0396,-1.8311,125,1.2406,1.0635,-24.7583,-42.0319,24,0.047,24875,3.916,-121.3338
lg,1625400127072682384,2,0.4507,-0.7068,0.7397,802,85.6323,-45.8984,-1.2207,125,1.2566,1.0655,-26.13,-39.2249,24,0.046,10083,3.916,-120.0222
lg,1625400127072703920,2,0.4517,-0.7776,0.8005,803,91.4917,-44.9829,-2.5024,125,1.2686,1.0665,-27.4416,-36.2883,24,0.047,7966,3.916,-118.782
lg,1625400127072724771,2,0.4788,-0.7583,0.7334,804,116.5771,-28.3813,-11.4136,125,1.2786,1.0685,-28.5226,-32.1661,24,0.043,13440,3.916,-118.3006
lg,1625400127072746955,2,0.4163,-0.7451,0.6594,805,117.3096,-30.3345,-15.564,125,1.2826,1.0685,-29.6899,-28.2005,24,0.043,8014,3.916,-117.8868
lg,1625400127072794990,2,0.4951,-0.5288,0.6653,806,119.0186,-39.917,-21.7896,125,1.2836,1.0695,-32.1338,-24.1184,24,0.047,9723,3.916,-117.5586
lg,1625400127072815452,2,0.6233,-0.4341,0.7271,807,98.7549,-68.1152,-26.2451,125,1.2846,1.0705,-35.2045,-20.4721,24,0.048,8097,3.916,-117.3507
lg,1625400127072835266,2,0.9585,-0.1758,0.5688,808,38.3911,-62.8052,-19.4702,125,1.2846,1.0695,-38.6919,-18.9267,24,0.049,8053,3.916,-117.273
lg,1625400127072854783,2,1.1677,-0.1462,0.6262,809,-22.8882,3.2959,15.1367,125,1.2846,1.0695,-39.2255,-20.1244,24,0.052,10685,3.916,-116.6769
lg,1625400127072874079,2,1.0007,-0.2905,0.9133,810,-48.3398,67.5049,21.4233,125,1.2846,1.0705,-36.6812,-21.8303,24,0.051,8605,3.916,-116.9483
lg,1625400127072893245,2,0.543,-0.5454,0.9805,811,-58.3496,112.6709,2.0752,125,1.2836,1.0695,-32.086,-23.3239,24,0.047,8821,3.916,-118.7834
lg,1625400127072911781,2,0.3425,-0.6382,0.9482,812,-63.1104,118.6523,-4.2114,125,1.2786,1.0685,-26.9555,-24.9589,24,0.045,8427,3.916,-121.0432
lg,1625400127072930299,2,-0.0034,-0.4504,0.9624,813,-67.0166,110.7788,-24.1699,125,1.2696,1.0665,-22.3612,-26.3419,24,0.047,8782,3.916,-124.1308
lg,1625400127072949576,2,-0.2388,-0.2253,0.9607,814,-78.9795,57.251,-45.8984,125,1.2516,1.0625,-19.8597,-27.906,24,0.05,8049,3.916,-127.2292
lg,1625400127072968649,2,-0.2695,-0.0945,0.7449,815,-70.9229,27.5879,-22.8882,125,1.2246,1.0545,-17.939,-29.4689,24,0.048,9878,3.916,-128.9323
lg,1625400127072988129,2,-0.1033,-0.0393,0.6194,816,-68.4814,-39.6729,-18.3716,125,1.2116,1.0475,-18.7012,-31.2168,24,0.044,8133,3.916,-129.088
lg,1625400127073006814,2,0.02,-0.2549,0.6721,817,-68.4814,-59.9976,-11.1084,125,1.2076,1.0435,-20.607,-34.2977,24,0.041,8872,3.916,-128.103
lg,1625400127073025461,2,0.3984,-0.667,0.8291,818,-64.1479,-98.0835,3.1128,125,1.2066,1.0415,-23.6746,-38.0103,24,0.038,8524,3.916,-125.4283
lg,1625400127073043738,2,0.8269,-0.6152,0.8152,819,-44.6777,-71.9604,9.7046,125,1.2046,1.0405,-26.233,-40.7463,24,0.043,8524,3.916,-123.08
lg,1625400127073062663,2,0.6353,-0.5356,0.7329,820,-17.0288,-1.2817,12.4512,125,1.1986,1.0415,-26.2867,-41.4516,24,0.039,8194,3.916,-122.7016
lg,1625400127073101050,2,0.4265,-0.543,0.7332,821,-5.6152,8.5449,9.5215,125,1.1966,1.0435,-25.3584,-41.6644,24,0.039,8930,3.916,-122.6558
lg,1625400127073122068,2,0.2261,-0.6863,0.7625,822,14.2212,-14.4653,4.0283,125,1.1966,1.0485,-25.1687,-41.339,24,0.042,8223,3.916,-122.0933
lg,1625400127073141178,2,0.249,-0.7632,0.7351,823,43.5181,-33.2031,8.3008,125,1.2106,1.0545,-25.4786,-40.3268,24,0.042,8971,3.916,-120.7643
lg,1625400127073165992,2,0.2695,-0.8787,0.8213,824,73.3643,-55.7251,11.9019,125,1.2306,1.0595,-26.3852,-38.5459,24,0.045,8296,3.916,-118.6485
lg,1625400127073188824,2,0.3257,-0.9102,0.8103,825,84.7168,-67.688,13.4277,125,1.2506,1.0625,-27.7513,-36.6422,24,0.046,8352,3.916,-116.1184
lg,1625400127073206953,2,0.5818,-0.8677,0.7852,826,107.8491,-68.4204,19.5923,125,1.2636,1.0655,-29.4805,-33.9967,24,0.044,8696,3.916,-113.3749
lg,1625400127073226156,2,0.7302,-0.9128,0.7087,827,124.6338,-42.4805,11.2915,125,1.2726,1.0665,-30.827,-30.4591,24,0.043,9058,3.916,-111.5485
lg,1625400127073249655,2,0.6194,-0.825,0.6697,828,144.4092,-6.1035,-4.1504,125,1.2776,1.0675,-31.1658,-25.4773,24,0.041,8427,3.916,-111.1785
lg,1625400127073268413,2,0.4631,-0.5271,0.5425,829,150.6958,1.709,-10.2539,125,1.2786,1.0685,-31.4676,-19.9436,24,0.044,9144,3.916,-111.3471
lg,1625400127073287672,2,0.3843,-0.4365,0.5815,830,139.3433,-5.3711,-14.6484,125,1.2806,1.0685,-32.51,-14.9439,24,0.045,9198,3.916,-111.5835
lg,1625400127073307541,2,0.5142,-0.1624,0.6638,831,99.2432,-46.5698,-18.4326,125,1.2796,1.0675,-34.6452,-10.7345,24,0.047,8512,3.916,-111.9824
lg,1625400127073328466,2,0.8003,0.0647,0.5623,832,23.7427,-53.833,-0.3052,125,1.2806,1.0695,-37.5545,-9.5658,24,0.049,8890,3.916,-111.8141
lg,1625400127430082996,2,1.1416,-0.2683,1.0217,833,-64.9414,97.7783,48.8281,125,1.2816,1.0695,-33.7288,-13.1491,24,0.049,25796,3.916,-110.2915
lg,1625400127430144753,2,0.3691,-0.5164,0.9155,834,-62.3169,173.2788,19.165,125,1.2786,1.0685,-26.3406,-15.7434,24,0.046,12315,3.916,-111.0653
lg,1625400127430165585,2,-0.0784,-0.2646,1.0295,835,-68.0542,162.2925,0.4883,125,1.2726,1.0665,-18.9961,-17.6166,24,0.045,8091,3.916,-113.1145
lg,1625400127430185325,2,-0.6621,-0.2859,0.9373,836,-78.186,100.2808,-24.5361,125,1.2656,1.0655,-13.7219,-20.0422,24,0.049,7922,3.916,-115.48
lg,1625400127430245878,2,-0.4026,-0.3447,0.9338,837,-89.9048,31.6162,-16.5405,125,1.2526,1.0635,-14.3057,-24.105,24,0.049,7983,3.916,-115.0179
lg,1625400127430267303,2,-0.0286,-0.377,0.875,838,-99.4873,-101.8677,-0.5493,125,1.2386,1.0595,-17.3207,-28.5304,24,0.045,8000,3.916,-113.1906
lg,1625400127430286043,2,0.5088,-0.3672,0.7729,839,-68.9697,-88.2568,9.2163,125,1.2276,1.0575,-20.6925,-31.8876,24,0.043,7894,3.916,-110.9908
lg,1625400127430305486,2,0.5281,-0.4048,0.7585,840,-38.4521,-32.6538,11.0474,125,1.2246,1.0565,-21.97,-33.6991,24,0.043,8203,3.916,-109.8758
lg,1625400127430323430,2,0.4971,-0.4978,0.7446,841,-30.0903,-26.8555,5.188,125,1.2216,1.0555,-22.8832,-35.2917,24,0.042,8555,3.916,-109.0022
lg,1625400127430342077,2,0.4937,-0.6643,0.8328,842,-12.085,-23.4375,-1.0986,125,1.2216,1.0575,-23.7395,-36.1135,24,0.043,8002,3.916,-108.396
lg,1625400127430361447,2,0.3357,-0.7344,0.8286,843,23.1323,-2.6855,0.1221,125,1.2246,1.0595,-23.5503,-35.436,24,0.045,7997,3.916,-108.2333
lg,1625400127430381613,2,0.2598,-0.7939,0.8457,844,39.1235,-1.4648,1.0986,125,1.2346,1.0615,-23.0363,-34.3224,24,0.047,7982,3.916,-107.9838
lg,1625400127430399778,2,0.2397,-0.7615,0.7932,845,67.627,-17.6392,8.728,125,1.2486,1.0635,-23.0172,-32.3072,24,0.048,8038,3.916,-107.0823
lg,1625400127430418167,2,0.3286,-0.7312,0.7717,846,92.5903,-38.7573,4.1504,125,1.2646,1.0655,-24.0383,-29.4762,24,0.047,8029,3.916,-105.8727
lg,1625400127430436481,2,0.426,-0.7756,0.8083,847,99.9146,-45.2881,4.2114,125,1.2736,1.0675,-25.5987,-26.6322,24,0.046,8109,3.916,-104.4906
lg,1625400127430454220,2,0.6152,-0.8694,0.7373,848,113.4033,-37.4146,-1.4648,125,1.2776,1.0685,-27.1535,-23.2629,24,0.043,8082,3.916,-103.4713
lg,1625400127430471775,2,0.4944,-0.9351,0.7488,849,125.6104,-13.6719,-16.5405,125,1.2816,1.0685,-27.8343,-19.1465,24,0.04,8117,3.916,-103.4306
lg,1625400127430489774,2,0.4648,-0.7959,0.7068,850,132.2632,-16.2354,-23.1323,125,1.2826,1.0705,-28.9762,-14.2389,24,0.045,8119,3.916,-103.8865
lg,1625400127430507551,2,0.6638,-0.1711,0.4802,851,80.3223,-35.2783,-17.9443,125,1.2816,1.0705,-31.4019,-10.9409,24,0.046,8151,3.916,-104.2993
lg,1625400127430525291,2,0.9668,0.0012,0.4961,852,-2.1362,-2.1362,16.4795,125,1.2826,1.0695,-32.5442,-11.2042,24,0.047,11231,3.916,-103.6389
lg,1625400127430543346,2,1.1025,-0.1052,0.8511,853,-49.7437,35.5835,22.9492,125,1.2836,1.0705,-31.7187,-13.4454,24,0.048,8251,3.916,-102.9887
lg,1625400127430577104,2,0.5618,-0.4363,1.0117,854,-60.4858,110.0464,-1.2207,125,1.2846,1.0695,-27.311,-15.5954,24,0.046,8323,3.916,-104.1107
lg,1625400127430597751,2,-0.1116,-0.5962,1.0483,855,-66.1011,124.1455,-15.3198,125,1.2816,1.0695,-21.5595,-17.8982,24,0.045,11979,3.916,-106.0794
lg,1625400127430616287,2,-0.2544,-0.4275,1.0625,856,-98.6938,40.9546,-15.7471,125,1.2726,1.0675,-18.9644,-21.554,24,0.048,8319,3.916,-107.2846
lg,1625400127430634638,2,0.1797,-0.5129,1.085,857,-112.0605,-12.8174,-20.2637,125,1.2526,1.0645,-20.8411,-26.1171,24,0.051,8708,3.916,-107.4274
lg,1625400127430653008,2,0.3604,-0.5439,1.0195,858,-97.9614,-70.5566,-39.6729,125,1.2296,1.0575,-23.918,-30.063,24,0.047,8723,3.916,-107.4773
