name,time,activity,ax,ay,az,batch_val,gx,gy,gz,ibat,index,middle,pitch,roll,temp,thumb,ts,vbat,yaw
lg,1625400540664570460,0,0.584,-0.124,0.8516,1,-4.5776,-12.9395,-2.9297,62,1.3296,1.0625,-32.3419,8.4198,23,0.033,19885,3.9996,-102.7027
lg,1625400540664682979,0,0.6147,-0.1287,0.8267,2,-3.7231,-13.855,-2.5635,62,1.3357,1.0645,-33.0641,7.738,24,0.033,8470,3.9996,-102.5649
lg,1625400540664718738,0,0.6252,-0.1465,0.8169,3,-2.4414,-12.085,-2.1973,62,1.3327,1.0645,-33.6207,7.101,24,0.034,7893,3.9996,-102.3533
lg,1625400540664749423,0,0.6179,-0.1619,0.8406,4,-1.3428,-11.4746,-1.6479,62,1.3306,1.0645,-34.1927,6.4395,24,0.034,7952,3.9996,-102.112
lg,1625400540664781534,0,0.6025,-0.1785,0.8389,5,-1.0376,-9.8877,-0.1221,62,1.3337,1.0645,-34.6614,5.7147,24,0.034,7994,3.9996,-101.7623
lg,1625400540664810886,0,0.5911,-0.1702,0.8586,6,1.0376,-7.9346,1.4038,62,1.3327,1.0615,-34.9329,5.1205,24,0.035,7824,3.9996,-101.3763
lg,1625400540664842294,0,0.5388,-0.0881,0.8699,7,2.0752,-6.7749,4.3335,62,1.3306,1.0645,-35.0959,4.6504,24,0.035,7845,3.9996,-100.9347
lg,1625400540664870034,0,0.4663,-0.0088,0.8921,8,1.709,-9.4604,6.1646,62,1.3327,1.0645,-35.1899,4.3417,24,0.035,7924,3.9996,-100.5404
lg,1625400540664896923,0,0.4451,0.0127,0.8833,9,-0.2441,-11.5967,7.3242,62,1.3317,1.0635,-35.3639,4.0694,24,0.035,7889,3.9996,-100.178
lg,1625400540664925071,0,0.4736,0.0598,0.8713,10,-9.2773,-20.9961,8.5449,62,1.3306,1.0645,-35.9388,3.4884,24,0.035,7874,3.9996,-99.8236
lg,1625400540664953127,0,0.5164,0.0918,0.9055,11,-18.3716,-28.6865,3.1738,62,1.3327,1.0635,-36.8252,2.8081,24,0.035,7943,3.9996,-99.8043
lg,1625400540664982794,0,0.4565,0.1101,0.9329,12,-21.7896,-28.2593,-2.1973,62,1.3327,1.0645,-37.5093,2.2207,24,0.033,7983,3.9996,-100.0859
lg,1625400540665011405,0,0.3733,0.1958,0.8828,13,-30.3345,-29.7852,-8.728,62,1.3327,1.0635,-38.1041,1.7908,24,0.031,8012,3.9996,-100.8754
lg,1625400540665264220,0,0.375,0.2107,0.7979,14,-45.0439,-40.8936,-15.5029,62,1.3327,1.0635,-39.2032,1.1246,24,0.032,7999,3.9996,-102.0996
lg,1625400540665304720,0,0.3818,0.1975,0.8032,15,-53.2837,-48.3398,-19.043,62,1.3327,1.0635,-40.6688,0.0739,24,0.031,8025,3.9996,-103.3903
lg,1625400540665334405,0,0.459,0.1208,0.8391,16,-66.5283,-57.9834,-27.1606,62,1.3306,1.0635,-42.5093,-1.2486,24,0.03,8037,3.9996,-105.0699
lg,1625400540665365238,0,0.4617,0.0259,0.8416,17,-69.397,-56.0303,-37.6587,62,1.3327,1.0645,-44.2363,-2.506,23,0.03,8500,3.9996,-107.1516
lg,1625400540665397720,0,0.2966,-0.717,0.7388,18,40.1611,52.3071,-14.7095,122,1.3056,1.0015,-41.4917,-2.261,24,0.034,11754,3.9281,-106.6774
lg,1625400540665426090,0,-0.0063,-0.6782,0.6921,19,56.8237,28.6865,-29.48,122,1.3076,0.9625,-39.2682,-0.9764,24,0.035,8414,3.9281,-106.9162
lg,1625400540665453034,0,0.2107,-0.6956,0.6416,20,60.9741,-17.5171,-22.8882,122,1.3106,0.9204,-39.3901,0.1226,24,0.036,8010,3.9281,-106.7635
lg,1625400540665479479,0,0.3862,-0.6492,0.6895,21,61.9507,-26.9775,-20.3857,122,1.3126,0.8854,-40.3119,1.284,23,0.035,8139,3.9281,-106.503
lg,1625400540665506553,0,0.4622,-0.6475,0.7048,22,59.6313,-30.7007,-13.9771,122,1.3146,0.8614,-41.3134,2.2989,23,0.036,8486,3.9281,-106.0665
lg,1625400540665533794,0,0.6091,-0.6023,0.679,23,57.6172,-12.5122,-4.6387,122,1.3156,0.8424,-41.8508,3.0285,23,0.036,9556,3.9281,-105.1791
lg,1625400540665560423,0,0.4919,-0.5596,0.6523,24,51.9409,13.1836,-4.8218,122,1.3186,0.8284,-41.1998,3.4233,23,0.037,8083,3.9281,-104.1712
lg,1625400540665586683,0,0.4043,-0.4951,0.6199,25,34.4238,11.9629,-1.8311,122,1.3196,0.8174,-40.4952,3.0409,23,0.037,8315,3.9281,-103.0393
lg,1625400540665613738,0,0.3914,-0.5371,0.6221,26,23.9258,8.3618,0.7324,122,1.3206,0.8104,-39.9308,2.0949,23,0.038,8132,3.9281,-101.7613
lg,1625400540665642609,0,0.3391,-0.5859,0.7097,27,16.3574,-3.2349,-0.2441,122,1.3196,0.8084,-39.623,0.9193,23,0.038,8318,3.9281,-100.5899
lg,1625400540665668423,0,0.28,-0.623,0.7478,28,13.4888,-18.6768,-2.8687,122,1.3216,0.8094,-39.7782,-0.2902,24,0.037,8125,3.9281,-99.5603
lg,1625400540665693683,0,0.4304,-0.5505,0.7151,29,13.5498,-27.832,-2.7466,122,1.3226,0.8144,-40.7635,-1.3075,24,0.037,8302,3.9281,-98.6132
lg,1625400540665719071,0,0.4944,-0.4915,0.7063,30,10.8643,-30.4565,-2.0142,122,1.3206,0.8194,-41.7462,-2.2816,24,0.036,8217,3.9281,-97.7183
lg,1625400540665744720,0,0.4961,-0.4312,0.6826,31,-0.1221,-23.6816,-3.9062,122,1.3226,0.8284,-42.4486,-3.4901,24,0.037,8412,3.9281,-96.9906
lg,1625400540665769442,0,0.5027,-0.4395,0.6978,32,-18.4326,-18.4937,-4.9438,122,1.3226,0.8394,-42.901,-5.3558,24,0.04,8402,3.9281,-96.3247
lg,1625400541028126868,0,0.1707,-0.6128,0.7549,33,-33.2031,-24.1089,-8.5449,122,1.3226,0.8904,-42.8887,-8.1376,24,0.043,24938,3.9281,-95.5023
lg,1625400541028164645,0,0.1599,-0.5469,0.7383,34,-31.3721,-48.645,-4.7607,122,1.3196,0.9104,-43.7483,-10.9511,24,0.044,9450,3.9281,-94.3455
lg,1625400541028184571,0,0.2922,-0.6096,0.8003,35,-38.0859,-73.6694,2.2583,122,1.3196,0.9325,-45.6604,-14.5313,24,0.045,10434,3.9281,-92.3899
lg,1625400541028235775,0,0.4915,-0.6987,0.8135,36,-41.3208,-80.1392,8.4839,122,1.3166,0.9615,-47.9129,-18.8012,24,0.043,7790,3.9281,-89.6406
lg,1625400541028257942,0,0.7542,-0.7371,0.8093,37,-35.6445,-59.4482,13.4888,122,1.3156,0.9975,-49.4854,-22.8696,24,0.041,11561,3.9281,-86.7604
lg,1625400541028277053,0,0.7061,-1.022,0.9731,38,-17.0288,-39.1846,-0.061,122,1.3146,1.0165,-50.1244,-25.5373,24,0.039,7775,3.9281,-84.8269
lg,1625400541028295145,0,0.3464,-0.613,0.5913,39,30.8838,-5.6152,-24.9023,122,1.3136,1.0235,-49.7781,-24.4947,24,0.038,7984,3.9281,-85.1885
lg,1625400541028313701,0,0.2874,-0.668,0.6658,40,33.0811,-16.9067,-19.5312,122,1.3136,1.0255,-49.5803,-23.8458,24,0.039,8676,3.9281,-84.9459
lg,1625400541028331071,0,0.3655,-0.5579,0.6187,41,34.729,-17.395,-10.1929,122,1.3136,1.0275,-49.3631,-23.851,23,0.037,8147,3.9281,-83.7475
lg,1625400541028348238,0,0.572,-0.6038,0.6309,42,29.2969,-17.2119,8.9111,122,1.3106,1.0295,-49.2816,-24.3758,23,0.037,8407,3.9281,-82.0594
lg,1625400541028365997,0,0.675,-0.6289,0.6787,43,33.6914,-0.061,13.0615,122,1.3126,1.0305,-48.6099,-24.4604,23,0.037,8627,3.9281,-80.6601
lg,1625400541028383793,0,0.6821,-0.5625,0.6709,44,43.335,26.5503,14.2212,122,1.3116,1.0325,-47.0353,-23.5423,23,0.036,7979,3.9281,-79.9926
lg,1625400541028401775,0,0.6411,-0.5242,0.678,45,46.3257,39.3677,15.8691,122,1.3136,1.0335,-44.9782,-22.3058,24,0.036,8071,3.9281,-79.5646
lg,1625400541028419127,0,0.6362,-0.5889,0.7939,46,52.1851,48.3398,7.1411,122,1.3136,1.0315,-42.6427,-20.4573,24,0.036,8046,3.9281,-79.7087
lg,1625400541028436405,0,0.5942,-0.7412,0.9055,47,69.0308,56.4575,-11.1694,122,1.3156,1.0155,-40.0895,-16.5513,24,0.037,12365,3.9281,-81.5601
lg,1625400541028454905,0,0.3293,-0.6472,0.8345,48,89.7827,59.2041,-42.6025,122,1.3166,0.9795,-37.4599,-12.203,24,0.041,8139,3.9281,-83.7473
lg,1625400541028472256,0,0.1882,-0.4209,0.6814,49,94.0552,71.5332,-21.8506,122,1.3186,0.9355,-33.972,-8.3948,24,0.041,7998,3.9281,-84.8496
lg,1625400541028489368,0,0.1658,-0.342,0.6816,50,70.1904,41.9312,-3.3569,122,1.3196,0.9084,-31.5584,-6.2081,24,0.04,8131,3.9281,-84.7803
lg,1625400541028506942,0,0.3008,-0.3528,0.6863,51,57.5562,19.5923,5.4321,122,1.3206,0.8874,-31.2424,-5.5612,24,0.037,8005,3.9281,-83.8327
lg,1625400541028524571,0,0.5254,-0.4155,0.7136,52,36.6211,-2.8687,9.7656,122,1.3216,0.8684,-31.4507,-5.2782,24,0.039,8700,3.9281,-82.8758
lg,1625400541028542127,0,0.5632,-0.4741,0.7773,53,28.3203,3.1128,1.5259,122,1.3226,0.8564,-31.4279,-5.1747,24,0.039,8228,3.9281,-82.2937
lg,1625400541028560182,0,0.3562,-0.4695,0.7834,54,25.4517,23.2544,2.5024,122,1.3246,0.8514,-30.2,-5.237,24,0.041,8214,3.9281,-81.7141
lg,1625400541028578386,0,0.293,-0.4233,0.8022,55,19.4092,22.2168,5.249,122,1.3256,0.8484,-28.8309,-5.5553,24,0.041,8128,3.9281,-81.0526
lg,1625400541028595682,0,0.3193,-0.5415,0.886,56,-2.7466,2.1973,13.4888,122,1.3246,0.8504,-28.3153,-7.0264,24,0.042,8259,3.9281,-79.933
lg,1625400541028612608,0,0.4617,-0.6074,0.8643,57,-7.6294,-4.6997,11.9629,122,1.3266,0.8554,-28.351,-8.7093,24,0.042,8124,3.9281,-78.8341
lg,1625400541028629590,0,0.4399,-0.5581,0.7966,58,-2.8076,0.1831,10.3149,122,1.3266,0.8614,-28.103,-9.8728,24,0.042,8327,3.9281,-78.0801
lg,1625400541028646071,0,0.3904,-0.5056,0.7576,59,-9.9487,-6.1646,0.4883,122,1.3266,0.8714,-28.2188,-11.2558,24,0.042,11086,3.9281,-77.555
lg,1625400541028663923,0,0.4075,-0.512,0.7534,60,-14.5874,-7.7515,-1.1597,122,1.3276,0.8784,-28.4325,-12.7599,24,0.04,8296,3.9281,-77.0982
lg,1625400541028681201,0,0.4343,-0.3777,0.72,61,-19.9585,-1.8311,-2.6245,122,1.3246,0.8894,-28.5366,-14.0922,24,0.043,8232,3.9281,-76.9144
lg,1625400541028697793,0,0.4055,-0.3914,0.6726,62,-43.2739,0.6104,-4.0283,122,1.3276,0.9094,-28.54,-16.3595,24,0.045,8819,3.9281,-76.7946
lg,1625400541028714719,0,0.3643,-0.4043,0.7393,63,-66.1621,-10.6201,-10.9253,122,1.3256,0.9365,-28.8818,-19.3384,24,0.044,8275,3.9281,-76.8832
lg,1625400541028732108,0,0.3118,-0.4919,0.7676,64,-77.4536,-15.9302,-15.8081,122,1.3236,0.9735,-29.3201,-22.777,24,0.042,8495,3.9281,-77.0351
lg,1625400541386392053,0,0.0066,-0.5417,0.7288,65,-48.5229,-20.3247,-18.3105,122,1.3216,1.0235,-29.2803,-25.1256,24,0.037,25036,3.9281,-77.1417
lg,1625400541386427182,0,-0.2334,-0.5803,0.814,66,-13.6719,-48.7671,-42.5415,122,1.3206,1.0275,-30.2446,-25.7184,24,0.037,9185,3.9281,-77.7276
lg,1625400541386447793,0,0.1848,-0.5251,0.7524,67,-27.4048,-105.2246,-1.709,122,1.3206,1.0305,-33.2727,-28.3593,24,0.037,11794,3.9281,-75.3493
lg,1625400541386467423,0,0.9021,-0.5847,0.718,68,-28.6865,-109.1309,27.9541,122,1.3196,1.0315,-36.8901,-32.1014,23,0.033,10857,3.9281,-71.253
lg,1625400541386485904,0,1.2395,-0.7788,0.8892,69,-21.4844,-39.4897,31.4941,122,1.3206,1.0335,-36.6386,-33.2065,23,0.034,10795,3.9281,-70.3912
lg,1625400541386504145,0,0.8501,-0.8132,0.844,70,6.4087,46.0205,6.1035,122,1.3206,1.0345,-34.9551,-32.787,23,0.034,8087,3.9281,-71.1328
lg,1625400541386522127,0,0.3518,-0.7136,0.772,71,21.2402,75.9888,-0.4883,122,1.3206,1.0345,-31.7758,-31.3081,23,0.033,8041,3.9281,-72.8292
lg,1625400541386539830,0,0.1816,-0.6426,0.7534,72,25.0854,70.8618,0.6104,140,1.3216,1.0335,-28.9016,-29.9283,24,0.034,8002,3.916,-73.8933
lg,1625400541386557608,0,0.1853,-0.6868,0.7239,73,33.9355,42.2363,1.9531,140,1.3216,1.0265,-26.7096,-28.7617,24,0.035,8032,3.916,-74.4626
lg,1625400541386575441,0,0.1958,-0.6873,0.6956,74,44.6167,13.0005,-4.2114,140,1.3226,1.0075,-25.7662,-27.4635,24,0.035,8448,3.916,-74.5899
lg,1625400541386593590,0,0.3098,-0.5981,0.6421,75,48.1567,-9.5825,-0.3662,140,1.3226,0.9785,-25.893,-26.2512,24,0.036,8390,3.916,-74.1325
lg,1625400541386610645,0,0.4331,-0.5974,0.6611,76,38.8184,-25.8179,5.6763,140,1.3236,0.9485,-26.7469,-25.6426,23,0.037,11005,3.916,-73.128
lg,1625400541386627608,0,0.5605,-0.6296,0.7153,77,33.5083,-29.6631,9.3384,140,1.3256,0.9275,-27.7762,-25.3479,23,0.036,7939,3.916,-71.9099
lg,1625400541386644330,0,0.5784,-0.6028,0.7056,78,34.1187,-20.752,9.1553,140,1.3256,0.9054,-28.5574,-24.9189,23,0.038,8173,3.916,-70.8674
lg,1625400541386661182,0,0.5015,-0.5325,0.6826,79,29.2358,-5.5542,11.1694,140,1.3276,0.8924,-28.6489,-24.5227,23,0.038,7952,3.916,-70.0592
lg,1625400541386677978,0,0.5081,-0.4902,0.6843,80,19.104,-4.0894,14.2822,140,1.3286,0.8824,-28.6914,-25.0786,24,0.038,8212,3.916,-69.0638
lg,1625400541386695312,0,0.553,-0.5249,0.7207,81,-4.5166,-5.3711,17.2729,140,1.3266,0.8744,-28.7173,-26.0639,24,0.039,8020,3.916,-68.0459
lg,1625400541386712441,0,0.4583,-0.4929,0.7043,82,-13.855,3.1128,14.1602,140,1.3266,0.8764,-28.3293,-27.2068,24,0.038,8211,3.916,-67.366
lg,1625400541386729256,0,0.3611,-0.3982,0.6631,83,-31.0059,-6.4087,8.9111,140,1.3276,0.8864,-28.2504,-28.8221,24,0.038,8107,3.916,-66.8035
lg,1625400541386745923,0,0.3484,-0.468,0.7212,84,-46.2646,-16.2354,9.0942,140,1.3256,0.9004,-28.3773,-31.1736,24,0.041,8329,3.916,-66.0021
lg,1625400541386763645,0,0.2922,-0.5627,0.8154,85,-62.6221,-28.7476,7.3242,140,1.3276,0.9235,-28.7048,-34.2753,24,0.039,8090,3.916,-64.9584
lg,1625400541386780867,0,0.1289,-0.551,0.8059,86,-65.918,-28.2593,11.4746,140,1.3266,0.9545,-28.5222,-37.4502,24,0.038,8292,3.916,-63.8055
lg,1625400541386798571,0,0.0889,-0.5325,0.7661,87,-68.8477,-40.9546,14.1602,140,1.3236,0.9915,-28.5348,-40.8539,24,0.038,8166,3.916,-62.2159
lg,1625400541386815941,0,0.3347,-0.8445,0.9302,88,-82.2144,-82.0312,21.9116,140,1.3216,1.0125,-29.7645,-45.7817,24,0.034,8327,3.916,-58.9036
lg,1625400541386832682,0,0.2937,-0.6235,0.5603,89,11.7188,-94.1162,-46.2646,140,1.3226,1.0235,-33.2687,-46.2757,24,0.034,8600,3.916,-57.1759
lg,1625400541386850941,0,0.4031,-0.6482,0.6428,90,16.7236,-94.7266,-36.9263,140,1.3216,1.0265,-36.5443,-46.7601,24,0.031,8666,3.916,-55.0811
lg,1625400541386867664,0,0.5776,-0.5247,0.5105,91,16.6626,-85.6323,-26.001,140,1.3216,1.0285,-39.8701,-47.2038,24,0.031,8541,3.916,-52.9652
lg,1625400541386884608,0,0.6809,-0.5945,0.6492,92,10.6201,-3.7231,-1.8921,140,1.3206,1.0305,-39.9352,-46.6206,24,0.029,12267,3.916,-53.0238
lg,1625400541386901534,0,0.4126,-0.5706,0.614,93,15.3198,26.3062,4.2725,140,1.3216,1.0315,-38.5424,-45.3073,24,0.03,8520,3.916,-53.9638
lg,1625400541386918441,0,0.4011,-0.564,0.635,94,14.9536,22.4609,7.1411,140,1.3206,1.0325,-37.1821,-44.1984,24,0.028,8579,3.916,-54.6195
lg,1625400541386935738,0,0.5405,-0.6548,0.7295,95,13.1226,15.9912,8.0566,140,1.3216,1.0345,-36.1656,-43.4075,24,0.03,8715,3.916,-54.9498
lg,1625400541386952645,0,0.4922,-0.6892,0.7559,96,24.1089,25.2686,5.4932,140,1.3216,1.0345,-34.8592,-42.016,24,0.029,10335,3.916,-55.6261
lg,1625400541757589219,0,0.3381,-0.6426,0.7271,97,50.5981,17.8833,-2.2583,140,1.3246,1.0195,-33.7611,-39.6044,24,0.032,25390,3.916,-56.2818
lg,1625400541757622386,0,0.2593,-0.6321,0.7332,98,59.3872,-1.709,-16.8457,140,1.3206,0.9915,-33.4956,-36.9663,24,0.033,9193,3.916,-56.8204
lg,1625400541757642608,0,0.314,-0.5852,0.7314,99,59.3262,-9.8877,-11.7798,140,1.3266,0.9675,-33.5722,-34.8198,24,0.035,7921,3.916,-56.711
lg,1625400541757661663,0,0.437,-0.5618,0.6936,100,51.5137,-21.1792,2.4414,140,1.3266,0.9525,-33.9153,-33.3091,24,0.036,10517,3.916,-55.9412
lg,1625400541757680478,0,0.6201,-0.5642,0.6924,101,43.8843,-18.7378,7.6904,140,1.3276,0.9425,-34.4066,-32.2318,24,0.038,9723,3.916,-55.0121
lg,1625400541757697812,0,0.6208,-0.5605,0.6885,102,41.3208,-6.958,6.4087,140,1.3286,0.9365,-34.5294,-31.0975,24,0.039,7841,3.916,-54.4199
lg,1625400541757715330,0,0.4739,-0.5288,0.6819,103,33.0811,11.4136,7.8735,140,1.3286,0.9365,-33.7514,-30.0775,24,0.039,9548,3.916,-54.2167
lg,1625400541757733497,0,0.3853,-0.5239,0.6973,104,15.1978,3.6011,9.0942,140,1.3296,0.9415,-33.055,-29.9202,24,0.04,7840,3.916,-53.7636
lg,1625400541757751719,0,0.5,-0.5024,0.769,105,6.6528,-8.606,8.3008,140,1.3296,0.9505,-33.3372,-30.5336,24,0.04,7976,3.916,-53.1038
lg,1625400541757769312,0,0.6201,-0.4714,0.7087,106,-8.3008,-9.3384,1.3428,140,1.3286,0.9665,-33.7291,-31.1322,24,0.041,9065,3.916,-52.7562
lg,1625400541757787015,0,0.5183,-0.3074,0.6089,107,-30.9448,8.2397,2.7466,140,1.3276,0.9875,-33.5261,-32.1395,24,0.041,8586,3.916,-52.9489
lg,1625400541757806886,0,0.2759,-0.5542,0.7805,108,-59.4482,11.1694,-0.8545,140,1.3276,1.0115,-32.4874,-34.4593,24,0.038,7973,3.916,-53.2161
lg,1625400541757825645,0,0.1702,-0.6172,0.8396,109,-60.791,3.418,-4.2114,140,1.3256,1.0265,-31.665,-37.1592,24,0.037,8121,3.916,-53.0896
lg,1625400541757843089,0,0.0298,-0.7156,0.8889,110,-62.439,-21.9727,-0.061,140,1.3236,1.0285,-31.2026,-40.0337,24,0.035,8120,3.916,-52.4429
lg,1625400541757860812,0,-0.0408,-0.6763,0.7344,111,10.0098,-61.5845,-53.5278,140,1.3236,1.0335,-33.194,-39.7088,23,0.033,8228,3.916,-52.4442
lg,1625400541757878071,0,0.209,-0.5178,0.739,112,9.2163,-92.2241,-39.2456,140,1.3246,1.0345,-36.2253,-39.9109,23,0.032,8208,3.916,-51.1526
lg,1625400541757895182,0,0.8259,-0.4124,0.6204,113,0.3662,-84.9609,-4.4556,140,1.3246,1.0365,-39.3594,-41.2903,23,0.029,10272,3.916,-48.6382
lg,1625400541757912849,0,0.9285,-0.6309,0.7744,114,-3.0518,-6.2256,6.7139,140,1.3246,1.0385,-39.4985,-41.6212,23,0.03,11524,3.916,-48.2222
lg,1625400541757929941,0,0.5247,-0.6182,0.7319,115,10.437,48.0957,5.6763,140,1.3246,1.0395,-37.4743,-40.2643,23,0.03,8433,3.916,-49.6646
lg,1625400541757947163,0,0.4478,-0.616,0.7319,116,10.7422,49.8657,7.8735,140,1.3246,1.0405,-35.2199,-39.0557,23,0.03,8330,3.916,-50.9595
lg,1625400541757963904,0,0.5435,-0.6641,0.7896,117,12.8174,39.1235,8.1787,140,1.3236,1.0415,-33.4994,-38.0847,23,0.03,8331,3.916,-51.8156
lg,1625400541757982737,0,0.5261,-0.6646,0.7864,118,22.583,50.7812,10.6812,140,1.3246,1.0425,-31.3762,-36.6945,24,0.029,8327,3.916,-52.8343
lg,1625400541758000626,0,0.3926,-0.6389,0.7961,119,32.1045,55.9082,7.3853,140,1.3256,1.0435,-28.9874,-34.8738,24,0.032,8753,3.916,-54.0272
lg,1625400541758018052,0,0.2292,-0.7002,0.7266,120,49.2554,46.6919,-7.6294,140,1.3246,1.0435,-26.9904,-32.6154,24,0.029,9423,3.916,-55.2902
lg,1625400541758037163,0,0.1411,-0.7026,0.7278,121,56.2744,32.4097,-18.8599,140,1.3256,1.0415,-25.5609,-30.2135,24,0.033,8404,3.916,-56.5235
lg,1625400541758053663,0,0.2605,-0.627,0.7124,122,62.2559,2.7466,-14.8926,140,1.3266,1.0335,-25.3678,-27.9215,24,0.034,8357,3.916,-56.95
lg,1625400541758087460,0,0.3621,-0.5693,0.6873,123,55.2368,-12.207,-4.0894,140,1.3286,1.0235,-25.7596,-26.2224,24,0.034,8430,3.916,-56.6608
lg,1625400541758118682,0,0.6113,-0.6025,0.7139,124,48.2178,-18.7378,4.1504,140,1.3286,1.0115,-26.7091,-25.3245,24,0.037,8447,3.916,-55.6734
lg,1625400541758137349,0,0.6646,-0.6079,0.7341,125,41.0767,-17.5171,7.0801,140,1.3276,1.0055,-27.5649,-24.4788,23,0.036,8460,3.916,-54.8236
lg,1625400541758155571,0,0.6301,-0.4463,0.6614,126,36.8652,7.5073,3.1128,140,1.3306,0.9995,-27.6688,-23.3289,23,0.041,8526,3.916,-54.6861
lg,1625400541758173700,0,0.5806,-0.4517,0.7173,127,0.2441,20.0806,8.728,140,1.3296,1.0005,-27.0653,-23.6381,23,0.042,8309,3.916,-54.5377
lg,1625400541758282700,0,0.594,-0.4185,0.6775,128,-13.5498,18.0054,6.6528,140,1.3306,1.0115,-26.6999,-24.8337,23,0.043,8504,3.916,-54.5311
lg,1625400542105726737,0,0.1121,-0.3635,0.7251,129,-57.9224,31.189,-1.6479,140,1.3286,1.0435,-24.8746,-26.9153,24,0.037,25179,3.916,-55.1858
lg,1625400542105788811,0,-0.1799,-0.5452,0.813,130,-67.3828,-7.4463,-4.2114,140,1.3276,1.0475,-23.9062,-29.8721,24,0.035,9691,3.916,-55.1053
lg,1625400542105810645,0,0.053,-0.6399,0.8591,131,-66.4673,-75.3174,9.0942,140,1.3246,1.0475,-25.4437,-33.6688,24,0.033,8108,3.916,-52.9248
lg,1625400542105830756,0,0.2905,-0.7021,0.7993,132,-24.5972,-104.0039,-15.4419,140,1.3256,1.0495,-28.7903,-35.9201,24,0.031,10872,3.916,-50.6884
lg,1625400542105850330,0,0.5378,-0.6575,0.7981,133,-16.5405,-100.9521,-4.6387,140,1.3216,1.0465,-32.0478,-38.055,24,0.031,8031,3.916,-47.9679
lg,1625400542105870960,0,0.8416,-0.5762,0.6931,134,-12.9395,-58.5938,15.1367,140,1.3256,1.0505,-33.9011,-39.8862,24,0.032,10744,3.916,-45.6098
lg,1625400542105889830,0,0.7947,-0.6301,0.7039,135,-10.6812,2.5635,19.6533,140,1.3256,1.0515,-33.5511,-40.7293,24,0.029,10255,3.916,-44.9345
lg,1625400542105908478,0,0.6045,-0.748,0.7839,136,-1.2817,42.6025,22.0947,140,1.3246,1.0515,-31.5123,-40.6076,24,0.028,8111,3.916,-45.4022
lg,1625400542105927311,0,0.5344,-0.8013,0.7856,137,7.4463,52.5513,19.5312,140,1.3256,1.0525,-29.0926,-39.465,24,0.03,8291,3.916,-46.4348
lg,1625400542105944811,0,0.4307,-0.7651,0.7952,138,31.0669,60.3027,12.7563,140,1.3266,1.0545,-26.5929,-37.8166,23,0.033,8225,3.916,-47.6033
lg,1625400542105962034,0,0.2288,-0.7708,0.7759,139,59.7534,61.2793,-0.061,140,1.3266,1.0555,-24.0594,-35.0396,23,0.035,8027,3.916,-49.0739
lg,1625400542105980571,0,0.1404,-0.7175,0.7068,140,81.0547,41.9312,-13.9771,140,1.3276,1.0525,-22.358,-31.652,23,0.035,9546,3.916,-50.3891
lg,1625400542105998163,0,0.1365,-0.6523,0.6792,141,84.5947,28.6255,-12.6953,140,1.3296,1.0395,-21.25,-28.3284,23,0.037,8098,3.916,-51.2959
lg,1625400542106015904,0,0.3135,-0.5281,0.627,142,79.2847,1.4038,0.5493,140,1.3296,1.0235,-21.487,-25.5836,24,0.038,9823,3.916,-51.1565
lg,1625400542106033904,0,0.5571,-0.5,0.6541,143,61.7065,-12.146,13.6108,140,1.3286,1.0135,-22.204,-23.8076,24,0.038,8064,3.916,-50.2628
lg,1625400542106052719,0,0.6746,-0.489,0.6711,144,48.1567,3.9062,10.3149,140,1.3306,1.0055,-22.5691,-22.4145,24,0.041,8154,3.916,-49.7765
lg,1625400542106070367,0,0.5903,-0.4858,0.6665,145,43.7622,16.6626,6.1646,140,1.3306,0.9985,-21.8677,-21.3172,24,0.04,8294,3.916,-49.8073
lg,1625400542106088015,0,0.3967,-0.46,0.666,146,34.4238,28.7476,2.6855,140,1.3296,0.9885,-20.9433,-20.3218,23,0.042,8238,3.916,-49.9546
lg,1625400542106105293,0,0.2473,-0.4688,0.7012,147,22.8882,22.7661,4.3945,140,1.3327,0.9885,-19.866,-19.889,23,0.041,8219,3.916,-49.92
lg,1625400542106122108,0,0.3105,-0.4441,0.7888,148,14.2212,9.7046,4.6997,140,1.3306,0.9915,-19.9796,-20.105,23,0.04,8189,3.916,-49.4399
lg,1625400542106140534,0,0.5327,-0.3843,0.7725,149,-2.8687,-17.5781,7.6904,140,1.3317,1.0005,-21.042,-21.0277,24,0.041,8754,3.916,-48.8009
lg,1625400542106162163,0,0.4939,-0.3125,0.7256,150,-22.7661,-15.1978,1.8311,140,1.3306,1.0095,-22.0042,-22.1282,24,0.042,8412,3.916,-48.4548
lg,1625400542106184034,0,0.4292,-0.2739,0.6616,151,-59.6924,-14.6484,0.6104,140,1.3306,1.0215,-22.8756,-24.6231,24,0.044,8294,3.916,-48.1675
lg,1625400542106203145,0,0.3186,-0.3528,0.7952,152,-91.3696,-23.5596,-3.6621,140,1.3296,1.0345,-23.6652,-28.3521,24,0.039,8304,3.916,-47.8689
lg,1625400542106221256,0,0.2458,-0.5322,0.896,153,-102.2949,-31.6772,-6.3477,140,1.3296,1.0465,-24.3373,-32.8136,23,0.037,8379,3.916,-47.3397
lg,1625400542106239885,0,0.1589,-0.8047,1.0134,154,-97.1069,-41.1377,-8.4229,140,1.3256,1.0505,-25.1905,-37.2156,23,0.035,8397,3.916,-46.5304
lg,1625400542106257460,0,-0.0696,-0.907,1.1213,155,-26.3062,-42.7856,-46.5698,140,1.3256,1.0495,-26.6057,-38.1203,23,0.034,8444,3.916,-46.9795
lg,1625400542106275626,0,-0.2935,-0.6147,0.6865,156,1.8921,-64.6362,-43.457,140,1.3266,1.0475,-28.1146,-38.3151,23,0.035,8530,3.916,-46.6404
lg,1625400542106293793,0,0.0894,-0.511,0.6804,157,-2.9907,-104.8584,-22.0337,140,1.3256,1.0495,-31.0513,-39.4625,24,0.032,8447,3.916,-44.4328
lg,1625400542106313700,0,1.1038,-0.4934,0.6626,158,-18.6768,-91.0645,36.438,140,1.3246,1.0515,-33.6808,-42.3453,24,0.033,8558,3.916,-40.3178
lg,1625400542106332108,0,1.1509,-0.8584,0.8142,159,-4.8828,15.1367,21.4233,140,1.3266,1.0535,-33.0673,-42.8169,24,0.031,8611,3.916,-39.9818
lg,1625400542106351848,0,0.5273,-0.7629,0.7708,160,21.1182,88.3789,10.5591,140,1.3266,1.0525,-29.8817,-40.7925,24,0.03,8603,3.916,-42.3434
lg,1625413941194425462,0,0.0779,-0.5857,0.6069,161,33.8745,47.0581,2.1973,140,1.3266,1.0585,-27.4432,-38.9591,24,0.033,25406,3.916,-43.5614
lg,1625413941194468517,0,0.1384,-0.6387,0.6794,162,36.1938,7.8125,-0.6104,140,1.3246,1.0575,-26.4734,-37.5895,24,0.036,8928,3.916,-43.7072
lg,1625413941194489462,0,0.3208,-0.7422,0.7424,163,56.5796,-40.5884,-18.7378,140,1.3276,1.0445,-27.844,-35.8306,24,0.036,11813,3.916,-43.1431
lg,1625413941194508739,0,0.5239,-0.6309,0.7319,164,60.2417,-44.6167,-13.4888,140,1.3296,1.0225,-29.4,-33.8831,24,0.037,8392,3.916,-42.3433
lg,1625413941194528387,0,0.5764,-0.6201,0.709,165,61.0962,-32.7759,-5.4321,140,1.3296,1.0075,-30.695,-32.0286,24,0.038,8005,3.916,-41.5922
lg,1625413941194547202,0,0.6792,-0.6013,0.7466,166,52.7954,-14.8926,3.9062,140,1.3296,0.9965,-31.3032,-30.4361,24,0.04,8256,3.916,-40.9502
lg,1625413941194565591,0,0.6169,-0.4592,0.6077,167,44.0674,9.9487,1.8311,140,1.3306,0.9825,-31.2259,-28.8257,24,0.04,9495,3.916,-40.9918
lg,1625413941194584591,0,0.4338,-0.4089,0.6562,168,21.3623,18.8599,5.127,140,1.3306,0.9785,-30.3859,-27.9843,24,0.04,7881,3.916,-41.1399
lg,1625413941194605536,0,0.4268,-0.4583,0.7119,169,9.8267,10.0098,4.6387,140,1.3317,0.9815,-29.7375,-27.788,24,0.044,8325,3.916,-41.0605
lg,1625413941194623906,0,0.3931,-0.4492,0.6892,170,-4.2114,-3.2349,-2.7466,140,1.3286,0.9885,-29.7327,-28.1451,23,0.045,8135,3.916,-40.9972
lg,1625413941194642536,0,0.3232,-0.3018,0.6536,171,-23.3154,-7.9346,-4.3335,140,1.3296,0.9975,-29.8683,-28.925,23,0.042,7731,3.916,-41.073
lg,1625413941194661591,0,0.2974,-0.3032,0.6572,172,-38.208,-14.3433,-4.0894,140,1.3286,1.0095,-30.1443,-30.3435,23,0.045,7970,3.916,-41.0047
lg,1625413941194679313,0,0.1997,-0.3953,0.7512,173,-66.4673,-31.6162,2.6855,140,1.3286,1.0255,-30.4923,-33.3021,24,0.042,8061,3.916,-40.2056
lg,1625413941194696962,0,0.21,-0.5874,0.8906,174,-77.9419,-52.1851,10.437,140,1.3286,1.0415,-31.1853,-37.313,24,0.039,8037,3.916,-38.4311
lg,1625413941194718258,0,0.2339,-0.6489,0.9082,175,-76.2939,-58.4717,14.2212,140,1.3286,1.0475,-31.8875,-41.6609,24,0.038,8084,3.916,-36.1237
lg,1625413941194736850,0,0.1951,-0.7891,0.9695,176,-29.1138,-70.6787,-21.4844,140,1.3266,1.0535,-33.6438,-43.5099,24,0.037,8109,3.916,-34.675
lg,1625413941194754628,0,0.1355,-0.6519,0.7839,177,-11.2915,-80.2002,-22.0947,140,1.3276,1.0555,-35.5414,-44.868,24,0.036,8121,3.916,-32.8358
lg,1625413941194771776,0,0.3245,-0.5696,0.7202,178,-11.2305,-92.8955,-10.7422,140,1.3276,1.0555,-37.6817,-47.1999,24,0.035,8135,3.916,-29.4933
lg,1625413941194789165,0,0.7971,-0.5398,0.6963,179,-17.334,-76.7822,18.0664,140,1.3256,1.0545,-39.3451,-49.7444,24,0.035,8174,3.916,-26.1506
lg,1625413941194806536,0,0.8662,-0.6953,0.7324,180,-13.4277,-18.6157,18.5547,140,1.3276,1.0565,-39.2957,-50.8829,24,0.034,8176,3.916,-24.9587
lg,1625413941194823813,0,0.5803,-0.7114,0.7551,181,-2.6245,29.2358,15.8081,140,1.3276,1.0585,-37.6781,-50.2393,24,0.033,11252,3.916,-25.8262
lg,1625413941194841980,0,0.4983,-0.7683,0.7568,182,8.667,34.4238,13.0005,140,1.3276,1.0595,-35.8899,-49.1318,24,0.032,9194,3.916,-26.8591
lg,1625413941194859647,0,0.467,-0.7275,0.7566,183,22.8271,42.7246,14.4653,140,1.3266,1.0615,-33.8587,-47.359,24,0.033,8245,3.916,-28.0866
lg,1625413941194877758,0,0.4641,-0.6802,0.7153,184,30.1514,45.6543,13.3667,92,1.3286,1.0605,-31.7021,-45.3731,24,0.034,8328,3.9545,-29.3132
lg,1625413941194895462,0,0.2754,-0.7158,0.7234,185,47.6074,46.0815,3.2349,92,1.3286,1.0555,-29.6435,-42.7348,24,0.038,8305,3.9545,-30.7047
lg,1625413941194913406,0,0.1121,-0.7117,0.6951,186,64.6973,19.6533,-14.3433,92,1.3296,1.0355,-28.5378,-39.7603,24,0.037,10260,3.9545,-31.7041
lg,1625413941194976869,0,0.2668,-0.6328,0.6548,187,64.6362,-13.7939,-5.6152,92,1.3306,1.0155,-28.6243,-37.454,24,0.039,8851,3.9545,-31.4146
lg,1625413941194996443,0,0.4678,-0.6008,0.6604,188,56.0303,-29.7852,4.1504,92,1.3306,1.0045,-29.4337,-35.873,24,0.042,8848,3.9545,-30.3562
lg,1625413941195014128,0,0.7415,-0.4341,0.613,189,52.3071,-32.7759,7.6294,92,1.3306,0.9975,-30.8477,-34.5403,24,0.042,8362,3.9545,-29.3025
lg,1625413941195032462,0,0.8408,-0.3147,0.5352,190,31.5552,-17.0288,6.4697,92,1.3306,0.9945,-32.1336,-33.5207,24,0.045,8236,3.9545,-28.6756
lg,1625413941195049684,0,0.6472,-0.4478,0.658,191,-2.9297,9.7046,0.4272,92,1.3327,0.9995,-32.07,-33.5278,24,0.044,8465,3.9545,-28.9047
lg,1625413941195066980,0,0.5002,-0.4363,0.6772,192,-25.5737,14.5874,-11.6577,92,1.3317,1.0125,-31.8299,-34.0632,24,0.042,8296,3.9545,-29.7667
lg,1625413941537515906,0,-0.1079,-0.4517,0.7605,193,-45.2271,-1.4648,-9.4604,92,1.3296,1.0505,-30.6701,-35.5242,24,0.035,25307,3.9545,-30.197
lg,1625413941537554128,0,0.4824,-0.9036,1.0728,194,-61.2793,-72.2046,0.1831,92,1.3286,1.0545,-33.0092,-39.4244,24,0.035,10817,3.9545,-27.4525
lg,1625413941537574369,0,0.333,-0.8123,0.9453,195,-14.2212,-89.9658,-35.5835,92,1.3276,1.0545,-35.9462,-40.88,24,0.034,8171,3.9545,-25.9282
lg,1625413941537593461,0,0.2917,-0.6287,0.7568,196,2.3804,-70.4346,-32.0435,92,1.3236,1.0525,-38.1313,-41.3867,24,0.036,8003,3.9545,-24.847
lg,1625413941537611961,0,0.668,-0.4641,0.6104,197,1.77,-59.6924,-12.7563,92,1.3276,1.0555,-40.3462,-42.134,24,0.036,11290,3.9545,-23.3808
lg,1625413941537629943,0,0.5894,-0.6238,0.6982,198,-1.4038,-13.4277,-1.8921,92,1.3276,1.0555,-40.4594,-42.4206,24,0.034,8089,3.9545,-22.9971
lg,1625413941537648295,0,0.3606,-0.6104,0.689,199,2.2583,8.0566,10.2539,92,1.3276,1.0585,-39.199,-42.3473,24,0.035,10877,3.9545,-22.9223
lg,1625413941537666721,0,0.5347,-0.7039,0.7671,200,3.7231,-2.2583,19.2871,92,1.3276,1.0595,-38.2637,-42.6995,24,0.035,8053,3.9545,-22.1195
lg,1625413941537684758,0,0.635,-0.6907,0.751,201,8.4229,-0.7324,19.4092,92,1.3276,1.0615,-37.5299,-42.7848,23,0.035,8129,3.9545,-21.3965
lg,1625413941537702202,0,0.6838,-0.7185,0.7893,202,19.104,15.2588,14.6484,92,1.3276,1.0625,-36.4865,-42.0072,23,0.035,8086,3.9545,-21.3912
lg,1625413941537722665,0,0.4878,-0.7087,0.8228,203,38.0859,44.1284,9.4604,92,1.3286,1.0635,-34.1752,-39.9163,23,0.036,11578,3.9545,-22.4264
lg,1625413941537742091,0,0.1992,-0.7605,0.7358,204,62.0728,43.335,-5.127,92,1.3296,1.0605,-32.0516,-36.9179,24,0.038,8190,3.9545,-23.7271
lg,1625413941537759609,0,0.2493,-0.6594,0.7231,205,75.2563,10.6201,-14.7705,92,1.3306,1.0485,-31.358,-33.7151,24,0.039,8211,3.9545,-24.4336
lg,1625413941537777665,0,0.3708,-0.5496,0.6384,206,76.1719,6.5308,-6.0425,92,1.3306,1.0345,-30.9472,-31.0663,24,0.037,8205,3.9545,-24.3566
lg,1625413941537795313,0,0.4326,-0.5547,0.6316,207,66.2231,-2.3804,4.3335,92,1.3306,1.0205,-30.8074,-28.9553,24,0.038,8303,3.9545,-23.9108
lg,1625413941537814350,0,0.624,-0.5085,0.6667,208,56.0303,-9.3384,10.1318,92,1.3306,1.0075,-31.1784,-27.3421,23,0.039,9200,3.9545,-23.1358
lg,1625413941537831554,0,0.575,-0.4619,0.627,209,44.7998,5.0659,2.8687,92,1.3317,0.9995,-31.1597,-25.8891,23,0.039,8260,3.9545,-22.9549
lg,1625413941537850295,0,0.5747,-0.2727,0.5571,210,13.0615,3.7842,3.6621,92,1.3327,0.9985,-31.4101,-25.4067,23,0.04,8105,3.9545,-22.8806
lg,1625413941537870239,0,0.573,-0.397,0.7031,211,-7.9346,0.4883,0.4883,92,1.3327,1.0065,-31.5724,-25.9095,23,0.04,8295,3.9545,-22.7742
lg,1625413941537889572,0,0.533,-0.3562,0.6758,212,-31.9214,-1.0986,-8.4839,92,1.3317,1.0185,-31.8862,-27.0708,24,0.045,8192,3.9545,-23.073
lg,1625413941537910313,0,0.2766,-0.3542,0.7148,213,-53.894,10.9863,-9.0332,92,1.3327,1.0325,-31.1615,-28.8522,24,0.042,8343,3.9545,-23.72
lg,1625413941537927480,0,-0.0256,-0.4324,0.8196,214,-62.1948,8.5449,-9.2773,92,1.3306,1.0475,-30.2732,-31.423,24,0.042,8353,3.9545,-23.9732
lg,1625413941537946443,0,-0.0996,-0.543,0.8953,215,-75.3174,-32.1655,-5.6152,92,1.3296,1.0565,-30.1385,-34.6861,24,0.036,8388,3.9545,-23.4263
lg,1625413941537967221,0,0.325,-0.8352,1.0945,216,-73.3643,-85.6323,5.6763,92,1.3276,1.0585,-32.0592,-39.0563,24,0.036,8418,3.9545,-20.7783
lg,1625413941537986239,0,0.2791,-0.6375,0.624,217,-0.061,-95.0317,-42.4805,92,1.3296,1.0595,-35.4718,-40.0867,24,0.037,8544,3.9545,-19.2791
lg,1625413941538004147,0,0.5603,-0.6094,0.6978,218,-6.1646,-95.5811,-34.3628,92,1.3296,1.0585,-39.0177,-41.5385,24,0.034,8412,3.9545,-16.8669
lg,1625413941538025109,0,0.8521,-0.541,0.6267,219,-1.4038,-85.6934,-9.0332,92,1.3276,1.0595,-42.0279,-43.3109,23,0.034,8564,3.9545,-14.1794
lg,1625413941538042998,0,0.8264,-0.7068,0.6799,220,2.5024,-8.9722,-5.4321,92,1.3276,1.0615,-42.3505,-43.392,23,0.033,8548,3.9545,-13.9904
lg,1625413941538062276,0,0.3459,-0.6138,0.6272,221,11.1694,47.1191,3.479,92,1.3296,1.0595,-40.0677,-41.9589,23,0.032,8587,3.9545,-15.5242
lg,1625413941538078684,0,0.4478,-0.6409,0.6882,222,9.5215,23.8037,15.0757,92,1.3286,1.0635,-38.3815,-41.4647,23,0.033,9867,3.9545,-15.7402
lg,1625413941538096795,0,0.6646,-0.7236,0.7231,223,15.686,20.2637,15.3198,92,1.3306,1.0625,-37.1545,-40.9204,23,0.034,10184,3.9545,-15.7489
lg,1625413941538115350,0,0.4929,-0.6599,0.7,224,27.5879,44.6167,11.9629,92,1.3296,1.0655,-35.0903,-39.3432,23,0.035,8675,3.9545,-16.6636
lg,1625413941893249017,0,0.3064,-0.7061,0.7117,225,45.2271,26.3062,1.4038,92,1.3306,1.0665,-33.5312,-37.3701,24,0.038,25656,3.9545,-17.2508
lg,1625413941893291609,0,0.3413,-0.6689,0.7336,226,60.8521,5.9814,-10.5591,92,1.3266,1.0565,-33.0162,-34.8486,24,0.04,9711,3.9545,-17.6936
lg,1625413941893326331,0,0.3792,-0.5566,0.6724,227,64.5752,2.8687,-1.77,92,1.3317,1.0475,-32.5824,-32.3968,24,0.041,8191,3.9545,-17.7218
lg,1625413941893346535,0,0.5073,-0.5159,0.6743,228,53.772,-6.897,10.6812,92,1.3327,1.0345,-32.666,-30.7093,23,0.04,11998,3.9545,-17.0477
lg,1625413941893365776,0,0.5801,-0.5327,0.7131,229,44.5557,-5.7983,10.376,92,1.3327,1.0285,-32.4622,-29.4317,23,0.041,10667,3.9545,-16.6759
lg,1625413941893383702,0,0.5439,-0.4299,0.6516,230,34.1187,7.8125,9.0942,92,1.3327,1.0255,-32.0234,-28.8448,23,0.042,9496,3.9545,-16.4057
lg,1625413941893401276,0,0.519,-0.4133,0.7209,231,3.1128,10.9863,12.207,92,1.3327,1.0285,-31.3956,-28.8841,23,0.044,7861,3.9545,-16.1374
lg,1625413941893419794,0,0.5364,-0.3267,0.7026,232,-22.3999,2.4414,4.8828,92,1.3327,1.0365,-31.3406,-29.6929,24,0.042,7921,3.9545,-16.077
lg,1625413941893437183,0,0.4026,-0.3311,0.6697,233,-37.0483,4.5166,1.5869,92,1.3317,1.0465,-31.0367,-31.4282,24,0.043,7920,3.9545,-16.1983
lg,1625413941893453869,0,0.3367,-0.281,0.6565,234,-59.1431,2.9297,3.6011,92,1.3296,1.0575,-30.3493,-34.0089,24,0.042,9064,3.9545,-16.258
lg,1625413941893483480,0,0.1143,-0.4209,0.8503,235,-87.1582,-10.2539,4.8218,92,1.3286,1.0635,-29.6738,-37.3401,24,0.037,7985,3.9545,-16.0111
lg,1625413941893501146,0,0.1428,-0.8679,1.1052,236,-86.3037,-44.0063,7.2021,92,1.3286,1.0625,-29.917,-41.5565,24,0.038,7970,3.9545,-14.4865
lg,1625413941893518313,0,-0.012,-1.0251,1.3164,237,-45.0439,-67.3218,-28.8086,92,1.3286,1.0615,-31.833,-44.088,24,0.031,8076,3.9545,-13.2707
lg,1625413941893537480,0,0.1812,-0.9048,0.9453,238,-11.9019,-103.5767,-41.3818,92,1.3266,1.0585,-34.9847,-45.6836,24,0.027,8353,3.9545,-11.186
lg,1625413941893554294,0,0.8271,-0.5659,0.6194,239,-0.7935,-105.7129,-14.8926,92,1.3266,1.0605,-38.6669,-47.5914,24,0.031,9147,3.9545,-7.9065
lg,1625413941893571887,0,0.9331,-0.6038,0.6533,240,1.77,-16.4795,-7.1411,92,1.3286,1.0605,-39.6158,-47.5753,24,0.034,9833,3.9545,-7.6411
lg,1625413941893590109,0,0.4402,-0.5654,0.6235,241,5.7983,55.603,4.8218,92,1.3296,1.0615,-37.4884,-45.9053,24,0.036,8090,3.9545,-9.7087
lg,1625413941893608591,0,0.3677,-0.5537,0.6289,242,4.5166,59.3872,11.3525,92,1.3286,1.0605,-34.8699,-44.5285,24,0.036,8140,3.9545,-11.5241
lg,1625413941893627294,0,0.4932,-0.7295,0.7397,243,4.8828,35.7056,16.7847,92,1.3266,1.0645,-33.0057,-43.9775,23,0.035,8208,3.9545,-12.1547
lg,1625413941893645202,0,0.5432,-0.6685,0.6968,244,17.0898,40.1001,14.6484,92,1.3286,1.0655,-31.295,-42.8513,23,0.035,8179,3.9545,-12.9687
lg,1625413941893664794,0,0.3721,-0.6614,0.7517,245,21.2402,43.396,11.6577,92,1.3286,1.0645,-29.4921,-41.2907,23,0.037,8213,3.9545,-13.9571
lg,1625413941893683480,0,0.3247,-0.7153,0.7917,246,31.0669,31.311,3.9062,92,1.3276,1.0675,-27.9443,-39.6981,23,0.037,8173,3.9545,-14.7322
lg,1625413941893701091,0,0.2756,-0.8015,0.783,247,51.0254,11.2915,-11.4746,92,1.3306,1.0675,-27.3274,-37.5814,24,0.04,8407,3.9545,-15.326
lg,1625413941893719554,0,0.3743,-0.6912,0.7124,248,70.8008,-8.3618,-20.2026,92,1.3317,1.0605,-27.8108,-34.7875,24,0.039,9286,3.9545,-15.7079
lg,1625413941893736609,0,0.4548,-0.5706,0.6597,249,72.5708,-4.0894,-7.9346,92,1.3317,1.0475,-28.1108,-32.0327,24,0.036,9299,3.9545,-15.7962
lg,1625413941893753035,0,0.5715,-0.4963,0.6541,250,59.9365,-6.7749,5.188,92,1.3317,1.0385,-28.4979,-29.9931,24,0.038,8288,3.9545,-15.3546
lg,1625413941893770072,0,0.8193,-0.2715,0.5586,251,28.6255,1.8921,14.0381,92,1.3327,1.0345,-29.085,-28.9766,24,0.04,8378,3.9545,-14.9077
lg,1625413941893787128,0,0.8557,-0.3208,0.6785,252,10.1318,15.0757,14.0991,92,1.3327,1.0355,-28.7753,-28.78,24,0.042,8449,3.9545,-14.6322
lg,1625413941893803498,0,0.6252,-0.4287,0.6501,253,-6.2866,39.1846,-1.77,92,1.3327,1.0415,-27.8306,-28.7442,24,0.041,8895,3.9545,-15.4889
lg,1625413941893819628,0,0.2173,-0.4307,0.7388,254,-24.7803,47.7905,-12.207,92,1.3317,1.0485,-25.8635,-29.1026,24,0.043,8962,3.9545,-16.9828
lg,1625413941893837017,0,0.0068,-0.3398,0.6833,255,-42.7246,16.8457,-12.0239,92,1.3317,1.0575,-24.5454,-30.323,24,0.044,8442,3.9545,-17.8797
lg,1625413941893854276,0,-0.0991,-0.3181,0.7463,256,-55.3589,-3.9062,-7.3853,92,1.3306,1.0655,-24.5194,-33.3768,24,0.04,8443,3.9545,-17.1375
lg,1625413942259266035,0,0.4963,-0.7766,0.9326,257,-19.4702,-87.3413,-32.3486,92,1.3276,1.0665,-28.0272,-34.8432,23,0.033,25865,3.9545,-16.0341
lg,1625413942259308591,0,0.2693,-0.6689,0.812,258,2.1362,-62.9272,-31.4331,92,1.3256,1.0655,-30.2567,-35.1828,23,0.034,9134,3.9545,-15.4612
lg,1625413942259329868,0,0.7188,-0.4639,0.625,259,0.1221,-55.2979,-7.9346,92,1.3296,1.0675,-32.7117,-35.8469,24,0.041,10792,3.9545,-14.2289
lg,1625413942259350202,0,0.6289,-0.6172,0.6482,260,1.5259,4.6387,0.2441,92,1.3296,1.0675,-32.2686,-35.9612,24,0.038,10319,3.9545,-14.2185
lg,1625413942259369313,0,0.3516,-0.6587,0.7239,261,6.1035,29.6021,8.9111,92,1.3296,1.0685,-30.6143,-35.7373,24,0.037,7967,3.9545,-14.551
lg,1625413942259388035,0,0.5266,-0.6863,0.7144,262,12.3901,20.813,14.7095,92,1.3296,1.0695,-29.4984,-35.5563,24,0.037,7985,3.9545,-14.3987
lg,1625413942259407868,0,0.5728,-0.6511,0.6709,263,15.564,23.8037,15.2588,92,1.3296,1.0705,-28.4898,-35.164,24,0.037,7989,3.9545,-14.3349
lg,1625413942259426313,0,0.5471,-0.6326,0.7207,264,23.9868,38.208,14.1602,92,1.3296,1.0715,-26.9655,-34.222,24,0.039,7999,3.9545,-14.6868
lg,1625413942259469572,0,0.3008,-0.6873,0.7507,265,39.7339,43.5181,6.1035,92,1.3296,1.0725,-24.9784,-32.6109,24,0.038,8681,3.9545,-15.3688
lg,1625413942259490757,0,0.1379,-0.7627,0.7249,266,59.8755,18.9819,-8.5449,92,1.3296,1.0735,-23.8567,-30.4999,24,0.039,8529,3.9545,-15.8633
lg,1625413942259509665,0,0.1821,-0.7234,0.7107,267,68.6035,1.4648,-13.3057,92,1.3296,1.0695,-23.5599,-28.1769,24,0.042,7975,3.9545,-16.1345
lg,1625413942259527998,0,0.3508,-0.5518,0.6641,268,75.8667,-22.7051,-5.249,92,1.3317,1.0595,-24.4175,-25.7062,24,0.042,7951,3.9545,-15.7032
lg,1625413942259546739,0,0.5725,-0.5146,0.644,269,70.1904,-26.5503,3.3569,92,1.3327,1.0385,-25.612,-24.0978,24,0.039,8119,3.9545,-14.5248
lg,1625413942259564609,0,0.7261,-0.5398,0.6997,270,51.5747,-15.9302,15.8081,92,1.3327,1.0225,-26.4983,-22.8981,24,0.04,8477,3.9545,-13.4057
lg,1625413942259585535,0,0.5898,-0.4885,0.6902,271,48.4619,-0.5493,13.0615,92,1.3337,1.0095,-26.1223,-21.6782,24,0.039,8099,3.9545,-12.9733
lg,1625413942259603628,0,0.4839,-0.4114,0.6558,272,35.8887,22.1558,13.4888,92,1.3337,0.9985,-25.3458,-20.7154,24,0.041,8080,3.9545,-12.6052
lg,1625413942259621572,0,0.4707,-0.324,0.6797,273,8.9722,12.2681,15.0757,92,1.3337,0.9935,-24.9351,-20.712,24,0.044,7984,3.9545,-12.101
lg,1625413942259639942,0,0.4692,-0.3167,0.6729,274,-6.5308,3.9673,14.8315,92,1.3337,0.9965,-25.0601,-21.8222,23,0.044,8126,3.9545,-11.5346
lg,1625413942259657961,0,0.4565,-0.3215,0.7122,275,-32.2876,-5.0049,9.3994,92,1.3327,1.0055,-25.3002,-23.3974,23,0.044,8575,3.9545,-11.0255
lg,1625413942259675665,0,0.3438,-0.406,0.802,276,-56.2744,-20.3857,0.061,92,1.3327,1.0225,-25.8459,-26.1903,23,0.044,10949,3.9545,-10.6473
lg,1625413942259706016,0,0.2068,-0.3716,0.7986,277,-68.6646,-20.813,-0.4272,92,1.3317,1.0365,-26.086,-29.0413,23,0.042,8416,3.9545,-10.2733
lg,1625413942259725276,0,-0.0579,-0.4541,0.7954,278,-80.3223,-37.6587,6.7139,92,1.3317,1.0505,-26.1045,-32.7397,24,0.042,8205,3.9545,-9.182
lg,1625413942259743591,0,0.2246,-0.6797,0.9463,279,-92.4072,-90.8813,22.8271,92,1.3306,1.0575,-27.9223,-37.9819,24,0.036,8350,3.9545,-5.9557
lg,1625413942259760850,0,0.5393,-1.0103,1.1382,280,-81.7261,-98.0835,19.2871,92,1.3286,1.0605,-30.0437,-43.1147,24,0.034,8319,3.9545,-2.3112
lg,1625413942259778276,0,0.5349,-0.8687,0.7468,281,-15.8691,-89.0503,-24.7803,92,1.3276,1.0625,-33.0698,-45.0812,24,0.037,8459,3.9545,-0.1037
lg,1625413942259795276,0,0.5388,-0.6497,0.6208,282,2.8076,-64.209,-22.1558,92,1.3296,1.0625,-35.3953,-45.8301,24,0.038,8405,3.9545,1.3887
lg,1625413942259822405,0,0.6553,-0.5527,0.6084,283,2.3193,-25.3296,-0.1221,92,1.3296,1.0645,-36.2163,-46.1117,24,0.039,8431,3.9545,2.1992
lg,1625413942259839942,0,0.6145,-0.627,0.6345,284,-0.061,-1.4038,6.0425,92,1.3276,1.0645,-36.0073,-46.1934,24,0.039,8411,3.9545,2.4133
lg,1625413942259856720,0,0.5034,-0.728,0.7134,285,6.6528,23.3154,14.2822,92,1.3276,1.0645,-34.563,-45.6955,24,0.039,8438,3.9545,2.0532
lg,1625413942259873683,0,0.5547,-0.6951,0.676,286,15.1978,26.001,15.564,92,1.3296,1.0685,-33.1978,-44.8786,24,0.04,8535,3.9545,1.6827
lg,1625413942259890757,0,0.5322,-0.6873,0.6814,287,22.8271,32.7759,12.3291,92,1.3296,1.0695,-31.7407,-43.6137,24,0.04,8524,3.9545,1.016
lg,1625413942259907924,0,0.4788,-0.6816,0.7109,288,28.5034,36.3159,10.7422,92,1.3306,1.0705,-29.9637,-42.0557,24,0.04,8590,3.9545,0.2232
lg,1625413942617316850,0,0.3315,-0.6475,0.6865,289,65.4297,-8.728,-7.5684,92,1.3317,1.0545,-30.0004,-39.4944,23,0.044,25682,3.9545,0.2564
lg,1625413942617380442,0,0.4746,-0.6135,0.7236,290,63.9648,-15.8081,1.4038,92,1.3327,1.0335,-30.3157,-37.221,23,0.042,9648,3.9545,0.7772
lg,1625413942617400868,0,0.6567,-0.6167,0.707,291,59.3262,-5.5542,12.8784,92,1.3327,1.0245,-30.3696,-35.3095,24,0.043,8137,3.9545,1.4761
lg,1625413942617421109,0,0.8125,-0.3918,0.644,292,43.2739,18.4937,18.6768,92,1.3337,1.0225,-29.9896,-33.5593,24,0.042,8159,3.9545,1.6216
lg,1625413942617439627,0,0.6567,-0.4741,0.7173,293,20.9961,39.6118,7.6904,92,1.3337,1.0345,-28.6877,-32.2931,24,0.044,11091,3.9545,0.8782
lg,1625413942617460201,0,0.5232,-0.426,0.6675,294,3.9062,45.8984,-1.2817,99,1.3337,1.0435,-27.3467,-31.5965,24,0.043,7805,3.9523,-0.2773
lg,1625413942617479127,0,0.3074,-0.3267,0.6299,295,-13.7329,55.8472,-7.6294,99,1.3337,1.0545,-25.4504,-31.2575,24,0.044,8013,3.9523,-1.9553
lg,1625413942617497368,0,0.1643,-0.3528,0.6968,296,-25.6958,50.9644,-7.9346,99,1.3327,1.0625,-23.3497,-31.481,24,0.045,7971,3.9523,-3.5074
lg,1625413942617515035,0,0.1226,-0.4675,0.7854,297,-46.5088,12.3291,-5.7983,99,1.3327,1.0655,-22.439,-33.0986,24,0.042,7911,3.9523,-4.0314
lg,1625413942617536813,0,0.2224,-0.5984,0.9255,298,-51.5747,-8.8501,-2.4414,99,1.3306,1.0645,-22.3459,-35.1824,23,0.045,8484,3.9523,-3.918
lg,1625413942617554701,0,0.1406,-0.5911,0.7646,299,-39.3677,-12.3901,-13.3057,99,1.3306,1.0625,-23.2857,-35.2719,23,0.043,7956,3.9523,-4.6381
lg,1625413942617574813,0,0.0476,-0.6299,0.6526,300,-3.1738,-22.644,-34.729,99,1.3296,1.0625,-24.0415,-35.4975,23,0.043,7995,3.9523,-5.153
lg,1625413942617593998,0,0.1672,-0.3875,0.5667,301,-3.479,-47.1191,-25.3906,99,1.3317,1.0625,-25.7426,-35.7041,23,0.043,7990,3.9523,-4.8726
lg,1625413942617611664,0,0.2593,-0.4307,0.657,302,-12.207,-50.8423,-14.5264,99,1.3317,1.0635,-27.3479,-36.836,24,0.044,8039,3.9523,-3.6813
lg,1625413942617632035,0,0.5347,-0.625,0.8137,303,-19.043,-39.1846,12.5732,99,1.3306,1.0655,-28.2762,-38.3279,24,0.043,8078,3.9523,-2.1382
lg,1625413942617651035,0,0.7356,-0.6838,0.8411,304,-10.1929,-10.437,19.8364,99,1.3317,1.0665,-28.3287,-39.2283,24,0.043,8107,3.9523,-1.1277
lg,1625413942617670072,0,0.8044,-0.8645,0.9409,305,-5.8594,6.2866,19.2261,99,1.3317,1.0655,-27.5265,-39.1294,24,0.042,8106,3.9523,-1.2637
lg,1625413942617688720,0,0.6777,-0.8264,0.9207,306,17.1509,41.9312,4.6387,99,1.3306,1.0695,-26.1499,-38.086,23,0.042,8161,3.9523,-2.2337
lg,1625413942617707442,0,0.3203,-0.7283,0.7839,307,40.0391,67.749,-3.479,99,1.3327,1.0715,-23.7062,-35.8732,23,0.043,8165,3.9523,-4.0662
lg,1625413942617725831,0,0.1118,-0.7346,0.7141,308,55.3589,47.9736,-15.625,99,1.3337,1.0715,-21.8214,-33.411,23,0.042,8132,3.9523,-5.6256
lg,1625413942617743757,0,0.116,-0.7227,0.7166,309,62.1338,31.25,-18.9819,99,1.3327,1.0655,-20.5898,-30.9181,23,0.043,8200,3.9523,-6.833
lg,1625413942617761887,0,0.2231,-0.6748,0.7256,310,67.2607,0.8545,-15.0757,99,1.3347,1.0605,-20.5626,-28.5193,24,0.044,8163,3.9523,-7.2313
lg,1625413942617790516,0,0.5518,-0.4255,0.5708,311,59.082,-18.1885,-3.3569,99,1.3347,1.0535,-21.9405,-26.5104,24,0.042,8210,3.9523,-6.9163
lg,1625413942617812424,0,0.8142,-0.1926,0.5342,312,37.6587,-15.2588,6.958,99,1.3347,1.0595,-23.603,-25.0493,24,0.044,8231,3.9523,-6.4385
lg,1625413942617831127,0,0.9324,-0.4612,0.7598,313,-9.5215,16.2964,5.3711,99,1.3327,1.0675,-23.799,-25.5719,24,0.044,8773,3.9523,-6.4566
lg,1625413942617849257,0,0.6978,-0.5024,0.7183,314,-17.334,58.5327,-10.6812,99,1.3317,1.0735,-22.4658,-25.9728,24,0.046,8271,3.9523,-7.8588
lg,1625413942617867794,0,-0.1367,-0.4324,0.7534,315,-21.9727,100.3418,-19.7754,99,1.3327,1.0745,-18.2824,-26.2703,24,0.047,12135,3.9523,-10.3481
lg,1625413942617885757,0,-0.2708,-0.4443,0.8098,316,-34.2407,62.0117,-18.4937,99,1.3317,1.0705,-15.1199,-27.1917,24,0.042,8510,3.9523,-12.1853
lg,1625413942617904164,0,-0.1919,-0.5205,0.8083,317,-4.1504,-29.9683,-44.7388,99,1.3317,1.0705,-15.9913,-27.2849,24,0.042,8615,3.9523,-13.2064
lg,1625413942617921738,0,-0.0647,-0.3525,0.6904,318,-5.127,-63.8428,-31.311,99,1.3317,1.0705,-18.0172,-27.4915,24,0.043,8370,3.9523,-13.141
lg,1625413942617938775,0,0.5061,-0.3362,0.7178,319,-15.5029,-86.4258,-16.1743,99,1.3317,1.0705,-21.9366,-29.0309,24,0.043,8443,3.9523,-11.3525
lg,1625413942617955794,0,0.6575,-0.6045,0.8728,320,-33.4473,-84.7168,4.1504,99,1.3317,1.0705,-25.149,-31.3737,24,0.043,8462,3.9523,-9.2472
lg,1625413942954561275,0,0.771,-0.7751,0.9153,321,-5.8594,-0.4883,11.2305,99,1.3317,1.0735,-25.183,-32.1841,24,0.042,22514,3.9523,-8.6445
lg,1625413942954599423,0,0.4976,-0.7012,0.7783,322,21.1792,59.7534,6.958,99,1.3317,1.0745,-23.0308,-31.2574,24,0.042,9520,3.9523,-9.6063
lg,1625413942954620035,0,0.2061,-0.6187,0.6719,323,23.8037,73.1201,5.4932,99,1.3317,1.0755,-20.0739,-30.1399,24,0.042,8351,3.9523,-10.8313
lg,1625413942954639535,0,0.0913,-0.6575,0.7021,324,31.7993,39.917,-1.9531,99,1.3327,1.0725,-18.1746,-29.105,24,0.042,8037,3.9523,-11.5518
lg,1625413942954658090,0,0.1243,-0.7698,0.7207,325,43.6401,-0.6104,-16.9067,99,1.3327,1.0775,-18.0991,-27.8929,24,0.043,10753,3.9523,-11.9333
lg,1625413942954678146,0,0.1814,-0.7449,0.709,326,52.4902,-18.7378,-22.0947,99,1.3337,1.0785,-19.1324,-26.3706,23,0.044,7844,3.9523,-12.1745
lg,1625413942954697090,0,0.3401,-0.6804,0.6697,327,66.8335,-30.5786,-20.5078,99,1.3337,1.0795,-20.6396,-24.3632,23,0.044,8256,3.9523,-12.1607
lg,1625413942954715683,0,0.4812,-0.6174,0.6465,328,70.5566,-31.9214,-11.2305,99,1.3337,1.0805,-22.3243,-22.2885,23,0.043,8032,3.9523,-11.8152
lg,1625413942954732775,0,0.5789,-0.5742,0.6431,329,68.2373,-28.9307,-8.728,99,1.3337,1.0795,-24.1016,-20.2539,23,0.042,7990,3.9523,-11.4735
lg,1625413942954750886,0,0.6431,-0.5249,0.6663,330,66.3452,-15.3198,-11.3525,99,1.3337,1.0805,-25.3733,-18.1094,24,0.043,8828,3.9523,-11.4837
lg,1625413942954768812,0,0.5911,-0.4436,0.6411,331,65.6738,7.2632,-13.0615,99,1.3337,1.0795,-25.7413,-15.7739,24,0.043,10109,3.9523,-11.8987
lg,1625413942954786998,0,0.4648,-0.4236,0.7078,332,59.9976,19.4702,-11.2915,99,1.3347,1.0805,-25.2777,-13.6455,24,0.044,8058,3.9523,-12.3579
lg,1625413942954804535,0,0.3474,-0.4062,0.728,333,55.9692,17.0898,-9.0942,99,1.3347,1.0805,-24.6185,-11.7949,24,0.046,8021,3.9523,-12.6497
lg,1625413942954822349,0,0.325,-0.3899,0.7524,334,52.3071,11.2305,-7.9346,99,1.3337,1.0805,-24.1251,-10.1535,24,0.049,8241,3.9523,-12.8224
lg,1625413942954839868,0,0.3181,-0.3645,0.7883,335,44.9829,0.061,-2.2583,99,1.3357,1.0775,-24.0034,-8.9095,24,0.049,8092,3.9523,-12.676
lg,1625413942954856405,0,0.3154,-0.3574,0.8279,336,37.3535,-12.5122,1.0376,99,1.3367,1.0785,-24.3263,-8.0556,24,0.051,8063,3.9523,-12.3089
lg,1625413942954873553,0,0.3201,-0.3909,0.8542,337,31.3721,-26.4282,1.5259,99,1.3367,1.0825,-25.1746,-7.5698,23,0.05,10929,3.9523,-11.8036
lg,1625413942954890646,0,0.325,-0.4287,0.8628,338,26.6724,-41.1377,-1.0376,99,1.3367,1.0835,-26.5895,-7.3606,23,0.048,9076,3.9523,-11.2794
lg,1625413942954907535,0,0.3542,-0.4321,0.8711,339,26.001,-48.7061,-2.9297,99,1.3367,1.0845,-28.3145,-7.1735,23,0.05,8160,3.9523,-10.7779
lg,1625413942954967035,0,0.3948,-0.4719,0.8687,340,25.5127,-59.1431,-6.8359,99,1.3367,1.0845,-30.488,-7.0479,23,0.051,9651,3.9523,-10.3305
lg,1625413942954986738,0,0.4033,-0.499,0.8691,341,26.3062,-63.5376,-12.8174,99,1.3367,1.0835,-32.7992,-6.8332,24,0.052,8282,3.9523,-10.0749
lg,1625413942955005201,0,0.4441,-0.5466,0.8345,342,30.1514,-67.8101,-18.9819,99,1.3367,1.0815,-35.3305,-6.446,24,0.05,8353,3.9523,-9.9965
lg,1625413942955022812,0,0.5298,-0.5205,0.8281,343,32.8979,-67.9321,-21.6064,99,1.3367,1.0795,-38.0654,-5.52,24,0.053,8952,3.9523,-10.2664
lg,1625413942955040831,0,0.5476,-0.5325,0.8262,344,40.4663,-66.2842,-27.71,99,1.3347,1.0755,-40.5662,-4.3665,24,0.052,8916,3.9523,-10.6648
lg,1625413942955058849,0,0.5769,-0.5476,0.8262,345,49.3164,-56.3965,-35.7666,99,1.3337,1.0715,-42.6435,-2.536,24,0.05,8355,3.9523,-11.5506
lg,1625413942955075868,0,0.5669,-0.5251,0.8042,346,59.6924,-45.3491,-43.457,99,1.3337,1.0695,-44.1968,0.0723,24,0.05,8390,3.9523,-12.9474
lg,1625413942955093405,0,0.6101,-0.4666,0.8105,347,68.6035,-38.208,-56.0303,99,1.3337,1.0675,-45.3917,3.7311,24,0.051,8387,3.9523,-15.2283
lg,1625413942955110257,0,0.6206,-0.425,0.77,348,70.1904,-32.2876,-59.5093,99,1.3327,1.0645,-46.2529,7.6527,24,0.049,8392,3.9523,-17.7784
lg,1625413942955126738,0,0.5854,-0.4038,0.74,349,70.4346,-17.8223,-62.6831,99,1.3337,1.0625,-46.3597,11.5648,24,0.048,8505,3.9523,-20.3637
lg,1625413942955143720,0,0.5164,-0.3538,0.7388,350,74.4019,-0.1831,-54.8706,99,1.3317,1.0595,-45.6071,15.0605,24,0.048,10201,3.9523,-22.2133
lg,1625413942955160905,0,0.3867,-0.282,0.6958,351,75.2563,13.5498,-42.2974,99,1.3327,1.0605,-44.2043,17.7881,24,0.047,8637,3.9523,-23.0324
lg,1625413942955178386,0,0.2119,-0.2407,0.7085,352,68.9697,5.7373,-28.3813,99,1.3327,1.0595,-42.8554,19.675,23,0.047,8528,3.9523,-23.1306
lg,1625413943319048775,0,0.3513,-0.3213,0.7878,353,47.1802,-75.8667,0.1221,99,1.3327,1.0595,-45.259,20.6005,23,0.047,24986,3.9523,-23.2383
lg,1625413943319090423,0,0.5981,-0.3999,0.8091,354,51.3306,-100.708,15.9302,99,1.3317,1.0595,-49.1786,21.5218,24,0.047,12171,3.9523,-23.0403
lg,1625413943319111386,0,0.6558,-0.3894,0.792,355,60.0586,-92.5903,22.2778,99,1.3327,1.0595,-52.8676,22.4482,24,0.048,8147,3.9523,-22.2964
lg,1625413943319133368,0,0.6396,-0.3618,0.771,356,65.0024,-88.8062,24.5361,99,1.3317,1.0605,-56.2753,23.4164,24,0.046,7894,3.9523,-21.2934
lg,1625413943319152590,0,0.6023,-0.3196,0.7468,357,68.9697,-85.8154,29.7852,99,1.3317,1.0605,-59.5579,24.1086,24,0.047,8131,3.9523,-19.7465
lg,1625413943319170905,0,0.6306,-0.3149,0.7371,358,69.519,-87.2192,35.8887,99,1.3317,1.0615,-62.9325,24.3386,24,0.048,8025,3.9523,-17.6211
lg,1625413943319189442,0,0.6577,-0.3174,0.7412,359,71.7163,-81.1768,42.1753,99,1.3337,1.0615,-66.0987,23.6604,24,0.05,8496,3.9523,-14.3726
lg,1625413943319207108,0,0.6738,-0.2937,0.6975,360,73.1201,-72.5098,46.9971,99,1.3337,1.0625,-68.9435,21.7947,24,0.048,7915,3.9523,-9.7485
lg,1625413943319224664,0,0.6814,-0.2568,0.6951,361,73.2422,-68.2373,49.1333,99,1.3337,1.0625,-71.4593,18.8114,24,0.048,7973,3.9523,-3.9031
lg,1625413943319242942,0,0.7058,-0.2517,0.7307,362,70.1904,-58.3496,50.4761,99,1.3337,1.0625,-73.367,14.0404,24,0.048,7984,3.9523,3.7182
lg,1625413943319261182,0,0.7112,-0.2461,0.7495,363,68.2373,-46.5088,48.0347,99,1.3347,1.0635,-74.5075,8.0439,24,0.049,7972,3.9523,12.5756
lg,1625413943319278442,0,0.6726,-0.2539,0.7805,364,69.7632,-39.6118,46.5698,99,1.3327,1.0625,-74.962,1.5567,24,0.049,8714,3.9523,22.0503
lg,1625413943319295386,0,0.6125,-0.22,0.7849,365,74.0356,-31.7993,44.6167,99,1.3327,1.0635,-74.8161,-4.3886,24,0.05,8064,3.9523,31.1905
lg,1625413943319312108,0,0.6118,-0.1746,0.7612,366,75.2563,-29.9683,40.8936,99,1.3337,1.0605,-74.4506,-8.911,24,0.05,8067,3.9523,38.9677
lg,1625413943319329127,0,0.5959,-0.1377,0.7434,367,74.585,-29.7852,33.8135,99,1.3337,1.0645,-74.0232,-11.6895,24,0.05,10151,3.9523,44.9552
lg,1625413943319346608,0,0.5933,-0.0911,0.7505,368,69.458,-27.4048,26.7334,99,1.3347,1.0625,-73.5297,-12.8755,24,0.051,8249,3.9523,49.1222
lg,1625413943319364238,0,0.5986,-0.1106,0.7734,369,66.8945,-24.8413,22.2778,99,1.3337,1.0635,-72.955,-13.4119,24,0.05,8190,3.9523,52.5101
lg,1625413943319380831,0,0.554,-0.1094,0.793,370,63.2324,-20.813,15.9912,99,1.3347,1.0645,-72.2185,-12.9629,24,0.051,8194,3.9523,54.726
lg,1625413943319397516,0,0.5215,-0.1262,0.8184,371,61.6455,-19.104,10.498,99,1.3357,1.0655,-71.4176,-11.8904,24,0.051,8203,3.9523,56.2145
lg,1625413943319414201,0,0.5034,-0.1326,0.8264,372,62.0728,-19.2261,8.5449,99,1.3347,1.0655,-70.6141,-10.5542,24,0.05,8200,3.9523,57.4428
lg,1625413943319431034,0,0.4753,-0.1184,0.8191,373,62.6831,-19.4092,7.3853,99,1.3337,1.0655,-69.8428,-9.0816,24,0.052,8263,3.9523,58.5479
lg,1625413943319448182,0,0.4648,-0.1006,0.7776,374,63.7817,-21.0571,9.0332,99,1.3357,1.0655,-69.1786,-7.7369,24,0.052,8245,3.9523,59.8372
lg,1625413943319465682,0,0.4768,-0.1072,0.7732,375,59.7534,-26.062,13.1226,99,1.3357,1.0645,-68.7368,-7.1328,24,0.052,8264,3.9523,61.7361
lg,1625413943319482794,0,0.4961,-0.105,0.7749,376,58.7158,-27.3438,15.4419,99,1.3337,1.0645,-68.3823,-6.7971,23,0.051,8296,3.9523,63.8808
lg,1625413943319499090,0,0.5347,-0.0864,0.7681,377,56.0303,-28.8696,17.0898,99,1.3337,1.0655,-68.166,-6.6189,23,0.051,8603,3.9523,66.0976
lg,1625413943319515238,0,0.627,-0.082,0.7522,378,53.0396,-26.6724,18.0664,99,1.3367,1.0655,-68.0344,-6.6042,23,0.051,8431,3.9523,68.3661
lg,1625413943319531257,0,0.6799,-0.073,0.7385,379,50.6592,-18.4937,15.7471,99,1.3357,1.0655,-67.7004,-6.2931,23,0.051,8368,3.9523,70.2197
lg,1625413943319547849,0,0.667,-0.0923,0.7422,380,48.2178,-11.7798,14.6484,99,1.3347,1.0645,-67.0992,-5.9889,24,0.051,8348,3.9523,71.9606
lg,1625413943319564312,0,0.6448,-0.1208,0.7595,381,46.7529,0.1221,12.4512,99,1.3347,1.0655,-66.0094,-5.5334,24,0.052,8405,3.9523,73.4534
lg,1625413943319581423,0,0.6423,-0.1453,0.7556,382,47.1191,11.1694,11.2915,99,1.3367,1.0655,-64.5341,-4.9627,24,0.051,8355,3.9523,74.8174
lg,1625413943319598053,0,0.6221,0.0771,0.686,383,49.6826,17.0898,10.6812,99,1.3347,1.0645,-62.6014,-2.8339,24,0.051,8494,3.9523,75.3262
lg,1625413943319617905,0,0.5156,0.1304,0.6948,384,53.0396,38.9404,16.1133,99,1.3337,1.0635,-60.0649,-0.9517,24,0.052,8468,3.9523,75.8017
lg,1625413943708960293,0,-0.2961,0.4258,0.969,385,-27.771,-24.9023,2.0142,99,1.3337,1.0625,-59.0305,-0.4154,24,0.054,27156,3.9523,74.414
lg,1625413943709017293,0,0.3584,-0.3455,1.1428,386,-92.3462,-199.9512,15.1367,99,1.3337,1.0625,-67.5824,-10.0513,24,0.055,10071,3.9523,80.148
lg,1625413943709038145,0,1.2686,-0.5664,1.2847,387,-82.0312,-214.6606,56.0303,99,1.3337,1.0625,-73.7617,-28.5303,24,0.054,10052,3.9523,96.2707
lg,1625413943709056942,0,1.3142,-0.5256,1.1692,388,-38.3911,-88.0127,35.5835,99,1.3327,1.0615,-74.6825,-40.7896,24,0.053,8345,3.9523,107.5894
lg,1625413943709075423,0,1.053,-0.4546,1.0645,389,-21.9727,-45.8984,25.1465,99,1.3327,1.0615,-74.1781,-46.8816,24,0.053,8118,3.9523,113.1625
lg,1625413943709094164,0,0.8169,-0.3613,0.9043,390,-9.8877,-27.3438,14.2212,99,1.3327,1.0615,-73.3872,-48.6866,24,0.055,8072,3.9523,114.8194
lg,1625413943709112738,0,0.8508,-0.3877,0.8662,391,-9.3994,-31.311,15.625,99,1.3327,1.0615,-72.6846,-51.0703,24,0.053,8136,3.9523,117.1152
lg,1625413943709131534,0,0.9033,-0.3594,0.825,392,-3.479,-14.2822,19.9585,99,1.3317,1.0605,-71.5553,-51.6889,24,0.053,9530,3.9523,117.8166
lg,1625413943709149627,0,0.8555,-0.3259,0.7786,393,-1.709,-5.0049,21.8506,99,1.3317,1.0605,-70.1989,-51.3822,24,0.053,8029,3.9523,117.6393
lg,1625413943709167738,0,0.8174,-0.3059,0.769,394,-1.4038,6.5308,23.2544,99,1.3317,1.0605,-68.5483,-50.1551,24,0.053,8181,3.9523,116.5156
lg,1625413943709186108,0,0.7341,-0.2686,0.7437,395,-0.6104,15.2588,25.8179,99,1.3317,1.0575,-66.609,-48.4567,24,0.052,8016,3.9523,114.9428
lg,1625413943709204219,0,0.7095,-0.2239,0.6943,396,-0.1831,17.0288,25.1465,99,1.3317,1.0595,-64.757,-46.8107,24,0.052,8041,3.9523,113.4563
lg,1625413943709221812,0,0.6587,-0.228,0.71,397,-2.9297,14.2212,25.3906,99,1.3306,1.0595,-62.9315,-45.6275,24,0.053,8058,3.9523,112.3739
lg,1625413943709238571,0,0.6565,-0.2161,0.6921,398,-2.1362,7.5684,24.6582,99,1.3317,1.0595,-61.3927,-44.8905,24,0.053,8131,3.9523,111.8365
lg,1625413943709255590,0,0.6306,-0.2092,0.6956,399,-2.6245,4.6997,21.9727,99,1.3337,1.0595,-60.1185,-44.4154,24,0.053,8171,3.9523,111.5893
lg,1625413943709272645,0,0.6028,-0.2056,0.6807,400,-3.1738,-2.5024,20.6299,99,1.3306,1.0575,-59.0091,-44.0605,24,0.054,8192,3.9523,111.4861
lg,1625413943709290053,0,0.5894,-0.2131,0.6877,401,-3.9673,-11.9019,16.7236,99,1.3317,1.0585,-58.2728,-44.0046,24,0.053,8199,3.9523,111.7101
lg,1625413943709307627,0,0.5857,-0.2249,0.6633,402,-4.5166,-20.9961,14.8315,99,1.3317,1.0585,-57.8747,-44.3784,24,0.052,8195,3.9523,112.4
lg,1625413943709325682,0,0.6138,-0.2053,0.6721,403,-6.1035,-26.8555,15.2588,99,1.3317,1.0575,-57.7031,-45.0116,23,0.053,8236,3.9523,113.3579
lg,1625413943709342553,0,0.6794,-0.2339,0.6768,404,-6.897,-33.9966,13.3057,99,1.3317,1.0565,-57.8428,-46.0468,23,0.054,14548,3.9523,114.7172
lg,1625413943709359886,0,0.6738,-0.24,0.6829,405,-7.4463,-34.729,11.5967,99,1.3317,1.0585,-58.0115,-47.0367,23,0.053,8476,3.9523,116.0093
lg,1625413943709376386,0,0.679,-0.249,0.6833,406,-8.9722,-37.0483,10.0708,99,1.3317,1.0575,-58.2631,-48.1432,23,0.054,8310,3.9523,117.3677
lg,1625413943709426997,0,0.675,-0.2517,0.6938,407,-10.3149,-37.4146,9.9487,96,1.3317,1.0585,-58.4857,-49.2752,24,0.054,8369,3.9567,118.7094
lg,1625413943709449756,0,0.675,-0.2817,0.7202,408,-9.7656,-37.6587,10.1318,96,1.3317,1.0585,-58.6233,-50.4159,24,0.054,8379,3.9567,120.0867
lg,1625413943709467182,0,0.6951,-0.26,0.7136,409,-9.7046,-37.9028,10.8032,96,1.3317,1.0585,-58.7911,-51.5331,24,0.054,8379,3.9567,121.4634
lg,1625413943709483849,0,0.7019,-0.2866,0.7202,410,-10.1929,-35.4004,11.3525,96,1.3306,1.0575,-58.8298,-52.6039,24,0.054,8620,3.9567,122.7519
lg,1625413943709501479,0,0.7139,-0.2729,0.7144,411,-10.3149,-34.3018,12.146,96,1.3306,1.0575,-58.773,-53.5212,24,0.053,8456,3.9567,123.8858
lg,1625413943709518979,0,0.7292,-0.2817,0.7249,412,-9.2773,-30.9448,13.2446,96,1.3306,1.0535,-58.6684,-54.3225,24,0.053,8456,3.9567,124.9297
lg,1625413943709536090,0,0.7266,-0.3005,0.7227,413,-8.7891,-28.0762,13.7939,96,1.3306,1.0575,-58.4501,-54.9894,24,0.052,8480,3.9567,125.8359
lg,1625413943709552775,0,0.7375,-0.3169,0.7354,414,-6.958,-25.0854,14.4043,96,1.3306,1.0575,-58.1311,-55.4386,24,0.052,8606,3.9567,126.5779
lg,1625413943709569775,0,0.738,-0.3132,0.7346,415,-6.4087,-22.644,14.4043,96,1.3317,1.0575,-57.7128,-55.5705,24,0.052,8514,3.9567,127.0363
lg,1625413943709587182,0,0.7534,-0.3291,0.7346,416,-4.5166,-18.8599,14.8926,96,1.3296,1.0565,-57.2689,-55.6213,24,0.052,8567,3.9567,127.4304
lg,1625413944069280478,0,0.7358,-0.3362,0.6758,417,0.4272,-8.9722,13.6108,96,1.3317,1.0565,-56.6757,-55.0555,23,0.052,25260,3.9567,127.2858
lg,1625413944069338867,0,0.7161,-0.3335,0.6904,418,2.0142,-8.3008,12.085,96,1.3276,1.0545,-56.1018,-54.3133,23,0.052,8856,3.9567,127.0255
lg,1625413944069371701,0,0.7048,-0.3303,0.6748,419,1.8311,-6.7749,12.8174,96,1.3317,1.0575,-55.4897,-53.59,23,0.052,10184,3.9567,126.7668
lg,1625413944069401645,0,0.7053,-0.333,0.675,420,1.3428,-7.2021,13.3057,96,1.3317,1.0575,-54.8899,-52.9712,24,0.052,7965,3.9567,126.6032
lg,1625413944069429701,0,0.6885,-0.3271,0.6787,421,1.0986,-7.3242,13.7939,96,1.3317,1.0575,-54.2934,-52.4468,24,0.052,9198,3.9567,126.549
lg,1625413944069456182,0,0.6956,-0.3284,0.6611,422,1.1597,-7.1411,15.0146,96,1.3317,1.0575,-53.6856,-51.9632,24,0.052,9884,3.9567,126.532
lg,1625413944069514052,0,0.7161,-0.3181,0.6619,423,0.9155,-6.958,15.3198,96,1.3317,1.0575,-53.1297,-51.5032,24,0.052,7912,3.9567,126.5368
lg,1625413944069543515,0,0.6946,-0.3301,0.6848,424,1.5259,-6.1646,15.1367,96,1.3317,1.0575,-52.5119,-50.9694,24,0.052,7939,3.9567,126.4931
lg,1625413944069569275,0,0.7046,-0.3298,0.6628,425,2.8687,-3.9673,15.0146,96,1.3317,1.0565,-51.9018,-50.3706,24,0.052,7961,3.9567,126.4073
lg,1625413944069594941,0,0.6931,-0.3157,0.6558,426,4.3335,-4.1504,14.7095,96,1.3317,1.0575,-51.2741,-49.6632,24,0.052,9709,3.9567,126.2695
lg,1625413944069621645,0,0.6763,-0.3179,0.6687,427,4.5776,-2.9907,14.5874,96,1.3317,1.0565,-50.6637,-48.951,24,0.053,8230,3.9567,126.1436
lg,1625413944069647108,0,0.6865,-0.3215,0.6348,428,5.4932,-0.9155,16.6626,96,1.3317,1.0565,-50.0055,-48.3161,24,0.052,8033,3.9567,126.1112
lg,1625413944069672238,0,0.6763,-0.3284,0.6909,429,6.1646,-2.6245,14.4043,96,1.3317,1.0565,-49.4025,-47.5766,24,0.053,8221,3.9567,126.0244
lg,1625413944069697238,0,0.6531,-0.321,0.6714,430,6.3477,-4.2114,14.6484,96,1.3317,1.0575,-48.8483,-46.9322,24,0.052,8071,3.9567,126.0605
lg,1625413944069724478,0,0.6614,-0.3254,0.6423,431,5.3101,-6.3477,16.7847,96,1.3296,1.0565,-48.3501,-46.5688,24,0.051,9781,3.9567,126.3655
lg,1625413944069750460,0,0.7429,-0.364,0.6792,432,0.9766,-15.4419,11.9629,96,1.3317,1.0565,-48.3015,-46.6114,24,0.053,9830,3.9567,126.9407
lg,1625413944069777626,0,0.7319,-0.3557,0.6338,433,4.0283,-9.5825,11.1084,96,1.3317,1.0565,-48.1613,-46.3732,24,0.053,8076,3.9567,127.2679
lg,1625413944069803089,0,0.73,-0.3525,0.6626,434,3.7231,-10.9253,9.3994,96,1.3317,1.0565,-48.0834,-46.0819,24,0.053,8231,3.9567,127.5424
lg,1625413944069829312,0,0.7202,-0.3474,0.6638,435,3.2959,-11.5356,8.8501,96,1.3327,1.0565,-48.0082,-45.8543,24,0.054,8214,3.9567,127.8543
lg,1625413944069854682,0,0.7424,-0.3672,0.6692,436,2.6245,-10.0098,9.5825,96,1.3306,1.0575,-47.9027,-45.6327,24,0.053,8213,3.9567,128.1352
lg,1625413944069880645,0,0.7493,-0.3845,0.6782,437,2.1973,-11.1084,7.9956,96,1.3327,1.0575,-47.8594,-45.4506,24,0.054,8225,3.9567,128.4255
lg,1625413944069927015,0,0.7524,-0.4038,0.6704,438,2.9297,-9.3384,7.6294,96,1.3327,1.0575,-47.7795,-45.1239,24,0.054,8310,3.9567,128.548
lg,1625413944069957312,0,0.7576,-0.395,0.6787,439,4.1504,-6.7139,5.249,96,1.3317,1.0565,-47.6979,-44.6879,24,0.055,8265,3.9567,128.5723
lg,1625413944069985404,0,0.7317,-0.3728,0.6768,440,5.249,-8.2397,3.6011,96,1.3317,1.0565,-47.6959,-44.1598,24,0.054,8923,3.9567,128.5586
lg,1625413944070012071,0,0.7539,-0.3823,0.676,441,4.5776,-7.8125,2.6855,96,1.3337,1.0575,-47.7309,-43.6707,24,0.055,8373,3.9567,128.5277
lg,1625413944070038552,0,0.7419,-0.3799,0.6687,442,5.7983,-6.1646,1.4038,96,1.3337,1.0575,-47.7447,-43.0633,23,0.054,8348,3.9567,128.3884
lg,1625413944070064015,0,0.7231,-0.3708,0.6719,443,5.5542,-5.8594,1.3428,96,1.3337,1.0575,-47.6806,-42.4093,23,0.054,8350,3.9567,128.1391
lg,1625413944070089293,0,0.7231,-0.3767,0.6848,444,5.249,-3.6011,0.7324,96,1.3317,1.0565,-47.5946,-41.7322,23,0.054,8396,3.9567,127.8702
lg,1625413944070114534,0,0.6919,-0.365,0.6794,445,4.9438,-3.1738,0.8545,96,1.3337,1.0575,-47.4628,-41.0555,23,0.054,8349,3.9567,127.5874
lg,1625413944070139145,0,0.6738,-0.355,0.6724,446,5.5542,-2.9907,0.5493,96,1.3337,1.0575,-47.3251,-40.3481,24,0.055,8418,3.9567,127.2908
lg,1625413944070163312,0,0.6736,-0.3411,0.6738,447,5.9204,-2.9907,0.3052,96,1.3337,1.0545,-47.2619,-39.7131,24,0.055,8430,3.9567,127.0295
lg,1625413944070190256,0,0.6819,-0.3389,0.6809,448,5.7983,-5.6763,-0.6104,96,1.3317,1.0565,-47.2586,-39.0319,24,0.053,8506,3.9567,126.7819
lg,1625413944435803830,0,0.6758,-0.342,0.6567,449,5.3711,-6.7749,-1.5259,96,1.3327,1.0575,-47.3257,-38.4422,24,0.054,25485,3.9567,126.5874
lg,1625413944435842367,0,0.667,-0.3396,0.6763,450,5.4321,-8.2397,-1.4038,96,1.3306,1.0575,-47.3965,-37.872,24,0.054,8825,3.9567,126.4345
lg,1625413944435862126,0,0.6895,-0.3477,0.6609,451,5.0659,-7.9956,-1.5259,96,1.3296,1.0545,-47.4872,-37.414,24,0.054,8891,3.9567,126.3639
lg,1625413944435880886,0,0.7075,-0.3416,0.6882,452,5.0049,-6.7139,-0.2441,96,1.3327,1.0575,-47.5305,-36.9068,23,0.054,8204,3.9567,126.2494
lg,1625413944435919163,0,0.7004,-0.3577,0.6785,453,4.2114,-3.9062,0.2441,96,1.3337,1.0545,-47.3631,-36.3906,23,0.054,8108,3.9567,126.0557
lg,1625413944435938423,0,0.6843,-0.3572,0.6694,454,5.7373,0.9155,0.9766,96,1.3337,1.0575,-47.1012,-35.8008,23,0.054,10713,3.9567,125.7946
lg,1625413944435956663,0,0.6768,-0.3547,0.6831,455,5.9204,-0.061,0.7324,96,1.3337,1.0565,-46.8586,-35.2158,24,0.054,7909,3.9567,125.5542
lg,1625413944435974700,0,0.6675,-0.3623,0.6926,456,6.0425,-1.77,0.6104,96,1.3337,1.0575,-46.6495,-34.6936,24,0.054,7861,3.9567,125.3889
lg,1625413944435991645,0,0.6794,-0.3513,0.6731,457,5.9204,-0.7935,1.2207,96,1.3337,1.0575,-46.4543,-34.2013,24,0.054,8371,3.9567,125.2409
lg,1625413944436008386,0,0.6719,-0.3438,0.6755,458,6.4087,-0.9766,0.3052,96,1.3337,1.0575,-46.2834,-33.6573,24,0.054,9697,3.9567,125.0523
lg,1625413944436025348,0,0.6641,-0.343,0.6885,459,6.8359,-1.77,0,96,1.3327,1.0565,-46.1518,-33.086,23,0.054,8262,3.9567,124.8618
lg,1625413944436041867,0,0.6599,-0.3301,0.6797,460,6.6528,-3.6011,-0.1221,96,1.3327,1.0555,-46.0735,-32.5779,23,0.054,8089,3.9567,124.7369
lg,1625413944436058756,0,0.6777,-0.342,0.687,461,5.8594,-3.3569,0.061,96,1.3337,1.0565,-45.9964,-32.1486,23,0.054,8062,3.9567,124.6463
lg,1625413944436075441,0,0.7239,-0.3403,0.6953,462,4.9438,-0.1221,0.061,96,1.3327,1.0575,-45.8779,-31.6922,23,0.054,8119,3.9567,124.4615
lg,1625413944436091941,0,0.7488,-0.3352,0.7114,463,5.8594,0.4272,1.2207,96,1.3317,1.0565,-45.7426,-31.2149,24,0.055,8050,3.9567,124.3075
lg,1625413944436116367,0,0.7942,-0.3513,0.7151,464,3.2959,10.498,3.2959,96,1.3337,1.0555,-45.2767,-30.7645,24,0.055,8115,3.9567,124.0037
lg,1625413944436133589,0,0.7883,-0.3708,0.7021,465,4.7607,20.4468,4.3945,96,1.3337,1.0565,-44.4584,-30.1848,24,0.054,8227,3.9567,123.537
lg,1625413944436150923,0,0.7681,-0.3733,0.7007,466,4.9438,23.8647,4.5166,96,1.3347,1.0565,-43.4749,-29.5775,24,0.055,8221,3.9567,123.0177
lg,1625413944436168515,0,0.7468,-0.3774,0.7251,467,5.3101,28.0762,5.4932,96,1.3327,1.0575,-42.3422,-28.9398,24,0.054,8214,3.9567,122.4606
lg,1625413944436199145,0,0.6965,-0.3716,0.7295,468,5.6763,27.5879,5.7983,96,1.3337,1.0565,-41.1817,-28.334,24,0.054,8244,3.9567,121.9604
lg,1625413944436218515,0,0.7036,-0.3721,0.739,469,5.249,24.5972,6.1646,96,1.3347,1.0565,-40.1627,-27.912,24,0.054,8280,3.9567,121.628
lg,1625413944436234923,0,0.7209,-0.3884,0.7756,470,3.54,23.3154,7.3242,96,1.3317,1.0555,-39.179,-27.5645,24,0.053,8298,3.9567,121.358
lg,1625413944436252274,0,0.8076,-0.3562,0.802,471,3.3569,25.1465,8.606,96,1.3317,1.0565,-38.2611,-27.1603,24,0.053,8300,3.9567,121.0615
lg,1625413944436269367,0,0.9294,-0.3748,0.8689,472,1.77,34.6069,9.8267,96,1.3337,1.0565,-37.0984,-26.7517,24,0.053,12180,3.9567,120.629
lg,1625413944436285848,0,0.9993,-0.4143,0.8972,473,4.3335,59.4482,10.437,96,1.3327,1.0565,-35.1105,-26.0027,24,0.053,8391,3.9567,119.7283
lg,1625413944436303311,0,0.9463,-0.3789,0.856,474,9.3384,91.6138,9.5215,96,1.3337,1.0555,-32.0478,-24.7337,24,0.052,8675,3.9567,118.1965
lg,1625413944436319867,0,0.7983,-0.3669,0.7971,475,9.4604,114.3188,10.437,96,1.3317,1.0555,-28.1214,-23.4842,24,0.053,8412,3.9567,116.4597
lg,1625413944436337200,0,0.7605,-0.3691,0.7803,476,7.9956,121.6431,12.146,96,1.3327,1.0555,-23.7855,-22.5211,24,0.053,8629,3.9567,114.7878
lg,1625413944436354737,0,0.6423,-0.3606,0.761,477,7.2021,124.6948,11.9019,96,1.3327,1.0555,-19.5351,-21.7508,24,0.053,9093,3.9567,113.2654
lg,1625413944436372348,0,0.5945,-0.3306,0.6904,478,5.3101,115.1123,9.8877,96,1.3327,1.0555,-15.8331,-21.2373,24,0.052,8413,3.9567,111.9115
lg,1625413944436389774,0,0.571,-0.2991,0.6653,479,-2.9907,107.1777,9.3384,96,1.3306,1.0545,-12.573,-21.1424,24,0.053,8999,3.9567,110.6903
lg,1625413944436408274,0,0.5618,-0.334,0.6956,480,-12.5122,99.1211,9.8877,96,1.3306,1.0545,-9.6534,-21.5722,24,0.05,8548,3.9567,109.623
lg,1625413944761611330,0,0.6733,-0.4087,0.7935,481,-23.3765,103.6377,10.6201,96,1.3306,1.0535,-6.7098,-22.5145,24,0.05,25057,3.9567,108.4814
lg,1625413944761662182,0,0.6653,-0.4451,0.8008,482,-19.3481,121.1548,10.0708,96,1.3286,1.0545,-3.2178,-23.36,24,0.05,9368,3.9567,106.9837
lg,1625413944761683885,0,0.5481,-0.4575,0.7822,483,-16.1743,136.9629,7.6294,96,1.3286,1.0535,1.0391,-24.1273,24,0.05,12000,3.9567,104.9128
lg,1625413944761703885,0,0.4768,-0.439,0.7847,484,-12.8174,148.1934,4.6997,96,1.3276,1.0535,5.3874,-24.9393,24,0.048,7993,3.9567,102.6163
lg,1625413944761723774,0,0.4062,-0.4495,0.7786,485,-11.4136,146.7896,1.6479,96,1.3256,1.0535,9.5719,-25.8944,24,0.049,9955,3.9567,100.1198
lg,1625413944761774274,0,0.384,-0.4578,0.7798,486,-12.0239,143.0664,1.1597,96,1.3266,1.0525,13.4706,-27.0451,24,0.046,10127,3.9567,97.5361
lg,1625413944761795589,0,0.3235,-0.4863,0.7761,487,-8.606,139.2822,-1.8921,96,1.3256,1.0525,17.1135,-28.2989,24,0.047,7876,3.9567,94.7453
lg,1625413944761813959,0,0.2974,-0.4934,0.7979,488,-6.897,138.1836,-2.6245,96,1.3256,1.0525,20.5752,-29.6218,24,0.046,7885,3.9567,91.8375
lg,1625413944761831108,0,0.2869,-0.5122,0.8225,489,-4.5166,132.3853,-2.1362,96,1.3246,1.0525,23.7104,-31.0011,24,0.047,7912,3.9567,88.8484
lg,1625413944761848737,0,0.2646,-0.5142,0.8105,490,-0.8545,129.2725,-1.2817,96,1.3246,1.0525,26.6258,-32.377,23,0.047,7903,3.9567,85.7848
lg,1625413944761866793,0,0.2556,-0.5225,0.8096,491,-1.2207,130.7983,0.061,96,1.3236,1.0525,29.5496,-33.8001,23,0.047,8516,3.9567,82.6656
lg,1625413944761886978,0,0.2437,-0.5132,0.7749,492,1.5869,130.249,6.2256,96,1.3226,1.0525,32.3685,-35.3571,23,0.048,8494,3.9567,79.4758
lg,1625413944761905737,0,0.2432,-0.5464,0.8208,493,3.0518,133.7891,15.5029,96,1.3236,1.0525,35.56,-36.7878,24,0.047,8137,3.9567,76.3274
lg,1625413944761924145,0,0.1541,-0.4949,0.7754,494,11.5356,135.376,19.9585,96,1.3236,1.0535,38.7056,-38.1152,24,0.046,10394,3.9567,73.1207
lg,1625413944761941496,0,0.0737,-0.5012,0.8066,495,9.3994,135.8643,23.3154,96,1.3236,1.0535,41.9406,-39.6751,24,0.045,8092,3.9567,69.8095
lg,1625413944761960719,0,-0.011,-0.5217,0.8179,496,10.498,123.5962,29.3579,96,1.3236,1.0525,44.9468,-41.0314,24,0.046,8109,3.9567,66.8992
lg,1625413944761978941,0,-0.0103,-0.4844,0.8179,497,11.9019,104.0649,33.4473,96,1.3236,1.0535,47.3599,-41.7705,24,0.046,8136,3.9567,64.7916
lg,1625413944761996756,0,-0.051,-0.4636,0.8301,498,11.4746,96.4355,33.1421,96,1.3236,1.0535,49.533,-42.3583,24,0.046,8201,3.9567,62.9257
lg,1625413944762014867,0,-0.2627,-0.4382,0.8145,499,10.1318,72.7539,26.6724,96,1.3236,1.0535,51.1611,-42.5297,24,0.046,8996,3.9567,61.7123
lg,1625413944762031848,0,-0.4058,-0.376,0.8,500,0.1221,13.7329,16.6626,96,1.3216,1.0525,51.0587,-41.378,24,0.046,8724,3.9567,62.6838
lg,1625413944762063274,0,-0.311,-0.3997,0.8408,501,-12.6343,-64.0259,9.0332,96,1.3226,1.0535,48.1781,-38.7118,24,0.045,8213,3.9567,66.364
lg,1625413944762082571,0,-0.1606,-0.4458,0.8809,502,-19.2871,-92.8955,5.188,96,1.3236,1.0535,43.0992,-35.9922,24,0.045,8327,3.9567,70.804
lg,1625413944762099941,0,0.0874,-0.5186,0.9421,503,-16.2964,-118.2861,1.4038,96,1.3226,1.0525,37.6107,-33.9396,24,0.045,8267,3.9567,74.6606
lg,1625413944762118774,0,0.1685,-0.5098,0.9253,504,-5.6763,-110.5957,-2.8687,96,1.3246,1.0535,32.2188,-32.3092,24,0.045,8321,3.9567,77.6267
lg,1625413944762135885,0,0.1785,-0.5049,0.9202,505,1.4648,-99.4873,-8.9111,96,1.3256,1.0535,27.15,-31.0731,24,0.046,8293,3.9567,79.7616
lg,1625413944762153052,0,0.1746,-0.5012,0.9023,506,4.8828,-97.3511,-12.207,96,1.3256,1.0505,22.2086,-30.0838,24,0.047,8595,3.9567,81.5091
lg,1625413944762170774,0,0.2139,-0.4888,0.8972,507,11.4136,-95.2148,-17.6392,96,1.3236,1.0545,17.2937,-29.1083,24,0.046,8411,3.9567,82.8748
lg,1625413944762187867,0,0.2266,-0.4707,0.874,508,19.9585,-87.6465,-23.2544,96,1.3256,1.0545,12.6444,-28.0462,24,0.047,8369,3.9567,83.7697
lg,1625413944762204978,0,0.2349,-0.4124,0.8276,509,24.1089,-79.0405,-26.123,96,1.3266,1.0545,8.3435,-26.9205,24,0.046,8356,3.9567,84.3188
lg,1625413944762221922,0,0.2417,-0.3975,0.7998,510,23.5596,-74.4629,-26.9165,96,1.3256,1.0535,4.3038,-25.9163,24,0.046,8430,3.9567,84.6809
lg,1625413944762239182,0,0.1873,-0.3887,0.8179,511,23.4375,-68.8477,-27.2827,96,1.3266,1.0545,0.7336,-24.9474,24,0.047,8418,3.9567,84.878
lg,1625413944762256052,0,0.1606,-0.3794,0.8254,512,23.7427,-68.6035,-25.3296,96,1.3276,1.0545,-2.5965,-23.9874,24,0.047,8401,3.9567,85.0924
lg,1625413945112295774,0,0.0081,-0.3499,0.8101,513,24.1699,-85.3882,-23.1323,96,1.3286,1.0545,-6.5088,-23.0089,24,0.047,26322,3.9567,85.8827
lg,1625413945112331293,0,0.0637,-0.2698,0.7642,514,20.3247,-111.0229,-19.9585,96,1.3276,1.0555,-11.2861,-22.4248,24,0.047,9674,3.9567,87.1217
lg,1625413945112351885,0,0.2424,-0.2822,0.7654,515,10.0708,-134.2773,-12.8784,96,1.3276,1.0555,-16.6297,-22.3218,24,0.048,14755,3.9567,88.7245
lg,1625413945112371144,0,0.3679,-0.3262,0.9146,516,7.8125,-135.6201,-8.3618,96,1.3286,1.0555,-21.9059,-22.5141,24,0.048,7935,3.9567,90.5625
lg,1625413945112411107,0,0.4358,-0.3611,1.1223,517,12.7563,-115.1733,-4.3945,97,1.3286,1.0555,-26.1402,-22.5238,24,0.048,7969,3.9523,92.2491
lg,1625413945112431163,0,0.4163,-0.3503,1.1956,518,16.5405,-97.6562,-2.0752,97,1.3296,1.0555,-29.4605,-22.3422,24,0.05,7994,3.9523,93.7356
lg,1625413945112448644,0,0.2573,-0.3396,1.2373,519,21.1792,-72.7539,0.6714,97,1.3296,1.0565,-31.429,-21.8379,24,0.051,8343,3.9523,94.8848
lg,1625413945112466089,0,0.3162,-0.2305,1.002,520,18.0054,-67.1387,8.4839,97,1.3296,1.0565,-33.2296,-21.5464,24,0.05,8420,3.9523,96.2283
lg,1625413945112482904,0,0.3618,-0.2024,0.9133,521,12.8784,-68.6035,11.9629,97,1.3296,1.0565,-35.3053,-22.0365,24,0.05,8648,3.9523,97.8491
lg,1625413945112499885,0,0.4399,-0.2334,0.8354,522,-3.9062,-69.0918,10.6201,97,1.3296,1.0555,-37.3493,-22.9696,24,0.05,8061,3.9523,99.4854
lg,1625413945112517181,0,0.4312,-0.3081,0.8083,523,-14.8315,-72.0825,3.479,97,1.3306,1.0575,-39.4819,-24.4758,24,0.049,8118,3.9523,101.0673
lg,1625413945112534367,0,0.3953,-0.3696,0.8066,524,-18.4937,-73.6694,-1.4038,97,1.3306,1.0575,-41.5371,-26.2399,24,0.051,8065,3.9523,102.6577
lg,1625413945112552237,0,0.3901,-0.3882,0.7842,525,-16.4795,-75.6836,-3.9673,97,1.3306,1.0575,-43.5925,-28.0231,24,0.051,8097,3.9523,104.3355
lg,1625413945112569293,0,0.3252,-0.4146,0.748,526,-13.3667,-79.1016,-7.0801,97,1.3317,1.0585,-45.5887,-29.8509,24,0.05,8070,3.9523,106.161
lg,1625413945112585996,0,0.3674,-0.4453,0.7903,527,-11.2915,-95.52,-9.9487,97,1.3327,1.0585,-48.1283,-31.9836,24,0.049,8103,3.9523,108.5039
lg,1625413945112605126,0,0.4265,-0.4834,0.8074,528,-8.5449,-100.3418,-10.7422,97,1.3327,1.0565,-50.7674,-34.3851,24,0.049,8186,3.9523,111.2737
lg,1625413945112634663,0,0.5034,-0.4956,0.8176,529,2.3193,-97.5952,-7.2021,97,1.3317,1.0565,-53.184,-36.6894,24,0.049,8271,3.9523,114.4295
lg,1625413945112653441,0,0.564,-0.4929,0.7961,530,12.8784,-87.0361,-5.4932,97,1.3337,1.0595,-55.1844,-38.5744,24,0.05,8188,3.9523,117.5336
lg,1625413945112671052,0,0.6411,-0.4937,0.7849,531,20.1416,-75.2563,-5.249,97,1.3337,1.0595,-56.8214,-39.967,24,0.05,10714,3.9523,120.3468
lg,1625413945112688552,0,0.687,-0.4851,0.8179,532,30.5786,-61.3403,-6.1646,97,1.3347,1.0605,-58.0264,-40.3695,24,0.05,8215,3.9523,122.481
lg,1625413945112705478,0,0.6895,-0.4883,0.8022,533,36.9263,-50.5371,-6.897,97,1.3347,1.0605,-58.8914,-40.129,24,0.049,8286,3.9523,124.1185
lg,1625413945112722293,0,0.6731,-0.4817,0.833,534,50.1099,-31.0059,-9.7656,97,1.3327,1.0605,-59.1746,-38.312,24,0.049,8262,3.9523,124.5308
lg,1625413945112739718,0,0.6731,-0.4351,0.8171,535,58.4106,-14.9536,-16.7847,97,1.3357,1.0585,-59.1618,-35.0636,24,0.049,8288,3.9523,123.6536
lg,1625413945112757163,0,0.6763,-0.3999,0.8582,536,65.4297,-2.3804,-22.583,97,1.3357,1.0615,-58.8241,-30.687,24,0.048,8371,3.9523,121.7756
lg,1625413945112773885,0,0.6746,-0.4004,0.8718,537,69.458,3.1738,-25.4517,97,1.3337,1.0605,-58.2755,-26.024,24,0.049,8377,3.9523,119.6625
lg,1625413945112790885,0,0.6826,-0.325,0.8728,538,74.3408,15.686,-30.7617,97,1.3337,1.0615,-57.3302,-20.5829,24,0.049,8452,3.9523,116.8298
lg,1625413945112818626,0,0.6108,-0.2319,0.8757,539,74.2798,29.2358,-29.7241,97,1.3367,1.0625,-55.6841,-15.0807,24,0.049,8964,3.9523,113.8863
lg,1625413945112835793,0,0.5603,-0.1836,0.8586,540,67.3828,35.2173,-23.2544,97,1.3357,1.0615,-53.6278,-10.5447,24,0.049,8424,3.9523,111.6733
lg,1625413945112852367,0,0.5662,-0.1477,0.8596,541,61.8286,37.3535,-18.6157,97,1.3377,1.0625,-51.4933,-6.7862,24,0.049,8469,3.9523,110.0645
lg,1625413945112869459,0,0.615,-0.0974,0.8618,542,51.0864,37.9639,-15.564,97,1.3347,1.0615,-49.4081,-3.8307,24,0.049,8452,3.9523,108.8743
lg,1625413945112886330,0,0.4133,0.0364,0.7988,543,41.1987,50.9033,-16.1743,97,1.3367,1.0605,-46.5597,-1.0584,24,0.049,8487,3.9523,107.5444
lg,1625413945112903959,0,0.2051,-0.0952,0.8035,544,7.8125,29.2969,0,97,1.3377,1.0625,-44.1841,-1.0369,24,0.048,8496,3.9523,107.7422
lg,1625413945486205885,0,0.4692,-0.3093,0.876,545,-9.0942,5.0049,14.6484,97,1.3367,1.0625,-43.3427,-2.8323,24,0.049,25050,3.9523,109.1574
lg,1625413945486253218,0,0.4058,-0.3027,0.8386,546,0.6104,2.1362,10.3149,97,1.3367,1.0625,-42.5483,-4.0061,24,0.049,11853,3.9523,110.2775
lg,1625413945486274200,0,0.4438,-0.2852,0.8386,547,4.8218,-7.2021,3.9673,97,1.3367,1.0625,-42.2328,-4.675,24,0.049,8050,3.9523,110.9953
lg,1625413945486294089,0,0.4558,-0.2837,0.8508,548,5.0049,-7.5684,0.9155,97,1.3367,1.0625,-41.9893,-5.0617,24,0.049,8008,3.9523,111.4532
lg,1625413945486313163,0,0.4456,-0.2634,0.8813,549,7.1411,-11.1694,-1.0376,97,1.3377,1.0625,-41.8217,-5.3251,24,0.049,7831,3.9523,111.8221
lg,1625413945486333459,0,0.4744,-0.2559,0.8745,550,6.7749,-15.8691,-3.1128,97,1.3377,1.0625,-41.9143,-5.511,24,0.049,7866,3.9523,112.0813
lg,1625413945486351348,0,0.4956,-0.2571,0.8586,551,4.0894,-19.2261,-3.8452,97,1.3367,1.0635,-42.1948,-5.7935,24,0.049,8426,3.9523,112.3243
lg,1625413945486369996,0,0.5034,-0.2517,0.8696,552,2.0142,-17.9443,-3.6011,97,1.3367,1.0625,-42.4167,-6.1936,24,0.049,8550,3.9523,112.5991
lg,1625413945486419607,0,0.5127,-0.2551,0.8557,553,-0.3662,-16.5405,-3.418,97,1.3367,1.0625,-42.6025,-6.6305,24,0.048,7978,3.9523,112.8405
lg,1625413945486444718,0,0.5369,-0.2908,0.8594,554,-1.1597,-15.9912,-3.7842,97,1.3367,1.0625,-42.7974,-7.161,24,0.048,7962,3.9523,113.117
lg,1625413945486464052,0,0.5317,-0.3059,0.8623,555,0.3662,-15.625,-3.9062,97,1.3377,1.0625,-42.9644,-7.6851,24,0.049,8045,3.9523,113.4316
lg,1625413945486482755,0,0.5354,-0.2998,0.8542,556,2.3804,-12.7563,-3.0518,97,1.3367,1.0625,-43.013,-8.0791,24,0.048,8152,3.9523,113.7304
lg,1625413945486500866,0,0.5046,-0.2981,0.842,557,2.5635,-12.3291,-1.6479,97,1.3377,1.0635,-42.9909,-8.5135,24,0.048,8062,3.9523,114.1036
lg,1625413945486520033,0,0.5347,-0.2966,0.844,558,2.8687,-14.4043,-1.1597,97,1.3387,1.0605,-43.1078,-9.0098,24,0.049,8132,3.9523,114.5323
lg,1625413945486538496,0,0.5459,-0.2959,0.8455,559,1.8921,-13.7939,-0.2441,97,1.3367,1.0615,-43.1976,-9.4787,24,0.048,8098,3.9523,114.9648
lg,1625413945486557403,0,0.5564,-0.3044,0.8398,560,2.5635,-11.7798,-0.3052,97,1.3387,1.0635,-43.227,-9.9154,24,0.048,8107,3.9523,115.3856
lg,1625413945486574848,0,0.5381,-0.2961,0.8364,561,3.9062,-6.4697,-0.2441,97,1.3387,1.0635,-43.0173,-10.232,23,0.049,11844,3.9523,115.7375
lg,1625413945486593515,0,0.5229,-0.3127,0.8472,562,4.6997,-6.3477,-1.77,97,1.3387,1.0635,-42.779,-10.4858,23,0.049,8180,3.9523,116.0235
lg,1625413945486611366,0,0.5234,-0.303,0.8511,563,5.188,-5.4932,-1.4038,97,1.3387,1.0635,-42.511,-10.6845,23,0.049,8235,3.9523,116.2905
lg,1625413945486630477,0,0.5383,-0.2998,0.8477,564,5.6152,-3.9673,-1.3428,97,1.3377,1.0635,-42.2239,-10.8392,24,0.049,8161,3.9523,116.5316
lg,1625413945486648107,0,0.5154,-0.3167,0.8748,565,6.2866,-4.6387,-1.2817,97,1.3387,1.0635,-41.9006,-10.9927,24,0.049,8175,3.9523,116.7943
lg,1625413945486666033,0,0.5559,-0.3354,0.8472,566,6.3477,-2.9907,-0.4883,97,1.3387,1.0635,-41.6176,-11.218,24,0.049,8181,3.9523,117.1194
lg,1625413945486684070,0,0.4973,-0.2942,0.8325,567,7.5684,3.0518,-0.7935,97,1.3387,1.0635,-41.0275,-11.2422,24,0.05,8668,3.9523,117.2969
lg,1625413945486721533,0,0.4846,-0.314,0.8594,568,7.6294,-1.0376,-1.0986,97,1.3377,1.0625,-40.5668,-11.3112,24,0.049,8997,3.9523,117.5178
lg,1625413945486742755,0,0.4854,-0.3123,0.864,569,8.1177,-1.0986,-0.9155,97,1.3387,1.0635,-40.1117,-11.3219,24,0.049,8287,3.9523,117.7167
lg,1625413945486760329,0,0.4492,-0.2861,0.8474,570,7.8735,-3.479,-1.4648,97,1.3377,1.0635,-39.7327,-11.317,24,0.049,8287,3.9523,117.895
lg,1625413945486777459,0,0.4539,-0.2959,0.8696,571,5.9204,-8.3618,-1.709,97,1.3397,1.0635,-39.5459,-11.4202,24,0.049,8334,3.9523,118.1132
lg,1625413945486795052,0,0.4641,-0.2732,0.8535,572,4.5776,-10.5591,-2.0142,97,1.3387,1.0635,-39.4933,-11.526,24,0.049,8349,3.9523,118.3027
lg,1625413945486812811,0,0.4839,-0.2898,0.8438,573,4.2725,-13.0005,-2.1973,97,1.3377,1.0625,-39.5842,-11.7015,24,0.049,8403,3.9523,118.5393
lg,1625413945486830996,0,0.4932,-0.293,0.8499,574,4.3335,-12.9395,-3.2349,97,1.3377,1.0635,-39.6879,-11.8366,24,0.049,8618,3.9523,118.7214
lg,1625413945486849403,0,0.4856,-0.3047,0.8494,575,4.4556,-13.0005,-4.5776,97,1.3387,1.0635,-39.7848,-11.9523,24,0.05,8454,3.9523,118.8558
lg,1625413945486867922,0,0.5046,-0.3032,0.8364,576,6.0425,-15.1367,-4.8828,97,1.3397,1.0635,-40.0134,-12.01,24,0.05,8450,3.9523,118.9994
lg,1625413945862354385,0,0.5037,-0.2793,0.843,577,5.0659,-17.1509,-4.6387,97,1.3397,1.0635,-40.3048,-12.0562,24,0.05,25055,3.9523,119.1319
lg,1625413945862395292,0,0.5493,-0.2808,0.8396,578,5.0659,-18.3716,-3.3569,97,1.3397,1.0635,-40.7093,-12.1542,24,0.05,9774,3.9523,119.3459
lg,1625413945862415848,0,0.5471,-0.2869,0.844,579,5.3101,-13.3057,-3.0518,97,1.3397,1.0645,-40.8882,-12.2274,24,0.05,12390,3.9523,119.5288
lg,1625413945862435014,0,0.5295,-0.2891,0.8462,580,4.6997,-10.7422,-2.3804,97,1.3397,1.0645,-40.9195,-12.3331,24,0.051,10212,3.9523,119.7216
lg,1625413945862453292,0,0.5337,-0.291,0.8325,581,3.54,-10.8643,-2.5635,97,1.3397,1.0635,-40.978,-12.4924,24,0.051,8032,3.9523,119.9155
lg,1625413945862470774,0,0.521,-0.3013,0.8425,582,5.6763,-9.8877,-2.2583,97,1.3397,1.0645,-40.9568,-12.585,24,0.051,7944,3.9523,120.1252
lg,1625413945862511459,0,0.4956,-0.2908,0.8416,583,5.7983,-10.3149,-2.4414,97,1.3397,1.0645,-40.9102,-12.6415,24,0.051,10324,3.9523,120.3121
lg,1625413945862530459,0,0.5208,-0.3008,0.8511,584,4.8828,-13.0615,-2.2583,97,1.3397,1.0635,-41.0048,-12.7753,24,0.051,8000,3.9523,120.5498
lg,1625413945862547755,0,0.5332,-0.2917,0.8342,585,5.4321,-12.7563,-2.0752,97,1.3397,1.0645,-41.1249,-12.8747,24,0.05,8965,3.9523,120.7839
lg,1625413945862566162,0,0.543,-0.293,0.8472,586,5.3101,-12.146,-2.9297,97,1.3397,1.0635,-41.2274,-12.9327,24,0.051,8007,3.9523,120.9592
lg,1625413945862584440,0,0.5349,-0.303,0.8464,587,7.019,-13.855,-4.2725,97,1.3407,1.0645,-41.3881,-12.9175,24,0.051,8010,3.9523,121.1042
lg,1625413945862602533,0,0.5164,-0.2822,0.834,588,5.9814,-11.4746,-5.3101,97,1.3387,1.0635,-41.4434,-12.8457,23,0.05,9597,3.9523,121.1381
lg,1625413945862619959,0,0.5215,-0.2856,0.8372,589,5.0049,-12.6343,-6.2866,97,1.3387,1.0635,-41.5555,-12.7971,23,0.051,8054,3.9523,121.1406
lg,1625413945862636811,0,0.5264,-0.2817,0.8469,590,5.188,-13.3667,-5.9204,97,1.3387,1.0635,-41.6876,-12.7416,23,0.05,8121,3.9523,121.1589
lg,1625413945862653699,0,0.5251,-0.281,0.8464,591,3.418,-11.9629,-5.6152,97,1.3377,1.0635,-41.7559,-12.7569,23,0.051,8224,3.9523,121.177
lg,1625413945862670070,0,0.5266,-0.3018,0.8347,592,3.1128,-14.2822,-5.4321,97,1.3397,1.0645,-41.9208,-12.8769,24,0.051,8185,3.9523,121.2785
lg,1625413945862686607,0,0.5388,-0.2908,0.8381,593,3.9673,-13.7939,-5.4932,97,1.3407,1.0635,-42.0849,-12.9106,24,0.051,8200,3.9523,121.3412
lg,1625413945862702903,0,0.5447,-0.292,0.8513,594,3.7231,-12.207,-4.4556,97,1.3387,1.0625,-42.1646,-12.9745,24,0.051,8175,3.9523,121.4379
lg,1625413945862719051,0,0.5342,-0.291,0.8469,595,4.2114,-10.6812,-3.8452,97,1.3407,1.0645,-42.1625,-13.0282,24,0.051,8237,3.9523,121.549
lg,1625413945862735440,0,0.5461,-0.2786,0.8232,596,4.8218,-11.2915,-4.2725,97,1.3397,1.0645,-42.239,-13.0293,24,0.052,8248,3.9523,121.633
lg,1625413945862751699,0,0.5337,-0.2866,0.8359,597,4.5166,-11.5356,-5.4321,97,1.3407,1.0625,-42.3073,-12.9909,24,0.053,8262,3.9523,121.6504
lg,1625413945862779829,0,0.5239,-0.2839,0.8423,598,3.6621,-11.6577,-6.4697,97,1.3387,1.0645,-42.3489,-12.9663,24,0.051,8335,3.9523,121.6252
lg,1625413945862797514,0,0.5205,-0.2891,0.8381,599,3.7231,-13.855,-7.2021,97,1.3407,1.0645,-42.4776,-12.9508,24,0.052,8310,3.9523,121.6014
lg,1625413945862815477,0,0.5327,-0.2554,0.8289,600,3.54,-14.2212,-7.6294,97,1.3407,1.0645,-42.6597,-12.84,24,0.052,8413,3.9523,121.4981
lg,1625413945862832348,0,0.5376,-0.2747,0.843,601,2.3804,-13.4277,-6.8359,97,1.3387,1.0635,-42.7855,-12.8446,24,0.052,8366,3.9523,121.4593
lg,1625413945862848625,0,0.5103,-0.2896,0.8362,602,2.9297,-13.6719,-7.019,97,1.3387,1.0645,-42.8716,-12.8747,24,0.052,8391,3.9523,121.4498
lg,1625413945862864699,0,0.53,-0.2598,0.8181,603,1.77,-15.1367,-5.9204,97,1.3407,1.0645,-43.0648,-12.9285,23,0.053,8453,3.9523,121.4663
lg,1625413945862881496,0,0.5405,-0.303,0.834,604,0.6104,-16.1743,-6.5308,97,1.3367,1.0645,-43.2877,-13.123,23,0.052,9430,3.9523,121.5387
lg,1625413945862898033,0,0.5613,-0.2764,0.8208,605,1.3428,-16.2354,-7.1411,97,1.3397,1.0635,-43.5682,-13.1921,23,0.053,10232,3.9523,121.5301
lg,1625413945862914644,0,0.5598,-0.2856,0.832,606,2.3193,-14.8315,-6.958,97,1.3407,1.0635,-43.7818,-13.2062,23,0.053,8499,3.9523,121.5379
lg,1625413945862931385,0,0.5667,-0.29,0.8311,607,2.8687,-13.6108,-6.897,97,1.3387,1.0635,-43.9338,-13.2272,24,0.054,8546,3.9523,121.5298
lg,1625413945862947477,0,0.5452,-0.2778,0.8359,608,4.4556,-14.0991,-7.3242,97,1.3387,1.0635,-44.0615,-13.1355,24,0.053,8550,3.9523,121.4789
lg,1625413946217052125,0,0.5728,-0.2825,0.8142,609,3.7842,-15.5029,-6.7749,97,1.3407,1.0645,-44.3069,-13.1363,24,0.054,24986,3.9523,121.4984
lg,1625413946217092218,0,0.5759,-0.2676,0.825,610,5.249,-13.6719,-5.7983,97,1.3407,1.0615,-44.4596,-13.0462,24,0.053,8751,3.9523,121.5109
lg,1625413946217113218,0,0.5623,-0.2629,0.8418,611,4.8218,-11.5967,-5.6763,97,1.3407,1.0645,-44.4825,-12.9364,24,0.054,8054,3.9523,121.4871
lg,1625413946217132662,0,0.5574,-0.2722,0.8208,612,3.7842,-11.3525,-3.9062,97,1.3407,1.0645,-44.4923,-12.9839,24,0.054,13514,3.9523,121.5922
lg,1625413946217174681,0,0.5771,-0.2615,0.812,613,4.9438,-11.4136,-3.2959,97,1.3407,1.0645,-44.5469,-12.9808,24,0.054,10257,3.9523,121.7118
lg,1625413946217193996,0,0.5635,-0.2515,0.7971,614,5.5542,-10.3149,-3.54,97,1.3407,1.0645,-44.5551,-12.919,24,0.054,7927,3.9523,121.7933
lg,1625413946217211662,0,0.5583,-0.2649,0.821,615,5.188,-11.2305,-3.2349,97,1.3407,1.0645,-44.5546,-12.9141,24,0.054,7948,3.9523,121.9187
lg,1625413946217229662,0,0.5808,-0.2861,0.8254,616,4.8218,-11.7798,-3.9673,97,1.3407,1.0645,-44.6117,-12.9562,24,0.054,7983,3.9523,122.0504
lg,1625413946217247366,0,0.5676,-0.2703,0.8357,617,6.2256,-9.4604,-4.2725,97,1.3407,1.0645,-44.5482,-12.8551,24,0.054,8018,3.9523,122.0974
lg,1625413946217265422,0,0.5439,-0.2429,0.8103,618,5.9204,-9.2773,-3.479,97,1.3387,1.0635,-44.4663,-12.7416,24,0.054,10094,3.9523,122.1471
lg,1625413946217283440,0,0.5415,-0.2551,0.8186,619,5.249,-12.3901,-3.7842,97,1.3397,1.0635,-44.4939,-12.7048,24,0.055,8028,3.9523,122.2425
lg,1625413946217300588,0,0.584,-0.2644,0.8193,620,4.5776,-14.4653,-3.7231,97,1.3407,1.0645,-44.6735,-12.7388,24,0.055,8062,3.9523,122.3838
lg,1625413946217317551,0,0.5808,-0.271,0.8232,621,4.2725,-11.9629,-3.7231,97,1.3397,1.0645,-44.7373,-12.7786,24,0.055,9417,3.9523,122.5056
lg,1625413946217333847,0,0.5854,-0.2651,0.7986,622,4.5166,-11.9629,-4.5776,97,1.3397,1.0635,-44.8453,-12.7779,24,0.054,9971,3.9523,122.5823
lg,1625413946217349903,0,0.5845,-0.2761,0.8013,623,5.3711,-11.2915,-5.127,97,1.3407,1.0645,-44.9203,-12.7464,24,0.054,8139,3.9523,122.6424
lg,1625413946217366699,0,0.5742,-0.2749,0.825,624,4.8218,-11.3525,-5.7983,97,1.3397,1.0635,-44.9546,-12.6893,24,0.055,8158,3.9523,122.6507
lg,1625413946217383070,0,0.5681,-0.2854,0.8242,625,6.2866,-10.498,-5.3101,97,1.3417,1.0645,-44.9379,-12.6201,24,0.054,8190,3.9523,122.6997
lg,1625413946217399496,0,0.5723,-0.2605,0.8052,626,7.6904,-10.8643,-5.0049,97,1.3407,1.0635,-44.9691,-12.455,24,0.054,8432,3.9523,122.7304
lg,1625413946217415681,0,0.5798,-0.2781,0.8,627,6.958,-11.1694,-4.9438,97,1.3417,1.0645,-44.99,-12.34,24,0.054,8231,3.9523,122.8331
lg,1625413946217444662,0,0.5991,-0.2593,0.8059,628,6.5918,-10.3149,-3.418,97,1.3407,1.0645,-45.0313,-12.2789,24,0.054,12411,3.9523,122.9457
lg,1625413946217462736,0,0.6086,-0.2595,0.8176,629,5.249,-9.3384,-3.9062,97,1.3407,1.0645,-45.0393,-12.2359,24,0.054,8543,3.9523,123.0134
lg,1625413946217479940,0,0.6165,-0.2546,0.8257,630,5.3101,-8.2397,-3.9673,82,1.3407,1.0645,-44.9793,-12.1302,24,0.054,8357,3.9688,123.0297
lg,1625413946217497273,0,0.5854,-0.2458,0.8169,631,5.6152,-7.9346,-4.0894,82,1.3407,1.0645,-44.9002,-12.0224,24,0.053,8953,3.9688,123.0473
lg,1625413946217514033,0,0.5835,-0.2732,0.8354,632,4.0894,-7.2021,-4.8218,82,1.3407,1.0645,-44.7705,-12.0104,24,0.054,8296,3.9688,123.0648
lg,1625413946217530551,0,0.5864,-0.2729,0.8062,633,4.8828,-6.1646,-5.4932,82,1.3387,1.0645,-44.651,-11.9566,24,0.054,8358,3.9688,123.0497
lg,1625413946217547496,0,0.5686,-0.2832,0.8162,634,5.0659,-5.9814,-6.1035,82,1.3397,1.0635,-44.4884,-11.8971,24,0.054,9796,3.9688,123.0173
lg,1625413946217563699,0,0.5627,-0.2654,0.8025,635,5.0659,-7.5684,-7.1411,82,1.3407,1.0645,-44.3348,-11.7791,24,0.054,8447,3.9688,122.9232
lg,1625413946217580255,0,0.5085,-0.2595,0.8223,636,6.6528,-7.3242,-6.7139,82,1.3397,1.0645,-44.1294,-11.5852,24,0.053,8429,3.9688,122.8296
lg,1625413946217596384,0,0.5325,-0.2725,0.8164,637,4.6997,-13.7939,-5.8594,82,1.3407,1.0645,-44.2254,-11.6007,24,0.053,8412,3.9688,122.8881
lg,1625413946217613662,0,0.5623,-0.2749,0.8103,638,4.9438,-13.1836,-2.3193,82,1.3407,1.0645,-44.3261,-11.7444,24,0.054,8443,3.9688,123.1397
lg,1625413946217630625,0,0.5554,-0.2651,0.8052,639,5.3711,-13.855,-0.7935,82,1.3407,1.0645,-44.4712,-11.8596,24,0.053,8478,3.9688,123.4311
lg,1625413946217647514,0,0.5901,-0.2717,0.8152,640,5.0049,-14.5874,0.5493,82,1.3397,1.0645,-44.6365,-12.0972,24,0.053,9318,3.9688,123.8417
lg,1625413946567860718,0,0.5981,-0.2556,0.7939,641,7.019,-9.6436,0.6714,82,1.3417,1.0645,-44.6455,-12.1794,24,0.053,26415,3.9688,124.1748
lg,1625413946567953255,0,0.6094,-0.2605,0.7937,642,5.7373,-7.6294,1.6479,82,1.3407,1.0655,-44.5859,-12.3432,24,0.053,8979,3.9688,124.5448
lg,1625413946567989106,0,0.5759,-0.2524,0.8103,643,4.8828,-5.0049,2.6245,82,1.3407,1.0645,-44.3402,-12.5148,24,0.053,8455,3.9688,124.9073
lg,1625413946568018773,0,0.5989,-0.2827,0.7905,644,5.3101,-5.9814,2.3193,82,1.3417,1.0655,-44.1582,-12.6177,24,0.053,10693,3.9688,125.2345
lg,1625413946568047755,0,0.583,-0.2666,0.7917,645,6.8359,-4.7607,1.0376,82,1.3407,1.0655,-43.9645,-12.6912,24,0.053,7911,3.9688,125.5366
lg,1625413946568074866,0,0.562,-0.2463,0.8127,646,5.7373,-7.3242,0.3662,82,1.3417,1.0645,-43.8252,-12.7253,24,0.054,7921,3.9688,125.7774
lg,1625413946568102125,0,0.5618,-0.259,0.8079,647,5.6152,-8.1787,0.2441,82,1.3417,1.0645,-43.7874,-12.7602,24,0.054,7938,3.9688,126.0169
lg,1625413946568129403,0,0.5898,-0.2698,0.8154,648,5.4932,-9.0942,0.1831,82,1.3417,1.0645,-43.7655,-12.8718,24,0.053,9238,3.9688,126.3112
lg,1625413946568156866,0,0.5811,-0.2683,0.8098,649,6.7749,-8.7891,-1.0376,82,1.3417,1.0645,-43.7349,-12.8812,24,0.053,8878,3.9688,126.534
lg,1625413946568184199,0,0.6018,-0.2705,0.7957,650,5.249,-9.9487,-0.6104,82,1.3417,1.0645,-43.7998,-12.9929,24,0.053,8666,3.9688,126.8053
lg,1625413946568211384,0,0.6011,-0.2639,0.8018,651,5.0659,-8.7891,0.1831,82,1.3417,1.0645,-43.8026,-13.1031,24,0.052,8206,3.9688,127.0858
lg,1625413946568237625,0,0.5823,-0.2747,0.8049,652,4.6997,-6.958,0.7935,82,1.3427,1.0645,-43.6769,-13.244,24,0.053,8099,3.9688,127.4259
lg,1625413946568263718,0,0.605,-0.2559,0.8013,653,5.7983,-7.2021,2.3193,82,1.3417,1.0655,-43.6123,-13.3563,24,0.053,8104,3.9688,127.7781
lg,1625413946568290255,0,0.5867,-0.2605,0.7957,654,5.3711,-5.3711,2.1362,82,1.3417,1.0655,-43.4541,-13.4774,24,0.053,8112,3.9688,128.1074
lg,1625413946568315681,0,0.6006,-0.2744,0.7979,655,4.1504,-5.3101,2.5635,82,1.3417,1.0645,-43.313,-13.6928,24,0.053,8159,3.9688,128.4798
lg,1625413946568341903,0,0.5996,-0.283,0.8147,656,5.0659,-4.9438,2.3804,82,1.3407,1.0645,-43.0709,-13.7572,24,0.053,9100,3.9688,128.7663
lg,1625413946568395292,0,0.5771,-0.2388,0.7935,657,5.5542,-3.8452,2.4414,82,1.3407,1.0655,-42.8629,-13.8138,24,0.053,9595,3.9688,129.0537
lg,1625413946568426551,0,0.5908,-0.259,0.8054,658,4.8218,-5.4932,1.8311,82,1.3407,1.0645,-42.721,-13.908,24,0.053,10129,3.9688,129.3407
lg,1625413946568453199,0,0.5684,-0.2773,0.814,659,4.4556,-6.2866,1.8921,82,1.3397,1.0645,-42.5735,-14.0695,24,0.053,8248,3.9688,129.6712
lg,1625413946568479644,0,0.5608,-0.2629,0.7993,660,4.8218,-5.4321,1.709,82,1.3417,1.0625,-42.4078,-14.1668,24,0.053,8270,3.9688,129.9565
lg,1625413946568505051,0,0.5725,-0.2737,0.8013,661,4.3945,-6.6528,1.2817,82,1.3417,1.0655,-42.3153,-14.3,24,0.054,8541,3.9688,130.2512
lg,1625413946568530273,0,0.5759,-0.2632,0.801,662,5.4321,-7.3853,1.4648,82,1.3417,1.0645,-42.262,-14.3688,24,0.054,8305,3.9688,130.541
lg,1625413946568556403,0,0.5449,-0.2563,0.802,663,4.5166,-8.9722,1.4648,82,1.3397,1.0645,-42.2156,-14.4673,24,0.053,8364,3.9688,130.8381
lg,1625413946568584051,0,0.5574,-0.2747,0.8145,664,4.6387,-12.5122,2.8687,82,1.3417,1.0645,-42.2955,-14.6798,24,0.053,8406,3.9688,131.2827
lg,1625413946568612273,0,0.5562,-0.2766,0.8076,665,4.2114,-14.4653,4.1504,82,1.3417,1.0645,-42.438,-14.9779,24,0.054,8401,3.9688,131.8266
lg,1625413946568640588,0,0.5767,-0.2634,0.812,666,3.6621,-14.1602,4.5166,82,1.3407,1.0645,-42.5932,-15.2554,24,0.054,8419,3.9688,132.3521
lg,1625413946568666921,0,0.5806,-0.2717,0.8003,667,5.188,-14.0991,5.0659,82,1.3407,1.0645,-42.7508,-15.5168,24,0.054,8465,3.9688,132.9251
lg,1625413946568692014,0,0.5862,-0.2588,0.812,668,5.127,-12.6953,4.1504,82,1.3417,1.0655,-42.8569,-15.6779,24,0.053,8495,3.9688,133.3927
lg,1625413946568718718,0,0.5671,-0.2625,0.7886,669,4.5776,-14.0991,3.8452,82,1.3417,1.0655,-43.0074,-15.8925,24,0.053,8505,3.9688,133.8856
lg,1625413946568744273,0,0.5671,-0.2769,0.8005,670,4.8828,-14.0991,3.9673,82,1.3427,1.0655,-43.1301,-16.1238,24,0.053,8506,3.9688,134.4035
lg,1625413946568770069,0,0.552,-0.2812,0.8059,671,4.7607,-14.7095,4.3335,82,1.3397,1.0655,-43.2304,-16.381,24,0.053,8680,3.9688,134.9528
lg,1625413946568815532,0,0.5559,-0.2661,0.7839,672,5.3101,-18.5547,3.479,82,1.3427,1.0645,-43.5194,-16.596,24,0.053,8760,3.9688,135.498
lg,1625413946946724347,0,0.6108,-0.2786,0.7844,673,5.0049,-23.3765,2.3804,82,1.3427,1.0655,-44.0851,-16.8673,24,0.054,25864,3.9688,136.0865
lg,1625413946946760106,0,0.6108,-0.2791,0.7893,674,5.3711,-23.1323,2.3193,82,1.3417,1.0655,-44.6117,-17.115,24,0.053,10118,3.9688,136.6687
lg,1625413946946781180,0,0.6201,-0.2998,0.7883,675,6.1035,-22.3999,2.2583,82,1.3427,1.0655,-45.0982,-17.383,24,0.053,11968,3.9688,137.2815
lg,1625413946946800384,0,0.5969,-0.2788,0.7961,676,5.9814,-21.1182,2.0752,82,1.3417,1.0655,-45.4756,-17.563,24,0.053,7911,3.9688,137.8155
lg,1625413946946818884,0,0.6431,-0.2922,0.7815,677,6.1035,-21.5454,3.1128,82,1.3417,1.0655,-45.9321,-17.836,24,0.052,7898,3.9688,138.4536
lg,1625413946946836828,0,0.6409,-0.2805,0.7971,678,5.9204,-20.3857,2.1362,82,1.3417,1.0655,-46.2576,-17.9529,24,0.052,7961,3.9688,138.9599
lg,1625413946946854014,0,0.6514,-0.2837,0.7808,679,8.3618,-16.6016,2.3804,82,1.3417,1.0655,-46.472,-18.0434,24,0.052,8942,3.9688,139.4732
lg,1625413946946871254,0,0.644,-0.2854,0.7883,680,10.9863,-13.2446,3.0518,82,1.3407,1.0645,-46.5701,-17.9803,24,0.051,8160,3.9688,139.9402
lg,1625413946946891754,0,0.6506,-0.2671,0.7756,681,11.0474,-11.3525,4.0283,82,1.3407,1.0645,-46.6155,-17.8908,24,0.051,7955,3.9688,140.3985
lg,1625413946946910828,0,0.6265,-0.2646,0.7942,682,10.1318,-9.2163,4.3945,82,1.3417,1.0655,-46.3817,-17.815,24,0.052,8356,3.9688,140.8324
lg,1625413946946928773,0,0.5918,-0.2622,0.7856,683,9.2773,-5.249,5.6152,82,1.3407,1.0655,-46.0737,-17.76,24,0.053,8005,3.9688,141.2533
lg,1625413946946946921,0,0.5974,-0.2505,0.7808,684,8.8501,-8.1177,7.6904,82,1.3427,1.0655,-45.8813,-17.8087,24,0.053,8016,3.9688,141.8158
lg,1625413946946965551,0,0.6157,-0.2766,0.7795,685,6.958,-7.6904,9.3994,82,1.3417,1.0655,-45.696,-18.0691,24,0.053,8039,3.9688,142.5217
lg,1625413946946983551,0,0.6179,-0.2744,0.7952,686,7.9956,-8.7891,9.5215,82,1.3407,1.0645,-45.5269,-18.2705,24,0.053,8066,3.9688,143.2248
lg,1625413946947001773,0,0.6001,-0.281,0.7847,687,8.1787,-8.1177,9.2773,82,1.3417,1.0655,-45.3197,-18.4655,24,0.052,8076,3.9688,143.9166
lg,1625413946947041273,0,0.5981,-0.2932,0.7932,688,8.8501,-8.728,8.4839,82,1.3427,1.0655,-45.1337,-18.6267,24,0.052,8160,3.9688,144.5881
lg,1625413946947060958,0,0.5884,-0.3088,0.7944,689,9.5825,-9.4604,7.6904,82,1.3407,1.0645,-44.9668,-18.7731,24,0.053,8115,3.9688,145.2558
lg,1625413946947077995,0,0.5916,-0.2988,0.7935,690,11.3525,-11.5356,7.2632,82,1.3417,1.0655,-44.8997,-18.8234,24,0.052,8170,3.9688,145.9131
lg,1625413946947095699,0,0.6028,-0.2983,0.7722,691,11.2305,-11.7798,6.3477,82,1.3427,1.0655,-44.9013,-18.8653,24,0.053,8190,3.9688,146.5391
lg,1625413946947112773,0,0.603,-0.2942,0.7842,692,11.7798,-13.1226,6.4697,82,1.3437,1.0645,-44.9696,-18.8638,24,0.052,8192,3.9688,147.1654
lg,1625413946947129606,0,0.6211,-0.2834,0.7915,693,11.5967,-12.085,5.7983,82,1.3397,1.0625,-45.0015,-18.8094,24,0.052,8241,3.9688,147.7214
lg,1625413946947146254,0,0.625,-0.292,0.7869,694,12.2681,-11.0474,6.5308,82,1.3417,1.0655,-44.9928,-18.7743,24,0.054,9457,3.9688,148.3201
lg,1625413946947162699,0,0.6011,-0.2727,0.7844,695,12.8784,-8.9111,8.2397,82,1.3417,1.0655,-44.8521,-18.6992,24,0.053,13923,3.9688,148.9333
lg,1625413946947179477,0,0.6177,-0.2715,0.782,696,12.2681,-9.0942,8.8501,82,1.3417,1.0655,-44.7739,-18.6358,24,0.053,8309,3.9688,149.5553
lg,1625413946947196791,0,0.6296,-0.2615,0.7754,697,10.9863,-9.3384,10.437,82,1.3417,1.0655,-44.6958,-18.7027,24,0.052,8358,3.9688,150.2782
lg,1625413946947213366,0,0.6313,-0.2766,0.7759,698,9.6436,-7.2021,11.1694,82,1.3417,1.0655,-44.5259,-18.862,24,0.053,8346,3.9688,151.0287
lg,1625413946947230180,0,0.615,-0.2634,0.7939,699,12.085,-6.5918,10.9253,82,1.3427,1.0655,-44.2974,-18.8409,24,0.053,8382,3.9688,151.7086
lg,1625413946947247014,0,0.6089,-0.2786,0.8047,700,11.9019,-5.6763,10.9253,82,1.3417,1.0655,-44.014,-18.8453,24,0.053,8600,3.9688,152.3928
lg,1625413946947263458,0,0.6174,-0.2671,0.7625,701,12.7563,-7.2632,8.728,82,1.3407,1.0655,-43.9015,-18.7606,24,0.054,8839,3.9688,152.9939
lg,1625413946947280032,0,0.6006,-0.261,0.7959,702,12.7563,-8.3618,7.2632,82,1.3417,1.0655,-43.786,-18.5872,24,0.054,8430,3.9688,153.5031
lg,1625413946947309106,0,0.6023,-0.259,0.7886,703,11.2915,-7.3853,5.6763,82,1.3427,1.0655,-43.6723,-18.4096,24,0.053,8492,3.9688,153.916
lg,1625413946947328088,0,0.5955,-0.2585,0.7886,704,11.4136,-9.4604,5.0659,82,1.3417,1.0655,-43.6301,-18.2863,24,0.053,8477,3.9688,154.372
lg,1625413947311624476,0,0.564,-0.2834,0.7798,705,8.7891,-11.4746,2.0752,82,1.3407,1.0645,-43.6551,-18.2192,24,0.053,24891,3.9688,154.7305
lg,1625413947311673625,0,0.5801,-0.2939,0.7668,706,9.0942,-15.4419,1.5869,82,1.3427,1.0655,-43.8761,-18.2171,24,0.054,8794,3.9688,155.1652
lg,1625413947311694199,0,0.5986,-0.3049,0.7793,707,8.5449,-16.9678,1.3428,82,1.3417,1.0655,-44.1624,-18.2667,24,0.053,7970,3.9688,155.6283
lg,1625413947311714365,0,0.6011,-0.3018,0.7776,708,10.1929,-18.2495,1.9531,82,1.3427,1.0655,-44.4855,-18.2832,24,0.053,11931,3.9688,156.1432
lg,1625413947311733513,0,0.6113,-0.2905,0.7839,709,11.7798,-17.8223,2.1362,82,1.3427,1.0655,-44.7923,-18.2012,24,0.052,10243,3.9688,156.6346
lg,1625413947311752513,0,0.6045,-0.262,0.7693,710,12.4512,-17.2729,3.1128,82,1.3427,1.0655,-45.0724,-18.0595,24,0.052,7912,3.9688,157.1235
lg,1625413947311770550,0,0.6218,-0.2646,0.7712,711,12.3901,-17.0288,3.54,82,1.3417,1.0655,-45.3545,-17.9477,24,0.052,8079,3.9688,157.6403
lg,1625413947311791550,0,0.6379,-0.2832,0.7747,712,10.9253,-16.7236,3.3569,82,1.3417,1.0655,-45.6324,-17.9421,24,0.052,7984,3.9688,158.1834
lg,1625413947311809810,0,0.6431,-0.2871,0.7725,713,11.0474,-14.7095,2.9907,82,1.3417,1.0665,-45.8376,-17.9086,24,0.051,8833,3.9688,158.6831
lg,1625413947311829550,0,0.6345,-0.2976,0.7849,714,12.5732,-13.5498,2.3193,82,1.3407,1.0655,-45.9656,-17.7949,24,0.051,8274,3.9688,159.141
lg,1625413947311847347,0,0.6411,-0.2766,0.7778,715,12.9395,-10.9863,1.3428,82,1.3417,1.0665,-46.0324,-17.5458,24,0.051,8005,3.9688,159.4631
lg,1625413947311865495,0,0.6318,-0.2566,0.7644,716,14.0991,-9.8877,0.9155,82,1.3417,1.0665,-46.0706,-17.1834,24,0.051,12175,3.9688,159.7148
lg,1625413947311885939,0,0.6101,-0.2595,0.7659,717,12.5122,-9.9487,0.3662,82,1.3417,1.0665,-46.0763,-16.8858,24,0.052,8039,3.9688,159.9522
lg,1625413947312004032,0,0.6318,-0.2649,0.7659,718,12.2681,-10.8032,1.6479,82,1.3417,1.0665,-46.1359,-16.6864,24,0.053,8052,3.9688,160.2933
lg,1625413947312040328,0,0.626,-0.2766,0.7634,719,11.2915,-9.9487,1.8311,82,1.3427,1.0665,-46.1478,-16.5695,24,0.051,8131,3.9688,160.6632
lg,1625413947312058180,0,0.6106,-0.2849,0.7791,720,11.9019,-9.8267,3.1738,82,1.3427,1.0665,-46.0905,-16.4953,24,0.051,8095,3.9688,161.1161
lg,1625413947312078032,0,0.6216,-0.2795,0.7639,721,12.207,-10.1318,2.6855,82,1.3417,1.0665,-46.0527,-16.4292,24,0.051,8961,3.9688,161.559
lg,1625413947312098513,0,0.6326,-0.2866,0.7764,722,12.5732,-9.5825,3.1128,82,1.3407,1.0655,-46.0318,-16.342,24,0.051,8721,3.9688,162.0174
lg,1625413947312117550,0,0.6228,-0.2761,0.7805,723,12.6343,-8.667,3.0518,82,1.3397,1.0655,-45.96,-16.1991,24,0.05,8286,3.9688,162.4281
lg,1625413947312136069,0,0.6208,-0.2673,0.7732,724,11.9019,-8.3008,1.9531,82,1.3417,1.0655,-45.8989,-16.0234,24,0.05,8230,3.9688,162.7611
lg,1625413947312153828,0,0.6133,-0.2634,0.7639,725,12.3291,-8.3008,2.8076,82,1.3407,1.0665,-45.8124,-15.901,24,0.051,8248,3.9688,163.1138
lg,1625413947312173421,0,0.6252,-0.2612,0.7808,726,11.6577,-8.3618,2.7466,82,1.3407,1.0655,-45.7521,-15.7519,24,0.05,8254,3.9688,163.4794
lg,1625413947312196791,0,0.6233,-0.2703,0.7705,727,10.0708,-8.4839,1.9531,82,1.3427,1.0665,-45.7144,-15.6787,24,0.049,8301,3.9688,163.8333
lg,1625413947312219773,0,0.6252,-0.2576,0.7717,728,10.1318,-8.0566,2.1973,82,1.3417,1.0665,-45.6659,-15.5709,24,0.05,8304,3.9688,164.1668
lg,1625413947312236699,0,0.6143,-0.2607,0.7739,729,10.7422,-7.5073,2.0752,82,1.3417,1.0675,-45.6287,-15.4403,24,0.05,8336,3.9688,164.4935
lg,1625413947312255458,0,0.6377,-0.2786,0.7673,730,10.3149,-7.8125,3.0518,82,1.3417,1.0665,-45.5857,-15.431,24,0.05,9466,3.9688,164.9235
lg,1625413947312271995,0,0.6543,-0.2603,0.7744,731,10.1929,-6.4087,3.3569,82,1.3417,1.0635,-45.501,-15.3744,23,0.049,10203,3.9688,165.3135
lg,1625413947312289291,0,0.6294,-0.2539,0.7703,732,9.3994,-3.2959,2.8687,82,1.3407,1.0665,-45.283,-15.2706,23,0.049,8371,3.9688,165.6101
lg,1625413947312322439,0,0.623,-0.2695,0.7773,733,10.498,-6.2256,2.0752,82,1.3427,1.0665,-45.1693,-15.1672,23,0.048,8430,3.9688,165.9383
lg,1625413947312342680,0,0.6147,-0.2786,0.7747,734,10.0098,-4.3945,1.8311,82,1.3417,1.0665,-44.9788,-15.0879,24,0.049,8443,3.9688,166.2492
lg,1625413947312359569,0,0.6047,-0.248,0.7603,735,9.5825,-4.7607,1.8311,82,1.3427,1.0665,-44.8018,-14.9425,24,0.048,8494,3.9688,166.5029
lg,1625413947312378495,0,0.6038,-0.2688,0.7854,736,8.728,-7.0801,2.1973,82,1.3407,1.0665,-44.6962,-14.9248,24,0.048,8495,3.9688,166.8496
lg,1625413947670876513,0,0.6379,-0.2549,0.77,737,6.5308,-6.3477,0.6104,82,1.3427,1.0675,-44.6664,-14.8962,24,0.048,24967,3.9688,167.0773
lg,1625413947670912476,0,0.6355,-0.2542,0.7781,738,6.2256,-4.3945,0.1831,82,1.3427,1.0665,-44.5529,-14.835,24,0.048,9993,3.9688,167.2473
lg,1625413947670932865,0,0.6042,-0.2488,0.7722,739,5.7983,-3.9062,-0.6104,95,1.3427,1.0675,-44.3885,-14.7496,24,0.048,8487,3.9545,167.3624
lg,1625413947670952198,0,0.624,-0.28,0.7878,740,4.5776,-5.5542,-1.3428,95,1.3417,1.0675,-44.3059,-14.7806,24,0.048,9223,3.9545,167.5167
lg,1625413947670970698,0,0.6108,-0.2646,0.7786,741,4.8828,-4.2114,-1.4038,95,1.3417,1.0665,-44.1693,-14.7471,24,0.048,8039,3.9545,167.6226
lg,1625413947670988698,0,0.6167,-0.2544,0.7649,742,4.7607,-5.127,-1.6479,95,1.3417,1.0675,-44.1071,-14.7011,24,0.048,7820,3.9545,167.7158
lg,1625413947671006013,0,0.6072,-0.2439,0.78,743,4.1504,-5.4932,-1.8311,95,1.3427,1.0675,-44.0305,-14.6338,24,0.049,7860,3.9545,167.7744
lg,1625413947671023439,0,0.6167,-0.2507,0.7778,744,3.6621,-6.5308,-2.3804,95,1.3417,1.0675,-44.0196,-14.5997,24,0.049,7915,3.9545,167.8346
lg,1625413947671041106,0,0.6226,-0.2561,0.7761,745,1.9531,-4.9438,-2.2583,95,1.3427,1.0675,-43.9576,-14.6408,24,0.049,8865,3.9545,167.8915
lg,1625413947671058291,0,0.6116,-0.2622,0.7776,746,2.9297,-6.958,-2.6855,95,1.3427,1.0675,-43.9898,-14.6822,24,0.049,7913,3.9545,167.9958
lg,1625413947671075624,0,0.6357,-0.2671,0.7778,747,2.8687,-6.2866,-2.4414,95,1.3427,1.0675,-43.9992,-14.7191,24,0.049,8124,3.9545,168.0803
lg,1625413947671104310,0,0.6287,-0.2656,0.7747,748,2.7466,-4.5776,-1.8921,95,1.3407,1.0665,-43.9294,-14.7624,24,0.049,9858,3.9545,168.1687
lg,1625413947671122661,0,0.655,-0.2812,0.7832,749,3.6011,-4.8218,-1.0376,95,1.3417,1.0665,-43.8916,-14.8382,24,0.049,8062,3.9545,168.3291
lg,1625413947671139902,0,0.6328,-0.2854,0.7749,750,4.5776,-0.5493,-1.0376,95,1.3417,1.0665,-43.6628,-14.8518,24,0.049,8202,3.9545,168.4417
lg,1625413947671156865,0,0.6321,-0.2646,0.7825,751,5.3711,0.061,-0.8545,95,1.3417,1.0675,-43.4081,-14.7724,24,0.049,8028,3.9545,168.5114
lg,1625413947671174217,0,0.6172,-0.2773,0.79,752,5.4321,0.5493,-0.4883,95,1.3407,1.0675,-43.1072,-14.7281,24,0.05,7951,3.9545,168.6132
lg,1625413947671192291,0,0.627,-0.241,0.7744,753,5.7373,1.2817,0.061,95,1.3427,1.0675,-42.8333,-14.5943,24,0.051,8004,3.9545,168.671
lg,1625413947671210513,0,0.5967,-0.25,0.7776,754,5.7983,1.3428,0.1221,95,1.3427,1.0675,-42.4864,-14.4712,24,0.05,8051,3.9545,168.7389
lg,1625413947671228310,0,0.6147,-0.2476,0.7905,755,5.249,0.9766,0.4883,95,1.3407,1.0675,-42.2006,-14.3913,24,0.05,8117,3.9545,168.8338
lg,1625413947671245606,0,0.6133,-0.2556,0.7891,756,4.6387,0.3052,1.1597,95,1.3427,1.0675,-41.9421,-14.3921,24,0.049,8022,3.9545,168.9906
lg,1625413947671262717,0,0.604,-0.2561,0.7866,757,4.5166,0.061,1.4038,95,1.3427,1.0665,-41.7259,-14.4897,24,0.05,8124,3.9545,169.1935
lg,1625413947671280680,0,0.6128,-0.281,0.7866,758,3.6621,-0.9155,1.4648,95,1.3407,1.0655,-41.524,-14.6181,24,0.05,8184,3.9545,169.4267
lg,1625413947671298069,0,0.6089,-0.2683,0.7917,759,3.1128,0.4272,1.3428,95,1.3427,1.0675,-41.27,-14.7062,24,0.051,8192,3.9545,169.6041
lg,1625413947671315865,0,0.6111,-0.2812,0.7798,760,4.3335,-0.061,1.2207,95,1.3427,1.0675,-41.0056,-14.7425,24,0.051,8194,3.9545,169.7961
lg,1625413947671332939,0,0.5947,-0.2759,0.7891,761,5.0659,1.2207,2.1362,95,1.3407,1.0665,-40.7092,-14.7896,24,0.051,8389,3.9545,170.0137
lg,1625413947671349495,0,0.6167,-0.2673,0.7856,762,6.8359,0.2441,1.8311,95,1.3427,1.0675,-40.511,-14.7387,24,0.052,12036,3.9545,170.2112
lg,1625413947671376495,0,0.6018,-0.2661,0.7966,763,7.2632,0.4272,2.0752,95,1.3427,1.0675,-40.2621,-14.6247,24,0.052,8984,3.9545,170.3582
lg,1625413947671394272,0,0.6162,-0.2502,0.8096,764,7.4463,1.4648,1.709,95,1.3427,1.0675,-40.0111,-14.4738,24,0.053,8276,3.9545,170.4925
lg,1625413947671410884,0,0.6147,-0.2747,0.8057,765,6.2866,2.0752,1.3428,95,1.3427,1.0675,-39.7452,-14.4269,24,0.051,8375,3.9545,170.6485
lg,1625413947671427347,0,0.5872,-0.2444,0.7932,766,7.0801,4.2725,1.0986,95,1.3427,1.0675,-39.3836,-14.2535,24,0.051,8409,3.9545,170.7189
lg,1625413947671443976,0,0.5657,-0.2537,0.8076,767,6.1035,0.5493,0.5493,95,1.3427,1.0675,-39.1258,-14.1542,24,0.051,10147,3.9545,170.8235
lg,1625413947671461180,0,0.5735,-0.2449,0.792,768,4.2725,-2.6855,0.1831,95,1.3417,1.0665,-39.0427,-14.1334,24,0.051,9178,3.9545,170.9447
lg,1625413948042127291,0,0.5952,-0.2551,0.7839,769,3.3569,-7.9956,-1.77,95,1.3427,1.0675,-39.2331,-14.1638,24,0.051,24419,3.9545,171.057
lg,1625413948042163550,0,0.5745,-0.2856,0.7957,770,2.4414,-8.1177,-2.9907,95,1.3427,1.0675,-39.3711,-14.2682,24,0.051,9755,3.9545,171.1582
lg,1625413948042183828,0,0.5896,-0.2793,0.7981,771,1.8311,-8.8501,-3.479,95,1.3407,1.0675,-39.5629,-14.3625,24,0.051,7921,3.9545,171.2294
lg,1625413948042203309,0,0.6118,-0.2849,0.7959,772,3.1128,-9.5215,-2.8076,95,1.3437,1.0675,-39.8064,-14.4442,24,0.051,10640,3.9545,171.3516
lg,1625413948042223957,0,0.6204,-0.2812,0.7915,773,4.3335,-9.7046,-2.9907,95,1.3437,1.0675,-40.0705,-14.4635,24,0.052,10475,3.9545,171.4617
lg,1625413948042242013,0,0.625,-0.2705,0.8059,774,4.2114,-6.6528,-2.7466,95,1.3437,1.0675,-40.1977,-14.4279,24,0.051,8226,3.9545,-188.4823
lg,1625413948042259383,0,0.613,-0.2495,0.7944,775,5.6152,-3.7842,-1.4038,95,1.3437,1.0675,-40.1962,-14.3109,24,0.05,9605,3.9545,-188.4252
lg,1625413948042276994,0,0.6167,-0.2627,0.8054,776,5.7983,-4.7607,-1.4038,95,1.3437,1.0675,-40.2211,-14.2263,24,0.051,7925,3.9545,-188.335
lg,1625413948042293365,0,0.5903,-0.2439,0.7961,777,5.3101,-4.0894,-1.5259,95,1.3427,1.0675,-40.1911,-14.1127,24,0.052,9002,3.9545,-188.2853
lg,1625413948042331013,0,0.5852,-0.2715,0.7798,778,4.2114,-4.5166,-1.4038,95,1.3417,1.0665,-40.1804,-14.1462,24,0.051,8187,3.9545,-188.1617
lg,1625413948042348735,0,0.5793,-0.2761,0.7927,779,4.8218,-6.4697,-1.77,95,1.3417,1.0675,-40.2208,-14.1605,24,0.052,8039,3.9545,-188.0309
lg,1625413948042365902,0,0.5789,-0.2671,0.7903,780,4.7607,-7.2021,-2.5024,95,1.3417,1.0675,-40.2999,-14.1359,24,0.051,8061,3.9545,-187.943
lg,1625413948042382624,0,0.5854,-0.2664,0.7944,781,5.3711,-9.4604,-2.9297,95,1.3437,1.0675,-40.4741,-14.0865,24,0.052,8059,3.9545,-187.851
lg,1625413948042399328,0,0.5723,-0.2603,0.792,782,3.479,-7.7515,-3.1128,95,1.3437,1.0685,-40.5582,-14.0806,24,0.052,8050,3.9545,-187.7978
lg,1625413948042415698,0,0.6069,-0.2646,0.7878,783,4.0894,-10.0708,-3.1738,95,1.3427,1.0675,-40.7998,-14.1073,24,0.051,8109,3.9545,-187.6943
lg,1625413948042433643,0,0.6057,-0.2891,0.7815,784,4.0894,-10.437,-3.1128,95,1.3437,1.0675,-41.039,-14.1855,24,0.051,10764,3.9545,-187.5487
lg,1625413948042451957,0,0.6201,-0.2659,0.7605,785,5.188,-9.1553,-3.6011,95,1.3437,1.0675,-41.2838,-14.1421,24,0.052,8423,3.9545,-187.4774
lg,1625413948042469402,0,0.6108,-0.2671,0.7854,786,5.4321,-8.9722,-1.9531,95,1.3437,1.0675,-41.4365,-14.1976,24,0.051,8169,3.9545,-187.2866
lg,1625413948042485920,0,0.6245,-0.2954,0.7925,787,5.127,-7.5684,-3.7231,95,1.3427,1.0675,-41.5629,-14.192,24,0.051,8216,3.9545,-187.2057
lg,1625413948042502513,0,0.5959,-0.281,0.7854,788,5.7983,-6.5308,-3.6011,95,1.3437,1.0675,-41.6063,-14.1256,24,0.05,8247,3.9545,-187.1512
lg,1625413948042519013,0,0.603,-0.2686,0.7732,789,6.4087,-7.5684,-3.2959,95,1.3417,1.0665,-41.717,-14.0318,24,0.051,8357,3.9545,-187.0827
lg,1625413948042535957,0,0.6018,-0.2869,0.8,790,5.9814,-7.7515,-3.418,95,1.3427,1.0665,-41.8292,-13.9656,24,0.052,8257,3.9545,-187.0092
lg,1625413948042552439,0,0.6001,-0.2878,0.7979,791,5.8594,-6.7749,-3.1738,95,1.3417,1.0675,-41.8575,-13.9304,24,0.051,8278,3.9545,-186.9181
lg,1625413948042569198,0,0.616,-0.2649,0.7874,792,5.4932,-5.3101,-3.418,95,1.3427,1.0675,-41.8783,-13.8329,24,0.052,8385,3.9545,-186.8965
lg,1625413948042585754,0,0.5957,-0.2747,0.7808,793,6.2866,-7.5684,-2.3804,95,1.3437,1.0675,-41.9452,-13.7992,24,0.051,8345,3.9545,-186.7648
lg,1625413948042615087,0,0.5801,-0.2783,0.8069,794,5.8594,-7.9346,-2.6855,95,1.3427,1.0675,-41.9654,-13.7657,24,0.05,8466,3.9545,-186.6504
lg,1625413948042632772,0,0.614,-0.2551,0.7673,795,5.6152,-7.9346,-2.0752,95,1.3417,1.0675,-42.0959,-13.729,24,0.051,8416,3.9545,-186.5275
lg,1625413948042649032,0,0.6145,-0.2883,0.78,796,6.1646,-9.4604,-2.7466,95,1.3437,1.0645,-42.2609,-13.7451,24,0.051,8430,3.9545,-186.3622
lg,1625413948042665420,0,0.6248,-0.2622,0.7927,797,6.0425,-7.6904,-2.3193,95,1.3437,1.0675,-42.3565,-13.6796,24,0.051,8465,3.9545,-186.2552
lg,1625413948042681587,0,0.6047,-0.2578,0.7732,798,6.5308,-5.8594,-3.2959,95,1.3417,1.0665,-42.3782,-13.5532,24,0.05,8436,3.9545,-186.2173
lg,1625413948042697809,0,0.6199,-0.2573,0.7864,799,6.1646,-7.2021,-4.2725,95,1.3417,1.0675,-42.4698,-13.4087,24,0.05,8516,3.9545,-186.2206
lg,1625413948042714309,0,0.6016,-0.2505,0.7815,800,5.7983,-5.127,-3.7231,95,1.3437,1.0675,-42.4486,-13.2728,24,0.05,8486,3.9545,-186.2268
lg,1625413948402376828,0,0.6064,-0.25,0.7834,801,6.7749,-7.6294,-3.7231,95,1.3427,1.0675,-42.5351,-13.1772,24,0.05,25324,3.9545,-186.1951
lg,1625413948402427068,0,0.6238,-0.2656,0.7761,802,5.4321,-7.1411,-2.9907,95,1.3437,1.0685,-42.6242,-13.1536,24,0.05,11257,3.9545,-186.1007
lg,1625413948402447957,0,0.6196,-0.2607,0.7979,803,5.6152,-5.249,-3.0518,95,1.3437,1.0665,-42.5773,-13.0959,24,0.049,7921,3.9545,-186.0388
lg,1625413948402467791,0,0.6086,-0.2593,0.79,804,6.3477,-5.7373,-2.8687,95,1.3437,1.0685,-42.5668,-13.0037,24,0.05,11820,3.9545,-185.9725
lg,1625413948402486865,0,0.5913,-0.2529,0.8008,805,6.2256,-3.6621,-2.4414,95,1.3427,1.0675,-42.4303,-12.8931,24,0.049,11276,3.9545,-185.9238
lg,1625413948402506457,0,0.6072,-0.2556,0.7939,806,6.4697,-6.0425,-2.1973,95,1.3437,1.0675,-42.4252,-12.8168,24,0.049,7939,3.9545,-185.8232
lg,1625413948402524846,0,0.6072,-0.2551,0.7881,807,6.8359,-6.8359,-2.0752,95,1.3437,1.0675,-42.4576,-12.7431,24,0.05,7907,3.9545,-185.7023
lg,1625413948402543346,0,0.5984,-0.2383,0.7725,808,6.897,-6.0425,-3.1738,95,1.3437,1.0685,-42.4771,-12.5892,24,0.049,7888,3.9545,-185.6714
lg,1625413948402589068,0,0.5969,-0.26,0.7986,809,5.9814,-6.4697,-3.1738,95,1.3437,1.0675,-42.5258,-12.4902,24,0.049,7917,3.9545,-185.576
lg,1625413948402609791,0,0.6135,-0.2449,0.7839,810,6.5308,-7.1411,-2.7466,95,1.3437,1.0685,-42.5916,-12.3931,24,0.049,8838,3.9545,-185.4977
lg,1625413948402627939,0,0.6038,-0.2434,0.79,811,6.7749,-7.019,-2.9907,95,1.3427,1.0675,-42.6277,-12.2724,24,0.049,8549,3.9545,-185.4368
lg,1625413948402645365,0,0.6133,-0.2222,0.7983,812,5.7983,-6.5918,-2.2583,95,1.3437,1.0675,-42.6513,-12.1494,24,0.049,8003,3.9545,-185.3862
lg,1625413948402662809,0,0.616,-0.2356,0.7852,813,6.8359,-7.3242,-2.1362,95,1.3427,1.0655,-42.6761,-12.0691,24,0.048,8043,3.9545,-185.2872
lg,1625413948402680735,0,0.6196,-0.2307,0.7783,814,6.3477,-5.4321,-2.1362,95,1.3417,1.0685,-42.6867,-11.9671,24,0.048,8058,3.9545,-185.2116
lg,1625413948402697809,0,0.6204,-0.229,0.7937,815,6.897,-6.0425,-2.1362,95,1.3437,1.0675,-42.7024,-11.8352,24,0.048,8065,3.9545,-185.1379
lg,1625413948402714642,0,0.6079,-0.2429,0.7883,816,7.3242,-5.4932,-1.5259,95,1.3437,1.0655,-42.6406,-11.7784,24,0.048,8086,3.9545,-185.0193
lg,1625413948402731439,0,0.6116,-0.2329,0.7961,817,5.7983,-3.8452,-0.7935,95,1.3417,1.0675,-42.5424,-11.7399,24,0.047,8146,3.9545,-184.8872
lg,1625413948402748550,0,0.6082,-0.2275,0.7964,818,5.7983,-3.7231,-0.6104,95,1.3437,1.0675,-42.437,-11.6929,24,0.048,8079,3.9545,-184.7566
lg,1625413948402765087,0,0.5999,-0.2314,0.7883,819,4.6387,-3.6621,-0.5493,95,1.3437,1.0685,-42.3276,-11.7137,24,0.047,8129,3.9545,-184.6103
lg,1625413948402781457,0,0.6028,-0.2368,0.7991,820,5.127,-4.3335,-0.2441,95,1.3427,1.0675,-42.2362,-11.7367,24,0.048,8144,3.9545,-184.4367
lg,1625413948402798383,0,0.6055,-0.2205,0.7817,821,4.9438,-4.6387,-0.3662,95,1.3427,1.0675,-42.1764,-11.7594,24,0.047,10662,3.9545,-184.2701
lg,1625413948402815735,0,0.6125,-0.2378,0.8113,822,3.7842,-5.5542,-0.8545,95,1.3417,1.0675,-42.1448,-11.8134,24,0.048,8148,3.9545,-184.1222
lg,1625413948402854828,0,0.613,-0.2422,0.7908,823,3.7231,-5.127,-0.7935,95,1.3437,1.0685,-42.123,-11.8946,24,0.048,8195,3.9545,-183.9583
lg,1625413948402889920,0,0.6082,-0.2529,0.79,824,4.1504,-6.1646,-0.7935,95,1.3447,1.0685,-42.0974,-11.9825,24,0.047,8228,3.9545,-183.7967
lg,1625413948402909587,0,0.6152,-0.2437,0.7822,825,3.9673,-6.1035,-1.0376,95,1.3417,1.0655,-42.1317,-12.0565,24,0.048,8259,3.9545,-183.6318
lg,1625413948402926605,0,0.6238,-0.2598,0.79,826,4.1504,-6.1035,-0.6714,95,1.3437,1.0685,-42.1618,-12.1719,24,0.047,8293,3.9545,-183.4229
lg,1625413948402943902,0,0.613,-0.2729,0.7913,827,4.1504,-3.418,-0.7324,95,1.3437,1.0685,-42.063,-12.2977,24,0.048,8315,3.9545,-183.2252
lg,1625413948402960346,0,0.6106,-0.2561,0.7793,828,5.3711,-2.8687,-0.4883,95,1.3437,1.0685,-41.9371,-12.3461,24,0.047,8369,3.9545,-183.0436
lg,1625413948402977050,0,0.5999,-0.2483,0.7927,829,5.188,-3.6621,-0.6714,95,1.3437,1.0685,-41.8251,-12.3997,24,0.048,10369,3.9545,-182.8832
lg,1625413948402993772,0,0.6287,-0.2681,0.8008,830,4.6387,-3.2959,-0.2441,95,1.3437,1.0685,-41.7464,-12.4877,24,0.048,8788,3.9545,-182.6854
lg,1625413948403010809,0,0.5947,-0.251,0.7971,831,6.2866,-1.709,-0.3662,95,1.3437,1.0685,-41.5601,-12.4489,24,0.047,9861,3.9545,-182.5426
lg,1625413948403027939,0,0.6255,-0.2534,0.8003,832,5.7983,-1.6479,-0.5493,95,1.3437,1.0685,-41.4296,-12.4245,24,0.048,8451,3.9545,-182.4094
lg,1625413948771712235,0,0.5928,-0.2515,0.7986,833,5.249,-1.8311,-0.7324,95,1.3447,1.0685,-41.2583,-12.4174,24,0.048,23429,3.9545,-182.2838
lg,1625413948771758327,0,0.5874,-0.2341,0.8025,834,4.6997,-3.54,-0.7324,95,1.3417,1.0675,-41.1501,-12.3933,24,0.047,9226,3.9545,-182.1736
lg,1625413948771779679,0,0.6101,-0.2478,0.8066,835,5.5542,-3.9062,-0.3052,95,1.3437,1.0685,-41.0516,-12.411,24,0.049,11456,3.9545,-181.9997
lg,1625413948771799735,0,0.6089,-0.2573,0.7971,836,5.4321,-1.6479,0.061,95,1.3437,1.0685,-40.9101,-12.4373,24,0.048,8264,3.9545,-181.8262
lg,1625413948771818642,0,0.6003,-0.2432,0.8005,837,4.3945,-1.709,-0.4272,95,1.3427,1.0665,-40.7651,-12.4459,24,0.047,7957,3.9545,-181.7061
lg,1625413948771838087,0,0.5874,-0.2473,0.8091,838,4.3945,-1.77,-0.3052,95,1.3437,1.0685,-40.5924,-12.4647,24,0.048,10860,3.9545,-181.5756
lg,1625413948771889753,0,0.6001,-0.2571,0.8118,839,5.188,0.061,0.3052,95,1.3437,1.0685,-40.3669,-12.481,24,0.047,7882,3.9545,-181.4204
lg,1625413948771914105,0,0.6008,-0.2288,0.7839,840,5.9204,-0.9766,0.1831,95,1.3437,1.0685,-40.2023,-12.3856,24,0.048,7899,3.9545,-181.3219
lg,1625413948771934105,0,0.592,-0.2361,0.8083,841,6.4087,-0.7935,-0.4883,95,1.3437,1.0685,-40.0277,-12.281,24,0.048,7885,3.9545,-181.2328
lg,1625413948771951642,0,0.5938,-0.2449,0.803,842,5.8594,-1.4648,0.061,95,1.3447,1.0685,-39.8891,-12.2533,24,0.049,7926,3.9545,-181.0877
lg,1625413948771970642,0,0.5994,-0.2427,0.7971,843,4.3335,-0.7324,-0.3052,95,1.3427,1.0685,-39.7485,-12.2676,24,0.049,8386,3.9545,-180.9709
lg,1625413948771988383,0,0.5913,-0.2283,0.7991,844,5.3101,-0.4883,0,95,1.3427,1.0685,-39.6204,-12.2108,24,0.048,7985,3.9545,-180.8618
lg,1625413948772006587,0,0.5723,-0.2588,0.8142,845,4.0283,-2.6855,-0.3052,95,1.3427,1.0655,-39.4925,-12.2863,24,0.048,8020,3.9545,-180.7013
lg,1625413948772024327,0,0.5825,-0.2297,0.8064,846,4.3945,-2.7466,-0.2441,95,1.3437,1.0655,-39.4069,-12.2709,24,0.047,8058,3.9545,-180.588
lg,1625413948772042864,0,0.5762,-0.252,0.8018,847,4.8828,-3.1128,-0.3662,95,1.3437,1.0685,-39.4158,-12.3126,24,0.048,8069,3.9545,-180.4372
lg,1625413948772061401,0,0.5947,-0.2437,0.8035,848,4.6997,-4.0283,-0.6714,95,1.3427,1.0675,-39.4086,-12.3186,24,0.048,8102,3.9545,-180.3068
lg,1625413948772079513,0,0.593,-0.2346,0.8101,849,4.4556,-4.0283,-0.7935,95,1.3437,1.0655,-39.3938,-12.3005,24,0.049,8152,3.9545,-180.2017
lg,1625413948772096938,0,0.595,-0.2471,0.8186,850,4.8828,-3.7231,-0.6714,95,1.3437,1.0685,-39.3565,-12.2954,24,0.048,8154,3.9545,-180.0758
lg,1625413948772114772,0,0.5947,-0.2432,0.8037,851,4.0283,-4.4556,-1.4038,95,1.3437,1.0685,-39.3743,-12.3066,24,0.048,11995,3.9545,-179.9786
lg,1625413948772133216,0,0.5894,-0.2432,0.8093,852,4.2114,-5.6152,-1.9531,94,1.3447,1.0685,-39.4246,-12.297,24,0.047,8485,3.9545,-179.8989
lg,1625413948772151883,0,0.5933,-0.2429,0.8042,853,4.3335,-5.3101,-1.9531,94,1.3437,1.0685,-39.4558,-12.2623,24,0.047,8272,3.9545,-179.834
lg,1625413948772186161,0,0.6079,-0.2432,0.8118,854,3.9062,-4.8828,-2.1362,94,1.3447,1.0685,-39.5059,-12.252,24,0.048,8256,3.9545,-179.7728
lg,1625413948772207124,0,0.6128,-0.2554,0.7983,855,4.0894,-5.4321,-2.6245,94,1.3447,1.0685,-39.6016,-12.2657,24,0.048,8465,3.9545,-179.7023
lg,1625413948772225179,0,0.595,-0.2673,0.8237,856,4.8218,-4.9438,-2.2583,94,1.3437,1.0685,-39.6058,-12.2733,24,0.049,8333,3.9545,-179.609
lg,1625413948772242198,0,0.6033,-0.238,0.8127,857,5.127,-4.5776,-2.3804,94,1.3437,1.0685,-39.6426,-12.2331,24,0.049,8984,3.9545,-179.5446
lg,1625413948772259327,0,0.6069,-0.2615,0.8079,858,4.5166,-3.418,-2.0142,94,1.3427,1.0675,-39.6257,-12.2463,24,0.048,9211,3.9545,-179.4581
lg,1625413948772276994,0,0.5764,-0.2483,0.7908,859,5.3101,-0.8545,-2.2583,94,1.3427,1.0685,-39.482,-12.1822,24,0.049,8420,3.9545,-179.4251
lg,1625413948772294438,0,0.5566,-0.2458,0.801,860,4.8218,-3.7231,-1.77,94,1.3427,1.0675,-39.403,-12.1632,24,0.048,8414,3.9545,-179.3427
lg,1625413948772311568,0,0.5723,-0.2498,0.8159,861,4.5776,-6.1035,-1.709,94,1.3437,1.0675,-39.4287,-12.1708,24,0.048,8476,3.9545,-179.2324
lg,1625413948772328587,0,0.5781,-0.2488,0.8098,862,3.418,-6.4697,-2.3193,94,1.3427,1.0675,-39.491,-12.2086,24,0.048,8473,3.9545,-179.1482
lg,1625413948772345161,0,0.5686,-0.248,0.7998,863,3.8452,-8.4229,-2.5635,94,1.3427,1.0685,-39.6239,-12.2407,24,0.048,8534,3.9545,-179.051
lg,1625413948772363661,0,0.5781,-0.2349,0.8154,864,3.9062,-11.2915,-4.2725,94,1.3447,1.0685,-39.879,-12.1844,24,0.047,8516,3.9545,-179.0411
