name,time,activity,ax,ay,az,batch_val,gx,gy,gz,ibat,index,middle,pitch,roll,temp,thumb,ts,vbat,yaw
rg,1625400109448537358,1,0.4563,0.4487,0.8069,1,4.6387,13.0005,-13.7329,64,1.0805,0,-8.6527,34.8441,24,0.6413,19384,4.0282,94.0274
rg,1625400109448733209,1,0.4573,0.447,0.813,2,4.3335,13.3667,-14.2822,64,1.0825,0,-8.575,34.8165,24,0.6413,8484,4.0282,93.8991
rg,1625400109449258283,1,0.4607,0.4551,0.8171,3,4.4556,13.4277,-14.8315,64,1.0825,-0.001,-8.5502,34.8046,24,0.6433,7927,4.0282,93.7597
rg,1625400109449314154,1,0.4622,0.4521,0.8179,4,4.1504,12.8174,-14.7705,64,1.0805,0,-8.4862,34.7802,24,0.6423,7765,4.0282,93.6007
rg,1625400109449350135,1,0.4536,0.4561,0.821,5,4.0894,12.3291,-14.7095,64,1.0825,0,-8.4219,34.7585,24,0.6433,7924,4.0282,93.4313
rg,1625400109449390339,1,0.4529,0.4575,0.8186,6,3.8452,12.6343,-15.1367,64,1.0825,0,-8.3356,34.7451,24,0.6423,7926,4.0282,93.2516
rg,1625400109449435024,1,0.448,0.469,0.825,7,3.479,10.9253,-13.6108,64,1.0785,0,-8.3286,34.7191,24,0.6423,7975,4.0282,93.0822
rg,1625400109449472432,1,0.4487,0.4775,0.8208,8,1.8311,9.7656,-14.0381,64,1.0825,0,-8.3507,34.6548,24,0.6433,7961,4.0282,92.8682
rg,1625400109449512413,1,0.45,0.4788,0.8269,9,1.0986,9.5215,-13.9771,64,1.0825,0,-8.3789,34.56,24,0.6433,7965,4.0282,92.6504
rg,1625400109449552728,1,0.4521,0.4741,0.833,10,0.1831,8.0566,-14.9536,64,1.0835,0,-8.4341,34.4268,24,0.6423,7963,4.0282,92.3671
rg,1625400109449592821,1,0.4502,0.4666,0.8293,11,-2.0142,5.7983,-14.5264,64,1.0825,0,-8.5745,34.2068,24,0.6423,8999,4.0282,92.0459
rg,1625400109449630135,1,0.4536,0.4575,0.8228,12,-3.0518,4.3945,-15.1367,64,1.0825,0,-8.759,33.953,24,0.6433,9545,4.0282,91.6711
rg,1625400109449661080,1,0.4509,0.4507,0.8254,13,-3.1128,3.3569,-14.5874,64,1.0825,0,-9.0015,33.6905,24,0.6433,8003,4.0282,91.2908
rg,1625400109449695839,1,0.4648,0.448,0.8284,14,-2.9907,3.2349,-15.7471,64,1.0805,0,-9.2191,33.4455,24,0.6423,8040,4.0282,90.8666
rg,1625400109449732246,1,0.46,0.4534,0.8325,15,-2.1973,3.7842,-16.2354,64,1.0825,0,-9.3862,33.2488,24,0.6433,8052,4.0282,90.4341
rg,1625400109449764598,1,0.4666,0.4595,0.844,16,-2.0142,2.9297,-15.9302,64,1.0825,0,-9.5832,33.0564,24,0.6433,8063,4.0282,89.9926
rg,1625400109449793746,1,0.459,0.4761,0.8486,17,-1.709,1.5259,-16.6016,64,1.0795,0,-9.7824,32.9325,24,0.6423,8098,4.0282,89.4882
rg,1625400109449830969,1,0.4697,0.4814,0.8533,18,-3.0518,-0.9766,-15.9912,64,1.0825,0,-10.0859,32.7734,24,0.6443,8114,4.0282,88.9469
rg,1625400109449867746,1,0.4668,0.4949,0.8528,19,-3.7842,-1.2207,-15.9302,64,1.0825,0,-10.3746,32.6242,24,0.6433,8113,4.0282,88.3952
rg,1625400109449906895,1,0.4583,0.4937,0.873,20,-5.6763,-2.7466,-15.9912,64,1.0795,0,-10.6774,32.3856,24,0.6423,8147,4.0282,87.8114
rg,1625400109449936117,1,0.4346,0.4919,0.8835,21,-6.5918,-6.2256,-15.3809,64,1.0835,0,-11.0512,32.1183,24,0.6443,8153,4.0282,87.1727
rg,1625400109449970024,1,0.4407,0.4912,0.9021,22,-7.2632,-9.2163,-15.8081,64,1.0825,0,-11.7301,31.7997,24,0.6443,8216,4.0282,86.4245
rg,1625400109449999450,1,0.4775,0.4998,0.9043,23,-7.9956,-15.0757,-12.9395,64,1.0815,0,-12.4804,31.5293,24,0.6433,8218,4.0282,85.6751
rg,1625400109450040469,1,0.4592,0.5042,0.9087,24,-10.2539,-14.2212,-14.7095,64,1.0835,0,-13.102,31.2002,24,0.6443,8302,4.0282,84.88
rg,1625400109450271950,1,0.4492,0.522,0.8992,25,-11.5356,-15.2588,-14.5264,64,1.0825,0,-13.7752,30.822,24,0.6443,8311,4.0282,84.0609
rg,1625400109450342283,1,0.45,0.5249,0.8999,26,-15.0757,-18.3716,-14.2212,64,1.0815,0,-14.4895,30.4087,24,0.6433,8297,4.0282,83.1784
rg,1625400109450388950,1,0.4353,0.5254,0.9004,27,-18.1885,-23.0103,-15.3198,64,1.0835,0,-15.2927,29.9336,24,0.6433,8346,4.0282,82.1558
rg,1625400109450420469,1,0.4463,0.5435,0.8889,28,-21.3013,-28.6865,-16.4795,64,1.0795,0,-16.2664,29.4555,24,0.6453,8337,4.0282,80.9574
rg,1625400109450456339,1,0.4619,0.5481,0.8955,29,-23.7427,-31.8604,-17.8223,64,1.0835,0,-17.3127,28.9139,24,0.6443,8381,4.0282,79.6499
rg,1625400109450491395,1,0.4563,0.5269,0.9133,30,-27.5879,-32.959,-19.165,64,1.0815,0,-18.3345,28.2658,24,0.6433,8398,4.0282,78.2704
rg,1625400109450522024,1,0.4207,0.5173,0.8979,31,-30.3345,-36.377,-19.8364,64,1.0825,0,-19.3871,27.5861,24,0.6443,9179,4.0282,76.7902
rg,1625400109450555858,1,0.3826,-0.5693,0.9741,32,13.2446,-29.7241,-16.4185,94,1.0655,0,-20.4425,26.5812,24,0.6433,14714,3.9875,76.2442
rg,1625400109785862746,1,0.144,-0.4155,0.8843,33,4.2114,29.3579,-21.2402,94,1.0665,0,-18.6641,24.669,24,0.6473,25602,3.9875,76.5025
rg,1625400109785908894,1,-0.0447,-0.2065,0.7222,34,-30.6396,-7.2021,-23.3154,94,1.0625,0,-18.3784,21.6916,24,0.6413,14251,3.9875,75.7564
rg,1625400109785930487,1,-0.01,-0.1782,0.7593,35,-61.2183,-33.8745,-23.3765,94,1.0615,0,-19.188,18.1282,24,0.6433,7977,3.9875,74.761
rg,1625400109785949728,1,0.6494,-0.5383,0.6108,36,-10.1929,-44.8608,-13.916,94,1.0625,0,-21.7578,16.4795,24,0.6463,7796,3.9875,74.1816
rg,1625400109785970876,1,0.1792,-0.6003,1.0295,37,-44.3726,-0.6714,-27.3438,94,1.0615,0,-21.226,13.3756,24,0.6473,7834,3.9875,73.6883
rg,1625400109785989894,1,0.0237,-0.9688,1.1436,38,-19.2261,-3.7842,-26.4893,94,1.0615,0,-21.4312,11.4403,24,0.6483,8030,3.9875,73.1269
rg,1625400109786008617,1,0.6494,-0.3315,0.7954,39,9.9487,-41.0156,-22.0337,94,1.0615,0,-23.5769,11.2261,24,0.6503,9288,3.9875,72.2495
rg,1625400109786027580,1,0.4436,-0.5706,0.9453,40,1.0986,28.6865,-15.8081,94,1.0585,-0.001,-22.4792,9.9015,24,0.6503,8686,3.9875,72.4284
rg,1625400109786046709,1,0.2307,-0.3867,0.8396,41,3.7842,47.3022,-10.9253,94,1.0605,0,-20.2831,8.6957,24,0.6513,12191,3.9875,72.835
rg,1625400109786099894,1,0.1785,-0.3828,0.832,42,-3.9673,45.5322,-9.1553,94,1.0605,0,-18.1889,7.2763,24,0.6523,7905,3.9875,73.1719
rg,1625400109786123691,1,0.1418,-0.4727,0.8792,43,-12.9395,36.5601,-13.9771,94,1.0605,0,-16.4022,5.5167,24,0.6543,7904,3.9875,73.1879
rg,1625400109786142487,1,0.0198,-0.5818,0.9836,44,-17.1509,27.5879,-21.3013,94,1.0615,0,-14.7495,3.6586,24,0.6543,9725,3.9875,72.7859
rg,1625400109786160876,1,-0.0239,-0.6438,1.0208,45,-13.6108,17.7612,-20.5078,94,1.0615,0,-13.4839,1.9448,24,0.6553,7999,3.9875,72.3214
rg,1625400109786180431,1,0.0212,-0.677,1.0112,46,2.2583,-10.0708,-18.6768,94,1.0615,-0.001,-13.4709,0.8555,24,0.6573,8541,3.9875,71.8599
rg,1625400109786199839,1,0.2332,-0.7891,1.0842,47,24.7192,-26.3062,-16.1743,94,1.0625,0,-14.469,0.6231,24,0.6593,8495,3.9875,71.5042
rg,1625400109786219339,1,0.3525,-0.7876,1.0513,48,42.9688,-25.2686,-14.7095,94,1.0655,0,-15.9208,1.1502,24,0.6613,8086,3.9875,71.2169
rg,1625400109786237580,1,0.7131,-0.7498,0.9583,49,73.4253,-5.9204,-13.7939,94,1.0655,-0.001,-16.8254,2.9552,24,0.6603,8258,3.9875,70.9792
rg,1625400109786255598,1,0.5867,-0.5447,0.8406,50,84.4116,47.3633,-36.0107,94,1.0685,0,-15.4788,5.5041,24,0.6603,7952,3.9875,69.9642
rg,1625400109786273709,1,0.3562,-0.4802,0.8257,51,80.0171,73.4253,-41.9312,94,1.0675,0,-12.3236,7.6727,24,0.6583,8155,3.9875,68.9616
rg,1625400109786291672,1,0.0806,-0.4973,0.8552,52,69.2139,90.0879,-45.2881,94,1.0665,0,-8.3082,9.2519,24,0.6563,8122,3.9875,67.9886
rg,1625400109786309728,1,-0.0229,-0.4517,0.8525,53,61.3403,78.186,-47.1802,208,1.0675,0,-4.6026,10.4687,24,0.6533,9345,3.9424,66.8635
rg,1625400109786327913,1,-0.1816,-0.2476,0.8293,54,47.1802,58.2886,-39.1846,208,1.0695,0,-1.402,11.3928,24,0.6523,9877,3.9424,65.8542
rg,1625400109786345320,1,-0.4341,-0.0989,0.7998,55,6.7139,25.0854,-16.6016,208,1.0705,0,0.8299,11.0285,24,0.6553,8495,3.9424,65.41
rg,1625400109786363431,1,-0.4392,-0.1736,0.9255,56,-20.9961,-5.249,-6.1035,208,1.0715,0,1.4444,9.0519,24,0.6583,8180,3.9424,65.1023
rg,1625400109786395080,1,-0.1841,-0.428,1.0076,57,-45.7153,-66.9556,9.4604,208,1.0725,0,-0.9229,6.0406,24,0.6603,8283,3.9424,65.0854
rg,1625400109786415691,1,0.4937,-0.574,1.0032,58,-53.772,-106.0791,20.6909,208,1.0735,0,-6.0577,2.6443,24,0.6613,8283,3.9424,65.6344
rg,1625400109786433654,1,0.8655,-0.4397,0.9541,59,-62.2559,-91.3696,17.8833,208,1.0685,0,-9.848,-1.0512,24,0.6573,8346,3.9424,66.185
rg,1625400109786452320,1,0.8174,-0.3552,1.2827,60,-76.416,-31.1279,0.7935,208,1.0655,0,-11.9271,-4.6087,24,0.6573,8321,3.9424,66.3914
rg,1625400109786470024,1,0.793,0.1812,0.6665,61,22.3999,19.8975,-5.7373,208,1.0665,0,-12.5311,-3.1329,24,0.6573,8346,3.9424,65.9752
rg,1625400109786488672,1,0.0244,-0.7583,1.0859,62,-6.4087,70.9229,-15.1978,208,1.0665,-0.001,-9.3688,-4.4484,24,0.6593,8356,3.9424,65.4277
rg,1625400109786505783,1,0.1685,-0.3486,0.8005,63,11.8408,30.6396,-12.207,208,1.0665,0,-8.2686,-4.6215,24,0.6593,8258,3.9424,64.9578
rg,1625400109786523246,1,0.1189,-0.562,1.0117,64,-5.7983,37.8418,-0.1831,208,1.0615,0,-6.6978,-5.7732,24,0.6593,8419,3.9424,64.9475
rg,1625400110144679450,1,0.1689,-0.4067,0.8599,65,-29.4189,42.6025,1.1597,208,1.0655,0,-5.2691,-7.8963,24,0.6633,27218,3.9424,64.756
rg,1625400110144716098,1,0.1863,-0.55,0.9417,66,-40.6494,33.3252,-4.4556,208,1.0665,0,-4.1735,-10.3377,24,0.6653,11171,3.9424,64.4499
rg,1625400110144736857,1,0.1001,-0.551,0.9194,67,-39.1846,35.9497,-5.4932,208,1.0655,0,-2.7629,-12.5892,24,0.6673,7883,3.9424,63.9951
rg,1625400110144756876,1,0.0676,-0.5906,0.9382,68,-35.9497,36.6821,-4.8218,208,1.0665,0,-1.422,-14.7596,24,0.6693,7870,3.9424,63.4969
rg,1625400110144775542,1,0.0959,-0.7419,1.0156,69,-24.1089,27.771,-3.418,208,1.0665,0,-0.5125,-16.5338,24,0.6713,8066,3.9424,63.0871
rg,1625400110144793042,1,0.2375,-0.8474,1.0603,70,-12.6343,24.4751,-3.479,208,1.0665,0,0.0659,-17.2443,24,0.6743,7926,3.9424,62.6503
rg,1625400110144811320,1,0.3384,-0.8918,1.0569,71,23.3154,31.8604,-4.6997,208,1.0675,0,0.9251,-16.3057,24,0.6753,8945,3.9424,61.8708
rg,1625400110144854283,1,0.4277,-0.7996,0.936,72,63.9038,57.5562,-13.1226,208,1.0695,0,2.2205,-14.6629,24,0.6743,7976,3.9424,60.722
rg,1625400110144873579,1,0.2017,-0.6077,0.8306,73,77.0874,86.1816,-29.7241,208,1.0715,0,4.7629,-12.5251,24,0.6733,7968,3.9424,58.709
rg,1625400110144892524,1,0.0742,-0.5393,0.8018,74,75.8667,93.75,-34.3018,208,1.0725,0,8.0929,-10.4728,24,0.6713,7997,3.9424,56.54
rg,1625400110144911190,1,-0.1655,-0.4634,0.8057,75,69.0918,86.9751,-42.7856,208,1.0705,0,11.3183,-8.8576,24,0.6663,8037,3.9424,54.1301
rg,1625400110144928876,1,-0.4136,-0.28,0.7756,76,55.481,57.8613,-40.4053,208,1.0735,0,13.9752,-7.4712,24,0.6663,8077,3.9424,52.083
rg,1625400110144946172,1,-0.5474,-0.1243,0.7214,77,40.8325,36.5601,-30.6396,208,1.0735,0,16.2952,-6.2284,24,0.6653,8066,3.9424,50.6505
rg,1625400110144963079,1,-0.6667,-0.2085,0.8467,78,-8.1177,-22.2778,-6.5918,208,1.0715,0,16.2,-6.847,24,0.6663,8067,3.9424,50.4093
rg,1625400110144980283,1,-0.415,-0.3901,0.8611,79,-26.4282,-99.2432,12.6343,208,1.0755,0,12.6637,-8.2816,24,0.6703,8097,3.9424,51.2823
rg,1625400110144998190,1,-0.0425,-0.4385,0.9231,80,-32.1655,-135.1318,22.2168,208,1.0765,0,6.2565,-10.0536,24,0.6723,8125,3.9424,52.8902
rg,1625400110145015746,1,0.8066,-0.5903,0.9612,81,-44.1284,-143.1885,23.5596,208,1.0735,0,-0.6491,-12.3853,24,0.6713,8138,3.9424,54.8863
rg,1625400110145032987,1,0.9294,-0.4573,0.8657,82,-61.4624,-62.9272,7.0801,208,1.0715,0,-4.5554,-15.3122,24,0.6693,8118,3.9424,55.8093
rg,1625400110145050227,1,0.7417,-0.3831,1.1619,83,-69.8242,-23.3154,-6.1035,208,1.0695,0,-5.3558,-17.1883,24,0.6693,8219,3.9424,55.5265
rg,1625400110145067802,1,0.7412,0.0562,0.5671,84,20.874,18.9819,-8.728,208,1.0685,0,-6.3992,-15.7547,24,0.6683,8196,3.9424,54.899
rg,1625400110145084913,1,-0.0059,-0.8582,1.0681,85,-9.1553,79.1016,-17.8833,208,1.0695,0,-3.3307,-16.8712,24,0.6693,8234,3.9424,53.4135
rg,1625400110145102209,1,0.072,-0.0911,0.605,86,22.1558,46.7529,-15.8691,208,1.0705,0,-2.7801,-15.3587,24,0.6703,8241,3.9424,52.6659
rg,1625400110145130950,1,0.1768,-0.301,0.7659,87,12.6953,21.4233,-8.1177,208,1.0705,0,-2.4091,-15.0597,24,0.6703,8265,3.9424,52.1366
rg,1625400110145149987,1,0.2297,-0.3264,0.7886,88,-5.9814,35.7056,-8.8501,208,1.0705,0,-1.627,-15.5523,24,0.6713,12876,3.9424,51.4302
rg,1625400110145167672,1,0.1858,-0.3538,0.7896,89,-9.9487,38.6353,-7.9346,208,1.0705,0,-0.6036,-16.3225,24,0.6723,8335,3.9424,50.7125
rg,1625400110145186450,1,0.1736,-0.4529,0.8484,90,-18.6768,38.208,-12.085,208,1.0715,0,0.3333,-17.5156,24,0.6743,8496,3.9424,49.8125
rg,1625400110145204227,1,0.1482,-0.5068,0.856,91,-21.5454,39.6729,-17.0898,208,1.0725,0,1.2749,-18.8948,24,0.6763,9921,3.9424,48.6669
rg,1625400110145221098,1,0.0989,-0.5554,0.8789,92,-21.7896,41.9922,-18.7988,208,1.0735,0,2.3348,-20.3222,24,0.6783,9372,3.9424,47.3843
rg,1625400110145249061,1,0.0444,-0.6763,0.9485,93,-15.7471,45.3491,-16.6016,208,1.0735,0,3.6082,-21.6044,24,0.6803,8840,3.9424,46.0895
rg,1625400110145266690,1,0.1003,-0.8694,1.072,94,6.0425,45.105,-13.3667,208,1.0755,0,4.7759,-22.1234,24,0.6803,8410,3.9424,44.8746
rg,1625400110145283690,1,0.1846,-0.8826,1.0488,95,26.3672,45.8374,-13.0005,208,1.0745,0,5.7939,-21.8709,24,0.6813,8528,3.9424,43.6391
rg,1625400110145302450,1,0.3745,-0.7722,0.9094,96,65.0635,58.7769,-18.4937,208,1.0745,0,6.8327,-20.1319,24,0.6803,8523,3.9424,42.0101
rg,1625400110502318653,1,-0.2512,-0.5254,0.8328,97,70.4346,92.7734,-48.7671,208,1.0775,0,9.6634,-18.0926,24,0.6743,25321,3.9424,39.1331
rg,1625400110502365153,1,-0.5955,-0.1555,0.7715,98,54.5654,28.9917,-38.8794,208,1.0775,0,11.3542,-16.0344,24,0.6733,11585,3.9424,37.3321
rg,1625400110502386024,1,-0.7112,-0.2051,0.8494,99,33.02,-1.8921,-28.5034,208,1.0775,0,10.7855,-15.7736,24,0.6753,7882,3.9424,37.1096
rg,1625400110502410264,1,-0.6538,-0.3103,0.9446,100,-11.6577,-76.6602,-7.9346,208,1.0795,0,8.6283,-16.2235,24,0.6773,7952,3.9424,37.6432
rg,1625400110502429875,1,-0.1475,-0.5256,1.0305,101,-28.1372,-152.1606,9.9487,208,1.0795,0,2.8957,-17.5472,24,0.6783,7910,3.9424,39.7424
rg,1625400110502469468,1,0.6245,-0.6333,1.019,102,-30.8228,-174.1333,15.0146,208,1.0775,0,-4.27,-19.4698,24,0.6783,8114,3.9424,42.4373
rg,1625400110502489838,1,0.8274,-0.5591,0.9709,103,-39.4287,-138.3667,11.8408,208,1.0715,0,-10.4664,-21.6821,24,0.6713,8298,3.9424,44.8947
rg,1625400110502509227,1,0.79,-0.6606,1.5667,104,-35.5225,-61.0962,-4.5776,208,1.0715,0,-13.3479,-23.2992,24,0.6703,7983,3.9424,45.6946
rg,1625400110502541227,1,0.8296,0.1052,0.7148,105,21.3013,4.8828,-16.9678,208,1.0705,0,-14.7927,-21.4569,24,0.6693,8061,3.9424,44.7573
rg,1625400110502560875,1,0.3687,-0.666,1.1277,106,-0.6104,60.73,-24.4751,208,1.0695,0,-12.938,-21.3873,24,0.6693,7979,3.9424,42.9924
rg,1625400110502578801,1,0.1042,-0.0337,0.5947,107,48.8892,22.644,-21.6675,208,1.0705,0,-12.2842,-18.4696,24,0.6703,7968,3.9424,41.6811
rg,1625400110502598190,1,0.2036,-0.4382,0.8867,108,13.3057,23.4375,-12.4512,208,1.0705,0,-11.5292,-18.0816,24,0.6693,9845,3.9424,40.9618
rg,1625400110502615764,1,0.3491,-0.2976,0.8252,109,8.728,28.2593,-7.1411,208,1.0705,0,-10.943,-17.6712,24,0.6723,11448,3.9424,40.3402
rg,1625400110502633875,1,0.3247,-0.3467,0.8423,110,-2.6855,48.3398,-10.0098,208,1.0705,0,-9.5703,-17.7759,24,0.6733,8082,3.9424,39.3857
rg,1625400110502651616,1,0.2419,-0.3716,0.8545,111,-8.9722,56.9458,-11.5967,208,1.0695,0,-7.5481,-18.4221,24,0.6743,8127,3.9424,38.1025
rg,1625400110502670098,1,0.1208,-0.4636,0.9075,112,-17.1509,56.0913,-19.104,208,1.0705,0,-5.6498,-19.274,24,0.6763,8149,3.9424,36.6874
rg,1625400110502689116,1,0.0117,-0.4817,0.9131,113,-17.0288,51.6357,-25.0244,208,1.0705,0,-3.8537,-20.1495,24,0.6773,8146,3.9424,35.073
rg,1625400110502706135,1,-0.0383,-0.533,0.9512,114,-15.8081,40.0391,-24.5972,208,1.0705,0,-2.4753,-21.0521,24,0.6793,8713,3.9424,33.6076
rg,1625400110502723875,1,-0.0361,-0.5889,0.9924,115,-12.207,35.3394,-24.1699,208,1.0715,0,-1.388,-21.936,24,0.6833,8722,3.9424,32.2068
rg,1625400110502742616,1,0.0466,-0.7712,1.1165,116,4.6997,25.0854,-20.9351,208,1.0705,0,-0.8004,-22.2193,24,0.6853,8195,3.9424,31.0648
rg,1625400110502761412,1,0.2725,-0.8596,1.1194,117,47.7905,24.231,-19.8975,208,1.0725,0,-0.5944,-20.8827,24,0.6883,8266,3.9424,29.9708
rg,1625400110502779153,1,0.4148,-0.7878,1.0237,118,69.519,29.9683,-20.5688,208,1.0745,0,0.0186,-18.2014,24,0.6883,8296,3.9424,28.2186
rg,1625400110502796950,1,0.3,-0.5879,0.9292,119,85.5103,63.4766,-39.2456,208,1.0735,0,1.3896,-15.3496,24,0.6853,8279,3.9424,25.966
rg,1625400110502815542,1,-0.0562,-0.4409,0.8677,120,82.5195,82.3364,-50.5981,208,1.0745,0,4.1595,-12.6446,24,0.6803,8292,3.9424,23.1932
rg,1625400110502834190,1,-0.4058,-0.2234,0.8335,121,70.0684,61.6455,-46.2646,208,1.0745,0,7.0132,-10.1567,24,0.6803,8336,3.9424,20.8934
rg,1625400110502872950,1,-0.6096,0.0383,0.7686,122,54.5654,35.4004,-36.7432,208,1.0745,0,9.3583,-7.8128,24,0.6803,8367,3.9424,19.2788
rg,1625400110502895727,1,-0.7476,-0.1667,0.8923,123,-8.9111,-44.4946,-14.8926,208,1.0765,0,8.6542,-8.3067,24,0.6813,8364,3.9424,18.9169
rg,1625400110502914079,1,-0.3901,-0.2791,0.8865,124,-27.0386,-133.1787,10.437,208,1.0785,0,4.0318,-9.5798,24,0.6843,8332,3.9424,20.1103
rg,1625400110502932357,1,0.0427,-0.3384,0.9751,125,-38.8794,-168.7622,20.4468,208,1.0825,0,-3.9284,-12.0925,24,0.6863,8424,3.9424,22.3872
rg,1625400110502950579,1,0.8235,-0.5144,1.0217,126,-56.7627,-163.8794,24.292,208,1.0745,0,-11.2337,-15.1559,24,0.6833,8427,3.9424,24.9601
rg,1625400110502968209,1,1.0571,-0.3994,1.4612,127,-67.3218,-85.2051,13.7329,208,1.0725,0,-15.2328,-18.1981,24,0.6833,8944,3.9424,26.5318
rg,1625400110502992746,1,1.2219,0.0813,0.6963,128,14.4043,-3.2959,5.4321,208,1.0705,0,-16.9171,-17.1937,24,0.6813,10384,3.9424,26.6405
rg,1625400110857862523,1,0.082,-0.2764,0.8091,129,1.0986,61.0352,-4.0283,208,1.0725,0,-14.187,-16.971,24,0.6833,25354,3.9424,25.7538
rg,1625400110857895690,1,0.104,-0.3484,0.8552,130,-12.5732,50.7202,-2.5024,208,1.0725,0,-12.335,-17.6765,24,0.6843,14783,3.9424,25.1625
rg,1625400110857916746,1,0.2109,-0.3313,0.8508,131,-18.3105,33.4473,-3.2959,208,1.0725,0,-11.1329,-18.4313,24,0.6853,9034,3.9424,24.6393
rg,1625400110857936227,1,0.23,-0.3953,0.8589,132,-28.1372,38.4521,-11.2915,208,1.0735,0,-9.9313,-19.6207,24,0.6863,7883,3.9424,23.7413
rg,1625400110857954468,1,0.0725,-0.4934,0.9106,133,-34.9731,44.6167,-21.3623,208,1.0745,0,-8.3296,-21.1325,24,0.6883,7860,3.9424,22.3567
rg,1625400110857972579,1,-0.012,-0.5293,0.9294,134,-34.4238,44.3726,-23.1323,208,1.0755,0,-6.6812,-22.638,24,0.6903,7864,3.9424,20.8666
rg,1625400110857991042,1,-0.0405,-0.5815,0.9539,135,-28.3813,30.2124,-21.0571,208,1.0765,0,-5.5644,-23.9754,24,0.6923,9111,3.9424,19.6432
rg,1625400110858008783,1,0.0422,-0.6826,1.0054,136,-17.4561,21.9116,-16.2354,208,1.0765,0,-4.8994,-24.9806,24,0.6943,8727,3.9424,18.7221
rg,1625400110858026227,1,0.2139,-0.782,1.0635,137,3.6621,22.7661,-15.3809,208,1.0775,0,-4.5112,-25.1924,24,0.6963,8495,3.9424,17.8124
rg,1625400110858043875,1,0.2876,-0.8132,1.0813,138,22.1558,31.1279,-17.7002,208,1.0765,0,-3.9833,-24.6691,24,0.6963,7983,3.9424,16.6749
rg,1625400110858061394,1,0.447,-0.6741,0.9236,139,58.8989,57.8003,-20.813,208,1.0785,0,-2.8869,-22.6324,24,0.6943,8011,3.9424,14.9956
rg,1625400110858078597,1,0.2573,-0.543,0.8655,140,65.6128,75.7446,-29.3579,208,1.0775,0,-0.4494,-20.2903,24,0.6933,8004,3.9424,12.1761
rg,1625400110858095338,1,0.0605,-0.4797,0.8577,141,61.7065,106.6895,-43.2739,208,1.0765,0,2.8698,-18.2401,24,0.6893,7974,3.9424,9.1324
rg,1625400110858112320,1,-0.3425,-0.3999,0.8538,142,50.354,100.8911,-43.9453,208,1.0765,0,6.8407,-16.7277,24,0.6853,8745,3.9424,6.2291
rg,1625400110858147894,1,-0.6804,-0.1799,0.8098,143,32.4707,49.9878,-31.9214,208,1.0775,0,9.6171,-15.5556,24,0.6833,8386,3.9424,4.4572
rg,1625400110858165301,1,-0.7654,-0.0847,0.8035,144,14.9536,7.8735,-20.874,208,1.0785,0,8.9886,-15.8119,24,0.6853,8811,3.9424,4.4834
rg,1625400110858182338,1,-0.5698,-0.3062,0.9761,145,-21.5454,-87.9517,-2.1973,208,1.0805,0,4.7994,-16.9463,24,0.6883,8832,3.9424,6.1658
rg,1625400110858199209,1,0.0447,-0.479,1.0137,146,-35.4004,-150.3906,14.7705,208,1.0795,0,-1.0011,-18.6022,24,0.6893,8471,3.9424,8.5446
rg,1625400110858216023,1,0.7905,-0.501,0.9666,147,-42.7246,-143.1885,20.6909,208,1.0805,0,-7.3861,-20.7833,24,0.6893,8162,3.9424,11.2902
rg,1625400110858232690,1,0.8911,-0.4543,0.9438,148,-66.3452,-69.0918,5.3101,208,1.0765,0,-11.0834,-23.7806,24,0.6863,8535,3.9424,12.6036
rg,1625400110858249431,1,0.7639,-0.7278,1.5945,149,-59.082,-25.1465,-3.418,208,1.0755,0,-13.6054,-26.6159,24,0.6853,8542,3.9424,13.0329
rg,1625400110858268486,1,0.7168,0.0376,0.6897,150,2.3804,45.7764,-7.4463,208,1.0755,0,-13.3581,-25.4534,24,0.6823,8650,3.9424,11.7219
rg,1625400110858286857,1,-0.1414,-0.7402,0.9197,151,7.1411,93.3228,-12.8784,208,1.0765,0,-9.4501,-25.2772,24,0.6813,8588,3.9424,9.7368
rg,1625400110858305949,1,0.0664,-0.1306,0.6714,152,24.4141,27.9541,-8.8501,208,1.0765,0,-8.4364,-23.6108,24,0.6833,8640,3.9424,8.8489
rg,1625400110858324338,1,0.1899,-0.2866,0.7754,153,12.6953,22.8271,-7.8125,208,1.0765,0,-7.9782,-22.9491,24,0.6853,8639,3.9424,8.1823
rg,1625400110858342042,1,0.1628,-0.3433,0.8208,154,-5.0659,32.6538,-11.4746,208,1.0745,0,-7.0524,-23.012,24,0.6843,8307,3.9424,7.238
rg,1625400110858359579,1,0.1064,-0.3442,0.8044,155,-13.6108,29.1138,-14.4653,208,1.0765,0,-6.2082,-23.4396,24,0.6823,8757,3.9424,6.2392
rg,1625400110858377042,1,0.2512,-0.4233,0.8557,156,-22.522,24.0479,-21.1792,208,1.0775,0,-6.0098,-24.3181,24,0.6873,8737,3.9424,5.0814
rg,1625400110858393672,1,0.178,-0.4531,0.877,157,-26.4893,33.2642,-24.4141,208,1.0785,0,-5.1559,-25.4299,24,0.6893,8380,3.9424,3.6482
rg,1625400110858410079,1,0.0049,-0.6082,0.9758,158,-25.8789,39.5508,-28.9307,208,1.0775,0,-4.0526,-26.5733,24,0.6903,8763,3.9424,1.929
rg,1625400110858426653,1,0.0039,-0.6138,0.9622,159,-13.4277,27.6489,-23.8037,208,1.0795,0,-3.3485,-27.2507,24,0.6933,8753,3.9424,0.5915
rg,1625400110858453357,1,0.0984,-0.6475,0.9822,160,-1.2207,20.874,-21.7285,208,1.0785,0,-3.0659,-27.4698,24,0.6983,8427,3.9424,-0.5526
rg,1625400111221367986,1,0.4607,-0.7014,0.9365,161,52.6123,46.5088,-25.0854,208,1.0825,0,-1.7497,-25.2355,24,0.6963,26369,3.9424,-2.9089
rg,1625400111221405560,1,-0.0007,-0.4553,0.8374,162,62.561,91.4307,-46.5698,208,1.0825,0,1.7358,-22.842,24,0.6943,10443,3.9424,-6.0928
rg,1625400111221426190,1,-0.5576,-0.176,0.7537,163,47.0581,85.9985,-37.2925,208,1.0825,0,5.6288,-20.8206,24,0.6943,7859,3.9424,-8.7292
rg,1625400111221446116,1,-0.9297,-0.1716,0.8059,164,7.019,14.6484,-17.5781,208,1.0835,0,7.4681,-20.4039,24,0.6953,7854,3.9424,-9.5687
rg,1625400111221464949,1,-0.7683,-0.3892,0.9277,165,-11.5356,-51.0254,-7.0801,208,1.0845,0,6.5935,-20.8783,24,0.6963,7897,3.9424,-9.121
rg,1625400111221483727,1,0.0012,-0.3843,0.9355,166,-19.4702,-141.7236,7.5073,208,1.0855,0,1.1773,-21.548,24,0.6963,8902,3.9424,-6.7858
rg,1625400111221503116,1,0.7119,-0.6223,1.0574,167,-35.8276,-135.8643,9.3384,208,1.0845,0,-4.8551,-23.3543,24,0.6943,8442,3.9424,-4.3506
rg,1625400111221521597,1,0.8213,-0.4834,0.9465,168,-36.8652,-100.9521,8.9111,208,1.0785,0,-8.2113,-25.2662,24,0.6923,8138,3.9424,-3.1451
rg,1625400111221538931,1,0.7048,-0.6338,1.4507,169,-37.9639,-23.9868,-2.6855,85,1.0785,-0.001,-9.7319,-26.7652,24,0.6933,7961,3.9996,-2.8178
rg,1625400111221572060,1,0.6653,0.0325,0.6951,170,23.0103,36.5601,-4.8828,85,1.0785,0,-9.8043,-24.8816,24,0.6923,7777,3.9996,-3.8085
rg,1625400111221591394,1,0.2,-0.4202,0.9172,171,-1.77,83.7402,-7.5073,85,1.0795,0,-6.1592,-24.4828,24,0.6923,7927,3.9996,-5.4448
rg,1625400111221609986,1,-0.064,-0.2744,0.7542,172,19.104,45.5322,-4.6997,85,1.0795,0,-4.1561,-23.4553,24,0.6913,7994,3.9996,-6.3777
rg,1625400111221628912,1,0.1243,-0.3191,0.8164,173,9.5215,21.9116,-5.188,85,1.0785,0,-3.5893,-22.9504,24,0.6923,7999,3.9996,-6.9233
rg,1625400111221647097,1,0.1726,-0.3564,0.8293,174,4.2114,20.752,-5.127,85,1.0805,0,-3.2397,-22.7845,24,0.6933,8006,3.9996,-7.4355
rg,1625400111221704486,1,0.1941,-0.4387,0.886,175,-7.3853,27.3438,-8.667,85,1.0785,0,-2.6816,-23.1728,24,0.6933,8010,3.9996,-8.1756
rg,1625400111222038653,1,0.2087,-0.4294,0.8552,176,-10.1318,30.4565,-13.7939,85,1.0815,0,-2.1655,-23.6639,24,0.6953,8253,3.9996,-9.161
rg,1625400111222066579,1,0.1985,-0.4165,0.8538,177,-12.8174,35.3394,-18.0054,85,1.0825,0,-1.3985,-24.4226,24,0.6963,8070,3.9996,-10.6373
rg,1625400111222089023,1,-0.0083,-0.5239,0.9324,178,-18.0054,42.1143,-29.7852,85,1.0835,0,-0.3039,-25.3019,24,0.6973,8227,3.9996,-12.4238
rg,1625400111222110005,1,-0.0752,-0.551,0.9604,179,-17.5171,38.0249,-30.8838,85,1.0845,0,0.3301,-25.9751,24,0.6993,8102,3.9996,-14.0292
rg,1625400111222130597,1,-0.0278,-0.6267,1.019,180,-6.4697,19.3481,-28.1372,85,1.0855,0,0.5642,-26.4588,24,0.7003,8100,3.9996,-15.3824
rg,1625400111222150394,1,0.1602,-0.7305,1.0742,181,12.207,11.5967,-24.353,85,1.0855,0,0.2462,-26.2766,24,0.7013,8181,3.9996,-16.465
rg,1625400111222170449,1,0.4041,-0.7703,1.0271,182,44.6777,24.7803,-29.6021,85,1.0855,0,-0.0641,-24.8886,24,0.7003,10529,3.9996,-17.9726
rg,1625400111222189579,1,0.3386,-0.5684,0.9114,183,64.6973,59.021,-41.626,85,1.0845,0,0.7386,-22.5835,24,0.6983,8703,3.9996,-20.4626
rg,1625400111222208597,1,0.1414,-0.5063,0.9097,184,63.5986,76.5381,-48.645,85,1.0825,0,2.5294,-20.3812,24,0.6943,8208,3.9996,-23.4068
rg,1625400111222227486,1,-0.3071,-0.3235,0.8335,185,54.4434,77.3315,-47.3633,85,1.0825,0,5.4461,-18.4321,24,0.6923,8295,3.9996,-26.2184
rg,1625400111222247468,1,-0.625,-0.1484,0.8276,186,31.311,28.6255,-33.7524,85,1.0825,0,7.2949,-17.0973,24,0.6923,8277,3.9996,-27.8232
rg,1625400111222265486,1,-0.6677,-0.1255,0.8115,187,13.4888,-10.6201,-23.7427,85,1.0845,0,5.872,-17.3425,24,0.6953,8386,3.9996,-27.7413
rg,1625400111222284468,1,-0.3381,-0.3665,1.0034,188,-18.3105,-93.3228,-6.5308,85,1.0845,0,2.7093,-18.1046,24,0.6963,8360,3.9996,-26.8607
rg,1625400111222302542,1,0.2288,-0.5081,1.0662,189,-33.8135,-128.8452,8.2397,85,1.0885,0,-2.5723,-19.7309,24,0.6973,8400,3.9996,-24.8816
rg,1625400111222320949,1,0.6433,-0.6062,1.012,190,-39.4897,-104.9194,12.0239,85,1.0865,0,-7.3018,-21.8572,24,0.6973,8411,3.9996,-22.8975
rg,1625400111222340560,1,0.6626,-0.5361,0.9963,191,-44.2505,-77.2705,9.2773,85,1.0805,0,-10.8759,-24.0882,24,0.6923,8481,3.9996,-21.2829
rg,1625400111222383505,1,1.0786,-0.874,0.8047,192,15.8081,-28.1982,13.4277,85,1.0805,0,-12.8819,-24.3312,24,0.6893,8473,3.9996,-20.1794
rg,1625400111567334967,1,0.116,-0.0945,0.7104,193,20.874,27.3438,-13.7329,85,1.0805,0,-11.9718,-22.6249,24,0.6893,25589,3.9996,-21.2908
rg,1625400111567368282,1,0.0732,-0.4346,0.9087,194,-0.6714,28.0151,-7.9346,85,1.0805,0,-11.0687,-22.7164,24,0.6903,14766,3.9996,-21.7594
rg,1625400111567389023,1,0.2793,-0.4075,0.9036,195,-5.0659,17.8833,-3.418,85,1.0805,0,-10.6468,-22.8954,24,0.6903,7844,3.9996,-22.1603
rg,1625400111567409264,1,0.4067,-0.4373,0.8894,196,-7.019,35.4004,-5.0049,85,1.0815,0,-9.8839,-23.1581,24,0.6903,7856,3.9996,-22.89
rg,1625400111567428023,1,0.3179,-0.4233,0.864,197,-8.2397,50.5981,-8.7891,85,1.0815,0,-8.3057,-23.4001,24,0.6913,7909,3.9996,-24.0132
rg,1625400111567446208,1,0.1104,-0.3928,0.8433,198,-16.7236,63.4155,-18.7988,85,1.0825,0,-6.2303,-23.9056,24,0.6933,7925,3.9996,-25.7279
rg,1625400111567463856,1,-0.0359,-0.5137,0.9316,199,-18.8599,57.0068,-23.9868,85,1.0835,0,-4.1982,-24.6673,24,0.6953,10679,3.9996,-27.5324
rg,1625400111567482134,1,-0.0752,-0.4832,0.9336,200,-15.9912,38.8184,-23.8037,85,1.0845,0,-2.8707,-25.3113,24,0.6973,7961,3.9996,-29.0495
rg,1625400111567518301,1,-0.0283,-0.6128,1.0137,201,-12.146,23.9258,-21.1182,85,1.0855,0,-2.209,-25.9679,24,0.6983,7958,3.9996,-30.2164
rg,1625400111567536819,1,0.0254,-0.7002,1.0752,202,-2.9297,19.043,-19.043,85,1.0865,0,-1.9615,-26.4115,24,0.7013,7999,3.9996,-31.2228
rg,1625400111567556764,1,0.2537,-0.7454,1.0408,203,31.0669,14.4043,-15.1978,85,1.0865,0,-2.0762,-25.4933,24,0.7023,8044,3.9996,-32.0139
rg,1625400111567574893,1,0.4119,-0.6538,0.9805,204,51.9409,40.9546,-18.8599,85,1.0875,0,-1.5763,-23.6774,24,0.7023,8111,3.9996,-33.3843
rg,1625400111567591634,1,0.1416,-0.5425,0.9126,205,56.8848,65.6128,-38.3301,85,1.0865,0,0.007,-21.6461,24,0.7023,8936,3.9996,-35.809
rg,1625400111567608486,1,-0.0422,-0.4412,0.8774,206,56.2744,70.4346,-41.0767,85,1.0855,0,2.1507,-19.6435,24,0.6993,8009,3.9996,-38.3398
rg,1625400111567625319,1,-0.439,-0.2607,0.8284,207,42.8467,58.4106,-31.25,85,1.0865,0,4.8949,-17.9722,24,0.6983,8032,3.9996,-40.2629
rg,1625400111567642356,1,-0.6831,-0.1428,0.8247,208,13.1226,-0.4883,-13.7329,85,1.0865,0,5.99,-17.2433,24,0.7003,8104,3.9996,-40.7512
rg,1625400111567658764,1,-0.6104,-0.2581,0.8799,209,-6.8359,-44.7388,-7.5684,85,1.0875,0,5.2498,-17.4582,24,0.7003,8100,3.9996,-40.5009
rg,1625400111567675004,1,-0.0725,-0.4246,0.9749,210,-20.4468,-119.2627,10.0098,85,1.0885,0,0.7999,-18.4107,24,0.7013,8154,3.9996,-38.6667
rg,1625400111567691671,1,0.479,-0.4617,1.0056,211,-39.7949,-126.4038,14.7095,85,1.0865,0,-4.6819,-20.2951,24,0.7013,8117,3.9996,-36.4215
rg,1625400111567708597,1,0.6003,-0.5525,1.0315,212,-46.2646,-102.9053,14.5264,85,1.0795,0,-9.1475,-22.6634,24,0.6963,8164,3.9996,-34.3164
rg,1625400111567725097,1,0.8389,-0.7771,1.4143,213,-32.7148,-54.2603,10.6812,85,1.0795,0,-11.6702,-24.4138,24,0.6983,8230,3.9996,-32.9903
rg,1625400111567741560,1,0.8306,-0.0376,0.8049,214,7.5684,18.9209,1.0986,85,1.0815,0,-12.2575,-23.4499,24,0.6973,8260,3.9996,-33.4003
rg,1625400111567768208,1,0.2954,-0.4651,0.9565,215,-5.8594,76.416,-4.0283,85,1.0815,0,-9.6565,-23.5092,24,0.6983,8243,3.9996,-34.7756
rg,1625400111567786153,1,0.0388,-0.2219,0.7578,216,11.2915,44.5557,-3.2959,85,1.0785,0,-7.8057,-22.6408,24,0.6963,8240,3.9996,-35.6543
rg,1625400111567803356,1,0.1597,-0.3391,0.8457,217,-0.5493,28.1372,-5.9204,85,1.0805,0,-6.9442,-22.5413,24,0.6983,8257,3.9996,-36.3172
rg,1625400111567820153,1,0.1362,-0.3494,0.8386,218,-5.0049,31.3721,-6.4087,85,1.0815,0,-5.9492,-22.9147,24,0.6983,8244,3.9996,-36.9902
rg,1625400111567837004,1,0.1372,-0.4326,0.8855,219,-13.6108,26.4282,-6.897,85,1.0815,0,-5.1671,-23.5091,24,0.6983,9020,3.9996,-37.6522
rg,1625400111567853690,1,0.2417,-0.4226,0.873,220,-16.0522,22.583,-11.5356,85,1.0825,0,-4.877,-24.1635,24,0.6993,8313,3.9996,-38.4341
rg,1625400111567870393,1,0.2266,-0.4939,0.9011,221,-18.0664,31.9824,-20.6299,85,1.0875,0,-4.3586,-24.9511,24,0.7013,8408,3.9996,-39.7053
rg,1625400111567887023,1,-0.0049,-0.5505,0.9609,222,-17.7002,39.6729,-26.7944,85,1.0865,0,-3.2058,-25.7341,24,0.7043,8404,3.9996,-41.3447
rg,1625400111567903690,1,-0.0505,-0.6089,0.9973,223,-12.5732,32.2266,-27.2217,85,1.0875,0,-2.6131,-26.1158,24,0.7053,8420,3.9996,-42.6591
rg,1625400111567920319,1,0.042,-0.6328,1.0042,224,4.4556,17.6392,-22.8271,85,1.0865,0,-2.3608,-26.1235,24,0.7053,8664,3.9996,-43.7801
rg,1625400111929792226,1,0.3672,-0.5242,0.8687,225,57.5562,55.8472,-31.7383,85,1.0865,0,-0.6639,-23.8963,24,0.7013,25792,3.9996,-46.3441
rg,1625400111929835393,1,-0.2996,-0.2637,0.8213,226,44.2505,76.355,-36.8652,85,1.0865,0,2.3322,-21.9353,24,0.7003,8719,3.9996,-48.8815
rg,1625400111930576412,1,-0.6816,-0.1785,0.7856,227,28.6865,58.2886,-30.6396,85,1.0865,0,4.38,-21.3933,24,0.7003,8675,3.9996,-50.1317
rg,1625400111930616819,1,-0.6436,-0.2903,0.9004,228,-10.2539,-17.334,-10.2539,85,1.0885,0,4.7151,-21.692,24,0.7033,7878,3.9996,-50.2503
rg,1625400111930644263,1,-0.1997,-0.3623,0.9023,229,-26.4282,-93.2007,6.4697,85,1.0905,0,1.6454,-22.6558,24,0.7053,7910,3.9996,-48.5996
rg,1625400111930670189,1,0.3408,-0.6201,1.0613,230,-42.4805,-111.145,18.7988,85,1.0895,0,-2.7738,-24.6585,24,0.7053,9115,3.9996,-46.1216
rg,1625400111930691356,1,0.5166,-0.657,1.0393,231,-43.457,-99.6094,20.4468,85,1.0855,0,-6.7109,-26.6414,24,0.7033,8536,3.9996,-43.6348
rg,1625400111930713819,1,1.0608,-1.0386,1.0249,232,14.2212,-49.4995,27.5879,85,1.0795,0,-9.094,-26.925,24,0.7003,7972,3.9996,-41.6673
rg,1625400111930735245,1,0.9058,-0.3438,0.9768,233,24.1699,36.6211,14.8315,85,1.0845,0,-8.7281,-25.7081,24,0.6983,8105,3.9996,-41.8408
rg,1625400111930796986,1,0.3291,-0.4841,0.8704,234,44.0063,81.8481,1.8311,85,1.0835,0.001,-6.3296,-22.4655,24,0.6973,8478,3.9996,-43.1232
rg,1625400111930833967,1,0.0188,0.1184,0.5635,235,40.8325,56.9458,-6.8359,85,1.0825,0,-4.1718,-19.4512,24,0.6963,7908,3.9996,-44.3394
rg,1625400111930855745,1,-0.052,-0.3633,0.8818,236,5.7983,38.6353,-6.2866,85,1.0825,0,-2.5143,-19.2874,24,0.6973,8083,3.9996,-45.083
rg,1625400111930876782,1,0.1816,-0.3811,0.9009,237,0.2441,17.334,-0.4883,85,1.0825,0,-2.184,-19.4041,24,0.6973,9855,3.9996,-45.326
rg,1625400111930895782,1,0.3577,-0.3167,0.8535,238,-2.6245,31.189,-1.6479,85,1.0835,0,-1.781,-19.5224,24,0.6993,8009,3.9996,-45.8044
rg,1625400111930917652,1,0.2664,-0.2949,0.8237,239,-7.2632,45.4102,-7.9346,85,1.0825,0,-0.7763,-19.7935,24,0.6993,8040,3.9996,-46.7155
rg,1625400111930936819,1,0.05,-0.3848,0.8813,240,-20.2637,52.9785,-17.0288,85,1.0845,0,0.881,-20.7471,24,0.7003,8070,3.9996,-48.0878
rg,1625400111930957393,1,0.0142,-0.5583,0.9817,241,-24.7192,43.335,-23.9258,85,1.0855,0,2.0753,-22.1171,24,0.7033,8075,3.9996,-49.6185
rg,1625400111930975467,1,-0.0178,-0.5601,0.9902,242,-19.6533,39.0625,-25.2075,85,1.0855,0,3.0758,-23.2554,24,0.7043,8163,3.9996,-51.1642
rg,1625400111930994986,1,-0.0303,-0.5859,0.9951,243,-13.3667,33.4473,-20.874,85,1.0875,0,3.8982,-24.1478,24,0.7053,8154,3.9996,-52.4848
rg,1625400111931014430,1,-0.0254,-0.6553,1.0544,244,-0.2441,27.2217,-21.7285,85,1.0875,0,4.4205,-24.5464,24,0.7093,8209,3.9996,-53.75
rg,1625400111931033171,1,-0.052,-0.6936,1.0598,245,16.5405,25.8789,-23.3154,85,1.0895,0,4.7872,-24.3479,24,0.7083,8213,3.9996,-55.0607
rg,1625400111931051245,1,0.2913,-0.6545,0.9673,246,57.5562,20.1416,-16.1133,85,1.0895,0,4.5395,-22.4957,24,0.7063,8240,3.9996,-56.0198
rg,1625400111931070356,1,0.3091,-0.4883,0.897,247,63.5986,40.1611,-36.6821,85,1.0875,0,4.6666,-20.3434,24,0.7043,8240,3.9996,-58.014
rg,1625400111931090226,1,0.1575,-0.4353,0.8604,248,60.6079,56.8848,-41.748,85,1.0865,0,5.7059,-18.3882,24,0.7013,8262,3.9996,-60.3851
rg,1625400111931129801,1,-0.2192,-0.3706,0.8716,249,48.4009,72.6318,-40.2832,85,1.0865,0,8.2628,-16.9294,24,0.6983,8304,3.9996,-62.8347
rg,1625400111931151634,1,-0.6055,-0.0273,0.7966,250,28.1372,39.4287,-25.6958,85,1.0865,0,10.586,-15.5666,24,0.6983,9505,3.9996,-64.1996
rg,1625400111931170689,1,-0.6821,-0.283,0.9202,251,-17.7612,-38.3301,-6.4087,85,1.0875,0,9.9928,-16.2905,24,0.6993,8790,3.9996,-64.0348
rg,1625400111931189523,1,-0.4739,-0.426,1.0339,252,-26.8555,-83.6792,5.127,85,1.0895,0,5.5714,-17.2792,24,0.7013,8316,3.9996,-62.0971
rg,1625400111931207838,1,0.2327,-0.3579,0.9712,253,-38.8184,-134.0942,19.9585,85,1.0885,0,0.0315,-18.8174,24,0.7023,8435,3.9996,-59.6735
rg,1625400111931225875,1,0.7078,-0.5901,1.0696,254,-55.3589,-100.647,17.7002,85,1.0875,0,-4.6246,-21.4464,24,0.7023,8360,3.9996,-57.595
rg,1625400111931243986,1,0.7183,-0.54,1.2046,255,-55.8472,-37.7808,8.9722,85,1.0845,0,-6.7928,-23.8554,24,0.7013,8450,3.9996,-56.6503
rg,1625400111931265338,1,0.9136,-0.0332,0.6248,256,27.2827,14.7705,7.9956,85,1.0855,0,-7.8414,-22.3093,24,0.7003,10445,3.9996,-56.6692
rg,1625400112286503782,1,-0.0537,-0.1853,0.7585,257,13.4277,35.7056,-8.1787,85,1.0845,0,-6.8522,-21.9807,24,0.7013,25585,3.9996,-57.3471
rg,1625400112286591708,1,0.1228,-0.3647,0.8743,258,-4.9438,26.123,-8.4229,85,1.0845,0,-6.0334,-22.1187,24,0.7023,10344,3.9996,-58.0547
rg,1625400112286612874,1,0.1479,-0.4204,0.9106,259,-14.0991,25.3906,-11.5967,85,1.0845,0,-5.3668,-22.6983,24,0.7033,7952,3.9996,-58.8649
rg,1625400112286634597,1,0.1897,-0.4031,0.894,260,-15.5029,24.4751,-13.7939,85,1.0855,0,-4.8879,-23.2916,24,0.7053,7927,3.9996,-59.7538
rg,1625400112286654023,1,0.1125,-0.4526,0.9321,261,-18.8599,32.1655,-22.0947,85,1.0865,0,-4.1196,-24.0361,24,0.7063,7926,3.9996,-61.0762
rg,1625400112286673226,1,-0.033,-0.5676,1.0034,262,-18.9209,29.7241,-26.2451,85,1.0875,0,-3.2486,-24.9072,24,0.7083,7917,3.9996,-62.5142
rg,1625400112286769689,1,-0.0425,-0.5989,1.0195,263,-16.7236,22.2778,-25.4517,85,1.0905,0,-2.9321,-25.5118,24,0.7103,8152,3.9996,-63.6607
rg,1625400112286791689,1,0.0037,-0.6143,1.0208,264,-6.7749,13.0615,-24.1699,85,1.0885,0,-2.7736,-25.9393,24,0.7103,8017,3.9996,-64.7491
rg,1625400112286812504,1,0.0911,-0.7256,1.0818,265,12.2681,12.085,-21.9116,85,1.0915,0,-2.7707,-25.7066,24,0.7123,8050,3.9996,-65.7351
rg,1625400112286832263,1,0.2097,-0.7236,1.0305,266,27.2827,12.7563,-19.3481,85,1.0915,-0.001,-2.9663,-24.3665,24,0.7113,8019,3.9996,-66.8266
rg,1625400112286879726,1,0.2935,-0.5557,0.9189,267,49.1943,46.3257,-38.208,85,1.0905,0,-2.3658,-22.558,24,0.7083,11965,3.9996,-68.9647
rg,1625400112286900189,1,0.1294,-0.5244,0.9133,268,49.2554,59.1431,-43.8843,85,1.0895,0,-0.6291,-20.7976,24,0.7063,8035,3.9996,-71.6156
rg,1625400112286919041,1,-0.0984,-0.4678,0.8892,269,47.4243,57.6782,-48.584,85,1.0885,0,1.1118,-19.1853,24,0.7043,8040,3.9996,-74.2246
rg,1625400112286938134,1,-0.1897,-0.4263,0.8884,270,44.0063,34.4238,-44.1895,85,1.0885,0,2.2383,-17.7374,24,0.7023,8130,3.9996,-76.3379
rg,1625400112287364708,1,-0.1809,-0.4197,0.9028,271,40.0391,20.6299,-41.748,85,1.0885,0,2.4712,-16.5454,24,0.7013,8146,3.9996,-77.8733
rg,1625400112287399374,1,-0.2451,-0.2219,0.9067,272,29.8462,0.4272,-29.541,85,1.0885,0,2.6432,-15.2951,24,0.7013,8586,3.9996,-79.0044
rg,1625400112287423208,1,-0.3379,-0.2842,0.9985,273,-3.6011,-34.79,-10.1929,85,1.0895,0,1.7995,-15.458,24,0.7043,8856,3.9996,-79.0285
rg,1625400112287445078,1,-0.186,-0.4207,0.9565,274,-20.0195,-81.9702,5.127,85,1.0925,0,-0.956,-16.5657,24,0.7063,8162,3.9996,-77.9374
rg,1625400112287467097,1,0.2939,-0.3867,0.8831,275,-34.0576,-109.9243,10.376,85,1.0905,0,-5.6327,-18.2859,24,0.7023,8178,3.9996,-76.2061
rg,1625400112287488800,1,0.4324,-0.3132,0.8496,276,-43.8843,-102.356,9.0332,85,1.0825,0,-10.1399,-20.0458,24,0.6953,8232,3.9996,-74.5128
rg,1625400112287508745,1,0.8423,-0.5156,1.2136,277,-15.8691,-66.8945,6.958,85,1.0825,0,-13.3992,-21.0261,24,0.6913,8210,3.9996,-73.2614
rg,1625400112287528374,1,0.7664,0.2402,0.7578,278,0.7935,3.9062,-5.8594,85,1.0825,-0.001,-14.5665,-19.8681,24,0.6903,8288,3.9996,-73.8053
rg,1625400112287547911,1,0.3062,-0.5388,1.0535,279,-16.6626,47.1191,-17.2729,85,1.0825,0,-13.7036,-20.1199,24,0.6903,8267,3.9996,-74.9396
rg,1625400112287598985,1,0.2529,-0.241,0.896,280,-4.0283,25.3906,-20.0806,85,1.0795,0,-13.0865,-19.8141,24,0.6903,8310,3.9996,-76.1222
rg,1625400112287634226,1,0.0647,-0.5432,1.0229,281,-15.1978,45.6543,-4.7607,85,1.0815,0,-11.0572,-20.5696,24,0.6903,8327,3.9996,-76.8799
rg,1625400112287654282,1,0.1577,-0.2158,0.8125,282,-12.3291,32.1045,0.6714,85,1.0805,0,-9.8332,-20.752,24,0.6903,8389,3.9996,-77.3612
rg,1625400112287674411,1,0.1772,-0.2485,0.814,283,-18.9819,31.5552,0.6714,85,1.0825,0,-8.7248,-21.2855,24,0.6913,8325,3.9996,-77.8222
rg,1625400112287694819,1,0.0649,-0.4282,0.9287,284,-33.2642,31.0669,-8.0566,85,1.0825,0,-7.4944,-22.6353,24,0.6913,8328,3.9996,-78.5766
rg,1625400112287732226,1,0.0957,-0.7305,1.0691,285,-27.0996,10.2539,-14.8315,85,1.0835,0,-7.2288,-24.0809,24,0.6953,8397,3.9996,-79.2312
rg,1625400112287754782,1,0.1619,-0.74,1.0566,286,-14.6484,2.6855,-16.6626,85,1.0835,0,-7.5533,-24.3538,24,0.6983,8451,3.9996,-79.8747
rg,1625400112287775541,1,0.1621,-0.6472,0.9978,287,16.0522,-1.0376,-21.2402,85,1.0835,0,-7.9483,-23.9438,24,0.7003,8518,3.9996,-80.5953
rg,1625400112287796078,1,0.1899,-0.6294,0.928,288,39.2456,3.7231,-22.522,84,1.0855,0,-8.2375,-22.6468,24,0.7023,8467,3.9996,-81.4361
rg,1625400112640397374,1,0.2905,-0.481,0.8201,289,70.0073,65.6128,-37.9639,84,1.0855,0,-6.6977,-19.8332,24,0.6973,25894,3.9996,-83.7912
rg,1625400112640448282,1,-0.0779,-0.4412,0.8298,290,67.627,92.4072,-38.8184,84,1.0835,0,-3.301,-17.4222,24,0.6933,14444,3.9996,-86.3042
rg,1625400112640469819,1,-0.196,-0.4648,0.8682,291,62.8662,69.8853,-36.6821,84,1.0825,0,-0.4744,-15.2539,24,0.6903,8669,3.9996,-88.4654
rg,1625400112640490078,1,-0.2151,-0.3174,0.8267,292,59.3872,38.9404,-31.4331,84,1.0815,0,1.2755,-13.1146,24,0.6873,7863,3.9996,-90.0538
rg,1625400112640508985,1,-0.4214,0.0747,0.7439,293,32.8369,16.4185,-13.7329,84,1.0815,0,2.8696,-11.1881,24,0.6863,7923,3.9996,-90.6964
rg,1625400112640528893,1,-0.5212,-0.0142,0.7852,294,-0.3662,-4.9438,-2.9297,84,1.0835,0,3.8126,-10.8708,24,0.6883,7891,3.9996,-90.7525
rg,1625400112640548430,1,-0.428,-0.2788,0.9485,295,-32.959,-70.7397,17.6392,84,1.0845,0,1.953,-12.3192,24,0.6903,8029,3.9996,-89.512
rg,1625400112640567670,1,0.1953,-0.3469,1.0308,296,-52.5513,-133.0566,30.3955,84,1.0855,0,-3.3918,-14.6854,24,0.6933,7969,3.9996,-87.0854
rg,1625400112640586393,1,0.5256,-0.3784,1.0571,297,-60.6689,-132.2021,32.1045,84,1.0855,0,-8.9271,-17.574,24,0.6933,8019,3.9996,-84.3356
rg,1625400112640605189,1,0.8203,-0.3994,1.0649,298,-75.5615,-82.2754,26.123,84,1.0845,0,-12.6945,-21.0814,24,0.6913,8052,3.9996,-82.1759
rg,1625400112640623800,1,0.6731,-0.4514,1.4333,299,-76.7822,-27.9541,8.7891,84,1.0825,0,-14.034,-24.1854,24,0.6903,8030,3.9996,-81.4179
rg,1625400112640642374,1,1.0278,-0.7388,0.9141,300,-22.1558,-2.5024,12.6953,84,1.0815,0,-14.9527,-25.6456,24,0.6873,8072,3.9996,-80.7778
rg,1625400112640660133,1,0.3657,-0.3372,0.981,301,-27.771,64.0869,-0.9766,84,1.0825,0,-12.8517,-26.2037,24,0.6863,8123,3.9996,-82.04
rg,1625400112640677967,1,0.0159,-0.3711,0.8772,302,-6.1646,43.5181,-0.7935,84,1.0825,0,-10.8405,-26.1433,24,0.6863,8009,3.9996,-82.8863
rg,1625400112640697522,1,0.0776,-0.2585,0.8379,303,-8.0566,24.9023,-1.8311,84,1.0805,0,-9.7559,-26.0072,24,0.6853,7977,3.9996,-83.4684
rg,1625400112640760911,1,0.061,-0.3518,0.8616,304,-18.0054,20.4468,-0.1831,84,1.0815,0,-8.79,-26.5061,24,0.6843,8099,3.9996,-83.8707
rg,1625400112640787245,1,0.1792,-0.4207,0.8923,305,-25.4517,6.5308,-1.9531,84,1.0815,0,-8.651,-27.4354,24,0.6863,8069,3.9996,-84.0697
rg,1625400112640806689,1,0.238,-0.4749,0.9128,306,-26.3672,4.9438,-6.2256,84,1.0805,0,-8.7645,-28.4339,24,0.6863,8146,3.9996,-84.3856
rg,1625400112640826430,1,0.1543,-0.5374,0.9321,307,-22.7051,11.0474,-12.9395,84,1.0815,0,-8.6029,-29.2908,24,0.6883,8160,3.9996,-85.0522
rg,1625400112640846393,1,0.1445,-0.6262,0.9663,308,-11.5967,6.7749,-14.2822,84,1.0805,0,-8.5908,-29.7954,24,0.6913,8161,3.9996,-85.6693
rg,1625400112640865856,1,0.2227,-0.6577,0.9824,309,-3.6621,5.3101,-15.9302,84,1.0815,0,-8.8055,-29.9905,24,0.6943,8183,3.9996,-86.3125
rg,1625400112641397670,1,0.2874,-0.6931,0.988,310,17.0898,23.0713,-17.5781,84,1.0815,0,-8.5354,-29.3349,24,0.6983,8219,3.9996,-87.3655
rg,1625400112641430948,1,0.4268,-0.8381,1.0217,311,57.4341,53.2837,-13.916,84,1.0845,0,-7.3027,-27.2072,24,0.7003,8856,3.9996,-88.8339
rg,1625400112641455004,1,0.3999,-0.7246,0.895,312,91.5527,89.2334,-24.7192,84,1.0845,0,-4.9903,-23.7273,24,0.7003,8282,3.9996,-91.2374
rg,1625400112641477189,1,0.2588,-0.5901,0.8381,313,100.5859,106.9946,-33.9966,84,1.0855,0,-1.1372,-19.8649,24,0.6973,8495,3.9996,-94.521
rg,1625400112641501985,1,-0.2747,-0.3853,0.7854,314,88.9893,118.2251,-46.6309,84,1.0835,0,3.4714,-16.6146,24,0.6913,11228,3.9996,-97.7465
rg,1625400112641523819,1,-0.3853,-0.3958,0.8071,315,81.604,102.417,-49.0112,84,1.0815,0,7.6535,-13.9906,24,0.6853,8398,3.9996,-100.7346
rg,1625400112641547152,1,-0.4753,-0.2949,0.8376,316,69.6411,52.002,-44.1895,84,1.0805,0,10.0727,-11.7401,24,0.6813,8383,3.9996,-102.9562
rg,1625400112641566393,1,-0.5242,-0.1194,0.7588,317,43.0298,-1.0986,-27.1606,84,1.0805,0,10.7525,-10.121,24,0.6803,8443,3.9996,-104.001
rg,1625400112641586096,1,-0.6399,-0.063,0.8967,318,20.9351,-23.2544,-15.0146,84,1.0825,0,9.8197,-9.8288,24,0.6823,8442,3.9996,-103.7299
rg,1625400112641606615,1,-0.634,-0.1899,0.9531,319,-15.564,-74.1577,8.9111,84,1.0825,0,7.8669,-10.3603,24,0.6843,8676,3.9996,-102.8585
rg,1625400112641626485,1,-0.0627,-0.3333,0.9648,320,-30.4565,-150.8789,31.7383,84,1.0845,0,2.0417,-11.7062,24,0.6863,8597,3.9996,-100.4935
rg,1625400112997518115,1,0.8772,-0.3875,0.9907,321,-76.8433,-22.583,5.7983,84,1.0835,0,-0.282,-15.0525,24,0.6813,26001,3.9996,-100.0257
rg,1625400112997558004,1,0.2065,-0.3945,1.2468,322,-78.125,32.0435,-10.0708,84,1.0815,0,0.6883,-18.0058,24,0.6773,13947,3.9996,-100.8876
rg,1625400112997578800,1,0.5347,-0.6323,0.8296,323,-25.6958,39.978,-3.9673,84,1.0815,0,1.0874,-19.7038,24,0.6763,8109,3.9996,-101.5496
rg,1625400112997598448,1,0.1836,-0.376,0.8772,324,-27.5879,71.106,-18.4326,84,1.0825,0,3.0171,-20.9945,24,0.6753,7962,3.9996,-103.2311
rg,1625400112997617707,1,-0.0676,-0.5884,0.9597,325,-19.2871,74.707,-23.9868,84,1.0815,0,4.4358,-21.4594,24,0.6763,7958,3.9996,-104.8079
rg,1625400112997636818,1,0.1108,-0.2803,0.7795,326,-4.6387,30.3955,-23.6206,84,1.0815,0,4.7405,-21.679,24,0.6773,7981,3.9996,-106.1328
rg,1625400112997655337,1,0.2415,-0.4282,0.8486,327,-13.1226,33.2031,-28.8696,84,1.0775,0,4.794,-22.5231,24,0.6793,8960,3.9996,-107.7202
rg,1625400112997674022,1,0.1858,-0.4851,0.8833,328,-18.1885,48.7671,-36.0107,84,1.0775,0,5.4199,-23.6729,24,0.6813,8472,3.9996,-109.8349
rg,1625400112997692207,1,-0.0186,-0.5259,0.9155,329,-15.8691,56.2744,-40.2222,84,1.0815,0,6.6289,-24.7982,24,0.6843,8019,3.9996,-112.2622
rg,1625400112997711429,1,-0.1165,-0.5459,0.9417,330,-11.0474,51.7578,-40.7104,84,1.0815,0,7.7923,-25.7929,24,0.6873,8020,3.9996,-114.669
rg,1625400112997755226,1,-0.0857,-0.6328,1.0251,331,6.7139,27.771,-36.6211,84,1.0785,0,8.0002,-26.0031,24,0.6903,8038,3.9996,-116.5208
rg,1625400112997775948,1,0.2085,-0.7024,1.0466,332,38.269,12.3291,-31.7993,84,1.0845,0,7.2206,-24.9619,24,0.6953,8100,3.9996,-117.9427
rg,1625400112997805485,1,0.373,-0.6694,1.0051,333,57.0679,20.874,-27.2827,84,1.0865,0,6.4072,-23.1348,24,0.6963,8142,3.9996,-119.3454
rg,1625400112997824633,1,0.4653,-0.5601,0.9346,334,75.9888,53.0396,-40.9546,84,1.0855,0,6.6414,-20.652,24,0.6953,8133,3.9996,-121.7299
rg,1625400112997842744,1,0.1699,-0.4111,0.8743,335,74.3408,88.0737,-54.6875,84,1.0875,0,8.5721,-18.2952,24,0.6953,8108,3.9996,-125.0308
rg,1625400112997860892,1,-0.187,-0.3545,0.8928,336,62.8052,91.7358,-54.8096,84,1.0875,0,11.4994,-16.483,24,0.6933,11923,3.9996,-128.2874
rg,1625400112997878744,1,-0.5901,-0.0671,0.8599,337,43.6401,55.2368,-36.9263,84,1.0875,0,14.1061,-14.7953,24,0.6923,8143,3.9996,-130.2622
rg,1625400112997896892,1,-0.7717,-0.0564,0.926,338,-11.4136,-31.0669,-12.6343,84,1.0885,0,13.7659,-14.937,24,0.6943,9602,3.9996,-130.3487
rg,1625400112997914652,1,-0.6606,-0.3474,1.062,339,-29.0527,-78.2471,-3.7842,84,1.0905,0,11.3739,-16.0496,24,0.6963,8189,3.9996,-129.6704
rg,1625400112997933133,1,0.1829,-0.4353,1.0586,340,-25.8179,-168.5181,16.2964,84,1.0915,0,4.3371,-16.9717,24,0.6973,8278,3.9996,-127.1476
rg,1625400112997952707,1,1.0796,-0.4006,1.0391,341,-28.3203,-145.6299,18.7988,84,1.0905,0,-2.6557,-18.1776,24,0.6973,8611,3.9996,-124.6638
rg,1625400112997971244,1,0.9854,-0.3438,0.9702,342,-47.7295,-36.438,7.9346,84,1.0885,0,-5.4122,-20.171,24,0.6953,8767,3.9996,-123.8561
rg,1625400112997990133,1,0.6909,-0.4099,0.9458,343,-57.0068,3.2349,1.3428,84,1.0855,0,-6.3493,-22.5494,24,0.6923,8432,3.9996,-123.8222
rg,1625400112998008429,1,0.811,-0.7307,0.8557,344,-7.5684,37.9639,4.8218,84,1.0865,0,-6.0039,-23.3725,24,0.6923,8270,3.9996,-124.1715
rg,1625400112998026374,1,0.2073,-0.364,0.9004,345,-12.8784,92.6514,-4.2114,84,1.0875,0,-2.9248,-23.6996,24,0.6913,8303,3.9996,-125.8206
rg,1625400112998044337,1,-0.1826,-0.6091,0.9602,346,-4.8218,98.6938,-10.0098,84,1.0885,0,-0.3005,-23.3972,24,0.6913,8318,3.9996,-127.0241
rg,1625400112998062115,1,0.0127,-0.1633,0.7322,347,8.3618,26.7334,-9.5215,84,1.0875,0,0.5044,-22.6336,24,0.6903,8297,3.9996,-127.7963
rg,1625400112998079744,1,0.2166,-0.2844,0.7966,348,-2.6855,16.2354,-11.8408,84,1.0865,0,0.3374,-22.6255,24,0.6913,9053,3.9996,-128.4836
rg,1625400112998097559,1,0.2581,-0.2988,0.8164,349,-19.4702,27.771,-15.9302,84,1.0885,0,0.449,-23.3075,24,0.6903,8376,3.9996,-129.5011
rg,1625400112998115078,1,0.0864,-0.4419,0.9128,350,-34.1797,45.7764,-20.9961,84,1.0875,0,1.5619,-24.7903,24,0.6953,8432,3.9996,-131.0143
rg,1625400112998132355,1,0.002,-0.5515,0.9866,351,-36.3159,47.1191,-21.2402,84,1.0885,0,2.8207,-26.4673,24,0.6973,8464,3.9996,-132.602
rg,1625400112998164855,1,0.0454,-0.7393,1.1165,352,-20.6909,34.6069,-18.7378,84,1.0895,0,3.5194,-27.6357,24,0.7003,8486,3.9996,-133.9142
rg,1625400113352942689,1,0.5845,-0.668,0.95,353,64.3311,65.0635,-20.5078,84,1.0935,0,4.3309,-25.4603,24,0.7053,25381,3.9996,-135.8577
rg,1625400113352978596,1,0.3108,-0.531,0.8845,354,70.0073,109.6191,-44.0674,84,1.0925,0,7.5911,-23.2644,24,0.7033,14303,3.9996,-139.8277
rg,1625400113353000114,1,-0.1011,-0.4385,0.8606,355,62.2559,129.2725,-53.4668,84,1.0915,0,11.4688,-21.5883,24,0.7003,7858,3.9996,-143.8535
rg,1625400113353023577,1,-0.4355,-0.3721,0.8594,356,53.9551,102.5391,-52.5513,84,1.0905,0,15.0566,-20.3059,24,0.6983,7937,3.9996,-147.3838
rg,1625400113353042800,1,-0.7209,-0.0789,0.8015,357,37.3535,41.9922,-38.4521,84,1.0905,0,17.1472,-18.9434,24,0.6963,8073,3.9996,-149.3476
rg,1625400113353060985,1,-0.79,-0.176,0.9863,358,15.9302,5.6152,-24.353,84,1.0915,0,16.3578,-19.0613,24,0.6983,9405,3.9996,-149.0863
rg,1625400113353080318,1,-0.7075,-0.3008,1.0642,359,-25.5127,-86.0596,2.2583,84,1.0935,0,13.7843,-19.631,24,0.7003,8006,3.9996,-147.7823
rg,1625400113353098652,1,-0.1277,-0.4673,1.0144,360,-40.2222,-166.5039,25.8789,84,1.0945,0,7.635,-20.8137,24,0.7013,8021,3.9996,-144.4943
rg,1625400113353117540,1,0.7393,-0.4375,0.9602,361,-43.2129,-185.5469,31.7383,84,1.0945,0,0.0066,-22.4733,24,0.7013,8062,3.9996,-140.604
rg,1625400113353135559,1,1.0249,-0.3616,0.9207,362,-53.3447,-147.4609,28.3813,84,1.0915,0,-6.5462,-24.7628,24,0.6963,7977,3.9996,-137.1649
rg,1625400113353153985,1,0.9919,-0.3313,1.397,363,-66.6504,-48.4619,8.1177,84,1.0905,0,-9.2095,-27.2015,24,0.6903,8446,3.9996,-136.0329
rg,1625400113353171781,1,0.8286,0.3369,0.6096,364,15.564,38.4521,-5.8594,84,1.0895,0,-9.5187,-25.1969,24,0.6883,8703,3.9996,-137.166
rg,1625400113353189374,1,-0.2603,-0.6355,0.9814,365,-24.4141,97.7173,-10.8643,84,1.0885,0,-5.0886,-25.5515,24,0.6873,8599,3.9996,-139.4521
rg,1625400113353235003,1,-0.0505,-0.2449,0.7019,366,8.3008,52.9785,-3.6011,84,1.0895,0,-3.4538,-24.5187,24,0.6883,8158,3.9996,-140.543
rg,1625400113353256726,1,0.1355,-0.4353,0.9502,367,-15.3198,41.1377,-6.7139,84,1.0865,0,-2.2335,-25.0806,24,0.6883,8126,3.9996,-141.4796
rg,1625400113353275096,1,0.0322,-0.406,0.9089,368,-18.1885,39.978,-3.9062,84,1.0905,0,-0.8465,-25.7371,24,0.6913,8186,3.9996,-142.311
rg,1625400113353293263,1,0.1409,-0.446,0.9229,369,-18.0054,30.1514,-5.4321,84,1.0885,0,-0.4635,-26.4983,24,0.6903,8328,3.9996,-143.1289
rg,1625400113353311355,1,0.2151,-0.4792,0.9316,370,-17.7002,33.3862,-14.8315,84,1.0885,0,0.0167,-27.2211,24,0.6923,8152,3.9996,-144.2606
rg,1625400113353394244,1,0.05,-0.605,0.9807,371,-10.5591,39.7949,-25.4517,84,1.0905,0,0.8531,-27.8234,24,0.6963,8230,3.9996,-145.9
rg,1625400113353418226,1,-0.0549,-0.6477,0.9883,372,-3.54,35.8276,-26.6724,84,1.0905,0,1.3745,-27.8531,24,0.7003,8201,3.9996,-147.3086
rg,1625400113353437429,1,0.02,-0.6064,0.9744,373,15.5029,15.3198,-25.8179,84,1.0905,0,1.3421,-27.4162,24,0.7013,8295,3.9996,-148.5124
rg,1625400113353456911,1,0.2563,-0.5886,0.9246,374,34.1797,10.9253,-28.0762,84,1.0915,0,0.6552,-26.2626,24,0.7043,8291,3.9996,-149.7227
rg,1625400113353476837,1,0.5015,-0.6064,0.8931,375,56.4575,43.0298,-26.8555,84,1.0935,0,0.7682,-24.3099,24,0.7063,8256,3.9996,-151.452
rg,1625400113353510818,1,0.4883,-0.5535,0.8621,376,62.1948,66.3452,-34.4238,84,1.0955,0,1.6506,-22.1727,24,0.7063,8290,3.9996,-153.7909
rg,1625400113353531929,1,0.1965,-0.4807,0.8306,377,59.8145,106.6895,-49.0723,84,1.0935,0,4.3843,-20.2656,24,0.7033,8361,3.9996,-157.1895
rg,1625400113353550614,1,-0.1218,-0.4233,0.8296,378,51.3916,119.4458,-51.0254,84,1.0945,0,8.3052,-18.8697,24,0.7043,8361,3.9996,-160.754
rg,1625400113353569318,1,-0.5171,-0.1599,0.8213,379,46.5088,112.4878,-50.354,84,1.0945,0,12.3731,-17.5624,24,0.7023,8415,3.9996,-163.6501
rg,1625400113353587596,1,-0.7866,0.0254,0.7271,380,21.4844,77.3926,-33.7524,84,1.0935,0,16.2326,-16.7291,24,0.7033,8473,3.9996,-165.7976
rg,1625400113353605892,1,-0.9524,-0.3521,1.0068,381,-27.0386,-19.2871,-6.4087,84,1.0965,0,16.3965,-17.8885,24,0.7053,8433,3.9996,-165.843
rg,1625400113353624022,1,-0.4158,-0.2959,0.9368,382,-36.8652,-129.0283,16.0522,84,1.0975,0,11.9752,-18.7757,24,0.7073,8474,3.9996,-163.5329
rg,1625400113353642707,1,0.0078,-0.3691,0.9771,383,-48.7061,-160.4614,23.6206,84,1.0975,0,5.0341,-20.8358,24,0.7063,8496,3.9996,-160.2767
rg,1625400113353661726,1,0.6233,-0.3843,0.9639,384,-68.7866,-152.8931,24.5361,84,1.0915,0,-1.5622,-23.5057,24,0.7013,8481,3.9996,-157.0317
rg,1625400113711156429,1,0.3191,-0.5237,0.9736,385,9.0332,99.3652,-8.3008,84,1.0935,0,1.3692,-23.3164,24,0.6963,27990,3.9996,-158.9164
rg,1625400113711203429,1,-0.0273,-0.0957,0.7393,386,3.479,49.0723,-8.7891,84,1.0935,0,3.0629,-22.5913,24,0.6963,10801,3.9996,-159.993
rg,1625400113711226355,1,-0.0586,-0.3796,0.8999,387,-13.1226,24.8413,-2.5024,84,1.0935,0,3.9498,-23.1491,24,0.6963,7902,3.9996,-160.4738
rg,1625400113711256114,1,0.0942,-0.3589,0.8796,388,-13.6108,7.2021,-1.2817,84,1.0935,0,3.8131,-23.659,24,0.6963,7869,3.9996,-160.6318
rg,1625400113711286651,1,0.3459,-0.3279,0.8157,389,-13.2446,1.8311,-3.7842,84,1.0935,0,2.8486,-24.1262,24,0.6963,7878,3.9996,-160.7927
rg,1625400113711305133,1,0.248,-0.5015,0.8872,390,-16.9067,10.437,-8.728,84,1.0935,0,2.6396,-25.0109,24,0.6983,7931,3.9996,-161.5889
rg,1625400113711323559,1,0.1538,-0.5566,0.9026,391,-11.6577,21.0571,-17.2119,84,1.0945,0,2.7609,-25.7977,24,0.7003,8119,3.9996,-162.5848
rg,1625400113711342114,1,0.1184,-0.5461,0.8721,392,2.2583,14.3433,-21.6064,84,1.0895,0,2.5299,-25.9946,24,0.7013,7951,3.9996,-163.6257
rg,1625400113711359374,1,0.1567,-0.4685,0.8025,393,14.4043,10.3149,-21.0571,84,1.0955,0,2.0572,-25.6184,24,0.7043,8016,3.9996,-164.5737
rg,1625400113711377336,1,0.1658,-0.448,0.7898,394,17.5171,11.4136,-22.0947,84,1.0965,0,1.602,-25.0989,24,0.7073,8005,3.9996,-165.5767
rg,1625400113711410429,1,0.1287,-0.4688,0.7983,395,24.0479,15.1367,-23.3154,84,1.0965,0,1.3844,-24.3709,24,0.7083,8001,3.9996,-166.6863
rg,1625400113711429040,1,0.1562,-0.53,0.8552,396,35.7056,17.6392,-23.1323,84,1.0955,0,1.2521,-23.2564,24,0.7123,8251,3.9996,-167.8297
rg,1625400113711446466,1,0.209,-0.5818,0.8804,397,48.584,20.3247,-20.5688,84,1.0975,0,0.9131,-21.7343,24,0.7123,8149,3.9996,-168.9216
rg,1625400113711464336,1,0.4243,-0.4978,0.7961,398,71.8994,39.2456,-15.8081,84,1.0915,0,1.1905,-19.2531,24,0.7123,8017,3.9996,-170.093
rg,1625400113711483596,1,0.2981,-0.4202,0.7505,399,78.064,70.6177,-29.6021,84,1.0975,0,2.7169,-16.5773,24,0.7123,8069,3.9996,-172.1183
rg,1625400113711503003,1,0.1558,-0.3914,0.7478,400,77.1484,80.6885,-33.9966,84,1.0975,0,5.1712,-14.0557,24,0.7103,8122,3.9996,-174.3147
rg,1625400113711522744,1,-0.0107,-0.3762,0.7629,401,77.2095,79.4678,-34.0576,84,1.0935,0,7.7827,-11.6875,24,0.7073,8166,3.9996,-176.4121
rg,1625400113711541503,1,-0.0828,-0.3479,0.7759,402,80.0781,57.1899,-32.8369,84,1.0955,0,9.7035,-9.2478,24,0.7053,8173,3.9996,-178.2087
rg,1625400113711559874,1,-0.0212,-0.2493,0.7537,403,83.1299,27.4658,-31.7993,84,1.0945,0,10.2948,-6.544,24,0.7033,10265,3.9996,-179.7103
rg,1625400113711579022,1,0.041,-0.2314,0.7649,404,82.0923,16.7236,-29.9683,83,1.0935,0,9.9685,-3.8737,24,0.7013,8176,3.9996,-180.9096
rg,1625400113711597818,1,0.1558,-0.2007,0.8274,405,78.2471,12.3901,-19.165,83,1.0935,0,9.6446,-1.277,24,0.6993,8317,3.9996,-181.7945
rg,1625400113711616003,1,0.136,-0.1772,0.8625,406,74.4629,18.7988,-11.9019,83,1.0935,0,9.6822,1.1995,24,0.6983,8325,3.9996,-182.3626
rg,1625400113711644281,1,0.115,-0.1724,0.8921,407,73.9136,18.6157,-8.1787,83,1.0935,0,9.7859,3.6121,24,0.6973,8316,3.9996,-182.7579
rg,1625400113711664874,1,0.1167,-0.186,0.9255,408,74.1577,12.207,-1.709,83,1.0925,0,9.6328,5.9701,24,0.6963,8315,3.9996,-182.9004
rg,1625400113711684059,1,0.1672,-0.1921,0.9346,409,78.7354,5.7373,2.3193,83,1.0935,0,9.1072,8.4411,24,0.6963,8441,3.9996,-182.9096
rg,1625400113711703707,1,0.199,-0.1909,0.9365,410,82.8857,3.0518,7.1411,83,1.0935,0,8.3528,11.1839,24,0.6963,8502,3.9996,-182.6389
rg,1625400113711735948,1,0.2415,-0.167,0.9282,411,90.8813,7.2021,11.7798,83,1.0935,0,7.6789,14.0665,24,0.6963,8351,3.9996,-182.2511
rg,1625400113711756670,1,0.2146,-0.1206,0.8723,412,95.8252,16.2354,16.4795,83,1.0945,0,7.321,17.1559,24,0.6963,8400,3.9996,-181.5682
rg,1625400113711774411,1,0.1631,-0.105,0.8604,413,100.647,23.1323,23.4985,83,1.0955,0,7.2181,20.395,24,0.6983,8403,3.9996,-180.5079
rg,1625400113711791818,1,0.1487,-0.1096,0.8735,414,103.3325,23.0713,26.7334,83,1.0955,0,7.0837,23.5987,24,0.6983,8484,3.9996,-179.3133
rg,1625400113711809318,1,0.1475,-0.1345,0.8879,415,108.9478,19.165,34.3628,83,1.0945,0,6.5928,26.9209,24,0.6983,9115,3.9996,-177.8994
rg,1625400113711827096,1,0.1609,-0.1453,0.8999,416,118.7134,17.0898,41.5039,83,1.0945,0,5.7975,30.5157,24,0.6993,9127,3.9996,-176.2779
rg,1625400114092411392,1,0.1455,-0.145,0.9128,417,162.9028,8.7891,61.2793,83,1.0975,0,4.2336,35.7654,24,0.7033,26497,3.9996,-174.199
rg,1625400114092571299,1,0.1836,-0.0784,0.8867,418,192.4438,0.5493,69.8242,83,1.0985,0,1.9255,42.0903,24,0.7043,14737,3.9996,-172.1566
rg,1625400114092593225,1,0.1851,-0.0342,0.8774,419,204.2847,0.8545,72.998,83,1.0995,0,-0.6731,49.1466,24,0.7053,8850,3.9996,-170.0628
rg,1625400114092615429,1,0.1672,0.0603,0.8423,420,224.9146,3.1738,76.7822,83,1.0995,0,-3.4531,56.7745,24,0.7063,10084,3.9996,-168.1393
rg,1625400114092635688,1,0.1553,0.0989,0.8232,421,240.7837,2.3193,77.6978,83,1.1005,0,-6.4412,64.5177,24,0.7073,8451,3.9996,-166.4585
rg,1625400114092654484,1,0.1316,0.1938,0.7871,422,248.5962,-0.061,78.125,83,1.1015,0,-9.5504,72.5159,24,0.7073,9205,3.9996,-165.1332
rg,1625400114092673373,1,0.0715,0.3682,0.7114,423,249.3896,-4.6997,78.3691,83,1.1005,0,-12.5797,80.7145,24,0.7073,8698,3.9996,-164.314
rg,1625400114092694151,1,0.0503,0.5422,0.644,424,231.3843,-20.752,74.8901,83,1.1005,0,-15.3994,88.5473,24,0.7083,8544,3.9996,-164.5349
rg,1625400114092713651,1,0.0532,0.5906,0.6416,425,215.7593,-30.4565,69.6411,83,1.1015,0,-17.6875,95.2979,24,0.7083,8571,3.9996,-165.8313
rg,1625400114092769744,1,0.1375,0.6472,0.7295,426,174.8047,-60.3638,59.4482,83,1.1015,-0.001,-19.6003,101.2799,24,0.7083,12662,3.9996,-168.127
rg,1625400114092790910,1,0.2751,0.6919,0.8088,427,148.4375,-66.8945,50.9644,83,1.1015,0,-21.13,106.3037,24,0.7093,8431,3.9996,-170.7341
rg,1625400114092809299,1,0.3271,0.6953,0.8572,428,135.8032,-63.4155,47.1802,83,1.1025,0,-22.51,110.7733,24,0.7093,8652,3.9996,-173.2026
rg,1625400114092827707,1,0.4041,0.6909,0.9329,429,116.394,-46.4478,39.856,83,1.1025,0,-23.8103,114.1734,24,0.7103,10200,3.9996,-174.8829
rg,1625400114092846540,1,0.4431,0.6641,0.9929,430,101.6235,-24.1699,35.8276,83,1.1025,0,-25.2819,116.6037,24,0.7103,8733,3.9996,-175.594
rg,1625400114092864355,1,0.3667,0.6201,1.0356,431,90.332,3.1128,30.8228,83,1.1015,0,-26.9699,118.0153,24,0.7093,8913,3.9996,-175.0712
rg,1625400114092883466,1,0.2458,0.5859,1.0583,432,87.8906,20.2637,27.5269,83,1.1015,0,-28.7165,118.8997,24,0.7103,8966,3.9996,-173.7147
rg,1625400114092902021,1,0.2034,0.5889,1.0691,433,85.3271,27.4658,28.6865,83,1.1025,0,-30.586,119.4904,24,0.7113,8777,3.9996,-172.0125
rg,1625400114092919947,1,0.1606,0.5952,1.0969,434,83.6792,33.02,28.8086,83,1.1035,0,-32.6333,119.6976,24,0.7113,8828,3.9996,-169.7962
rg,1625400114092938410,1,0.1218,0.5967,1.0957,435,80.9326,43.1519,28.3813,83,1.1025,0,-34.5858,119.565,24,0.7113,8868,3.9996,-167.1932
rg,1625400114092956299,1,0.0122,0.5999,1.0938,436,75.9277,46.1426,26.3672,83,1.1015,0,-36.4384,119.0068,24,0.7103,8855,3.9996,-164.2576
rg,1625400114092975966,1,-0.04,0.6079,1.0781,437,70.6177,37.0483,22.0337,83,1.1035,0,-37.8457,118.2935,24,0.7113,9067,3.9996,-161.4549
rg,1625400114092993947,1,-0.0364,0.6333,1.0601,438,69.7021,24.1089,18.0054,83,1.1015,0,-38.8144,117.7599,24,0.7103,10735,3.9996,-159.0149
rg,1625400114093012707,1,-0.033,0.6326,1.0503,439,64.1479,11.8408,13.6108,83,1.1015,0,-39.3823,117.2437,24,0.7103,8944,3.9996,-156.9525
rg,1625400114093030818,1,0.0054,0.6262,1.0339,440,59.9365,2.4414,9.2773,83,1.1035,0,-39.6623,116.7464,24,0.7103,8964,3.9996,-155.1776
rg,1625400114093049596,1,0.0388,0.644,1.0166,441,58.7158,-2.1973,8.667,83,1.1035,0,-39.8455,116.326,24,0.7113,9211,3.9996,-153.5881
rg,1625400114093068966,1,0.0718,0.6648,1,442,56.8848,-3.479,7.3853,83,1.1035,0,-39.9665,115.8576,24,0.7113,9021,3.9996,-152.0235
rg,1625400114093088096,1,0.0901,0.6448,1.0454,443,55.9082,-2.2583,7.8125,83,1.1035,0,-40.2962,115.2021,24,0.7123,9065,3.9996,-150.2953
rg,1625400114093105484,1,0.0896,0.6399,1.0806,444,57.6172,5.7983,11.2915,83,1.1045,0,-40.7816,114.4952,24,0.7123,9073,3.9996,-148.3312
rg,1625400114093125558,1,0.0085,0.6255,1.1411,445,67.0776,19.043,14.9536,83,1.1025,0,-41.5336,113.7483,24,0.7123,9082,3.9996,-145.7512
rg,1625400114093142670,1,-0.0142,0.5737,1.2314,446,77.3315,26.7334,23.1934,83,1.1025,0,-42.7541,113.1957,24,0.7123,9100,3.9996,-142.8799
rg,1625400114093191614,1,0.0566,0.6177,1.1956,447,93.9941,30.2734,30.5176,83,1.1045,0,-44.311,113.2009,24,0.7123,9139,3.9996,-139.8719
rg,1625400114093213688,1,0.0974,0.6799,1.1311,448,103.5156,37.6587,29.6631,83,1.1035,0,-45.8984,113.2051,24,0.7123,9744,3.9996,-136.3325
rg,1625400114479567632,1,0.0374,0.8945,0.8438,449,85.2051,42.2974,19.104,83,1.1045,0,-46.6455,112.2391,24,0.7133,25862,3.9996,-132.3199
rg,1625400114479598743,1,0.0513,0.856,0.8513,450,51.3916,39.1235,11.2305,83,1.1045,0,-47.0234,109.8186,24,0.7123,15208,3.9996,-128.1859
rg,1625400114479618632,1,0.0632,0.8298,0.876,451,42.3584,37.0483,9.5825,83,1.1045,0,-47.3144,107.0003,24,0.7123,8570,3.9996,-124.0204
rg,1625400114479637836,1,0.1116,0.7896,0.9221,452,29.7241,34.8511,3.6621,83,1.1045,0,-47.2655,103.6859,24,0.7133,8541,3.9996,-119.8364
rg,1625400114479656410,1,0.1267,0.7458,0.9526,453,19.7144,34.2407,-2.0752,83,1.1045,0,-46.903,99.9626,24,0.7133,8676,3.9996,-115.6113
rg,1625400114479674114,1,0.1074,0.6924,0.9836,454,13.3057,32.2876,-6.897,83,1.1045,0,-46.2082,96.1015,24,0.7133,11063,3.9996,-111.5117
rg,1625400114479691355,1,0.0933,0.6628,0.9836,455,12.2681,24.7803,-12.8174,83,1.1025,0,-45.1018,92.6569,24,0.7123,9277,3.9996,-107.9653
rg,1625400114479708725,1,0.0996,0.6658,0.959,456,13.1226,14.3433,-17.334,83,1.1045,0,-43.6846,89.9045,24,0.7133,8625,3.9996,-105.23
rg,1625400114479726318,1,0.1184,0.6602,0.9246,457,13.916,3.1128,-19.043,83,1.1045,0,-42.1676,87.8332,24,0.7133,8673,3.9996,-103.335
rg,1625400114479743873,1,0.1208,0.6616,0.9089,458,14.3433,-3.7231,-20.5688,83,1.1045,0,-40.5857,86.18,24,0.7143,8675,3.9996,-101.9801
rg,1625400114479760780,1,0.123,0.6499,0.8748,459,15.8081,-16.5405,-22.1558,83,1.1025,0,-38.9863,85.1627,24,0.7143,8682,3.9996,-101.4543
rg,1625400114479778095,1,0.1799,0.6577,0.8262,460,17.9443,-32.0435,-22.8882,83,1.1005,0,-37.5113,84.8566,24,0.7153,8714,3.9996,-101.8575
rg,1625400114479795725,1,0.239,0.6514,0.7903,461,18.1274,-38.8184,-23.4375,83,1.1045,0,-36.1774,84.8167,24,0.7163,8761,3.9996,-102.6775
rg,1625400114479831614,1,0.2776,0.6438,0.7534,462,18.4326,-41.626,-22.7661,83,1.1035,0,-34.9872,84.901,24,0.7163,8765,3.9996,-103.689
rg,1625400114479849762,1,0.2781,0.6418,0.7466,463,18.1885,-40.2222,-23.0103,83,1.1045,0,-33.839,84.9436,24,0.7163,8788,3.9996,-104.6441
rg,1625400114479871836,1,0.2773,0.6353,0.7319,464,19.4092,-39.1846,-23.1934,83,1.1025,0,-32.6939,84.9658,24,0.7163,8793,3.9996,-105.5818
rg,1625400114479889299,1,0.2876,0.6194,0.7197,465,20.2637,-36.5601,-22.522,83,1.1035,0,-31.6353,84.9328,24,0.7174,8831,3.9996,-106.4122
rg,1625400114479905910,1,0.2803,0.626,0.707,466,23.3154,-32.2876,-20.2026,83,1.1035,0,-30.6626,84.9195,24,0.7174,8832,3.9996,-107.0663
rg,1625400114479922632,1,0.2605,0.6121,0.7083,467,26.1841,-25.4517,-20.6909,83,1.1045,0,-29.6497,84.82,24,0.7194,8879,3.9996,-107.4114
rg,1625400114479939318,1,0.2456,0.6038,0.71,468,27.8931,-22.583,-20.874,83,1.1055,0,-28.6427,84.7951,24,0.7204,8858,3.9996,-107.6316
rg,1625400114479955725,1,0.2393,0.6128,0.7261,469,35.3394,-16.7236,-21.7896,83,1.1055,0,-27.5713,84.8333,24,0.7204,12999,3.9996,-107.6201
rg,1625400114479972725,1,0.2754,0.6382,0.7126,470,42.3584,-14.9536,-23.8647,83,1.1055,0,-26.4933,85.1838,24,0.7214,8896,3.9996,-107.5933
rg,1625400114479989336,1,0.2812,0.6521,0.7417,471,45.0439,-3.0518,-26.062,83,1.1055,0,-25.3227,85.3819,24,0.7214,8965,3.9996,-107.0566
rg,1625400114480006873,1,0.2678,0.6541,0.7485,472,46.1426,2.0752,-27.9541,83,1.1055,0,-23.9511,85.5084,24,0.7224,9184,3.9996,-106.0756
rg,1625400114480024132,1,0.1921,0.6672,0.7539,473,54.5044,18.6768,-32.3486,83,1.1065,0,-22.3498,85.7048,24,0.7224,11030,3.9996,-104.6727
rg,1625400114480041243,1,0.1489,0.7053,0.7439,474,59.4482,20.2026,-32.1045,83,1.1065,0,-20.6902,86.1544,24,0.7234,9179,3.9996,-103.2706
rg,1625400114480057892,1,0.1394,0.7163,0.7476,475,60.9741,18.0054,-32.959,83,1.1065,0,-19.0282,86.7655,24,0.7244,9027,3.9996,-102.0208
rg,1625400114480074095,1,0.1521,0.75,0.7249,476,63.9038,16.7847,-35.0342,83,1.1045,0,-17.3606,87.5563,24,0.7244,9050,3.9996,-100.869
rg,1625400114480090280,1,0.1687,0.7795,0.6904,477,63.8428,15.3198,-35.4614,83,1.1045,0,-15.7591,88.4459,24,0.7244,9074,3.9996,-99.8277
rg,1625400114480116262,1,0.1987,0.8059,0.6763,478,62.9272,15.686,-36.8652,83,1.1065,0,-14.2138,89.3445,24,0.7264,9053,3.9996,-98.8048
rg,1625400114480133077,1,0.2249,0.8245,0.6472,479,61.5845,16.3574,-34.1797,83,1.1065,0,-12.8829,90.2402,24,0.7274,9085,3.9996,-97.7846
rg,1625400114480149410,1,0.2498,0.8557,0.6169,480,57.6172,18.1885,-31.6772,83,1.1065,0,-11.7445,91.0314,24,0.7284,9132,3.9996,-96.7192
rg,1625400114852575206,1,0.311,0.9033,0.5742,481,43.0908,23.5596,-28.7476,83,1.1085,0,-10.8723,91.3143,24,0.7304,25829,3.9996,-95.4755
rg,1625400114852649484,1,0.3262,0.9045,0.5654,482,26.9775,29.7241,-21.9116,83,1.1085,0,-10.3358,90.9326,24,0.7304,15382,3.9996,-94.01
rg,1625400114852672354,1,0.291,0.8706,0.5723,483,18.0054,32.8369,-17.7612,83,1.1085,0,-9.92,90.1449,24,0.7314,8488,3.9996,-92.4349
rg,1625400114852692225,1,0.2634,0.8464,0.5713,484,12.2681,32.959,-15.2588,83,1.1085,0,-9.5516,89.1359,24,0.7314,8465,3.9996,-90.876
rg,1625400114852711058,1,0.2568,0.8423,0.572,485,10.6201,31.8604,-14.2822,83,1.1085,0,-9.3193,88.0151,24,0.7314,8497,3.9996,-89.4479
rg,1625400114852729002,1,0.2625,0.8284,0.5811,486,8.728,29.6631,-10.6812,83,1.1085,0,-9.1085,86.9394,24,0.7324,8493,3.9996,-88.0604
rg,1625400114852747651,1,0.2561,0.8108,0.5786,487,9.2163,28.7476,-9.9487,83,1.1075,0,-8.9079,85.9151,24,0.7314,9651,3.9996,-86.7257
rg,1625400114852766465,1,0.2422,0.802,0.5757,488,9.7046,28.7476,-9.4604,83,1.1085,0,-8.6863,84.9423,24,0.7324,8571,3.9996,-85.4073
rg,1625400114852784928,1,0.2571,0.8127,0.5645,489,10.6201,29.8462,-10.6812,83,1.1095,0,-8.4272,84.0731,24,0.7334,14880,3.9996,-84.0721
rg,1625400114852802928,1,0.2402,0.8147,0.574,490,10.376,30.7617,-10.1318,83,1.1095,0,-8.0632,83.2197,24,0.7334,8615,3.9996,-82.69
rg,1625400114852820484,1,0.2371,0.8118,0.5806,491,10.498,31.3721,-12.0239,83,1.1095,0,-7.6816,82.3825,24,0.7334,8636,3.9996,-81.3353
rg,1625400114852838632,1,0.2117,0.8145,0.5862,492,10.9253,31.9214,-14.3433,83,1.1095,0,-7.1433,81.5903,24,0.7334,8640,3.9996,-79.9921
rg,1625400114852856243,1,0.1912,0.8342,0.5969,493,10.5591,32.7148,-17.0898,83,1.1095,0,-6.4394,80.8252,24,0.7334,8684,3.9996,-78.6599
rg,1625400114852886206,1,0.1545,0.8188,0.623,494,8.9111,29.7241,-17.4561,83,1.1075,0,-5.6711,79.9875,24,0.7314,9410,3.9996,-77.472
rg,1625400114852904521,1,0.1631,0.8416,0.626,495,10.2539,22.3389,-18.7988,83,1.1095,0,-4.9245,79.2998,24,0.7334,8703,3.9996,-76.6185
rg,1625400114852922299,1,0.158,0.8457,0.6218,496,10.1929,20.2637,-17.7612,83,1.1075,0,-4.2396,78.6618,24,0.7324,8494,3.9996,-75.8667
rg,1625400114852939651,1,0.1433,0.8333,0.6177,497,9.7656,17.5171,-17.2729,83,1.1075,0,-3.585,78.0365,24,0.7324,8748,3.9996,-75.242
rg,1625400114852957891,1,0.1462,0.8442,0.6121,498,9.7046,12.4512,-16.4795,83,1.1095,0,-3.0248,77.4712,24,0.7324,9141,3.9996,-74.8319
rg,1625400114852975762,1,0.1506,0.8433,0.6067,499,9.1553,10.9863,-15.0146,83,1.1095,0,-2.5613,76.9186,24,0.7334,8793,3.9996,-74.4842
rg,1625400114852994151,1,0.1492,0.8511,0.606,500,7.9346,9.0942,-14.4653,83,1.1105,0,-2.1448,76.353,24,0.7334,8803,3.9996,-74.2206
rg,1625400114853012132,1,0.1497,0.8464,0.6123,501,7.6294,7.0801,-13.5498,83,1.1095,0,-1.7969,75.7845,24,0.7344,8839,3.9996,-74.0395
rg,1625400114853031373,1,0.1472,0.844,0.6072,502,6.7749,6.5918,-13.0615,83,1.1085,0,-1.4801,75.2096,24,0.7334,8854,3.9996,-73.8845
rg,1625400114853052299,1,0.1545,0.8416,0.5938,503,5.0049,5.0659,-12.8174,83,1.1095,0,-1.2169,74.6078,24,0.7334,8852,3.9996,-73.7973
rg,1625400114853069688,1,0.1587,0.8306,0.594,504,3.2959,4.4556,-11.5967,83,1.1105,0,-1.0279,73.9479,24,0.7344,9115,3.9996,-73.7302
rg,1625400114853087484,1,0.1575,0.8245,0.595,505,3.7842,5.6763,-12.146,83,1.1105,0,-0.8095,73.3226,24,0.7344,8953,3.9996,-73.6308
rg,1625400114853106558,1,0.1628,0.8262,0.5994,506,2.7466,5.0049,-10.8643,83,1.1105,0,-0.6388,72.6724,24,0.7344,8887,3.9996,-73.5277
rg,1625400114853124206,1,0.1587,0.8093,0.6035,507,2.2583,6.2866,-10.8643,83,1.1105,0,-0.4751,72.0399,24,0.7344,9287,3.9996,-73.3929
rg,1625400114853142521,1,0.1545,0.8032,0.6045,508,3.1128,7.6904,-11.7798,83,1.1105,0,-0.2686,71.4307,24,0.7354,8991,3.9996,-73.2234
rg,1625400114853181669,1,0.1438,0.7979,0.6035,509,4.2725,7.6904,-11.5356,83,1.1095,0,-0.0479,70.8711,24,0.7344,8962,3.9996,-73.0736
rg,1625400114853199447,1,0.1414,0.7915,0.5933,510,4.3335,7.6904,-11.2915,83,1.1095,0,0.1587,70.345,24,0.7344,8992,3.9996,-72.9287
rg,1625400114853218114,1,0.1255,0.7937,0.592,511,5.0659,7.5073,-12.085,83,1.1105,0,0.4218,69.8719,24,0.7344,9021,3.9996,-72.8087
rg,1625400114853236410,1,0.1189,0.7905,0.5977,512,5.7373,5.4321,-12.3901,83,1.1095,0,0.6738,69.4287,24,0.7364,9165,3.9996,-72.7786
rg,1625400115223367762,1,0.1309,0.791,0.5906,513,8.2397,1.0986,-12.146,83,1.1115,0,0.7951,69.1313,24,0.7364,25598,3.9996,-72.9575
rg,1625400115223416539,1,0.1526,0.7974,0.592,514,9.5215,0.4272,-14.2822,89,1.1115,0,0.9016,68.9083,24,0.7364,14899,3.9974,-73.1871
rg,1625400115223439224,1,0.1436,0.7898,0.5933,515,9.8877,-0.7935,-13.5498,89,1.1115,0,1.0339,68.6721,24,0.7364,7972,3.9974,-73.4193
rg,1625400115223459595,1,0.0942,0.7859,0.6003,516,12.085,-3.6621,-15.5029,89,1.1115,0,1.3025,68.5076,24,0.7364,7837,3.9974,-73.7909
rg,1625400115223488391,1,0.1426,0.8,0.6011,517,14.1602,-11.9019,-14.1602,89,1.1115,0,1.2859,68.4456,24,0.7374,7918,3.9974,-74.4533
rg,1625400115223507706,1,0.1589,0.8086,0.6028,518,14.6484,-13.3057,-14.3433,89,1.1115,0,1.2178,68.4218,24,0.7374,7896,3.9974,-75.1703
rg,1625400115223528187,1,0.1567,0.811,0.5991,519,15.564,-11.9629,-15.625,89,1.1105,0,1.2287,68.4379,24,0.7364,8101,3.9974,-75.8554
rg,1625400115223546021,1,0.1501,0.8081,0.5928,520,16.4795,-13.9771,-16.4185,89,1.1115,0,1.2523,68.4948,24,0.7374,7921,3.9974,-76.627
rg,1625400115223563169,1,0.1528,0.8132,0.5889,521,16.4795,-15.3198,-15.9302,89,1.1115,0,1.2328,68.5622,24,0.7374,7976,3.9974,-77.4411
rg,1625400115223580243,1,0.1587,0.8213,0.5876,522,17.5781,-15.5029,-17.334,89,1.1105,0,1.2541,68.6829,24,0.7364,8005,3.9974,-78.2815
rg,1625400115223598187,1,0.179,0.8252,0.5818,523,18.8599,-17.2119,-19.2871,89,1.1115,0,1.2812,68.8648,24,0.7384,7992,3.9974,-79.2127
rg,1625400115223616762,1,0.1919,0.8496,0.5796,524,18.5547,-17.6392,-18.7988,89,1.1115,0,1.2807,69.1024,24,0.7374,8580,3.9974,-80.2454
rg,1625400115223633799,1,0.2214,0.8579,0.574,525,18.4937,-18.7988,-22.2168,89,1.1105,0,1.3193,69.3312,24,0.7374,8094,3.9974,-81.2726
rg,1625400115223650262,1,0.2126,0.8765,0.5693,526,16.3574,-16.5405,-23.9868,89,1.1075,0,1.482,69.4703,24,0.7364,8030,3.9974,-82.238
rg,1625400115223667743,1,0.2241,0.8831,0.553,527,13.5498,-18.8599,-25.3906,89,1.1115,0,1.6356,69.5236,24,0.7384,8062,3.9974,-83.309
rg,1625400115223691965,1,0.2317,0.8821,0.553,528,12.3901,-20.0195,-25.8789,89,1.1115,0,1.7647,69.5538,24,0.7374,8100,3.9974,-84.4301
rg,1625400115223710576,1,0.2258,0.8894,0.54,529,10.2539,-18.1885,-27.5269,89,1.1095,0,1.993,69.4964,24,0.7364,8123,3.9974,-85.5063
rg,1625400115223727799,1,0.2087,0.8813,0.5266,530,7.9346,-19.3481,-28.8086,89,1.1125,0,2.2716,69.3559,24,0.7374,8116,3.9974,-86.6462
rg,1625400115223746410,1,0.2048,0.887,0.5154,531,6.7139,-21.1792,-27.3438,89,1.1115,0,2.4614,69.2353,24,0.7374,8126,3.9974,-87.8353
rg,1625400115223764299,1,0.1931,0.8943,0.4873,532,5.127,-22.0337,-27.0386,89,1.1105,0,2.6415,69.0674,24,0.7374,8354,3.9974,-89.0541
rg,1625400115223782373,1,0.166,0.8755,0.4751,533,1.2207,-23.3154,-25.4517,89,1.1125,0,2.7818,68.7481,24,0.7384,8169,3.9974,-90.3015
rg,1625400115223800002,1,0.2566,0.8743,0.5225,534,1.0376,-30.8228,-25.2075,89,1.1125,0,2.5505,68.3422,24,0.7384,13227,3.9974,-91.8314
rg,1625400115223817780,1,0.292,0.886,0.5078,535,4.0894,-26.6113,-25.6958,89,1.1125,0,2.3916,68.1217,24,0.7384,8921,3.9974,-93.2114
rg,1625400115223836039,1,0.241,0.8804,0.481,536,3.418,-21.1792,-28.3203,89,1.1125,0,2.5043,67.9315,24,0.7384,8942,3.9974,-94.4282
rg,1625400115223854150,1,0.2537,0.8865,0.4868,537,3.3569,-22.7661,-28.3203,89,1.1125,0,2.5629,67.7375,24,0.7384,8950,3.9974,-95.7067
rg,1625400115223871780,1,0.2964,0.8721,0.4817,538,3.9062,-22.7661,-29.6631,89,1.1125,0,2.5711,67.569,24,0.7384,8980,3.9974,-97.0075
rg,1625400115223889447,1,0.3157,0.8838,0.4658,539,2.6855,-18.5547,-29.4189,89,1.1085,0,2.5935,67.4085,24,0.7394,9853,3.9974,-98.1485
rg,1625400115223907354,1,0.3376,0.8711,0.4673,540,0.6714,-17.8223,-28.1372,89,1.1115,0,2.5782,67.1603,24,0.7384,9067,3.9974,-99.1637
rg,1625400115223924799,1,0.3499,0.8784,0.4634,541,0.1221,-15.0146,-27.1606,89,1.1125,0,2.4713,66.938,24,0.7384,9042,3.9974,-100.1429
rg,1625400115223942354,1,0.366,0.8728,0.458,542,-1.6479,-8.8501,-26.7944,89,1.1105,0,2.434,66.6547,24,0.7384,9089,3.9974,-100.8916
rg,1625400115223959410,1,0.344,0.843,0.4634,543,-3.1738,-1.0986,-24.1699,89,1.1125,0,2.422,66.2739,24,0.7394,11605,3.9974,-101.1971
rg,1625400115223976817,1,0.3362,0.8396,0.4729,544,-3.7231,4.1504,-22.0947,89,1.1125,0,2.4568,65.8912,24,0.7384,9124,3.9974,-101.4053
rg,1625400115594051409,1,0.3103,0.814,0.5015,545,0.061,13.9771,-16.5405,89,1.1135,0,2.4938,65.6073,24,0.7394,26101,3.9974,-101.1728
rg,1625400115594106298,1,0.2671,0.8081,0.5205,546,2.5635,21.9116,-15.3809,89,1.1125,0,2.7107,65.4011,24,0.7394,15213,3.9974,-100.6381
rg,1625400115594137150,1,0.2378,0.8115,0.5308,547,5.5542,24.5361,-14.0381,89,1.1135,0,2.9818,65.3123,24,0.7394,8579,3.9974,-99.9904
rg,1625400115594166632,1,0.2295,0.8188,0.5337,548,6.1646,25.1465,-13.7939,89,1.1135,0,3.3339,65.2952,24,0.7394,8460,3.9974,-99.2838
rg,1625400115594194465,1,0.2053,0.8279,0.5383,549,7.2632,26.4282,-15.0757,89,1.1125,0,3.7282,65.2925,24,0.7394,8458,3.9974,-98.589
rg,1625400115594221502,1,0.1785,0.8333,0.5344,550,7.2021,24.7803,-14.6484,89,1.1135,0,4.136,65.3034,24,0.7394,8628,3.9974,-97.9483
rg,1625400115594247817,1,0.165,0.833,0.5356,551,5.8594,22.2778,-14.5874,89,1.1115,0,4.5012,65.2519,24,0.7384,8743,3.9974,-97.4005
rg,1625400115594291113,1,0.1626,0.8447,0.5273,552,3.9062,18.7378,-13.4888,89,1.1125,0,4.7614,65.1479,24,0.7394,8535,3.9974,-96.9637
rg,1625400115594317095,1,0.1609,0.843,0.5347,553,2.2583,14.9536,-13.4888,89,1.1115,0,4.9541,64.9561,24,0.7404,8687,3.9974,-96.6688
rg,1625400115594341984,1,0.175,0.8364,0.5352,554,1.0986,13.2446,-13.2446,89,1.1135,0,5.0078,64.6895,24,0.7404,8783,3.9974,-96.4787
rg,1625400115594366817,1,0.189,0.8298,0.5425,555,-0.3662,9.7046,-12.7563,89,1.1135,0,5.0157,64.3663,24,0.7404,8074,3.9974,-96.3697
rg,1625400115594392872,1,0.1963,0.8337,0.542,556,-0.3662,8.667,-12.6343,89,1.1135,0,4.9872,64.0584,24,0.7404,7988,3.9974,-96.2981
rg,1625400115594418817,1,0.2004,0.8342,0.5369,557,-1.4648,6.958,-12.2681,89,1.1135,0,4.9074,63.7239,24,0.7404,7993,3.9974,-96.2829
rg,1625400115594444428,1,0.2078,0.833,0.5317,558,-1.5869,4.6387,-12.2681,89,1.1135,0,4.7727,63.3989,24,0.7404,8052,3.9974,-96.3521
rg,1625400115594470298,1,0.2117,0.8311,0.5342,559,-1.1597,3.0518,-13.0615,89,1.1135,0,4.6343,63.0908,24,0.7404,8080,3.9974,-96.4944
rg,1625400115594496372,1,0.2234,0.8394,0.5212,560,-0.3052,0.7324,-11.5967,89,1.1135,0,4.3819,62.8597,24,0.7404,9486,3.9974,-96.6916
rg,1625400115594521632,1,0.2249,0.8425,0.519,561,0,1.3428,-12.4512,89,1.1135,0,4.1772,62.6589,24,0.7404,8630,3.9974,-96.8821
rg,1625400115594548132,1,0.2148,0.845,0.5195,562,0.3052,1.5259,-12.9395,89,1.1135,-0.001,4.0223,62.4798,24,0.7404,8100,3.9974,-97.0754
rg,1625400115594574613,1,0.2368,0.8643,0.5234,563,0.6714,1.8921,-13.4888,89,1.1125,0,3.8617,62.3384,24,0.7404,8064,3.9974,-97.2653
rg,1625400115594600872,1,0.2793,0.8767,0.5374,564,0.9766,3.0518,-13.0615,89,1.1135,0,3.6371,62.2081,24,0.7404,8176,3.9974,-97.4068
rg,1625400115594626539,1,0.2803,0.8821,0.5515,565,0.1221,8.4839,-13.916,89,1.1125,0,3.556,62.0404,24,0.7414,8238,3.9974,-97.373
rg,1625400115594651984,1,0.2703,0.8848,0.5569,566,0.7324,9.9487,-13.3667,89,1.1145,0,3.5079,61.9001,24,0.7414,8239,3.9974,-97.2788
rg,1625400115594798706,1,0.2449,0.8918,0.5454,567,0.6104,11.7188,-13.0005,89,1.1135,0,3.5316,61.7921,24,0.7404,8246,3.9974,-97.1148
rg,1625400115594868854,1,0.2073,0.8879,0.5288,568,-0.9155,10.8643,-12.3901,89,1.1135,0,3.5875,61.6515,24,0.7414,8419,3.9974,-96.9692
rg,1625400115594901539,1,0.2063,0.8887,0.5225,569,-1.9531,10.7422,-12.0239,89,1.1125,0,3.5193,61.4624,24,0.7414,8346,3.9974,-96.8742
rg,1625400115594935558,1,0.2131,0.8958,0.5164,570,-4.5776,6.7749,-9.2163,89,1.1125,0,3.3759,61.2147,24,0.7404,8347,3.9974,-96.8129
rg,1625400115594966076,1,0.2224,0.8782,0.509,571,-6.6528,3.2349,-6.1646,89,1.1145,0,3.0367,60.8847,24,0.7404,8437,3.9974,-96.8184
rg,1625400115594992946,1,0.2241,0.8745,0.5142,572,-8.667,2.3193,-4.9438,89,1.1135,0,2.6464,60.473,24,0.7414,8366,3.9974,-96.8332
rg,1625400115595020058,1,0.2332,0.8645,0.5186,573,-9.3994,1.6479,-3.9673,89,1.1135,0,2.1861,60.0276,24,0.7414,8475,3.9974,-96.8531
rg,1625400115595047132,1,0.2339,0.8552,0.5181,574,-10.376,2.2583,-4.5776,89,1.1125,0,1.7875,59.5522,24,0.7404,8503,3.9974,-96.8646
rg,1625400115595076224,1,0.2368,0.8411,0.5112,575,-10.437,3.7231,-5.9814,89,1.1135,0,1.4684,59.0903,24,0.7404,8490,3.9974,-96.855
rg,1625400115595104706,1,0.2368,0.832,0.5061,576,-10.498,4.0894,-5.7983,89,1.1145,0,1.1578,58.6434,24,0.7424,8528,3.9974,-96.8308
rg,1625400115944958817,1,0.2373,0.821,0.5103,577,-8.7891,7.5073,-10.376,89,1.1135,0,1.0813,58.2611,24,0.7414,25157,3.9974,-96.7875
rg,1625400115944995354,1,0.2358,0.8228,0.5164,578,-6.7139,8.8501,-12.4512,89,1.1135,0,1.113,57.9669,24,0.7414,16156,3.9974,-96.7456
rg,1625400115945016020,1,0.2312,0.8257,0.5256,579,-6.1646,10.9863,-13.916,89,1.1135,0,1.2798,57.7111,24,0.7414,10397,3.9974,-96.7067
rg,1625400115945035854,1,0.2258,0.8259,0.5283,580,-5.3101,11.3525,-14.8926,89,1.1135,0,1.4646,57.4757,24,0.7414,8503,3.9974,-96.6382
rg,1625400115945054724,1,0.2183,0.8298,0.5298,581,-4.4556,11.4746,-15.625,89,1.1135,0,1.6877,57.2854,24,0.7424,8496,3.9974,-96.5842
rg,1625400115945073557,1,0.2126,0.8391,0.5403,582,-4.3335,11.0474,-17.1509,89,1.1135,0,1.9624,57.0974,24,0.7424,8708,3.9974,-96.5802
rg,1625400115945120891,1,0.2302,0.843,0.5449,583,-4.2725,9.8877,-17.395,89,1.1135,0,2.1753,56.9136,24,0.7404,9440,3.9974,-96.6229
rg,1625400115945141650,1,0.2229,0.8521,0.5525,584,-4.2725,10.437,-17.1509,89,1.1135,0,2.4041,56.7344,24,0.7424,9129,3.9974,-96.6444
rg,1625400115945159706,1,0.219,0.8491,0.5591,585,-5.127,9.5825,-16.9678,89,1.1125,0,2.6077,56.5112,24,0.7414,8002,3.9974,-96.6935
rg,1625400115945177409,1,0.2253,0.8508,0.5625,586,-5.5542,8.4839,-17.8833,89,1.1135,0,2.7981,56.2724,24,0.7414,8049,3.9974,-96.8023
rg,1625400115945195168,1,0.2339,0.8638,0.5723,587,-5.4321,7.9346,-16.9678,89,1.1145,0,2.928,56.0454,24,0.7424,8055,3.9974,-96.912
rg,1625400115945213465,1,0.2297,0.8582,0.5696,588,-6.4087,7.6904,-16.2964,89,1.1125,0,3.0304,55.7863,24,0.7414,8079,3.9974,-97.0175
rg,1625400115945232150,1,0.2239,0.8513,0.575,589,-7.3242,8.1177,-16.7847,89,1.1135,0,3.1647,55.4826,24,0.7414,8105,3.9974,-97.1235
rg,1625400115945250168,1,0.2146,0.8511,0.573,590,-7.6904,6.2256,-15.564,89,1.1145,0,3.2289,55.1771,24,0.7424,8113,3.9974,-97.2675
rg,1625400115945267817,1,0.2158,0.8474,0.5759,591,-7.7515,4.3945,-14.8315,89,1.1125,0,3.221,54.8686,24,0.7414,8136,3.9974,-97.4583
rg,1625400115945285150,1,0.2173,0.8389,0.5784,592,-8.3008,2.4414,-15.2588,89,1.1135,0,3.1761,54.5311,24,0.7414,8215,3.9974,-97.7262
rg,1625400115945303483,1,0.2249,0.8325,0.5867,593,-9.2773,-0.061,-14.4653,89,1.1145,0,3.0317,54.1418,24,0.7434,8185,3.9974,-98.061
rg,1625400115945321631,1,0.2307,0.8252,0.583,594,-8.9111,-1.5259,-14.4043,89,1.1135,0,2.8388,53.7781,24,0.7424,8183,3.9974,-98.4444
rg,1625400115945339817,1,0.2417,0.825,0.5847,595,-9.0942,-3.8452,-13.0615,89,1.1105,0,2.5309,53.4173,24,0.7424,8225,3.9974,-98.8729
rg,1625400115945358094,1,0.2595,0.813,0.5789,596,-9.3994,-3.7231,-14.0991,89,1.1145,0,2.2252,53.0549,24,0.7414,8454,3.9974,-99.3238
rg,1625400115945376502,1,0.2712,0.8091,0.5784,597,-9.0942,-4.0894,-13.0615,89,1.1155,0,1.8608,52.7173,24,0.7424,10183,3.9974,-99.7634
rg,1625400115945411298,1,0.2864,0.8081,0.571,598,-9.3384,-3.2349,-14.7705,89,1.1135,0,1.5492,52.3968,24,0.7424,8263,3.9974,-100.2185
rg,1625400115945434428,1,0.2932,0.8035,0.5693,599,-9.7046,-3.7842,-13.3057,89,1.1145,0,1.1706,52.074,24,0.7434,8277,3.9974,-100.6573
rg,1625400115945457428,1,0.301,0.7969,0.5698,600,-9.8267,-0.9155,-14.0381,89,1.1145,0,0.8785,51.7529,24,0.7434,12528,3.9974,-101.026
rg,1625400115945477965,1,0.3003,0.7925,0.5742,601,-9.8877,-0.9766,-13.7329,89,1.1145,0,0.5453,51.4562,24,0.7434,8293,3.9974,-101.3483
rg,1625400115945496743,1,0.3098,0.783,0.5742,602,-8.4839,0.1831,-12.3291,89,1.1145,0,0.2239,51.1905,24,0.7434,8240,3.9974,-101.6455
rg,1625400115945516409,1,0.3098,0.7786,0.5723,603,-8.1177,2.5024,-13.0005,89,1.1145,0,-0.0109,50.9487,24,0.7434,8299,3.9974,-101.8895
rg,1625400115945534446,1,0.2996,0.7798,0.5723,604,-7.1411,4.3335,-13.3667,89,1.1145,0,-0.1589,50.7577,24,0.7434,8349,3.9974,-102.0883
rg,1625400115945552872,1,0.3057,0.7761,0.5725,605,-6.7749,4.3335,-11.9629,89,1.1145,0,-0.3582,50.5831,24,0.7434,8860,3.9974,-102.2537
rg,1625400115945571131,1,0.302,0.7749,0.5803,606,-6.7139,4.8828,-12.2681,89,1.1135,0,-0.5187,50.4028,24,0.7424,8753,3.9974,-102.4117
rg,1625400115945590002,1,0.2993,0.7759,0.5706,607,-5.5542,6.2256,-12.085,89,1.1155,0,-0.6426,50.2946,24,0.7424,8429,3.9974,-102.5257
rg,1625400115945607354,1,0.2996,0.7671,0.575,608,-4.6387,7.1411,-12.207,89,1.1145,0,-0.7382,50.2071,24,0.7444,8490,3.9974,-102.6157
rg,1625400116305333002,1,0.2915,0.7654,0.5735,609,-2.3804,9.0332,-12.5122,89,1.1145,0,-0.7574,50.2131,24,0.7444,25073,3.9974,-102.6565
rg,1625400116305422724,1,0.2922,0.7632,0.5786,610,-1.2207,10.0708,-13.7329,89,1.1145,0,-0.7127,50.2528,24,0.7444,14926,3.9974,-102.6962
rg,1625400116305443705,1,0.2871,0.7688,0.5779,611,0.1221,11.3525,-14.7705,89,1.1155,0,-0.592,50.3535,24,0.7444,7829,3.9974,-102.7223
rg,1625400116305466261,1,0.2825,0.7688,0.5825,612,1.0376,10.498,-14.0381,89,1.1155,0,-0.4913,50.4914,24,0.7444,7803,3.9974,-102.7548
rg,1625400116305485205,1,0.2791,0.7805,0.5806,613,1.1597,11.5356,-15.625,89,1.1155,0,-0.3248,50.6358,24,0.7444,8026,3.9974,-102.7934
rg,1625400116305502483,1,0.2795,0.7778,0.5796,614,0.8545,10.5591,-14.0991,89,1.1145,0,-0.2389,50.7604,24,0.7444,9563,3.9974,-102.8215
rg,1625400116305523261,1,0.2786,0.7788,0.5771,615,0.9766,10.376,-14.2212,89,1.1145,0,-0.1555,50.8908,24,0.7444,8034,3.9974,-102.8567
rg,1625400116305541131,1,0.2878,0.7891,0.5762,616,0.9766,10.9863,-15.9302,89,1.1155,0,-0.0076,51.0276,24,0.7454,7844,3.9974,-102.9141
rg,1625400116305557779,1,0.2864,0.7944,0.5835,617,1.5259,10.8643,-14.9536,89,1.1115,0,0.0954,51.1789,24,0.7444,7915,3.9974,-102.9487
rg,1625400116305576187,1,0.2822,0.7893,0.575,618,1.2207,11.4136,-15.0757,89,1.1145,0,0.2153,51.3208,24,0.7444,7931,3.9974,-102.967
rg,1625400116305594576,1,0.2874,0.7925,0.5735,619,2.3193,11.2915,-14.8315,89,1.1145,-0.001,0.3104,51.5078,24,0.7444,7891,3.9974,-102.981
rg,1625400116305613187,1,0.2891,0.7944,0.5771,620,1.8311,11.5356,-14.8926,89,1.1165,0,0.4085,51.6642,24,0.7444,7813,3.9974,-102.9863
rg,1625400116305631687,1,0.2856,0.7949,0.5732,621,2.4414,12.8174,-14.4653,89,1.1155,0,0.5269,51.8471,24,0.7444,7981,3.9974,-102.9384
rg,1625400116305649020,1,0.2874,0.7996,0.5762,622,2.6855,13.1226,-14.5874,89,1.1155,0,0.6599,52.0323,24,0.7454,7983,3.9974,-102.8814
rg,1625400116305666261,1,0.28,0.7949,0.5764,623,3.2349,14.2822,-15.4419,89,1.1155,0,0.8475,52.2278,24,0.7454,8161,3.9974,-102.8059
rg,1625400116305684261,1,0.2744,0.7993,0.5771,624,3.418,14.6484,-15.1367,89,1.1155,0,1.0098,52.4554,24,0.7454,9190,3.9974,-102.6846
rg,1625400116305701390,1,0.2742,0.7976,0.5786,625,3.54,15.686,-15.1978,89,1.1155,0,1.2235,52.6482,24,0.7454,8104,3.9974,-102.5522
rg,1625400116305718928,1,0.2737,0.802,0.5762,626,3.6621,15.4419,-15.1978,89,1.1155,0,1.425,52.8488,24,0.7454,8117,3.9974,-102.4244
rg,1625400116305759298,1,0.2649,0.7952,0.5803,627,4.3335,16.5405,-15.9912,89,1.1155,0,1.6863,53.0533,24,0.7454,9477,3.9974,-102.278
rg,1625400116305779409,1,0.2659,0.7996,0.583,628,3.6011,15.9302,-15.4419,89,1.1155,0,1.9058,53.2221,24,0.7454,8880,3.9974,-102.1348
rg,1625400116305796261,1,0.2588,0.7993,0.5815,629,4.6387,16.2964,-14.9536,89,1.1145,-0.001,2.1235,53.4297,24,0.7454,8211,3.9974,-101.9657
rg,1625400116305813983,1,0.2573,0.7983,0.5793,630,4.2114,15.625,-15.0757,87,1.1165,0,2.3223,53.6147,24,0.7454,8111,3.9952,-101.818
rg,1625400116305831353,1,0.2571,0.8,0.5833,631,4.5776,16.2354,-16.0522,87,1.1155,0,2.5613,53.8028,24,0.7454,8284,3.9952,-101.6713
rg,1625400116305848946,1,0.2544,0.7981,0.5828,632,4.3335,16.4185,-16.6016,87,1.1145,0,2.8173,53.9727,24,0.7454,8266,3.9952,-101.5291
rg,1625400116305866279,1,0.2539,0.7981,0.5913,633,4.5776,15.1367,-15.625,87,1.1155,0,3.002,54.1412,24,0.7464,10382,3.9952,-101.4034
rg,1625400116305883650,1,0.252,0.803,0.593,634,4.9438,14.9536,-15.3198,87,1.1145,0,3.1748,54.3108,24,0.7454,8376,3.9952,-101.2748
rg,1625400116305901261,1,0.2524,0.8032,0.584,635,4.8828,14.8315,-14.8926,87,1.1145,0,3.3204,54.4887,24,0.7444,8359,3.9952,-101.1372
rg,1625400116305918409,1,0.2502,0.8008,0.585,636,4.8218,15.0146,-16.5405,87,1.1155,0,3.5218,54.6509,24,0.7464,8392,3.9952,-101.03
rg,1625400116305935094,1,0.2507,0.8057,0.5823,637,4.3945,14.8315,-16.4185,87,1.1145,0,3.7072,54.8014,24,0.7454,8385,3.9952,-100.9232
rg,1625400116305952946,1,0.2466,0.8025,0.5793,638,4.2725,13.9771,-15.8691,87,1.1125,0,3.8542,54.9417,24,0.7454,8439,3.9952,-100.83
rg,1625400116305969520,1,0.2507,0.8066,0.5818,639,4.4556,13.9771,-15.9302,87,1.1155,0,3.9912,55.0853,24,0.7454,8472,3.9952,-100.7364
rg,1625400116305986446,1,0.2493,0.8079,0.5828,640,4.9438,14.4043,-16.6016,87,1.1165,0,4.1717,55.2107,24,0.7464,8512,3.9952,-100.6488
rg,1625400116659528520,1,0.2505,0.8071,0.5764,641,3.9673,13.7329,-16.1133,87,1.1155,0,4.2945,55.3306,24,0.7464,24970,3.9952,-100.564
rg,1625400116659567057,1,0.2512,0.8054,0.5789,642,4.6387,13.3057,-15.7471,87,1.1155,0,4.3779,55.4645,24,0.7464,15889,3.9952,-100.4898
rg,1625400116659587353,1,0.2483,0.8145,0.5852,643,4.1504,13.4277,-16.7847,87,1.1155,0,4.5191,55.578,24,0.7464,7911,3.9952,-100.4276
rg,1625400116659606761,1,0.2507,0.8062,0.5815,644,4.1504,12.8174,-15.3198,87,1.1155,0,4.5836,55.6843,24,0.7464,9788,3.9952,-100.3517
rg,1625400116659625205,1,0.2471,0.8113,0.5781,645,3.9673,12.6953,-15.5029,87,1.1165,0,4.6573,55.7915,24,0.7464,7908,3.9952,-100.2819
rg,1625400116659642575,1,0.2527,0.812,0.5786,646,3.54,13.0615,-16.3574,87,1.1155,0,4.7358,55.8734,24,0.7464,7950,3.9952,-100.2112
rg,1625400116659660538,1,0.249,0.8132,0.5901,647,3.6621,13.1836,-16.2354,87,1.1155,0,4.8389,55.9425,24,0.7464,7942,3.9952,-100.1412
rg,1625400116659678020,1,0.2537,0.8137,0.5815,648,3.6621,12.146,-14.8315,87,1.1165,0,4.8569,56.0248,24,0.7474,8031,3.9952,-100.0724
rg,1625400116659695372,1,0.2473,0.813,0.5803,649,3.2959,11.7188,-14.6484,87,1.1155,0,4.8707,56.0898,24,0.7464,8890,3.9952,-100.0128
rg,1625400116659712242,1,0.2456,0.8152,0.5798,650,2.9297,12.7563,-15.0757,87,1.1145,0,4.9253,56.1435,24,0.7464,10672,3.9952,-99.9272
rg,1625400116659730057,1,0.2468,0.8093,0.582,651,3.6621,12.8174,-15.2588,87,1.1155,0,4.9811,56.2128,24,0.7464,7991,3.9952,-99.8441
rg,1625400116659747779,1,0.2493,0.8127,0.5835,652,2.1973,12.5122,-15.9302,87,1.1155,0,5.047,56.2208,24,0.7454,7978,3.9952,-99.7854
rg,1625400116659765687,1,0.2444,0.8118,0.5857,653,2.0142,12.8174,-15.564,87,1.1155,0,5.1152,56.2176,24,0.7464,8041,3.9952,-99.7088
rg,1625400116659783668,1,0.2471,0.8103,0.5854,654,2.2583,11.7188,-13.7329,87,1.1165,0,5.0897,56.2232,24,0.7474,8127,3.9952,-99.6284
rg,1625400116659801057,1,0.2461,0.8098,0.5884,655,2.3193,11.7188,-14.3433,87,1.1115,0,5.0881,56.2239,24,0.7464,8190,3.9952,-99.5621
rg,1625400116659831687,1,0.2451,0.8123,0.582,656,2.0142,11.2915,-14.2822,87,1.1155,0,5.0761,56.2258,24,0.7464,8197,3.9952,-99.5074
rg,1625400116659851298,1,0.2466,0.8113,0.5845,657,1.709,11.8408,-15.2588,87,1.1195,0,5.1089,56.2232,24,0.7464,8142,3.9952,-99.4553
rg,1625400116659869946,1,0.2476,0.8145,0.5869,658,1.709,10.9253,-13.1226,87,1.1145,0,5.0469,56.2082,24,0.7464,8120,3.9952,-99.3876
rg,1625400116659887372,1,0.24,0.8069,0.5818,659,1.6479,11.4746,-14.5264,87,1.1155,0,5.057,56.1895,24,0.7474,8152,3.9952,-99.3329
rg,1625400116659904390,1,0.24,0.8096,0.5818,660,1.3428,11.1084,-14.3433,87,1.1165,0,5.0488,56.1694,24,0.7474,8183,3.9952,-99.2806
rg,1625400116659921705,1,0.2471,0.8066,0.5854,661,2.0142,10.8643,-12.6343,87,1.1145,0,4.9691,56.1619,24,0.7454,8182,3.9952,-99.2052
rg,1625400116659939075,1,0.2446,0.8071,0.5808,662,1.1597,11.0474,-14.1602,87,1.1155,0,4.9509,56.127,24,0.7464,8211,3.9952,-99.1567
rg,1625400116659956946,1,0.2451,0.8064,0.583,663,1.8921,11.2915,-15.3198,87,1.1155,0,4.9268,56.1158,24,0.7464,8201,3.9952,-99.1314
rg,1625400116659989316,1,0.2463,0.8052,0.5869,664,0.9155,11.2305,-14.2822,87,1.1145,0,4.9159,56.0597,24,0.7464,8262,3.9952,-99.0811
rg,1625400116660009705,1,0.2434,0.8008,0.5825,665,1.709,10.8643,-13.9771,87,1.1165,0,4.8902,56.039,24,0.7464,8263,3.9952,-99.0365
rg,1625400116660027335,1,0.2419,0.8047,0.5823,666,1.77,10.6812,-14.1602,87,1.1165,0,4.872,56.0261,24,0.7474,8355,3.9952,-99.0019
rg,1625400116660044538,1,0.2383,0.8093,0.585,667,1.77,9.7656,-13.7329,87,1.1195,0,4.8159,56.0242,24,0.7474,8340,3.9952,-98.9872
rg,1625400116660062650,1,0.2454,0.8123,0.5859,668,1.0376,9.5825,-13.3667,87,1.1155,0,4.7468,55.9842,24,0.7464,8795,3.9952,-98.9712
rg,1625400116660079872,1,0.2507,0.8076,0.5801,669,1.1597,8.9722,-12.2681,87,1.1165,0,4.6159,55.9557,24,0.7454,8394,3.9952,-98.9507
rg,1625400116660097335,1,0.2544,0.8059,0.584,670,0.8545,9.8267,-13.0005,87,1.1135,0,4.5263,55.9078,24,0.7464,10991,3.9952,-98.919
rg,1625400116660128316,1,0.2571,0.8093,0.5842,671,0.7935,9.9487,-13.5498,87,1.1175,0,4.457,55.8627,24,0.7474,8377,3.9952,-98.8954
rg,1625400116660466205,1,0.2581,0.8018,0.585,672,1.1597,10.3149,-13.9771,87,1.1155,0,4.4199,55.8139,24,0.7474,8446,3.9952,-98.861
rg,1625400117027999538,1,0.2437,0.8171,0.5706,673,1.9531,11.1694,-13.7329,87,1.1165,0,4.4682,55.8394,24,0.7474,25952,3.9952,-98.8238
rg,1625400117028041872,1,0.2405,0.8296,0.563,674,0.5493,9.8267,-14.8315,87,1.1155,0,4.4765,55.8484,24,0.7464,8793,3.9952,-98.8287
rg,1625400117028062816,1,0.2478,0.8372,0.5769,675,-3.9062,8.7891,-12.4512,87,1.1165,0,4.3746,55.665,24,0.7474,7861,3.9952,-98.8157
rg,1625400117028083001,1,0.2437,0.8303,0.5913,676,-5.9814,10.6201,-13.6108,87,1.1165,0,4.3655,55.3739,24,0.7474,8061,3.9952,-98.7722
rg,1625400117028102390,1,0.2163,0.8054,0.6172,677,-8.1787,8.9111,-12.3291,87,1.1165,0,4.33,54.9258,24,0.7474,8005,3.9952,-98.7648
rg,1625400117028121927,1,0.2241,0.7986,0.6108,678,-8.5449,5.4932,-11.6577,87,1.1165,0,4.1754,54.4753,24,0.7464,10372,3.9952,-98.8572
rg,1625400117028140649,1,0.2429,0.7915,0.6121,679,-7.9346,2.7466,-10.5591,87,1.1155,0,3.8858,54.051,24,0.7464,8565,3.9952,-99.0165
rg,1625400117028158594,1,0.248,0.7922,0.6108,680,-7.0801,2.3804,-10.376,87,1.1165,0,3.5677,53.6997,24,0.7464,7962,3.9952,-99.218
rg,1625400117028177797,1,0.2524,0.7742,0.604,681,-5.9204,1.6479,-11.3525,87,1.1155,0,3.2699,53.3748,24,0.7454,8068,3.9952,-99.435
rg,1625400117028195057,1,0.2644,0.7681,0.595,682,-3.6011,1.77,-12.3291,87,1.1155,-0.001,2.9864,53.1628,24,0.7454,8031,3.9952,-99.6722
rg,1625400117028214038,1,0.269,0.771,0.5837,683,-2.3804,2.3193,-12.3291,87,1.1175,0,2.7095,53.0931,24,0.7474,7869,3.9952,-99.8869
rg,1625400117028231260,1,0.2766,0.7725,0.5828,684,-0.5493,4.3945,-13.4888,87,1.1155,0,2.5187,53.0464,24,0.7464,8075,3.9952,-100.0679
rg,1625400117028248538,1,0.2876,0.7705,0.5767,685,1.2817,6.3477,-14.2822,87,1.1175,0,2.3813,53.0852,24,0.7474,8031,3.9952,-100.2052
rg,1625400117028265520,1,0.2922,0.7668,0.572,686,2.0142,7.019,-14.2212,87,1.1175,0,2.2611,53.2168,24,0.7474,8105,3.9952,-100.2603
rg,1625400117028296168,1,0.2983,0.7708,0.5771,687,3.9062,10.8032,-15.3809,87,1.1155,0,2.2532,53.3586,24,0.7464,9329,3.9952,-100.279
rg,1625400117028314594,1,0.3013,0.7776,0.5688,688,5.8594,12.6953,-15.3198,87,1.1165,0,2.2829,53.5997,24,0.7464,9875,3.9952,-100.2327
rg,1625400117028331483,1,0.2969,0.7839,0.5706,689,6.897,16.2354,-16.4795,87,1.1185,0,2.4443,53.8822,24,0.7474,8149,3.9952,-100.096
rg,1625400117028348538,1,0.2871,0.7954,0.5815,690,7.5684,18.6157,-15.8691,87,1.1175,0,2.6636,54.1806,24,0.7474,12385,3.9952,-99.8639
rg,1625400117028365335,1,0.2727,0.8044,0.5886,691,8.2397,20.2637,-15.9912,87,1.1175,0,2.9508,54.4973,24,0.7474,8178,3.9952,-99.5764
rg,1625400117028382427,1,0.2642,0.8052,0.5911,692,8.0566,20.9961,-15.3198,87,1.1175,0,3.2389,54.7948,24,0.7474,8136,3.9952,-99.2449
rg,1625400117028399131,1,0.2578,0.8093,0.5957,693,7.8125,21.5454,-16.0522,87,1.1175,0,3.5718,55.0624,24,0.7474,8217,3.9952,-98.9084
rg,1625400117028415797,1,0.2407,0.8132,0.6025,694,7.019,20.9351,-14.8926,87,1.1175,0,3.872,55.2913,24,0.7474,8209,3.9952,-98.5618
rg,1625400117028432890,1,0.2273,0.8137,0.604,695,5.9204,19.5923,-14.8926,87,1.1155,0,4.1573,55.4641,24,0.7464,9533,3.9952,-98.257
rg,1625400117028450112,1,0.2146,0.8079,0.6001,696,5.7983,17.4561,-15.1367,87,1.1185,0,4.4139,55.6202,24,0.7484,8234,3.9952,-98.0265
rg,1625400117028467668,1,0.2156,0.8062,0.6025,697,5.3711,16.0522,-14.4043,87,1.1185,0,4.5242,55.7277,24,0.7484,8313,3.9952,-97.8758
rg,1625400117028484853,1,0.217,0.8091,0.6062,698,4.7607,13.0005,-13.9771,87,1.1165,0,4.6251,55.8148,24,0.7474,8324,3.9952,-97.7654
rg,1625400117028586797,1,0.2258,0.8013,0.5969,699,4.2725,11.1084,-14.0991,87,1.1185,0,4.6605,55.8802,24,0.7474,8348,3.9952,-97.7195
rg,1625400117028639890,1,0.2358,0.8074,0.5933,700,3.7842,9.7046,-14.7095,87,1.1175,0,4.6641,55.9336,24,0.7484,8359,3.9952,-97.7322
rg,1625400117028659316,1,0.2383,0.8037,0.5967,701,3.9062,8.9722,-14.0381,87,1.1165,0,4.6236,55.9782,24,0.7474,8392,3.9952,-97.7547
rg,1625400117028711186,1,0.2439,0.8018,0.5942,702,3.6621,8.4839,-14.9536,87,1.1155,0,4.5913,56.0104,24,0.7474,8475,3.9952,-97.8132
rg,1625400117028731797,1,0.2542,0.7949,0.5906,703,3.54,8.4229,-14.7095,87,1.1185,0,4.5261,56.0347,24,0.7474,8442,3.9952,-97.8681
rg,1625400117028750279,1,0.2568,0.7976,0.5862,704,3.9673,8.3618,-15.4419,87,1.1175,0,4.4651,56.0656,24,0.7504,8452,3.9952,-97.9414
rg,1625400117379654112,1,0.2637,0.7983,0.5759,705,4.0283,9.5215,-15.625,87,1.1175,0,4.4368,56.1398,24,0.7484,23896,3.9952,-97.9769
rg,1625400117379694964,1,0.2634,0.7971,0.5732,706,3.7842,10.3149,-14.7095,87,1.1175,0,4.3961,56.2084,24,0.7484,12756,3.9952,-97.9644
rg,1625400117379716205,1,0.2612,0.8013,0.5798,707,3.7231,11.4136,-15.9912,87,1.1185,0,4.4318,56.266,24,0.7484,8104,3.9952,-97.9435
rg,1625400117379736131,1,0.2542,0.8005,0.5796,708,3.7842,11.2305,-16.2964,87,1.1185,0,4.4864,56.3222,24,0.7484,7872,3.9952,-97.935
rg,1625400117379754853,1,0.2566,0.7976,0.5876,709,3.7842,11.5356,-15.625,87,1.1185,0,4.5195,56.3599,24,0.7484,7885,3.9952,-97.9023
rg,1625400117379773631,1,0.2573,0.7915,0.5842,710,4.0283,12.207,-16.6016,87,1.1185,0,4.5937,56.4042,24,0.7494,7898,3.9952,-97.8686
rg,1625400117379791408,1,0.2549,0.7944,0.585,711,3.9062,12.146,-16.6016,87,1.1185,0,4.6519,56.4557,24,0.7494,9112,3.9952,-97.8458
rg,1625400117379810575,1,0.2537,0.7925,0.5845,712,4.8218,12.8784,-17.1509,87,1.1185,0,4.762,56.5298,24,0.7484,10893,3.9952,-97.8008
rg,1625400117379828168,1,0.2527,0.8013,0.5859,713,5.0659,12.5732,-16.7236,87,1.1185,0,4.8529,56.6197,24,0.7484,8063,3.9952,-97.7552
rg,1625400117379845316,1,0.2551,0.792,0.5811,714,5.127,13.1836,-17.0898,87,1.1185,0,4.9556,56.7066,24,0.7484,8100,3.9952,-97.6966
rg,1625400117379861834,1,0.2507,0.8022,0.585,715,5.9814,12.6953,-16.0522,87,1.1185,0,5.0233,56.8313,24,0.7494,8062,3.9952,-97.6303
rg,1625400117379880038,1,0.2502,0.8091,0.5867,716,5.249,13.1836,-17.395,87,1.1185,0,5.1243,56.9254,24,0.7494,8135,3.9952,-97.5625
rg,1625400117379897742,1,0.2483,0.8113,0.5881,717,5.0049,13.3667,-17.7612,87,1.1175,0,5.2577,57.005,24,0.7484,8336,3.9952,-97.5144
rg,1625400117379915001,1,0.2454,0.8101,0.5891,718,4.8218,12.6953,-16.9678,87,1.1175,0,5.3595,57.0731,24,0.7484,8210,3.9952,-97.4652
rg,1625400117379932779,1,0.2395,0.8154,0.5854,719,4.5166,13.6108,-17.5781,87,1.1185,0,5.5106,57.1417,24,0.7494,8111,3.9952,-97.3966
rg,1625400117379950019,1,0.241,0.8145,0.5815,720,4.3335,12.5122,-16.9678,87,1.1185,0,5.6168,57.2013,24,0.7494,8177,3.9952,-97.354
rg,1625400117379967594,1,0.2388,0.8271,0.5847,721,3.7231,12.085,-17.2729,87,1.1175,0,5.7206,57.2454,24,0.7484,8137,3.9952,-97.3278
rg,1625400117379984686,1,0.2371,0.8159,0.5835,722,3.8452,11.2305,-17.2119,87,1.1185,0,5.799,57.2779,24,0.7494,8195,3.9952,-97.3302
rg,1625400117380001519,1,0.2373,0.8237,0.5771,723,3.1738,11.7798,-16.9678,87,1.1185,0,5.8788,57.3062,24,0.7494,8186,3.9952,-97.3064
rg,1625400117380019149,1,0.2354,0.8206,0.5818,724,2.6855,11.2915,-16.7847,87,1.1195,0,5.9429,57.3002,24,0.7494,11233,3.9952,-97.2962
rg,1625400117380036057,1,0.2356,0.825,0.5774,725,2.4414,11.3525,-16.2964,87,1.1185,0,5.997,57.2896,24,0.7494,8230,3.9952,-97.2742
rg,1625400117380052964,1,0.2415,0.8252,0.5757,726,2.3193,11.1694,-15.8081,87,1.1175,0,6.009,57.2886,24,0.7484,8314,3.9952,-97.2456
rg,1625400117380070668,1,0.2356,0.8184,0.5735,727,1.8921,11.3525,-16.1743,87,1.1185,0,6.0455,57.2655,24,0.7484,8255,3.9952,-97.2193
rg,1625400117380088445,1,0.2383,0.8169,0.574,728,0.8545,11.5356,-15.564,87,1.1195,0,6.0582,57.2013,24,0.7494,8307,3.9952,-97.1742
rg,1625400117380106242,1,0.2383,0.8181,0.5762,729,1.0376,11.9629,-14.0991,87,1.1175,0,6.0316,57.1492,24,0.7484,8289,3.9952,-97.0837
rg,1625400117380123705,1,0.2422,0.813,0.5789,730,1.0986,12.3291,-15.0757,87,1.1165,0,6.0376,57.0892,24,0.7484,8341,3.9952,-97.0036
rg,1625400117380143797,1,0.2463,0.8101,0.5759,731,0.6714,13.4277,-15.9912,87,1.1185,0,6.0875,57.0179,24,0.7504,8404,3.9952,-96.9066
rg,1625400117380162019,1,0.2441,0.8054,0.5862,732,0.9766,13.0615,-15.625,87,1.1175,0,6.135,56.9383,24,0.7514,8402,3.9952,-96.8003
rg,1625400117380180075,1,0.2439,0.7991,0.5869,733,0.9155,13.6719,-15.7471,87,1.1175,0,6.1826,56.8497,24,0.7484,8387,3.9952,-96.6952
rg,1625400117380198316,1,0.2371,0.8025,0.5916,734,1.8921,14.0991,-15.3809,87,1.1185,0,6.2422,56.8018,24,0.7494,8432,3.9952,-96.5692
rg,1625400117380216408,1,0.2373,0.7969,0.5916,735,2.1362,14.5874,-15.9302,87,1.1195,0,6.326,56.7587,24,0.7504,8495,3.9952,-96.4402
rg,1625400117380234186,1,0.2378,0.8027,0.5967,736,2.5024,14.2822,-15.564,87,1.1185,0,6.3787,56.7384,24,0.7494,8562,3.9952,-96.3037
rg,1625400117740680353,1,0.2295,0.8088,0.5852,737,2.3193,13.4888,-15.625,87,1.1185,0,6.4419,56.7289,24,0.7504,25320,3.9952,-96.203
rg,1625400117740716723,1,0.2222,0.8062,0.5845,738,1.0986,12.2681,-15.625,87,1.1185,0,6.49,56.664,24,0.7504,14926,3.9952,-96.144
rg,1625400117740737316,1,0.2283,0.8118,0.5925,739,1.77,11.0474,-14.6484,87,1.1185,0,6.4688,56.6192,24,0.7504,7881,3.9952,-96.1061
rg,1625400117740756556,1,0.2229,0.8176,0.5945,740,1.0986,11.2915,-15.0757,87,1.1195,0,6.4815,56.553,24,0.7504,7881,3.9952,-96.0693
rg,1625400117740775353,1,0.2261,0.8149,0.5879,741,0.9155,10.437,-14.3433,87,1.1195,0,6.4415,56.4891,24,0.7494,8147,3.9952,-96.0446
rg,1625400117740793797,1,0.2327,0.8147,0.5857,742,0.9155,9.1553,-13.5498,87,1.1195,0,6.3344,56.4285,24,0.7504,9491,3.9952,-96.0455
rg,1625400117740812353,1,0.239,0.8123,0.5862,743,0.9766,9.4604,-13.7329,87,1.1185,0,6.2305,56.3694,24,0.7504,8076,3.9952,-96.0408
rg,1625400117740830816,1,0.239,0.8098,0.5879,744,1.0986,9.9487,-14.0381,87,1.1195,0,6.151,56.3122,24,0.7504,7866,3.9952,-96.0275
rg,1625400117740848149,1,0.2385,0.8101,0.5896,745,0.7324,9.8267,-13.9771,87,1.1185,0,6.0714,56.2394,24,0.7494,7959,3.9952,-96.0175
rg,1625400117740890038,1,0.2432,0.8042,0.5889,746,1.0376,10.3149,-13.9771,82,1.1195,0,5.9937,56.1771,24,0.7504,7903,4.0007,-95.9922
rg,1625400117740910686,1,0.2437,0.8037,0.5879,747,1.0376,11.0474,-13.6108,82,1.1175,0,5.9215,56.1216,24,0.7494,7952,4.0007,-95.9345
rg,1625400117740928612,1,0.2385,0.792,0.5837,748,0.9155,10.6201,-12.8174,82,1.1185,0,5.8213,56.0556,24,0.7494,7989,4.0007,-95.8746
rg,1625400117740945427,1,0.2434,0.7896,0.5889,749,2.1362,11.0474,-12.6953,82,1.1195,0,5.7208,56.0299,24,0.7504,7983,4.0007,-95.7993
rg,1625400117740962297,1,0.2441,0.7937,0.5918,750,2.3804,10.6812,-12.3291,82,1.1175,0,5.6048,56.0147,24,0.7494,7993,4.0007,-95.728
rg,1625400117740979982,1,0.2422,0.7913,0.5879,751,2.6855,11.4136,-13.9771,82,1.1185,0,5.5659,56.0147,24,0.7484,8042,4.0007,-95.6687
rg,1625400117740997612,1,0.2456,0.7937,0.5867,752,2.9907,11.2305,-14.1602,82,1.1185,0,5.524,56.0313,24,0.7504,8059,4.0007,-95.6189
rg,1625400117741014630,1,0.2466,0.8018,0.5845,753,3.2349,11.3525,-13.3667,82,1.1175,0,5.4605,56.0737,24,0.7494,8085,4.0007,-95.5458
rg,1625400117741031427,1,0.2417,0.8081,0.5813,754,3.2959,11.4136,-13.1836,82,1.1185,0,5.4061,56.1314,24,0.7484,8120,4.0007,-95.4647
rg,1625400117741048760,1,0.2449,0.8044,0.583,755,2.9907,11.4746,-14.0381,82,1.1185,0,5.376,56.1653,24,0.7504,8137,4.0007,-95.4008
rg,1625400117741065593,1,0.2437,0.8054,0.5869,756,2.9907,11.2915,-13.0005,82,1.1175,0,5.3125,56.1936,24,0.7494,8117,4.0007,-95.3202
rg,1625400117741082241,1,0.2454,0.802,0.5867,757,3.2959,11.9629,-12.6343,82,1.1185,0,5.2492,56.2318,24,0.7504,8140,4.0007,-95.2089
rg,1625400117741099371,1,0.24,0.8015,0.5886,758,3.6621,12.8784,-13.7939,82,1.1185,0,5.2582,56.2793,24,0.7504,10979,4.0007,-95.0928
rg,1625400117741116797,1,0.2395,0.8074,0.5876,759,3.8452,12.8174,-14.0991,82,1.1195,0,5.2785,56.3408,24,0.7504,8235,4.0007,-94.9843
rg,1625400117741135038,1,0.2373,0.803,0.5903,760,4.6387,12.7563,-13.9771,82,1.1195,0,5.3156,56.4155,24,0.7504,8315,4.0007,-94.8856
rg,1625400117741163741,1,0.2324,0.804,0.5881,761,4.5166,13.0615,-14.2822,82,1.1195,0,5.3583,56.4937,24,0.7504,8475,4.0007,-94.7721
rg,1625400117741181927,1,0.2146,0.8022,0.5842,762,4.2114,12.5732,-14.3433,82,1.1185,0,5.4258,56.5597,24,0.7504,9990,4.0007,-94.6754
rg,1625400117741285019,1,0.2292,0.8086,0.5833,763,5.249,10.376,-12.8784,82,1.1185,0,5.3654,56.6712,24,0.7504,9384,4.0007,-94.6188
rg,1625400117741305593,1,0.2344,0.8096,0.5781,764,4.2725,9.8877,-13.855,82,1.1195,0,5.3175,56.7465,24,0.7484,8501,4.0007,-94.5979
rg,1625400117741325297,1,0.2261,0.8132,0.5813,765,3.8452,10.498,-14.6484,82,1.1195,-0.001,5.3304,56.801,24,0.7504,8350,4.0007,-94.5734
rg,1625400117741345593,1,0.228,0.8159,0.5869,766,3.7842,9.5825,-14.5264,82,1.1175,0,5.3174,56.8417,24,0.7494,8308,4.0007,-94.5772
rg,1625400117741365760,1,0.2327,0.8145,0.5818,767,3.479,9.8267,-14.6484,82,1.1175,0,5.3028,56.8767,24,0.7494,8448,4.0007,-94.5743
rg,1625400117741385334,1,0.2354,0.8176,0.5796,768,2.7466,9.0942,-14.0991,82,1.1195,0,5.2495,56.888,24,0.7514,8474,4.0007,-94.583
rg,1625400118090933964,1,0.2373,0.8149,0.5818,769,2.8076,9.1553,-14.5874,82,1.1195,0,5.1996,56.8787,24,0.7504,25359,4.0007,-94.6021
rg,1625400118090972371,1,0.2454,0.8188,0.5889,770,2.5635,8.9722,-14.6484,82,1.1195,0,5.1487,56.8664,24,0.7514,14198,4.0007,-94.628
rg,1625400118090992889,1,0.2495,0.8093,0.5867,771,1.8921,9.2163,-14.1602,82,1.1195,0,5.0761,56.8212,24,0.7514,8063,4.0007,-94.6357
rg,1625400118091011649,1,0.248,0.8025,0.5886,772,1.709,9.2773,-13.855,82,1.1195,0,4.9982,56.7588,24,0.7514,7926,4.0007,-94.636
rg,1625400118091031501,1,0.2529,0.8025,0.5879,773,2.0752,9.8877,-13.855,82,1.1195,0,4.9263,56.7166,24,0.7514,7955,4.0007,-94.616
rg,1625400118091049149,1,0.2593,0.8005,0.594,774,1.77,10.6201,-13.2446,82,1.1195,0,4.8411,56.6538,24,0.7514,7921,4.0007,-94.5593
rg,1625400118091067593,1,0.2502,0.7925,0.5852,775,1.9531,11.1694,-12.5122,82,1.1195,0,4.7591,56.6083,24,0.7514,9106,4.0007,-94.468
rg,1625400118091116834,1,0.2537,0.7908,0.5823,776,2.0752,11.2915,-12.8784,82,1.1195,0,4.6866,56.5722,24,0.7504,8499,4.0007,-94.3806
rg,1625400118091135112,1,0.26,0.7905,0.5801,777,2.6245,12.146,-12.6343,82,1.1185,0,4.6136,56.5658,24,0.7504,8008,4.0007,-94.259
rg,1625400118091152315,1,0.2515,0.7876,0.5806,778,2.7466,13.1836,-12.7563,82,1.1195,0,4.5866,56.5621,24,0.7504,7972,4.0007,-94.1057
rg,1625400118091169297,1,0.2549,0.7903,0.5818,779,3.54,14.0991,-13.855,82,1.1195,0,4.6117,56.592,24,0.7514,8888,4.0007,-93.9456
rg,1625400118091186371,1,0.251,0.7983,0.5815,780,4.5166,15.0146,-13.6108,82,1.1195,0,4.6587,56.6738,24,0.7504,12172,4.0007,-93.7483
rg,1625400118091203334,1,0.2544,0.7954,0.5881,781,5.0659,15.0757,-14.0991,82,1.1195,0,4.715,56.7583,24,0.7514,8069,4.0007,-93.5602
rg,1625400118091220149,1,0.2507,0.8032,0.5837,782,6.3477,16.7847,-15.0757,82,1.1195,0,4.8479,56.9121,24,0.7514,8070,4.0007,-93.3335
rg,1625400118091236889,1,0.2532,0.8032,0.5789,783,6.1035,16.9678,-14.3433,82,1.1195,0,4.9481,57.0617,24,0.7514,8209,4.0007,-93.0823
rg,1625400118091253834,1,0.2363,0.8059,0.5803,784,6.897,19.165,-16.0522,82,1.1195,0,5.1845,57.2417,24,0.7514,8120,4.0007,-92.7923
rg,1625400118091271038,1,0.2168,0.8074,0.5779,785,7.0801,18.4326,-16.0522,82,1.1175,0,5.4357,57.4271,24,0.7514,9498,4.0007,-92.5247
rg,1625400118091288186,1,0.2278,0.8215,0.5742,786,7.019,18.1274,-15.8081,82,1.1195,0,5.6513,57.613,24,0.7514,8164,4.0007,-92.295
rg,1625400118091305612,1,0.228,0.8257,0.5728,787,6.2256,17.1509,-15.9302,82,1.1185,0,5.8337,57.7813,24,0.7504,8211,4.0007,-92.0612
rg,1625400118091323075,1,0.2292,0.823,0.5715,788,5.9204,17.0288,-16.4185,82,1.1185,0,6.0187,57.9293,24,0.7514,8153,4.0007,-91.8403
rg,1625400118091340315,1,0.2351,0.8262,0.5769,789,4.6997,17.1509,-16.6626,82,1.1195,0,6.1978,58.018,24,0.7514,8255,4.0007,-91.6196
rg,1625400118091358297,1,0.2385,0.8296,0.5813,790,4.3945,17.2729,-16.7847,82,1.1185,0,6.3722,58.0884,24,0.7504,8257,4.0007,-91.3969
rg,1625400118091407371,1,0.2351,0.8228,0.5798,791,4.3945,17.9443,-16.1133,82,1.1195,0,6.535,58.1551,24,0.7504,8271,4.0007,-91.1372
rg,1625400118091429112,1,0.2266,0.8242,0.5854,792,3.0518,19.165,-16.8457,82,1.1195,0,6.7613,58.161,24,0.7514,8318,4.0007,-90.8518
rg,1625400118091447482,1,0.219,0.8267,0.5886,793,3.2349,18.8599,-15.8691,82,1.1185,0,6.9608,58.163,24,0.7514,8318,4.0007,-90.5555
rg,1625400118091465038,1,0.2136,0.8264,0.5962,794,2.9297,18.7988,-15.1367,82,1.1185,0,7.1352,58.1518,24,0.7504,8333,4.0007,-90.2494
rg,1625400118091482426,1,0.2021,0.8225,0.5933,795,2.4414,18.4326,-15.5029,82,1.1195,0,7.3292,58.1197,24,0.7504,8338,4.0007,-89.9642
rg,1625400118091499686,1,0.197,0.8247,0.5959,796,2.3804,16.3574,-15.2588,82,1.1185,0,7.4761,58.0765,24,0.7504,8404,4.0007,-89.7461
rg,1625400118091516926,1,0.1934,0.8267,0.5911,797,2.3193,15.8081,-14.2212,82,1.1195,0,7.5779,58.0447,24,0.7514,8387,4.0007,-89.5242
rg,1625400118091535130,1,0.1855,0.8342,0.5994,798,1.0376,13.4888,-14.3433,82,1.1195,0,7.6535,57.9423,24,0.7514,8682,4.0007,-89.4168
rg,1625400118091552926,1,0.1873,0.8267,0.6013,799,0.8545,11.1084,-14.5874,82,1.1185,0,7.6773,57.8164,24,0.7504,8480,4.0007,-89.3678
rg,1625400118091651519,1,0.1907,0.825,0.5942,800,0.1831,9.5215,-14.8926,82,1.1195,0,7.668,57.6709,24,0.7504,8474,4.0007,-89.3793
rg,1625400118444825704,1,0.2068,0.8135,0.5754,801,-0.4883,6.6528,-14.1602,82,1.1195,0,7.5264,57.5114,24,0.7514,25663,4.0007,-89.4849
rg,1625400118444867519,1,0.23,0.8147,0.5789,802,-0.7935,5.9814,-13.5498,82,1.1195,0,7.3145,57.3425,24,0.7514,10335,4.0007,-89.5873
rg,1625400118444887667,1,0.2388,0.8147,0.5859,803,-0.6714,5.9204,-13.7939,82,1.1195,0,7.1013,57.1718,24,0.7514,7862,4.0007,-89.699
rg,1625400118444907352,1,0.2458,0.802,0.5813,804,-0.4272,6.3477,-13.4888,82,1.1195,0,6.8745,57.0124,24,0.7514,7863,4.0007,-89.7909
rg,1625400118444925500,1,0.2563,0.8025,0.575,805,-0.1831,6.8359,-12.8784,82,1.1195,0,6.6729,56.8979,24,0.7514,7953,4.0007,-89.8463
rg,1625400118444972260,1,0.2522,0.7976,0.5801,806,0.2441,7.9346,-13.2446,82,1.1195,0,6.5423,56.8055,24,0.7514,9514,4.0007,-89.8673
rg,1625400118444992056,1,0.2568,0.7971,0.5837,807,0.9766,9.6436,-13.7329,82,1.1185,0,6.3922,56.7182,24,0.7514,8107,4.0007,-89.8555
rg,1625400118445009741,1,0.2534,0.7971,0.5808,808,0.9766,11.4746,-14.6484,82,1.1195,0,6.3242,56.6439,24,0.7504,7944,4.0007,-89.802
rg,1625400118445027630,1,0.2581,0.7979,0.5835,809,1.1597,11.5356,-12.5732,82,1.1205,0,6.1826,56.5811,24,0.7524,7945,4.0007,-89.7016
rg,1625400118445046186,1,0.2542,0.8005,0.585,810,0.8545,12.6343,-14.1602,82,1.1185,0,6.1327,56.5092,24,0.7504,7958,4.0007,-89.5995
rg,1625400118445064186,1,0.2498,0.7949,0.5876,811,1.4648,13.6719,-13.1226,82,1.1205,0,6.0805,56.458,24,0.7504,7969,4.0007,-89.4414
rg,1625400118445081852,1,0.2427,0.7988,0.5916,812,1.3428,14.6484,-13.9771,82,1.1205,0,6.0952,56.3863,24,0.7524,8068,4.0007,-89.2688
rg,1625400118445099260,1,0.2395,0.8027,0.5952,813,1.8921,15.2588,-13.7939,82,1.1185,0,6.1279,56.3573,24,0.7504,8077,4.0007,-89.0739
rg,1625400118445116463,1,0.2327,0.8005,0.5886,814,2.1973,14.5264,-12.8174,82,1.1205,0,6.1221,56.3501,24,0.7514,8052,4.0007,-88.8813
rg,1625400118445133723,1,0.2219,0.8025,0.5923,815,2.0142,14.8315,-13.1836,82,1.1195,0,6.1321,56.3315,24,0.7514,8086,4.0007,-88.6662
rg,1625400118445151019,1,0.2222,0.803,0.5967,816,1.8311,14.1602,-13.1836,82,1.1205,0,6.155,56.2969,24,0.7524,9873,4.0007,-88.4956
rg,1625400118445167611,1,0.2261,0.8042,0.5994,817,2.3804,13.855,-12.207,82,1.1205,0,6.1415,56.284,24,0.7524,8128,4.0007,-88.3142
rg,1625400118445184056,1,0.2217,0.8027,0.5981,818,2.2583,14.7095,-14.6484,82,1.1185,0,6.2262,56.2639,24,0.7514,8173,4.0007,-88.1585
rg,1625400118445201667,1,0.219,0.8003,0.5977,819,2.9297,13.1836,-12.5122,82,1.1195,0,6.2077,56.2686,24,0.7514,8360,4.0007,-88.0071
rg,1625400118445218574,1,0.2212,0.803,0.5996,820,2.9907,12.6953,-12.0239,82,1.1195,0,6.2455,56.2563,24,0.7524,8154,4.0007,-87.8596
rg,1625400118445252186,1,0.2119,0.8042,0.5996,821,2.6245,13.4277,-13.7329,82,1.1185,0,6.2887,56.2486,24,0.7504,8194,4.0007,-87.7271
rg,1625400118445271389,1,0.2183,0.7961,0.5967,822,2.6245,11.9629,-13.7939,82,1.1195,0,6.2834,56.2305,24,0.7514,8212,4.0007,-87.6458
rg,1625400118445289260,1,0.2173,0.7983,0.5913,823,2.6245,12.3901,-13.0615,82,1.1235,0,6.3073,56.2386,24,0.7514,8256,4.0007,-87.5346
rg,1625400118445307982,1,0.2217,0.8027,0.5979,824,3.1738,12.7563,-14.1602,82,1.1185,0,6.3265,56.2515,24,0.7514,8274,4.0007,-87.4343
rg,1625400118445325704,1,0.2234,0.8062,0.5981,825,3.2959,11.7798,-13.4888,82,1.1195,0,6.2988,56.271,24,0.7514,8289,4.0007,-87.3511
rg,1625400118445343500,1,0.2156,0.8044,0.5879,826,3.1128,12.6953,-14.1602,82,1.1205,0,6.3274,56.3002,24,0.7514,8300,4.0007,-87.2503
rg,1625400118445361852,1,0.2148,0.8096,0.5967,827,2.9907,12.3901,-14.4653,82,1.1205,0,6.3638,56.3125,24,0.7524,8298,4.0007,-87.1673
rg,1625400118445379167,1,0.2175,0.8132,0.5967,828,3.6621,12.085,-15.2588,82,1.1185,0,6.4141,56.3529,24,0.7514,8313,4.0007,-87.1116
rg,1625400118445396778,1,0.2168,0.8083,0.5947,829,3.9062,12.3291,-14.8926,82,1.1205,0,6.4551,56.4005,24,0.7524,8355,4.0007,-87.0396
rg,1625400118445414260,1,0.2161,0.8108,0.5859,830,3.2959,12.2681,-14.9536,82,1.1195,0,6.4467,56.4344,24,0.7524,8502,4.0007,-86.9803
rg,1625400118445516908,1,0.2183,0.8127,0.5908,831,3.6621,12.0239,-14.3433,82,1.1185,0,6.4588,56.4823,24,0.7514,8431,4.0007,-86.9042
rg,1625400118445552778,1,0.2197,0.8079,0.5862,832,2.8687,11.4136,-14.0381,82,1.1205,0,6.441,56.4972,24,0.7514,8436,4.0007,-86.8413
rg,1625400118802528370,1,0.2234,0.8093,0.5842,833,2.5024,11.2915,-14.5874,82,1.1195,0,6.4319,56.5006,24,0.7524,25580,4.0007,-86.7938
rg,1625400118802585148,1,0.2217,0.8079,0.5901,834,3.2349,11.2915,-13.4277,82,1.1195,0,6.3891,56.5234,24,0.7524,12486,4.0007,-86.722
rg,1625400118802615408,1,0.2251,0.8047,0.5952,835,2.9297,11.4746,-14.1602,82,1.1195,0,6.3696,56.5187,24,0.7524,7911,4.0007,-86.6615
rg,1625400118802676445,1,0.2241,0.8057,0.5964,836,3.2959,11.2915,-14.4043,82,1.1195,0,6.3576,56.5265,24,0.7524,7936,4.0007,-86.6127
rg,1625400118802706963,1,0.2271,0.8064,0.5916,837,3.9673,11.2305,-14.0381,82,1.1205,0,6.3255,56.5714,24,0.7524,7951,4.0007,-86.5566
rg,1625400118802733926,1,0.2205,0.8081,0.5952,838,3.54,11.4136,-13.916,82,1.1205,0,6.3096,56.5985,24,0.7524,7930,4.0007,-86.5124
rg,1625400118802760037,1,0.2275,0.8118,0.595,839,3.7231,11.2305,-13.855,82,1.1195,0,6.2748,56.6322,24,0.7514,8127,4.0007,-86.4515
rg,1625400118802785685,1,0.2302,0.8074,0.5869,840,3.418,10.437,-13.2446,82,1.1175,0,6.1945,56.6597,24,0.7524,7964,4.0007,-86.4026
rg,1625400118802811278,1,0.2251,0.811,0.5894,841,2.9907,11.1084,-14.4653,82,1.1195,0,6.1693,56.6757,24,0.7524,7976,4.0007,-86.34
rg,1625400118802837648,1,0.2307,0.8091,0.5911,842,3.418,11.4136,-15.5029,82,1.1185,0,6.1903,56.6945,24,0.7514,8002,4.0007,-86.3079
rg,1625400118802863278,1,0.2297,0.8093,0.5884,843,2.9907,11.0474,-13.3057,82,1.1205,0,6.1305,56.7045,24,0.7524,7998,4.0007,-86.2391
rg,1625400118802890333,1,0.2258,0.8088,0.595,844,3.0518,11.4136,-14.5874,82,1.1205,0,6.1634,56.7078,24,0.7524,7994,4.0007,-86.1998
rg,1625400118802916741,1,0.2261,0.8145,0.5962,845,3.2349,11.2305,-14.2822,82,1.1185,0,6.1526,56.718,24,0.7514,8058,4.0007,-86.147
rg,1625400118802944185,1,0.2212,0.8103,0.5942,846,3.2349,11.1084,-13.2446,82,1.1215,0,6.1129,56.7277,24,0.7524,8068,4.0007,-86.0756
rg,1625400118802969908,1,0.22,0.8159,0.5923,847,3.2349,11.3525,-13.1226,82,1.1195,0,6.0696,56.746,24,0.7524,8063,4.0007,-85.9915
rg,1625400118802997556,1,0.2241,0.813,0.5903,848,2.6245,11.3525,-13.916,82,1.1195,0,6.0546,56.7401,24,0.7524,12085,4.0007,-85.9251
rg,1625400118803023982,1,0.2205,0.8108,0.5908,849,3.0518,11.2305,-14.0381,82,1.1205,0,6.0398,56.7232,24,0.7524,8159,4.0007,-85.8604
rg,1625400118803050204,1,0.2236,0.8149,0.595,850,2.5635,10.437,-13.5498,82,1.1195,0,5.9967,56.7075,24,0.7524,8164,4.0007,-85.8176
rg,1625400118803100796,1,0.2156,0.8049,0.5933,851,2.0752,11.2915,-14.2822,82,1.1195,0,6.0111,56.664,24,0.7524,8377,4.0007,-85.7632
rg,1625400118803129111,1,0.2173,0.803,0.5884,852,2.4414,11.3525,-13.7329,82,1.1205,0,6.0214,56.638,24,0.7524,8215,4.0007,-85.7099
rg,1625400118803155537,1,0.2183,0.8027,0.5945,853,3.1128,11.1084,-14.1602,82,1.1185,0,6.0209,56.6332,24,0.7494,10200,4.0007,-85.6602
rg,1625400118803181259,1,0.2253,0.8076,0.595,854,2.9297,11.2305,-13.855,82,1.1195,0,6.0083,56.6223,24,0.7524,8852,4.0007,-85.5997
rg,1625400118803228741,1,0.2292,0.7981,0.6025,855,3.1128,11.2915,-14.5264,82,1.1185,0,6.0025,56.5976,24,0.7514,8294,4.0007,-85.554
rg,1625400118803256463,1,0.2202,0.8,0.5918,856,3.479,11.1084,-15.0146,82,1.1195,0,6.0255,56.6083,24,0.7524,8289,4.0007,-85.5233
rg,1625400118803282796,1,0.2258,0.8091,0.5854,857,3.9673,11.2915,-14.7095,82,1.1205,0,6.0639,56.6655,24,0.7524,8307,4.0007,-85.4986
rg,1625400118803431870,1,0.2283,0.8062,0.5901,858,4.0283,11.3525,-15.0757,82,1.1195,0,6.0769,56.7076,24,0.7514,8332,4.0007,-85.4592
rg,1625400118803466759,1,0.2256,0.8074,0.5845,859,4.0283,11.3525,-15.0757,82,1.1195,0,6.0939,56.7599,24,0.7524,8384,4.0007,-85.4183
rg,1625400118803496093,1,0.2183,0.8159,0.5837,860,4.0894,10.8032,-13.7939,82,1.1205,0,6.0732,56.8258,24,0.7534,8372,4.0007,-85.3661
rg,1625400118803526574,1,0.2256,0.8181,0.5854,861,3.7842,10.8643,-14.4653,82,1.1205,0,6.0747,56.8758,24,0.7534,8461,4.0007,-85.3259
rg,1625400118803555759,1,0.2217,0.825,0.5867,862,3.2959,11.2915,-15.4419,82,1.1185,0,6.1172,56.91,24,0.7514,8478,4.0007,-85.2915
rg,1625400118803585000,1,0.2268,0.8232,0.5833,863,2.7466,11.2915,-15.3198,82,1.1195,0,6.1422,56.9253,24,0.7504,8466,4.0007,-85.2538
rg,1625400118803614148,1,0.2271,0.8215,0.5845,864,2.5635,12.085,-16.2964,82,1.1205,0,6.2152,56.929,24,0.7544,8524,4.0007,-85.211
rg,1625400119155938204,1,0.22,0.812,0.5784,865,2.4414,11.9629,-12.8174,76,1.1205,0,6.1757,56.9364,24,0.7524,26078,4.0018,-85.0963
rg,1625400119156020778,1,0.2202,0.8074,0.5808,866,2.4414,12.5732,-13.3667,76,1.1195,0,6.1681,56.9317,24,0.7524,10401,4.0018,-84.9742
rg,1625400119156043667,1,0.2195,0.8054,0.5837,867,3.2349,12.8174,-14.2822,76,1.1205,0,6.1984,56.9498,24,0.7524,7897,4.0018,-84.8648
rg,1625400119156063667,1,0.2188,0.8047,0.5869,868,2.6245,13.6719,-14.4653,76,1.1205,0,6.2542,56.9388,24,0.7524,7903,4.0018,-84.7311
rg,1625400119156083222,1,0.2227,0.8025,0.5938,869,3.0518,14.0381,-15.1367,76,1.1205,0,6.3313,56.93,24,0.7534,8119,4.0018,-84.6015
rg,1625400119156102037,1,0.2217,0.7996,0.5933,870,3.6621,13.855,-15.564,76,1.1205,0,6.4168,56.9414,24,0.7534,9445,4.0018,-84.4881
rg,1625400119156120426,1,0.2251,0.8059,0.5879,871,3.8452,14.3433,-16.4185,76,1.1205,0,6.5319,56.9778,24,0.7534,7917,4.0018,-84.3749
rg,1625400119156138259,1,0.2192,0.8083,0.5891,872,4.1504,14.0381,-15.5029,76,1.1205,0,6.6301,57.0107,24,0.7534,8008,4.0018,-84.2631
rg,1625400119156155796,1,0.2209,0.8135,0.5911,873,3.9062,14.0381,-16.4795,76,1.1205,-0.001,6.7444,57.05,24,0.7534,7982,4.0018,-84.1608
rg,1625400119156174444,1,0.2258,0.8108,0.5884,874,3.7842,14.3433,-16.2964,76,1.1205,0,6.8432,57.0864,24,0.7534,7880,4.0018,-84.0437
rg,1625400119156191592,1,0.2292,0.8113,0.5872,875,3.6621,14.1602,-15.3809,76,1.1205,0,6.9519,57.116,24,0.7494,8665,4.0018,-83.9162
rg,1625400119156211722,1,0.2314,0.8154,0.5864,876,2.9907,15.0146,-16.1133,76,1.1195,0,7.0409,57.1315,24,0.7524,8523,4.0018,-83.7709
rg,1625400119156230241,1,0.2207,0.8083,0.5903,877,3.418,15.7471,-16.4185,76,1.1195,0,7.1729,57.1495,24,0.7524,8090,4.0018,-83.6094
rg,1625400119156247926,1,0.22,0.8091,0.5857,878,3.6621,15.8691,-16.7236,76,1.1195,0,7.3133,57.1861,24,0.7524,8128,4.0018,-83.4494
rg,1625400119156264870,1,0.2178,0.8079,0.5886,879,3.2959,16.6626,-17.5171,76,1.1195,0,7.4969,57.2013,24,0.7514,8262,4.0018,-83.2804
rg,1625400119156282296,1,0.2168,0.8047,0.584,880,3.9062,16.4185,-16.6626,76,1.1205,0,7.6394,57.2465,24,0.7524,8168,4.0018,-83.1007
rg,1625400119156324907,1,0.2117,0.8071,0.5884,881,4.0894,15.9302,-16.1133,76,1.1195,0,7.7599,57.2921,24,0.7524,8251,4.0018,-82.9262
rg,1625400119156346074,1,0.2092,0.8035,0.5889,882,4.1504,15.9912,-16.7236,76,1.1195,0,7.9067,57.3403,24,0.7524,8202,4.0018,-82.7623
rg,1625400119156363592,1,0.2068,0.8145,0.5933,883,3.9673,15.1978,-15.5029,76,1.1195,0,7.9942,57.3773,24,0.7524,8211,4.0018,-82.599
rg,1625400119156380685,1,0.2063,0.8167,0.5869,884,4.1504,15.5029,-16.3574,76,1.1205,0,8.1138,57.4338,24,0.7534,8225,4.0018,-82.4416
rg,1625400119156398500,1,0.2104,0.8179,0.5908,885,3.479,14.7095,-15.9302,76,1.1195,0,8.203,57.4689,24,0.7524,8247,4.0018,-82.3032
rg,1625400119156416352,1,0.2083,0.8154,0.5908,886,3.6621,14.8315,-15.7471,76,1.1195,0,8.2762,57.493,24,0.7524,8269,4.0018,-82.1563
rg,1625400119156434111,1,0.2073,0.8162,0.5859,887,3.418,14.2212,-15.9912,76,1.1205,0,8.3429,57.5126,24,0.7494,8288,4.0018,-82.034
rg,1625400119156451741,1,0.207,0.8154,0.5891,888,2.9907,14.0381,-15.564,76,1.1205,0,8.3898,57.5082,24,0.7544,8310,4.0018,-81.9097
rg,1625400119156469148,1,0.2063,0.8215,0.592,889,3.2959,14.4653,-16.1133,76,1.1185,0,8.4667,57.5194,24,0.7514,8358,4.0018,-81.7825
rg,1625400119156487444,1,0.2021,0.8193,0.5901,890,3.54,14.4653,-15.7471,76,1.1195,0,8.5357,57.5417,24,0.7514,9031,4.0018,-81.6473
rg,1625400119156522333,1,0.2009,0.8123,0.5874,891,3.1738,14.2822,-15.4419,76,1.1195,0,8.5875,57.5445,24,0.7514,8423,4.0018,-81.5124
rg,1625400119156540518,1,0.1982,0.8206,0.5859,892,3.6011,13.9771,-15.7471,76,1.1205,0,8.6488,57.5752,24,0.7514,8380,4.0018,-81.3925
rg,1625400119156557852,1,0.2043,0.8191,0.5891,893,3.2349,13.5498,-15.9912,76,1.1205,0,8.6948,57.5797,24,0.7524,8439,4.0018,-81.2936
rg,1625400119156575296,1,0.2004,0.8157,0.5933,894,2.9907,13.6719,-16.1133,76,1.1225,0,8.757,57.5692,24,0.7514,8850,4.0018,-81.194
rg,1625400119156593500,1,0.1975,0.8186,0.5908,895,2.8687,13.4888,-16.2964,76,1.1185,0,8.8221,57.5543,24,0.7514,8571,4.0018,-81.1047
rg,1625400119156879111,1,0.1987,0.8179,0.5933,896,3.7842,13.855,-17.0898,76,1.1205,0,8.9173,57.5705,24,0.7514,8477,4.0018,-81.021
rg,1625400119517324222,1,0.2043,0.8137,0.5801,897,3.1128,13.916,-16.5405,76,1.1205,0,8.9757,57.5804,24,0.7524,25908,4.0018,-80.9205
rg,1625400119517364426,1,0.2024,0.813,0.5813,898,3.54,13.5498,-14.8926,76,1.1205,0,8.9843,57.6153,24,0.7524,9534,4.0018,-80.7786
rg,1625400119517385092,1,0.21,0.8184,0.5896,899,3.7231,14.4653,-14.4653,76,1.1205,0,8.9742,57.6467,24,0.7524,7930,4.0018,-80.616
