name,time,activity,ax,ay,az,batch_val,gx,gy,gz,ibat,index,middle,pitch,roll,temp,thumb,ts,vbat,yaw
rg,1625413955523842934,1,0.2576,0.8037,0.5676,1,0.1831,12.9395,-13.4888,107,1.1055,0,0.8999,57.0307,24,0.8854,19925,3.9864,-85.8339
rg,1625413955523918953,1,0.2515,0.8098,0.5647,2,-0.9155,11.2915,-13.4277,107,1.1055,0,0.9988,56.9093,24,0.8884,8308,3.9864,-85.745
rg,1625413955523969657,1,0.2507,0.8059,0.5693,3,-0.9766,10.5591,-13.6719,107,1.1035,0,1.0877,56.7762,24,0.8874,7732,3.9864,-85.6878
rg,1625413955523990342,1,0.2542,0.8037,0.5642,4,-2.2583,8.1787,-14.2212,107,1.1065,0,1.1302,56.602,24,0.8904,7794,3.9864,-85.7239
rg,1625413955524009157,1,0.2612,0.8103,0.5593,5,-2.6855,7.8735,-15.2588,107,1.1065,0,1.1933,56.4119,24,0.8894,7863,3.9864,-85.8369
rg,1625413955524028860,1,0.2634,0.812,0.5671,6,-3.1128,6.7749,-16.2354,107,1.1055,0,1.318,56.2266,24,0.8894,8246,3.9864,-85.9625
rg,1625413955524049879,1,-0.3984,-0.2961,0.8276,7,-10.0098,79.0405,-21.3013,112,1.0695,0,4.734,53.9258,24,0.7654,8089,3.905,-83.9176
rg,1625413955524091972,1,-0.5134,-0.2485,0.7751,8,-14.0381,78.9795,-27.5879,112,1.0715,0,8.8564,51.8946,25,0.7664,8145,3.905,-82.2123
rg,1625413955524117009,1,-0.7371,-0.2571,0.7974,9,-26.9165,65.6738,-40.1001,112,1.0675,0,13.1321,49.3763,25,0.7674,7943,3.905,-81.4613
rg,1625413955524138509,1,-0.8936,-0.353,0.8682,10,-29.3579,35.8276,-42.9077,112,1.0735,0,16.7524,46.5561,25,0.7704,8007,3.905,-81.9524
rg,1625413955524158509,1,-0.8596,-0.6094,1.0215,11,-26.5503,20.5078,-40.2832,112,1.0755,0,18.796,43.7106,24,0.7744,8921,3.905,-83.5867
rg,1625413955524176786,1,-0.3882,-0.6743,1.02,12,26.4893,-37.3535,-17.334,112,1.0785,-0.001,18.6636,42.0165,24,0.7814,10241,3.905,-85.932
rg,1625413955524196953,1,-0.2131,-0.6038,0.99,13,38.269,-35.5835,-21.3013,112,1.0795,0,18.3416,40.7521,24,0.7854,7942,3.905,-88.3322
rg,1625413955524216768,1,-0.2085,-0.551,0.9387,14,44.3115,-14.0381,-41.3208,112,1.0825,0,19.1549,39.7322,24,0.7894,8079,3.905,-90.7577
rg,1625413955524234101,1,-0.3132,-0.4883,0.863,15,44.9219,-0.1221,-51.2695,112,1.0845,0,20.8353,38.7832,24,0.7944,8130,3.905,-93.1671
rg,1625413955524255342,1,-0.3677,-0.4451,0.8267,16,44.8608,1.709,-56.5796,112,1.0855,0,22.7623,37.7749,24,0.7954,8102,3.905,-95.7911
rg,1625413955524274194,1,-0.4397,-0.3818,0.762,17,37.4146,-3.418,-62.3779,112,1.0895,0,24.7671,36.3564,24,0.7984,8151,3.905,-98.8413
rg,1625413955524295731,1,-0.4692,-0.3496,0.7664,18,29.4189,-14.4653,-60.9741,112,1.0905,0,26.2939,34.4889,24,0.8004,8165,3.905,-102.2397
rg,1625413955524314897,1,-0.4575,-0.335,0.7649,19,25.2686,-20.5078,-57.1899,112,1.0895,0,27.3678,32.3942,24,0.8014,8256,3.905,-105.7468
rg,1625413955524333749,1,-0.4307,-0.2842,0.7397,20,14.7705,-21.9727,-48.4619,112,1.0925,-0.001,28.0213,30.0513,24,0.8024,8206,3.905,-108.9875
rg,1625413955524353212,1,-0.4456,-0.2791,0.7849,21,-1.8311,-23.9258,-33.0811,112,1.0925,0,28.1361,27.3732,24,0.8054,8049,3.905,-111.6579
rg,1625413955524371360,1,-0.4426,-0.2598,0.7991,22,-8.7891,-29.541,-25.5737,112,1.0955,0,27.8816,24.836,24,0.8094,8226,3.905,-113.9736
rg,1625413955524388546,1,-0.5007,-0.1523,0.7302,23,-31.25,-44.8608,-12.5122,112,1.0955,0,26.8295,21.7072,24,0.8124,8281,3.905,-115.9063
rg,1625413955524407583,1,-0.3767,-0.4102,0.9043,24,-53.894,-69.7632,-3.1128,112,1.0985,0,24.2782,17.357,24,0.8174,8314,3.905,-117.8502
rg,1625413955524425805,1,-0.0322,-0.29,0.8484,25,-54.1382,-81.7871,0.4272,112,1.0975,0,20.4401,13.3115,24,0.8164,8321,3.905,-119.3202
rg,1625413955524482953,1,0.0618,-0.241,0.8315,26,-67.3218,-72.4487,2.5635,112,1.0945,0,16.7369,9.3055,24,0.8094,8265,3.905,-120.1981
rg,1625413955524510101,1,0.1013,-0.3894,0.9001,27,-91.9189,-30.7617,2.4414,112,1.0905,0,14.7235,4.3734,24,0.8004,8322,3.905,-120.5828
rg,1625413955524532749,1,-0.0393,-0.3779,1.1213,28,-95.1538,9.1553,4.0894,112,1.0875,0,14.613,-0.2819,24,0.7964,8395,3.905,-120.6156
rg,1625413955524554194,1,0.2417,-0.958,1.2739,29,-60.3027,31.7383,14.1602,112,1.0895,0,14.8096,-3.4782,24,0.7994,8371,3.905,-120.2814
rg,1625413955524572805,1,-0.0081,-0.0256,0.6738,30,-17.4561,60.2417,10.498,112,1.0885,0,16.6761,-4.0453,24,0.7994,8484,3.905,-119.9941
rg,1625413955524590546,1,-0.5879,-0.6191,1.0269,31,-5.7373,78.186,10.6201,112,1.0885,0,20.2431,-5.1921,24,0.8004,8831,3.905,-120.101
rg,1625413955524609972,1,-0.3743,-0.375,0.8501,32,7.6294,24.6582,12.3291,112,1.0905,0,21.3663,-5.4524,24,0.8014,8589,3.905,-119.9243
rg,1625413955879103323,1,-0.2515,-0.3755,0.8433,33,5.6152,1.1597,0.7324,112,1.0915,0,21.1738,-6.1039,24,0.8064,27564,3.905,-120.3756
rg,1625413955879144101,1,-0.2935,-0.3623,0.8394,34,-4.1504,9.2163,-9.4604,112,1.0915,0,21.3889,-7.1169,24,0.8084,8735,3.905,-121.0739
rg,1625413955879845416,1,-0.4424,-0.3718,0.832,35,-13.2446,12.9395,-17.8223,112,1.0915,0,22.0039,-8.5934,24,0.8104,7786,3.905,-122.1486
rg,1625413955879900249,1,-0.5181,-0.4346,0.8804,36,-16.4185,11.3525,-19.2261,112,1.0915,0,22.5803,-10.2474,24,0.8124,7849,3.905,-123.3019
rg,1625413955879928027,1,-0.5002,-0.5935,0.9622,37,-11.0474,0.5493,-15.5029,112,1.0915,0,22.5796,-11.7603,24,0.8154,7827,3.905,-124.2843
rg,1625413955879988971,1,-0.2927,-0.6785,1.0132,38,-2.0142,-2.4414,-11.7188,112,1.0925,0,22.2676,-12.3301,24,0.8174,7847,3.905,-124.8509
rg,1625413955880014582,1,-0.1313,-0.6848,0.9734,39,42.2974,22.1558,-4.9438,112,1.0955,0,22.529,-11.7429,24,0.8204,10395,3.905,-125.6247
rg,1625413955880036286,1,-0.1289,-0.5815,0.894,40,53.1006,31.9824,-8.4839,112,1.0955,0,23.1569,-10.7593,24,0.8194,7845,3.905,-126.6061
rg,1625413955880058527,1,-0.2671,-0.531,0.8694,41,57.9834,55.7861,-18.0664,112,1.0965,0,24.9325,-9.7897,24,0.8204,7885,3.905,-128.161
rg,1625413955880077471,1,-0.4785,-0.5059,0.854,42,57.8003,59.5703,-29.1138,112,1.0965,0,27.1658,-9.0459,24,0.8214,7935,3.905,-130.2191
rg,1625413955880098249,1,-0.5615,-0.5012,0.8484,43,56.4575,53.5889,-32.1045,112,1.0965,0,29.2357,-8.4704,24,0.8214,7941,3.905,-132.4086
rg,1625413955880116082,1,-0.5974,-0.4292,0.8254,44,53.0396,25.0854,-31.7993,112,1.0985,0,30.2254,-7.8715,24,0.8224,7961,3.905,-134.3758
rg,1625413955880136212,1,-0.5134,-0.343,0.7776,45,42.9077,-0.3052,-24.5972,112,1.0995,0,30.1497,-7.3424,24,0.8234,8040,3.905,-135.8151
rg,1625413955880170305,1,-0.4546,-0.3296,0.7795,46,33.5693,-6.5918,-21.3623,112,1.0975,0,29.7358,-7.0913,24,0.8224,8012,3.905,-137.0691
rg,1625413955880190453,1,-0.3547,-0.364,0.8372,47,17.2729,-10.5591,-17.8223,112,1.0995,0,28.9277,-7.4528,24,0.8244,8042,3.905,-138.1604
rg,1625413955880209545,1,-0.27,-0.4443,0.9309,48,9.9487,-4.0283,-15.564,112,1.1005,0,28.1687,-8.1518,24,0.8264,8122,3.905,-139.2126
rg,1625413955880229397,1,-0.1516,-0.4209,0.9272,49,11.4136,7.6904,-15.1978,112,1.1005,0,27.6521,-8.7467,24,0.8274,9597,3.905,-140.2791
rg,1625413955880248064,1,-0.1406,-0.4119,0.9087,50,10.0098,19.5923,-16.7236,112,1.1015,0,27.586,-9.4368,24,0.8284,8102,3.905,-141.48
rg,1625413955880266082,1,-0.2283,-0.4346,0.9258,51,7.019,38.8794,-21.1792,112,1.1015,0,28.4069,-10.4178,24,0.8284,8134,3.905,-143.0422
rg,1625413955880283564,1,-0.3926,-0.3931,0.9177,52,5.9814,42.3584,-23.9868,112,1.1025,0,29.6226,-11.4102,24,0.8314,8125,3.905,-144.7417
rg,1625413955880301823,1,-0.4966,-0.3154,0.8738,53,3.0518,36.7432,-21.7896,112,1.1045,0,31.1114,-12.2656,24,0.8344,8141,3.905,-146.2337
rg,1625413955880319527,1,-0.6868,-0.2212,0.7554,54,-18.0664,3.9673,-13.0615,112,1.1045,0,31.5356,-13.4576,24,0.8354,8223,3.905,-146.9487
rg,1625413955880337194,1,-0.7336,-0.283,0.8838,55,-54.5654,-39.4897,-4.3945,112,1.1085,0,30.2309,-15.6501,24,0.8384,8260,3.905,-146.768
rg,1625413955880355416,1,-0.5979,-0.5378,0.9443,56,-67.688,-60.1196,-3.8452,112,1.1075,0,27.096,-18.6818,24,0.8314,8257,3.905,-145.9874
rg,1625413955880373879,1,-0.4346,-0.5684,0.9458,57,-78.9795,-99.7314,-0.2441,112,1.0995,0,23.1572,-21.6769,24,0.8174,8239,3.905,-144.693
rg,1625413955880392064,1,-0.0837,-0.3564,0.9656,58,-75.7446,-108.0933,-0.1831,112,1.0975,0,18.4668,-23.9894,24,0.8124,8743,3.905,-142.8597
rg,1625413955880409916,1,0.6277,-0.3003,0.4915,59,46.6919,-67.3828,15.9302,112,1.1005,0,14.1799,-21.8635,24,0.8184,8251,3.905,-141.2599
rg,1625413955880427749,1,0.4106,0.6235,0.4634,60,25.2075,-33.7524,4.9438,112,1.1005,0,12.5627,-21.0698,25,0.8204,8272,3.905,-140.6569
rg,1625413955880445082,1,-0.2483,-0.8987,1.3464,61,-9.8267,24.292,-11.6577,112,1.0995,0,13.1465,-22.1396,25,0.8194,8316,3.905,-141.5777
rg,1625413955880462490,1,-0.2307,-0.0837,0.6609,62,10.8643,15.9912,-3.418,112,1.1015,0,13.9355,-21.2199,25,0.8224,8434,3.905,-141.8181
rg,1625413955880480823,1,-0.2546,-0.4688,0.9575,63,-7.3242,32.5928,8.9722,112,1.1005,0,15.2532,-21.7369,25,0.8224,8347,3.905,-142.0137
rg,1625413955880498286,1,-0.22,-0.2971,0.8328,64,-5.127,31.9824,9.3994,112,1.0995,0,16.5212,-21.8874,24,0.8224,8611,3.905,-142.1229
rg,1625413956233735193,1,-0.3586,-0.4941,0.9299,65,-13.1226,45.4712,-7.5073,112,1.1005,0,18.0469,-22.9717,24,0.8284,25575,3.905,-143.3382
rg,1625413956233783267,1,-0.5457,-0.4951,0.9109,66,-11.9019,26.6113,-19.4702,112,1.0995,0,19.0884,-24.0289,24,0.8314,10090,3.905,-144.6062
rg,1625413956233803916,1,-0.5869,-0.5503,0.9551,67,-11.1694,9.8877,-20.0195,112,1.0995,0,19.4647,-24.9998,24,0.8324,7837,3.905,-145.6252
rg,1625413956233823490,1,-0.4695,-0.7305,1.0391,68,0.7324,-5.4932,-19.3481,112,1.0995,0,18.9743,-25.5707,24,0.8354,7866,3.905,-146.3971
rg,1625413956233842619,1,-0.3335,-0.8125,1.0869,69,16.1133,-8.3008,-17.4561,112,1.1015,0,18.1795,-25.5371,24,0.8374,7841,3.905,-147.0562
rg,1625413956233861897,1,-0.103,-0.708,0.9856,70,54.8096,6.897,-16.2354,112,1.1035,0,17.6428,-23.9942,24,0.8394,8953,3.905,-147.9353
rg,1625413956233879860,1,-0.1785,-0.551,0.8613,71,65.0635,37.8418,-27.5269,112,1.1035,0,18.2953,-22.2689,24,0.8404,8466,3.905,-149.7374
rg,1625413956233899804,1,-0.3069,-0.5139,0.8416,72,64.6973,48.3398,-34.4238,112,1.1035,0,19.8677,-20.6758,24,0.8394,8123,3.905,-151.9342
rg,1625413956233953675,1,-0.543,-0.4705,0.8225,73,60.2417,45.6543,-41.626,112,1.0985,0,21.401,-19.4249,24,0.8384,7934,3.905,-154.3834
rg,1625413956233978249,1,-0.5176,-0.4563,0.8262,74,56.6406,21.6064,-40.7104,112,1.1035,0,21.9853,-18.2381,24,0.8394,7930,3.905,-156.4678
rg,1625413956233996953,1,-0.4492,-0.426,0.8025,75,54.2603,11.9629,-37.6587,112,1.1015,0,22.1596,-17.0813,24,0.8374,7919,3.905,-158.31
rg,1625413956234014249,1,-0.4539,-0.1902,0.7292,76,41.5649,11.2915,-30.7617,112,1.1035,0,22.5872,-15.8665,24,0.8384,7967,3.905,-159.6847
rg,1625413956234031823,1,-0.6758,-0.1267,0.6943,77,-6.5918,2.8076,-13.6108,112,1.1065,0,23.3597,-16.1898,24,0.8434,7990,3.905,-160.2208
rg,1625413956234063675,1,-0.7488,-0.2734,0.876,78,-31.4331,-15.625,-8.5449,112,1.1065,0,23.278,-17.5425,24,0.8464,7970,3.905,-160.3998
rg,1625413956234082878,1,-0.7607,-0.3743,0.8933,79,-51.2695,-69.8242,2.0142,112,1.1135,0,21.2432,-19.3658,24,0.8484,8038,3.905,-159.4356
rg,1625413956234101971,1,-0.2,-0.4539,0.9668,80,-62.7441,-120.3613,11.5356,112,1.1095,0,16.4916,-21.3754,24,0.8454,10234,3.905,-157.281
rg,1625413956234120175,1,0.2012,-0.4282,0.9558,81,-76.1719,-102.417,9.3384,112,1.1035,0,11.83,-24.025,24,0.8364,8106,3.905,-155.2985
rg,1625413956234138304,1,0.2422,-0.3818,0.9216,82,-83.6792,-80.5054,4.6997,112,1.0995,0,8.0428,-27.0184,24,0.8314,8136,3.905,-153.6767
rg,1625413956234155860,1,0.6675,-1.1179,1.1523,83,-24.1089,-9.0332,10.8643,112,1.1035,0,6.7822,-28.5218,24,0.8324,8318,3.905,-153.1925
rg,1625413956234173453,1,-0.0212,-0.2786,0.6973,84,-22.2778,67.627,-1.2817,112,1.1045,0,8.9111,-29.3205,24,0.8314,8226,3.905,-154.528
rg,1625413956234191138,1,-0.4153,-0.6843,1.1238,85,-16.7847,78.064,-4.4556,112,1.1045,0,10.9454,-29.0884,24,0.8304,8425,3.905,-155.5733
rg,1625413956234208841,1,-0.3323,-0.3335,0.8997,86,-9.0332,-1.0376,-5.5542,112,1.1055,0,11.1251,-29.1429,24,0.8304,10884,3.905,-155.6848
rg,1625413956234226545,1,-0.1436,-0.4587,0.9277,87,-9.3384,-10.498,-3.6011,112,1.1045,0,10.5601,-29.3793,24,0.8294,8192,3.905,-155.5794
rg,1625413956234244397,1,-0.0654,-0.3223,0.8298,88,-13.7939,7.6904,-2.5024,112,1.1055,0,10.5279,-29.6395,24,0.8304,8266,3.905,-155.7605
rg,1625413956234261712,1,-0.1309,-0.3577,0.814,89,-19.2871,23.6206,-6.4697,112,1.1065,0,11.1281,-30.2982,24,0.8334,8357,3.905,-156.4253
rg,1625413956234280397,1,-0.1746,-0.4426,0.8721,90,-24.5972,28.0151,-8.606,112,1.1055,0.001,11.8911,-31.4332,24,0.8344,8343,3.905,-157.3103
rg,1625413956234298916,1,-0.2095,-0.5374,0.9175,91,-23.1323,31.8604,-14.3433,112,1.1045,0,12.6307,-32.5573,24,0.8344,8262,3.905,-158.4899
rg,1625413956234316916,1,-0.2458,-0.5537,0.8967,92,-17.8833,37.8418,-16.3574,112,1.1045,0,13.5535,-33.5475,24,0.8374,8381,3.905,-159.8932
rg,1625413956234356212,1,-0.2983,-0.6926,0.9744,93,-9.6436,45.0439,-15.9302,112,1.1025,0,14.6997,-34.3837,24,0.8404,8451,3.905,-161.494
rg,1625413956234377767,1,-0.2988,-0.7917,1.0317,94,3.9062,48.3398,-16.5405,112,1.1015,0,15.8357,-34.7922,25,0.8414,8466,3.905,-163.2287
rg,1625413956234397490,1,-0.158,-0.7424,0.9624,95,44.0063,55.2979,-11.1084,112,1.1055,0,17.0708,-33.6221,25,0.8444,8686,3.905,-164.9457
rg,1625413956234414749,1,-0.0774,-0.6494,0.8762,96,68.9697,76.6602,-17.8833,112,1.1055,0,18.7392,-31.7171,25,0.8484,8532,3.905,-167.3653
rg,1625413956589105934,1,-0.7061,-0.5186,0.7861,97,65.1245,92.6514,-40.7715,112,1.1055,-0.001,21.244,-30.459,24,0.8504,25889,3.905,-170.6126
rg,1625413956589207878,1,-0.7749,-0.3723,0.7344,98,56.8848,36.7432,-39.0015,112,1.1055,0,22.5884,-28.9062,24,0.8504,8656,3.905,-172.8022
rg,1625413956589228749,1,-0.7615,-0.1055,0.6218,99,33.8135,-3.6011,-21.3013,112,1.1055,0,23.1401,-27.315,24,0.8514,7814,3.905,-173.322
rg,1625413956589247675,1,-0.7649,-0.085,0.6851,100,11.5356,-23.7427,-13.916,112,1.1065,0,22.3444,-27.1305,24,0.8544,7793,3.905,-172.5665
rg,1625413956589266156,1,-0.7781,-0.3152,0.8767,101,-32.5317,-63.5376,0.4272,112,1.1095,0,20.79,-27.7131,24,0.8574,7797,3.905,-171.1952
rg,1625413956589286434,1,-0.4233,-0.4883,0.9624,102,-48.8281,-113.0981,15.1367,112,1.1115,0,17.1293,-28.7022,24,0.8574,10139,3.905,-168.3508
rg,1625413956589305434,1,0.1165,-0.4648,0.9343,103,-64.8193,-117.3706,17.2119,112,1.1095,0,12.4997,-30.4131,25,0.8504,8006,3.905,-165.2901
rg,1625413956589324212,1,0.3423,-0.4656,0.958,104,-81.7871,-61.7676,11.5356,112,1.1015,0,9.5086,-33.1601,25,0.8404,9469,3.905,-163.4969
rg,1625413956589343138,1,0.2771,-0.4548,0.895,105,-86.5479,-27.2217,7.2021,112,1.0965,0,7.8271,-36.2293,25,0.8364,7900,3.905,-162.5638
rg,1625413956589363138,1,0.623,-1.0498,0.8711,106,-2.8687,43.5181,23.5596,112,1.1005,0,8.5716,-36.8832,25,0.8404,7948,3.905,-162.9146
rg,1625413956589380878,1,-0.2451,-0.3887,0.6694,107,-33.2642,121.8872,7.019,112,1.1025,0,12.9351,-38.4674,24,0.8394,8516,3.905,-165.6919
rg,1625413956589404823,1,-0.675,-0.958,1.2603,108,-25.2686,120.4224,-2.6245,112,1.1025,0,15.8073,-38.2828,24,0.8394,8637,3.905,-167.5434
rg,1625413956589423138,1,-0.79,-0.1833,0.594,109,22.0947,31.0669,-5.6763,112,1.1015,0,17.9995,-37.1469,24,0.8384,8087,3.905,-168.3635
rg,1625413956589441341,1,-0.1641,-0.4724,0.8831,110,14.7095,-23.8037,1.0376,112,1.1035,0,16.9242,-35.9953,24,0.8424,8056,3.905,-167.6188
rg,1625413956589519063,1,0.0444,-0.3372,0.7717,111,13.4277,-17.9443,-3.7842,112,1.1045,0,16.4205,-35.541,24,0.8434,8072,3.905,-167.9157
rg,1625413956589541008,1,-0.1355,-0.5112,0.9331,112,0.061,33.1421,-8.2397,112,1.1025,0,16.9413,-35.5614,24,0.8424,8128,3.905,-168.9207
rg,1625413956589558489,1,-0.2893,-0.4851,0.864,113,1.8311,43.2129,-12.7563,112,1.1055,0,18.0157,-35.6782,24,0.8464,8080,3.905,-170.3379
rg,1625413956589575749,1,-0.314,-0.5203,0.8914,114,0.6714,43.0298,-18.6157,112,1.1055,0,18.8877,-36.0313,24,0.8474,8130,3.905,-172.1041
rg,1625413956589593026,1,-0.3569,-0.5151,0.8708,115,-0.061,48.4009,-26.001,112,1.1035,0,19.846,-36.5074,24,0.8474,8121,3.905,-174.1365
rg,1625413956589610397,1,-0.5024,-0.501,0.8538,116,-2.1973,51.0254,-31.0669,112,1.1065,0,21.0047,-37.183,24,0.8514,8106,3.905,-176.4257
rg,1625413956589628138,1,-0.5771,-0.6455,0.9541,117,-0.9155,46.6919,-30.7617,112,1.1045,0,21.7437,-37.7593,24,0.8544,8142,3.905,-178.4916
rg,1625413956589645119,1,-0.541,-0.7395,1.0269,118,13.3057,32.0435,-27.0996,112,1.1045,0,22.1385,-37.8021,24,0.8544,8129,3.905,-180.2303
rg,1625413956589662230,1,-0.2683,-0.7976,1.022,119,52.7344,26.3672,-20.4468,112,1.1075,0,22.0679,-36.2219,24,0.8574,8256,3.905,-181.6276
rg,1625413956589678823,1,-0.1567,-0.6033,0.8835,120,75.1343,41.8701,-31.0059,112,1.1075,0,22.1748,-33.9451,24,0.8584,8316,3.905,-183.7426
rg,1625413956589695008,1,-0.2578,-0.5444,0.8604,121,75.9277,55.481,-35.8276,112,1.1075,0,22.9306,-31.8446,24,0.8584,8301,3.905,-186.3308
rg,1625413956589711304,1,-0.5852,-0.4336,0.8159,122,69.7021,63.0493,-43.5181,112,1.1035,0,24.5517,-30.1419,24,0.8564,8289,3.905,170.6829
rg,1625413956589727656,1,-0.906,-0.1682,0.6819,123,42.8467,29.3579,-36.9263,112,1.1055,0,25.9104,-28.8685,24,0.8554,9347,3.905,168.8196
rg,1625413956589744563,1,-0.8164,-0.3772,0.8562,124,9.0942,-42.1753,-25.1465,112,1.1075,0,24.5459,-28.3645,24,0.8534,9937,3.905,168.8216
rg,1625413956589760878,1,-0.5598,-0.3176,0.8777,125,-5.127,-83.9233,-17.2119,112,1.1095,0,21.5312,-27.8343,24,0.8584,8294,3.905,170.0219
rg,1625413956589777545,1,-0.4863,-0.2864,0.8748,126,-14.3433,-90.1489,-9.8877,112,1.1155,0,18.4251,-27.5562,24,0.8594,8376,3.905,-188.4242
rg,1625413956589809563,1,-0.2693,-0.4177,0.9414,127,-34.4238,-101.1963,1.0376,81,1.1095,0,14.7319,-28.2014,24,0.8574,8365,4.0073,-186.3564
rg,1625413956589842212,1,0.1094,-0.502,0.9873,128,-39.978,-98.0225,3.1128,81,1.1115,0,10.5784,-29.2881,24,0.8544,8439,4.0073,-184.2862
rg,1625413956945904267,1,0.5339,-0.7373,0.9675,129,-0.8545,1.5869,6.8359,81,1.1095,0,9.2648,-27.798,24,0.8454,25122,4.0073,-183.8196
rg,1625413956945977860,1,-0.3162,-0.657,1.0955,130,-24.9023,82.8247,-13.4888,81,1.1095,0,12.0849,-29.2953,24,0.8444,10596,4.0073,-185.9377
rg,1625413956946002193,1,-0.4954,-0.198,0.6968,131,1.1597,48.645,-10.8643,81,1.1085,0,14.4314,-29.1079,24,0.8444,9398,4.0073,-187.2064
rg,1625413956946022952,1,-0.2666,-0.5195,0.9492,132,-12.2681,27.0996,-3.2959,81,1.1085,0,15.2795,-29.7447,24,0.8454,7844,4.0073,-187.8717
rg,1625413956946044711,1,-0.1763,-0.4399,0.8752,133,-9.0332,25.7568,-3.2959,81,1.1085,0,15.8989,-30.1487,24,0.8464,7788,4.0073,-188.4905
rg,1625413956946063471,1,-0.1653,-0.4524,0.8672,134,-12.5122,40.1611,-9.0332,81,1.1095,0,16.8411,-30.8647,24,0.8474,7851,4.0073,170.3653
rg,1625413956946082545,1,-0.2673,-0.4697,0.8516,135,-13.9771,48.3398,-16.7236,81,1.1095,0,18.0749,-31.8307,24,0.8494,8271,4.0073,168.7351
rg,1625413956946105285,1,-0.3086,-0.5071,0.8679,136,-15.686,47.5464,-22.1558,81,1.1095,0,19.2353,-33.0359,24,0.8514,7879,4.0073,166.8715
rg,1625413956946123211,1,-0.4231,-0.53,0.8721,137,-13.1226,45.2271,-29.541,81,1.1045,0,20.2062,-34.1952,24,0.8524,7916,4.0073,164.7842
rg,1625413956946141471,1,-0.5164,-0.6123,0.9138,138,-8.606,35.7056,-29.541,81,1.1095,0,20.8927,-35.1852,24,0.8554,7901,4.0073,162.8834
rg,1625413956946160489,1,-0.5134,-0.6675,0.9602,139,-1.77,29.1138,-29.9683,81,1.1055,0,21.2455,-35.8689,24,0.8564,7982,4.0073,161.1196
rg,1625413956946270674,1,-0.3835,-0.7312,0.9836,140,27.5269,14.7095,-22.2168,81,1.1095,0,21.0476,-35.2048,24,0.8584,7979,4.0073,159.9682
rg,1625413956946302656,1,-0.0459,-0.7319,0.9834,141,59.5703,25.6348,-13.7329,81,1.1095,0,20.8435,-33.2818,24,0.8594,11201,4.0073,158.829
rg,1625413956946323434,1,-0.0557,-0.5825,0.8398,142,74.9512,54.5044,-29.0527,81,1.1115,0,21.3642,-31.1805,24,0.8614,8029,4.0073,156.4923
rg,1625413956946343082,1,-0.209,-0.5037,0.7979,143,74.9512,71.2891,-35.1562,81,1.1095,0,23.4621,-29.557,24,0.8594,8047,4.0073,153.2965
rg,1625413956946363397,1,-0.6057,-0.3794,0.738,144,65.7959,81.3599,-41.1377,81,1.1065,0,25.993,-28.229,24,0.8574,8247,4.0073,150.0187
rg,1625413956946382526,1,-1.0405,-0.1338,0.6423,145,41.9312,47.1191,-31.1279,81,1.1075,0,28.2818,-27.1746,24,0.8594,8142,4.0073,147.9797
rg,1625413956946400989,1,-1.073,-0.0837,0.7256,146,21.9727,7.3242,-18.1274,81,1.1085,0,27.8433,-26.5996,24,0.8614,8147,4.0073,148.6464
rg,1625413956946421026,1,-0.9331,-0.3015,0.8547,147,-26.1841,-82.3364,-1.77,81,1.1095,0,25.5818,-26.7035,24,0.8624,8163,4.0073,150.3436
rg,1625413956946441211,1,-0.4268,-0.5173,0.9761,148,-41.0767,-144.6533,8.667,81,1.1135,0,20.4254,-27.1378,24,0.8634,8178,4.0073,153.5147
rg,1625413956946460248,1,0.2537,-0.498,1.0005,149,-48.0347,-148.6206,13.4277,81,1.1115,0,14.189,-28.0109,24,0.8594,12731,4.0073,156.9192
rg,1625413956946485804,1,0.4624,-0.4519,0.9368,150,-63.0493,-77.3926,12.0239,81,1.1025,0,10.3254,-30.0116,24,0.8504,8315,4.0073,158.934
rg,1625413956946506952,1,0.2097,-0.6633,1.5613,151,-68.9087,-4.9438,3.9062,81,1.1075,0,9.5631,-32.43,24,0.8514,9506,4.0073,159.239
rg,1625413956946529045,1,0.3926,0.4109,0.4014,152,20.752,48.8892,18.6768,81,1.1095,0,10.2827,-29.8109,24,0.8504,8421,4.0073,159.1373
rg,1625413956946546971,1,-0.158,-0.4497,0.7864,153,-30.3345,113.1592,7.5684,81,1.1105,0,14.3609,-31.2918,24,0.8504,8346,4.0073,156.8061
rg,1625413956946564989,1,-0.6726,-0.3513,0.729,154,9.5825,65.0635,-2.6855,81,1.1095,0,17.4907,-31.1371,24,0.8494,8640,4.0073,155.353
rg,1625413956946582860,1,-0.4377,-0.408,0.8845,155,5.3711,5.0049,5.249,81,1.1115,0,18.0338,-30.6479,24,0.8504,8330,4.0073,155.5112
rg,1625413956946600100,1,0.0491,-0.3469,0.8044,156,-0.4883,-4.2725,1.8921,81,1.1125,0,17.1054,-30.3095,24,0.8534,8314,4.0073,155.7639
rg,1625413956946618304,1,-0.0107,-0.4302,0.8696,157,-9.2773,19.043,-3.3569,81,1.1125,0,17.046,-30.6604,24,0.8534,8328,4.0073,155.2897
rg,1625413956946636489,1,-0.1577,-0.3982,0.7925,158,-11.9629,41.3208,-8.8501,81,1.1125,0,17.9965,-31.3307,24,0.8544,8396,4.0073,154.1281
rg,1625413956946673785,1,-0.2261,-0.4724,0.8279,159,-21.1792,56.9458,-12.9395,81,1.1145,0,19.4569,-32.6586,24,0.8584,8409,4.0073,152.4118
rg,1625413956946698008,1,-0.4944,-0.5439,0.8584,160,-26.062,71.3501,-17.5171,81,1.1155,0,21.6864,-34.4913,24,0.8604,8911,4.0073,150.1006
rg,1625413957308284007,1,-0.3191,-0.8455,1.0325,161,1.77,40.6494,-10.6812,81,1.1165,0,22.1072,-34.3395,24,0.8654,25624,4.0073,148.7814
rg,1625413957308367341,1,-0.0767,-0.728,0.9609,162,57.7393,50.7812,-12.3901,81,1.1155,0,22.7953,-32.7876,24,0.8674,8760,4.0073,147.0618
rg,1625413957308388267,1,-0.2957,-0.5396,0.8035,163,65.918,74.646,-29.9683,81,1.1135,0,24.4414,-31.3351,24,0.8674,7968,4.0073,144.201
rg,1625413957308407267,1,-0.9055,-0.2109,0.6228,164,61.4014,80.5054,-31.0059,81,1.1135,0,27.4278,-30.3066,24,0.8674,7799,4.0073,141.6193
rg,1625413957308425304,1,-1.1897,-0.0669,0.6096,165,21.8506,41.2598,-23.3765,81,1.1145,0,29.7245,-29.8351,24,0.8694,7800,4.0073,139.9883
rg,1625413957308442489,1,-1.1763,-0.5801,0.9885,166,-24.6582,-67.9321,-15.0146,81,1.1165,0,27.7035,-30.3669,24,0.8704,8027,4.0073,140.949
rg,1625413957308461359,1,-0.5513,-0.5459,0.9136,167,-24.1089,-121.3379,-11.3525,81,1.1185,0,22.2678,-29.8535,24,0.8684,8071,4.0073,144.1895
rg,1625413957308481748,1,-0.1765,-0.5051,0.9326,168,-22.9492,-167.9077,-1.1597,81,1.1155,0,15.9373,-29.5638,24,0.8634,7854,4.0073,147.6987
rg,1625413957308500026,1,0.2886,-0.6111,0.9692,169,-32.0435,-126.5259,1.6479,81,1.1115,0,10.4697,-30.3308,24,0.8594,7912,4.0073,150.3359
rg,1625413957308518748,1,0.3267,-0.6006,1.0146,170,-29.48,-93.0176,2.3193,81,1.1145,0,6.2954,-31.4351,24,0.8574,7913,4.0073,152.3183
rg,1625413957308537952,1,0.4656,0.1252,0.3613,171,34.4849,16.1133,0.1831,81,1.1145,0,5.01,-28.9759,24,0.8544,11621,4.0073,152.0786
rg,1625413957308557470,1,-0.1006,-0.1848,0.7207,172,11.4746,71.4722,-12.3901,81,1.1145,0,7.3843,-28.1372,24,0.8524,8017,4.0073,150.3148
rg,1625413957308578082,1,-0.6404,-0.2334,0.7048,173,12.5122,53.5278,-14.0991,81,1.1145,0,10.2537,-27.5678,25,0.8514,7983,4.0073,148.8432
rg,1625413957308597637,1,-0.2173,-0.4219,0.8994,174,-4.6997,8.1177,0.1221,81,1.1155,0,10.6226,-27.6791,25,0.8514,7984,4.0073,148.7126
rg,1625413957308644156,1,-0.0212,-0.4688,0.8989,175,-5.3711,11.5356,0,81,1.1155,0,10.6553,-27.9208,25,0.8514,7969,4.0073,148.4955
rg,1625413957308667563,1,-0.0823,-0.3401,0.7803,176,-7.4463,50.5371,-5.4932,81,1.1145,0,12.1231,-28.2657,25,0.8524,9287,4.0073,147.3584
rg,1625413957308685211,1,-0.3696,-0.3997,0.801,177,-18.6768,65.2466,-10.376,81,1.1155,0,14.6026,-29.3235,24,0.8544,8062,4.0073,145.7013
rg,1625413957308737952,1,-0.4292,-0.5693,0.9001,178,-19.104,53.6499,-17.334,81,1.1165,0,16.3928,-30.6566,24,0.8574,10074,4.0073,143.9321
rg,1625413957308761156,1,-0.4727,-0.637,0.9348,179,-16.7236,51.3306,-19.6533,81,1.1155,0,17.7708,-31.725,24,0.8604,8160,4.0073,142.207
rg,1625413957308792285,1,-0.4431,-0.7014,0.9819,180,-2.5024,40.4053,-19.043,81,1.1135,0,18.82,-32.4633,24,0.8624,8133,4.0073,140.5768
rg,1625413957308813711,1,-0.3564,-0.7495,0.9824,181,29.6631,38.0249,-17.395,81,1.1155,0,19.62,-31.9563,24,0.8624,8221,4.0073,139.0307
rg,1625413957309047359,1,-0.1277,-0.7046,0.9622,182,59.2651,46.6309,-13.7329,81,1.1165,0,20.3936,-30.2886,24,0.8654,8179,4.0073,137.4346
rg,1625413957309107563,1,-0.0586,-0.6782,0.9009,183,68.1152,53.1616,-22.0947,81,1.1145,0,21.1257,-28.5394,24,0.8654,8159,4.0073,135.3828
rg,1625413957309145785,1,-0.2964,-0.5017,0.782,184,69.2139,82.7026,-38.6353,81,1.1155,0,23.1768,-27.1272,24,0.8644,8249,4.0073,132.1753
rg,1625413957309168878,1,-0.8398,-0.3164,0.666,185,53.2227,91.2476,-40.2222,81,1.1145,0,26.6674,-26.378,24,0.8644,8281,4.0073,128.8059
rg,1625413957309197470,1,-1.1135,-0.1787,0.6345,186,39.2456,68.4204,-33.6914,81,1.1135,0,29.863,-25.7515,24,0.8654,8296,4.0073,126.233
rg,1625413957309224304,1,-1.2273,-0.2852,0.7793,187,-6.6528,-32.0435,-20.0806,81,1.1135,0,29.358,-25.96,24,0.8674,8390,4.0073,126.1221
rg,1625413957309253619,1,-0.7312,-0.4907,0.9487,188,-22.8271,-125.7935,-7.7515,81,1.1185,0,24.9142,-25.9271,24,0.8704,8320,4.0073,128.27
rg,1625413957309279822,1,-0.1025,-0.4917,0.9526,189,-26.7944,-145.5078,-1.709,81,1.1215,0,18.7873,-26.2766,24,0.8674,8375,4.0073,131.1838
rg,1625413957309304304,1,0.1418,-0.5518,1.0039,190,-41.9922,-138.0005,0.8545,81,1.1115,0,12.9106,-27.3286,24,0.8604,8370,4.0073,133.7845
rg,1625413957309327767,1,0.27,-0.4446,0.9241,191,-45.7153,-83.5571,-5.4321,81,1.1105,0,8.8185,-28.8136,24,0.8564,8415,4.0073,135.2231
rg,1625413957309449267,1,0.7537,-0.5037,0.6831,192,32.7759,-20.1416,10.1929,81,1.1135,0,6.5574,-27.6304,24,0.8574,8406,4.0073,135.9153
rg,1625413957653267859,1,-0.6497,-0.1958,0.6858,193,13.3057,69.6411,-17.7002,81,1.1155,0,9.4163,-27.0966,24,0.8564,25578,4.0073,134.7823
rg,1625413957653299211,1,-0.1372,-0.4695,0.9077,194,-7.3853,10.8032,-1.3428,81,1.1155,0,9.7018,-27.4354,24,0.8574,10912,4.0073,134.5322
rg,1625413957653319230,1,-0.0503,-0.386,0.8596,195,-11.7188,34.0576,-6.4087,81,1.1165,0,10.5197,-27.9181,24,0.8584,7987,4.0073,133.6812
rg,1625413957653338248,1,-0.2302,-0.4229,0.8262,196,-17.7002,55.542,-15.1367,81,1.1165,0,12.3094,-28.906,24,0.8594,9538,4.0073,132.0631
rg,1625413957653356507,1,-0.2959,-0.4648,0.8406,197,-18.3716,56.7627,-18.5547,81,1.1175,0,14.2052,-30.1168,24,0.8614,7836,4.0073,130.2317
rg,1625413957653374285,1,-0.4421,-0.5474,0.8765,198,-20.6299,53.894,-24.5361,81,1.1185,0,15.8949,-31.5271,24,0.8634,7890,4.0073,128.1932
rg,1625413957653391248,1,-0.5686,-0.6216,0.9131,199,-16.7236,43.6401,-26.123,81,1.1185,0,17.2511,-32.8273,24,0.8634,8044,4.0073,126.2687
rg,1625413957653407841,1,-0.5276,-0.6855,0.9614,200,-1.4038,19.2871,-23.3765,81,1.1185,0,17.6496,-33.3549,24,0.8674,7918,4.0073,124.9769
rg,1625413957653424952,1,-0.4441,-0.731,0.9944,201,10.7422,8.8501,-20.9961,81,1.1175,0,17.5638,-33.318,24,0.8674,7907,4.0073,124.0041
rg,1625413957653441841,1,-0.2698,-0.6833,0.9517,202,42.2363,7.9346,-16.4185,81,1.1195,0,17.2907,-31.9486,24,0.8684,7935,4.0073,123.216
rg,1625413957653460970,1,-0.0171,-0.6689,0.9448,203,53.833,13.7329,-13.6719,81,1.1195,0,16.9226,-29.8639,24,0.8714,7986,4.0073,122.1187
rg,1625413957653497933,1,-0.0093,-0.6157,0.8828,204,69.7021,31.7383,-27.6489,81,1.1165,0,16.8547,-27.7691,24,0.8694,8005,4.0073,120.3933
rg,1625413957653516174,1,-0.3186,-0.458,0.7966,205,65.7959,67.688,-37.9639,81,1.1175,0,18.6567,-26.0477,24,0.8694,8042,4.0073,117.6617
rg,1625413957653533396,1,-0.7515,-0.3083,0.6987,206,58.5938,72.998,-37.5977,81,1.1165,0,21.3248,-24.8179,24,0.8684,8052,4.0073,115.3373
rg,1625413957653549655,1,-0.8909,-0.1655,0.6638,207,35.8887,38.0249,-26.5503,81,1.1135,0,23.4446,-23.7528,24,0.8664,8175,4.0073,113.7304
rg,1625413957653566081,1,-1.0679,-0.1599,0.793,208,-12.7563,-29.3579,-11.9629,81,1.1155,0,23.3026,-23.9211,24,0.8704,8091,4.0073,113.9027
rg,1625413957653582952,1,-0.7749,-0.5071,0.9814,209,-42.2974,-106.8726,3.54,81,1.1185,0,19.9447,-24.9681,24,0.8714,8143,4.0073,115.9016
rg,1625413957653599785,1,-0.4429,-0.4922,0.9492,210,-47.8516,-139.3433,7.2021,81,1.1175,0,15.1619,-26.12,24,0.8674,8101,4.0073,118.6698
rg,1625413957653616415,1,0.209,-0.6462,1.0684,211,-61.0352,-138.1226,8.3618,81,1.1135,0,9.4771,-28.1295,24,0.8604,8146,4.0073,121.5204
rg,1625413957653633378,1,0.468,-0.5544,1.3386,212,-56.0913,-75.9277,3.2959,81,1.1135,0,5.8569,-29.9298,24,0.8584,8181,4.0073,123.1786
rg,1625413957653650489,1,0.9844,-1.1304,1.1091,213,1.4038,-27.771,18.7378,81,1.1135,0,3.8935,-30.2856,24,0.8564,8234,4.0073,124.3384
rg,1625413957653667081,1,0.3308,-0.1772,0.5886,214,4.4556,87.6465,1.5869,81,1.1205,0,5.7417,-29.7762,24,0.8564,8264,4.0073,122.653
rg,1625413957653683767,1,-0.5957,-0.4131,0.8367,215,12.8784,107.3608,-11.3525,81,1.1165,0,10.2539,-29.4911,24,0.8564,8203,4.0073,120.1233
rg,1625413957653700174,1,-0.8237,-0.3203,0.8181,216,11.2915,52.6733,-1.2817,81,1.1175,0,13.29,-29.019,24,0.8544,9999,4.0073,119.0742
rg,1625413957653716452,1,-0.0569,-0.4331,0.863,217,8.5449,-10.1318,1.5259,81,1.1175,0,12.5726,-28.518,24,0.8584,12296,4.0073,119.3514
rg,1625413957653733026,1,-0.0134,-0.3896,0.8206,218,2.8687,29.2358,-9.4604,81,1.1185,0,12.9518,-28.4715,24,0.8604,8283,4.0073,118.4653
rg,1625413957653749526,1,-0.3091,-0.3545,0.7688,219,-5.7373,48.0347,-16.6016,81,1.1185,0,14.5894,-28.9197,24,0.8624,8304,4.0073,116.9465
rg,1625413957653766007,1,-0.3374,-0.449,0.8376,220,-11.5967,43.8232,-20.3247,81,1.1195,0,15.9248,-29.8313,24,0.8644,8317,4.0073,115.312
rg,1625413957653791970,1,-0.4163,-0.4612,0.824,221,-16.4795,43.0908,-22.4609,81,1.1205,0,17.2568,-30.9499,24,0.8664,8344,4.0073,113.5971
rg,1625413957653808637,1,-0.502,-0.6191,0.9316,222,-17.5781,41.4429,-19.9585,81,1.1215,0,18.5125,-32.2444,24,0.8674,8623,4.0073,111.9371
rg,1625413957653824711,1,-0.4363,-0.6265,0.9424,223,-5.7373,29.1748,-16.0522,81,1.1205,0,19.2425,-32.9185,24,0.8694,8907,4.0073,110.6847
rg,1625413957653841248,1,-0.3831,-0.6853,0.9846,224,4.0894,27.4658,-15.1978,81,1.1215,0,19.6792,-33.254,24,0.8714,8435,4.0073,109.4715
rg,1625413958010169600,1,-0.0811,-0.6265,0.8733,225,52.1851,53.5278,-22.2778,81,1.1185,0.001,20.9695,-32.0061,24,0.8724,25372,4.0073,106.7855
rg,1625413958010211637,1,-0.5798,-0.4365,0.7656,226,49.0723,84.9609,-35.7056,81,1.1165,0,23.5822,-31.185,24,0.8714,8630,4.0073,103.5801
rg,1625413958010255618,1,-0.8079,-0.3313,0.6975,227,43.5181,75.3784,-32.8369,81,1.1165,0,26.7338,-30.2705,24,0.8724,7799,4.0073,100.8126
rg,1625413958010276192,1,-1.1606,-0.0703,0.6665,228,8.1787,13.3057,-20.9351,81,1.1175,0,28.0542,-29.9248,24,0.8744,7769,4.0073,99.9426
rg,1625413958010294859,1,-1.0505,-0.5,0.9504,229,-33.1421,-81.8481,-8.1787,81,1.1205,0,25.7061,-30.4781,24,0.8764,7883,4.0073,101.5134
rg,1625413958010313489,1,-0.7876,-0.5327,0.9597,230,-35.1562,-124.7559,2.1362,81,1.1215,0,21.2154,-30.6162,24,0.8744,8076,4.0073,104.4229
rg,1625413958010332748,1,0.0391,-0.5769,1.0144,231,-44.6777,-166.8091,5.4321,81,1.1165,0,14.7414,-31.1759,24,0.8684,8157,4.0073,108.2463
rg,1625413958010351803,1,0.342,-0.5474,0.9524,232,-46.9971,-105.835,0.5493,81,1.1095,0,9.9698,-32.4953,24,0.8624,7941,4.0073,110.5827
rg,1625413958010370081,1,0.7466,-1.0403,1.1235,233,-0.4272,-28.0151,10.498,81,1.1145,0,7.9288,-32.7235,24,0.8644,8767,4.0073,111.4904
rg,1625413958010388155,1,0.623,0.1865,0.5129,234,42.6636,0.8545,7.1411,81,1.1165,0,6.2896,-29.7998,24,0.8634,7938,4.0073,111.835
rg,1625413958010903840,1,-0.3296,-0.5547,1.01,235,-7.3242,106.2622,-6.4087,81,1.1175,0,10.2003,-30.3862,24,0.8614,7977,4.0073,109.4567
rg,1625413958010999933,1,-0.6162,-0.1243,0.6145,236,14.2212,54.3213,-9.7656,81,1.1185,0,13.1694,-29.5688,25,0.8624,8001,4.0073,108.1086
rg,1625413958011026303,1,-0.5408,-0.2759,0.7996,237,2.3804,32.8369,-7.2021,81,1.1175,0,14.924,-29.3307,25,0.8624,7987,4.0073,107.2698
rg,1625413958011048507,1,-0.1919,-0.4121,0.8369,238,-0.6714,10.376,-0.4883,81,1.1195,0,15.1413,-29.2838,25,0.8634,7977,4.0073,107.0754
rg,1625413958011070766,1,-0.0554,-0.4263,0.8457,239,-8.0566,25.6958,-5.249,81,1.1195,0,15.4621,-29.6817,25,0.8674,7975,4.0073,106.3902
rg,1625413958011093785,1,-0.2292,-0.4111,0.8074,240,-13.4277,52.7954,-11.1084,81,1.1205,0,17.0048,-30.5218,24,0.8684,8209,4.0073,104.915
rg,1625413958011114933,1,-0.3574,-0.4995,0.8521,241,-18.3716,57.9224,-16.2964,81,1.1205,-0.001,18.7506,-31.8081,24,0.8694,8045,4.0073,103.0686
rg,1625413958011135914,1,-0.4263,-0.5537,0.8865,242,-20.2637,59.021,-17.9443,81,1.1215,0,20.4759,-33.284,24,0.8714,7905,4.0073,101.0731
rg,1625413958011158118,1,-0.5796,-0.6223,0.9214,243,-13.9771,54.8096,-16.3574,94,1.1215,0,22.194,-34.5524,24,0.8734,9474,3.9996,99.1634
rg,1625413958011178340,1,-0.5618,-0.7051,0.9766,244,1.3428,32.5928,-13.7939,94,1.1225,0,23.0499,-35.0386,24,0.8744,9232,3.9996,97.8486
rg,1625413958011198489,1,-0.2893,-0.7461,0.9832,245,35.4004,17.395,-10.6201,94,1.1235,0,22.9868,-34.0257,24,0.8764,8620,3.9996,97.0022
rg,1625413958011219433,1,-0.0168,-0.6594,0.9319,246,50.415,23.8037,-7.9956,94,1.1255,0,22.9704,-32.2701,24,0.8754,8200,3.9996,95.648
rg,1625413958011289303,1,-0.062,-0.6169,0.8845,247,61.3403,49.1333,-24.7803,94,1.1195,0,23.3517,-30.735,24,0.8744,8178,3.9996,93.5552
rg,1625413958011314007,1,-0.5269,-0.4187,0.7466,248,57.4341,78.3081,-36.0718,94,1.1185,0,25.6387,-29.6685,24,0.8734,8260,3.9996,90.4775
rg,1625413958011333822,1,-1.1282,-0.166,0.6531,249,33.2642,52.3071,-25.1465,94,1.1185,0,28.2235,-28.9515,24,0.8744,8235,3.9996,88.5061
rg,1625413958011355303,1,-1.2275,-0.1558,0.7041,250,11.2915,4.8218,-17.2119,94,1.1195,0,29.2565,-28.5017,24,0.8774,8311,3.9996,87.8993
rg,1625413958011374285,1,-0.9153,-0.5723,1.0061,251,-24.8413,-99.9756,-7.9346,94,1.1195,0,25.9629,-28.6679,24,0.8774,8348,3.9996,89.7367
rg,1625413958011393748,1,-0.3184,-0.5029,0.9084,252,-21.6064,-151.3672,2.1973,94,1.1205,0,20.3544,-28.2656,24,0.8744,8723,3.9996,92.9633
rg,1625413958011412155,1,0.1912,-0.5149,0.9463,253,-37.2925,-130.9204,1.2207,94,1.1155,0,14.6534,-28.9505,24,0.8724,8350,3.9996,95.6465
rg,1625413958011544322,1,0.2786,-0.5693,1.2258,254,-42.7246,-100.4639,-0.5493,94,1.1115,0,11.0413,-30.178,24,0.8644,8353,3.9996,97.1028
rg,1625413958011583063,1,0.644,-1.0037,1.1082,255,4.8828,-34.3628,6.1646,94,1.1135,0,8.7112,-30.2581,25,0.8614,8404,3.9996,97.9382
rg,1625413958011602655,1,0.2036,-0.0781,0.5552,256,3.1128,47.4854,-5.249,94,1.1165,0,9.1803,-29.4892,25,0.8604,8440,3.9996,96.9103
rg,1625413958372557785,1,-0.2588,-0.4275,0.8875,257,-5.4932,9.7656,-0.6714,94,1.1185,0,9.7228,-29.5904,25,0.8614,25603,3.9996,96.7157
rg,1625413958372597025,1,-0.0322,-0.4204,0.8687,258,-10.1318,21.9116,-1.3428,94,1.1185,0,10.1444,-29.9201,25,0.8624,8587,3.9996,96.2529
rg,1625413958372617211,1,-0.1262,-0.4497,0.8416,259,-13.2446,52.063,-6.3477,94,1.1185,0,11.7015,-30.6134,25,0.8644,7815,3.9996,94.9723
rg,1625413958372636748,1,-0.2166,-0.5122,0.8606,260,-16.7236,64.0259,-11.7188,94,1.1195,0,13.6577,-31.6666,25,0.8664,9077,3.9996,93.2004
rg,1625413958372655414,1,-0.3118,-0.5388,0.8623,261,-15.8691,73.7915,-18.3105,94,1.1205,0,15.8809,-32.8837,25,0.8684,10157,3.9996,90.9238
rg,1625413958372673507,1,-0.5671,-0.5447,0.8354,262,-14.7705,77.3926,-23.4375,94,1.1215,0,18.4483,-34.1746,25,0.8704,8403,3.9996,88.2701
rg,1625413958372703062,1,-0.6479,-0.585,0.8809,263,-12.5122,67.8711,-25.7568,94,1.1225,0,20.5842,-35.4959,25,0.8724,8160,3.9996,85.7279
rg,1625413958372720785,1,-0.6382,-0.668,0.9294,264,1.0376,36.9263,-25.0854,94,1.1225,0,21.5216,-36.0999,25,0.8734,8566,3.9996,83.9273
rg,1625413958372738377,1,-0.4978,-0.6658,0.9126,265,26.4282,16.4795,-19.4702,94,1.1235,0,21.6828,-35.4396,24,0.8754,8585,3.9996,82.8366
rg,1625413958372756025,1,-0.4219,-0.7043,0.967,266,35.9497,11.9629,-16.7847,94,1.1235,0,21.2022,-33.756,24,0.8744,8627,3.9996,82.184
rg,1625413958372772674,1,-0.072,-0.6399,0.907,267,56.0303,10.9863,-18.2495,94,1.1205,0,20.4879,-31.9031,24,0.8754,8818,3.9996,81.2403
rg,1625413958372789896,1,-0.127,-0.5247,0.8157,268,60.1807,39.3677,-33.6914,94,1.1195,0,20.6189,-30.2714,24,0.8744,8252,3.9996,79.1195
rg,1625413958372807081,1,-0.4988,-0.4395,0.7649,269,54.5654,64.1479,-38.6353,94,1.1165,0,22.4158,-29.1027,24,0.8724,9238,3.9996,76.3197
rg,1625413958372824785,1,-0.7441,-0.3267,0.7095,270,41.5039,41.8091,-33.2642,94,1.1165,0,24.0558,-28.1467,24,0.8724,9876,3.9996,74.2386
rg,1625413958372843488,1,-0.7654,-0.3186,0.7271,271,30.7007,18.5547,-28.3813,94,1.1165,0,24.8524,-27.3334,24,0.8734,7968,3.9996,72.8434
rg,1625413958372860674,1,-0.7256,-0.2766,0.8181,272,9.5825,-20.0195,-19.2261,94,1.1165,0,24.389,-26.8018,24,0.8744,8334,3.9996,72.6217
rg,1625413958372877544,1,-0.6567,-0.3572,0.908,273,-19.2871,-59.3872,-2.6245,94,1.1205,0,22.6068,-26.9464,24,0.8774,7990,3.9996,73.7775
rg,1625413958372894951,1,-0.4304,-0.4878,0.9341,274,-29.9072,-77.2095,1.8311,94,1.1225,0,19.4328,-27.8289,24,0.8774,8388,3.9996,75.718
rg,1625413958372911636,1,-0.2886,-0.5007,0.9316,275,-48.4009,-99.4263,4.6997,94,1.1135,0,15.874,-29.1115,24,0.8694,8791,3.9996,77.8847
rg,1625413958372928488,1,-0.0142,-0.4319,0.8977,276,-62.3779,-94.6045,1.709,94,1.1085,0,12.0588,-30.9636,24,0.8624,8045,3.9996,79.9516
rg,1625413958372945674,1,0.8882,-0.6702,0.738,277,23.6206,-47.6685,19.2261,94,1.1145,0,8.9919,-30.0531,24,0.8654,8440,3.9996,81.5239
rg,1625413958372974136,1,0.667,0.5896,0.3745,278,25.6958,-8.3008,3.9062,94,1.1165,0,11.0612,-31.3326,24,0.8644,8841,3.9996,79.6798
rg,1625413958372992636,1,-0.4048,-0.9417,1.345,279,-26.062,98.2666,-10.498,94,1.1165,0,14.2551,-33.0588,24,0.8634,8195,3.9996,77.1365
rg,1625413958373009877,1,-0.4929,-0.0635,0.5955,280,17.5781,37.3535,-18.6768,94,1.1185,0,16.1153,-31.9141,25,0.8644,8209,3.9996,75.8688
rg,1625413958373026266,1,-0.3618,-0.5505,0.9622,281,-4.4556,23.0103,-6.0425,94,1.1195,0,16.8375,-32.2048,25,0.8664,8920,3.9996,75.1701
rg,1625413958373043470,1,-0.2715,-0.4583,0.8867,282,-2.5024,18.9209,-4.4556,94,1.1195,0,17.1894,-32.2733,25,0.8674,8209,3.9996,74.6475
rg,1625413958373142211,1,-0.1736,-0.4907,0.9043,283,-2.8687,20.3857,-9.3384,94,1.1175,0,17.3718,-32.4583,25,0.8674,8609,3.9996,73.9075
rg,1625413958373163674,1,-0.1396,-0.4443,0.8347,284,-2.1973,30.7617,-16.0522,94,1.1205,0,17.7021,-32.7359,24,0.8684,8626,3.9996,72.7009
rg,1625413958373184340,1,-0.3181,-0.4946,0.8552,285,-7.4463,42.7856,-25.0854,94,1.1215,0,18.5828,-33.4994,24,0.8714,9224,3.9996,70.8657
rg,1625413958373203155,1,-0.5134,-0.6077,0.9175,286,-8.2397,42.6025,-28.4424,94,1.1235,0,19.3864,-34.3783,24,0.8734,8393,3.9996,68.9197
rg,1625413958373220877,1,-0.55,-0.6675,0.9524,287,-0.9155,29.6631,-30.3345,94,1.1215,0,19.8957,-35.0283,24,0.8744,8373,3.9996,67.1359
rg,1625413958373238562,1,-0.467,-0.6812,0.9502,288,19.165,11.3525,-24.7803,94,1.1235,0,19.77,-34.6655,24,0.8754,8417,3.9996,65.9907
rg,1625413958724723081,1,0.0662,-0.5889,0.843,289,76.5381,36.1938,-21.4844,94,1.1195,0,20.2393,-32.4237,24,0.8784,28174,3.9996,63.5031
rg,1625413958724764284,1,-0.45,-0.4448,0.7844,290,67.4438,90.8203,-39.1846,94,1.1165,0,22.736,-30.892,24,0.8764,10417,3.9996,60.0614
rg,1625413958724784914,1,-0.6226,-0.4448,0.7715,291,61.5845,86.792,-39.3066,94,1.1145,0,25.7506,-29.6708,24,0.8754,7858,3.9996,56.7228
rg,1625413958724804673,1,-0.9104,-0.1497,0.6562,292,44.1284,47.8516,-28.4424,94,1.1145,0,27.9369,-28.4349,24,0.8754,7824,3.9996,54.7729
rg,1625413958724854210,1,-1.0217,-0.1682,0.7837,293,-6.4087,-16.4795,-12.3901,94,1.1165,0,28.0642,-28.3021,24,0.8784,8027,3.9996,54.8519
rg,1625413958724874062,1,-0.8572,-0.3977,0.8875,294,-26.123,-52.3682,-3.6011,94,1.1185,0,25.7036,-28.6661,24,0.8804,7884,3.9996,57.0053
rg,1625413958724892247,1,-0.6467,-0.4114,0.9045,295,-46.936,-118.4082,12.3291,94,1.1195,0,22.1045,-29.1698,24,0.8774,8031,3.9996,60.0593
rg,1625413958724911599,1,-0.0093,-0.5439,1.0017,296,-65.979,-142.334,16.0522,94,1.1165,0,16.6747,-30.567,24,0.8734,7921,3.9996,63.6828
rg,1625413958724974358,1,0.4197,-0.4563,1.0808,297,-70.6177,-126.6479,14.6484,94,1.1105,0,12.2387,-32.5027,24,0.8714,8032,3.9996,66.3132
rg,1625413958724995321,1,0.7954,-1.0513,1.4832,298,-39.5508,-48.0957,17.0288,94,1.1155,0,9.6797,-33.8601,24,0.8684,7978,3.9996,67.9612
rg,1625413958725015692,1,0.5601,0.0918,0.4995,299,-1.4038,62.5,7.5073,94,1.1195,0,10.0808,-33.0321,24,0.8674,8056,3.9996,66.9793
rg,1625413958725034673,1,-0.2488,-0.5989,1.0583,300,-20.752,136.1084,-3.3569,94,1.1205,0,14.4539,-33.7945,24,0.8664,7985,3.9996,64.1332
rg,1625413958725052618,1,-0.7715,-0.1294,0.6375,301,17.0288,76.2329,-10.9253,94,1.1195,0,18.0804,-33.1252,24,0.8664,8015,3.9996,62.1561
rg,1625413958725070840,1,-0.5125,-0.4563,0.9568,302,0.9766,12.8784,-2.4414,94,1.1215,0,18.7629,-32.9124,25,0.8684,8009,3.9996,61.8664
rg,1625413958725089692,1,-0.2529,-0.4001,0.8518,303,2.7466,-7.9346,-2.3193,94,1.1215,0,17.8049,-32.55,25,0.8694,8010,3.9996,61.9475
rg,1625413958725107470,1,-0.0879,-0.3411,0.8242,304,-6.1035,2.3193,-13.7939,94,1.1205,0,17.1141,-32.5328,25,0.8694,8041,3.9996,61.5375
rg,1625413958725125488,1,-0.2681,-0.47,0.8958,305,-17.0898,20.2637,-18.4937,94,1.1225,0,17.2977,-33.3403,25,0.8724,8103,3.9996,60.4861
rg,1625413958725142970,1,-0.2979,-0.5989,0.9668,306,-16.7847,21.9727,-21.7285,94,1.1235,0,17.4125,-34.1585,24,0.8754,8113,3.9996,59.3198
rg,1625413958725160896,1,-0.3044,-0.6536,0.9607,307,8.5449,28.3203,-16.6016,94,1.1235,0,17.86,-34.1886,24,0.8784,14353,3.9996,58.0758
rg,1625413958725177970,1,-0.3608,-0.5796,0.9407,308,21.5454,32.3486,-17.334,94,1.1235,0,18.5468,-33.6461,24,0.8804,8096,3.9996,56.7424
rg,1625413958725195340,1,-0.2332,-0.7039,0.9661,309,30.0903,31.3721,-18.9209,94,1.1245,0,18.9534,-32.4022,24,0.8814,8155,3.9996,55.3518
rg,1625413958725235062,1,-0.0842,-0.6726,0.9792,310,57.373,38.147,-12.5732,94,1.1235,0,19.3986,-30.6231,24,0.8824,8210,3.9996,54.0147
rg,1625413958725257729,1,-0.0837,-0.593,0.8936,311,70.1904,62.3779,-32.0435,94,1.1215,0,20.3323,-28.7932,24,0.8814,8214,3.9996,51.4636
rg,1625413958725275970,1,-0.395,-0.429,0.7842,312,69.1528,88.9893,-41.1987,94,1.1175,0,22.8179,-27.2605,24,0.8784,8474,3.9996,48.1036
rg,1625413958725293007,1,-0.5674,-0.4097,0.7622,313,61.7065,88.8062,-42.7246,94,1.1145,0,25.5562,-26.5119,24,0.8774,8842,3.9996,44.86
rg,1625413958725309840,1,-0.8652,-0.2876,0.698,314,44.6777,64.9414,-36.7432,94,1.1125,0,28.1205,-25.8493,24,0.8754,8286,3.9996,42.1555
rg,1625413958725327247,1,-1.1179,-0.1301,0.6941,315,5.0659,9.7656,-18.0054,94,1.1155,0,29.2899,-25.7258,24,0.8764,8312,3.9996,41.3999
rg,1625413958725345155,1,-0.9006,-0.52,0.9575,316,-22.2778,-73.7305,-2.9907,94,1.1175,0,26.9968,-26.0713,24,0.8824,8398,3.9996,42.7
rg,1625413958725362636,1,-0.6672,-0.4688,0.8748,317,-20.9351,-101.7456,8.0566,94,1.1195,0,23.7664,-25.9896,24,0.8834,8355,3.9996,44.973
rg,1625413958725379451,1,-0.0745,-0.3899,0.8926,318,-34.2407,-129.4556,19.2871,94,1.1195,0,18.7203,-26.0923,24,0.8814,8487,3.9996,48.2045
rg,1625413958725396655,1,0.2168,-0.4189,0.8875,319,-52.1851,-89.9048,12.4512,94,1.1215,0,14.5749,-27.5113,24,0.8784,8454,3.9996,50.391
rg,1625413958725783655,1,0.1458,-0.376,1.1619,320,-68.1763,-40.0391,-1.0986,94,1.1205,0,12.3351,-29.66,24,0.8754,8437,3.9996,51.2558
rg,1625413959081318988,1,-0.332,-0.6624,1.0181,321,-15.8691,93.811,-3.3569,94,1.1245,0,15.4402,-30.1144,24,0.8694,25473,3.9996,49.43
rg,1625413959081410266,1,-0.6021,-0.2412,0.7388,322,0.1221,27.2827,-7.019,94,1.1245,0,17.1076,-29.9432,24,0.8674,8625,3.9996,48.7155
rg,1625413959081431303,1,-0.1755,-0.417,0.8452,323,-6.6528,5.3711,-2.6245,94,1.1255,0,16.5966,-30.0324,25,0.8684,7766,3.9996,48.7839
rg,1625413959081451025,1,-0.072,-0.406,0.8501,324,-7.8125,0.061,-5.8594,94,1.1255,0,16.4749,-30.3403,25,0.8684,9569,3.9996,48.195
rg,1625413959081469895,1,-0.1689,-0.3943,0.8186,325,-6.8359,26.5503,-13.7329,94,1.1255,0,16.8698,-30.7202,25,0.8694,7708,3.9996,47.193
rg,1625413959081550062,1,-0.2334,-0.4495,0.8342,326,-10.376,30.8838,-21.1792,94,1.1266,0,17.3623,-31.4489,25,0.8714,8796,3.9996,45.7963
rg,1625413959081572173,1,-0.2346,-0.5066,0.8528,327,-10.498,35.7666,-28.9917,94,1.1266,0,17.7936,-32.3808,24,0.8744,8375,3.9996,43.9813
rg,1625413959081589951,1,-0.2891,-0.4792,0.8323,328,-10.437,42.8467,-31.0669,94,1.1255,0,18.5076,-33.3382,24,0.8754,8031,3.9996,41.9352
rg,1625413959081607377,1,-0.5198,-0.5391,0.8542,329,-9.9487,42.6636,-31.25,94,1.1276,0,19.5614,-34.3734,24,0.8794,12255,3.9996,39.8424
rg,1625413959081625969,1,-0.5159,-0.5991,0.9104,330,-5.7373,33.5083,-30.5176,94,1.1266,0,20.1839,-35.1939,24,0.8814,7935,3.9996,37.9767
rg,1625413959081643432,1,-0.447,-0.5791,0.8423,331,15.4419,20.752,-24.6582,94,1.1266,0,20.4238,-35.0176,24,0.8824,7934,3.9996,36.6195
rg,1625413959081660266,1,-0.396,-0.5898,0.8694,332,22.0337,19.3481,-23.0713,94,1.1266,0,20.5429,-34.1873,24,0.8844,7944,3.9996,35.5724
rg,1625413959081677247,1,-0.3225,-0.5857,0.8716,333,38.6353,14.9536,-16.6016,94,1.1276,0,20.5293,-32.9578,24,0.8854,7956,3.9996,34.6332
rg,1625413959081694062,1,-0.1892,-0.5259,0.8276,334,53.3447,12.3901,-23.6816,94,1.1276,0,20.0613,-31.1967,24,0.8844,9386,3.9996,33.5006
rg,1625413959081712803,1,-0.2651,-0.4143,0.7681,335,59.8755,26.001,-31.9824,94,1.1266,0,20.1817,-29.2837,24,0.8844,8448,3.9996,31.8053
rg,1625413959081730895,1,-0.3325,-0.4258,0.7834,336,57.9834,30.1514,-32.8979,94,1.1235,0,20.582,-27.6401,24,0.8834,8054,3.9996,30.0231
rg,1625413959081761655,1,-0.3794,-0.4404,0.7844,337,54.5044,21.1792,-33.9355,94,1.1205,0,20.8062,-26.1267,24,0.8804,8136,3.9996,28.2997
rg,1625413959081778543,1,-0.3474,-0.3833,0.7629,338,50.7812,10.9863,-31.6162,94,1.1205,0,20.7074,-24.621,24,0.8804,8078,3.9996,26.8718
rg,1625413959081795321,1,-0.3655,-0.3303,0.741,339,47.3633,8.4229,-30.1514,94,1.1195,0,20.5981,-23.3532,24,0.8794,8293,3.9996,25.7091
rg,1625413959081813321,1,-0.3735,-0.3203,0.74,340,35.5225,1.2207,-23.3154,94,1.1175,0,20.4446,-22.261,24,0.8774,8086,3.9996,24.7745
rg,1625413959081845895,1,-0.302,-0.3909,0.7827,341,26.7944,-9.5215,-17.8223,94,1.1185,0,19.7685,-21.5474,24,0.8744,8100,3.9996,24.1638
rg,1625413959081863858,1,-0.1882,-0.4189,0.812,342,31.4331,-15.2588,-11.1694,94,1.1185,0,18.7194,-20.594,24,0.8794,8109,3.9996,23.8739
rg,1625413959081881673,1,-0.1462,-0.4146,0.8162,343,34.729,-14.7705,-9.1553,94,1.1185,0,17.6072,-19.5241,24,0.8794,8194,3.9996,23.6347
rg,1625413959081899358,1,-0.1321,-0.4373,0.8354,344,41.9922,-5.9814,-2.6855,94,1.1185,0,16.971,-18.1854,24,0.8794,8924,3.9996,23.5048
rg,1625413959081917118,1,-0.1646,-0.3928,0.7827,345,51.0864,-1.9531,-0.1831,94,1.1215,0,16.6486,-16.4832,24,0.8784,8248,3.9996,23.4181
rg,1625413959081934951,1,-0.218,-0.3152,0.7087,346,61.8286,-8.606,-0.1831,94,1.1215,0,16.281,-14.286,24,0.8824,8222,3.9996,23.4211
rg,1625413959081952118,1,-0.2312,-0.2424,0.6709,347,66.5894,-15.8691,-0.4883,94,1.1215,0,15.7268,-11.8102,24,0.8824,8369,3.9996,23.4918
rg,1625413959081969155,1,-0.1709,-0.0754,0.5654,348,70.0073,-34.4849,-3.54,94,1.1205,0,14.3837,-8.8226,24,0.8834,8278,3.9996,23.6512
rg,1625413959081986840,1,-0.1116,-0.0347,0.5742,349,61.4014,-42.5415,-3.479,94,1.1255,0,12.5479,-6.1397,24,0.8854,8358,3.9996,23.7889
rg,1625413959082005266,1,-0.1055,-0.0642,0.6335,350,54.2603,-41.3818,-5.7983,94,1.1255,0,10.7363,-4.2854,24,0.8864,8340,3.9996,23.7163
rg,1625413959082023118,1,-0.1123,-0.1289,0.719,351,45.5322,-40.5273,-3.9673,94,1.1245,0,9.0354,-2.7128,24,0.8854,8369,3.9996,23.6115
rg,1625413959082043358,1,-0.073,-0.1758,0.7659,352,45.0439,-42.7246,1.4038,94,1.1276,0,7.1924,-1.3041,24,0.8864,8394,3.9996,23.6631
rg,1625413959437552284,1,0.0339,-0.1487,0.7654,353,57.0679,-20.3247,18.4937,94,1.1276,0,6.0085,0.673,24,0.8864,25940,3.9996,24.3571
rg,1625413959437614414,1,-0.0154,-0.158,0.793,354,63.3545,-11.1694,23.5596,94,1.1286,-0.001,5.3452,2.8194,24,0.8854,8721,3.9996,25.2365
rg,1625413959437634691,1,-0.0696,-0.1965,0.8167,355,71.167,-10.2539,31.4331,94,1.1286,0,4.8347,5.1264,24,0.8864,7596,3.9996,26.4064
rg,1625413959437737877,1,-0.1042,-0.2097,0.8203,356,83.0688,-13.6719,39.856,94,1.1286,0,4.2113,7.8049,24,0.8864,7836,3.9996,27.8711
rg,1625413959437759654,1,-0.1326,-0.2146,0.8191,357,90.0879,-16.3574,44.1895,94,1.1286,0,3.4827,10.6462,24,0.8864,7820,3.9996,29.4546
rg,1625413959437778673,1,-0.1599,-0.2314,0.8186,358,105.4077,-28.1982,53.833,94,1.1296,0,2.2242,13.9455,24,0.8854,7866,3.9996,31.2659
rg,1625413959437799117,1,-0.126,-0.1797,0.7759,359,126.2817,-42.6636,63.1104,94,1.1296,0,0.1734,18.0013,24,0.8864,8106,3.9996,33.1894
rg,1625413959437817321,1,-0.095,-0.1282,0.7686,360,133.3008,-50.293,66.7725,84,1.1286,0,-2.3568,22.238,24,0.8854,7884,4.0095,35.007
rg,1625413959437835580,1,-0.0278,-0.02,0.7136,361,142.4561,-56.0913,73.5474,84,1.1286,0,-5.4356,26.8731,24,0.8854,9036,4.0095,36.7928
rg,1625413959437854191,1,0.0068,0.051,0.6914,362,152.71,-63.1104,75.3174,84,1.1296,0,-8.9252,31.8973,24,0.8854,9791,4.0095,38.274
rg,1625413959437874340,1,0.0217,0.1074,0.6797,363,159.4238,-65.918,74.5239,84,1.1306,0,-12.5217,37.1616,24,0.8874,7951,4.0095,39.3963
rg,1625413959437894636,1,0.0229,0.147,0.7041,364,159.668,-68.1152,73.2422,84,1.1306,0,-16.2029,42.3714,24,0.8894,8052,4.0095,40.1476
rg,1625413959437913303,1,0.0908,0.1228,0.7468,365,159.1187,-71.2891,72.1436,84,1.1245,0,-19.9854,47.4012,24,0.8854,7950,4.0095,40.548
rg,1625413959437930784,1,0.157,0.1577,0.804,366,157.8979,-60.1807,78.186,84,1.1306,0,-23.7124,52.1911,24,0.8864,7975,4.0095,41.2319
rg,1625413959437949303,1,0.1775,0.1768,0.8186,367,158.7524,-50.9033,81.543,84,1.1316,0,-27.2987,56.8126,24,0.8854,7975,4.0095,42.1362
rg,1625413959437967858,1,0.1584,0.2043,0.8811,368,160.0952,-27.4658,87.0972,84,1.1316,0,-30.4639,60.9358,25,0.8844,8012,4.0095,43.9422
rg,1625413959437984728,1,0.0842,0.2124,0.9072,369,168.2739,-15.2588,92.041,84,1.1316,0,-33.4388,64.9417,25,0.8854,8099,4.0095,46.2978
rg,1625413959438001377,1,0.0488,0.2422,0.8901,370,175.7202,-15.1367,93.689,84,1.1306,0,-36.3072,69.3092,25,0.8844,8134,4.0095,48.5187
rg,1625413959438048136,1,0.0081,0.363,0.8577,371,177.2461,-22.583,95.6421,84,1.1306,0,-39.3279,73.9855,25,0.8834,8149,4.0095,50.233
rg,1625413959438069303,1,0.0071,0.4429,0.8394,372,177.002,-40.4053,92.4683,84,1.1326,0,-42.337,79.4543,25,0.8844,8114,4.0095,50.7049
rg,1625413959438087765,1,0.0356,0.4819,0.8452,373,177.063,-48.8892,91.0645,84,1.1326,0,-45.181,85.8661,25,0.8854,8145,4.0095,49.831
rg,1625413959438103914,1,0.1008,0.562,0.8582,374,172.7295,-63.9648,83.0078,84,1.1306,0,-47.7586,92.7472,25,0.8834,8180,4.0095,48.0888
rg,1625413959438120340,1,0.1699,0.5859,0.917,375,155.3345,-68.0542,78.5522,84,1.1326,0,-50.054,99.4341,25,0.8814,8189,4.0095,45.7026
rg,1625413959438137914,1,0.1772,0.595,0.9543,376,142.0898,-65.4297,72.3877,84,1.1326,0,-51.9363,105.7242,24,0.8844,10996,4.0095,43.2
rg,1625413959438154858,1,0.1599,0.6536,0.9458,377,132.9346,-62.8052,68.7866,84,1.1326,0,-53.4151,111.7888,24,0.8844,8337,4.0095,40.6108
rg,1625413959438172117,1,0.2222,0.657,1.0007,378,132.4463,-62.6831,68.6035,84,1.1326,0,-54.7508,117.9506,24,0.8844,8294,4.0095,37.6466
rg,1625413959438189895,1,0.2505,0.6526,1.041,379,119.1406,-61.4624,66.9556,84,1.1326,0,-55.9876,123.8876,24,0.8844,8408,4.0095,34.6849
rg,1625413959438207006,1,0.2302,0.6445,1.0686,380,114.1357,-52.8564,66.5894,84,1.1326,0,-57.2513,129.4331,25,0.8844,8402,4.0095,32.0388
rg,1625413959438223543,1,0.2087,0.6682,1.0874,381,110.6567,-48.3398,66.4062,84,1.1306,0,-58.4486,134.8664,25,0.8824,8912,4.0095,29.4575
rg,1625413959438240265,1,0.228,0.6375,1.1213,382,108.3984,-47.1191,67.5659,84,1.1346,0,-59.6536,140.5531,25,0.8814,8725,4.0095,26.6007
rg,1625413959438256895,1,0.2136,0.6667,1.0735,383,109.8633,-44.6777,66.2842,84,1.1336,0,-60.6842,146.3719,24,0.8824,8587,4.0095,23.7651
rg,1625413959438273691,1,0.1833,0.6846,1.0459,384,109.2529,-44.7998,64.209,84,1.1336,0,-61.4202,152.2062,24,0.8824,8527,4.0095,20.9715
rg,1625413959796865969,1,0.2849,0.7944,0.9512,385,99.7314,-57.9224,53.772,84,1.1336,0,-61.5995,157.2732,24,0.8824,25905,4.0095,18.5571
rg,1625413959796929228,1,0.2808,0.7278,1.0642,386,96.3745,-35.8276,54.0771,84,1.1336,0,-62.3592,162.0506,24,0.8824,10104,4.0095,16.5517
rg,1625413959796950691,1,0.2954,0.7722,1.0295,387,99.3042,-29.7241,53.4668,84,1.1346,0,-63.4337,166.4931,24,0.8824,7865,4.0095,15.0219
rg,1625413959796970136,1,0.3191,0.8279,0.968,388,94.0552,-15.564,54.3213,84,1.1346,0,-64.6973,170.9619,24,0.8824,7921,4.0095,13.392
rg,1625413959797014247,1,0.304,0.8279,0.9668,389,85.7544,2.5635,50.1709,84,1.1346,0,-66.5869,174.8304,24,0.8814,9515,4.0095,12.1599
rg,1625413959797037025,1,0.2288,0.8794,0.9211,390,78.7964,15.3809,42.4805,84,1.1346,0,-68.8139,177.6872,24,0.8814,9106,4.0095,11.7865
rg,1625413959797056376,1,0.1921,0.8494,1.1355,391,66.4062,30.8838,37.5366,84,1.1346,0,-71.7636,-179.5985,24,0.8814,8400,4.0095,11.215
rg,1625413959797074802,1,0.2734,0.7471,1.4409,392,62.1948,40.1611,37.4146,84,1.1326,0,-75.2045,-174.9676,24,0.8794,8153,4.0095,8.7313
rg,1625413959797092247,1,0.6233,0.5461,2.1265,393,83.6792,79.3457,43.0908,84,1.1336,0,-79.8454,-160.0854,24,0.8804,7944,4.0095,-2.7602
rg,1625413959797163506,1,0.6194,0.6909,1.7832,394,141.5405,173.7671,46.5698,84,1.1346,0,-83.6071,-76.2718,24,0.8824,7967,4.0095,-79.4637
rg,1625413959797185043,1,0.3691,1.0063,1.6128,395,152.5269,221.0083,47.9736,84,1.1326,0,-76.4203,-19.9419,24,0.8804,7982,4.0095,-131.9084
rg,1625413959797212191,1,-0.0078,1.1104,1.4136,396,134.3994,233.8257,30.2124,84,1.1336,0,-66.0079,-6.1646,24,0.8784,8084,4.0095,-140.4983
rg,1625413959797274673,1,-0.6311,1.2705,1.2292,397,111.8774,246.7041,21.3623,84,1.1336,0,-54.6976,0.8337,24,0.8784,8100,4.0095,-142.6684
rg,1625413959797297395,1,-1.2771,1.3503,1.1438,398,61.6455,208.4961,25.4517,84,1.1346,0,-44.7092,3.7785,24,0.8764,14170,4.0095,-142.2705
rg,1625413959797316321,1,-1.3171,1.2175,1.2673,399,2.3193,104.9194,41.8701,84,1.1356,0,-38.7058,3.7025,24,0.8754,8378,4.0095,-140.7761
rg,1625413959797336487,1,-1.0686,0.8772,1.3938,400,-41.5649,16.2964,27.5879,84,1.1356,0,-36.1177,2.3374,24,0.8764,8322,4.0095,-140.0951
rg,1625413959797354395,1,-0.7952,0.7861,1.0933,401,-46.2036,-1.4038,32.8979,84,1.1346,0,-35.0728,0.7067,24,0.8774,8207,4.0095,-139.0629
rg,1625413959797393136,1,-0.5569,0.7239,1.01,402,-51.8188,-39.6118,40.3442,84,1.1336,0,-34.9204,-1.0254,24,0.8784,8151,4.0095,-137.957
rg,1625413959797415358,1,-0.1763,0.5933,0.929,403,-54.6265,-47.6074,32.6538,84,1.1326,0,-35.4165,-2.633,24,0.8784,9240,4.0095,-137.1844
rg,1625413959797434839,1,-0.1345,0.5256,0.8323,404,-53.1616,-32.1045,10.6201,84,1.1356,0,-35.3548,-3.5158,24,0.8814,8172,4.0095,-137.5147
rg,1625413959797452154,1,-0.1021,0.5073,0.7278,405,-50.5981,-29.9683,1.3428,84,1.1346,0,-35.3183,-3.6092,24,0.8804,8308,4.0095,-138.7194
rg,1625413959797469395,1,-0.0559,0.5073,0.6924,406,-46.2036,-29.8462,-11.2915,84,1.1346,0,-35.4015,-3.4026,24,0.8804,8173,4.0095,-140.2201
rg,1625413959797492913,1,0.0251,0.4773,0.6489,407,-42.9077,-22.9492,-19.165,84,1.1396,0,-35.3949,-2.8275,24,0.8804,8235,4.0095,-142.1341
rg,1625413959797512469,1,0.0691,0.446,0.6128,408,-39.1846,-6.4697,-27.1606,84,1.1366,0,-34.8348,-1.9022,24,0.8824,8269,4.0095,-144.4565
rg,1625413959797530284,1,0.0715,0.4302,0.6138,409,-35.4614,1.9531,-31.7993,84,1.1376,0,-33.9218,-0.8345,24,0.8824,8278,4.0095,-146.9231
rg,1625413959797547228,1,0.0676,0.4104,0.6208,410,-25.5737,14.8315,-39.4287,84,1.1346,0,-32.4474,0.6935,24,0.8814,8264,4.0095,-149.6546
rg,1625413959797564876,1,0.0522,0.396,0.6311,411,-13.0005,23.2544,-49.3774,84,1.1376,0,-30.544,2.742,24,0.8824,8315,4.0095,-152.6696
rg,1625413959797582006,1,0.0137,0.3779,0.6685,412,2.8687,24.231,-59.3262,84,1.1366,0,-28.4042,5.3146,24,0.8834,8348,4.0095,-155.8871
rg,1625413959797599099,1,0.0093,0.385,0.6909,413,12.085,21.0571,-64.3921,84,1.1356,0,-26.2926,8.0856,24,0.8824,8302,4.0095,-159.125
rg,1625413959797617099,1,0.0273,0.4329,0.7283,414,30.6396,11.8408,-73.8525,84,1.1376,0,-24.4457,11.5994,24,0.8834,8330,4.0095,-162.6582
rg,1625413959797634117,1,0.0271,0.5046,0.7361,415,48.9502,0.3662,-86.3647,84,1.1376,0,-22.7885,15.9599,24,0.8854,8379,4.0095,-166.6818
rg,1625413959797650932,1,0.0303,0.5688,0.7444,416,55.7251,-5.9814,-90.0879,84,1.1376,0,-21.4381,20.858,24,0.8854,8339,4.0095,-171.079
rg,1625413960156607858,1,0.1841,0.792,0.8687,417,59.7534,-37.7808,-104.0039,84,1.1376,0,-20.7196,25.8103,24,0.8904,25688,4.0095,-176.1142
rg,1625413960156647302,1,0.1392,0.8079,0.979,418,47.7905,-37.9028,-102.5391,84,1.1376,0,-19.5855,29.8626,24,0.8914,14342,4.0095,-180.91
rg,1625413960156668265,1,0.116,0.8135,1.002,419,46.875,-40.2222,-100.3418,84,1.1376,0,-18.5449,33.5032,24,0.8914,7752,4.0095,-185.4863
rg,1625413960156687432,1,0.1309,0.835,0.991,420,44.8608,-51.7578,-91.6748,84,1.1376,0,-17.8988,36.9201,24,0.8924,9635,4.0095,170.1348
rg,1625413960156705821,1,0.166,0.8635,0.9382,421,41.0156,-59.082,-79.1016,84,1.1376,0,-17.3572,40.033,24,0.8924,7818,4.0095,165.9352
rg,1625413960156723654,1,0.1755,0.9297,0.8267,422,35.2783,-60.9741,-66.2231,84,1.1376,0,-17.0558,42.8838,24,0.8934,7883,4.0095,162.0763
rg,1625413960156741043,1,0.1738,0.9805,0.752,423,29.2969,-61.4624,-54.5044,84,1.1376,0,-16.938,45.4355,24,0.8934,7860,4.0095,158.5438
rg,1625413960156758821,1,0.1689,0.9902,0.6904,424,7.5073,-61.7676,-38.0859,84,1.1376,0,-17.1887,46.9901,24,0.8934,7890,4.0095,155.4648
rg,1625413960156776524,1,0.1631,0.9067,0.6826,425,-13.5498,-68.7866,-23.6206,84,1.1376,0,-17.9946,47.5307,24,0.8944,9170,4.0095,152.5991
rg,1625413960156793635,1,0.189,0.8687,0.6848,426,-20.0806,-72.6929,-19.8364,84,1.1396,0,-19.389,47.5188,24,0.8944,7906,4.0095,149.782
rg,1625413960156810598,1,0.259,0.8064,0.6812,427,-30.6396,-78.186,-11.1084,84,1.1366,0,-20.9383,47.3359,24,0.8934,8029,4.0095,146.9745
rg,1625413960156826969,1,0.3186,0.7419,0.6812,428,-39.0015,-74.3408,-5.8594,84,1.1386,0,-22.6414,46.7073,24,0.8964,8001,4.0095,144.4553
rg,1625413960156843950,1,0.3408,0.7051,0.6887,429,-40.9546,-70.4346,-5.9814,84,1.1386,0,-24.2118,45.8003,24,0.8964,7998,4.0095,142.3497
rg,1625413960156862172,1,0.3616,0.6553,0.7068,430,-39.2456,-58.0444,-4.5776,84,1.1366,0,-25.5527,44.9288,24,0.8944,8026,4.0095,140.435
rg,1625413960156879913,1,0.3604,0.6079,0.686,431,-33.3862,-41.9922,-4.5776,84,1.1386,0,-26.4479,44.0857,24,0.8964,8066,4.0095,139.0394
rg,1625413960156912376,1,0.3552,0.5938,0.6929,432,-30.3955,-33.0811,-5.249,84,1.1386,0,-26.7648,43.2874,24,0.8964,8096,4.0095,138.1364
rg,1625413960156932247,1,0.3413,0.5596,0.6914,433,-21.6064,-16.2964,-6.897,84,1.1366,0,-26.8194,42.5628,24,0.8954,8322,4.0095,137.4956
rg,1625413960156949876,1,0.3213,0.5442,0.6865,434,-12.2681,0.7935,-8.3008,84,1.1386,0,-26.305,42.0017,24,0.8964,8073,4.0095,137.3274
rg,1625413960156970006,1,0.2808,0.533,0.6975,435,-7.6904,9.8267,-10.5591,84,1.1386,0,-25.1434,41.6267,24,0.8974,8067,4.0095,137.5433
rg,1625413960156987987,1,0.198,0.5273,0.7166,436,7.2021,27.4048,-14.0381,84,1.1386,0,-23.4598,41.5402,24,0.8974,10237,4.0095,137.9835
rg,1625413960157006469,1,0.1711,0.5344,0.7212,437,12.085,29.1748,-15.1978,84,1.1376,0,-21.6795,41.8746,24,0.8974,8194,4.0095,138.4315
rg,1625413960157024876,1,0.1614,0.5632,0.7366,438,21.9727,29.9683,-14.8926,84,1.1376,0,-19.9307,42.4148,24,0.8964,8188,4.0095,138.898
rg,1625413960157091284,1,0.1487,0.604,0.7454,439,26.6724,31.0059,-13.4888,84,1.1396,0,-18.2202,43.172,24,0.8984,8221,4.0095,139.4282
rg,1625413960157117802,1,0.1245,0.6501,0.7529,440,28.7476,31.7383,-12.9395,84,1.1396,0,-16.5495,44.0966,24,0.8984,8228,4.0095,140.0581
rg,1625413960157135450,1,0.1135,0.6628,0.7725,441,30.6396,29.9072,-9.7656,84,1.1376,0,-15.0252,45.0066,24,0.8964,8237,4.0095,140.6903
rg,1625413960157155043,1,0.1331,0.6794,0.8013,442,29.1748,25.6348,-7.8125,84,1.1406,0,-13.7783,45.8365,24,0.8974,8254,4.0095,141.2749
rg,1625413960157174728,1,0.1526,0.7117,0.811,443,28.7476,20.5688,-4.2725,84,1.1406,0,-12.862,46.6747,24,0.8994,8560,4.0095,141.8143
rg,1625413960157191543,1,0.1614,0.7224,0.8142,444,26.8555,20.0806,-3.1128,84,1.1396,0,-12.0607,47.4131,24,0.8984,8318,4.0095,142.3816
rg,1625413960157209617,1,0.1726,0.7273,0.8381,445,22.7661,16.6626,-0.3052,84,1.1386,0,-11.479,47.9506,24,0.8974,8374,4.0095,142.935
rg,1625413960157227895,1,0.1833,0.7366,0.823,446,19.8975,14.4653,-0.1831,84,1.1406,0,-11.0091,48.4042,25,0.8974,8318,4.0095,143.4221
rg,1625413960157244672,1,0.176,0.7502,0.793,447,15.7471,15.2588,0.7324,84,1.1396,0,-10.5558,48.7312,25,0.8984,8396,4.0095,143.9493
rg,1625413960157262524,1,0.1663,0.7566,0.7778,448,12.6953,14.6484,0.6104,84,1.1386,0,-10.1171,48.9623,25,0.8974,8378,4.0095,144.4505
rg,1625413960517354765,1,0.1252,0.7183,0.7502,449,-5.7373,12.6343,-0.3662,84,1.1406,0,-9.6456,48.4491,24,0.8984,25187,4.0095,144.865
rg,1625413960517395117,1,0.1416,0.6799,0.7588,450,-9.3384,8.2397,-0.7935,84,1.1416,0,-9.3827,47.7503,24,0.8984,12680,4.0095,145.0393
rg,1625413960517415635,1,0.1509,0.6675,0.7759,451,-10.0098,4.9438,-2.6855,84,1.1406,0,-9.1317,47.0481,24,0.8984,7997,4.0095,145.1611
rg,1625413960517434894,1,0.1631,0.6411,0.7712,452,-9.1553,4.5776,-5.6152,84,1.1416,0,-8.8485,46.3858,24,0.8994,7900,4.0095,145.189
rg,1625413960517453598,1,0.1631,0.634,0.7686,453,-5.9204,4.0283,-9.5825,84,1.1416,0,-8.4795,45.8902,24,0.8984,8045,4.0095,145.0827
rg,1625413960517523561,1,0.1663,0.6272,0.7556,454,-4.5166,3.1738,-9.9487,84,1.1416,0,-8.1576,45.5963,24,0.8984,7912,4.0095,144.884
rg,1625413960517545413,1,0.1738,0.6309,0.7498,455,0.3662,1.709,-12.146,84,1.1416,-0.001,-7.8386,45.4239,24,0.8984,8695,4.0095,144.6233
rg,1625413960517565672,1,0.1882,0.6323,0.7515,456,3.9062,1.8311,-12.9395,84,1.1416,0,-7.538,45.4013,24,0.8984,8446,4.0095,144.3409
rg,1625413960517583450,1,0.2014,0.6423,0.7444,457,7.6904,3.2349,-13.9771,84,1.1416,0,-7.2086,45.5558,24,0.8994,8107,4.0095,144.0653
rg,1625413960517600413,1,0.2112,0.6499,0.7378,458,9.0942,3.1128,-13.3057,84,1.1416,0,-6.954,45.7768,24,0.8994,8028,4.0095,143.8039
rg,1625413960517616857,1,0.2224,0.6587,0.7434,459,12.4512,5.3101,-14.4043,84,1.1396,0,-6.6168,46.1274,24,0.8984,8055,4.0095,143.5769
rg,1625413960517634172,1,0.2288,0.6697,0.74,460,14.1602,7.8125,-14.8926,84,1.1416,0,-6.2198,46.5476,24,0.8994,8033,4.0095,143.4111
rg,1625413960517651117,1,0.2354,0.676,0.7444,461,14.5264,9.8267,-16.2964,84,1.1416,0,-5.7462,46.9769,24,0.8994,8085,4.0095,143.2698
rg,1625413960517667746,1,0.2307,0.6895,0.7488,462,16.2354,12.146,-15.0757,84,1.1386,-0.001,-5.2533,47.4503,24,0.8984,8089,4.0095,143.2361
rg,1625413960517687894,1,0.228,0.6931,0.7441,463,17.4561,15.0757,-13.7939,84,1.1416,0,-4.7337,47.9552,24,0.8994,7964,4.0095,143.3297
rg,1625413960517716969,1,0.2161,0.6985,0.7468,464,17.7002,16.9678,-14.8315,84,1.1426,0,-4.1084,48.4614,24,0.9004,8127,4.0095,143.4584
rg,1625413960517737506,1,0.1985,0.7043,0.7515,465,18.9819,18.9819,-15.564,84,1.1416,0,-3.4121,48.9898,24,0.8994,8200,4.0095,143.6364
rg,1625413960517758043,1,0.1819,0.7109,0.7363,466,19.104,18.6157,-13.0005,84,1.1416,0,-2.8141,49.5557,24,0.9004,12792,4.0095,143.8694
rg,1625413960517774857,1,0.1653,0.7151,0.7415,467,19.043,18.4937,-12.5732,84,1.1416,0,-2.2053,50.0747,24,0.9004,8246,4.0095,144.1234
rg,1625413960517792450,1,0.1572,0.7305,0.7358,468,18.9819,17.334,-11.2305,84,1.1426,0,-1.6741,50.6051,24,0.9004,8218,4.0095,144.3806
rg,1625413960517831098,1,0.1538,0.729,0.7375,469,17.7612,15.9302,-9.5825,84,1.1426,0,-1.2449,51.0631,24,0.9004,8375,4.0095,144.6413
rg,1625413960517851672,1,0.1567,0.7307,0.7417,470,17.4561,15.0146,-8.3618,84,1.1426,0,-0.8957,51.5071,24,0.9004,8287,4.0095,144.9075
rg,1625413960517869024,1,0.1616,0.7446,0.7393,471,16.6626,13.0615,-7.0801,84,1.1426,0,-0.6628,51.9104,24,0.9004,9008,4.0095,145.1474
rg,1625413960517888006,1,0.1672,0.7405,0.7395,472,14.2212,11.3525,-7.5684,84,1.1426,0,-0.4796,52.1957,24,0.9004,8759,4.0095,145.324
rg,1625413960517906154,1,0.1755,0.741,0.7288,473,11.5967,12.3291,-7.9956,84,1.1406,0,-0.2868,52.383,24,0.8994,10423,4.0095,145.5227
rg,1625413960517923413,1,0.1602,0.7297,0.7402,474,8.7891,12.2681,-9.0332,84,1.1426,0,-0.0382,52.4166,24,0.9004,8321,4.0095,145.695
rg,1625413960517941302,1,0.1531,0.7251,0.7485,475,6.4697,11.9019,-8.728,84,1.1446,0,0.198,52.3372,24,0.9004,8383,4.0095,145.8618
rg,1625413960517959561,1,0.1533,0.7236,0.7468,476,6.2256,10.5591,-8.7891,84,1.1436,0,0.3939,52.2508,24,0.9014,8370,4.0095,145.9824
rg,1625413960517977450,1,0.1443,0.7266,0.7505,477,4.2725,9.8267,-10.2539,84,1.1416,0,0.6307,52.0894,24,0.9004,8406,4.0095,146.0419
rg,1625413960517996320,1,0.1416,0.7214,0.7424,478,3.0518,8.4229,-10.7422,79,1.1426,0,0.8424,51.8893,24,0.8994,8492,4.0084,146.0421
rg,1625413960518012969,1,0.137,0.7253,0.7341,479,0.6104,6.0425,-11.2915,79,1.1426,0,1.0136,51.6164,24,0.9014,8439,4.0084,145.9509
rg,1625413960518032394,1,0.1362,0.7275,0.7341,480,0.061,5.9814,-11.2915,79,1.1456,0,1.1781,51.3353,24,0.9004,8482,4.0084,145.8548
rg,1625413960867221154,1,0.1719,0.7139,0.7256,481,-1.6479,-0.061,-11.5356,79,1.1426,-0.001,1.1116,50.9865,24,0.9014,25514,4.0084,145.5611
rg,1625413960867315246,1,0.1938,0.708,0.7251,482,-1.2817,-0.4272,-11.1084,79,1.1426,0,1.0528,50.6491,24,0.9004,13257,4.0084,145.2682
rg,1625413960867349450,1,0.2021,0.7009,0.7224,483,-1.2207,1.77,-12.3291,79,1.1426,0,0.9783,50.3584,24,0.9004,7965,4.0084,145.0206
rg,1625413960867380172,1,0.2087,0.7026,0.7253,484,-0.6714,3.3569,-12.9395,79,1.1426,0,0.9635,50.0732,24,0.9004,7789,4.0084,144.792
rg,1625413960867408950,1,0.2063,0.6992,0.7197,485,0.4272,3.7231,-12.2681,79,1.1426,0,0.9395,49.8465,24,0.9004,7776,4.0084,144.5897
rg,1625413960867437765,1,0.2021,0.7,0.7224,486,0.7935,5.249,-13.1226,79,1.1426,0,0.9908,49.6405,24,0.9004,7752,4.0084,144.4104
rg,1625413960867464987,1,0.2021,0.6929,0.7334,487,1.1597,6.2256,-11.9019,79,1.1426,0,1.0288,49.4299,24,0.9004,7885,4.0084,144.2899
rg,1625413960867492765,1,0.2056,0.6885,0.7258,488,2.1973,7.019,-11.8408,79,1.1426,0,1.0729,49.274,24,0.9004,10960,4.0084,144.1934
rg,1625413960867519857,1,0.2078,0.6951,0.7266,489,3.418,8.2397,-12.7563,79,1.1426,0,1.1718,49.1825,24,0.9004,7993,4.0084,144.1087
rg,1625413960867545172,1,0.2126,0.6914,0.7273,490,4.4556,8.3618,-12.3291,79,1.1426,0,1.246,49.1293,24,0.9004,9602,4.0084,144.0376
rg,1625413960867571746,1,0.2134,0.7048,0.7278,491,4.5166,9.3994,-11.9629,79,1.1426,0,1.3479,49.0774,24,0.9014,8027,4.0084,144.0129
rg,1625413960867597265,1,0.2136,0.6985,0.7327,492,4.5776,9.8267,-10.498,79,1.1426,0,1.3998,49.0383,24,0.9004,8068,4.0084,144.0324
rg,1625413960867623913,1,0.2109,0.6951,0.7332,493,5.7373,11.2305,-11.6577,79,1.1426,0,1.526,49.041,24,0.9004,8765,4.0084,144.0634
rg,1625413960867650802,1,0.2087,0.6931,0.7312,494,5.6763,12.5732,-11.6577,79,1.1436,0,1.6858,49.0422,24,0.9004,8554,4.0084,144.1345
rg,1625413960867676524,1,0.2085,0.6943,0.7371,495,4.8828,12.9395,-11.7798,79,1.1416,0,1.8568,49.0005,24,0.9014,8217,4.0084,144.2125
rg,1625413960867704061,1,0.2039,0.6931,0.7393,496,5.5542,13.916,-11.2915,79,1.1396,0,2.0406,48.988,24,0.8994,8129,4.0084,144.3317
rg,1625413960867754654,1,0.199,0.6912,0.7349,497,6.3477,14.4043,-11.2305,79,1.1426,0,2.2366,49.0121,24,0.9004,8125,4.0084,144.4666
rg,1625413960867785228,1,0.1956,0.6909,0.7344,498,6.6528,15.0757,-12.3901,79,1.1426,0,2.4981,49.037,24,0.9014,8172,4.0084,144.6132
rg,1625413960867810672,1,0.1885,0.6897,0.7476,499,7.2021,15.7471,-12.3291,79,1.1406,0,2.7699,49.073,24,0.8994,8187,4.0084,144.7577
rg,1625413960867836431,1,0.1809,0.6953,0.7446,500,8.4229,14.8926,-10.9253,79,1.1416,0,2.9829,49.1706,24,0.9044,8221,4.0084,144.913
rg,1625413960867999728,1,0.1702,0.6995,0.7417,501,8.606,14.6484,-11.3525,79,1.1436,0,3.2034,49.25,24,0.9014,8217,4.0084,145.0459
rg,1625413960868031561,1,0.1682,0.71,0.7429,502,8.4839,14.0381,-12.3291,79,1.1416,0,3.4492,49.3659,24,0.8994,8246,4.0084,145.1401
rg,1625413960868060005,1,0.1711,0.7175,0.7354,503,8.3618,13.1226,-12.0239,79,1.1436,0,3.646,49.4951,24,0.9004,8252,4.0084,145.216
rg,1625413960868087746,1,0.1672,0.7297,0.7253,504,7.2021,11.2915,-11.2915,79,1.1436,0,3.7741,49.6049,24,0.9014,8304,4.0084,145.2577
rg,1625413960868114968,1,0.1633,0.7278,0.7351,505,6.4697,10.498,-11.5356,79,1.1426,0,3.8942,49.6612,24,0.9014,8341,4.0084,145.268
rg,1625413960868140913,1,0.1682,0.7288,0.7371,506,4.8218,9.2773,-12.146,79,1.1426,0,3.9873,49.6445,24,0.9004,8380,4.0084,145.225
rg,1625413960868167283,1,0.1772,0.7278,0.7332,507,3.3569,8.1177,-12.146,79,1.1436,0,4.027,49.5723,24,0.9014,8360,4.0084,145.1464
rg,1625413960868193116,1,0.1792,0.7251,0.7324,508,3.2349,7.8125,-11.5967,79,1.1436,0,4.0223,49.4598,24,0.9014,8439,4.0084,145.0865
rg,1625413960868232931,1,0.1865,0.7241,0.7346,509,2.0142,7.8125,-11.2305,79,1.1426,0,4.0049,49.3346,24,0.9014,8437,4.0084,145.0204
rg,1625413960868259561,1,0.1821,0.7144,0.7268,510,1.5259,7.8735,-11.2915,79,1.1436,0,3.9962,49.1914,24,0.9014,9176,4.0084,144.9536
rg,1625413960868286005,1,0.1826,0.7075,0.7292,511,1.6479,7.2021,-12.3291,79,1.1416,0,3.9994,49.0409,24,0.9004,8481,4.0084,144.8373
rg,1625413960868364765,1,0.1814,0.7,0.7307,512,0.8545,6.5308,-12.207,79,1.1436,0,3.9821,48.8491,24,0.9004,9086,4.0084,144.7018
rg,1625413961225325024,1,0.2002,0.688,0.7141,513,2.0752,6.3477,-12.3291,79,1.1436,0,3.9106,48.7282,24,0.9014,25634,4.0084,144.5652
rg,1625413961225388764,1,0.1948,0.6875,0.7224,514,3.6011,6.897,-12.3291,79,1.1436,0,3.8731,48.6722,24,0.9014,14913,4.0084,144.4265
rg,1625413961225409357,1,0.1958,0.6924,0.7212,515,3.9062,7.2021,-13.0615,79,1.1436,0,3.8682,48.6197,24,0.9014,7865,4.0084,144.2869
rg,1625413961225428024,1,0.1973,0.696,0.7224,516,4.4556,7.5684,-13.5498,79,1.1436,0,3.8858,48.595,24,0.9024,8061,4.0084,144.1454
rg,1625413961225446487,1,0.1992,0.6963,0.7209,517,5.9204,7.8125,-12.9395,79,1.1436,0,3.908,48.635,24,0.9014,7872,4.0084,144.0235
rg,1625413961225464394,1,0.2051,0.6992,0.7258,518,6.1035,8.4229,-13.6719,79,1.1436,0,3.9345,48.6753,24,0.9014,7928,4.0084,143.9044
rg,1625413961225482376,1,0.208,0.7017,0.7246,519,7.5684,8.4839,-12.8174,79,1.1416,0,3.9317,48.7816,24,0.9004,8105,4.0084,143.8104
rg,1625413961225500783,1,0.2043,0.7061,0.7209,520,7.9956,9.8877,-14.4043,79,1.1436,0,4.0213,48.9133,24,0.9024,7917,4.0084,143.7189
rg,1625413961225518672,1,0.1985,0.7114,0.7231,521,8.8501,11.1694,-14.8315,79,1.1436,0,4.166,49.0796,24,0.9024,7891,4.0084,143.6564
rg,1625413961225536283,1,0.1936,0.7136,0.7278,522,8.4229,11.4746,-13.7329,79,1.1406,0,4.2944,49.2223,24,0.9004,7971,4.0084,143.6327
rg,1625413961225554190,1,0.1987,0.7141,0.7205,523,9.0332,10.9863,-13.3057,79,1.1426,0,4.3798,49.3959,24,0.9014,7949,4.0084,143.6073
rg,1625413961225571727,1,0.1868,0.7205,0.7234,524,9.7046,11.0474,-13.6719,79,1.1426,0,4.502,49.5939,24,0.9024,8000,4.0084,143.5759
rg,1625413961225588783,1,0.1846,0.7219,0.7178,525,9.2163,11.5967,-14.2822,79,1.1436,0,4.6558,49.7758,25,0.9004,8030,4.0084,143.5478
rg,1625413961225605931,1,0.1848,0.7173,0.7214,526,9.0942,11.5967,-13.7329,79,1.1436,0,4.7864,49.9341,25,0.9024,8076,4.0084,143.534
rg,1625413961225656413,1,0.188,0.7195,0.7229,527,8.8501,11.9629,-13.7939,79,1.1426,0,4.9045,50.0761,25,0.9014,8607,4.0084,143.5128
rg,1625413961225680394,1,0.1819,0.7224,0.7224,528,9.1553,11.2305,-13.6719,79,1.1426,0,5.0153,50.2317,25,0.9024,8046,4.0084,143.4919
rg,1625413961225697561,1,0.1838,0.72,0.7261,529,8.606,11.1694,-13.7329,79,1.1406,0,5.1252,50.3488,25,0.9014,8077,4.0084,143.4675
rg,1625413961225716876,1,0.1887,0.7153,0.7178,530,8.9111,10.6812,-13.6108,79,1.1436,0,5.2013,50.4784,25,0.9034,8094,4.0084,143.4323
rg,1625413961225735098,1,0.1897,0.7271,0.7192,531,7.9956,11.4746,-14.2212,79,1.1436,0,5.3242,50.5793,25,0.9034,8165,4.0084,143.408
rg,1625413961225753357,1,0.1824,0.7219,0.7251,532,8.4229,11.2915,-13.9771,79,1.1416,0,5.4363,50.68,25,0.9014,8231,4.0084,143.3835
rg,1625413961225771024,1,0.1812,0.7234,0.7214,533,6.897,10.437,-13.7939,79,1.1436,-0.001,5.5189,50.7217,24,0.9034,8223,4.0084,143.3381
rg,1625413961225789042,1,0.1904,0.7173,0.7209,534,6.958,9.7656,-12.8784,79,1.1436,0,5.5323,50.7562,24,0.9024,12155,4.0084,143.2943
rg,1625413961225807450,1,0.1904,0.7222,0.7114,535,7.1411,10.7422,-14.0381,79,1.1436,0,5.6043,50.8192,24,0.9024,8313,4.0084,143.2539
rg,1625413961225827764,1,0.1914,0.7183,0.7151,536,6.1646,10.7422,-13.6108,79,1.1436,0,5.6583,50.8301,24,0.9024,8280,4.0084,143.2234
rg,1625413961225846838,1,0.1936,0.7231,0.7178,537,5.6763,10.0098,-13.6719,79,1.1436,0,5.7311,50.8231,24,0.9034,9029,4.0084,143.1549
rg,1625413961225865413,1,0.1936,0.7197,0.719,538,5.3711,10.2539,-13.6108,79,1.1436,0,5.7649,50.7969,24,0.9024,8329,4.0084,143.1083
rg,1625413961225882876,1,0.1936,0.7175,0.7144,539,5.4321,10.1929,-13.9771,79,1.1436,0,5.8054,50.7767,24,0.9024,8873,4.0084,143.0506
rg,1625413961225904135,1,0.1963,0.7146,0.7148,540,5.249,9.1553,-13.4277,79,1.1426,0,5.795,50.743,24,0.9034,8844,4.0084,142.9736
rg,1625413961225922764,1,0.197,0.7156,0.7166,541,4.6997,9.6436,-14.7705,79,1.1436,0,5.8669,50.6787,24,0.9034,8414,4.0084,142.8821
rg,1625413961225973690,1,0.1956,0.7151,0.7161,542,5.249,10.0098,-15.4419,79,1.1416,0,5.9399,50.6448,24,0.9014,8446,4.0084,142.7795
rg,1625413961226000005,1,0.1926,0.7151,0.7124,543,5.4932,9.2773,-13.855,79,1.1436,0,5.9475,50.6293,24,0.9014,8462,4.0084,142.6943
rg,1625413961226018246,1,0.197,0.7151,0.7126,544,6.4087,9.7656,-13.916,79,1.1436,0,5.96,50.6522,24,0.9024,8491,4.0084,142.6227
rg,1625413961580608857,1,0.1968,0.7197,0.7036,545,5.8594,10.6812,-13.855,79,1.1436,0,6.0049,50.6618,24,0.9034,26398,4.0084,142.5795
rg,1625413961580646875,1,0.1968,0.7166,0.7141,546,6.0425,11.2305,-14.3433,79,1.1436,0,6.0626,50.6858,25,0.9034,15137,4.0084,142.5442
rg,1625413961580666875,1,0.199,0.7236,0.7119,547,7.019,11.2305,-13.6108,79,1.1436,0,6.0962,50.7508,25,0.9034,7772,4.0084,142.5275
rg,1625413961580685857,1,0.199,0.7266,0.7112,548,7.019,11.5356,-13.7329,79,1.1436,0,6.1406,50.8197,25,0.9034,7857,4.0084,142.5183
rg,1625413961580703801,1,0.1951,0.728,0.7122,549,6.6528,11.1084,-13.4277,79,1.1436,-0.001,6.1719,50.8712,25,0.9034,7809,4.0084,142.5039
rg,1625413961580721986,1,0.1931,0.7253,0.7017,550,6.5918,11.6577,-13.7329,79,1.1436,0,6.2256,50.9319,24,0.9034,7688,4.0084,142.5006
rg,1625413961580740338,1,0.1958,0.7319,0.7012,551,6.5308,11.6577,-14.0381,79,1.1436,0,6.2827,50.998,24,0.9044,9382,4.0084,142.4912
rg,1625413961580759931,1,0.1924,0.7356,0.708,552,5.7983,12.2681,-13.7939,79,1.1436,0,6.332,51.0162,24,0.9034,7925,4.0084,142.5043
rg,1625413961580778431,1,0.187,0.7332,0.7122,553,6.0425,11.5356,-12.3901,79,1.1436,0,6.3524,51.0478,24,0.9024,7908,4.0084,142.5311
rg,1625413961580795820,1,0.1851,0.7312,0.7107,554,5.0049,11.1084,-12.2681,79,1.1436,0,6.3606,51.0349,24,0.9044,7951,4.0084,142.5477
rg,1625413961580812301,1,0.1887,0.7319,0.71,555,4.6997,11.2305,-12.7563,79,1.1436,0,6.3679,51.0076,24,0.9034,7939,4.0084,142.5555
rg,1625413961580832190,1,0.1887,0.7317,0.7112,556,5.3711,11.1694,-12.207,79,1.1436,0,6.3679,51.0113,24,0.9044,12057,4.0084,142.5752
rg,1625413961580850598,1,0.1885,0.7336,0.7058,557,4.5776,11.3525,-12.9395,79,1.1436,0,6.3874,50.9852,24,0.9044,7991,4.0084,142.5826
rg,1625413961580867153,1,0.1912,0.7336,0.7131,558,4.6387,11.4136,-13.3057,79,1.1436,0,6.4228,50.9583,24,0.9044,8038,4.0084,142.5819
rg,1625413961580884116,1,0.1934,0.7327,0.7073,559,5.188,11.3525,-13.1226,79,1.1436,0,6.4434,50.9625,24,0.9044,8060,4.0084,142.5846
rg,1625413961580901079,1,0.1929,0.7305,0.7058,560,4.6997,11.2915,-11.4746,79,1.1436,0,6.4269,50.9314,24,0.9044,8073,4.0084,142.6246
rg,1625413961580917672,1,0.186,0.7253,0.709,561,4.6997,12.0239,-12.6343,79,1.1436,0,6.4627,50.9067,24,0.9044,8581,4.0084,142.6588
rg,1625413961580934320,1,0.1899,0.729,0.7058,562,4.3335,12.0239,-13.3667,79,1.1446,0,6.5119,50.8771,24,0.9024,8544,4.0084,142.6754
rg,1625413961580950560,1,0.1838,0.7266,0.7058,563,5.6152,11.9629,-13.1226,79,1.1446,0,6.5621,50.8963,24,0.9034,8112,4.0084,142.6953
rg,1625413961580967005,1,0.186,0.7295,0.7078,564,5.4932,12.5122,-13.0005,79,1.1436,0,6.6171,50.9137,24,0.9044,11113,4.0084,142.7357
rg,1625413961580983116,1,0.1865,0.7251,0.7041,565,6.3477,12.5122,-13.4888,79,1.1436,0,6.643,50.9246,24,0.9044,8178,4.0084,142.7828
rg,1625413961580999542,1,0.1821,0.731,0.7026,566,5.8594,12.6343,-13.7939,79,1.1426,0,6.7297,50.964,24,0.9034,8146,4.0084,142.808
rg,1625413961581015727,1,0.1863,0.7261,0.7029,567,6.2866,11.7798,-12.5732,79,1.1436,0,6.744,51.0118,24,0.9044,8293,4.0084,142.8366
rg,1625413961581032672,1,0.1816,0.7358,0.7019,568,6.7749,12.9395,-13.7329,79,1.1446,0,6.7685,51.0863,24,0.9054,8246,4.0084,142.9091
rg,1625413961581048949,1,0.1855,0.7361,0.7014,569,6.7749,12.7563,-13.3667,79,1.1426,0,6.8339,51.1678,24,0.9044,8321,4.0084,142.9512
rg,1625413961581065172,1,0.1831,0.7322,0.7019,570,6.3477,13.0615,-13.0615,79,1.1436,0,6.8991,51.2244,24,0.9034,8296,4.0084,143.0102
rg,1625413961581081172,1,0.1819,0.7351,0.7034,571,6.6528,13.3667,-12.4512,79,1.1436,0,6.9539,51.2963,24,0.9034,8301,4.0084,143.0946
rg,1625413961581123968,1,0.1772,0.7397,0.7029,572,6.4697,13.0615,-13.1226,79,1.1436,0,7.0284,51.3607,24,0.9044,8299,4.0084,143.1536
rg,1625413961581144005,1,0.1792,0.7373,0.7039,573,6.1646,12.8784,-13.6719,79,1.1426,0,7.1104,51.4049,24,0.9044,8374,4.0084,143.1929
rg,1625413961581161468,1,0.1809,0.7429,0.7019,574,6.2866,12.4512,-12.9395,79,1.1436,0,7.153,51.4646,25,0.9044,8348,4.0084,143.2386
rg,1625413961581178616,1,0.1787,0.74,0.6982,575,6.4087,12.207,-12.5732,79,1.1446,0,7.1635,51.5144,25,0.9044,8390,4.0084,143.2897
rg,1625413961581197042,1,0.1777,0.7478,0.7026,576,6.1035,11.3525,-12.7563,79,1.1426,0,7.179,51.5649,25,0.9044,8421,4.0084,143.3066
rg,1625413961931345968,1,0.1838,0.7422,0.6951,577,4.7607,11.1084,-12.3291,79,1.1446,-0.001,7.1587,51.5644,24,0.9054,25333,4.0084,143.3274
rg,1625413961931389579,1,0.1787,0.7434,0.6897,578,3.8452,11.7188,-12.5122,79,1.1436,0,7.1695,51.5395,24,0.9054,15679,4.0084,143.3642
rg,1625413961931410375,1,0.1755,0.7393,0.6978,579,4.6387,11.2915,-11.9629,79,1.1446,-0.001,7.1988,51.5178,24,0.9044,7971,4.0084,143.3769
rg,1625413961931430245,1,0.1772,0.7388,0.7002,580,4.3335,11.3525,-12.3291,79,1.1436,0,7.1979,51.4893,24,0.9054,7691,4.0084,143.4032
rg,1625413961931449634,1,0.1804,0.7314,0.699,581,4.5166,10.1318,-11.5356,79,1.1436,0,7.1335,51.4578,24,0.9054,8150,4.0084,143.4094
rg,1625413961931468468,1,0.1831,0.7297,0.6968,582,4.0283,10.0708,-12.2681,79,1.1436,0,7.0863,51.4066,24,0.9054,9602,4.0084,143.3957
rg,1625413961931487320,1,0.1831,0.7354,0.6995,583,5.127,9.9487,-11.4746,79,1.1436,0,7.0581,51.3979,24,0.9034,8522,4.0084,143.4015
rg,1625413961931505412,1,0.1853,0.7375,0.6982,584,5.4932,10.6812,-11.5967,79,1.1426,0,7.0056,51.4214,24,0.9044,8462,4.0084,143.4249
rg,1625413961931523097,1,0.1899,0.7407,0.6982,585,5.249,10.498,-11.2915,79,1.1466,0,6.9323,51.4394,24,0.9014,7884,4.0084,143.451
rg,1625413961931540116,1,0.1909,0.7417,0.697,586,5.6763,10.5591,-11.4136,79,1.1446,0,6.9011,51.4749,24,0.9054,7917,4.0084,143.4793
rg,1625413961931556986,1,0.1885,0.7429,0.6963,587,5.9204,11.8408,-10.8643,79,1.1426,0,6.8546,51.5304,25,0.9044,7929,4.0084,143.56
rg,1625413961931609505,1,0.1902,0.7383,0.6938,588,5.5542,12.207,-11.0474,79,1.1466,0,6.8192,51.567,25,0.9054,7984,4.0084,143.6479
rg,1625413961931632820,1,0.189,0.741,0.6943,589,5.4932,12.085,-10.3149,79,1.1436,0,6.712,51.6065,25,0.9054,7970,4.0084,143.7487
rg,1625413961931650412,1,0.1853,0.7407,0.6978,590,5.6763,11.4136,-9.7046,79,1.1426,0,6.6321,51.643,25,0.9044,8001,4.0084,143.8455
rg,1625413961931669079,1,0.1819,0.731,0.7036,591,5.6152,11.7798,-10.0098,79,1.1446,0,6.5799,51.6517,24,0.9054,8002,4.0084,143.944
rg,1625413961931688134,1,0.1887,0.7356,0.7014,592,5.9814,11.2305,-9.7046,79,1.1446,0,6.4372,51.6345,24,0.9054,8081,4.0084,144.0128
rg,1625413961931705560,1,0.1946,0.7283,0.7078,593,6.6528,11.6577,-9.4604,79,1.1426,0,6.3464,51.6755,24,0.9044,8097,4.0084,144.1207
rg,1625413961931724505,1,0.1946,0.7195,0.7014,594,7.0801,11.4136,-9.6436,79,1.1446,0,6.2547,51.7271,24,0.9054,8091,4.0084,144.2165
rg,1625413961931742245,1,0.1953,0.7183,0.708,595,7.1411,11.1694,-8.5449,86,1.1446,-0.001,6.1197,51.7698,24,0.9054,8103,4.0051,144.3392
rg,1625413961931760449,1,0.1978,0.7156,0.708,596,7.4463,11.2305,-7.2021,86,1.1426,0,5.9495,51.8214,24,0.9044,7951,4.0051,144.4895
rg,1625413961931777894,1,0.2026,0.7168,0.7092,597,7.8125,11.2915,-7.3853,86,1.1446,0,5.7834,51.8852,24,0.9064,8135,4.0051,144.6381
rg,1625413961931795005,1,0.2012,0.7124,0.707,598,8.9111,11.3525,-7.5684,86,1.1446,0,5.5982,51.9858,24,0.9054,8183,4.0051,144.8051
rg,1625413961931812597,1,0.2046,0.7173,0.708,599,9.0942,11.4136,-6.8359,86,1.1426,0,5.4263,52.0979,24,0.9044,8152,4.0051,144.9738
rg,1625413961931844171,1,0.1995,0.7158,0.6982,600,11.1084,11.7798,-6.5918,86,1.1476,0,5.269,52.3004,24,0.9034,8224,4.0051,145.1625
rg,1625413961931868616,1,0.2012,0.7156,0.6975,601,10.2539,11.4746,-6.2866,86,1.1446,0,5.0962,52.4612,24,0.9054,8235,4.0051,145.3508
rg,1625413961931887338,1,0.2,0.7236,0.6958,602,11.3525,12.146,-6.2256,86,1.1476,0,4.9478,52.6761,24,0.9034,10035,4.0051,145.5648
rg,1625413961931922468,1,0.2012,0.7229,0.6975,603,11.5967,12.085,-6.4087,86,1.1446,0,4.8064,52.8877,24,0.9064,8940,4.0051,145.7739
rg,1625413961931940949,1,0.208,0.7263,0.7,604,12.146,11.7798,-6.1035,86,1.1446,0,4.6399,53.1141,24,0.9054,8290,4.0051,145.9824
rg,1625413961931958190,1,0.2031,0.7227,0.699,605,13.0615,12.6343,-6.5918,86,1.1416,0,4.5236,53.3648,24,0.9044,8337,4.0051,146.2083
rg,1625413961931975653,1,0.2021,0.7256,0.6921,606,13.3667,13.6719,-6.3477,86,1.1456,0,4.4283,53.6361,24,0.9064,8389,4.0051,146.4768
rg,1625413961931993560,1,0.1956,0.73,0.6934,607,13.3057,14.2212,-6.0425,86,1.1436,0,4.3537,53.9225,25,0.9054,8353,4.0051,146.7728
rg,1625413961932111783,1,0.189,0.7317,0.6953,608,14.2822,13.7329,-5.4321,86,1.1426,0,4.2641,54.2134,25,0.9044,8426,4.0051,147.0693
rg,1625413962288708690,1,0.1899,0.741,0.6802,609,14.9536,13.4277,-6.6528,86,1.1446,0,4.2051,54.5553,24,0.9064,25154,4.0051,147.3324
rg,1625413962288766375,1,0.1919,0.7515,0.676,610,15.1978,11.9629,-5.6152,86,1.1446,0,4.0769,54.914,24,0.9064,15853,4.0051,147.5754
rg,1625413962288786616,1,0.1836,0.7539,0.6826,611,15.0146,12.4512,-5.7373,86,1.1446,0,3.9742,55.2075,24,0.9064,7818,4.0051,147.8279
rg,1625413962288806430,1,0.1909,0.7598,0.6814,612,14.3433,11.2305,-4.8828,86,1.1446,0,3.8173,55.5087,24,0.9064,7831,4.0051,148.0681
rg,1625413962288825819,1,0.1968,0.7673,0.679,613,13.4888,11.9629,-7.0801,86,1.1446,0,3.7433,55.7772,24,0.9064,7833,4.0051,148.2863
rg,1625413962288843542,1,0.1946,0.771,0.6768,614,12.207,11.6577,-5.7373,86,1.1446,0,3.6718,56.0181,24,0.9064,7816,4.0051,148.5202
rg,1625413962288860745,1,0.1858,0.7734,0.6746,615,12.146,9.9487,-5.127,86,1.1426,0,3.5155,56.2266,24,0.9054,8081,4.0051,148.7196
rg,1625413962288879245,1,0.1907,0.7747,0.677,616,11.1084,9.6436,-5.188,86,1.1446,0,3.3507,56.3823,24,0.9034,7908,4.0051,148.9092
rg,1625413962288896986,1,0.1965,0.7786,0.6741,617,10.437,10.0708,-6.897,86,1.1446,0,3.255,56.4891,24,0.9074,7927,4.0051,149.0688
rg,1625413962288946819,1,0.1968,0.7844,0.6709,618,9.6436,10.0098,-6.958,86,1.1426,0,3.1548,56.5979,24,0.9054,7932,4.0051,149.2356
rg,1625413962288968005,1,0.188,0.783,0.6709,619,8.606,9.3994,-6.3477,86,1.1426,0,3.0423,56.658,24,0.9064,10954,4.0051,149.3963
rg,1625413962288988005,1,0.1814,0.78,0.6628,620,8.606,7.6294,-6.8359,86,1.1446,0,2.9227,56.7207,24,0.9054,7919,4.0051,149.4884
rg,1625413962289005523,1,0.1926,0.7781,0.6643,621,6.958,6.5308,-7.2632,86,1.1446,0,2.7743,56.708,24,0.9074,8046,4.0051,149.535
rg,1625413962289023393,1,0.1914,0.7754,0.6616,622,7.019,6.7749,-6.897,86,1.1426,0,2.6258,56.6996,24,0.9064,7951,4.0051,149.5985
rg,1625413962289040875,1,0.1924,0.7754,0.6599,623,6.1035,6.7749,-6.4697,86,1.1436,0,2.4663,56.658,24,0.9064,7967,4.0051,149.6722
rg,1625413962289057597,1,0.189,0.7739,0.6536,624,5.249,6.5918,-7.3853,86,1.1466,0,2.3446,56.5911,24,0.9074,8007,4.0051,149.7207
rg,1625413962289074930,1,0.1948,0.772,0.6536,625,5.7983,5.0049,-7.3242,86,1.1446,0,2.1781,56.5441,24,0.9074,11970,4.0051,149.7176
rg,1625413962289090949,1,0.2009,0.771,0.6504,626,5.3101,5.249,-7.9346,86,1.1446,0,2.0296,56.4836,24,0.9074,8072,4.0051,149.71
rg,1625413962289107616,1,0.1975,0.7676,0.6565,627,4.7607,4.9438,-7.3242,86,1.1446,0,1.8676,56.3883,24,0.9074,8110,4.0051,149.7055
rg,1625413962289124005,1,0.1997,0.7673,0.6504,628,5.0659,4.9438,-8.4229,86,1.1446,0,1.7421,56.3181,24,0.9084,8127,4.0051,149.6774
rg,1625413962289140005,1,0.2092,0.7622,0.6494,629,5.127,5.0049,-8.1787,86,1.1446,0,1.5925,56.2483,24,0.9074,8830,4.0051,149.6569
rg,1625413962289157597,1,0.209,0.7668,0.6475,630,5.5542,4.8218,-7.7515,86,1.1446,0,1.4319,56.2082,24,0.9084,9505,4.0051,149.6402
rg,1625413962289175745,1,0.2117,0.7661,0.6465,631,5.8594,6.1646,-8.667,86,1.1426,0,1.3313,56.1832,24,0.9064,8197,4.0051,149.6485
rg,1625413962289192690,1,0.2141,0.7656,0.6465,632,6.2866,6.5308,-7.8125,86,1.1446,0,1.2091,56.1764,24,0.9064,8169,4.0051,149.6882
rg,1625413962289224430,1,0.2158,0.7661,0.6445,633,5.9814,6.8359,-8.9111,86,1.1446,0,1.1307,56.1614,24,0.9084,8252,4.0051,149.7143
rg,1625413962289242319,1,0.2144,0.7712,0.6445,634,6.4697,6.5308,-8.7891,86,1.1436,0,1.038,56.1868,24,0.9074,8283,4.0051,149.7336
rg,1625413962289274745,1,0.2183,0.7703,0.6528,635,6.958,7.6294,-8.5449,86,1.1426,0,0.9702,56.2028,24,0.9074,8316,4.0051,149.7949
rg,1625413962289292708,1,0.2195,0.7673,0.6465,636,7.2632,8.3008,-9.2163,86,1.1456,0,0.9368,56.2371,24,0.9074,8262,4.0051,149.8642
rg,1625413962289309560,1,0.2178,0.7725,0.6484,637,7.019,8.606,-9.7656,86,1.1436,0,0.8874,56.2692,24,0.9084,8293,4.0051,149.9523
rg,1625413962289326505,1,0.2134,0.7734,0.6519,638,7.6904,9.0942,-9.6436,86,1.1446,0,0.9051,56.3174,24,0.9084,8341,4.0051,150.0395
rg,1625413962289343356,1,0.209,0.769,0.6545,639,7.8125,9.5825,-10.2539,86,1.1446,0,0.9617,56.3578,24,0.9114,10062,4.0051,150.1296
rg,1625413962289360912,1,0.2207,0.7766,0.6548,640,8.8501,8.2397,-9.8877,86,1.1426,0,0.9523,56.4482,24,0.9074,8438,4.0051,150.1833
rg,1625413962642117838,1,0.22,0.7649,0.6431,641,7.9346,7.8735,-9.8267,86,1.1446,0,0.9273,56.5018,24,0.9084,25468,4.0051,150.2271
rg,1625413962642162615,1,0.2266,0.7732,0.6516,642,7.8735,6.7749,-9.8267,86,1.1446,0,0.8738,56.5459,24,0.9084,10234,4.0051,150.2345
rg,1625413962642183004,1,0.2268,0.7649,0.6487,643,7.9956,7.6294,-12.3901,86,1.1446,0,0.9191,56.588,24,0.9094,7879,4.0051,150.2149
rg,1625413962642202097,1,0.229,0.7637,0.6436,644,7.8125,7.2632,-10.8643,86,1.1446,0,0.8972,56.6286,24,0.9094,7851,4.0051,150.2167
rg,1625413962642220023,1,0.2336,0.7588,0.6489,645,7.6904,7.3853,-11.5356,86,1.1446,0,0.8915,56.6469,24,0.9094,7819,4.0051,150.2081
rg,1625413962642258764,1,0.2302,0.7625,0.646,646,7.2632,7.6904,-10.6201,86,1.1446,0,0.8667,56.65,24,0.9094,7838,4.0051,150.2301
rg,1625413962642279301,1,0.2295,0.7563,0.6501,647,6.4087,8.5449,-11.9019,86,1.1446,0,0.9079,56.6111,24,0.9094,8077,4.0051,150.2526
rg,1625413962642298171,1,0.2336,0.7542,0.6543,648,7.019,7.5684,-10.8032,86,1.1446,0,0.8813,56.588,24,0.9094,7861,4.0051,150.2657
rg,1625413962642316152,1,0.2346,0.7549,0.6509,649,7.2021,7.9346,-12.3291,86,1.1446,0,0.9117,56.5796,24,0.9094,7904,4.0051,150.2578
rg,1625413962642333375,1,0.2334,0.7571,0.655,650,7.1411,8.1787,-11.8408,86,1.1446,0,0.9073,56.5783,24,0.9094,7909,4.0051,150.3006
rg,1625413962642351189,1,0.2329,0.7588,0.6548,651,7.9346,8.4229,-11.4746,86,1.1446,0,0.9251,56.599,24,0.9094,7935,4.0051,150.3275
rg,1625413962642368171,1,0.2317,0.7551,0.6536,652,7.2021,8.4229,-12.146,86,1.1446,0,0.9655,56.5862,24,0.9094,8265,4.0051,150.3396
rg,1625413962642385430,1,0.2349,0.762,0.6516,653,8.3008,8.728,-11.6577,86,1.1436,0,0.9658,56.6371,24,0.9094,7941,4.0051,150.3524
rg,1625413962642402189,1,0.2297,0.7727,0.6528,654,7.6904,7.5073,-10.8643,86,1.1436,0,0.9519,56.6681,24,0.9084,7960,4.0051,150.3626
rg,1625413962642420523,1,0.2283,0.7661,0.6531,655,7.8125,7.6904,-11.2915,86,1.1446,0,0.9576,56.693,24,0.9084,8006,4.0051,150.3697
rg,1625413962642437819,1,0.2253,0.77,0.6475,656,7.8735,7.9956,-11.7798,86,1.1436,0,0.9919,56.7341,24,0.9084,10939,4.0051,150.3768
rg,1625413962642455134,1,0.231,0.7705,0.6431,657,7.019,6.4087,-11.4136,86,1.1456,0,0.9651,56.7473,24,0.9104,8194,4.0051,150.3391
rg,1625413962642472727,1,0.2268,0.7717,0.647,658,6.897,6.8359,-12.2681,86,1.1436,0,0.9875,56.7497,24,0.9094,8119,4.0051,150.2972
rg,1625413962642490652,1,0.2292,0.7712,0.6406,659,7.3853,6.1035,-12.207,86,1.1446,0,0.9839,56.7814,24,0.9094,8144,4.0051,150.2321
rg,1625413962642507727,1,0.239,0.7771,0.6426,660,6.4697,6.1646,-12.146,86,1.1446,0,0.9622,56.7808,24,0.9104,8144,4.0051,150.1709
rg,1625413962642543875,1,0.2366,0.7781,0.647,661,6.8359,5.7373,-12.146,86,1.1436,0,0.9387,56.7883,24,0.9094,8133,4.0051,150.0954
rg,1625413962642564319,1,0.23,0.7783,0.6394,662,6.7749,6.7749,-12.7563,86,1.1446,0,0.9706,56.8063,24,0.9094,8139,4.0051,150.0416
rg,1625413962642582115,1,0.2344,0.7773,0.6304,663,6.1035,5.3101,-12.7563,86,1.1446,0,0.9572,56.8102,24,0.9104,8211,4.0051,149.9391
rg,1625413962642598819,1,0.2358,0.7817,0.6379,664,6.1035,4.7607,-11.7798,86,1.1446,0,0.8922,56.8056,24,0.9104,8208,4.0051,149.8393
rg,1625413962642615264,1,0.2393,0.7795,0.6411,665,6.0425,4.6997,-12.4512,86,1.1446,0,0.8523,56.7921,24,0.9094,8263,4.0051,149.7231
rg,1625413962642631375,1,0.2429,0.7805,0.635,666,5.5542,5.127,-12.8174,86,1.1456,0,0.8263,56.7716,24,0.9104,8329,4.0051,149.6134
rg,1625413962642647838,1,0.2476,0.7849,0.6304,667,5.9204,4.5166,-12.6343,86,1.1446,0,0.7381,56.7635,24,0.9104,8310,4.0051,149.4837
rg,1625413962642665375,1,0.2446,0.7827,0.6331,668,5.6763,4.0283,-12.5122,86,1.1426,0,0.6791,56.7553,24,0.9084,8285,4.0051,149.3441
rg,1625413962642681893,1,0.2483,0.7805,0.6243,669,5.5542,4.3335,-12.085,86,1.1456,0,0.6035,56.7553,24,0.9104,8305,4.0051,149.2245
rg,1625413962642698967,1,0.2534,0.7812,0.6284,670,5.3101,4.8828,-12.5122,86,1.1446,0,0.548,56.7398,24,0.9094,8328,4.0051,149.1142
rg,1625413962642716041,1,0.2556,0.7864,0.6316,671,4.6997,4.8828,-12.3291,86,1.1446,-0.001,0.4872,56.689,24,0.9114,8679,4.0051,149.0079
rg,1625413962642734375,1,0.2544,0.7822,0.6301,672,4.3945,5.3711,-11.7798,86,1.1426,0,0.4212,56.6385,24,0.9094,8301,4.0051,148.9299
rg,1625413962997790374,1,0.2493,0.7776,0.623,673,3.9673,6.1646,-11.4746,86,1.1446,0,0.3713,56.5788,25,0.9114,25665,4.0051,148.8849
rg,1625413962997825745,1,0.2524,0.7751,0.6299,674,4.6387,5.6152,-10.9253,86,1.1446,0,0.2875,56.5332,25,0.9104,12608,4.0051,148.8332
rg,1625413962997845671,1,0.2444,0.7776,0.6292,675,4.3945,6.1035,-11.5356,86,1.1446,0,0.2261,56.4803,24,0.9114,7779,4.0051,148.7767
rg,1625413962997864597,1,0.248,0.7842,0.6365,676,4.3945,5.127,-10.8643,86,1.1446,0,0.1498,56.4297,24,0.9114,7780,4.0051,148.7097
rg,1625413962997904393,1,0.2483,0.7832,0.6299,677,4.5166,5.5542,-11.4746,86,1.1446,0,0.1031,56.3959,24,0.9104,7739,4.0051,148.6435
rg,1625413962997922412,1,0.2473,0.7842,0.6284,678,4.3945,5.9204,-10.8032,86,1.1446,0,0.0331,56.3673,24,0.9114,9053,4.0051,148.5715
rg,1625413962997939541,1,0.2493,0.7878,0.6252,679,3.9062,5.188,-10.376,86,1.1436,0,-0.0554,56.326,24,0.9104,8335,4.0051,148.5172
rg,1625413962997956671,1,0.2463,0.7878,0.6279,680,3.6011,5.0659,-10.0708,86,1.1456,0,-0.1464,56.2694,24,0.9094,7963,4.0051,148.4655
rg,1625413962997993856,1,0.2493,0.782,0.6257,681,3.1738,5.0049,-11.3525,86,1.1446,0,-0.2039,56.1892,24,0.9114,7810,4.0051,148.3847
rg,1625413962998012134,1,0.2568,0.7881,0.623,682,3.2959,4.6997,-11.3525,86,1.1436,0.001,-0.2781,56.1352,24,0.9104,7869,4.0051,148.2918
rg,1625413962998028615,1,0.2563,0.7856,0.6208,683,2.8076,6.0425,-11.9019,86,1.1456,0,-0.3022,56.0642,24,0.9114,7763,4.0051,148.2312
rg,1625413962998044726,1,0.2554,0.7883,0.6191,684,2.6245,5.188,-10.7422,86,1.1456,0,-0.3806,55.9857,24,0.9114,7943,4.0051,148.1674
rg,1625413962998061060,1,0.2542,0.7834,0.6287,685,2.4414,5.0659,-9.0942,86,1.1406,0,-0.5095,55.8893,24,0.9104,7925,4.0051,148.136
rg,1625413962998077282,1,0.2649,0.7847,0.6201,686,2.7466,5.4932,-10.3149,86,1.1446,0,-0.6079,55.8257,24,0.9114,7938,4.0051,148.091
rg,1625413962998093560,1,0.2632,0.7849,0.6194,687,2.5024,5.4932,-10.5591,86,1.1426,0,-0.6912,55.7565,24,0.9104,7928,4.0051,148.0403
rg,1625413962998109893,1,0.2625,0.7773,0.6199,688,2.6245,5.5542,-9.3384,86,1.1446,0,-0.8117,55.6835,24,0.9104,7961,4.0051,148.0188
rg,1625413962998126319,1,0.2625,0.7781,0.6172,689,2.3804,5.8594,-9.2163,86,1.1446,0,-0.9254,55.609,24,0.9134,7982,4.0051,148.0098
rg,1625413962998142449,1,0.2686,0.7854,0.6208,690,2.8687,5.9814,-10.1929,86,1.1436,0,-1.0081,55.561,24,0.9104,8030,4.0051,147.9825
rg,1625413962998158671,1,0.2693,0.7732,0.6174,691,3.0518,6.7139,-10.0708,86,1.1456,0,-1.0831,55.5111,24,0.9104,8072,4.0051,147.9821
rg,1625413962998186152,1,0.2739,0.7695,0.6233,692,3.6621,6.7749,-9.7656,86,1.1456,0,-1.1731,55.4723,24,0.9124,8092,4.0051,147.9908
rg,1625413962998203486,1,0.2754,0.7778,0.6167,693,3.3569,7.019,-9.7656,86,1.1446,0,-1.2557,55.4455,24,0.9114,8113,4.0051,148.0069
rg,1625413962998219837,1,0.2703,0.7693,0.6091,694,3.1738,8.9111,-10.1318,86,1.1446,0,-1.2762,55.4125,24,0.9124,14480,4.0051,148.0772
rg,1625413962998236226,1,0.2666,0.7727,0.6152,695,3.9062,9.2163,-9.8877,86,1.1446,0,-1.2859,55.4036,24,0.9124,8158,4.0051,148.1629
rg,1625413962998253523,1,0.2676,0.7715,0.6196,696,4.1504,9.0332,-9.6436,86,1.1446,0,-1.3187,55.4006,24,0.9124,8313,4.0051,148.2481
rg,1625413962998270467,1,0.2678,0.7764,0.6282,697,4.0894,8.4229,-8.728,86,1.1446,0,-1.3793,55.382,24,0.9124,8298,4.0051,148.3342
rg,1625413962998287115,1,0.2751,0.7751,0.6211,698,4.3335,9.0332,-8.7891,86,1.1446,0,-1.4398,55.3841,24,0.9124,9399,4.0051,148.4389
rg,1625413962998303393,1,0.2727,0.7764,0.616,699,4.2114,9.4604,-8.9111,86,1.1456,0,-1.4806,55.3913,24,0.9124,8708,4.0051,148.5548
rg,1625413962998320541,1,0.271,0.7739,0.6218,700,4.5166,9.5215,-9.2773,86,1.1456,0,-1.483,55.3924,24,0.9124,8265,4.0051,148.658
rg,1625413962998337097,1,0.2703,0.7708,0.6226,701,4.8218,9.7046,-10.2539,86,1.1436,0,-1.4676,55.405,24,0.9114,8287,4.0051,148.7523
rg,1625413962998354689,1,0.2695,0.7744,0.6211,702,4.5166,10.437,-9.2163,86,1.1446,0,-1.4678,55.4113,24,0.9094,8293,4.0051,148.8941
rg,1625413962998371337,1,0.2695,0.7732,0.6211,703,4.8828,8.9111,-8.667,86,1.1436,0,-1.521,55.4312,25,0.9124,8402,4.0051,148.998
rg,1625413962998388263,1,0.2715,0.7742,0.625,704,5.249,9.3994,-10.1318,86,1.1456,0,-1.5153,55.46,25,0.9134,8407,4.0051,149.0855
rg,1625413963358338004,1,0.2756,0.7693,0.6172,705,5.4321,9.6436,-9.5825,86,1.1446,0,-1.5358,55.5015,24,0.9134,25032,4.0051,149.1936
rg,1625413963358388782,1,0.2668,0.7686,0.6157,706,5.127,9.9487,-9.7656,86,1.1446,0,-1.5253,55.5303,24,0.9134,14895,4.0051,149.3081
rg,1625413963358449041,1,0.2717,0.7703,0.6179,707,5.7983,9.0332,-9.4604,86,1.1446,0.001,-1.4949,55.5522,24,0.9134,7825,4.0051,149.4129
rg,1625413963358480319,1,0.2693,0.7732,0.6294,708,5.5542,9.8877,-11.0474,86,1.1446,0,-1.4436,55.5798,24,0.9134,7731,4.0051,149.4973
rg,1625413963358508800,1,0.2708,0.7737,0.6228,709,5.5542,8.4229,-10.1929,86,1.1446,0,-1.4604,55.6191,24,0.9134,7886,4.0051,149.5524
rg,1625413963358535115,1,0.2673,0.7695,0.6243,710,5.5542,8.728,-9.2773,86,1.1446,0,-1.4942,55.6477,24,0.9134,7859,4.0051,149.6388
rg,1625413963358561059,1,0.2729,0.7681,0.6177,711,5.7983,8.606,-10.6812,86,1.1446,0,-1.4977,55.6956,24,0.9144,10785,4.0051,149.6898
rg,1625413963358589893,1,0.2712,0.7705,0.6211,712,5.4932,8.4839,-10.8032,84,1.1436,0,-1.4941,55.7269,24,0.9124,7902,4.0062,149.7345
rg,1625413963358616634,1,0.2683,0.769,0.6257,713,5.249,8.1787,-10.0098,84,1.1446,0,-1.5165,55.7369,24,0.9124,7907,4.0062,149.7876
rg,1625413963358642652,1,0.2717,0.7649,0.6226,714,5.0659,8.3008,-11.2305,84,1.1456,0,-1.5051,55.7398,24,0.9134,7998,4.0062,149.8175
rg,1625413963358669578,1,0.2734,0.772,0.6282,715,5.4932,8.3618,-10.498,84,1.1446,0,-1.5154,55.7592,24,0.9134,12006,4.0062,149.8658
rg,1625413963358696208,1,0.2754,0.7744,0.616,716,5.6763,7.3853,-10.5591,84,1.1446,0,-1.5524,55.8106,24,0.9144,7985,4.0062,149.88
rg,1625413963358722634,1,0.2791,0.7751,0.6189,717,5.3711,7.8125,-10.8643,84,1.1446,0,-1.5745,55.8438,24,0.9144,8014,4.0062,149.9023
rg,1625413963358748578,1,0.2759,0.7695,0.6147,718,4.7607,7.8125,-10.6201,84,1.1446,0,-1.6013,55.8505,24,0.9134,8024,4.0062,149.9305
rg,1625413963358774430,1,0.2759,0.7766,0.6138,719,5.3711,7.8735,-11.2305,84,1.1446,0,-1.6027,55.893,24,0.9144,8060,4.0062,149.9469
rg,1625413963358801541,1,0.2769,0.7759,0.6113,720,5.6763,7.6294,-11.2305,84,1.1446,0,-1.6127,55.9495,24,0.9144,8635,4.0062,149.9555
rg,1625413963358828004,1,0.2781,0.7803,0.6162,721,5.188,7.6294,-11.7188,84,1.1456,-0.001,-1.605,55.9822,24,0.9144,10152,4.0062,149.954
rg,1625413963358896041,1,0.2803,0.7795,0.613,722,4.8218,7.6904,-11.3525,84,1.1456,0,-1.6143,56.0034,24,0.9134,8137,4.0062,149.9629
rg,1625413963358930578,1,0.2854,0.7781,0.6108,723,4.8828,7.5073,-12.2681,84,1.1456,0,-1.609,56.029,24,0.9144,8130,4.0062,149.9455
rg,1625413963358957282,1,0.2869,0.7744,0.6135,724,4.5166,7.3853,-11.9629,84,1.1446,0,-1.6091,56.0416,24,0.9154,8155,4.0062,149.931
rg,1625413963358985189,1,0.2827,0.7769,0.6121,725,4.2114,8.8501,-12.7563,84,1.1436,0,-1.5526,56.0341,24,0.9134,8168,4.0062,149.9479
rg,1625413963359010948,1,0.2856,0.7769,0.6079,726,4.8218,7.9956,-11.6577,84,1.1486,0,-1.5612,56.0588,24,0.9144,8210,4.0062,149.9604
rg,1625413963359037652,1,0.2874,0.7776,0.6082,727,4.7607,7.8735,-12.085,84,1.1456,0,-1.5561,56.1116,24,0.9154,8208,4.0062,149.9421
rg,1625413963359064874,1,0.2856,0.7793,0.6104,728,5.6763,8.5449,-12.7563,84,1.1436,0,-1.5139,56.1666,24,0.9134,8243,4.0062,149.9493
rg,1625413963359090245,1,0.2861,0.7739,0.6025,729,5.188,8.1177,-12.7563,84,1.1446,0,-1.4891,56.2068,24,0.9124,8247,4.0062,149.9427
rg,1625413963359115448,1,0.2825,0.7761,0.6028,730,5.188,8.5449,-12.2681,84,1.1456,0,-1.4634,56.2472,24,0.9144,9488,4.0062,149.9615
rg,1625413963359140948,1,0.2854,0.7761,0.6025,731,5.188,8.9722,-12.5122,84,1.1446,0,-1.4272,56.2864,24,0.9154,9867,4.0062,149.9895
rg,1625413963359167115,1,0.2874,0.7761,0.6047,732,5.4321,7.8735,-11.3525,84,1.1486,0,-1.4423,56.3695,24,0.9144,8367,4.0062,150.0039
rg,1625413963359192152,1,0.2932,0.7822,0.6086,733,5.4932,9.2163,-12.8174,84,1.1436,0,-1.4026,56.414,24,0.9144,8372,4.0062,150.0348
rg,1625413963359217245,1,0.292,0.7751,0.6047,734,5.6763,8.606,-11.7798,84,1.1456,0,-1.4145,56.4613,24,0.9144,8367,4.0062,150.0686
rg,1625413963359242652,1,0.2886,0.7744,0.6045,735,6.4087,9.8267,-12.085,84,1.1476,0,-1.3825,56.5345,24,0.9164,8409,4.0062,150.1372
rg,1625413963359267948,1,0.2891,0.7834,0.6035,736,6.2256,10.437,-12.146,84,1.1456,0,-1.3365,56.6127,24,0.9164,8454,4.0062,150.2251
rg,1625413963708910596,1,0.2866,0.7795,0.5947,737,6.958,9.8877,-13.3057,84,1.1456,0,-1.2626,56.7267,24,0.9154,25256,4.0062,150.2699
rg,1625413963708964781,1,0.2908,0.7788,0.593,738,7.019,9.7046,-13.1836,84,1.1456,0,-1.2093,56.8412,24,0.9164,15830,4.0062,150.3124
rg,1625413963708985467,1,0.2864,0.7788,0.5964,739,6.4697,10.437,-12.8784,84,1.1456,0,-1.1422,56.9225,24,0.9164,7780,4.0062,150.3875
rg,1625413963709004763,1,0.2891,0.7844,0.6001,740,7.0801,10.0098,-12.0239,84,1.1456,0,-1.1172,57.0261,24,0.9164,7773,4.0062,150.4676
rg,1625413963709022800,1,0.2915,0.7742,0.5969,741,6.4087,10.498,-12.207,84,1.1456,0,-1.0876,57.0908,24,0.9164,7870,4.0062,150.5614
rg,1625413963709041837,1,0.2915,0.7773,0.605,742,5.6152,10.8032,-11.5356,84,1.1456,0,-1.0273,57.1235,24,0.9164,7831,4.0062,150.6674
rg,1625413963709058818,1,0.293,0.7815,0.5994,743,5.7373,11.0474,-12.5122,84,1.1456,0,-0.9696,57.158,24,0.9164,8028,4.0062,150.7739
rg,1625413963709076189,1,0.2922,0.7822,0.6077,744,5.8594,11.6577,-11.9019,84,1.1406,0,-0.925,57.1871,24,0.9154,7796,4.0062,150.9146
rg,1625413963709093207,1,0.2866,0.7783,0.6052,745,6.0425,11.1694,-11.1084,84,1.1446,0,-0.9104,57.2213,24,0.9164,7809,4.0062,151.0561
rg,1625413963709110485,1,0.2852,0.7874,0.6018,746,5.4932,11.4746,-11.8408,84,1.1436,0,-0.8595,57.2503,24,0.9154,7849,4.0062,151.1922
rg,1625413963709127152,1,0.2847,0.7883,0.5999,747,5.7373,11.2305,-12.207,84,1.1456,0,-0.8027,57.293,24,0.9164,7909,4.0062,151.3122
rg,1625413963709143818,1,0.2861,0.7864,0.6011,748,5.6152,10.5591,-11.7798,84,1.1436,0,-0.7804,57.3249,24,0.9164,10957,4.0062,151.4192
rg,1625413963709161467,1,0.2822,0.7859,0.5999,749,5.4932,10.437,-11.2305,84,1.1456,0,-0.7727,57.3518,24,0.9174,7889,4.0062,151.5342
rg,1625413963709178800,1,0.2856,0.7852,0.6035,750,5.188,10.8643,-11.9019,84,1.1436,0,-0.7397,57.3584,24,0.9174,7893,4.0062,151.6495
rg,1625413963709196467,1,0.2881,0.7876,0.5991,751,4.8828,9.7046,-11.2915,84,1.1446,0,-0.7587,57.3639,24,0.9164,8119,4.0062,151.7386
rg,1625413963709214726,1,0.2844,0.7803,0.5974,752,4.1504,10.7422,-11.5967,84,1.1446,0,-0.741,57.3328,24,0.9184,7946,4.0062,151.8564
rg,1625413963709259281,1,0.29,0.7817,0.6011,753,4.0283,10.9253,-11.7188,84,1.1436,0,-0.7254,57.2937,24,0.9164,7974,4.0062,151.9774
rg,1625413963709367356,1,0.2893,0.7883,0.5979,754,4.1504,10.8032,-12.0239,84,1.1446,0,-0.6993,57.2755,24,0.9164,8193,4.0062,152.0871
rg,1625413963709386707,1,0.2883,0.7773,0.5974,755,3.7842,10.2539,-12.146,84,1.1456,0,-0.685,57.2299,24,0.9174,8022,4.0062,152.1754
rg,1625413963709404781,1,0.2893,0.7834,0.5977,756,4.2114,10.2539,-12.0239,84,1.1456,0,-0.6745,57.2108,24,0.9174,8047,4.0062,152.2658
rg,1625413963709422985,1,0.2881,0.7803,0.6045,757,3.7842,9.5215,-11.9019,84,1.1446,0,-0.6807,57.1593,24,0.9154,8085,4.0062,152.334
rg,1625413963709441781,1,0.292,0.7795,0.5989,758,4.8828,9.7046,-11.5967,84,1.1456,0,-0.7032,57.1626,24,0.9174,8097,4.0062,152.4144
rg,1625413963709461448,1,0.2847,0.7822,0.6035,759,4.6387,10.376,-11.9019,84,1.1446,0,-0.6823,57.1508,24,0.9184,8115,4.0062,152.5108
rg,1625413963709479967,1,0.2903,0.7864,0.604,760,4.5776,9.7046,-11.9629,84,1.1426,0,-0.684,57.1423,24,0.9164,8123,4.0062,152.5832
rg,1625413963709498596,1,0.2878,0.782,0.6003,761,4.5166,9.7656,-11.8408,84,1.1446,0,-0.6868,57.1321,24,0.9174,8134,4.0062,152.6601
rg,1625413963709516393,1,0.2891,0.7808,0.5955,762,4.2725,9.8877,-12.5122,84,1.1456,0,-0.669,57.1198,24,0.9174,10578,4.0062,152.7265
rg,1625413963709534893,1,0.2888,0.7888,0.5959,763,4.1504,9.8877,-11.6577,84,1.1446,0,-0.6267,57.1372,24,0.9174,8233,4.0062,152.7935
rg,1625413963709552115,1,0.2935,0.7815,0.6013,764,4.6387,9.8267,-11.9629,84,1.1446,0,-0.6375,57.1301,24,0.9184,8220,4.0062,152.8697
rg,1625413963709570393,1,0.2856,0.7847,0.5962,765,4.3335,9.5825,-12.085,84,1.1446,0,-0.6335,57.124,24,0.9184,8244,4.0062,152.9347
rg,1625413963709604874,1,0.2876,0.7861,0.594,766,3.9062,9.2163,-11.5967,84,1.1456,0,-0.658,57.1071,24,0.9184,8677,4.0062,152.9979
rg,1625413963709624837,1,0.2896,0.7896,0.5999,767,3.418,9.5215,-11.7798,84,1.1456,0,-0.6718,57.0676,24,0.9184,8554,4.0062,153.0673
rg,1625413963709692763,1,0.2864,0.7783,0.6047,768,4.3945,9.5825,-12.085,84,1.1446,0,-0.6565,57.0427,24,0.9184,10554,4.0062,153.1451
rg,1625413964062762133,1,0.2922,0.7883,0.5845,769,4.0283,9.7046,-12.5732,84,1.1456,0,-0.6486,57.0538,24,0.9184,25087,4.0062,153.2025
rg,1625413964062805911,1,0.2917,0.7844,0.5896,770,4.0283,10.5591,-11.8408,84,1.1456,0,-0.6461,57.0497,24,0.9184,15043,4.0062,153.3048
rg,1625413964062826133,1,0.2937,0.7896,0.5938,771,3.8452,9.7046,-12.085,84,1.1456,0,-0.654,57.0383,24,0.9184,7831,4.0062,153.373
rg,1625413964062845392,1,0.2917,0.7815,0.5947,772,4.0894,9.8267,-12.3901,84,1.1456,0.001,-0.6483,57.0247,24,0.9194,8012,4.0062,153.4388
rg,1625413964062866966,1,0.291,0.7842,0.5916,773,3.9062,9.4604,-12.2681,84,1.1446,0,-0.6531,57.0135,24,0.9194,7864,4.0062,153.4946
rg,1625413964062886022,1,0.2883,0.7805,0.5999,774,4.2725,9.7046,-12.146,84,1.1456,0,-0.6265,56.9583,24,0.9194,7901,4.0062,153.584
rg,1625413964062903874,1,0.29,0.7844,0.5984,775,3.6621,9.4604,-12.5122,84,1.1456,0,-0.6268,56.9218,24,0.9194,7994,4.0062,153.6339
rg,1625413964062921040,1,0.2927,0.7847,0.5996,776,3.9062,10.0098,-11.9019,84,1.1446,0,-0.6331,56.9008,24,0.9174,7808,4.0062,153.7151
rg,1625413964062938411,1,0.2925,0.7805,0.5955,777,3.8452,10.1929,-11.6577,84,1.1446,0,-0.6462,56.8797,24,0.9184,7924,4.0062,153.8074
rg,1625413964062955522,1,0.291,0.7793,0.5959,778,3.7842,10.376,-12.5732,84,1.1436,0,-0.6216,56.8547,24,0.9184,7892,4.0062,153.8858
rg,1625413964062973374,1,0.2893,0.7834,0.5916,779,4.0283,9.9487,-12.8174,84,1.1446,0,-0.5951,56.8539,24,0.9184,7878,4.0062,153.9441
rg,1625413964062992059,1,0.2925,0.7761,0.5955,780,3.9062,9.5215,-12.9395,84,1.1456,0,-0.564,56.8172,24,0.9194,7893,4.0062,153.9931
rg,1625413964063010244,1,0.2952,0.7817,0.5959,781,3.7842,10.2539,-13.6108,84,1.1436,0,-0.5177,56.7983,24,0.9184,7983,4.0062,154.0438
rg,1625413964063028078,1,0.291,0.7825,0.5974,782,4.2114,10.1318,-11.9629,84,1.1446,0,-0.5217,56.7952,24,0.9194,7979,4.0062,154.126
rg,1625413964063070874,1,0.2932,0.7847,0.5913,783,3.6621,9.5825,-12.207,84,1.1456,0,-0.547,56.7892,25,0.9204,7970,4.0062,154.1835
rg,1625413964063091874,1,0.2988,0.7922,0.5857,784,3.7842,10.0708,-12.7563,84,1.1456,0,-0.5672,56.8155,25,0.9194,8006,4.0062,154.2578
rg,1625413964063109300,1,0.2961,0.7917,0.595,785,3.9062,10.7422,-12.2681,84,1.1456,0,-0.6085,56.7847,25,0.9194,8276,4.0062,154.3372
rg,1625413964063127448,1,0.2922,0.7881,0.592,786,3.1738,10.7422,-12.4512,84,1.1456,0,-0.5743,56.7598,24,0.9194,9923,4.0062,154.4015
rg,1625413964063144633,1,0.2949,0.7864,0.594,787,3.54,10.1318,-12.0239,84,1.1456,0,-0.5813,56.7426,24,0.9194,8135,4.0062,154.482
rg,1625413964063161152,1,0.2979,0.7859,0.5981,788,2.8076,10.9863,-12.4512,84,1.1456,0,-0.5598,56.6889,24,0.9194,8059,4.0062,154.5817
rg,1625413964063177689,1,0.2986,0.7805,0.5962,789,3.6621,10.0708,-11.7798,84,1.1446,0,-0.5862,56.6678,24,0.9194,8877,4.0062,154.6648
rg,1625413964063194040,1,0.2988,0.783,0.5991,790,3.6621,10.6812,-13.1226,84,1.1446,0,-0.5517,56.6457,24,0.9194,8573,4.0062,154.7388
rg,1625413964063210744,1,0.2966,0.7822,0.5986,791,3.7842,10.5591,-12.2681,84,1.1426,0,-0.5457,56.629,24,0.9184,8165,4.0062,154.827
rg,1625413964063227874,1,0.2949,0.7834,0.5869,792,4.0283,10.9253,-11.9629,84,1.1486,0,-0.5422,56.6449,24,0.9184,8150,4.0062,154.9337
rg,1625413964063244689,1,0.2988,0.7869,0.594,793,3.6621,10.8032,-12.0239,84,1.1446,0,-0.5331,56.6297,24,0.9194,8198,4.0062,155.0354
rg,1625413964063261707,1,0.2974,0.7812,0.5945,794,4.0894,10.8032,-12.2681,84,1.1446,0,-0.526,56.6318,24,0.9184,8209,4.0062,155.1315
rg,1625413964063279744,1,0.3037,0.7805,0.5916,795,3.7231,10.8643,-11.8408,84,1.1446,0,-0.5463,56.6236,24,0.9204,8404,4.0062,155.239
rg,1625413964063297374,1,0.2942,0.7766,0.5923,796,5.188,10.437,-12.146,84,1.1466,0,-0.5238,56.6625,24,0.9204,8262,4.0062,155.3481
rg,1625413964063315726,1,0.2949,0.7834,0.594,797,4.6997,10.437,-12.5122,84,1.1436,0,-0.5111,56.6916,24,0.9184,8274,4.0062,155.4269
rg,1625413964063355263,1,0.2935,0.7805,0.5884,798,5.6152,11.0474,-12.6343,84,1.1446,0,-0.4819,56.762,24,0.9194,8279,4.0062,155.5238
rg,1625413964063376837,1,0.2969,0.7817,0.5889,799,4.9438,10.8643,-12.3901,84,1.1456,0,-0.4724,56.8039,24,0.9204,8349,4.0062,155.6206
rg,1625413964063394522,1,0.2971,0.7888,0.5908,800,5.0659,10.5591,-11.6577,84,1.1466,0,-0.484,56.8597,24,0.9215,8414,4.0062,155.7235
rg,1625413964411484244,1,0.2952,0.7915,0.5825,801,4.3335,10.9863,-13.1226,84,1.1456,0,-0.4414,56.8977,24,0.9204,25646,4.0062,155.8094
rg,1625413964411535596,1,0.2898,0.7842,0.5862,802,4.1504,10.8643,-12.6343,84,1.1456,0,-0.4107,56.9106,24,0.9204,14214,4.0062,155.9023
rg,1625413964411556318,1,0.2932,0.7888,0.5925,803,3.9062,10.1318,-12.146,84,1.1456,0,-0.416,56.9082,24,0.9215,9680,4.0062,155.9813
rg,1625413964411574522,1,0.2935,0.7878,0.5933,804,3.7842,10.2539,-12.2681,84,1.1456,0,-0.4147,56.9006,24,0.9204,7950,4.0062,156.0618
rg,1625413964411594188,1,0.2874,0.7852,0.6013,805,4.2725,10.6812,-13.0005,84,1.1456,0,-0.366,56.8927,24,0.9215,7738,4.0062,156.1406
rg,1625413964411611300,1,0.291,0.7844,0.592,806,3.6621,9.7656,-12.146,84,1.1456,0,-0.3786,56.8765,24,0.9204,9880,4.0062,156.2071
rg,1625413964411628892,1,0.2917,0.7837,0.5854,807,3.6011,10.376,-12.3901,84,1.1456,0,-0.3735,56.8691,24,0.9215,7772,4.0062,156.2885
rg,1625413964411646874,1,0.291,0.7852,0.5894,808,4.0283,10.376,-12.207,84,1.1456,0,-0.3712,56.874,24,0.9215,7792,4.0062,156.3738
rg,1625413964411664670,1,0.2922,0.7864,0.5881,809,4.5166,10.9863,-13.855,84,1.1456,0,-0.3029,56.9022,24,0.9204,7810,4.0062,156.4438
rg,1625413964411682263,1,0.2908,0.7886,0.5845,810,3.8452,9.5825,-12.3291,84,1.1456,0,-0.2924,56.8869,24,0.9215,7837,4.0062,156.4964
rg,1625413964411700411,1,0.2939,0.7878,0.5989,811,3.6011,9.9487,-13.1836,84,1.1456,0.001,-0.2711,56.8612,24,0.9215,7870,4.0062,156.5462
rg,1625413964411719003,1,0.2981,0.7886,0.5847,812,3.7231,9.9487,-12.0239,84,1.1456,0,-0.3025,56.8674,24,0.9215,7945,4.0062,156.6208
rg,1625413964411815781,1,0.3008,0.7871,0.5896,813,4.1504,10.376,-12.6343,84,1.1456,0,-0.2681,56.8703,24,0.9225,7909,4.0062,156.6768
rg,1625413964411843837,1,0.2993,0.7854,0.5925,814,3.9673,10.437,-13.1836,84,1.1446,0,-0.2514,56.8681,24,0.9204,7935,4.0062,156.7427
rg,1625413964411863448,1,0.3005,0.7881,0.5879,815,4.3335,9.9487,-11.7798,84,1.1446,0,-0.2958,56.8922,24,0.9235,7925,4.0062,156.8227
rg,1625413964411883651,1,0.2947,0.7896,0.5906,816,4.4556,10.2539,-13.3667,84,1.1456,0,-0.2604,56.9056,24,0.9215,7944,4.0062,156.9078
rg,1625413964411900911,1,0.2898,0.7881,0.5884,817,4.5776,10.1318,-12.4512,84,1.1446,0,-0.256,56.9368,24,0.9204,8000,4.0062,156.9797
rg,1625413964411918337,1,0.2935,0.7874,0.5869,818,3.6621,9.5825,-12.3901,84,1.1466,-0.001,-0.2741,56.9321,24,0.9215,7985,4.0062,157.0348
rg,1625413964411935911,1,0.2974,0.7913,0.5874,819,3.7231,10.0708,-12.4512,84,1.1456,0,-0.2928,56.9392,24,0.9204,7914,4.0062,157.105
rg,1625413964411952966,1,0.3003,0.7932,0.5916,820,2.6855,9.9487,-12.207,84,1.1426,0,-0.3171,56.8951,24,0.9204,8044,4.0062,157.1766
rg,1625413964411970929,1,0.3008,0.7856,0.5908,821,3.7231,9.7046,-13.1226,84,1.1446,0,-0.32,56.8856,24,0.9215,8037,4.0062,157.2196
rg,1625413964411989300,1,0.2949,0.7893,0.5928,822,3.418,9.7046,-12.6343,84,1.1466,0,-0.3269,56.864,24,0.9215,8061,4.0062,157.2732
rg,1625413964412011225,1,0.2991,0.7861,0.5872,823,3.1738,10.1318,-12.207,84,1.1446,0,-0.3483,56.8406,24,0.9194,8779,4.0062,157.3501
rg,1625413964412029985,1,0.2898,0.783,0.5881,824,3.6011,10.437,-12.2681,84,1.1446,0,-0.3425,56.8288,24,0.9204,8176,4.0062,157.4358
rg,1625413964412046411,1,0.2935,0.7825,0.5916,825,4.0283,9.5825,-12.3291,84,1.1466,0,-0.3599,56.8281,24,0.9194,8180,4.0062,157.4913
rg,1625413964412062985,1,0.2991,0.7812,0.5847,826,3.7842,9.4604,-11.6577,84,1.1466,0,-0.4162,56.8284,24,0.9215,8178,4.0062,157.5575
rg,1625413964412079781,1,0.2981,0.7854,0.592,827,4.0894,9.6436,-11.6577,84,1.1436,0,-0.4598,56.8331,24,0.9194,8337,4.0062,157.6299
rg,1625413964412109466,1,0.3,0.7808,0.5874,828,3.9062,10.3149,-12.6953,84,1.1456,0,-0.4604,56.8326,24,0.9204,8195,4.0062,157.7024
rg,1625413964412129337,1,0.2983,0.7822,0.5894,829,3.9062,10.3149,-12.2681,84,1.1456,0,-0.4703,56.8303,24,0.9204,8345,4.0062,157.7842
rg,1625413964412146559,1,0.3025,0.7822,0.5852,830,3.9062,9.8877,-11.9629,84,1.1466,0,-0.4975,56.8415,24,0.9225,8336,4.0062,157.8583
rg,1625413964412163466,1,0.3008,0.7852,0.5886,831,4.3335,10.5591,-13.1836,84,1.1446,0,-0.4739,56.8613,24,0.9204,8976,4.0062,157.9285
rg,1625413964412180651,1,0.3013,0.7886,0.5852,832,4.1504,10.437,-13.0005,81,1.1456,0,-0.4606,56.8836,24,0.9204,8348,4.0084,157.9987
rg,1625413964766902410,1,0.2986,0.7876,0.5784,833,3.9673,11.0474,-12.6953,81,1.1456,0,-0.4423,56.9085,24,0.9225,25551,4.0084,158.0962
rg,1625413964766938373,1,0.3027,0.7864,0.5862,834,3.7231,10.6812,-12.8784,81,1.1456,0,-0.4328,56.9074,24,0.9225,10322,4.0084,158.1778
rg,1625413964766958651,1,0.3064,0.7852,0.583,835,4.5776,10.437,-11.7798,81,1.1466,0,-0.4748,56.9445,24,0.9225,7842,4.0084,158.2751
rg,1625413964766977725,1,0.3,0.7849,0.5837,836,4.3335,11.3525,-12.8174,81,1.1456,0,-0.4478,56.9685,24,0.9225,7858,4.0084,158.381
rg,1625413964766995670,1,0.3081,0.7869,0.5852,837,4.5166,11.2915,-12.3291,81,1.1456,0,-0.4543,56.9991,24,0.9215,7801,4.0084,158.4958
rg,1625413964767012429,1,0.3037,0.7883,0.5891,838,5.249,10.6201,-13.1836,81,1.1456,0,-0.4355,57.0529,25,0.9225,7849,4.0084,158.5699
rg,1625413964767030966,1,0.3025,0.7881,0.5881,839,4.4556,10.6201,-11.9629,81,1.1466,0,-0.4564,57.0742,25,0.9225,8065,4.0084,158.671
rg,1625413964767047466,1,0.2996,0.7866,0.5869,840,4.4556,10.6812,-12.3901,81,1.1446,0,-0.4561,57.0948,25,0.9225,7864,4.0084,158.7652
rg,1625413964767063670,1,0.303,0.7856,0.5811,841,4.4556,11.7798,-12.7563,81,1.1466,0,-0.4273,57.1396,25,0.9225,10895,4.0084,158.8884
rg,1625413964767079781,1,0.3057,0.7896,0.5833,842,4.5166,11.1084,-12.0239,81,1.1406,0,-0.4436,57.1706,24,0.9215,7927,4.0084,159.0055
rg,1625413964767107985,1,0.301,0.7849,0.584,843,4.5776,11.6577,-12.0239,81,1.1456,0,-0.4401,57.1951,24,0.9225,7936,4.0084,159.1416
rg,1625413964767125392,1,0.2959,0.7896,0.5862,844,4.7607,11.2915,-12.4512,81,1.1466,0,-0.4169,57.2282,24,0.9235,7973,4.0084,159.2563
rg,1625413964767141170,1,0.2966,0.7949,0.5918,845,4.5776,11.1694,-12.085,81,1.1466,0,-0.4065,57.2497,24,0.9215,8041,4.0084,159.3752
rg,1625413964767157336,1,0.2981,0.7827,0.5862,846,4.2725,11.5967,-12.9395,81,1.1466,0,-0.3694,57.2524,25,0.9235,8054,4.0084,159.4903
rg,1625413964767173688,1,0.2971,0.7847,0.5894,847,4.5776,10.8032,-12.085,81,1.1446,0,-0.3754,57.2641,25,0.9215,8038,4.0084,159.597
rg,1625413964767189947,1,0.2974,0.7876,0.583,848,4.8218,11.1694,-12.3291,81,1.1466,0,-0.3666,57.3003,25,0.9215,8069,4.0084,159.7109
rg,1625413964767205873,1,0.2966,0.7915,0.5808,849,4.3945,11.2915,-11.9019,81,1.1466,0,-0.3673,57.3269,25,0.9235,8101,4.0084,159.8384
rg,1625413964767222633,1,0.2988,0.7917,0.5818,850,5.188,11.5967,-12.3901,81,1.1466,0,-0.3491,57.3829,24,0.9235,8158,4.0084,159.9661
rg,1625413964767239392,1,0.3025,0.7939,0.593,851,4.5166,10.9253,-11.9629,81,1.1436,0,-0.3627,57.3931,24,0.9215,8172,4.0084,160.081
rg,1625413964767256744,1,0.2942,0.7905,0.5825,852,4.6997,11.2915,-12.8174,81,1.1456,0,-0.3279,57.4241,24,0.9235,8126,4.0084,160.1899
rg,1625413964767273799,1,0.293,0.7866,0.583,853,4.2725,11.2915,-12.6343,81,1.1456,0,-0.3203,57.443,24,0.9225,8200,4.0084,160.3162
rg,1625413964767290762,1,0.2959,0.7881,0.5837,854,4.5776,11.4746,-12.146,81,1.1456,0,-0.31,57.4619,24,0.9235,8177,4.0084,160.4463
rg,1625413964767309336,1,0.2927,0.7883,0.5881,855,4.3335,11.2305,-12.146,81,1.1456,0,-0.3048,57.4761,24,0.9225,8188,4.0084,160.5682
rg,1625413964767328003,1,0.2986,0.7952,0.5881,856,4.1504,11.3525,-12.9395,81,1.1456,0,-0.2716,57.4783,24,0.9235,8226,4.0084,160.6775
rg,1625413964767344503,1,0.2966,0.7874,0.5837,857,4.8828,11.7188,-13.3667,81,1.1466,0,-0.2188,57.5074,24,0.9235,8220,4.0084,160.79
rg,1625413964767395447,1,0.3032,0.7935,0.5813,858,4.1504,11.1084,-12.3901,81,1.1456,0,-0.2253,57.5187,24,0.9225,8525,4.0084,160.9029
rg,1625413964767415633,1,0.2932,0.7915,0.584,859,3.7842,10.7422,-12.3901,81,1.1456,0,-0.219,57.5072,24,0.9225,8436,4.0084,161.0035
rg,1625413964767432040,1,0.2981,0.7905,0.583,860,3.8452,10.8032,-12.8784,81,1.1456,0,-0.2059,57.4994,24,0.9235,8337,4.0084,161.0957
rg,1625413964767448670,1,0.2947,0.7896,0.5872,861,3.7842,10.8643,-12.2681,81,1.1446,0,-0.2046,57.4806,25,0.9225,10336,4.0084,161.2028
rg,1625413964767466614,1,0.2952,0.7852,0.5818,862,3.9062,10.498,-13.3667,81,1.1466,0,-0.1792,57.4713,25,0.9215,8342,4.0084,161.2739
rg,1625413964767483077,1,0.2952,0.7883,0.5789,863,4.0283,10.9863,-13.855,81,1.1456,0,-0.1273,57.4768,25,0.9235,8463,4.0084,161.3507
rg,1625413964767498836,1,0.2976,0.792,0.5803,864,3.7842,11.2915,-13.1226,81,1.1466,0,-0.0978,57.4692,25,0.9235,8447,4.0084,161.4536
rg,1625413965121461392,1,0.3,0.7974,0.5771,865,3.6011,10.8032,-13.6719,81,1.1466,0,-0.0518,57.4652,24,0.9235,25771,4.0084,161.5279
rg,1625413965121534207,1,0.2952,0.7932,0.5806,866,3.2959,11.2305,-13.4888,81,1.1466,0,-0.0089,57.4451,24,0.9235,10112,4.0084,161.6204
rg,1625413965121554207,1,0.2966,0.7913,0.5811,867,3.418,11.2915,-13.855,81,1.1466,0,0.0306,57.4201,24,0.9245,7903,4.0084,161.7068
rg,1625413965121572947,1,0.2998,0.7903,0.5847,868,3.2349,10.7422,-12.207,81,1.1456,0,0.0074,57.3883,24,0.9235,7997,4.0084,161.8096
rg,1625413965121591299,1,0.2979,0.7917,0.5833,869,3.1128,10.2539,-12.085,81,1.1466,0,-0.0252,57.3572,24,0.9235,7807,4.0084,161.8983
rg,1625413965121609651,1,0.2979,0.7886,0.5808,870,3.418,9.7656,-11.7188,81,1.1466,0,-0.0207,57.3397,24,0.9235,7996,4.0084,161.9969
rg,1625413965121626984,1,0.301,0.7942,0.5842,871,3.6011,10.9253,-13.1226,81,1.1456,0,-0.0078,57.3315,24,0.9235,8489,4.0084,162.0855
rg,1625413965121644818,1,0.2971,0.7861,0.5754,872,3.54,10.6812,-13.4888,81,1.1466,0,0.0126,57.3264,24,0.9225,7837,4.0084,162.1578
rg,1625413965121724744,1,0.2976,0.7847,0.5784,873,3.54,10.376,-12.7563,81,1.1466,0,0.0004,57.3142,24,0.9235,7875,4.0084,162.2354
rg,1625413965121744910,1,0.2998,0.7957,0.5776,874,3.9062,10.498,-12.7563,81,1.1446,0,-0.0081,57.3328,24,0.9225,7878,4.0084,162.317
rg,1625413965121762521,1,0.3013,0.7927,0.5774,875,3.2959,9.8877,-11.7188,81,1.1466,0,0.002,57.3523,25,0.9235,8077,4.0084,162.4075
rg,1625413965121787429,1,0.3032,0.7964,0.5872,876,3.6011,10.6201,-11.9629,81,1.1456,0,-0.0339,57.3413,25,0.9235,8163,4.0084,162.5108
rg,1625413965121804966,1,0.2959,0.7925,0.5825,877,3.6621,11.1084,-13.6108,81,1.1466,0,0.0088,57.3361,25,0.9245,7948,4.0084,162.595
rg,1625413965121821873,1,0.3044,0.7966,0.5791,878,3.6011,11.4136,-12.9395,81,1.1466,0,0.0173,57.3405,24,0.9245,9574,4.0084,162.7039
rg,1625413965121839595,1,0.2937,0.7888,0.5801,879,3.54,11.2305,-13.4888,81,1.1466,0,0.055,57.3318,24,0.9245,7982,4.0084,162.7947
rg,1625413965121857429,1,0.2969,0.7971,0.5818,880,3.6621,11.2305,-13.6719,81,1.1466,0,0.099,57.3344,24,0.9245,8895,4.0084,162.8814
rg,1625413965121873632,1,0.2966,0.7898,0.5823,881,3.54,11.2305,-13.4888,81,1.1466,0,0.1323,57.3218,24,0.9235,8544,4.0084,162.972
rg,1625413965121891188,1,0.3018,0.7952,0.5784,882,3.2349,10.376,-12.6343,81,1.1496,0,0.1081,57.3116,25,0.9245,8112,4.0084,163.0519
rg,1625413965121907966,1,0.2961,0.7942,0.5808,883,3.9062,11.3525,-13.4888,81,1.1466,0,0.1462,57.3228,25,0.9245,8326,4.0084,163.1463
rg,1625413965121924707,1,0.2957,0.7932,0.5825,884,3.0518,10.5591,-13.0615,81,1.1446,0,0.1527,57.2951,25,0.9235,8189,4.0084,163.2232
rg,1625413965121941299,1,0.301,0.7864,0.582,885,3.3569,10.437,-13.3057,81,1.1476,0,0.1502,57.2728,25,0.9255,8162,4.0084,163.2903
rg,1625413965121959003,1,0.2996,0.792,0.583,886,3.2959,10.437,-12.4512,81,1.1466,0,0.1188,57.267,25,0.9245,8135,4.0084,163.3757
rg,1625413965121975132,1,0.2971,0.7864,0.5852,887,3.479,10.437,-12.6953,81,1.1446,0,0.1061,57.2448,25,0.9235,8183,4.0084,163.4557
rg,1625413965122005429,1,0.3047,0.7888,0.5793,888,3.418,10.3149,-12.6343,81,1.1466,0,0.0731,57.2349,25,0.9245,8200,4.0084,163.5328
rg,1625413965122023966,1,0.2974,0.7878,0.5771,889,3.7231,11.3525,-14.1602,81,1.1476,0,0.115,57.2084,25,0.9245,8281,4.0084,163.6089
rg,1625413965122040521,1,0.2952,0.7939,0.582,890,3.54,11.6577,-13.6108,81,1.1446,0,0.166,57.2064,24,0.9225,8326,4.0084,163.7096
rg,1625413965122056632,1,0.3005,0.7905,0.5776,891,3.6011,10.5591,-13.3667,81,1.1456,0,0.1692,57.2105,24,0.9225,8314,4.0084,163.7785
rg,1625413965122073040,1,0.2998,0.7927,0.5784,892,3.479,11.4136,-14.2822,81,1.1476,0,0.2242,57.2112,24,0.9245,8301,4.0084,163.8565
rg,1625413965122089892,1,0.2976,0.7898,0.5786,893,3.479,11.5356,-13.916,81,1.1466,-0.001,0.2754,57.2045,24,0.9204,8436,4.0084,163.9464
rg,1625413965122107855,1,0.2993,0.79,0.5845,894,2.7466,10.498,-13.6719,81,1.1446,0,0.2881,57.1618,24,0.9235,8357,4.0084,164.0063
rg,1625413965122124632,1,0.2988,0.7891,0.5854,895,3.7842,11.3525,-14.6484,81,1.1476,0,0.3523,57.1591,24,0.9255,8352,4.0084,164.0733
rg,1625413965122140892,1,0.3,0.7874,0.5837,896,3.1738,11.0474,-13.4277,81,1.1466,0,0.3626,57.1332,24,0.9215,8461,4.0084,164.1563
rg,1625413965470435466,1,0.3027,0.7913,0.575,897,3.3569,10.5591,-13.3057,81,1.1466,0,0.3513,57.1365,24,0.9245,25482,4.0084,164.2253
rg,1625413965470476373,1,0.2993,0.7939,0.5806,898,3.9673,11.1084,-13.4888,81,1.1466,0,0.3686,57.1573,24,0.9245,12292,4.0084,164.3087
rg,1625413965470496169,1,0.2976,0.7947,0.5764,899,3.2349,11.1694,-13.0615,81,1.1466,0,0.3746,57.1566,24,0.9245,7841,4.0084,164.4038
rg,1625413965470514669,1,0.2935,0.793,0.5859,900,3.7231,10.2539,-12.5732,81,1.1466,0,0.378,57.1607,25,0.9245,7863,4.0084,164.4869
