name,time,activity,ax,ay,az,batch_val,gx,gy,gz,ibat,index,middle,pitch,roll,temp,thumb,ts,vbat,yaw
lg,1624882372924804533,0,-0.3679,-0.2202,0.9617,1,0.6714,0.8545,13.855,69,1.5127,1.5608,20.6889,-7.9414,32,0.2581,19715,4.0205,-13.2853
lg,1624882372924849125,0,-0.385,-0.2483,0.9709,2,-0.3662,3.0518,14.2212,69,1.5117,1.5538,20.9001,-7.9989,32,0.2571,8397,4.0205,-12.79
lg,1624882372924869810,0,-0.3772,-0.2327,0.9658,3,-1.4038,4.6997,12.3291,69,1.5117,1.5598,21.148,-8.0947,32,0.2571,10099,4.0205,-12.3733
lg,1624882372924890033,0,-0.3914,-0.2271,0.9785,4,-2.6245,6.4087,12.3901,69,1.5117,1.5598,21.4735,-8.2163,32,0.2571,8199,4.0205,-11.9565
lg,1624882372924908458,0,-0.3857,-0.22,0.9861,5,-3.1128,5.7373,12.6953,69,1.5117,1.5598,21.7528,-8.3318,31,0.2571,8217,4.0205,-11.5186
lg,1624882372924926903,0,-0.3962,-0.2278,1.0066,6,-3.7231,5.9814,13.3667,69,1.5107,1.5598,22.0333,-8.4552,31,0.2561,7974,4.0205,-11.051
lg,1624882372924944477,0,-0.3914,-0.2251,1.0134,7,-4.2725,4.7607,13.0005,69,1.5117,1.5598,22.2393,-8.5879,31,0.2551,8688,4.0205,-10.5868
lg,1624882372924961181,0,-0.3711,-0.2288,0.9995,8,-4.5776,3.3569,12.3291,69,1.5117,1.5598,22.3492,-8.7492,31,0.2551,8661,4.0205,-10.1467
lg,1624882372924977384,0,-0.3618,-0.2283,1.0261,9,-4.4556,3.479,10.9253,69,1.5117,1.5598,22.4161,-8.9086,31,0.2551,8298,4.0205,-9.7605
lg,1624882372924994921,0,-0.333,-0.2197,0.9954,10,-7.2632,8.7891,10.9253,69,1.5127,1.5588,22.655,-9.1834,31,0.2551,8343,4.0205,-9.4073
lg,1624882372925012644,0,-0.3193,-0.2329,1.001,11,-12.0239,21.7896,10.0098,69,1.5117,1.5588,23.3593,-9.7134,31,0.2541,7947,4.0205,-9.1947
lg,1624882372925030644,0,-0.321,-0.2529,1.0176,12,-14.5874,27.771,11.6577,69,1.5117,1.5568,24.2752,-10.3496,31,0.2541,8014,4.0205,-8.9727
lg,1624882372925048107,0,-0.3369,-0.2695,1.0142,13,-16.6626,41.8701,8.1787,69,1.5127,1.5578,25.7144,-11.1944,32,0.2531,8433,4.0205,-9.0398
lg,1624882372925065310,0,-0.3716,-0.2439,1.0103,14,-17.2729,46.4478,8.0566,69,1.5117,1.5578,27.4604,-12.0706,32,0.2521,8057,4.0205,-9.2131
lg,1624882372925082292,0,-0.3782,-0.2158,1.0071,15,-19.9585,51.7578,5.0659,69,1.5117,1.5578,29.2206,-12.9978,32,0.2511,8082,4.0205,-9.4972
lg,1624882372925099125,0,-0.4224,-0.2065,0.9788,16,-26.5503,56.7627,0.061,69,1.5127,1.5578,31.1593,-14.315,32,0.2501,8132,4.0205,-10.0898
lg,1624882372925116014,0,-0.4531,-0.1987,0.9875,17,-30.1514,59.021,-1.2817,69,1.5117,1.5578,33.0999,-15.9094,32,0.2491,8149,4.0205,-10.7657
lg,1624882372925133607,0,-0.4761,-0.2327,0.9937,18,-35.3394,55.7251,-0.6714,69,1.5127,1.5568,34.8891,-17.6423,32,0.2481,8915,4.0205,-11.503
lg,1624882372925150773,0,-0.468,-0.2783,1.0071,19,-38.8184,50.4761,-0.2441,69,1.5107,1.5568,36.3583,-19.5489,32,0.2471,8176,4.0205,-12.2425
lg,1624882372925167421,0,-0.4255,-0.3342,1.0134,20,-40.4053,56.7017,3.6011,69,1.5127,1.5568,37.9394,-21.5868,32,0.2461,8963,4.0205,-13.0261
lg,1624882372925184347,0,-0.3945,-0.3398,1.0056,21,-38.8184,65.8569,3.1738,69,1.5137,1.5568,39.7142,-23.6999,32,0.2461,9022,4.0205,-14.0783
lg,1624882372925200921,0,-0.5132,-0.25,1.0398,22,-34.1187,101.3794,-4.0283,69,1.5127,1.5558,42.7626,-26.1897,32,0.2461,10101,4.0205,-16.2301
lg,1624882372925218347,0,-0.2788,-0.9436,0.7007,23,-20.752,-110.5957,40.9546,86,1.4977,1.2186,38.5682,-25.42,32,0.2391,14061,4.0051,-12.6485
lg,1624882372925235681,0,-0.1155,-0.9963,0.6692,24,-11.6577,-99.6704,42.4805,86,1.4907,1.2576,34.6603,-24.9127,32,0.2401,8584,4.0051,-9.5163
lg,1624882372925252533,0,-0.0706,-1.0142,0.564,25,-19.3481,-74.3408,27.5879,86,1.4757,1.2926,31.5203,-25.783,32,0.2441,8700,4.0051,-7.7017
lg,1624882372925269199,0,-0.1909,-0.9421,0.4001,26,-33.3862,-71.106,0.3662,86,1.4537,1.3256,28.4612,-28.0483,32,0.2501,9204,4.0051,-7.0752
lg,1624882372925286995,0,-0.3538,-0.8059,0.2515,27,-40.9546,-71.8994,-0.4272,86,1.4107,1.3687,25.7974,-31.07,32,0.2521,9400,4.0051,-6.2302
lg,1624882372925304236,0,-0.4133,-0.6926,0.2659,28,-58.7158,-90.3931,0.7324,86,1.3827,1.3787,21.8672,-32.2577,32,0.2531,9354,4.0051,-3.9817
lg,1624882372925320866,0,-0.4448,-0.4937,0.2222,29,49.8047,-76.5381,-18.3105,86,1.3717,1.3737,19.6806,-30.925,32,0.2521,8750,4.0051,-3.3028
lg,1624882372925337588,0,-0.1384,-0.9097,1.0339,30,-43.5181,-62.561,36.377,86,1.3647,1.3657,17.7803,-32.2161,32,0.2511,9149,4.0051,-0.746
lg,1624882372925354366,0,-0.3667,-1.0989,0.4448,31,2.3804,-89.3555,-17.0898,174,1.3597,1.3647,14.5114,-33.0402,32,0.2501,8433,3.9292,0.2631
lg,1624882372925371218,0,-0.2856,-0.8699,0.385,32,14.9536,-105.5298,-6.2256,174,1.3537,1.3657,11.0289,-33.176,32,0.2501,9216,3.9292,2.1144
lg,1624882373292267606,0,-0.0154,-0.7822,0.4111,33,-18.1885,-36.377,35.7056,174,1.3427,1.3807,10.7893,-34.6285,32,0.2491,29844,3.9292,3.7628
lg,1624882373292307236,0,0.1746,-0.9509,0.752,34,-12.9395,-30.2124,34.9731,174,1.3487,1.3887,9.8852,-35.4686,32,0.2481,8816,3.9292,5.512
lg,1624882373292328773,0,0.2583,-0.9863,0.7427,35,-4.8828,-30.2734,27.5269,174,1.3597,1.3977,8.9217,-36.0042,32,0.2491,7943,3.9292,6.2608
lg,1624882373292348588,0,0.3513,-1.0339,0.6655,36,7.4463,16.6016,3.9062,174,1.3797,1.4067,8.614,-36.5389,31,0.2491,7841,3.9292,5.8683
lg,1624882373292368255,0,0.3059,-1.114,0.6719,37,20.752,113.5254,-29.7852,174,1.4087,1.4077,10.6931,-37.1807,31,0.2451,8059,3.9292,2.0092
lg,1624882373292387217,0,0.0317,-0.9897,0.5391,38,35.8887,162.9639,-45.9595,174,1.4397,1.3917,15.0666,-37.4988,31,0.2421,8913,3.9292,-4.691
lg,1624882373292405532,0,-0.1575,-0.9917,0.396,39,49.6826,212.5854,-66.5283,174,1.4587,1.3507,19.8709,-39.0311,31,0.2371,8482,3.9292,-12.7087
lg,1624882373292425051,0,-0.4932,-1.2246,0.4351,40,38.6353,210.9985,-74.0967,174,1.4757,1.3056,24.4659,-41.8315,31,0.2311,7944,3.9292,-21.4605
lg,1624882373292443625,0,-0.6501,-1.1067,0.3796,41,37.8418,164.0625,-64.4531,174,1.4837,1.2706,25.4686,-42.5516,31,0.2281,8015,3.9292,-25.7303
lg,1624882373292461329,0,-0.553,-0.772,0.3374,42,73.6694,-25.2686,-28.1372,174,1.4867,1.2566,24.3485,-40.5258,31,0.2251,8089,3.9292,-26.2703
lg,1624882373292479329,0,-0.0269,-0.3779,0.3076,43,67.5659,-118.9575,44.3115,174,1.4897,1.2576,20.9454,-36.4569,31,0.2251,8073,3.9292,-21.7653
lg,1624882373292498217,0,0.4397,-0.6719,0.1726,44,11.2305,-67.627,62.561,174,1.4917,1.2636,18.5879,-35.9912,31,0.2251,8569,3.9292,-18.392
lg,1624882373292516069,0,0.2825,-0.8604,0.3342,45,-14.0381,14.0381,51.6968,174,1.4937,1.2666,21.7785,-39.043,31,0.2291,8052,3.9292,-19.9503
lg,1624882373292535255,0,0.043,-0.8699,0.5266,46,-52.1851,173.7061,47.3022,174,1.4947,1.2676,27.3176,-43.3854,31,0.2331,8087,3.9292,-23.7085
lg,1624882373292553384,0,-0.5593,-0.9797,0.7153,47,-59.082,207.8857,47.4854,174,1.4957,1.2776,34.2955,-48.966,31,0.2371,8120,3.9292,-29.3681
lg,1624882373292571773,0,-0.9866,-1.0581,0.7297,48,-53.2227,156.0059,47.4854,174,1.4937,1.2966,37.8293,-51.5202,32,0.2411,8210,3.9292,-30.7988
lg,1624882373292589403,0,-0.9492,-1.0308,0.7278,49,-23.9868,-15.1978,57.1289,174,1.4897,1.3196,39.1896,-51.0751,32,0.2451,8718,3.9292,-28.44
lg,1624882373292607292,0,-0.552,-0.9995,0.7761,50,-14.5264,-162.9028,68.3594,174,1.4747,1.3377,36.3677,-46.4997,32,0.2481,8259,3.9292,-19.9967
lg,1624882373292628477,0,-0.1267,-1.0061,0.6409,51,-24.4141,-239.3799,72.0215,174,1.4487,1.3577,30.4719,-42.2255,32,0.2581,8286,3.9292,-9.8599
lg,1624882373292647495,0,0.0332,-0.8867,0.4656,52,-35.8276,-242.7368,45.8984,174,1.4057,1.3857,23.3073,-40.5673,32,0.2571,13662,3.9292,-1.584
lg,1624882373292666514,0,0.3567,-0.6213,0.9175,53,-43.0298,-207.9468,38.5132,174,1.3887,1.3977,16.485,-39.6515,32,0.2551,8264,3.9292,5.4538
lg,1624882373292684643,0,-0.2588,-0.5034,-0.3098,54,55.2368,-103.6987,-17.0288,174,1.3787,1.3957,13.6507,-39.0032,32,0.2551,9722,3.9292,7.0353
lg,1624882373292703625,0,0.2949,-0.9932,1.3508,55,-43.5791,-19.4092,13.1836,174,1.3717,1.3927,12.4827,-40.4132,32,0.2541,8309,3.9292,7.9989
lg,1624882373292724662,0,-0.3269,-1.0173,0.3462,56,-15.5029,22.3389,-16.3574,174,1.3667,1.3927,12.7057,-42.3513,32,0.2541,9550,3.9292,6.1991
lg,1624882373292743347,0,-0.3442,-0.959,0.5168,57,-6.7749,35.0342,-16.1133,174,1.3617,1.3947,13.498,-43.6807,32,0.2551,8851,3.9292,4.569
lg,1624882373292764088,0,-0.3591,-0.741,0.469,58,8.1787,42.7246,-5.4932,174,1.3567,1.3957,14.9256,-44.2093,32,0.2541,8368,3.9292,3.0578
lg,1624882373292782458,0,-0.4495,-0.7822,0.49,59,-22.4609,34.2407,5.6763,174,1.3517,1.3967,16.492,-45.8276,32,0.2561,8347,3.9292,2.0816
lg,1624882373292804699,0,-0.4387,-0.8137,0.5244,60,-26.4893,20.1416,11.9019,174,1.3477,1.3997,17.1432,-47.1461,32,0.2551,8423,3.9292,2.6909
lg,1624882373292824143,0,-0.3323,-0.8843,0.5999,61,-28.8696,-30.5786,24.292,174,1.3457,1.4027,17.0494,-48.1501,32,0.2551,8450,3.9292,4.2234
lg,1624882373292841958,0,-0.0283,-0.9221,0.6362,62,-17.8833,-79.2236,25.5737,174,1.3467,1.4077,15.1041,-48.2718,32,0.2541,8427,3.9292,7.3096
lg,1624882373292860736,0,0.166,-0.938,0.53,63,-12.0239,-67.688,18.6768,174,1.3517,1.4137,12.9689,-48.601,32,0.2521,8866,3.9292,9.7858
lg,1624882373292879995,0,0.2075,-0.8872,0.4697,64,-11.2305,-8.7891,12.9395,174,1.3607,1.4187,12.1938,-49.4344,32,0.2521,8516,3.9292,10.2919
lg,1624882373663533051,0,0.0449,-0.9314,0.614,65,7.3853,102.2949,-4.4556,174,1.4297,1.4187,13.835,-49.7227,31,0.2401,25460,3.9292,6.236
lg,1624882373663576477,0,-0.0659,-1.1003,0.491,66,29.8462,112.3047,-35.7666,174,1.4507,1.3967,15.264,-49.9272,31,0.2361,9224,3.9292,1.3913
lg,1624882373663597995,0,-0.1064,-1.1531,0.4695,67,46.0815,109.9243,-43.5181,174,1.4757,1.3517,16.3558,-50.0725,31,0.2301,8510,3.9292,-3.464
lg,1624882373663617588,0,-0.2759,-1.0476,0.4377,68,44.0674,54.0161,-55.4199,174,1.4867,1.3016,15.9581,-49.8777,32,0.2271,8667,3.9292,-6.8604
lg,1624882373663636606,0,-0.1421,-0.6748,0.3472,69,64.0869,-14.5264,-1.0376,174,1.4917,1.2726,15.3495,-47.7121,32,0.2251,8528,3.9292,-6.5781
lg,1624882373663654588,0,0.1118,-0.6221,0.3025,70,50.415,-34.4238,17.5781,174,1.4947,1.2646,14.2127,-46.638,32,0.2251,9141,3.9292,-4.9003
lg,1624882373663673977,0,0.2668,-0.8127,0.3757,71,16.7847,-17.6392,33.8745,174,1.4967,1.2656,14.8042,-47.0809,32,0.2241,8293,3.9292,-4.7006
lg,1624882373663692458,0,0.1802,-0.8779,0.4138,72,-6.0425,69.3359,30.0293,174,1.4977,1.2666,16.9962,-48.3327,32,0.2261,7955,3.9292,-6.1652
lg,1624882373663710717,0,-0.3301,-0.8154,0.6199,73,-22.7661,106.0181,33.9355,174,1.4987,1.2716,20.8012,-50.2036,32,0.2281,8013,3.9292,-8.6846
lg,1624882373663731736,0,-0.4241,-0.8748,0.6536,74,-29.4189,93.0176,41.3818,174,1.4997,1.2826,24.4129,-52.264,32,0.2311,8018,3.9292,-10.7545
lg,1624882373663751106,0,-0.5989,-0.9968,0.6091,75,-36.6211,21.6064,34.668,174,1.4977,1.3056,26.1403,-53.8914,31,0.2381,8061,3.9292,-10.7009
lg,1624882373663770754,0,-0.5471,-0.9868,0.7161,76,-27.6489,-47.3633,56.2744,174,1.4867,1.3347,26.756,-53.5617,31,0.2411,8132,3.9292,-7.5048
lg,1624882373663792088,0,-0.4004,-1.0322,0.6985,77,-33.4473,-87.0361,66.04,174,1.4617,1.3617,26.4395,-52.7908,31,0.2441,8125,3.9292,-2.6582
lg,1624882373663810014,0,-0.2988,-0.9558,0.4895,78,-35.0342,-167.1143,46.5088,174,1.4267,1.3867,23.4245,-51.6112,31,0.2471,8277,3.9292,4.2385
lg,1624882373663828310,0,-0.2947,-0.6536,0.2654,79,-24.1089,-187.9272,40.9546,174,1.3827,1.3997,20.0047,-50.4525,32,0.2461,8136,3.9292,11.393
lg,1624882373663889291,0,0.1372,-0.48,0.8306,80,9.7046,-148.5596,21.9116,174,1.3697,1.3957,15.766,-47.6019,32,0.2461,10047,3.9292,16.9728
lg,1624882373663920569,0,-0.2456,-0.6213,0.072,81,26.6724,-104.9194,1.0376,174,1.3637,1.3947,14.0528,-47.958,32,0.2461,8189,3.9292,19.7915
lg,1624882373663939532,0,0.2075,-1.1021,1.0129,82,-21.3013,-60.1807,14.9536,174,1.3597,1.3947,12.0503,-48.266,32,0.2461,8203,3.9292,22.0523
lg,1624882373663957699,0,-0.0835,-0.9866,0.4966,83,5.7983,-40.1001,-22.0337,174,1.3587,1.3997,10.0417,-48.5017,32,0.2461,8339,3.9292,22.5585
lg,1624882373663975588,0,0.054,-0.7922,0.446,84,15.3198,-29.1138,-8.3008,174,1.3557,1.4027,9.3678,-48.1737,32,0.2471,8233,3.9292,22.6559
lg,1624882373663994588,0,0.0164,-0.7612,0.4375,85,6.897,25.6958,-1.2817,174,1.3537,1.4037,9.6029,-48.4978,32,0.2471,8251,3.9292,21.765
lg,1624882373664012254,0,-0.2073,-0.8,0.4028,86,-19.5312,84.4116,7.3853,174,1.3517,1.4057,12.1535,-50.2978,32,0.2491,8286,3.9292,19.2479
lg,1624882373664033291,0,-0.3999,-0.7834,0.4277,87,-31.8604,87.2803,16.6016,174,1.3497,1.4077,15.3071,-52.5355,32,0.2501,8607,3.9292,16.7655
lg,1624882373664052625,0,-0.4458,-0.8062,0.4556,88,-33.3862,60.73,23.9258,174,1.3497,1.4107,17.9175,-54.569,32,0.2501,8343,3.9292,15.2309
lg,1624882373664073051,0,-0.2769,-0.9172,0.6091,89,-28.1982,-10.8032,42.1143,174,1.3557,1.4147,18.8935,-55.3155,32,0.2501,8428,3.9292,16.602
lg,1624882373664098291,0,0.1011,-1.0254,0.7417,90,-3.1738,-56.5186,39.5508,174,1.3687,1.4217,17.989,-54.4606,32,0.2511,8429,3.9292,19.5219
lg,1624882373664121421,0,0.3708,-1.1562,0.7673,91,6.2866,-53.772,26.3062,174,1.3927,1.4287,16.3749,-53.5706,32,0.2521,8464,3.9292,20.6866
lg,1624882373664140254,0,0.3916,-1.1633,0.7419,92,23.0713,17.2729,-14.3433,174,1.4227,1.4287,15.1134,-53.0482,32,0.2461,8555,3.9292,19.7052
lg,1624882373664161014,0,0.1978,-1.0225,0.5181,93,60.0586,111.0229,-51.9409,174,1.4487,1.4167,15.1855,-52.3465,32,0.2431,8474,3.9292,14.6284
lg,1624882373664183365,0,-0.1216,-1.0732,0.3318,94,51.3916,173.4619,-79.7119,174,1.4687,1.3897,16.4936,-53.2258,32,0.2381,8538,3.9292,6.6736
lg,1624882373664201884,0,-0.2971,-1.1567,0.3245,95,47.6685,188.6597,-84.8999,174,1.4837,1.3427,18.011,-54.7683,32,0.2321,8528,3.9292,-1.2412
lg,1624882373664225143,0,-0.5527,-1.106,0.3408,96,42.9077,104.3091,-65.1855,174,1.4897,1.2896,18.5705,-55.339,32,0.2281,8606,3.9292,-6.6213
lg,1624882374032461328,0,0.2666,-0.824,0.2566,97,5.9814,-36.8652,50.5981,174,1.4967,1.2546,20.208,-58.1547,32,0.2301,29651,3.9292,-8.7819
lg,1624882374032499847,0,-0.3101,-0.9587,0.6768,98,-46.0815,148.0713,29.541,174,1.4987,1.2576,23.9528,-61.6804,32,0.2321,8677,3.9292,-13.6242
lg,1624882374032521013,0,-0.5449,-0.9458,0.6926,99,-39.1846,128.9062,33.7524,174,1.4987,1.2716,26.7981,-63.7077,32,0.2351,8563,3.9292,-15.5337
lg,1624882374032540828,0,-0.7708,-0.9517,0.6191,100,-35.2783,1.6479,35.4614,174,1.4947,1.2996,28.3923,-64.5589,32,0.2421,8732,3.9292,-14.7883
lg,1624882374032560680,0,-0.624,-0.9871,0.6975,101,-32.4707,-110.5957,61.7676,174,1.4797,1.3306,28.62,-62.6915,32,0.2441,7815,3.9292,-8.8337
lg,1624882374032579365,0,-0.2888,-1.0781,0.6248,102,-41.2598,-215.8813,69.7632,174,1.4567,1.3627,26.32,-59.5755,32,0.2481,9262,3.9292,1.248
lg,1624882374032597310,0,-0.1123,-0.9304,0.415,103,-45.0439,-255.249,59.5703,174,1.4137,1.3917,21.5966,-57.0354,32,0.2501,9023,3.9292,12.5562
lg,1624882374032615143,0,0.1262,-0.7974,0.7366,104,-46.3867,-275.2075,53.6499,174,1.3917,1.4017,16.1938,-54.9392,32,0.2501,8232,3.9292,23.5752
lg,1624882374032632995,0,0.0403,-0.6711,0.0552,105,53.772,-225.2808,-21.7896,174,1.3817,1.4007,9.5241,-52.4113,32,0.2501,8354,3.9292,30.1468
lg,1624882374032651273,0,0.4836,-0.8274,0.7371,106,-29.7852,-151.7944,13.4888,174,1.3747,1.3977,5.0499,-52.7733,32,0.2501,8668,3.9292,35.3683
lg,1624882374032668810,0,0.3162,-0.9744,0.6057,107,-13.4277,-89.2944,-27.0386,174,1.3717,1.3987,1.2636,-53.3799,32,0.2511,8277,3.9292,37.569
lg,1624882374032687013,0,-0.0845,-0.9888,0.196,108,-4.2725,3.54,-29.48,174,1.3697,1.4047,0.5382,-54.5237,32,0.2511,8729,3.9292,36.7405
lg,1624882374032704828,0,0.0071,-0.853,0.387,109,23.8037,60.73,6.2866,174,1.3657,1.4067,2.1117,-54.0404,32,0.2521,8304,3.9292,34.9062
lg,1624882374032721754,0,-0.1907,-0.678,0.4558,110,14.2212,84.4727,7.9346,174,1.3627,1.4077,5.3198,-54.5391,32,0.2521,8758,3.9292,31.8835
lg,1624882374032739347,0,-0.2808,-0.6926,0.4778,111,-22.3999,103.0273,20.0806,174,1.3597,1.4067,8.8275,-55.8178,32,0.2531,8042,3.9292,28.9237
lg,1624882374032756402,0,-0.3684,-0.8899,0.5466,112,-37.3535,46.936,29.7852,174,1.3587,1.4097,11.2602,-57.5593,32,0.2531,8777,3.9292,27.9704
lg,1624882374032773124,0,-0.2004,-0.9082,0.541,113,-24.1699,-36.5601,45.5322,174,1.3587,1.4117,12.0044,-58.1219,32,0.2531,8094,3.9292,30.2114
lg,1624882374032790013,0,-0.0125,-0.8821,0.616,114,-15.1367,-64.7583,51.9409,174,1.3647,1.4157,11.6149,-57.9068,32,0.2521,8860,3.9292,33.602
lg,1624882374032806847,0,0.2732,-0.9382,0.6194,115,-4.7607,-72.1436,43.0298,174,1.3787,1.4227,10.5628,-57.3737,32,0.2511,8538,3.9292,37.0302
lg,1624882374032824587,0,0.4541,-1.0996,0.5784,116,-1.709,-0.1831,26.123,174,1.4007,1.4277,10.2813,-57.5105,32,0.2531,10568,3.9292,37.5718
lg,1624882374032841976,0,0.2998,-1.0195,0.7317,117,20.3247,113.0981,-1.4038,174,1.4367,1.4237,12.3057,-56.7845,32,0.2461,8344,3.9292,32.4215
lg,1624882374032859199,0,0.0681,-0.9929,0.4761,118,42.1143,166.9312,-27.3438,174,1.4567,1.4057,14.3971,-56.8701,32,0.2451,8292,3.9292,25.9957
lg,1624882374032876939,0,-0.2031,-1.1326,0.4812,119,38.0249,181.3965,-49.3774,174,1.4747,1.3757,16.4325,-57.7302,32,0.2381,8743,3.9292,18.4597
lg,1624882374032894476,0,-0.3848,-1.1279,0.385,120,38.8184,127.6245,-47.7905,174,1.4867,1.3357,17.5633,-58.3263,32,0.2331,8661,3.9292,12.7264
lg,1624882374032911291,0,-0.3335,-0.842,0.3154,121,40.5884,80.0781,-38.208,174,1.4927,1.2986,17.9497,-57.2622,32,0.2291,8691,3.9292,10.8894
lg,1624882374032928458,0,-0.2039,-0.6362,0.3262,122,50.7202,6.8359,7.2021,174,1.4947,1.2766,18.259,-55.471,32,0.2281,8840,3.9292,10.7495
lg,1624882374032945347,0,0.1077,-0.6135,0.354,123,19.104,-12.6343,36.7432,174,1.4977,1.2726,18.1445,-54.473,32,0.2281,8779,3.9292,12.0033
lg,1624882374032962773,0,0.1726,-0.8547,0.3484,124,-10.0708,54.8706,42.1753,174,1.4987,1.2746,19.6932,-55.6921,32,0.2291,8697,3.9292,10.955
lg,1624882374032979365,0,-0.1682,-0.9041,0.509,125,-25.9399,112.1216,26.9165,174,1.4997,1.2796,22.604,-58.1461,32,0.2321,9093,3.9292,7.4883
lg,1624882374032996680,0,-0.5142,-0.9092,0.6182,126,-29.3579,113.8306,29.7241,174,1.4997,1.2866,25.6725,-60.4057,32,0.2341,9102,3.9292,4.812
lg,1624882374033013328,0,-0.6001,-0.9321,0.5867,127,-32.4707,44.4946,35.5225,174,1.4987,1.3016,27.8741,-62.0298,32,0.2421,9164,3.9292,3.8717
lg,1624882374033035754,0,-0.6304,-0.9531,0.5867,128,-27.771,-50.5371,44.8608,174,1.4907,1.3347,28.5624,-61.5654,32,0.2431,9214,3.9292,6.9307
lg,1624882374405903291,0,-0.2227,-0.8564,0.3545,129,-36.1328,-223.938,50.9644,174,1.3887,1.4057,25.4373,-59.0797,32,0.2481,27463,3.9292,16.4163
lg,1624882374405957106,0,0.1287,-0.6145,0.6389,130,27.0386,-192.5049,9.9487,174,1.3827,1.4027,20.3529,-54.5489,32,0.2481,8810,3.9292,23.8746
lg,1624882374405989198,0,0.2664,-0.8589,0.7058,131,30.2124,-142.7612,8.9111,174,1.3757,1.3977,17.5038,-54.2663,32,0.2491,7856,3.9292,28.2541
lg,1624882374406018550,0,0.3328,-1.0403,0.8679,132,-28.4424,-82.7026,5.4932,174,1.3727,1.3967,14.588,-54.4144,32,0.2501,8075,3.9292,31.2403
lg,1624882374406048106,0,-0.0344,-0.9434,0.2585,133,-8.3008,-16.7847,-21.9727,174,1.3707,1.3997,13.0236,-55.5312,32,0.2491,7974,3.9292,31.0914
lg,1624882374406076624,0,0.0735,-0.8984,0.3647,134,15.686,51.0254,5.7983,174,1.3697,1.4037,13.6897,-55.761,32,0.2501,8983,3.9292,29.3791
lg,1624882374406103958,0,-0.1038,-0.7375,0.3799,135,2.8687,121.2769,3.1128,174,1.3657,1.4067,16.1992,-56.9779,32,0.2501,8839,3.9292,25.2008
lg,1624882374406131439,0,-0.229,-0.6392,0.3928,136,-9.0332,140.2588,9.5825,174,1.3627,1.4077,19.5046,-58.8507,32,0.2511,7935,3.9292,20.4003
lg,1624882374406157624,0,-0.4692,-0.7869,0.4841,137,-44.7388,125.9766,21.6675,174,1.3627,1.4117,23.0033,-62.1519,32,0.2521,8339,3.9292,16.1455
lg,1624882374406183958,0,-0.4922,-1.0173,0.5559,138,-32.3486,32.4707,33.1421,174,1.3677,1.4177,24.7618,-63.6419,31,0.2521,7958,3.9292,15.5535
lg,1624882374406211939,0,-0.1213,-0.9595,0.6956,139,-0.5493,-54.6265,42.7856,174,1.3797,1.4257,24.5638,-61.9852,31,0.2521,13930,3.9292,18.7197
lg,1624882374406238661,0,0.1941,-1.0732,0.6401,140,8.1787,-49.8047,26.4893,174,1.3997,1.4317,23.2906,-60.5297,31,0.2541,8363,3.9292,21.2243
lg,1624882374406265661,0,0.2588,-1.0894,0.6611,141,23.9868,20.3247,-8.9722,174,1.4247,1.4307,22.0832,-59.8583,31,0.2541,8082,3.9952,20.2888
lg,1624882374406291495,0,0.208,-1.0244,0.6309,142,43.2739,62.9272,-23.9868,96,1.4517,1.4177,21.3224,-59.1181,32,0.2481,8101,3.9952,17.4452
lg,1624882374406316772,0,0.0454,-1.042,0.4817,143,52.124,110.1685,-52.4292,96,1.4727,1.3757,21.0345,-59.7338,32,0.2421,11269,3.9952,11.2667
lg,1624882374406343217,0,-0.2156,-1.1921,0.4243,144,44.0674,125.6714,-69.8853,96,1.4877,1.3317,20.6532,-60.5978,32,0.2381,8666,3.9952,4.9619
lg,1624882374406368458,0,-0.3274,-0.9924,0.3579,145,51.6357,42.4194,-41.748,96,1.4917,1.3026,19.9153,-59.7609,31,0.2331,8511,3.9952,2.3755
lg,1624882374406394106,0,-0.0586,-0.5356,0.2966,146,58.4717,-29.48,14.8315,96,1.4957,1.2936,19.2375,-57.0024,31,0.2311,8881,3.9952,3.7424
lg,1624882374406419513,0,0.1206,-0.5271,0.2644,147,35.9497,-33.0811,25.9399,96,1.4977,1.2966,18.463,-56.715,31,0.2331,8716,3.9952,4.6788
lg,1624882374406445809,0,0.2695,-0.8071,0.29,148,-15.5029,28.6865,22.3999,96,1.4987,1.3006,18.5114,-58.0152,31,0.2351,8899,3.9952,4.0101
lg,1624882374406471976,0,0.0066,-0.9238,0.4402,149,-41.9922,118.8965,16.0522,96,1.4977,1.3056,20.7091,-61.2939,32,0.2381,8944,3.9952,-0.074
lg,1624882374406501013,0,-0.4341,-0.9033,0.4509,150,-48.8892,127.9907,24.1699,96,1.4977,1.3216,23.9532,-65.0193,32,0.2461,8930,3.9952,-4.5784
lg,1624882374406528143,0,-0.7761,-1.0146,0.5613,151,-48.3398,58.4717,30.0293,96,1.4887,1.3537,26.3654,-67.5751,32,0.2481,11037,3.9952,-6.3626
lg,1624882374406554272,0,-0.7314,-1.1174,0.6494,152,-43.1519,-75.0732,56.0913,96,1.4697,1.3807,27.4159,-67.1345,32,0.2501,9085,3.9952,-2.1468
lg,1624882374406580476,0,-0.5498,-1.0066,0.5491,153,-31.7993,-209.7168,60.3027,96,1.4387,1.4057,26.09,-63.802,32,0.2521,9109,3.9952,7.6279
lg,1624882374406606254,0,-0.4385,-0.9097,0.4294,154,-28.7476,-266.4795,66.5283,96,1.3997,1.4187,21.9025,-58.8593,32,0.2531,9121,3.9952,21.0298
lg,1624882374406632217,0,0.2756,-0.6313,1.0305,155,16.5405,-316.8335,43.6401,96,1.3927,1.4167,15.1104,-53.2879,32,0.2511,9105,3.9952,33.4428
lg,1624882374406658365,0,0.1467,-0.7202,0.2512,156,1.8921,-228.7598,25.5127,96,1.3827,1.4127,9.4453,-52.1546,32,0.2521,8941,3.9952,41.3289
lg,1624882374406684069,0,0.3755,-0.9492,0.5002,157,-9.5825,-157.4097,-1.0986,96,1.3827,1.4127,4.4928,-52.2907,32,0.2521,8817,3.9952,46.2562
lg,1624882374406709328,0,0.2827,-0.9841,0.2808,158,-2.0142,-108.7646,-21.8506,96,1.3807,1.4147,1.9176,-53.0124,32,0.2521,8395,3.9952,47.8704
lg,1624882374406734735,0,0.3186,-0.9868,0.3279,159,9.9487,-4.2114,4.0283,96,1.3797,1.4187,1.2115,-53.2922,32,0.2521,8815,3.9952,48.0786
lg,1624882374406760124,0,0.1213,-0.8066,0.2544,160,15.4419,116.5161,4.6997,96,1.3757,1.4207,3.752,-53.562,32,0.2521,8840,3.9952,44.4228
lg,1624882374783677698,0,-0.553,-0.9797,0.6194,161,-48.8892,101.0742,40.4053,96,1.3827,1.4307,6.9727,-54.8769,32,0.2531,27156,3.9952,44.1023
lg,1624882374783715920,0,-0.0427,-1.0771,0.8411,162,11.2915,-52.5513,41.3208,96,1.3977,1.4377,6.8949,-53.9742,32,0.2551,10161,3.9952,46.8059
lg,1624882374783736605,0,0.2742,-1.0889,0.7217,163,21.3623,-64.0259,26.6724,96,1.4187,1.4407,5.3177,-52.8287,32,0.2561,8695,3.9952,48.514
lg,1624882374783756272,0,0.3003,-1.0491,0.6726,164,36.499,-9.7656,-11.4746,96,1.4417,1.4307,3.9842,-51.5327,32,0.2491,8616,3.9952,48.5173
lg,1624882374783774902,0,0.1704,-1.0068,0.4014,165,58.5327,81.9092,-36.0107,96,1.4587,1.4047,4.4242,-50.0881,31,0.2471,8611,3.9952,45.0051
lg,1624882374783792476,0,-0.1443,-1.1665,0.3948,166,37.7197,143.3716,-69.519,96,1.4817,1.3577,6.0564,-49.9583,31,0.2421,9165,3.9952,38.7381
lg,1624882374783811587,0,-0.3784,-0.9951,0.3186,167,43.396,67.5659,-49.8657,96,1.4947,1.3086,6.8342,-49.4107,31,0.2391,10475,3.9952,35.2846
lg,1624882374783830161,0,-0.1514,-0.5154,0.312,168,51.6357,-11.7798,17.6392,96,1.4977,1.2866,7.3412,-47.5982,31,0.2371,10662,3.9952,36.074
lg,1624882374783887383,0,0.1692,-0.6912,0.3394,169,3.9062,0.2441,40.1001,96,1.4997,1.2836,7.7777,-47.9153,31,0.2361,8305,3.9952,37.0724
lg,1624882374783915161,0,0.2053,-0.916,0.3984,170,-16.4185,41.1987,33.2031,96,1.5007,1.2816,9.1146,-49.3289,31,0.2351,8011,3.9952,36.6156
lg,1624882374783986735,0,-0.0669,-1.0134,0.4683,171,-20.3247,106.9336,22.8882,96,1.5017,1.2786,12.3159,-51.272,31,0.2361,8687,3.9952,33.7578
lg,1624882374784009291,0,-0.4211,-0.8438,0.4612,172,-14.2212,94.5435,26.7334,96,1.5037,1.2796,15.9158,-52.7895,31,0.2361,8802,3.9952,31.271
lg,1624882374784028180,0,-0.4958,-0.8667,0.4937,173,-16.7236,63.2324,32.2876,96,1.5037,1.2846,17.9933,-53.7027,32,0.2381,8162,3.9952,31.4624
lg,1624882374784046346,0,-0.4756,-0.949,0.573,174,-21.9727,-27.4048,41.3818,96,1.5037,1.2886,18.8934,-54.144,32,0.2411,8774,3.9952,33.3642
lg,1624882374784073124,0,-0.3518,-0.9316,0.4587,175,-31.6162,-100.8911,57.8003,96,1.5007,1.3046,18.4195,-54.2095,32,0.2491,8795,3.9952,38.1266
lg,1624882374784093717,0,-0.2351,-0.9521,0.4688,176,-40.4053,-132.6904,77.9419,96,1.4867,1.3357,17.6346,-54.2002,32,0.2491,8451,3.9952,44.4488
lg,1624882374784111939,0,-0.0627,-1.0803,0.6001,177,-49.3164,-138.3667,89.2944,96,1.4617,1.3667,16.6395,-54.728,32,0.2501,8962,3.9952,51.7517
lg,1624882374784129513,0,-0.0071,-1.0225,0.6182,178,-63.6597,-163.5742,86.4258,96,1.4247,1.3917,15.1083,-55.3351,32,0.2501,8568,3.9952,59.3346
lg,1624882374784146957,0,0.0059,-0.864,0.5601,179,-59.1431,-159.3628,63.5376,96,1.3827,1.4057,13.0331,-56.07,32,0.2501,8929,3.9952,66.2229
lg,1624882374784166087,0,0.0791,-0.7644,0.4448,180,24.5972,-137.8174,-4.3945,96,1.3747,1.4017,9.0606,-54.3606,32,0.2491,8917,3.9952,70.6948
lg,1624882374784185643,0,0.2639,-0.9985,0.7922,181,-23.9258,-60.3027,8.9111,96,1.3667,1.4017,7.1596,-54.8841,32,0.2501,8927,3.9952,72.9133
lg,1624882374784204180,0,0.2048,-1.0669,0.7349,182,5.7983,-46.3867,-27.4048,96,1.3647,1.4047,5.1013,-55.4249,32,0.2511,9001,3.9952,73.7114
lg,1624882374784220957,0,0.0337,-0.8572,0.2761,183,25.8789,22.0337,-20.6909,96,1.3637,1.4087,4.6413,-55.1382,32,0.2511,8727,3.9952,72.4526
lg,1624882374784239291,0,-0.0208,-0.771,0.2209,184,25.6348,92.3462,-8.5449,96,1.3627,1.4117,6.3403,-55.1511,32,0.2511,9029,3.9952,69.1478
lg,1624882374784258291,0,-0.2952,-0.6218,0.2581,185,1.0986,152.3438,2.4414,96,1.3607,1.4137,10.5051,-56.2828,32,0.2521,9057,3.9952,64.0562
lg,1624882374784278124,0,-0.5471,-0.676,0.4746,186,-30.3955,130.3101,20.9351,96,1.3597,1.4157,14.884,-58.3295,32,0.2531,10783,3.9952,60.0136
lg,1624882374784296420,0,-0.5435,-1.0671,0.6533,187,-36.1328,88.4399,27.9541,96,1.3637,1.4197,17.0662,-59.4053,32,0.2531,8743,3.9952,59.5344
lg,1624882374784314902,0,-0.4241,-1.0557,0.6697,188,-4.8218,-29.1138,37.1704,96,1.3697,1.4247,17.8123,-58.9586,32,0.2541,8414,3.9952,61.4048
lg,1624882374784332420,0,-0.0969,-0.925,0.6128,189,16.6016,-98.2666,37.3535,96,1.3847,1.4317,16.4995,-56.9067,32,0.2541,9157,3.9952,65.7477
lg,1624882374784350661,0,0.2488,-1.0625,0.7068,190,18.9819,-77.0264,24.9634,96,1.4077,1.4357,14.5698,-55.2524,32,0.2561,8788,3.9952,68.973
lg,1624882374784386883,0,0.3201,-1.0061,0.7048,191,48.8281,-7.2632,-3.1738,96,1.4357,1.4337,13.1906,-53.2464,32,0.2551,9227,3.9952,69.1228
lg,1624882374784408291,0,0.1697,-0.9629,0.4282,192,53.6499,72.4487,-34.668,96,1.4577,1.4207,12.975,-52.3374,32,0.2481,9330,3.9952,65.7674
lg,1624882375160797624,0,-0.3545,-0.9883,0.3218,193,37.2925,88.2568,-35.2173,96,1.4947,1.2936,13.9616,-51.5591,32,0.2351,27662,3.9952,63.7389
lg,1624882375160844235,0,0.0156,-0.5354,0.4221,194,26.7334,0.4883,39.5508,96,1.4967,1.2806,14.5991,-50.2392,32,0.2341,8704,3.9952,64.7418
lg,1624882375160874457,0,0.1511,-0.6545,0.4087,195,5.4321,13.1836,46.0815,96,1.4977,1.2796,15.3679,-50.1162,32,0.2351,7788,3.9952,65.4598
lg,1624882375160902642,0,0.0515,-0.9771,0.4468,196,-31.8604,76.2939,26.9165,96,1.4987,1.2776,17.4093,-52.5007,32,0.2401,8210,3.9952,63.5202
lg,1624882375160930142,0,-0.3135,-0.9902,0.6851,197,-40.0391,115.6006,30.6396,96,1.4997,1.2796,20.9859,-55.25,32,0.2461,7861,3.9952,60.2923
lg,1624882375160956716,0,-0.6055,-0.9146,0.5537,198,-34.668,89.7217,36.2549,96,1.4987,1.2986,23.3511,-57.1957,32,0.2481,9662,3.9952,59.4135
lg,1624882375160982994,0,-0.6755,-0.9512,0.552,199,-42.3584,-1.4648,32.1655,96,1.4907,1.3327,24.7272,-58.6458,32,0.2481,9173,3.9952,60.1752
lg,1624882375161010124,0,-0.5229,-1.0859,0.6667,200,-38.0859,-99.1211,61.5845,96,1.4747,1.3647,24.655,-57.9932,32,0.2491,8609,3.9952,65.3218
lg,1624882375161036679,0,-0.2944,-1.0854,0.5652,201,-48.0347,-201.7212,59.3262,96,1.4437,1.3937,21.8903,-56.6144,32,0.2511,8331,3.9952,74.0251
lg,1624882375161063531,0,-0.1995,-0.834,0.2986,202,-56.8237,-267.0898,59.1431,96,1.3887,1.4117,17.6161,-55.7712,32,0.2551,10047,3.9952,84.6283
lg,1624882375161092772,0,-0.0476,-0.6121,-0.0471,203,54.5044,-251.6479,10.376,96,1.3757,1.3907,13.7768,-53.9832,31,0.2551,14525,3.9952,90.4686
lg,1624882375161120587,0,0.4126,-0.8384,0.7698,204,-33.1421,-136.3525,32.959,96,1.3707,1.3867,10.3986,-53.9337,31,0.2541,8350,3.9952,95.8311
lg,1624882375161147698,0,-0.0701,-0.9995,0.1968,205,-10.6201,-51.3916,-26.7944,96,1.3687,1.3867,8.1219,-55.1426,31,0.2551,8776,3.9952,96.731
lg,1624882375161174402,0,0.0349,-0.9731,0.28,206,13.1226,-22.644,18.8599,96,1.3657,1.3897,7.844,-55.1812,31,0.2551,8422,3.9952,97.8121
lg,1624882375161201124,0,0.1306,-0.8535,0.2524,207,28.0762,7.6904,29.9072,96,1.3617,1.3917,8.3808,-54.426,32,0.2551,8415,3.9952,98.1869
lg,1624882375161228679,0,0.0239,-0.5608,0.4031,208,12.5732,103.9429,34.4238,96,1.3597,1.3917,11.4905,-54.3585,32,0.2561,9102,3.9952,95.5614
lg,1624882375161282420,0,-0.2544,-0.7244,0.5479,209,-36.9263,145.813,44.5557,96,1.3597,1.3967,16.3919,-56.7075,32,0.2561,8855,3.9952,91.6475
lg,1624882375161310476,0,-0.3149,-1.1184,0.7109,210,-25.3296,84.6558,45.5933,96,1.3627,1.4017,19.6063,-58.3506,32,0.2561,8107,3.9952,89.6584
lg,1624882375161336827,0,-0.2532,-1.0596,0.6982,211,-6.7749,44.2505,43.0908,96,1.3717,1.4107,21.4785,-58.6287,32,0.2571,8592,3.9952,89.0754
lg,1624882375161363105,0,-0.0396,-0.948,0.6694,212,10.498,11.3525,29.8462,96,1.3867,1.4177,21.9674,-57.9371,32,0.2581,8222,3.9952,89.3899
lg,1624882375161388827,0,0.0962,-1.0745,0.6646,213,17.9443,35.8887,2.1973,96,1.4127,1.4227,21.7899,-57.6929,32,0.2601,8961,3.9952,88.1225
lg,1624882375161414420,0,0.0327,-1.0469,0.5652,214,48.8892,93.5059,-25.6348,96,1.4387,1.4177,22.014,-57.3906,32,0.2561,8631,3.9952,84.0608
lg,1624882375161439698,0,-0.041,-1.0747,0.4421,215,54.0771,109.8022,-38.9404,96,1.4537,1.3987,22.2787,-57.5067,32,0.2561,8306,3.9952,78.995
lg,1624882375161465568,0,-0.2446,-1.1384,0.3635,216,56.5186,133.606,-65.1855,96,1.4797,1.3547,22.4889,-58.2905,32,0.2481,9102,3.9952,72.3736
lg,1624882375161491198,0,-0.4041,-0.9368,0.3433,217,48.0347,76.355,-50.354,96,1.4927,1.3056,22.3623,-58.33,32,0.2461,8746,3.9952,68.2461
lg,1624882375161516957,0,-0.2366,-0.5225,0.3389,218,49.1333,2.0142,9.0942,96,1.4977,1.2776,22.6443,-56.2496,32,0.2441,8695,3.9952,68.4084
lg,1624882375161541957,0,-0.0579,-0.4912,0.3755,219,26.4282,-8.3008,30.8838,96,1.4997,1.2726,22.3332,-54.9113,32,0.2441,8703,3.9952,69.3969
lg,1624882375161567290,0,0.1506,-0.9177,0.4495,220,-13.855,42.4194,37.6587,96,1.5017,1.2726,23.3707,-56.0598,32,0.2461,9099,3.9952,68.6666
lg,1624882375161592142,0,-0.3596,-0.9253,0.5859,221,-27.4048,111.9385,19.5312,96,1.5027,1.2716,26.2066,-58.7546,32,0.2531,12101,3.9952,64.9479
lg,1624882375161617124,0,-0.5,-0.8601,0.5767,222,-24.8413,93.9941,30.5176,96,1.5027,1.2846,28.4432,-60.2305,32,0.2551,9388,3.9952,63.726
lg,1624882375161642253,0,-0.6189,-0.9375,0.5222,223,-20.0806,-0.2441,25.4517,96,1.4997,1.3076,29.3768,-60.7603,32,0.2571,8868,3.9952,64.3006
lg,1624882375161667346,0,-0.4966,-1.0386,0.6233,224,-24.292,-81.0547,32.7759,96,1.4917,1.3327,28.6336,-59.7174,32,0.2591,9166,3.9952,68.3074
lg,1624882375534340938,0,-0.1821,-0.8704,0.3384,225,-51.8188,-191.6504,31.7993,96,1.3777,1.4057,24.9718,-58.0111,32,0.2601,27865,3.9952,76.5289
lg,1624882375534399809,0,-0.2529,-0.6567,-0.1577,226,69.458,-161.9873,-14.4043,96,1.3737,1.3977,21.0384,-54.7137,32,0.2591,10225,3.9952,81.3596
lg,1624882375534421198,0,-0.1824,-0.6362,0.0664,227,0.4272,-104.5532,13.4277,96,1.3687,1.3927,17.9394,-52.9206,32,0.2591,7787,3.9952,85.4321
lg,1624882375534451494,0,-0.1504,-1.0452,0.4443,228,-4.0283,-90.0879,-30.5176,96,1.3667,1.3907,14.4201,-53.0163,32,0.2591,8224,3.9952,87.497
lg,1624882375534471901,0,-0.1548,-0.9924,0.4534,229,5.6152,-89.9048,-6.8359,96,1.3647,1.3937,11.805,-52.6479,32,0.2591,8584,3.9952,90.1527
lg,1624882375534490383,0,0.1665,-0.8354,0.4119,230,34.0576,-81.3599,20.3857,96,1.3617,1.3977,9.6106,-51.1378,32,0.2581,9559,3.9952,93.1721
lg,1624882375534508531,0,0.2019,-0.7351,0.366,231,2.8687,0.2441,19.4702,96,1.3577,1.4007,9.328,-51.4122,32,0.2591,9183,3.9952,93.5776
lg,1624882375534526235,0,0.1492,-0.748,0.3718,232,-11.1084,57.4341,23.6816,96,1.3567,1.4037,11.9243,-53.1853,32,0.2601,8560,3.9952,90.9967
lg,1624882375534543698,0,-0.0637,-0.8596,0.5942,233,-28.2593,103.5156,20.1416,96,1.3567,1.4077,14.6482,-55.0692,32,0.2591,8627,3.9952,88.0156
lg,1624882375534561846,0,-0.137,-0.9812,0.595,234,-12.9395,61.5234,20.0806,96,1.3607,1.4147,16.3767,-56.1618,32,0.2601,8301,3.9952,86.3395
lg,1624882375534583827,0,-0.1067,-0.9448,0.5596,235,-3.3569,44.9219,15.9302,96,1.3687,1.4217,17.362,-56.443,32,0.2601,7928,3.9952,85.2901
lg,1624882375534602049,0,-0.0139,-0.9446,0.5923,236,7.2021,42.2363,14.5874,96,1.3867,1.4287,18.1186,-56.5518,32,0.2601,8326,3.9952,84.1289
lg,1624882375534620216,0,0.0369,-1.1111,0.6006,237,19.3481,56.4575,-5.6763,96,1.4157,1.4287,18.3935,-56.6416,32,0.2611,7968,3.9952,81.9449
lg,1624882375534639920,0,0.0464,-0.9368,0.5706,238,57.4341,75.1343,-18.4326,96,1.4457,1.4207,18.639,-55.3978,32,0.2541,9900,3.9952,78.8447
lg,1624882375534657161,0,-0.0325,-0.9758,0.4475,239,55.9692,95.6421,-31.0669,96,1.4647,1.3917,19.0564,-55.6232,32,0.2561,8396,3.9952,74.0092
lg,1624882375534675087,0,-0.1829,-1.1497,0.4268,240,46.0205,102.2949,-47.9126,96,1.4807,1.3537,19.3588,-55.9061,32,0.2451,8410,3.9952,69.0987
lg,1624882375534692290,0,-0.2673,-1.0906,0.3484,241,51.8799,55.9082,-44.5557,96,1.4907,1.3176,18.9199,-55.4751,32,0.2411,8935,3.9952,65.8627
lg,1624882375537031975,0,-0.1589,-0.5837,0.3345,242,59.6924,-30.9448,-7.1411,96,1.4947,1.2986,17.7478,-52.9947,32,0.2411,8885,3.9952,66.684
lg,1624882375537066457,0,0.0039,-0.4214,0.3083,243,47.1191,-46.0815,22.2778,96,1.4967,1.3006,16.8046,-51.8583,32,0.2501,8486,3.9952,68.9255
lg,1624882375537089883,0,0.2222,-0.658,0.1533,244,-19.5923,-11.4136,43.335,96,1.4967,1.3106,16.6516,-53.1545,32,0.2541,8894,3.9952,70.139
lg,1624882375537112512,0,0.0063,-0.8757,0.4475,245,-64.8193,102.5391,45.4712,96,1.4937,1.3266,19.8089,-56.8925,32,0.2541,8151,3.9952,67.5952
lg,1624882375537132512,0,-0.5171,-0.929,0.4077,246,-68.4814,110.7788,44.1284,96,1.4817,1.3537,23.8617,-61.1333,32,0.2541,8923,3.9952,64.3432
lg,1624882375537152179,0,-0.9041,-1.0212,0.5776,247,-68.4814,23.2544,67.9932,96,1.4517,1.3887,27.2255,-63.6274,32,0.2551,12318,3.9952,64.8199
lg,1624882375537172772,0,-0.7949,-1.1411,0.8281,248,-64.27,-137.5122,86.0596,96,1.4107,1.4077,27.9109,-62.4224,32,0.2561,8647,3.9952,72.2871
lg,1624882375537193198,0,0.0164,-1.0461,1.4109,249,-51.6968,-303.772,71.7773,96,1.3747,1.4157,23.392,-57.6578,32,0.2591,8318,3.9952,85.9958
lg,1624882375537212068,0,0.0325,-0.7751,0.7998,250,28.4424,-343.4448,25.6958,96,1.3657,1.4157,15.9437,-52.8848,32,0.2561,9169,3.9952,96.5481
lg,1624882375537240216,0,0.4153,-0.9868,0.769,251,-9.2163,-251.6479,15.2588,96,1.3617,1.4157,9.0083,-51.3662,32,0.2561,9064,3.9952,105.0461
lg,1624882375537262346,0,0.2432,-0.9028,0.2485,252,25.4517,-188.4766,-43.2739,96,1.3617,1.4177,2.0819,-50.7395,32,0.2551,9450,3.9952,109.7053
lg,1624882375537281994,0,0.2915,-0.8618,0.1533,253,20.813,-95.0317,-18.9209,83,1.3617,1.4227,-1.6741,-50.9375,32,0.2561,9618,4.0051,112.142
lg,1624882375537300253,0,0.3401,-0.7776,0.0647,254,29.7241,13.3667,2.0142,83,1.3627,1.4257,-2.1324,-50.9043,32,0.2561,9070,4.0051,111.8083
lg,1624882375537318790,0,0.1335,-0.7148,0.1814,255,6.1035,172.7905,10.1318,83,1.3627,1.4277,2.1509,-51.5895,32,0.2561,9113,4.0051,106.7027
lg,1624882375537339087,0,-0.2139,-0.6016,0.5281,256,-12.207,251.5259,26.2451,83,1.3657,1.4317,9.604,-52.7178,32,0.2581,9498,4.0051,99.3714
lg,1624882375905660271,0,-0.1973,-1.0359,0.7053,257,33.4473,-9.7046,17.4561,83,1.4167,1.4477,9.0176,-51.1633,32,0.2601,29454,4.0051,100.4162
lg,1624882375905743160,0,0.1121,-0.9387,0.6208,258,58.6548,-9.7046,-11.3525,83,1.4407,1.4387,7.8464,-49.025,31,0.2601,8826,4.0051,100.38
lg,1624882375905765160,0,0.1277,-0.9529,0.4968,259,68.4814,13.4888,-22.0337,83,1.4547,1.4167,6.9861,-46.9408,31,0.2561,7826,4.0051,99.2987
lg,1624882375905784401,0,0.0337,-1.0903,0.3892,260,63.9038,68.7256,-57.7393,83,1.4767,1.3767,6.8846,-45.7264,31,0.2471,8601,4.0051,95.5755
lg,1624882375905803068,0,-0.1787,-0.9666,0.2937,261,54.8706,60.9131,-52.8564,83,1.4907,1.3256,7.2384,-44.9623,31,0.2441,8318,4.0051,92.2095
lg,1624882375905821346,0,-0.1631,-0.4675,0.3105,262,62.3169,42.0532,-26.9165,83,1.4967,1.2846,8.7984,-43.3662,32,0.2431,9276,4.0051,91.186
lg,1624882375905839734,0,-0.1067,-0.4119,0.3447,263,26.001,37.0483,29.48,83,1.4997,1.2736,10.7763,-42.6076,32,0.2431,8848,4.0051,90.9933
lg,1624882375905857290,0,0.0076,-0.7305,0.3564,264,-30.0293,56.8848,54.4434,83,1.4997,1.2756,13.4932,-44.6387,32,0.2511,8285,4.0051,90.8415
lg,1624882375905874475,0,-0.2192,-1.0891,0.6743,265,-68.3594,106.2012,40.8936,83,1.5017,1.2796,17.4372,-48.4411,32,0.2531,8431,4.0051,88.6793
lg,1624882375905892179,0,-0.4775,-1.0918,0.6963,266,-64.6973,115.7837,43.2129,83,1.4967,1.2926,21.8085,-52.2458,32,0.2521,8010,4.0051,85.9471
lg,1624882375905909957,0,-0.8184,-0.8362,0.4465,267,-52.9175,-1.0376,52.6733,83,1.4817,1.3256,24.2071,-54.1125,32,0.2511,8798,4.0051,87.2258
lg,1624882375905927216,0,-0.6846,-1.0703,0.7104,268,-56.9458,-112.9761,83.9844,83,1.4517,1.3677,23.1743,-53.2393,32,0.2531,12729,4.0051,96.0554
lg,1624882375905944864,0,-0.5146,-1.1616,0.7358,269,-68.6646,-258.4229,95.8252,83,1.4157,1.3897,19.8811,-51.9883,32,0.2551,8514,4.0051,107.2984
lg,1624882375905961883,0,-0.0342,-1.0339,0.6113,270,-58.8989,-359.436,94.7876,83,1.3727,1.4027,13.2057,-50.6102,32,0.2571,8497,4.0051,121.2944
lg,1624882375905985697,0,0.4082,-0.8269,0.5581,271,25.2075,-342.2852,38.5742,83,1.3597,1.4047,4.1988,-48.0513,32,0.2561,8163,4.0051,132.6859
lg,1624882375906003771,0,0.2332,-0.677,0.0796,272,21.5454,-229.0039,50.1709,83,1.3527,1.4037,-1.2489,-48.1987,32,0.2561,8082,4.0051,140.7451
lg,1624882375906021364,0,0.6838,-1.2009,0.9094,273,-25.3296,-128.8452,12.0239,83,1.3517,1.4047,-4.9561,-50.1293,32,0.2571,10545,4.0051,144.9939
lg,1624882375906038327,0,0.3423,-0.9297,0.1265,274,-5.8594,-71.3501,-20.9961,83,1.3527,1.4077,-8.0096,-51.6873,32,0.2561,9503,4.0051,146.8013
lg,1624882375906055809,0,0.3523,-0.8843,0.0471,275,9.2773,64.0869,-4.7607,83,1.3517,1.4117,-7.1792,-52.2524,32,0.2571,8959,4.0051,144.8149
lg,1624882375906072660,0,0.0964,-0.7983,0.0879,276,11.1084,188.4766,-0.4272,83,1.3517,1.4127,-2.6488,-52.4653,32,0.2591,8201,4.0051,138.9573
lg,1624882375906101605,0,-0.2654,-0.5889,0.3469,277,4.0283,237.915,13.3057,83,1.3517,1.4167,5.2706,-52.9701,32,0.2591,8987,4.0051,131.1041
lg,1624882375906118994,0,-0.4177,-0.5684,0.6099,278,-15.0757,255.5542,28.3203,83,1.3557,1.4197,13.012,-54.4248,32,0.2601,8254,4.0051,123.4746
lg,1624882375906135864,0,-0.5627,-1.1445,0.8098,279,-25.4517,133.4839,27.771,83,1.3717,1.4297,17.2725,-56.45,32,0.2611,8662,4.0051,119.5588
lg,1624882375906152568,0,-0.199,-1.2153,0.8674,280,27.2827,18.7988,8.3618,83,1.3957,1.4377,17.5822,-55.405,32,0.2621,9106,4.0051,119.1236
lg,1624882375906169253,0,0.0789,-1.0435,0.769,281,53.4058,-10.376,-32.4707,83,1.4267,1.4327,15.4704,-53.3159,31,0.2601,9128,4.0051,118.6985
lg,1624882375906185920,0,0.1145,-0.9912,0.5801,282,72.8149,8.1177,-53.6499,83,1.4517,1.4067,13.201,-51.3787,31,0.2541,8816,4.0051,116.9177
lg,1624882375906202364,0,-0.032,-1.0593,0.3486,283,75.3784,84.8389,-89.9048,83,1.4767,1.3647,12.1221,-50.2749,31,0.2511,9140,4.0051,111.709
lg,1624882375906218975,0,-0.3215,-1.0496,0.2612,284,53.9551,103.9429,-83.6182,83,1.4907,1.3196,12.4119,-50.2411,32,0.2441,8793,4.0051,106.0504
lg,1624882375906235809,0,-0.3433,-0.6328,0.2732,285,62.9883,34.6069,-28.6255,83,1.4957,1.2946,13.0036,-48.7088,32,0.2431,8875,4.0051,104.0933
lg,1624882375906252938,0,-0.1196,-0.4031,0.269,286,19.165,-4.1504,16.2354,83,1.4977,1.2876,13.4149,-48.0999,32,0.2431,8863,4.0051,104.5981
lg,1624882375906269697,0,0.0569,-0.6104,0.3054,287,-13.9771,7.6904,31.4331,83,1.4997,1.2906,13.799,-49.3903,32,0.2461,8895,4.0051,105.0115
lg,1624882375906286309,0,-0.0403,-0.9932,0.4343,288,-53.772,78.064,15.3198,83,1.4977,1.2966,15.7792,-52.7481,32,0.2551,8907,4.0051,102.7414
lg,1624882376276056586,0,-0.9705,-1.0195,0.5945,289,-43.6401,-15.1367,45.8984,83,1.4587,1.3527,17.8038,-54.2281,32,0.2591,26420,4.0051,104.3192
lg,1624882376276109364,0,-0.6228,-1.1011,0.6267,290,-33.9966,-279.7852,80.0171,83,1.4147,1.4057,14.0923,-52.693,32,0.2601,18754,4.0051,115.5678
lg,1624882376276130068,0,0.134,-0.9517,0.9836,291,-27.5879,-413.6353,72.5098,83,1.3967,1.4167,5.4541,-50.9137,32,0.2631,8236,4.0051,130.5492
lg,1624882376276150179,0,0.3164,-0.7722,0.0916,292,58.8379,-409.729,3.6011,83,1.3917,1.4177,-5.8327,-49.7202,32,0.2611,7801,4.0051,143.0429
lg,1624882376276169123,0,0.5508,-0.6917,0.2673,293,6.8359,-357.9102,17.2119,83,1.3867,1.4147,-15.4156,-52.2141,32,0.2621,8215,4.0051,154.8224
lg,1624882376276187956,0,0.7974,-0.8875,0.3081,294,-16.4185,-231.2622,-13.0005,83,1.3867,1.4147,-22.1879,-55.8845,32,0.2631,9557,4.0051,162.5903
lg,1624882376276206845,0,0.4961,-0.9829,-0.0693,295,-11.2305,-31.0059,-44.4946,83,1.3847,1.4177,-24.6723,-57.7095,32,0.2651,9205,4.0051,163.1878
lg,1624882376276226734,0,0.3484,-0.8447,-0.0349,296,23.4985,155.6396,11.2915,83,1.3827,1.4227,-20.9864,-55.963,32,0.2661,8684,4.0051,158.3302
lg,1624882376276245549,0,0.0859,-0.6873,0.3137,297,26.4282,240.9668,21.7285,83,1.3807,1.4277,-12.7141,-52.8108,32,0.2661,8311,4.0051,149.0369
lg,1624882376276263197,0,-0.1287,-0.4587,0.5347,298,6.8359,314.3921,35.8276,83,1.3807,1.4327,-3.0024,-50.8162,32,0.2651,7957,4.0051,139.8933
lg,1624882376276281549,0,-0.4604,-0.8232,0.7266,299,-57.0068,223.2666,38.208,83,1.3847,1.4367,4.645,-53.0767,32,0.2651,7952,4.0051,133.7847
lg,1624882376276339956,0,-0.5273,-1.2136,0.8018,300,-49.7437,157.1045,31.9214,83,1.3937,1.4417,8.4658,-54.2449,32,0.2661,8344,4.0051,131.8126
lg,1624882376276360419,0,-0.3459,-1.1492,0.825,301,6.897,24.5361,43.8843,83,1.4067,1.4427,10.6636,-53.9205,31,0.2671,8832,4.0051,132.0477
lg,1624882376276378142,0,0.0137,-0.895,0.7009,302,22.8271,-37.7197,30.8228,83,1.4217,1.4397,10.3043,-52.557,31,0.2641,8819,4.0051,134.0377
lg,1624882376276396623,0,0.1223,-0.9541,0.5454,303,34.4238,-9.1553,5.4321,83,1.4397,1.4287,9.6022,-51.4052,31,0.2701,8802,4.0051,134.405
lg,1624882376276414549,0,0.1396,-1.033,0.4336,304,45.0439,9.5825,-4.6997,83,1.4497,1.4067,9.4064,-50.1679,31,0.2631,8062,4.0051,132.6542
lg,1624882376276432049,0,0.0488,-1.0396,0.4426,305,56.8237,71.2891,-31.6162,83,1.4717,1.3637,9.8269,-49.0617,31,0.2571,8877,4.0051,129.5053
lg,1624882376276449697,0,-0.0791,-0.8784,0.3704,306,43.0908,60.3638,-23.8037,83,1.4867,1.3236,10.509,-48.4835,31,0.2541,8925,4.0051,126.8986
lg,1624882376276467623,0,-0.0425,-0.5576,0.3682,307,32.2266,61.6455,23.3154,83,1.4957,1.2996,12.5684,-47.7594,31,0.2521,8605,4.0051,125.5941
lg,1624882376276485253,0,0.0244,-0.7256,0.4866,308,-20.9351,88.3789,43.0908,83,1.4987,1.2906,15.6291,-49.3027,32,0.2541,8904,4.0051,123.9643
lg,1624882376276503105,0,-0.136,-1.031,0.6082,309,-41.0767,106.9946,43.1519,83,1.4997,1.2926,19.4983,-52.7757,32,0.2621,10049,4.0051,120.9935
lg,1624882376276546549,0,-0.3655,-1.0374,0.5945,310,-57.8613,129.8218,34.668,83,1.4957,1.2966,23.4984,-56.7287,32,0.2631,8249,4.0051,117.1915
lg,1624882376276590512,0,-0.6985,-0.9812,0.5535,311,-63.0493,71.6553,36.9263,83,1.4877,1.3196,26.5615,-60.1599,32,0.2611,8316,4.0051,115.2775
lg,1624882376276613253,0,-0.8394,-0.9905,0.5046,312,-53.4058,-41.748,47.3633,83,1.4537,1.3687,27.8073,-61.1531,32,0.2601,9038,4.0051,117.9139
lg,1624882376276632086,0,-0.6348,-0.9692,0.519,313,-42.4805,-185.1807,65.1245,83,1.4247,1.3937,26.4765,-58.8963,32,0.2591,8774,4.0051,126.5838
lg,1624882376276649771,0,-0.2996,-0.9189,0.4053,314,-37.5366,-278.3813,72.4487,83,1.3907,1.4087,22.5667,-55.7038,32,0.2581,9024,4.0051,138.4405
lg,1624882376276669716,0,0.2898,-0.8547,0.7651,315,-4.7607,-296.7529,50.354,83,1.3837,1.4097,15.8706,-51.8394,32,0.2571,8343,4.0051,149.8794
lg,1624882376276690697,0,0.387,-0.9312,0.4524,316,-18.8599,-201.4771,42.4194,83,1.3767,1.4067,10.8823,-51.2826,32,0.2561,9098,4.0051,157.3108
lg,1624882376276711253,0,0.3838,-0.9536,0.2825,317,-1.77,-101.6846,14.0991,83,1.3747,1.4037,7.6271,-51.574,32,0.2561,9535,4.0051,160.7397
lg,1624882376276729531,0,0.2759,-0.9092,0.2012,318,-4.2725,-39.1846,14.3433,83,1.3737,1.4037,6.2817,-52.458,32,0.2561,9214,4.0051,162.2241
lg,1624882376276750401,0,0.2009,-0.8438,0.2163,319,5.3711,66.8945,34.8511,83,1.3737,1.4047,8.2632,-53.276,32,0.2561,8416,4.0051,160.8223
lg,1624882376276767568,0,0.095,-0.6865,0.4224,320,3.418,130.6152,46.6309,83,1.3747,1.4097,12.2525,-53.8927,32,0.2571,9340,4.0051,157.638
lg,1624882376648601660,0,-0.1941,-1.0295,0.583,321,18.7988,122.1924,8.5449,83,1.4227,1.4307,14.7579,-53.7814,32,0.2601,27298,4.0051,153.8938
lg,1624882376648651475,0,-0.1843,-0.9321,0.4749,322,44.0063,84.5947,-5.4321,83,1.4427,1.4297,16.3978,-53.1807,32,0.2531,8773,4.0051,150.8376
lg,1624882376648674030,0,-0.2087,-0.928,0.4106,323,40.2222,80.1392,-9.2773,83,1.4557,1.4257,17.837,-52.9442,32,0.2581,7854,4.0051,147.7728
lg,1624882376648694086,0,-0.23,-0.9092,0.2954,324,40.8325,62.9272,-6.897,83,1.4657,1.4187,18.9881,-52.7869,32,0.2511,8230,4.0051,145.2468
lg,1624882376648713364,0,-0.252,-0.7876,0.343,325,45.105,73.1812,6.958,83,1.4757,1.4077,20.8867,-52.306,32,0.2481,8771,4.0051,142.7721
lg,1624882376648733678,0,-0.2302,-0.8733,0.4624,326,26.4893,71.9604,19.043,83,1.4847,1.3927,22.9335,-52.3723,32,0.2461,8905,4.0051,140.6681
lg,1624882376648752734,0,-0.2703,-0.9019,0.49,327,15.1978,67.3828,19.8975,83,1.4887,1.3767,24.697,-53.1487,32,0.2521,8779,4.0051,139.0498
lg,1624882376648772678,0,-0.3694,-0.7974,0.5259,328,-16.6626,41.5039,19.4702,83,1.4877,1.3697,26.1521,-54.3589,32,0.2591,7920,4.0051,138.0189
lg,1624882376648794067,0,-0.542,-0.9382,0.5974,329,-63.2935,29.4189,40.9546,83,1.4807,1.3777,28.1466,-57.0219,32,0.2601,8305,4.0051,137.9075
lg,1624882376648812882,0,-0.6882,-1.0132,0.5083,330,-72.876,10.6201,49.1943,83,1.4637,1.4027,29.3622,-58.9618,32,0.2611,7932,4.0051,140.788
lg,1624882376648831234,0,-0.8821,-0.8818,0.2834,331,-68.4204,-108.0933,65.6738,83,1.4337,1.4217,29.9836,-59.2231,32,0.2611,8800,4.0051,146.4047
lg,1624882376648850456,0,-0.6216,-0.9067,0.5466,332,-72.6318,-229.9805,105.7739,83,1.3867,1.4267,28.7222,-56.4473,31,0.2601,8391,4.0051,157.9248
lg,1624882376648869975,0,0.4275,-1.0754,1.5706,333,-43.2129,-320.9839,90.0269,83,1.3697,1.4107,22.672,-51.2624,31,0.2501,8421,4.0051,-187.8846
lg,1624882376648889864,0,0.3098,-1.1301,0.533,334,-1.709,-233.5205,-1.8311,83,1.3557,1.4037,15.3619,-49.3929,31,0.2451,13060,4.0051,-180.5679
lg,1624882376648907901,0,0.3066,-1.0474,0.5327,335,18.1885,-164.856,-49.3164,83,1.3517,1.4007,8.4561,-48.4061,31,0.2441,10120,4.0051,-176.9584
lg,1624882376648927160,0,0.6052,-0.8894,0.3352,336,35.5225,-141.3574,-16.9678,83,1.3517,1.4037,2.7171,-47.3011,32,0.2451,8901,4.0051,-173.3175
lg,1624882376648945697,0,0.6912,-0.8296,-0.092,337,26.4893,34.4849,-27.5269,83,1.3537,1.4057,1.3317,-47.6236,32,0.2481,8527,4.0051,-175.1419
lg,1624882376648965456,0,0.501,-0.7883,-0.2783,338,9.7046,164.7949,-42.7856,83,1.3557,1.4097,6.593,-50.0441,32,0.2481,8922,4.0051,-184.8592
lg,1624882376648983623,0,0.0454,-0.8218,-0.0593,339,2.0752,385.8643,-36.7432,83,1.3577,1.4137,14.5491,-54.0133,32,0.2491,8358,4.0051,161.74
lg,1624882376649002382,0,-0.4419,-0.8066,0.5183,340,21.7896,472.7783,-19.4702,83,1.3647,1.4217,24.6558,-59.0646,32,0.2501,8964,4.0051,144.6349
lg,1624882376649021067,0,-0.9956,-0.8301,0.6121,341,-5.7983,307.4951,-26.2451,83,1.3777,1.4327,30.1909,-65.0024,32,0.2501,8952,4.0051,131.9031
lg,1624882376649039993,0,-1.1328,-1.1072,0.5244,342,16.7847,88.1348,-23.6816,83,1.3947,1.4417,31.2369,-66.4304,32,0.2511,8300,4.0051,127.7132
lg,1624882376649059734,0,-0.9124,-1.0198,0.5681,343,37.7197,4.2114,5.188,83,1.4157,1.4457,31.7587,-64.7434,32,0.2511,8771,4.0051,127.7527
lg,1624882376649105123,0,-0.3342,-0.9602,0.7107,344,57.1899,-117.7979,15.564,83,1.4407,1.4447,29.1219,-59.4003,32,0.2511,10237,4.0051,133.1159
lg,1624882376649128197,0,0.0427,-0.9678,0.5107,345,78.7964,-142.1509,4.0283,83,1.4587,1.4287,24.9802,-53.9207,32,0.2511,8712,4.0051,138.4357
lg,1624882376649147567,0,0.2192,-1.0342,0.3835,346,78.2471,-85.022,-24.292,83,1.4707,1.4047,20.8463,-50.5733,32,0.2451,9145,4.0051,140.3978
lg,1624882376649166419,0,0.1165,-0.9158,0.3176,347,73.6694,8.7891,-33.1421,83,1.4837,1.3717,19.0583,-48.8698,32,0.2421,8812,4.0051,138.89
lg,1624882376649185586,0,-0.0347,-0.6172,0.3479,348,58.96,33.3862,-25.5127,83,1.4907,1.3417,19.4227,-48.3407,32,0.2411,8410,4.0051,136.7294
lg,1624882376649204419,0,-0.1287,-0.5227,0.3506,349,19.5923,67.8711,4.1504,83,1.4927,1.3256,21.0263,-48.5779,32,0.2421,8795,4.0051,134.5712
lg,1624882376649223030,0,-0.1733,-0.6626,0.3511,350,-35.6445,80.3223,36.0107,83,1.4947,1.3236,23.8772,-51.1769,32,0.2531,8839,4.0051,132.7166
lg,1624882376649242438,0,-0.4785,-0.989,0.6309,351,-72.6929,111.0229,27.8931,83,1.4937,1.3306,27.3223,-55.7112,32,0.2571,8496,4.0051,129.391
lg,1624882376649277012,0,-0.782,-1.033,0.5217,352,-58.7769,33.2031,58.4717,83,1.4867,1.3517,30.2589,-58.2376,32,0.2561,8897,4.0051,129.4358
lg,1624882377018944104,0,-0.6216,-1.0559,0.5759,353,-60.73,-220.52,95.8252,83,1.3967,1.4247,27.2239,-53.9955,32,0.2581,27273,4.0051,143.44
lg,1624882377018986512,0,0.2952,-0.8582,0.4773,354,39.0625,-429.8096,52.9175,83,1.3797,1.4287,16.4397,-46.9106,32,0.2571,11590,4.0051,158.825
lg,1624882377019008363,0,0.4675,-0.8765,0.3479,355,19.2871,-374.3896,41.2598,83,1.3747,1.4317,7.0713,-45.8013,32,0.2491,8164,4.0051,169.1906
lg,1624882377019058845,0,0.8079,-0.9138,0.5479,356,-13.2446,-245.7886,8.3008,83,1.3747,1.4347,-1.0417,-46.3416,32,0.2531,8137,4.0051,-183.5485
lg,1624882377019081493,0,0.5691,-0.9744,0.2314,357,-13.3667,-57.9224,-35.9497,83,1.3747,1.4377,-4.7498,-47.8905,32,0.2531,8142,4.0051,-182.7921
lg,1624882377019100512,0,0.5593,-0.9951,0.2373,358,-8.2397,28.8086,-13.3057,83,1.3747,1.4417,-2.7028,-48.5417,32,0.2571,8533,4.0051,-185.9014
lg,1624882377019119475,0,0.3215,-0.8572,0.0942,359,7.8125,185.3638,2.0752,83,1.3747,1.4427,1.4852,-49.3893,32,0.2601,9190,4.0051,168.6168
lg,1624882377019138363,0,-0.062,-0.7278,0.3635,360,3.7231,309.2041,10.0708,83,1.3767,1.4457,9.7893,-50.7084,32,0.2611,9614,4.0051,159.3579
lg,1624882377019156956,0,-0.5127,-0.6663,0.522,361,-30.2124,282.2266,17.8223,83,1.3797,1.4467,18.0123,-54.0595,32,0.2621,10231,4.0051,150.5838
lg,1624882377019176141,0,-0.751,-1.1057,0.605,362,-27.6489,156.7993,13.7939,83,1.3887,1.4537,22.4725,-57.2003,32,0.2611,8276,4.0051,145.2992
lg,1624882377019194937,0,-0.5107,-0.9763,0.6953,363,10.1318,15.1367,28.7476,91,1.4037,1.4557,23.7813,-56.6241,32,0.2631,8705,3.9996,145.4721
lg,1624882377019214771,0,-0.2761,-0.938,0.7241,364,17.2119,-30.0293,24.231,91,1.4237,1.4527,23.0577,-55.0741,32,0.2641,8642,3.9996,147.2155
lg,1624882377019234400,0,0.1245,-1.0498,0.7332,365,42.1143,-56.2134,-2.9297,91,1.4477,1.4407,20.5589,-52.6897,32,0.2581,8707,3.9996,149.0799
lg,1624882377019253308,0,0.219,-1.1084,0.4512,366,60.6079,-3.1128,-44.0674,91,1.4607,1.4137,17.9574,-51.23,32,0.2561,8372,3.9996,147.8042
lg,1624882377019298715,0,0.0391,-1.0654,0.2717,367,62.439,64.1479,-79.1626,91,1.4767,1.3787,16.3804,-50.9461,32,0.2511,8765,3.9996,143.3304
lg,1624882377019318715,0,-0.0793,-0.9265,0.2424,368,61.4014,75.9277,-73.7305,91,1.4877,1.3467,15.7986,-50.4242,32,0.2491,8833,3.9996,138.7394
lg,1624882377019337104,0,-0.1274,-0.5317,0.2737,369,39.856,85.8154,-17.8223,91,1.4927,1.3256,17.2878,-50.2384,32,0.2481,8797,3.9996,135.3709
lg,1624882377019356123,0,-0.1345,-0.6694,0.3862,370,-9.5215,119.0796,12.5122,91,1.4957,1.3196,20.3507,-52.1659,32,0.2491,8098,3.9996,131.6593
lg,1624882377019374382,0,-0.1675,-0.8369,0.5271,371,-23.9258,133.5449,21.3013,91,1.4967,1.3246,23.9787,-55.4149,32,0.2521,8100,3.9996,127.2595
lg,1624882377019393234,0,-0.4797,-1.0325,0.541,372,-36.1938,120.9106,8.9111,91,1.4967,1.3377,26.8082,-58.9672,32,0.2601,8885,3.9996,122.8564
lg,1624882377019411104,0,-0.7046,-0.9272,0.5176,373,-46.3257,57.6172,32.4707,91,1.4917,1.3587,29.3246,-61.6005,32,0.2571,8546,3.9996,121.277
lg,1624882377019429604,0,-0.8672,-1.0439,0.4851,374,-47.7905,-27.1606,26.2451,91,1.4777,1.3887,30.0471,-62.7927,32,0.2561,8891,3.9996,122.8887
lg,1624882377019449067,0,-0.7998,-1.0483,0.5288,375,-46.3867,-87.5244,33.9355,91,1.4527,1.4117,28.8885,-60.6302,32,0.2571,8285,3.9996,130.5603
lg,1624882377019467197,0,-0.6541,-0.9746,0.4182,376,-35.4614,-245.7275,56.6406,91,1.4077,1.4267,25.9199,-57.2886,32,0.2571,9004,3.9996,141.255
lg,1624882377019485715,0,0.0422,-0.7695,0.8423,377,-28.5645,-357.8491,58.5938,91,1.3877,1.4247,18.6218,-52.4693,32,0.2551,8955,3.9996,155.5339
lg,1624882377019503308,0,0.0657,-0.6384,-0.1094,378,51.3306,-332.3975,3.2349,91,1.3807,1.4207,9.7175,-49.488,32,0.2551,8935,3.9996,165.6691
lg,1624882377019521234,0,0.6226,-0.8696,0.626,379,-25.7568,-207.6416,15.625,91,1.3787,1.4217,3.4001,-49.8826,32,0.2541,8851,3.9996,-187.58
lg,1624882377019539715,0,0.3989,-1.0259,0.2122,380,-18.4937,-66.9556,-9.2163,91,1.3767,1.4257,0.5116,-51.5533,32,0.2561,9791,3.9996,-185.7839
lg,1624882377019557752,0,0.4553,-1.0527,0.2808,381,-11.2305,-9.7046,15.1978,91,1.3767,1.4277,2.1572,-51.9148,32,0.2561,8810,3.9996,-186.7893
lg,1624882377019576271,0,0.4753,-0.8918,0.3577,382,17.334,134.5215,37.5366,91,1.3757,1.4287,5.5498,-52.0069,32,0.2561,9175,3.9996,169.8575
lg,1624882377019594123,0,0.0977,-0.6619,0.5032,383,-0.1831,246.46,23.0713,91,1.3767,1.4327,11.7448,-53.1457,32,0.2561,9125,3.9996,162.5094
lg,1624882377019611993,0,-0.2485,-0.8347,0.5461,384,-32.5317,231.5674,19.8364,91,1.3837,1.4377,17.7738,-56.4547,32,0.2571,9119,3.9996,155.1269
lg,1624882377397926308,0,-0.1121,-0.9578,0.6318,385,22.1558,61.0352,4.2114,91,1.4407,1.4447,18.2806,-56.0145,31,0.2641,27598,3.9996,152.8645
lg,1624882377397963641,0,-0.0906,-1.011,0.3816,386,45.2881,84.8389,-30.8838,91,1.4587,1.4237,18.6278,-55.9156,31,0.2581,8872,3.9996,148.9967
lg,1624882377397984530,0,-0.1897,-1.0449,0.4121,387,51.5137,107.0557,-43.335,91,1.4747,1.3847,19.231,-55.914,32,0.2531,10381,3.9996,144.056
lg,1624882377398004808,0,-0.2939,-1.0266,0.3599,388,48.9502,106.2012,-43.5791,91,1.4867,1.3457,19.9941,-55.9966,32,0.2501,8233,3.9996,140.2146
lg,1624882377398046345,0,-0.3506,-0.8596,0.2776,389,40.2222,56.8237,-18.0054,91,1.4937,1.3066,20.7337,-55.8549,32,0.2481,8651,3.9996,137.5621
lg,1624882377398066067,0,-0.2629,-0.5164,0.3643,390,28.6865,19.2871,26.7944,91,1.4947,1.2986,22.1178,-54.6635,32,0.2491,8915,3.9996,137.5536
lg,1624882377398096252,0,-0.0833,-0.6821,0.312,391,-10.498,21.1182,59.9365,91,1.4987,1.2906,23.9499,-55.2347,31,0.2511,8945,3.9996,138.1236
lg,1624882377398115419,0,-0.3083,-1.0552,0.543,392,-34.9121,41.5649,51.8188,91,1.4987,1.2886,26.2792,-58.4751,31,0.2591,8299,3.9996,136.4585
lg,1624882377398133493,0,-0.5701,-1.0869,0.7563,393,-64.27,78.7964,34.668,91,1.4957,1.2876,28.9084,-61.9599,31,0.2601,8329,3.9996,134.2091
lg,1624882377398151178,0,-0.9148,-0.9434,0.3406,394,-58.8379,-32.7148,51.0254,91,1.4847,1.3146,30.6507,-63.3689,31,0.2561,8799,3.9996,136.4916
lg,1624882377398168993,0,-1.0103,-0.8828,0.4011,395,-48.8281,-158.6304,68.5425,91,1.4617,1.3517,30.7596,-61.2625,32,0.2561,8411,3.9996,144.4967
lg,1624882377398186585,0,-0.7134,-0.978,0.5283,396,-57.312,-314.6973,96.4355,91,1.4197,1.3867,27.6781,-56.4105,32,0.2551,11077,3.9996,159.0969
lg,1624882377398204271,0,-0.103,-0.9863,0.564,397,-49.4995,-437.0728,103.6377,91,1.3877,1.4007,19.9124,-51.2654,32,0.2471,8868,3.9996,-183.0468
lg,1624882377398221622,0,0.4612,-0.9404,0.3555,398,28.6255,-420.4712,41.8091,91,1.3747,1.4047,8.7283,-47.2504,32,0.2481,14006,3.9996,-169.1601
lg,1624882377398239271,0,0.9448,-1.0195,0.6221,399,-20.2637,-248.7183,33.3252,91,1.3717,1.4047,1.3631,-47.6528,32,0.2471,8848,3.9996,-160.9664
lg,1624882377398257104,0,0.7136,-0.9263,0.1814,400,-5.0049,-55.8472,-10.8643,91,1.3727,1.4077,-1.8454,-48.779,32,0.2461,8527,3.9996,-159.598
lg,1624882377398274771,0,0.6465,-0.9509,0.1465,401,-8.667,49.4995,-12.4512,91,1.3747,1.4107,-0.0516,-49.9565,32,0.2471,8114,3.9996,-163.516
lg,1624882377398291882,0,0.4714,-0.978,0.1396,402,8.8501,183.8989,-0.7935,91,1.3777,1.4137,3.6037,-50.8559,32,0.2501,8502,3.9996,-169.2057
lg,1624882377398309715,0,0.1196,-0.8713,0.071,403,18.4326,318.7256,4.6997,91,1.3777,1.4177,11.1551,-52.6936,32,0.2511,9178,3.9996,-179.2365
lg,1624882377398327178,0,-0.4177,-0.5591,0.2253,404,15.8081,370.7275,6.5918,91,1.3807,1.4227,20.8578,-56.0042,32,0.2521,8680,3.9996,168.3269
lg,1624882377398345122,0,-0.6562,-0.4585,0.408,405,-3.7842,345.2759,15.686,91,1.3887,1.4287,28.2772,-61.2621,32,0.2491,8230,3.9996,157.9874
lg,1624882377398362122,0,-0.9839,-1.105,0.7405,406,-23.6816,201.4771,18.4937,91,1.4067,1.4357,32.791,-66.0756,32,0.2511,9224,3.9996,150.0527
lg,1624882377398384826,0,-0.636,-1.1853,0.8147,407,36.0107,-6.4087,15.686,91,1.4307,1.4337,32.9045,-63.8432,32,0.2491,9131,3.9996,150.8921
lg,1624882377398404178,0,-0.1465,-0.9976,0.5535,408,73.6084,-101.6846,-14.6484,91,1.4517,1.4217,29.476,-58.7898,32,0.2511,9114,3.9996,154.7726
lg,1624882377398422308,0,0.0291,-1.019,0.3567,409,76.355,-75.9888,-48.2178,91,1.4677,1.3917,25.0838,-55.4968,32,0.2491,9061,3.9996,156.1842
lg,1624882377398440178,0,-0.072,-1.0264,0.2441,410,75.6836,3.2349,-65.3687,91,1.4837,1.3517,22.2695,-54.0704,32,0.2471,9162,3.9996,154.0408
lg,1624882377398548215,0,-0.1545,-0.8943,0.2258,411,67.5049,7.9956,-59.2651,91,1.4917,1.3216,20.5599,-52.1762,32,0.2471,8823,3.9996,153.1979
lg,1624882377398570826,0,-0.1731,-0.3025,0.2649,412,46.0815,-20.3247,-4.0894,91,1.4937,1.3136,20.0301,-49.9959,32,0.2521,8724,3.9996,153.8184
lg,1624882377398589641,0,-0.0322,-0.675,0.3823,413,-52.002,15.3198,36.9263,91,1.4927,1.3226,20.8782,-52.3268,32,0.2601,8438,3.9996,154.1584
lg,1624882377398661585,0,-0.3855,-1.0447,0.4482,414,-66.5894,90.271,38.9404,91,1.4827,1.3457,24.1542,-56.3927,32,0.2571,9563,3.9996,151.7526
lg,1624882377398706734,0,-0.8921,-0.9314,0.5332,415,-40.2222,42.4194,44.9219,91,1.4677,1.3777,27.1752,-58.3402,32,0.2571,10705,3.9996,151.1759
lg,1624882377398727919,0,-1.1123,-0.9541,0.6328,416,-50.5371,-99.1211,50.7812,91,1.4427,1.3997,27.4826,-57.9819,32,0.2551,8866,3.9996,156.2146
lg,1624882377767366770,0,0.2017,-0.8796,0.3333,417,18.4326,-419.0674,39.5508,91,1.3747,1.4227,17.3381,-51.3245,32,0.2541,28108,3.9996,-188.2409
lg,1624882377767401085,0,0.74,-0.8342,0.0908,418,-9.0942,-343.9941,29.3579,91,1.3727,1.4197,10.0183,-50.21,31,0.2551,8694,3.9996,-180.0145
lg,1624882377767421752,0,0.7661,-0.8259,-0.0234,419,-12.085,-129.3335,27.1606,91,1.3737,1.4217,8.619,-51.5999,31,0.2551,9731,3.9996,-179.0225
lg,1624882377767441826,0,0.7957,-0.9949,0.2615,420,-4.2725,90.5151,24.9634,91,1.3767,1.4257,9.9885,-52.8601,31,0.2551,7857,3.9996,-181.4061
lg,1624882377767460993,0,0.479,-1.04,0.4094,421,17.5781,252.6855,5.5542,91,1.3837,1.4327,14.8789,-54.4974,32,0.2521,8541,3.9996,170.3076
lg,1624882377767479659,0,-0.0608,-0.7432,0.4653,422,14.0991,327.2705,-5.249,91,1.3957,1.4407,21.5208,-57.6919,32,0.2521,9826,3.9996,158.754
lg,1624882377767498881,0,-0.2844,-0.8159,0.5361,423,-5.127,316.2231,-8.5449,91,1.4107,1.4457,27.4234,-63.1156,32,0.2541,8258,3.9996,146.4633
lg,1624882377767517270,0,-0.5696,-1.1003,0.6506,424,-1.0376,229.126,-17.6392,91,1.4307,1.4437,30.4101,-67.7508,32,0.2581,8493,3.9996,136.687
lg,1624882377767556993,0,-0.531,-0.9675,0.5496,425,42.8467,105.2246,-10.9253,91,1.4487,1.4337,31.3706,-68.1474,31,0.2541,9382,3.9996,132.1061
lg,1624882377767575826,0,-0.3145,-1.0576,0.5959,426,56.1523,35.4004,-10.3149,91,1.4637,1.4127,30.8757,-66.4444,31,0.2521,8339,3.9996,130.5645
lg,1624882377767593696,0,-0.2239,-1.0671,0.5676,427,65.0024,17.395,-14.6484,91,1.4787,1.3827,29.8389,-64.1566,31,0.2511,8053,3.9996,129.6402
lg,1624882377767611270,0,-0.1208,-0.8977,0.3813,428,60.9741,-22.2168,-25.5127,91,1.4877,1.3597,27.6524,-61.6657,31,0.2501,8791,3.9996,129.9378
lg,1624882377767629233,0,-0.0518,-0.4014,0.2493,429,29.9072,-28.5034,17.5781,91,1.4897,1.3557,26.8782,-59.618,32,0.2621,8385,3.9996,131.5052
lg,1624882377767646326,0,0.0054,-0.8215,0.4636,430,-68.8477,47.3022,43.1519,91,1.4887,1.3637,28.2458,-62.8127,32,0.2641,8619,3.9996,130.5801
lg,1624882377767664456,0,-0.5354,-1.0359,0.5107,431,-75.2563,104.0649,46.5698,91,1.4757,1.3877,31.5161,-67.5633,32,0.2601,11297,3.9996,127.1046
lg,1624882377767682252,0,-0.9939,-0.8452,0.6169,432,-59.9365,78.8574,49.9878,91,1.4567,1.4107,34.2728,-69.2555,32,0.2581,8533,3.9996,126.8611
lg,1624882377767699252,0,-1.0867,-0.8564,0.697,433,-49.3774,-45.0439,50.6592,91,1.4277,1.4267,35.969,-68.8842,32,0.2531,8563,3.9996,130.1685
lg,1624882377767716437,0,-0.9006,-1.0957,0.593,434,-53.6499,-215.9424,58.8379,91,1.3957,1.4387,34.7418,-64.4181,32,0.2531,8609,3.9996,141.2208
lg,1624882377767733678,0,-0.1506,-0.937,0.498,435,22.7051,-338.4399,40.8325,91,1.3827,1.4377,28.4433,-55.7148,32,0.2471,8605,3.9996,155.8953
lg,1624882377767750733,0,0.0964,-0.9292,0.4534,436,5.6763,-344.7876,26.062,91,1.3727,1.4337,19.6493,-51.5846,31,0.2441,8149,3.9996,167.9135
lg,1624882377767768770,0,0.4954,-0.8909,0.3391,437,2.7466,-286.6821,6.1646,91,1.3677,1.4297,10.9842,-49.6262,31,0.2441,8997,3.9996,-183.0041
lg,1624882377767786122,0,0.6228,-0.8193,0.1516,438,-11.7188,-91.6138,12.207,91,1.3657,1.4287,7.3786,-50.4825,31,0.2441,8213,3.9996,-180.0041
lg,1624882377767803826,0,0.6003,-0.9194,0.2146,439,-9.2773,89.7217,17.6392,91,1.3667,1.4307,8.7271,-52.0372,31,0.2451,8862,3.9996,-182.4867
lg,1624882377767821178,0,0.4849,-0.9204,0.1541,440,-1.2207,156.0059,10.8643,91,1.3687,1.4347,13.1639,-54.1103,32,0.2451,8650,3.9996,170.3476
lg,1624882377767838419,0,0.1458,-0.9441,0.3154,441,9.0332,285.0952,2.3193,91,1.3757,1.4427,18.8173,-57.1274,32,0.2461,9035,3.9996,160.4865
lg,1624882377767867326,0,-0.3,-0.7493,0.4622,442,-0.6104,316.2231,-2.3804,91,1.3877,1.4497,25.1237,-61.6147,32,0.2471,9052,3.9996,148.7115
lg,1624882377767885770,0,-0.6846,-1.0166,0.5149,443,-14.5264,229.7974,-13.7939,91,1.4007,1.4557,28.8243,-66.5732,32,0.2491,9621,3.9996,139.1342
lg,1624882377767903252,0,-0.6792,-1.1255,0.584,444,11.5356,81.1157,-2.1362,91,1.4187,1.4577,29.9594,-67.6337,31,0.2491,8813,3.9996,135.7436
lg,1624882377767920696,0,-0.2878,-0.9502,0.6492,445,45.5933,-39.5508,4.8218,91,1.4397,1.4527,28.891,-64.4191,31,0.2491,9209,3.9996,137.7478
lg,1624882377767937733,0,-0.1008,-0.9299,0.5352,446,60.2417,-65.3687,4.2725,91,1.4567,1.4387,26.9369,-60.5483,31,0.2491,8748,3.9996,140.5311
lg,1624882377767954900,0,0.1313,-1.0125,0.4158,447,60.791,-55.0537,-22.644,91,1.4697,1.4097,23.7874,-57.7566,31,0.2471,9183,3.9996,141.9436
lg,1624882377768057678,0,0.1213,-0.9941,0.3184,448,67.688,12.146,-47.6685,91,1.4807,1.3827,21.3317,-56.263,32,0.2451,9291,3.9996,140.1199
lg,1624882378137455474,0,-0.2917,-0.6355,0.3936,449,-28.9917,118.6523,15.4419,91,1.4937,1.3477,24.3569,-60.2775,32,0.2611,27577,3.9996,136.1734
lg,1624882378137486622,0,-0.7444,-1.0317,0.5337,450,-60.8521,91.1255,24.4141,91,1.4887,1.3607,27.2217,-64.1264,32,0.2581,8707,3.9996,133.0467
lg,1624882378137507455,0,-1.0444,-0.9055,0.3828,451,-51.3306,30.2734,28.0762,91,1.4767,1.3837,28.7606,-64.8192,32,0.2561,8288,3.9996,135.0321
lg,1624882378137526807,0,-1.0791,-0.8955,0.4114,452,-32.1045,-94.2993,51.4526,91,1.4567,1.4077,29.7172,-63.6884,32,0.2551,8301,3.9996,139.9617
lg,1624882378137545474,0,-0.885,-0.9663,0.5476,453,-40.7715,-240.5396,77.1484,91,1.4257,1.4267,28.2569,-59.6718,32,0.2541,8287,3.9996,151.39
lg,1624882378137563955,0,-0.2012,-0.9895,0.8645,454,-33.2642,-386.4136,85.4492,91,1.3957,1.4357,21.9281,-53.6252,32,0.2531,9142,3.9996,167.823
lg,1624882378137581900,0,0.1816,-0.8542,0.8589,455,13.916,-430.2979,60.1807,91,1.3827,1.4357,11.0321,-49.0334,32,0.2521,8851,3.9996,-177.895
lg,1624882378137599807,0,0.5947,-0.8455,0.4875,456,-14.4653,-383.0566,34.2407,91,1.3757,1.4307,0.5334,-48.7093,32,0.2491,8265,3.9996,-165.5489
lg,1624882378137617400,0,0.7717,-0.8416,0.1631,457,-12.0239,-236.0229,18.3105,91,1.3727,1.4277,-6.5239,-50.4177,32,0.2501,8666,3.9996,-157.8797
lg,1624882378137634752,0,0.738,-0.9546,0.0552,458,-21.6064,-1.4648,17.8833,91,1.3747,1.4297,-7.2098,-52.3947,32,0.2501,8732,3.9996,-157.2453
lg,1624882378137652085,0,0.7329,-1.0425,0.2751,459,-7.4463,106.9946,27.2827,91,1.3757,1.4317,-4.6425,-52.9931,32,0.2511,8354,3.9996,-159.9347
lg,1624882378137669770,0,0.3674,-0.9585,0.3245,460,15.0146,270.874,14.6484,91,1.3757,1.4357,1.6982,-52.8498,32,0.2511,8762,3.9996,-168.1685
lg,1624882378137687844,0,-0.1794,-0.7312,0.3877,461,9.8877,343.2007,3.2349,91,1.3787,1.4407,10.3344,-53.9695,32,0.2521,8399,3.9996,-179.1439
lg,1624882378137705215,0,-0.4102,-0.5972,0.5356,462,-0.7935,330.2612,5.6152,91,1.3847,1.4467,17.5378,-56.9407,32,0.2551,8010,3.9996,-188.4328
lg,1624882378137722492,0,-0.6807,-1.0566,0.6765,463,-23.0103,201.7822,-0.7324,91,1.3947,1.4527,22.0993,-60.3501,32,0.2491,8018,3.9996,164.2093
lg,1624882378137760474,0,-0.5195,-1.1628,0.593,464,12.207,64.1479,2.9297,91,1.4187,1.4557,22.2715,-59.5296,31,0.2561,12138,3.9996,163.4652
lg,1624882378137779307,0,-0.1929,-0.938,0.5667,465,40.9546,-6.4087,-5.3101,91,1.4387,1.4477,21.4704,-57.8118,31,0.2601,8922,3.9996,163.5902
lg,1624882378137807474,0,-0.0933,-0.9438,0.3464,466,53.1006,0.4883,-26.7334,91,1.4547,1.4257,19.9686,-56.4126,31,0.2531,8914,3.9996,162.7638
lg,1624882378137825752,0,-0.084,-1.042,0.3674,467,61.9507,32.7148,-40.7715,91,1.4717,1.3857,18.7606,-55.2214,31,0.2521,9247,3.9996,160.4409
lg,1624882378137843437,0,-0.158,-0.9011,0.3396,468,55.9082,31.5552,-29.541,91,1.4877,1.3337,18.1693,-54.1282,32,0.2491,8996,3.9996,158.448
lg,1624882378137860807,0,-0.2026,-0.5437,0.3467,469,44.0674,19.9585,13.1836,91,1.4947,1.2926,19.0334,-52.5999,32,0.2491,10001,3.9996,158.0629
lg,1624882378137877863,0,-0.1748,-0.5649,0.2817,470,22.4609,21.3013,34.6069,91,1.4967,1.2856,21.0199,-53.1727,32,0.2521,9000,3.9996,158.3876
lg,1624882378137894696,0,-0.2595,-0.7688,0.3491,471,-40.8936,24.7192,47.1191,91,1.4957,1.2886,22.9735,-55.1723,32,0.2601,8682,3.9996,158.5312
lg,1624882378137911844,0,-0.5317,-1.0815,0.6614,472,-68.4204,51.2085,61.8286,91,1.4887,1.3036,26.1358,-58.1864,31,0.2571,8549,3.9996,158.0845
lg,1624882378137928678,0,-0.9419,-0.8127,0.3384,473,-60.8521,-60.3638,56.7017,91,1.4687,1.3387,27.6346,-59.2372,31,0.2561,9125,3.9996,161.5931
lg,1624882378137946066,0,-1.0757,-0.7915,0.4077,474,-67.2607,-130.4321,65.0635,91,1.4417,1.3717,27.4189,-57.7552,31,0.2541,8439,3.9996,171.4089
lg,1624882378137963529,0,-0.894,-0.9199,0.5037,475,-81.2988,-286.1328,114.8682,83,1.4007,1.3927,24.9446,-55.2753,32,0.2501,9190,4.0084,-175.2622
lg,1624882378137980585,0,-0.1567,-1.0918,0.6899,476,-76.9653,-442.0166,127.4414,83,1.3737,1.3937,17.8903,-51.7025,32,0.2521,9194,4.0084,-156.9474
lg,1624882378137997437,0,0.4006,-0.9761,0.4109,477,1.0986,-431.3965,66.4062,83,1.3567,1.3987,7.5849,-48.8495,32,0.2511,9235,4.0084,-141.9383
lg,1624882378138014863,0,0.9246,-1.251,0.7935,478,-22.522,-258.728,47.3022,83,1.3517,1.4007,0.831,-49.3425,32,0.2491,8952,4.0084,-132.9109
lg,1624882378138032252,0,0.804,-1.0156,0.3093,479,-9.6436,-130.3711,-20.813,83,1.3497,1.4037,-4.5305,-50.5458,32,0.2491,8605,4.0084,-129.4473
lg,1624882378138049548,0,0.7891,-0.9834,0.1677,480,-6.6528,-30.5176,-10.6812,83,1.3527,1.4077,-4.323,-51.0738,32,0.2521,9272,4.0084,-131.5312
lg,1624882378511747492,0,-0.3892,-0.7344,0.2324,481,26.4282,388.7939,-37.1094,83,1.3747,1.4227,6.0348,-50.881,32,0.2521,27920,4.0084,-143.9641
lg,1624882378511837566,0,-0.9282,-0.7026,0.4148,482,1.8311,324.1577,-28.5034,83,1.3887,1.4287,14.6076,-53.0134,32,0.2571,8722,4.0084,-155.0587
lg,1624882378511870844,0,-1.0708,-1.0977,0.5767,483,8.3618,130.3101,-15.3198,83,1.4097,1.4307,18.1779,-54.2801,32,0.2531,9031,4.0084,-159.8973
lg,1624882378511902603,0,-0.3242,-0.9692,0.6694,484,65.7349,-95.8862,-1.4648,83,1.4377,1.4267,15.7023,-50.771,32,0.2521,11768,4.0084,-156.7603
lg,1624882378511931788,0,-0.1021,-0.9583,0.6362,485,74.1577,-124.1455,-11.5356,83,1.4557,1.4147,11.7023,-47.1916,32,0.2531,8551,4.0084,-153.2831
lg,1624882378511961622,0,0.2578,-1.0222,0.519,486,83.6182,-98.7549,-46.3257,83,1.4737,1.3867,6.7214,-44.2144,32,0.2501,8573,4.0084,-151.8716
lg,1624882378511991770,0,0.2195,-1.0183,0.3647,487,65.6738,0.3662,-68.0542,83,1.4857,1.3527,4.1786,-42.7587,32,0.2451,7879,4.0084,-153.9858
lg,1624882378512021566,0,0.1294,-0.9861,0.3047,488,50.9033,36.1938,-66.1621,83,1.4917,1.3206,3.035,-42.0356,31,0.2431,8223,4.0084,-157.0058
lg,1624882378512049918,0,-0.0117,-0.6763,0.2959,489,45.5322,97.3511,-28.0151,83,1.4947,1.3016,5.1069,-41.3913,31,0.2421,9088,4.0084,-160.4954
lg,1624882378512078381,0,-0.1558,-0.5474,0.293,490,3.9062,122.5586,-5.7373,83,1.4967,1.2946,8.9449,-42.4256,31,0.2431,8900,4.0084,-164.043
lg,1624882378512107566,0,-0.3047,-0.8262,0.4712,491,-45.2881,130.0659,13.5498,83,1.4977,1.2926,13.398,-45.5367,31,0.2451,8881,4.0084,-167.448
lg,1624882378512137770,0,-0.4211,-0.9998,0.448,492,-54.8096,125.3662,22.7661,83,1.4977,1.2946,17.4171,-49.1185,31,0.2451,8302,4.0084,-170.3435
lg,1624882378512165400,0,-0.7119,-1.0264,0.5352,493,-51.3916,74.9512,21.3623,83,1.4967,1.3056,20.5251,-52.2471,31,0.2491,8724,4.0084,-172.3846
lg,1624882378512248955,0,-0.9119,-0.9341,0.5833,494,-33.7524,-25.0244,33.1421,83,1.4937,1.3226,21.7169,-53.1542,31,0.2501,8762,4.0084,-170.7377
lg,1624882378512279881,0,-0.7368,-0.9873,0.6235,495,-24.353,-181.8848,37.9028,83,1.4857,1.3437,18.9325,-51.7926,32,0.2501,8003,4.0084,-163.6465
lg,1624882378512308529,0,-0.5737,-1.0491,0.6382,496,-24.9023,-243.3472,45.6543,83,1.4647,1.3697,14.2873,-50.5802,32,0.2501,8807,4.0084,-154.6748
lg,1624882378512343344,0,-0.2537,-1.0317,0.4434,497,-28.8696,-339.5386,49.5605,83,1.4317,1.3947,7.1692,-50.139,32,0.2491,8490,4.0084,-142.9412
lg,1624882378512372640,0,-0.002,-0.8132,0.2976,498,-34.6069,-371.9482,58.6548,83,1.4007,1.4107,-0.6078,-51.5393,32,0.2461,8139,4.0084,-130.0648
lg,1624882378512401881,0,0.5393,-0.7351,0.5105,499,-23.6206,-357.7881,58.5938,83,1.3937,1.4097,-9.6447,-51.3576,32,0.2441,8850,4.0084,-119.5474
lg,1624882378512429863,0,0.5046,-0.72,0.1853,500,8.1787,-284.2407,-0.4883,83,1.3867,1.4027,-17.4642,-53.9925,32,0.2441,8243,4.0084,-110.1288
lg,1624882378512458270,0,0.8752,-0.9072,0.4041,501,-37.5977,-187.3779,-11.3525,83,1.3837,1.3987,-22.9113,-58.0547,32,0.2441,8109,4.0084,-103.6303
lg,1624882378512486233,0,0.5986,-1.03,0.0244,502,-20.6299,67.9932,-24.4751,83,1.3807,1.4007,-22.7137,-58.7553,32,0.2451,9429,4.0084,-106.2804
lg,1624882378512515770,0,0.5208,-1.0657,0.4031,503,13.9771,264.8315,5.127,83,1.3797,1.4027,-16.9264,-55.4233,32,0.2451,9025,4.0084,-115.4616
lg,1624882378512544066,0,0.0176,-0.8562,0.292,504,7.6904,353.2715,-19.2871,83,1.3777,1.4037,-8.7677,-53.0333,32,0.2451,8997,4.0084,-127.4373
lg,1624882378512609640,0,-0.4373,-0.8105,0.4893,505,-3.54,372.3755,-19.165,83,1.3777,1.4077,0.8935,-52.6783,32,0.2471,8964,4.0084,-139.446
lg,1624882378512645492,0,-0.6287,-0.7168,0.6189,506,-8.2397,311.7065,-6.6528,83,1.3797,1.4127,9.3123,-53.7822,32,0.2481,8228,4.0084,-149.6035
lg,1624882378512674344,0,-0.7188,-0.9387,0.6567,507,-25.8789,119.6289,-3.54,83,1.3837,1.4207,12.8148,-55.6088,31,0.2491,9020,4.0084,-153.6876
lg,1624882378512706011,0,-0.4021,-1.0925,0.5752,508,-1.1597,-17.8833,10.6201,83,1.3897,1.4317,12.9715,-55.708,31,0.2501,9437,4.0084,-152.8894
lg,1624882378512734677,0,-0.0483,-0.9702,0.3562,509,10.1318,-84.5337,12.6953,83,1.3967,1.4377,11.0938,-55.2023,31,0.2511,8779,4.0084,-149.8717
lg,1624882378512765585,0,0.0195,-0.8999,0.3003,510,13.4277,-79.2847,11.2305,83,1.4087,1.4417,9.6844,-54.8873,31,0.2521,9121,4.0084,-147.818
lg,1624882378512794177,0,0.136,-0.8564,0.3887,511,18.7988,-27.771,21.9116,83,1.4267,1.4417,9.0657,-54.3154,31,0.2531,9158,4.0084,-146.461
lg,1624882378512821900,0,0.2939,-0.9602,0.6401,512,15.686,34.729,5.5542,83,1.4447,1.4357,9.1525,-53.9156,31,0.2501,9194,4.0084,-147.4879
lg,1624882378884714547,0,-0.1074,-0.9829,0.446,513,49.1333,110.8398,-29.7241,83,1.4847,1.3497,10.7409,-53.1328,32,0.2521,27527,4.0084,-151.3424
lg,1624882378884758788,0,-0.3301,-0.7341,0.325,514,49.6826,44.7998,1.709,83,1.4907,1.3296,12.3428,-51.9014,32,0.2511,8780,4.0084,-152.8363
lg,1624882378884781714,0,-0.2773,-0.499,0.2244,515,28.0762,7.3853,53.894,83,1.4937,1.3306,14.7887,-50.9993,32,0.2521,7799,4.0084,-151.7963
lg,1624882378884801714,0,-0.2927,-0.5444,0.1548,516,-0.1831,-8.0566,59.2041,83,1.4937,1.3417,16.9599,-51.3251,32,0.2621,8629,4.0084,-150.2052
lg,1624882378884821659,0,-0.3042,-0.9326,0.6069,517,-87.2803,15.2588,61.7676,83,1.4887,1.3547,19.2244,-54.6933,32,0.2591,8554,4.0084,-149.2223
lg,1624882378884873455,0,-0.6108,-1.02,0.3408,518,-72.0825,-29.1748,90.271,83,1.4677,1.3837,21.9845,-57.0449,32,0.2561,9250,4.0084,-146.2415
lg,1624882378884895122,0,-0.9224,-0.6934,0.394,519,-70.0073,-125.6104,103.5767,83,1.4317,1.4107,23.7853,-57.1871,31,0.2541,9442,4.0084,-139.2578
lg,1624882378884914122,0,-0.9485,-0.7644,0.6018,520,-80.2612,-163.3301,123.3521,83,1.3947,1.4217,24.8407,-56.5015,31,0.2531,7957,4.0084,-130.2246
lg,1624882378884932436,0,-0.366,-1.1338,1.3608,521,-76.9653,-338.7451,131.897,83,1.3767,1.4207,20.8901,-52.9365,31,0.2491,8343,4.0084,-114.6993
lg,1624882378884950325,0,0.1653,-1.2527,0.9211,522,-12.4512,-444.6411,77.8198,83,1.3687,1.4217,11.1481,-48.9465,31,0.2481,8043,4.0084,-98.4707
lg,1624882378884970325,0,0.5049,-1.0842,0.4192,523,-4.5776,-392.8833,5.0659,83,1.3667,1.4207,-0.2319,-48.6811,32,0.2481,8936,4.0084,-86.6793
lg,1624882378884989659,0,0.5413,-0.9077,0.2903,524,-3.1738,-347.4731,-16.0522,83,1.3667,1.4237,-10.7633,-50.5672,32,0.2481,8396,4.0084,-76.4906
lg,1624882378885009085,0,0.9448,-0.9009,0.1394,525,7.6294,-221.6187,25.0854,83,1.3717,1.4267,-16.7671,-52.9308,32,0.2501,8398,4.0084,-68.5129
lg,1624882378885028751,0,1.177,-0.9717,0.1216,526,9.1553,15.1367,17.4561,83,1.3777,1.4307,-17.1486,-53.2865,32,0.2521,8797,4.0084,-68.3645
lg,1624882378885047622,0,1.0034,-0.9836,0.0813,527,10.3149,176.7578,-13.3667,83,1.3837,1.4337,-14.1152,-52.3337,32,0.2531,8131,4.0084,-74.228
lg,1624882378885070196,0,0.3364,-0.9641,0.0293,528,23.4985,435.4248,-51.4526,83,1.3867,1.4367,-5.2098,-50.1592,32,0.2541,8168,4.0084,-88.9095
lg,1624882378885091251,0,-0.4412,-0.7021,0.1318,529,29.3579,499.6338,-52.3071,83,1.3987,1.4397,7.8646,-49.5764,32,0.2561,12301,4.0084,-105.3102
lg,1624882378885111714,0,-1.0457,-0.5269,0.4258,530,-3.9673,394.7144,-32.2266,83,1.4067,1.4417,18.396,-52.8154,32,0.2581,8922,4.0084,-118.7302
lg,1624882378885130659,0,-1.2798,-1.1123,0.571,531,-20.6299,180.542,-5.7373,83,1.4137,1.4427,23.3988,-56.2012,32,0.2601,8258,4.0084,-125.291
lg,1624882378885150103,0,-0.9385,-1.0332,0.5771,532,10.8643,-48.7671,34.729,83,1.4187,1.4447,24.0301,-54.8489,32,0.2631,9070,4.0084,-122.7231
lg,1624882378885168770,0,-0.4265,-0.8616,0.5569,533,19.7754,-127.8076,48.1567,83,1.4237,1.4447,21.4777,-51.2333,32,0.2641,9048,4.0084,-115.2634
lg,1624882378885187251,0,0.0613,-1.0525,0.7734,534,15.7471,-195.4956,54.0161,83,1.4367,1.4427,17.0727,-48.1044,32,0.2651,10004,4.0084,-107.6008
lg,1624882378885206010,0,0.2629,-1.0996,0.7439,535,28.3203,-186.9507,37.2314,83,1.4517,1.4387,12.008,-45.6009,32,0.2581,8400,4.0084,-101.0299
lg,1624882378885224881,0,0.5979,-1.074,0.769,536,53.9551,-132.9346,-17.0898,83,1.4697,1.4327,6.4171,-43.2358,32,0.2561,8730,4.0084,-97.8455
lg,1624882378885244233,0,0.6431,-1.0278,0.5435,537,59.6313,1.6479,-66.5283,83,1.4837,1.4087,3.3713,-41.6674,32,0.2521,8430,4.0084,-99.9484
lg,1624882378885263585,0,0.2952,-1.0581,0.1924,538,36.0718,135.6201,-87.6465,83,1.4927,1.3747,4.353,-41.9941,32,0.2471,10674,4.0084,-106.2696
lg,1624882378885300936,0,-0.145,-0.4539,0.0845,539,32.959,156.0059,-85.7544,83,1.4937,1.3667,7.4227,-42.6061,32,0.2491,8470,4.0084,-111.7138
lg,1624882378885324344,0,-0.1467,-0.3059,0.1143,540,-6.7139,137.146,-9.9487,83,1.4947,1.3677,11.7793,-44.5062,32,0.2521,9140,4.0084,-115.9769
lg,1624882378885342862,0,-0.259,-0.8799,0.24,541,-87.8296,205.5664,27.9541,83,1.4917,1.3847,18.3168,-50.5765,32,0.2561,8428,4.0084,-121.7205
lg,1624882378885361751,0,-0.7981,-1.0981,0.5308,542,-78.9185,209.7168,36.8652,83,1.4847,1.4077,25.025,-56.5449,32,0.2521,9148,4.0084,-128.2228
lg,1624882378885380029,0,-1.4348,-0.96,0.7026,543,-59.2651,65.7349,50.5981,83,1.4627,1.4237,29.0787,-59.4141,32,0.2511,8628,4.0084,-129.5189
lg,1624882378885399122,0,-1.4797,-1.0508,0.5486,544,-61.3403,-93.6279,41.8091,83,1.4287,1.4357,26.3759,-56.8282,32,0.2501,9279,4.0084,-119.1341
lg,1624882379257563232,0,0.6057,-0.9131,0.2275,545,27.3438,-635.6812,61.9507,83,1.3737,1.4307,11.9916,-50.103,32,0.2361,28107,4.0084,-96.9346
lg,1624882379257608862,0,1.2991,-0.8442,-0.2092,546,-23.9258,-252.7466,107.4829,83,1.3747,1.4277,6.8324,-50.2866,32,0.2361,16945,4.0084,-86.5196
lg,1624882379257629603,0,1.4001,-1.0725,-0.05,547,-23.9258,-18.9209,118.7134,83,1.3767,1.4317,8.2123,-51.0656,32,0.2361,8599,4.0084,-82.9328
lg,1624882379257649399,0,1.4194,-1.3674,0.6902,548,-0.7324,163.9404,36.5601,83,1.3787,1.4377,11.6375,-52.1825,32,0.2371,8624,4.0084,-87.2781
lg,1624882379257668788,0,0.6118,-0.9785,-0.0439,549,36.2549,342.5293,-58.5327,83,1.3827,1.4427,16.3418,-55.1281,32,0.2381,7869,4.0084,-100.2636
lg,1624882379257688825,0,-0.0029,-0.8547,0.0669,550,30.0903,503.1738,-50.415,83,1.3877,1.4477,24.5058,-61.9657,32,0.2391,11095,4.0084,-119.8405
lg,1624882379257708010,0,-0.5957,-0.626,0.2722,551,14.6484,466.4917,-24.353,83,1.3947,1.4517,31.6665,-70.9086,32,0.2401,8655,4.0084,-139.645
lg,1624882379257726621,0,-0.8733,-0.5657,0.2031,552,3.1738,395.2026,-16.4795,83,1.4007,1.4537,35.292,-78.8708,32,0.2411,8708,4.0084,-153.6693
lg,1624882379257744640,0,-1.1753,-0.8127,0.4517,553,-17.0898,208.252,3.418,83,1.4077,1.4547,37.2306,-85.0681,32,0.2481,8693,4.0084,-163.6077
lg,1624882379257763714,0,-0.877,-0.9338,0.5757,554,-1.5259,30.7617,51.8799,83,1.4157,1.4557,39.3049,-84.9115,32,0.2501,11176,4.0084,-164.3216
lg,1624882379257813769,0,-0.4915,-0.8711,0.5217,555,10.8643,-90.8203,54.5044,83,1.4247,1.4557,40.5706,-80.0322,32,0.2481,9235,4.0084,-158.5201
lg,1624882379257836232,0,-0.1667,-0.9341,0.6755,556,17.334,-118.6523,49.8657,83,1.4347,1.4527,40.3488,-73.7268,32,0.2521,8380,4.0084,-151.0645
lg,1624882379257856232,0,0.1521,-1.0403,0.7793,557,30.8838,-123.291,10.6201,83,1.4487,1.4457,37.5502,-67.6346,32,0.2471,8792,4.0084,-144.3221
lg,1624882379257873269,0,0.2209,-1.0525,0.616,558,43.9453,-100.647,-18.0664,83,1.4687,1.4287,32.8922,-64.3559,31,0.2481,8847,4.0084,-142.492
lg,1624882379257891140,0,0.1924,-1.0962,0.5869,559,47.4243,-13.7329,-83.313,83,1.4857,1.3907,28.1647,-62.9302,31,0.2441,8886,4.0084,-143.5805
lg,1624882379257910288,0,-0.1169,-1.0376,0.2026,560,43.0298,49.4385,-101.0742,83,1.4907,1.3567,24.6294,-63.6758,31,0.2411,8474,4.0084,-147.8909
lg,1624882379257927121,0,-0.3557,-0.3879,0.1201,561,26.5503,13.2446,-43.396,83,1.4937,1.3537,23.9648,-63.4634,32,0.2471,8890,4.0084,-149.3711
lg,1624882379257945158,0,-0.3992,-0.7864,0.3032,562,-21.5454,59.5703,4.9438,83,1.4937,1.3617,26.9461,-67.4759,32,0.2541,8114,4.0084,-152.8919
lg,1624882379257985140,0,-0.5571,-1.0842,0.3652,563,-69.5801,107.7881,34.6069,83,1.4917,1.3807,29.6571,-72.3255,32,0.2511,8138,4.0084,-157.0249
lg,1624882379258006584,0,-0.9448,-1.1355,0.6047,564,-42.7246,13.6719,23.7427,83,1.4817,1.3987,30.9935,-73.78,32,0.2491,8286,4.0084,-157.1199
lg,1624882379258023140,0,-1.0532,-0.8621,0.4319,565,-25.3296,-167.6636,45.0439,83,1.4617,1.4157,31.3129,-70.2319,32,0.2481,8991,4.0084,-148.8117
lg,1624882379258042103,0,-0.8328,-0.9529,0.3008,566,-31.189,-263.7939,49.2554,83,1.4377,1.4287,28.5107,-63.7822,32,0.2491,9130,4.0084,-133.183
lg,1624882379258060084,0,-0.6055,-0.9319,0.2373,567,-27.832,-415.0391,77.3315,83,1.4127,1.4357,23.3057,-57.5487,32,0.2391,8956,4.0084,-115.6937
lg,1624882379258078825,0,0.1553,-0.9182,0.384,568,-22.8882,-516.8457,90.4541,83,1.4007,1.4327,13.3236,-52.589,32,0.2341,8962,4.0084,-96.0879
lg,1624882379258097399,0,0.8196,-0.8877,0.1338,569,-3.1128,-494.9951,79.6509,83,1.3947,1.4307,1.8648,-51.1837,32,0.2341,9005,4.0084,-78.8021
lg,1624882379258114769,0,1.3052,-1.0491,0.0076,570,-57.1289,-303.1006,79.5288,83,1.3957,1.4297,-4.6761,-54.5991,32,0.2411,8660,4.0084,-67.241
lg,1624882379258132899,0,1.4094,-1.3452,0.3015,571,-42.8467,-157.5317,61.4624,83,1.3967,1.4317,-4.7326,-55.8332,32,0.2431,9151,4.0084,-66.1184
lg,1624882379258169214,0,1.3079,-1.3315,0.3923,572,19.4092,116.0889,26.6113,83,1.3977,1.4377,-2.6722,-55.3446,32,0.2421,9192,4.0084,-69.332
lg,1624882379258189918,0,0.5925,-0.8689,0.2244,573,65.979,339.1724,-47.6685,83,1.4057,1.4467,2.4628,-53.3531,32,0.2451,11530,4.0084,-81.4183
lg,1624882379258207584,0,0.3186,-0.8342,0.1992,574,58.6548,402.8931,-60.3027,83,1.4157,1.4507,9.2129,-53.3293,32,0.2441,8742,4.0084,-95.8164
lg,1624882379258225103,0,-0.207,-0.7351,0.3254,575,42.5415,456.2988,-59.7534,83,1.4307,1.4537,17.9548,-56.0736,32,0.2461,8782,4.0084,-112.5084
lg,1624882379258242325,0,-0.6287,-0.7715,0.3584,576,19.7754,394.165,-57.373,83,1.4467,1.4507,24.8487,-61.3426,32,0.2491,9171,4.0084,-128.2994
lg,1624882379632567991,0,-0.8325,-0.7402,0.2834,577,-12.0239,34.0576,21.1182,83,1.4517,1.4437,26.8874,-62.2957,32,0.2641,27549,4.0084,-129.253
lg,1624882379632607140,0,-0.9141,-0.8418,0.4758,578,-54.0161,-57.7393,104.5532,83,1.4367,1.4557,30.1535,-62.2041,31,0.2631,8761,4.0084,-124.6852
lg,1624882379632627380,0,-0.9583,-0.8601,0.4946,579,-71.106,-125.6714,117.3706,83,1.4017,1.4647,32.496,-61.0008,31,0.2621,8653,4.0084,-116.9053
lg,1624882379632647473,0,-0.6794,-0.7546,0.8914,580,-66.7114,-282.2266,137.6953,83,1.3817,1.4597,31.1997,-55.0669,31,0.2611,9705,4.0084,-101.7801
lg,1624882379632666436,0,-0.1741,-1.0632,0.655,581,-37.0483,-410.9497,119.6289,83,1.3717,1.4557,23.9496,-48.4209,32,0.2601,8611,4.0084,-84.1078
lg,1624882379632684417,0,0.387,-1.2397,0.4885,582,-29.9683,-443.1152,43.7622,83,1.3677,1.4517,11.8597,-45.8245,32,0.2591,8481,4.0084,-69.6851
lg,1624882379632702343,0,0.7227,-0.9705,0.2229,583,-28.3813,-310.9131,31.311,83,1.3667,1.4527,2.5862,-46.6419,32,0.2601,8807,4.0084,-59.9884
lg,1624882379632720880,0,1.0193,-1.0317,0.3459,584,-17.0898,-235.4126,37.5977,83,1.3697,1.4557,-4.2608,-48.1189,32,0.2611,8688,4.0084,-52.0694
lg,1624882379632738380,0,1.2441,-1.0806,0.2219,585,5.6152,-24.4141,13.0005,84,1.3727,1.4587,-6.1102,-48.7385,32,0.2631,8419,4.0029,-50.9271
lg,1624882379632756195,0,0.8269,-1.0869,0.1575,586,27.0386,260.9253,-45.4712,84,1.3817,1.4637,-1.7766,-48.0272,32,0.2641,8414,4.0029,-59.8538
lg,1624882379632773547,0,0.0945,-1.0691,0.0732,587,33.6304,376.8921,-68.2373,84,1.3937,1.4687,7.4384,-48.8837,32,0.2621,8764,4.0029,-75.2254
lg,1624882379632790880,0,-0.2097,-0.998,0.1284,588,30.8228,472.1069,-82.9468,84,1.4077,1.4737,16.9723,-52.5388,32,0.2601,8827,4.0029,-92.3401
lg,1624882379632808010,0,-0.7568,-0.7761,0.3567,589,28.0151,406.7383,-64.6362,84,1.4297,1.4727,25.0686,-57.5215,32,0.2571,9656,4.0029,-108.2682
lg,1624882379632825140,0,-0.9636,-0.9387,0.4214,590,27.2827,228.2715,-56.8237,84,1.4457,1.4667,28.4183,-61.2202,32,0.2571,10523,4.0029,-118.4902
lg,1624882379632842047,0,-0.7036,-1.1099,0.4077,591,52.002,41.748,-29.2358,84,1.4557,1.4567,28.295,-60.5476,32,0.2561,8440,4.0029,-120.9473
lg,1624882379632859399,0,-0.2412,-0.9805,0.3933,592,84.4727,-56.3354,-13.1226,84,1.4647,1.4407,26.0898,-56.6527,32,0.2481,8544,4.0029,-119.2607
lg,1624882379632876195,0,0.0493,-0.7659,0.2952,593,81.9702,-85.022,-12.207,84,1.4777,1.4157,22.2606,-52.888,32,0.2481,8557,4.0029,-116.2336
lg,1624882379632907066,0,0.1255,-0.4875,0.1299,594,35.2173,-54.3823,15.7471,84,1.4787,1.4117,20.155,-51.5547,32,0.2521,8924,4.0029,-114.329
lg,1624882379632926510,0,0.0063,-0.6526,0.3655,595,-48.0347,49.0112,61.8286,84,1.4727,1.4227,22.5007,-53.8672,32,0.2631,8577,4.0029,-114.5203
lg,1624882379632943473,0,-0.2185,-0.8843,0.4954,596,-78.2471,98.0835,81.7261,84,1.4587,1.4377,27.7329,-58.3667,32,0.2611,8597,4.0029,-116.2414
lg,1624882379632960547,0,-0.8069,-0.9641,0.4119,597,-86.4258,69.7632,84.6558,84,1.4237,1.4507,32.414,-62.5571,32,0.2601,8972,4.0029,-117.2876
lg,1624882379632977529,0,-1.3328,-0.77,0.6069,598,-99.2432,-44.4336,117.6758,84,1.3747,1.4577,36.6308,-63.6394,32,0.2591,8730,4.0029,-112.628
lg,1624882379632994899,0,-0.7061,-0.8804,1.3555,599,-43.2739,-295.7764,113.9526,84,1.3567,1.4527,34.2047,-55.1658,32,0.2571,8812,4.0029,-96.5487
lg,1624882379633014732,0,0.2441,-1.4001,1.0461,600,-35.8276,-446.167,52.6123,84,1.3507,1.4507,23.3466,-48.1538,31,0.2531,8785,4.0029,-79.2697
lg,1624882379633032269,0,0.2881,-1.1729,0.5417,601,-25.8789,-437.5,-2.5635,84,1.3487,1.4517,10.8631,-46.16,31,0.2521,9179,4.0029,-68.1539
lg,1624882379633049436,0,0.6228,-0.981,0.3191,602,-10.5591,-337.1582,1.3428,84,1.3517,1.4537,0.176,-46.4682,31,0.2531,8446,4.0029,-58.5245
lg,1624882379633153121,0,1.0149,-0.928,0.0591,603,-3.6011,-208.8623,14.4043,84,1.3517,1.4547,-6.7155,-47.9496,31,0.2551,8756,4.0029,-51.9836
lg,1624882379633175251,0,0.9756,-0.9307,-0.0171,604,-1.0986,95.52,-21.6675,84,1.3547,1.4577,-6.33,-48.6664,31,0.2561,8847,4.0029,-55.3069
lg,1624882379633193695,0,0.7139,-0.9607,0.0183,605,1.6479,248.7793,-38.3911,84,1.3587,1.4607,1.1056,-49.1277,31,0.2591,8461,4.0029,-67.3607
lg,1624882379633212177,0,0.0452,-0.9856,0.1494,606,6.5918,433.0444,-48.645,84,1.3627,1.4637,10.4465,-51.5602,31,0.2591,8464,4.0029,-81.9267
lg,1624882379633311806,0,-0.5901,-0.9246,0.3389,607,14.8926,416.2598,-44.3115,84,1.3717,1.4687,19.6597,-55.4875,32,0.2601,8481,4.0029,-96.919
lg,1624882379633334658,0,-1.0181,-0.7263,0.4507,608,6.4087,248.23,-30.2124,84,1.3837,1.4727,25.1073,-58.9959,32,0.2611,8846,4.0029,-106.7023
lg,1624882380042672491,0,-0.0291,-1.0042,0.4917,609,49.5605,-162.7197,19.104,84,1.4367,1.4717,21.3033,-54.6997,32,0.2661,27104,4.0029,-100.4392
lg,1624882380042712954,0,0.3652,-1.031,0.4062,610,60.9131,-117.5537,-20.5078,84,1.4517,1.4537,16.4337,-51.6929,32,0.2561,15134,4.0029,-97.2107
lg,1624882380042734417,0,0.3657,-1.0081,0.3599,611,66.5283,-78.125,-25.0854,84,1.4657,1.4377,13.2107,-49.2619,32,0.2551,8794,4.0029,-96.289
lg,1624882380042756510,0,0.3936,-0.8115,0.3188,612,71.7773,-17.8833,-2.3804,84,1.4747,1.4247,11.3121,-46.9924,32,0.2531,7854,4.0029,-95.9977
lg,1624882380042798065,0,0.2424,-0.5005,0.2483,613,36.438,80.5054,23.8647,84,1.4787,1.4167,12.9212,-46.5035,31,0.2561,8541,4.0029,-97.8623
lg,1624882380042816954,0,-0.0491,-0.752,0.4546,614,-5.6152,112.3657,31.9824,84,1.4787,1.4197,17.5694,-49.6737,31,0.2681,8586,4.0029,-100.9926
lg,1624882380042836213,0,-0.4897,-1.0935,0.7429,615,-73.2422,167.6025,57.251,84,1.4697,1.4307,23.5692,-54.2856,31,0.2641,8769,4.0029,-105.2127
lg,1624882380042855676,0,-0.8418,-0.8267,0.3821,616,-51.3306,24.7803,61.3403,84,1.4497,1.4447,26.8887,-56.4005,31,0.2641,8651,4.0029,-104.7295
lg,1624882380042874288,0,-0.9629,-0.6541,0.3723,617,-57.4341,-32.1655,75.7446,84,1.4187,1.4557,29.6797,-57.3189,31,0.2621,8651,4.0029,-101.6816
lg,1624882380042892176,0,-1.0522,-0.8284,0.5479,618,-81.9092,-138.2446,108.6426,84,1.3807,1.4607,30.9761,-56.4403,31,0.2611,8250,4.0029,-93.5433
lg,1624882380042930362,0,-0.2346,-1.0891,1.2473,619,-50.9033,-320.1904,123.7793,84,1.3647,1.4587,26.535,-50.5463,31,0.2581,9076,4.0029,-78.1818
lg,1624882380042949028,0,0.4358,-1.248,0.9009,620,-30.8838,-403.1982,60.1196,84,1.3537,1.4587,16.2194,-46.5887,31,0.2551,8970,4.0029,-63.7061
lg,1624882380042966862,0,0.5432,-1.155,0.5759,621,-28.2593,-382.6904,18.4937,84,1.3507,1.4577,4.8697,-46.1661,31,0.2541,8008,4.0029,-52.1708
lg,1624882380042984788,0,0.7039,-0.9304,0.2744,622,-19.8975,-252.2583,8.667,84,1.3507,1.4587,-3.1906,-47.6692,31,0.2541,8796,4.0029,-44.6352
lg,1624882380043002436,0,0.8892,-1.0417,0.2817,623,-14.3433,-87.3413,6.897,84,1.3527,1.4607,-6.6382,-49.268,31,0.2551,8386,4.0029,-41.7626
lg,1624882380043019825,0,0.8032,-1.0239,0.0913,624,8.7891,97.4731,-20.2637,84,1.3557,1.4627,-5.9505,-49.573,32,0.2561,8825,4.0029,-45.155
lg,1624882380043037695,0,0.3079,-1.0022,-0.0471,625,19.8975,303.2837,-40.8936,84,1.3597,1.4667,0.1058,-49.7433,32,0.2581,9655,4.0029,-55.2952
lg,1624882380043055602,0,0.0503,-1.0015,0.0505,626,26.123,372.7417,-38.7573,84,1.3667,1.4717,9.7835,-50.4619,32,0.2581,8874,4.0029,-68.74
lg,1624882380043073602,0,-0.436,-0.8811,0.3696,627,51.3916,397.3389,-31.4941,84,1.3777,1.4747,19.2221,-52.4417,32,0.2601,8928,4.0029,-82.4184
lg,1624882380043091232,0,-0.781,-0.6411,0.4319,628,24.4751,257.3242,-26.6113,84,1.3907,1.4797,25.3801,-55.2217,32,0.2601,8572,4.0029,-92.1224
lg,1624882380043108750,0,-0.9006,-0.98,0.511,629,13.6108,98.999,-22.2168,84,1.4047,1.4807,27.3734,-56.7808,32,0.2571,8941,4.0029,-96.4568
lg,1624882380043126250,0,-0.4412,-1.0186,0.5869,630,41.2598,-36.9873,5.7983,84,1.4217,1.4787,26.4659,-54.5704,32,0.2641,8957,4.0029,-94.9993
lg,1624882380043144565,0,-0.2681,-0.9729,0.5083,631,52.002,-79.9561,0.8545,84,1.4377,1.4717,23.8041,-51.6563,32,0.2601,8973,4.0029,-92.3314
lg,1624882380043164954,0,0.0623,-0.9165,0.499,632,67.0166,-91.98,-3.6621,84,1.4477,1.4597,20.3196,-48.2934,32,0.2601,8194,4.0029,-89.5858
lg,1624882380043183880,0,0.1824,-0.9548,0.5244,633,60.5469,-31.189,-17.8223,84,1.4597,1.4367,17.846,-46.2553,32,0.2581,9016,4.0029,-89.3298
lg,1624882380043201917,0,0.1462,-0.9424,0.4146,634,46.0815,14.8315,-22.2168,84,1.4727,1.4047,16.6655,-45.5395,32,0.2551,8321,4.0029,-90.6774
lg,1624882380043265862,0,0.1135,-0.8606,0.4272,635,46.0205,40.5884,-14.4653,84,1.4817,1.3787,16.66,-44.6006,32,0.2541,9106,4.0029,-92.4378
lg,1624882380043289139,0,-0.0657,-0.5264,0.3958,636,26.8555,92.1631,26.062,84,1.4847,1.3747,19.573,-44.4714,32,0.2571,9098,4.0029,-94.4844
lg,1624882380043307732,0,-0.2849,-0.6709,0.4397,637,-50.7202,112.1216,38.208,84,1.4837,1.3877,23.7634,-47.8387,32,0.2671,9217,4.0029,-96.9983
lg,1624882380043327028,0,-0.6284,-1.0525,0.6133,638,-81.0547,114.9902,63.1104,84,1.4737,1.4067,28.7612,-52.4732,32,0.2631,8759,4.0029,-99.3373
lg,1624882380043345491,0,-0.8521,-0.8877,0.3589,639,-57.312,-18.8599,85.6934,84,1.4517,1.4277,31.5728,-53.7253,31,0.2631,9178,4.0029,-96.5197
lg,1624882380043363195,0,-1.0725,-0.7468,0.5161,640,-60.4248,-65.1245,86.6089,84,1.4157,1.4407,32.6091,-53.1152,31,0.2591,9210,4.0029,-89.4155
lg,1624882380382394213,0,-0.0054,-1.1062,0.5105,641,-8.5449,-404.0527,85.022,84,1.3517,1.4457,23.0801,-45.8765,32,0.2521,26266,4.0029,-73.2382
lg,1624882380382436121,0,0.5938,-1.231,0.7266,642,-37.1704,-370.3613,27.771,84,1.3467,1.4447,12.3561,-44.4273,32,0.2521,10302,4.0029,-64.264
lg,1624882380382456750,0,0.6267,-0.9253,0.1936,643,-24.292,-244.5068,-10.1318,84,1.3467,1.4467,3.6344,-45.5089,32,0.2541,8133,4.0029,-57.8005
lg,1624882380382476047,0,0.7488,-0.9431,0.1018,644,-17.4561,-106.4453,-10.8643,84,1.3487,1.4477,-1.0916,-47.2304,32,0.2551,7884,4.0029,-55.0643
lg,1624882380382494435,0,0.7485,-1.0356,0.1443,645,5.249,89.9658,-9.8267,84,1.3557,1.4517,-0.2619,-48.0335,32,0.2571,12125,4.0029,-57.9668
lg,1624882380382513158,0,0.2686,-1.0159,0.127,646,21.9727,277.6489,-39.978,84,1.3637,1.4567,5.2962,-48.8266,32,0.2571,10298,4.0029,-67.3208
lg,1624882380382531917,0,-0.2871,-0.9141,0.2861,647,37.5366,362.9761,-43.7012,84,1.3727,1.4627,13.7854,-50.2722,32,0.2601,8000,4.0029,-79.6998
lg,1624882380382550602,0,-0.6777,-0.6843,0.4751,648,37.1704,336.4258,-32.2876,84,1.3857,1.4687,20.7766,-52.3957,32,0.2591,8720,4.0029,-89.5
lg,1624882380382567935,0,-0.7915,-0.8252,0.4954,649,8.9111,198.5474,-32.2876,84,1.4007,1.4717,25.104,-55.2865,32,0.2591,8111,4.0029,-97.3836
lg,1624882380382586750,0,-0.6252,-1.051,0.6128,650,24.6582,33.5693,-21.4844,84,1.4187,1.4707,25.2357,-55.2078,32,0.2531,7953,4.0029,-99.2136
lg,1624882380382605010,0,-0.2119,-0.98,0.4927,651,49.8657,-62.1948,-14.1602,84,1.4387,1.4647,22.7746,-52.8046,32,0.2631,9067,4.0029,-97.5242
lg,1624882380382650343,0,0.0745,-0.9539,0.5042,652,57.9224,-74.9512,-22.9492,84,1.4487,1.4547,19.1957,-50.2026,32,0.2591,8441,4.0029,-95.7919
lg,1624882380382671176,0,0.1643,-0.9512,0.4983,653,58.3496,-48.7061,-30.1514,84,1.4587,1.4417,15.9735,-48.1479,32,0.2551,8099,4.0029,-95.2496
lg,1624882380382688565,0,0.1814,-0.8584,0.3665,654,52.9175,-17.2119,-28.6865,84,1.4687,1.4297,13.669,-46.8413,32,0.2561,8151,4.0029,-95.74
lg,1624882380382705324,0,0.0706,-0.5552,0.2102,655,32.959,29.7852,14.5874,84,1.4727,1.4267,14.1505,-46.5186,32,0.2651,8151,4.0029,-96.4366
lg,1624882380382723084,0,0.0498,-0.5564,0.2649,656,-4.2725,60.9741,37.2314,84,1.4727,1.4317,16.1825,-47.6116,32,0.2701,8165,4.0029,-97.4138
lg,1624882380382740695,0,-0.2427,-0.8872,0.6116,657,-65.5518,119.6899,50.1099,84,1.4697,1.4417,20.6512,-51.3094,32,0.2691,8164,4.0029,-99.968
lg,1624882380382759232,0,-0.5986,-1.0042,0.394,658,-67.3218,62.2559,67.5049,84,1.4567,1.4537,24.6377,-54.7793,32,0.2641,8215,4.0029,-100.61
lg,1624882380382777380,0,-0.8352,-0.679,0.4424,659,-46.7529,-29.2969,82.8857,84,1.4187,1.4677,27.5263,-55.0637,32,0.2621,14520,4.0029,-97.3531
lg,1624882380382795676,0,-0.8137,-0.7979,0.5854,660,-66.5283,-147.9492,104.7363,84,1.3917,1.4697,27.9797,-53.8353,32,0.2611,8771,4.0029,-89.1293
lg,1624882380382813824,0,-0.1614,-1.0339,0.8918,661,-39.6118,-287.1094,104.7363,84,1.3797,1.4657,23.3838,-49.638,32,0.2571,9768,4.0029,-76.2087
lg,1624882380382831917,0,0.3335,-1.155,0.8135,662,-33.1421,-308.7158,67.749,84,1.3717,1.4637,15.9184,-47.2313,32,0.2551,8379,4.0029,-64.6422
lg,1624882380382849547,0,0.4604,-0.9219,0.2749,663,-5.0049,-237.6099,22.1558,84,1.3707,1.4637,8.6716,-46.6928,31,0.2561,9176,4.0029,-57.1876
lg,1624882380382868454,0,0.6711,-0.9976,0.4592,664,-11.2305,-166.8701,22.8271,84,1.3747,1.4657,5.1886,-47.2877,31,0.2551,8499,4.0029,-53.7952
lg,1624882380382886954,0,0.7649,-1.0442,0.5017,665,2.6855,-44.8608,12.8784,84,1.3837,1.4697,2.9514,-47.6101,31,0.2571,9103,4.0029,-52.1685
lg,1624882380382905269,0,0.7554,-1.0747,0.3433,666,20.9351,84.8389,-15.1367,84,1.3937,1.4757,3.4263,-47.7182,32,0.2591,8449,4.0029,-55.136
lg,1624882380382939065,0,0.3792,-1.0803,0.1724,667,27.5269,262.9395,-62.9883,84,1.4097,1.4807,7.6633,-48.7259,32,0.2591,8478,4.0029,-64.7519
lg,1624882380382959898,0,-0.1492,-0.9795,0.2112,668,29.2969,323.5474,-77.7588,84,1.4257,1.4837,14.2714,-51.0674,32,0.2591,8891,4.0029,-77.8916
lg,1624882380382977695,0,-0.332,-0.8184,0.2754,669,39.856,341.1865,-71.167,84,1.4377,1.4817,20.5344,-54.1881,32,0.2531,8477,4.0029,-91.2119
lg,1624882380382995287,0,-0.6885,-0.7585,0.2744,670,30.8838,267.5781,-59.6924,84,1.4437,1.4807,25.2862,-57.7811,32,0.2621,8499,4.0029,-102.477
lg,1624882380383090398,0,-0.8943,-0.905,0.3286,671,-2.6245,130.6152,-35.4004,84,1.4457,1.4827,27.397,-60.8485,32,0.2671,8539,4.0029,-108.4858
lg,1624882380383134491,0,-0.9944,-0.8142,0.218,672,-14.3433,61.5845,-9.8877,84,1.4427,1.4897,28.9662,-61.6698,32,0.2691,8915,4.0029,-107.9021
lg,1624882380752701769,0,-0.2744,-0.989,0.4077,673,-9.6436,-269.5923,99.3042,84,1.4137,1.4947,23.7763,-55.2003,32,0.2681,28002,4.0029,-92.7759
lg,1624882380752739583,0,0.188,-1.009,0.4026,674,-20.2026,-390.9302,61.8896,84,1.4077,1.4917,14.9908,-51.5285,32,0.2651,8634,4.0029,-78.5787
lg,1624882380752760139,0,0.5923,-0.8987,0.3171,675,-0.7324,-273.4375,58.8379,84,1.4097,1.4917,8.3138,-50.124,32,0.2651,10705,4.0029,-68.6206
lg,1624882380752780917,0,0.9465,-1.0588,0.6714,676,4.3945,-137.7563,35.2783,84,1.4147,1.4937,4.2469,-49.5997,32,0.2651,8530,4.0029,-63.5122
lg,1624882380752800232,0,0.9185,-1.0715,0.3953,677,11.1694,12.8784,-15.1367,84,1.4237,1.4967,2.5746,-49.8036,32,0.2661,10521,4.0029,-64.3439
lg,1624882380752819269,0,0.5283,-1.0645,0.3362,678,23.1934,209.7168,-60.791,84,1.4317,1.4977,5.0168,-50.195,32,0.2661,8625,4.0029,-72.3793
lg,1624882380752837657,0,0.0688,-0.936,0.3816,679,34.79,281.9214,-75.3174,84,1.4407,1.4947,10.1781,-50.8804,31,0.2641,9869,4.0029,-84.4286
lg,1624882380752856157,0,-0.4011,-0.7644,0.1582,680,25.5127,274.5361,-82.3975,84,1.4427,1.4827,14.9927,-53.195,31,0.2641,10826,4.0029,-95.5281
lg,1624882380752877157,0,-0.5767,-0.7366,0.1572,681,25.0244,227.7832,-79.3457,84,1.4437,1.4747,18.5692,-55.7724,31,0.2651,7930,4.0029,-105.4064
lg,1624882380752922695,0,-0.7217,-0.645,0.2893,682,5.127,142.5781,-12.5732,84,1.4437,1.4737,22.2789,-57.7309,31,0.2681,8327,4.0029,-110.903
lg,1624882380752943454,0,-0.675,-0.9734,0.55,683,-39.4897,50.9644,51.0864,84,1.4437,1.4817,25.4136,-59.7018,31,0.2711,7956,4.0029,-111.6974
lg,1624882380752962676,0,-0.7668,-1.0286,0.574,684,-45.4712,36.1938,76.355,84,1.4277,1.4907,29.0665,-61.4229,31,0.2641,8333,4.0029,-111.4561
lg,1624882380752981695,0,-0.8955,-0.856,0.4329,685,-43.0908,-104.8584,94.9707,84,1.4007,1.4967,30.8826,-59.9922,31,0.2651,9456,4.0029,-105.1033
lg,1624882380753000565,0,-0.5793,-0.5674,0.6951,686,-9.7656,-256.5918,83.374,84,1.3877,1.4917,28.2261,-53.6758,31,0.2621,8814,4.0029,-92.7213
lg,1624882380753018954,0,-0.103,-1.1016,0.6489,687,-55.1758,-360.7788,71.4722,84,1.3767,1.4877,20.739,-50.1625,31,0.2571,8776,4.0029,-78.51
lg,1624882380753038491,0,0.2322,-0.9436,0.259,688,-31.5552,-407.1655,46.6919,84,1.3697,1.4837,10.4781,-48.3595,31,0.2541,8867,4.0029,-65.4852
lg,1624882380753058157,0,0.4727,-0.9214,0.3135,689,-23.0103,-340.0269,53.1006,84,1.3647,1.4807,1.8112,-48.8106,31,0.2531,8860,4.0029,-54.0121
lg,1624882380753079306,0,0.8596,-0.9746,0.4404,690,-10.6201,-196.7773,57.8613,84,1.3657,1.4797,-3.0124,-49.8012,32,0.2561,8850,4.0029,-46.5507
lg,1624882380753098954,0,0.8467,-1.0811,0.4641,691,-12.6953,-4.0283,34.79,84,1.3657,1.4807,-3.2751,-50.888,32,0.2571,8897,4.0029,-45.5028
lg,1624882380753118991,0,0.5405,-1.0532,0.3425,692,5.9204,142.395,6.8359,84,1.3677,1.4817,-0.3913,-51.2397,32,0.2591,8950,4.0029,-49.7281
lg,1624882380753136620,0,0.3831,-0.9861,0.3179,693,14.5874,180.1147,-2.4414,84,1.3717,1.4837,3.9494,-51.4006,32,0.2611,8945,4.0029,-56.5885
lg,1624882380753158324,0,0.1526,-0.9121,0.3032,694,22.8271,234.1309,-15.625,84,1.3767,1.4857,8.7144,-52.1205,32,0.2631,8968,4.0029,-64.4253
lg,1624882380753177657,0,-0.1289,-0.9138,0.2461,695,21.1792,245.9717,-21.6064,84,1.3837,1.4887,13.8917,-53.8326,32,0.2631,8621,4.0029,-73.0913
lg,1624882380753196287,0,-0.3516,-0.8198,0.269,696,24.6582,214.9048,-14.3433,84,1.3947,1.4927,18.6919,-55.665,32,0.2631,11017,4.0029,-80.9134
lg,1624882380753214454,0,-0.4678,-0.7676,0.2966,697,28.1982,139.4653,1.4038,86,1.4057,1.4937,22.2548,-56.726,32,0.2641,8290,4.0007,-85.99
lg,1624882380753232009,0,-0.3679,-0.8025,0.4128,698,42.7246,48.0347,15.9912,86,1.4197,1.4927,23.841,-55.7776,32,0.2651,9291,4.0007,-87.4325
lg,1624882380753251398,0,0.0178,-0.9893,0.5742,699,54.8096,7.4463,29.1748,86,1.4337,1.4887,23.3438,-52.9792,32,0.2641,9144,4.0007,-86.2673
lg,1624882380753270120,0,0.114,-1.052,0.5835,700,66.04,-22.7051,9.2773,86,1.4477,1.4797,21.9911,-50.2903,32,0.2551,9123,4.0007,-85.4067
lg,1624882380753326361,0,0.3081,-1.0344,0.4287,701,75.6836,-18.7988,-13.3667,86,1.4657,1.4607,19.7596,-47.8819,32,0.2531,9186,4.0007,-85.4621
lg,1624882380753351324,0,0.334,-0.9033,0.3291,702,82.2144,53.9551,-12.6343,86,1.4777,1.4437,19.4809,-46.1443,32,0.2511,8851,4.0007,-87.8216
lg,1624882380753371028,0,0.1746,-0.5505,0.2266,703,66.04,132.3853,7.6904,86,1.4837,1.4307,22.0805,-45.7204,32,0.2501,9309,4.0007,-91.9639
lg,1624882380753389398,0,-0.0876,-0.4341,0.2236,704,4.8218,174.1333,42.7246,86,1.4837,1.4337,27.6089,-48.0497,32,0.2611,8849,4.0007,-96.5538
lg,1624882381167213194,0,-1.0383,-0.8311,0.4619,705,-48.9502,174.0723,80.1392,86,1.4377,1.4667,34.3682,-51.2015,31,0.2541,27401,4.0007,-98.9441
lg,1624882381167291213,0,-1.4011,-0.655,0.6541,706,-52.5513,6.1646,90.21,86,1.3857,1.4737,38.183,-51.6034,32,0.2481,11573,4.0007,-96.3003
lg,1624882381167312213,0,-0.8943,-0.9451,1.1614,707,-35.5225,-206.665,102.417,86,1.3707,1.4697,35.5647,-45.7907,32,0.2461,8056,4.0007,-84.8282
lg,1624882381167331935,0,-0.2407,-1.0095,0.6069,708,15.3809,-301.3306,85.2661,86,1.3617,1.4667,26.3482,-39.0711,32,0.2541,8301,4.0007,-71.718
lg,1624882381167352546,0,-0.011,-0.9829,0.592,709,-6.2256,-351.1963,46.5698,86,1.3577,1.4627,15.5219,-36.2922,32,0.2531,7868,4.0007,-61.3832
lg,1624882381167370639,0,0.2139,-0.853,0.3127,710,2.9297,-302.7344,37.3535,86,1.3567,1.4617,5.6798,-35.8446,32,0.2531,7910,4.0007,-53.2681
lg,1624882381167388898,0,0.644,-0.9587,0.3928,711,1.0376,-183.7769,62.9883,86,1.3587,1.4607,-0.0935,-36.4942,32,0.2521,9286,4.0007,-46.9901
lg,1624882381167407750,0,0.6479,-1.0911,0.4336,712,0.9766,-101.7456,42.6636,86,1.3617,1.4607,-0.951,-37.4404,32,0.2531,8932,4.0007,-46.0614
lg,1624882381167425713,0,0.4756,-1.0781,0.3652,713,8.8501,82.8247,7.9346,86,1.3637,1.4597,3.5065,-38.1492,32,0.2531,9938,4.0007,-49.9153
lg,1624882381167443009,0,0.0745,-0.9834,0.3098,714,23.2544,208.1909,-6.4697,86,1.3647,1.4597,9.5333,-39.119,32,0.2531,8067,4.0007,-55.4308
lg,1624882381167460305,0,-0.2305,-0.8962,0.3315,715,35.8887,231.9946,0.5493,86,1.3657,1.4597,16.8506,-40.2185,32,0.2531,8809,4.0007,-61.6887
lg,1624882381167478546,0,-0.3992,-0.8193,0.3875,716,40.0391,202.5146,12.085,86,1.3667,1.4607,23.5776,-41.3418,32,0.2531,8303,4.0007,-67.2097
lg,1624882381167497139,0,-0.4778,-0.7996,0.4287,717,39.3066,174.2554,18.1274,86,1.3697,1.4607,29.4124,-42.604,32,0.2531,8790,4.0007,-72.1416
lg,1624882381167514750,0,-0.5,-0.7336,0.4741,718,34.729,109.9854,33.8135,86,1.3727,1.4627,33.5689,-43.0107,32,0.2531,8421,4.0007,-74.7793
lg,1624882381167532379,0,-0.4382,-0.7363,0.4978,719,29.0527,44.6777,44.5557,86,1.3767,1.4637,35.8109,-42.3267,32,0.2531,8112,4.0007,-74.9716
lg,1624882381167577954,0,-0.3088,-0.7988,0.5811,720,27.5269,20.0195,48.1567,86,1.3817,1.4657,36.4967,-40.6853,32,0.2541,8856,4.0007,-73.5478
lg,1624882381167598509,0,-0.2241,-0.7991,0.6323,721,30.3345,-8.728,45.0439,86,1.3867,1.4677,36.4739,-38.8091,32,0.2541,8165,4.0007,-71.8746
lg,1624882381167616342,0,-0.1279,-0.7842,0.6165,722,33.8135,-16.5405,30.1514,86,1.3927,1.4687,35.6232,-37.1005,31,0.2541,8921,4.0007,-70.5846
lg,1624882381167634287,0,-0.1353,-0.7764,0.5547,723,38.5132,-1.8921,9.7046,86,1.4007,1.4717,34.8008,-36.1304,31,0.2551,8940,4.0007,-70.636
lg,1624882381167652602,0,-0.1982,-0.7683,0.4902,724,47.3022,27.2827,-6.4087,86,1.4097,1.4747,34.7381,-35.8108,31,0.2581,12324,4.0007,-72.2374
lg,1624882381167669602,0,-0.2979,-0.6611,0.4792,725,60.2417,52.9175,-8.1787,86,1.4167,1.4767,35.7375,-35.2787,32,0.2611,8653,4.0007,-74.5455
lg,1624882381167686898,0,-0.3567,-0.5759,0.4033,726,69.0918,54.5654,-4.5166,86,1.4237,1.4767,37.1281,-34.3968,32,0.2621,9039,4.0007,-76.7846
lg,1624882381167704083,0,-0.4104,-0.5596,0.3872,727,64.4531,46.5088,3.418,86,1.4297,1.4777,38.5698,-33.4178,32,0.2641,9048,4.0007,-78.4935
lg,1624882381167722602,0,-0.3882,-0.5847,0.4019,728,61.2183,40.8936,10.6201,86,1.4337,1.4777,39.8183,-32.4612,32,0.2641,8377,4.0007,-79.8492
lg,1624882381167739768,0,-0.3584,-0.6541,0.3682,729,61.7676,28.8696,25.6348,86,1.4387,1.4797,40.8358,-31.1478,32,0.2661,10007,4.0007,-80.3994
lg,1624882381167757398,0,-0.3093,-0.7212,0.3418,730,67.3828,27.2217,30.2124,86,1.4417,1.4777,41.8457,-29.5851,32,0.2681,8791,4.0007,-80.7796
lg,1624882381167774194,0,-0.2856,-0.741,0.335,731,77.5757,38.208,36.6821,86,1.4437,1.4807,43.2893,-27.7007,32,0.2681,9156,4.0007,-81.1939
lg,1624882381167791528,0,-0.2878,-0.7234,0.3306,732,89.7827,46.936,41.748,86,1.4437,1.4807,45.1143,-25.3148,32,0.2691,9883,4.0007,-81.5586
lg,1624882381167809379,0,-0.2998,-0.6973,0.3596,733,102.6611,49.9268,45.7764,86,1.4467,1.4807,47.0569,-22.1904,32,0.2701,8853,4.0007,-81.6553
lg,1624882381167827324,0,-0.2988,-0.6802,0.4465,734,114.3188,44.9829,48.0347,86,1.4467,1.4797,48.6626,-18.1568,32,0.2701,9252,4.0007,-81.2604
lg,1624882381167874398,0,-0.2786,-0.6411,0.4824,735,118.7744,38.9404,47.1191,86,1.4477,1.4797,49.4526,-13.4006,32,0.2711,8546,4.0007,-80.4036
lg,1624882381167899102,0,-0.2681,-0.6536,0.5688,736,125.4883,23.6816,44.4946,86,1.4477,1.4777,49.8415,-8.5553,32,0.2711,8539,4.0007,-79.5321
lg,1624882381511159898,0,-0.3174,-0.7458,0.5505,737,130.3101,2.1362,42.4194,86,1.4487,1.4777,49.4637,-3.7727,32,0.2721,28393,4.0007,-78.7868
lg,1624882381511196861,0,-0.3879,-0.7239,0.5142,738,138.4888,26.2451,48.9502,86,1.4477,1.4787,50.1842,1.5106,32,0.2721,8567,4.0007,-77.7227
lg,1624882381511217416,0,-0.4929,-0.6143,0.6147,739,145.0806,61.5845,62.5,86,1.4487,1.4787,52.1317,8.3334,32,0.2721,9392,4.0007,-75.1992
lg,1624882381511236898,0,-0.6257,-0.5125,0.8337,740,131.7749,69.458,71.8994,86,1.4487,1.4787,53.8655,16.012,32,0.2731,8075,4.0007,-71.1998
lg,1624882381511255694,0,-0.676,-0.572,0.9294,741,120.6055,50.354,71.8994,86,1.4487,1.4787,54.4866,22.9556,32,0.2721,8684,4.0007,-67.4824
lg,1624882381511273842,0,-0.6367,-0.7412,1.1106,742,118.5913,-59.8145,67.688,86,1.4507,1.4777,50.9003,26.7307,32,0.2741,15032,4.0007,-67.4429
lg,1624882381511313453,0,-0.4783,-0.6719,1.0789,743,126.0986,-122.4976,57.0679,86,1.4527,1.4777,45.2183,28.7306,32,0.2741,8336,4.0007,-69.9951
lg,1624882381511333509,0,-0.3577,-0.5671,0.9766,744,125.6104,-159.0576,42.5415,86,1.4547,1.4777,38.588,29.7788,32,0.2751,8349,4.0007,-73.988
lg,1624882381511351138,0,-0.2698,-0.5022,0.9387,745,120.7886,-170.5933,32.2876,86,1.4557,1.4767,31.8019,30.6669,32,0.2761,11356,4.0007,-78.2812
lg,1624882381511368176,0,-0.2256,-0.4226,0.9597,746,109.9243,-148.3765,35.9497,86,1.4567,1.4777,25.7516,31.9602,32,0.2771,8313,4.0007,-81.5108
lg,1624882381511386231,0,-0.2202,-0.4211,0.9541,747,100.2197,-129.3335,37.7808,86,1.4577,1.4777,20.4926,33.3341,32,0.2781,9004,4.0007,-84.0372
lg,1624882381511403768,0,-0.2678,-0.4607,1.0549,748,80.6885,-85.022,39.917,86,1.4577,1.4777,16.8595,34.4,32,0.2781,9923,4.0007,-85.3377
lg,1624882381511421472,0,-0.2961,-0.5435,1.1704,749,75.1343,-65.7959,42.2363,86,1.4587,1.4777,13.9086,35.3876,31,0.2781,9461,4.0007,-86.0457
lg,1624882381511438694,0,-0.2551,-0.5486,1.2256,750,79.7729,-75.5005,39.3677,86,1.4587,1.4777,10.6959,36.4905,31,0.2791,9033,4.0007,-87.0386
lg,1624882381511456120,0,-0.125,-0.5437,1.1992,751,82.2754,-77.8809,37.5977,86,1.4597,1.4777,7.3281,37.6634,31,0.2801,8090,4.0007,-88.1068
lg,1624882381511473805,0,-0.0842,-0.5493,1.2095,752,81.7261,-73.7305,33.9966,86,1.4607,1.4777,4.193,38.8322,32,0.2791,8121,4.0007,-89.1339
lg,1624882381511491250,0,-0.0034,-0.5669,1.1829,753,84.0454,-55.542,22.8271,86,1.4627,1.4777,1.8432,40.0946,32,0.2791,8157,4.0007,-89.9988
lg,1624882381511508324,0,0.0098,-0.5251,1.1401,754,87.8906,-26.3672,12.5732,86,1.4647,1.4777,0.673,41.5365,32,0.2781,8917,4.0007,-90.3773
lg,1624882381511526064,0,-0.0237,-0.4307,0.9766,755,90.332,-16.4185,4.8218,86,1.4667,1.4787,0.3219,43.2016,32,0.2781,8515,4.0007,-90.8732
lg,1624882381511555250,0,-0.0669,-0.3325,0.9373,756,97.7173,-11.1084,-8.5449,86,1.4677,1.4787,0.3891,45.0798,31,0.2781,8858,4.0007,-91.4374
lg,1624882381511573083,0,-0.1331,-0.1477,0.8945,757,92.2852,9.9487,-2.0142,86,1.4687,1.4787,1.0427,46.9289,31,0.2781,8143,4.0007,-91.2144
lg,1624882381511590398,0,-0.2126,-0.1057,0.9683,758,64.4531,39.1235,8.4839,86,1.4717,1.4787,2.3068,47.7596,31,0.2781,8584,4.0007,-89.8616
lg,1624882381511607805,0,-0.3132,-0.2322,1.5273,759,45.105,62.561,12.9395,86,1.4727,1.4767,4.3672,47.1393,31,0.2791,8978,4.0007,-86.8886
lg,1624882381511625138,0,-0.4214,-0.3057,2.0979,760,4.3945,99.4263,21.5454,86,1.4737,1.4757,6.8083,45.8038,31,0.2791,9070,4.0007,-83.5387
lg,1624882381511642250,0,-1.1018,-0.7222,1.8428,761,2.1973,32.3486,-40.4053,86,1.4747,1.4747,9.8598,44.0014,31,0.2791,9105,4.0007,-84.0074
lg,1624882381511659342,0,-1.2075,-0.5032,1.4016,762,63.5376,-191.4673,-39.3066,86,1.4757,1.4757,6.7474,43.9931,31,0.2791,9183,4.0007,-90.8071
lg,1624882381511677416,0,-0.303,-0.2747,1.1912,763,78.5522,-349.9756,43.9453,86,1.4787,1.4777,-3.9737,45.0939,31,0.2681,9168,4.0007,-99.5613
lg,1624882381511694953,0,0.4124,-0.3677,1.0139,764,68.1763,-410.8276,45.105,86,1.4807,1.4767,-17.2351,47.8818,32,0.2651,9142,4.0007,-110.2273
lg,1624882381511713027,0,0.6309,-0.4089,0.9558,765,66.8945,-389.0381,31.7383,86,1.4837,1.4777,-29.1912,53.5904,32,0.2641,8794,4.0007,-121.9188
lg,1624882381511730935,0,0.8389,-0.3406,0.8142,766,72.7539,-229.0649,21.3623,86,1.4867,1.4777,-34.0192,56.9058,32,0.2621,10445,4.0007,-125.5029
lg,1624882381511749861,0,0.8103,-0.2158,0.7095,767,58.8989,-30.3955,12.0239,86,1.4887,1.4777,-33.9625,55.5971,32,0.2601,9947,4.0007,-122.2272
lg,1624882381511767676,0,0.5137,-0.1545,0.7009,768,28.3203,115.7837,-8.7891,86,1.4917,1.4777,-31.661,52.3749,32,0.2571,8929,4.0007,-116.8222
lg,1624882381883987916,0,-0.1301,-0.3669,1.2065,769,-13.855,229.248,-2.3804,86,1.4967,1.4777,-24.9587,45.7482,31,0.2481,26274,4.0007,-107.7994
lg,1624882381884039786,0,-0.3059,-0.3677,1.2817,770,17.7612,171.5088,3.8452,86,1.4967,1.4767,-19.2402,42.3687,31,0.2401,9464,4.0007,-101.6618
lg,1624882381884071064,0,-0.3125,0.0452,1.0288,771,57.8613,93.8721,17.2119,86,1.4977,1.4747,-16.5559,42.4691,31,0.2381,12899,4.0007,-98.3612
lg,1624882381884100583,0,-0.186,-0.0232,0.9417,772,25.9399,44.1895,17.1509,86,1.4997,1.4727,-14.8236,41.4205,32,0.2371,10745,4.0007,-96.1495
lg,1624882381884133009,0,-0.1367,-0.0703,0.937,773,17.2119,45.5322,17.2729,86,1.4997,1.4727,-13.1781,40.0174,32,0.2371,8250,4.0007,-93.9644
lg,1624882381884160175,0,-0.1338,-0.0859,0.8508,774,8.8501,67.5049,16.7847,86,1.5007,1.4737,-10.8141,38.2498,32,0.2391,9527,4.0007,-91.32
lg,1624882381884228860,0,-0.2415,-0.1221,0.8511,775,-7.0801,83.6182,9.6436,86,1.5017,1.4747,-7.5023,35.9854,32,0.2391,8305,4.0007,-88.6755
lg,1624882381884257101,0,-0.2983,-0.1748,0.8887,776,-20.4468,95.0928,16.7847,86,1.5027,1.4747,-3.8712,33.3098,32,0.2401,9499,4.0007,-85.7577
lg,1624882381884283916,0,-0.3262,-0.2134,0.9172,777,-23.1323,95.3369,18.5547,86,1.5037,1.4757,-0.2542,30.7736,32,0.2411,8583,4.0007,-83.1117
lg,1624882381884309342,0,-0.4441,-0.2573,0.9514,778,-22.3389,83.9233,17.5781,86,1.5037,1.4747,3.2412,28.4499,32,0.2421,8303,4.0007,-80.8525
lg,1624882381884335046,0,-0.5249,-0.2385,0.9739,779,-15.8691,58.2275,18.6768,86,1.5037,1.4747,5.9167,26.5952,32,0.2421,8348,4.0007,-79.2012
lg,1624882381884359805,0,-0.55,-0.2549,0.9846,780,-10.5591,17.5781,21.3013,86,1.5047,1.4747,7.0919,24.9696,32,0.2431,8386,4.0007,-78.2735
lg,1624882381884384564,0,-0.5251,-0.2573,1.0112,781,-7.9346,-3.3569,22.8271,86,1.5057,1.4747,7.4102,23.4537,32,0.2431,8441,4.0007,-77.664
lg,1624882381884411101,0,-0.4297,-0.2903,0.9944,782,-2.0752,-38.147,24.5361,86,1.5057,1.4747,6.28,22.0538,32,0.2441,8452,4.0007,-77.5345
lg,1624882381884437083,0,-0.321,-0.2668,1.0059,783,2.0752,-58.0444,25.0854,86,1.5027,1.4747,4.2336,20.8314,32,0.2441,8762,4.0007,-77.6028
lg,1624882381884463564,0,-0.2385,-0.248,1.0129,784,2.5635,-63.2935,23.6206,86,1.5057,1.4737,1.9092,19.672,32,0.2441,8664,4.0007,-77.6942
lg,1624882381884488823,0,-0.2153,-0.2439,1.0017,785,2.0752,-61.4014,22.2778,86,1.5057,1.4737,-0.1997,18.4985,32,0.2451,8158,4.0007,-77.6395
lg,1624882381884514860,0,-0.144,-0.2441,1.0315,786,-0.1831,-51.1475,21.5454,86,1.5057,1.4717,-2.0917,17.2978,32,0.2441,8529,4.0007,-77.4499
lg,1624882381884541898,0,-0.1155,-0.2383,1.0378,787,-1.2817,-36.2549,20.0806,86,1.5067,1.4747,-3.3898,16.0891,32,0.2451,8902,4.0007,-77.06
lg,1624882381884569212,0,-0.1235,-0.2373,1.0632,788,-2.1362,-23.0713,19.4702,86,1.5067,1.4747,-4.1102,14.8834,32,0.2451,8942,4.0007,-76.4951
lg,1624882381884595175,0,-0.1245,-0.2227,1.0425,789,-1.8311,-12.2681,18.6157,86,1.5067,1.4737,-4.3505,13.7565,32,0.2441,13865,4.0007,-75.8254
lg,1624882381884637657,0,-0.1392,-0.1973,1.0447,790,-2.9297,-2.9297,18.4937,86,1.5067,1.4737,-4.1825,12.6513,32,0.2441,9030,4.0007,-75.0632
lg,1624882381884666231,0,-0.1619,-0.2219,1.0298,791,-3.479,6.4697,18.1274,86,1.5067,1.4737,-3.5885,11.5148,32,0.2441,8673,4.0007,-74.2338
lg,1624882381884692953,0,-0.1973,-0.2202,1.0107,792,-4.6997,13.7329,17.2729,86,1.5067,1.4737,-2.6293,10.3818,32,0.2451,9129,4.0007,-73.3986
lg,1624882381884718435,0,-0.2493,-0.22,1.0159,793,-6.0425,18.2495,16.9678,86,1.5067,1.4737,-1.4055,9.2624,32,0.2451,9083,4.0007,-72.5716
lg,1624882381884744675,0,-0.2913,-0.2397,1.0308,794,-5.7373,16.1133,15.9302,86,1.5077,1.4747,-0.2155,8.1892,32,0.2451,9276,4.0007,-71.8296
lg,1624882381884770323,0,-0.3076,-0.2534,1.0127,795,-4.0894,7.019,16.4185,86,1.5077,1.4747,0.6227,7.203,32,0.2461,9118,4.0007,-71.1439
lg,1624882381884796805,0,-0.3,-0.2427,1.0044,796,-1.4648,-3.1738,15.8081,86,1.5077,1.4747,1.0326,6.3784,32,0.2471,9114,4.0007,-70.5443
lg,1624882381884823120,0,-0.3032,-0.2229,1.0129,797,-0.8545,-7.5073,17.2119,86,1.5077,1.4737,1.1923,5.6333,32,0.2501,9198,4.0007,-69.9079
lg,1624882381884849249,0,-0.2524,-0.2134,1.0154,798,0.1831,-12.2681,16.9067,86,1.5087,1.4747,1.1348,4.9888,32,0.2511,8811,4.0007,-69.2969
lg,1624882381884875435,0,-0.2344,-0.2268,0.9907,799,-0.3662,-12.7563,17.7002,86,1.5097,1.4747,1.0381,4.3068,32,0.2511,8466,4.0007,-68.6492
lg,1624882381884901638,0,-0.2334,-0.2397,1.0044,800,-1.2817,-11.2915,18.6768,86,1.5097,1.4747,0.9991,3.5932,32,0.2511,9181,4.0007,-67.9504
lg,1624882382250476638,0,-0.2358,-0.2358,1.0076,801,-2.3804,-8.3618,18.3105,86,1.5087,1.4747,1.1314,2.8553,32,0.2521,26776,4.0007,-67.2623
lg,1624882382250526379,0,-0.2307,-0.2483,1.0337,802,-2.4414,-8.3008,19.9585,86,1.5107,1.4747,1.2046,2.1484,32,0.2521,13489,4.0007,-66.4944
lg,1624882382250549138,0,-0.2307,-0.2473,1.0315,803,-2.0752,-8.1787,18.3716,86,1.5097,1.4747,1.2834,1.4691,32,0.2501,11028,4.0007,-65.7741
lg,1624882382250612453,0,-0.2263,-0.2498,1.0378,804,-1.3428,-7.0801,18.7378,86,1.5097,1.4737,1.408,0.858,32,0.2481,8569,4.0007,-65.0457
lg,1624882382250638027,0,-0.2126,-0.2498,1.012,805,-2.0752,-5.7983,20.0806,86,1.5097,1.4737,1.5693,0.2308,32,0.2481,8130,4.0007,-64.2607
lg,1624882382250658101,0,-0.2295,-0.2324,1.0066,806,-2.6245,-4.2114,18.9209,86,1.5097,1.4737,1.8709,-0.3459,32,0.2481,8177,4.0007,-63.5123
lg,1624882382250676453,0,-0.2231,-0.2375,1.0356,807,-2.1362,-2.4414,18.9209,88,1.5097,1.4737,2.2236,-0.9053,32,0.2491,8570,3.9974,-62.7727
lg,1624882382250696749,0,-0.2307,-0.2327,1.0461,808,-1.8311,-2.6245,19.2261,88,1.5077,1.4747,2.5266,-1.3937,32,0.2501,8119,3.9974,-62.0202
lg,1624882382250718120,0,-0.2266,-0.2544,1.0315,809,-1.2817,-2.6855,17.9443,88,1.5097,1.4737,2.8268,-1.8634,32,0.2521,11976,3.9974,-61.3206
lg,1624882382250737194,0,-0.238,-0.249,1.0242,810,-0.4883,-3.0518,18.4937,88,1.5097,1.4737,3.1236,-2.297,32,0.2521,8646,3.9974,-60.5999
lg,1624882382250754953,0,-0.2241,-0.2458,1.0383,811,-1.0986,-1.3428,18.4326,88,1.5097,1.4737,3.4484,-2.7231,32,0.2521,8287,3.9974,-59.8844
lg,1624882382250777083,0,-0.2273,-0.2473,1.0095,812,-0.5493,0,17.7612,88,1.5097,1.4737,3.8724,-3.1278,32,0.2511,7981,3.9974,-59.1676
lg,1624882382250795416,0,-0.2339,-0.249,1.0264,813,-0.5493,1.77,17.0898,88,1.5097,1.4737,4.3236,-3.5054,32,0.2521,8304,3.9974,-58.5161
lg,1624882382250813953,0,-0.2373,-0.2327,1.0205,814,-0.3052,1.5259,17.5781,88,1.5097,1.4737,4.7636,-3.8214,32,0.2531,9453,3.9974,-57.8444
lg,1624882382250832712,0,-0.2456,-0.2273,1.0051,815,-0.2441,0.1831,17.5171,88,1.5097,1.4737,5.1611,-4.1131,32,0.2531,9196,3.9974,-57.1728
lg,1624882382250849953,0,-0.2471,-0.2473,1.0166,816,-0.2441,-2.1362,17.0898,88,1.5097,1.4737,5.449,-4.4262,32,0.2531,8733,3.9974,-56.516
lg,1624882382250867842,0,-0.2456,-0.2351,1.0056,817,-0.3052,-2.3804,17.0288,88,1.5107,1.4737,5.7379,-4.6791,32,0.2541,8859,3.9974,-55.8563
lg,1624882382250885138,0,-0.2444,-0.2605,1.0208,818,-0.2441,-2.4414,16.7847,88,1.5107,1.4747,5.9598,-4.9768,32,0.2541,10949,3.9974,-55.2013
lg,1624882382250933675,0,-0.2427,-0.2302,1.0164,819,-0.061,-3.479,17.7002,88,1.5107,1.4747,6.1672,-5.2028,32,0.2531,8507,3.9974,-54.5116
lg,1624882382250956286,0,-0.2405,-0.2327,0.9971,820,-0.4883,-3.1128,16.2964,88,1.5097,1.4747,6.3832,-5.4549,32,0.2541,8155,3.9974,-53.8807
lg,1624882382250974101,0,-0.241,-0.2473,1.0012,821,-0.3052,-2.6855,15.625,88,1.5107,1.4747,6.6057,-5.7192,32,0.2541,9131,3.9974,-53.281
lg,1624882382250992508,0,-0.2358,-0.2341,0.9988,822,-0.2441,-3.2959,15.686,88,1.5107,1.4747,6.783,-5.9393,32,0.2551,8925,3.9974,-52.6895
lg,1624882382251010545,0,-0.2468,-0.2356,1.0305,823,0.061,-3.7842,14.7095,88,1.5107,1.4737,6.9462,-6.1318,32,0.2551,8921,3.9974,-52.1163
lg,1624882382251030490,0,-0.2266,-0.2358,1.0002,824,0.7935,-4.2725,15.9912,88,1.5117,1.4747,7.0632,-6.2954,32,0.2551,9013,3.9974,-51.4908
lg,1624882382251049416,0,-0.2168,-0.231,1.0122,825,0.9766,-3.479,15.7471,88,1.5117,1.4747,7.1821,-6.4302,32,0.2551,8637,3.9974,-50.876
lg,1624882382251067842,0,-0.228,-0.2458,1.0137,826,0.5493,-0.7324,16.1743,88,1.5117,1.4747,7.4304,-6.604,32,0.2561,9026,3.9974,-50.26
lg,1624882382251086620,0,-0.2141,-0.2319,1.0134,827,0.2441,0.4272,16.9067,88,1.5117,1.4747,7.7196,-6.7498,32,0.2551,8272,3.9974,-49.6166
lg,1624882382251104194,0,-0.2322,-0.2385,1.0161,828,-0.1831,1.77,14.8315,88,1.5117,1.4737,8.0508,-6.9265,32,0.2551,9011,3.9974,-49.0646
lg,1624882382251121268,0,-0.2583,-0.241,0.9978,829,-0.061,1.4038,16.1743,88,1.5107,1.4747,8.4251,-7.0926,32,0.2551,9102,3.9974,-48.4591
lg,1624882382251138620,0,-0.2566,-0.2637,1.0024,830,0,-0.4883,16.6626,88,1.5117,1.4747,8.7064,-7.2871,32,0.2551,9085,3.9974,-47.8317
lg,1624882382251156045,0,-0.2581,-0.2485,1.0103,831,0.4272,-2.1973,17.0288,88,1.5117,1.4747,8.913,-7.4153,32,0.2551,9109,3.9974,-47.1753
lg,1624882382251173360,0,-0.2427,-0.2273,0.9983,832,0.1831,-2.5024,15.3809,88,1.5117,1.4757,9.068,-7.5182,32,0.2551,9730,3.9974,-46.5772
lg,1624882382618093305,0,-0.2507,-0.2263,0.9983,833,-0.7324,-3.2959,14.8926,88,1.5117,1.4757,9.1898,-7.6547,32,0.2551,25833,3.9974,-45.9942
lg,1624882382618128971,0,-0.2432,-0.2302,1.0017,834,-0.3052,-4.5776,15.9912,88,1.5107,1.4757,9.262,-7.786,32,0.2551,15782,3.9974,-45.3637
lg,1624882382618177101,0,-0.2402,-0.2292,1.0161,835,0,-5.249,15.9912,88,1.5117,1.4747,9.2908,-7.9108,32,0.2551,9779,3.9974,-44.7304
lg,1624882382618198138,0,-0.2551,-0.251,1.0144,836,-0.3662,-4.3335,15.7471,88,1.5117,1.4747,9.3818,-8.0498,32,0.2561,8589,3.9974,-44.1116
lg,1624882382618217360,0,-0.241,-0.2529,1.0081,837,-0.8545,-4.2114,17.4561,88,1.5117,1.4747,9.459,-8.1986,32,0.2551,8628,3.9974,-43.4252
lg,1624882382618235638,0,-0.2417,-0.2483,1.0088,838,-0.1831,-3.3569,16.4185,88,1.5117,1.4757,9.564,-8.3114,32,0.2561,8624,3.9974,-42.7828
lg,1624882382618254693,0,-0.2324,-0.2356,1.0134,839,0.3662,-4.0283,17.7612,88,1.5127,1.4757,9.6448,-8.3705,32,0.2561,9846,3.9974,-42.1048
lg,1624882382618272953,0,-0.238,-0.2288,1.0125,840,0.4883,-3.6011,17.5781,88,1.5117,1.4757,9.7333,-8.3971,32,0.2561,7896,3.9974,-41.4062
lg,1624882382618290693,0,-0.2341,-0.2483,1.0032,841,-0.3052,-2.1362,17.0898,88,1.5117,1.4757,9.8686,-8.5034,32,0.2561,8255,3.9974,-40.7437
lg,1624882382618308379,0,-0.2407,-0.2397,1.0088,842,-0.8545,-1.709,16.2354,88,1.5117,1.4757,10.0536,-8.6066,32,0.2561,7964,3.9974,-40.101
lg,1624882382618326230,0,-0.2368,-0.2354,1.0088,843,-0.9155,-1.1597,15.625,88,1.5127,1.4737,10.2122,-8.7064,32,0.2551,8765,3.9974,-39.4971
lg,1624882382618344027,0,-0.2617,-0.2336,1.0098,844,-0.7935,-2.1362,16.2964,88,1.5127,1.4757,10.3821,-8.7848,32,0.2551,8720,3.9974,-38.8588
lg,1624882382618361508,0,-0.2419,-0.2388,1.0112,845,-0.5493,-4.2725,17.1509,88,1.5127,1.4757,10.4253,-8.8513,32,0.2561,8011,3.9974,-38.1745
lg,1624882382618378545,0,-0.2576,-0.2473,1.0186,846,-0.1221,-5.0049,17.1509,88,1.5127,1.4767,10.4665,-8.9105,31,0.2561,8383,3.9974,-37.4875
lg,1624882382618395638,0,-0.2522,-0.249,1.0085,847,-0.3662,-4.3945,15.7471,88,1.5127,1.4757,10.516,-8.9962,31,0.2571,8776,3.9974,-36.862
lg,1624882382618412508,0,-0.2515,-0.2461,1.0203,848,-0.5493,-4.7607,17.334,88,1.5127,1.4767,10.5529,-9.0614,31,0.2571,8068,3.9974,-36.1674
lg,1624882382618429805,0,-0.2488,-0.2451,1.0193,849,-0.3662,-3.54,17.2729,88,1.5127,1.4767,10.6591,-9.1403,31,0.2571,8856,3.9974,-35.5598
lg,1624882382618461471,0,-0.239,-0.2363,1.0164,850,-1.0986,-2.0142,15.686,88,1.5117,1.4757,10.7668,-9.217,32,0.2571,8488,3.9974,-34.9448
lg,1624882382618480582,0,-0.2571,-0.2336,1.0081,851,-1.0986,-2.4414,16.1133,88,1.5117,1.4757,10.8984,-9.2835,32,0.2571,8166,3.9974,-34.3088
lg,1624882382618498212,0,-0.2573,-0.2476,1.0039,852,-0.7935,-3.6621,17.1509,88,1.5127,1.4767,10.9856,-9.3558,32,0.2571,8581,3.9974,-33.6287
lg,1624882382618515434,0,-0.2422,-0.2339,1.0112,853,-0.8545,-4.2114,17.0288,88,1.5127,1.4767,11.0139,-9.3953,31,0.2581,8208,3.9974,-32.9432
