name,time,activity,ax,ay,az,batch_val,gx,gy,gz,ibat,index,middle,pitch,roll,temp,thumb,ts,vbat,yaw
lg,1624878347170672015,0,0.1394,-0.1433,0.9814,1,-8.606,111.2671,4.0894,64,1.5628,1.5928,11.0651,-12.9929,30,0.2281,19565,4.0106,9.2006
lg,1624878347170850755,0,0.0801,-0.1406,1.0017,2,-9.9487,122.3755,1.2817,64,1.5638,1.5928,15.3426,-13.4314,30,0.2281,8187,4.0106,8.1413
lg,1624878347170877941,0,-0.0469,-0.1536,1.0234,3,-11.3525,134.4604,-2.3804,61,1.5628,1.5938,20.0188,-14.1142,30,0.2281,7732,4.0183,6.7545
lg,1624878347170901292,0,-0.1851,-0.1663,1.0364,4,-12.207,126.2817,-4.0283,61,1.5638,1.5928,24.4488,-14.9677,30,0.2271,7773,4.0183,5.2885
lg,1624878347170921015,0,-0.2112,-0.1533,1.0706,5,-10.376,109.2529,-4.5166,61,1.5628,1.5898,28.0707,-15.7375,30,0.2261,7732,4.0183,3.9276
lg,1624878347170942755,0,-0.2434,-0.1733,1.0793,6,-4.8218,61.0962,-3.7842,61,1.5638,1.5918,29.762,-16.0833,30,0.2251,7770,4.0183,3.1348
lg,1624878347170964755,0,-0.2244,-0.1929,1.103,7,-2.0142,38.6963,-3.9673,61,1.5628,1.5928,30.3872,-16.2443,30,0.2251,7771,4.0183,2.5876
lg,1624878347170987885,0,-0.1304,-0.1943,1.0901,8,4.0894,7.0801,-0.5493,61,1.5598,1.5918,29.7405,-15.8575,30,0.2251,7839,4.0183,2.6128
lg,1624878347171005181,0,-0.0078,-0.1987,1.0786,9,5.9814,-3.9062,0.5493,61,1.5628,1.5928,28.4835,-15.3371,30,0.2251,7756,4.0183,2.8039
lg,1624878347171025126,0,0.0342,-0.2019,1.0857,10,5.8594,-2.8687,-1.1597,61,1.5638,1.5918,27.2156,-14.8949,30,0.2251,7973,4.0183,2.8869
lg,1624878347171046478,0,0.1128,-0.2517,1.073,11,4.8828,11.2305,-0.3662,61,1.5638,1.5918,26.4015,-14.6881,30,0.2251,7884,4.0183,2.7748
lg,1624878347171064755,0,-0.2124,-0.7302,0.8191,12,-10.0708,-3.7231,46.5698,161,1.4927,1.5528,26.2352,-15.3049,30,0.2451,14420,3.8984,4.3232
lg,1624878347171084422,0,-0.1597,-0.7092,0.7986,13,-7.3853,-13.4277,43.5181,161,1.4927,1.5528,25.5902,-15.8154,30,0.2461,8080,3.8984,5.8596
lg,1624878347171103922,0,-0.0808,-0.7798,0.7764,14,-1.8311,4.0894,28.6865,161,1.4957,1.5548,25.3553,-16.6068,30,0.2481,7861,3.8984,6.5007
lg,1624878347171123385,0,-0.1106,-0.7385,0.7925,15,5.6152,27.5269,22.1558,161,1.5017,1.5548,26.6735,-17.1285,30,0.2491,8001,3.8984,6.066
lg,1624878347171142126,0,-0.1638,-0.7712,0.761,16,21.6064,67.688,2.3804,161,1.5047,1.5528,28.6791,-17.8408,30,0.2461,7962,3.8984,4.7075
lg,1624878347171160681,0,-0.2593,-0.8491,0.748,17,31.6162,98.877,-9.8267,161,1.5097,1.5508,31.8121,-18.8281,30,0.2431,10499,3.8984,2.2006
lg,1624878347171182070,0,-0.333,-0.7644,0.7021,18,33.6914,93.4448,-12.2681,161,1.5117,1.5478,34.7343,-19.8336,30,0.2371,8028,3.8984,-0.4931
lg,1624878347171204496,0,-0.3726,-0.7019,0.6985,19,19.8364,66.5894,1.709,161,1.5147,1.5458,36.7916,-20.7757,30,0.2341,8784,3.8984,-2.1964
lg,1624878347171224792,0,-0.3621,-0.6628,0.6416,20,10.9863,54.0161,18.1274,161,1.5167,1.5458,38.5909,-21.5205,30,0.2371,8386,3.8984,-2.9963
lg,1624878347171244126,0,-0.4294,-0.7278,0.7053,21,-14.2212,40.1001,20.813,161,1.5167,1.5438,39.869,-23.0582,30,0.2421,8054,3.8984,-3.4807
lg,1624878347171261570,0,-0.5569,-0.7473,0.7705,22,-21.9727,15.9302,27.71,161,1.5177,1.5418,40.4752,-24.2288,30,0.2471,8836,3.8984,-3.0903
lg,1624878347171280070,0,-0.5796,-0.6877,0.7678,23,-27.5879,-42.3584,27.0996,161,1.5187,1.5408,39.0016,-24.6926,30,0.2511,8128,3.8984,-1.3916
lg,1624878347171298311,0,-0.5908,-0.7502,0.8008,24,-30.9448,-63.8428,24.7192,161,1.5167,1.5428,36.7488,-25.1806,30,0.2511,8144,3.8984,0.6146
lg,1624878347171317255,0,-0.4106,-0.8232,0.8403,25,-23.3765,-104.187,33.5083,161,1.5157,1.5468,32.9442,-24.8895,30,0.2531,8130,3.8984,3.7361
lg,1624878347171336255,0,-0.2217,-0.7483,0.7981,26,-17.395,-119.2627,22.522,161,1.5097,1.5498,28.2394,-24.7185,30,0.2511,8549,3.8984,6.576
lg,1624878347171357774,0,-0.1545,-0.6924,0.7346,27,-17.2729,-113.7085,17.6392,161,1.5027,1.5538,23.7314,-25.107,30,0.2481,8183,3.8984,8.9748
lg,1624878347171376589,0,-0.0354,-0.6289,0.7361,28,-18.0664,-87.4023,14.9536,161,1.4997,1.5568,20.0356,-25.6482,30,0.2501,8929,3.8984,10.9189
lg,1624878347171393255,0,-0.2351,-0.6892,0.3137,29,4.2114,-41.1377,-24.1089,161,1.4987,1.5578,18.1922,-26.9908,30,0.2491,8233,3.8984,10.2727
lg,1624878347171410052,0,-0.1348,-0.7319,0.8655,30,-14.2822,-4.9438,-2.3193,161,1.4977,1.5578,18.3493,-27.8439,30,0.2491,8243,3.8984,10.1859
lg,1624878347171427866,0,-0.2595,-0.6692,0.6309,31,1.8921,16.7236,-0.2441,161,1.4967,1.5578,18.8593,-28.6149,30,0.2491,8232,3.8984,9.608
lg,1624878347171447422,0,-0.3994,-0.6199,0.6133,32,-6.5308,23.8037,12.146,161,1.4957,1.5568,20.1721,-29.5103,30,0.2491,9107,3.8984,9.3615
lg,1624878347548903107,0,-0.1978,-0.7351,0.7817,33,-14.3433,-37.4146,51.0254,161,1.4917,1.5578,19.5183,-29.73,30,0.2491,26414,3.8984,11.8422
lg,1624878347548933477,0,-0.0361,-0.7471,0.7427,34,-7.6904,-16.0522,40.6494,161,1.4927,1.5588,19.7346,-30.2329,30,0.2501,15202,3.8984,12.7308
lg,1624878347548953829,0,-0.0952,-0.7959,0.7744,35,-3.54,26.8555,22.1558,161,1.4947,1.5578,20.5462,-30.932,30,0.2521,7934,3.8984,12.7439
lg,1624878347548972625,0,-0.144,-0.7483,0.8577,36,11.9019,58.6548,6.4087,161,1.4997,1.5578,22.1611,-31.2641,30,0.2541,7719,3.8984,11.5261
lg,1624878347548991385,0,-0.2058,-0.7959,0.7495,37,17.334,69.0308,-2.5635,161,1.5037,1.5568,24.0191,-31.8645,30,0.2541,7754,3.8984,9.6132
lg,1624878347549009496,0,-0.2749,-0.8547,0.7043,38,21.1792,87.5854,-10.6201,161,1.5067,1.5548,26.3768,-32.841,30,0.2541,7701,3.8984,6.8241
lg,1624878347549027274,0,-0.2944,-0.7126,0.6821,39,24.1089,87.2803,-8.9722,161,1.5097,1.5538,28.6955,-33.5274,30,0.2531,7768,3.8984,4.4834
lg,1624878347549045125,0,-0.3384,-0.6873,0.604,40,11.7798,68.9697,3.418,161,1.5107,1.5548,30.7398,-34.5052,30,0.2541,7998,3.8984,2.526
lg,1624878347549062922,0,-0.3833,-0.7971,0.6304,41,-13.1836,48.2178,10.376,161,1.5117,1.5548,32.1811,-36.2303,30,0.2581,7869,3.8984,1.2396
lg,1624878347549080070,0,-0.457,-0.7439,0.6611,42,-18.4326,31.7993,15.1367,161,1.5117,1.5538,33.2709,-37.6497,30,0.2621,7877,3.8984,0.6336
lg,1624878347549096866,0,-0.5071,-0.668,0.6431,43,-22.644,11.3525,19.8364,161,1.5107,1.5538,33.9349,-38.6634,30,0.2631,7889,3.8984,0.8572
lg,1624878347549113311,0,-0.5247,-0.7761,0.7703,44,-31.0669,-19.8975,31.7383,161,1.5067,1.5578,33.7872,-39.1713,30,0.2611,7859,3.8984,2.5
lg,1624878347549130329,0,-0.4663,-0.7791,0.7573,45,-28.6865,-39.978,34.3018,161,1.5007,1.5608,32.1487,-38.7833,30,0.2571,7949,3.8984,5.5218
lg,1624878347549146940,0,-0.2791,-0.6953,0.9209,46,-22.644,-92.1631,27.1606,161,1.5007,1.5628,29.2164,-37.7384,30,0.2581,7974,3.8984,9.2153
lg,1624878347549163125,0,-0.3877,-0.7429,0.27,47,10.6201,-112.7319,-26.001,161,1.4997,1.5618,25.0594,-37.5389,30,0.2571,7918,3.8984,10.7977
lg,1624878347549180292,0,-0.2295,-0.8018,0.7227,48,-13.916,-89.7827,-5.4932,161,1.4987,1.5588,21.6021,-36.8785,30,0.2561,7982,3.8984,12.5908
lg,1624878347549197163,0,-0.2119,-0.7029,0.5352,49,14.0381,-72.4487,-16.7847,161,1.4977,1.5578,18.5967,-36.5144,30,0.2551,7964,3.8984,13.6315
lg,1624878347549213885,0,-0.2927,-0.6196,0.4143,50,7.8125,-41.626,0.3662,161,1.4967,1.5578,17.4221,-36.6162,30,0.2541,8008,3.8984,14.4523
lg,1624878347549230459,0,-0.2979,-0.542,0.4055,51,11.4746,-21.2402,16.4795,161,1.4957,1.5568,17.2611,-36.1571,30,0.2531,8017,3.8984,15.4407
lg,1624878347549247014,0,-0.2742,-0.5752,0.5759,52,-2.6855,-3.479,43.8843,161,1.4927,1.5588,18.2403,-36.1201,30,0.2531,8039,3.8984,16.9131
lg,1624878347549263681,0,-0.1985,-0.7148,0.6997,53,-10.1318,1.8921,54.9927,161,1.4937,1.5598,19.3272,-36.3137,30,0.2531,8085,3.8984,18.6183
lg,1624878347549279940,0,-0.1311,-0.7549,0.8354,54,-5.9814,10.6201,53.894,161,1.4927,1.5608,20.4431,-36.2467,30,0.2521,10680,3.8984,20.1171
lg,1624878347549296144,0,-0.1072,-0.7805,0.865,55,0.6104,21.1792,40.6494,161,1.4947,1.5618,21.4874,-36.1472,30,0.2521,8732,3.8984,20.8984
lg,1624878347549312977,0,-0.1189,-0.7915,0.8416,56,8.606,35.9497,23.4375,161,1.4967,1.5628,22.5853,-36.1327,30,0.2511,8070,3.8984,20.6872
lg,1624878347549329588,0,-0.0957,-0.7686,0.8494,57,13.7329,48.5229,18.6157,161,1.5007,1.5628,23.956,-36.1701,30,0.2521,8134,3.8984,19.9534
lg,1624878347549345848,0,-0.198,-0.8303,0.7002,58,20.6909,82.7637,-5.127,161,1.5037,1.5618,25.9622,-36.9128,30,0.2491,8448,3.8984,17.358
lg,1624878347549362144,0,-0.3147,-0.7512,0.6504,59,27.832,104.9194,-8.1787,161,1.5047,1.5608,28.7626,-37.7608,30,0.2461,8219,3.8984,13.9687
lg,1624878347549379440,0,-0.3914,-0.7219,0.6482,60,20.2637,103.3325,-9.5825,161,1.5057,1.5598,31.4815,-39.0434,30,0.2441,9800,3.8984,10.4387
lg,1624878347549395570,0,-0.4487,-0.7388,0.625,61,14.0991,94.6655,-1.9531,161,1.5077,1.5588,33.9085,-40.343,30,0.2411,8408,3.8984,7.8718
lg,1624878347549411940,0,-0.4346,-0.7502,0.6594,62,8.9111,66.9556,14.8315,161,1.5087,1.5568,35.901,-41.2522,30,0.2421,8315,3.8984,6.0778
lg,1624878347549428422,0,-0.3979,-0.6877,0.6565,63,1.8921,39.4897,20.2637,161,1.5087,1.5548,37.0893,-41.7197,30,0.2451,8322,3.8984,5.3972
lg,1624878347549444755,0,-0.429,-0.7954,0.7468,64,-16.8457,13.1836,15.9912,161,1.5107,1.5548,37.2903,-42.5194,30,0.2491,8346,3.8984,5.4153
lg,1624878347897584922,0,-0.5093,-0.7256,0.7434,65,-34.9731,-31.7383,25.5127,161,1.5037,1.5598,36.3495,-42.3401,30,0.2531,27019,3.8984,8.039
lg,1624878347897621292,0,-0.4856,-0.7097,0.7432,66,-34.4849,-64.5142,31.0059,161,1.4977,1.5628,34.6381,-41.6758,30,0.2521,9246,3.8984,11.3843
lg,1624878347897653310,0,-0.051,-0.6555,1.1787,67,-16.7236,-95.7031,2.8687,161,1.4967,1.5638,30.6446,-40.0916,30,0.2541,7846,3.8984,14.7951
lg,1624878347897673310,0,-0.4167,-0.7695,0.5669,68,-12.207,-66.3452,-18.4937,161,1.4957,1.5628,28.0697,-39.8723,30,0.2541,12571,3.8984,15.9813
lg,1624878347897692551,0,-0.3442,-0.741,0.5999,69,16.7236,-53.0396,-26.123,161,1.4957,1.5618,25.4694,-39.3803,30,0.2541,7859,3.8984,16.3858
lg,1624878347897711366,0,-0.457,-0.6721,0.4709,70,3.3569,-47.8516,-16.5405,161,1.4947,1.5628,23.7492,-39.5002,30,0.2551,10670,3.8984,16.9165
lg,1624878347897729699,0,-0.3669,-0.5986,0.533,71,10.6812,-48.4009,11.9019,161,1.4937,1.5638,22.5942,-38.7265,30,0.2561,8409,3.8984,18.5154
lg,1624878347897747181,0,-0.2524,-0.6431,0.5791,72,-2.1973,-60.73,28.1372,161,1.4927,1.5648,21.1583,-38.2213,30,0.2561,9528,3.8984,20.9529
lg,1624878347897764607,0,-0.1855,-0.7056,0.6123,73,-5.3711,-54.1382,32.8979,161,1.4917,1.5648,20.1622,-38.0519,30,0.2561,7975,3.8984,23.2129
lg,1624878347897782866,0,-0.1328,-0.7683,0.7024,74,-5.3711,-32.1045,38.208,161,1.4917,1.5648,19.5951,-37.9308,30,0.2571,9199,3.8984,25.1993
lg,1624878347897799996,0,-0.1995,-0.7107,0.7451,75,-5.188,-3.6621,31.7993,161,1.4917,1.5658,19.92,-37.9708,30,0.2591,13944,3.8984,26.2826
lg,1624878347897817644,0,-0.1406,-0.7915,0.8657,76,-2.1362,-0.061,25.9399,161,1.4937,1.5648,20.0397,-37.9347,30,0.2601,8018,3.8984,27.0917
lg,1624878347897835014,0,-0.0862,-0.8213,0.8699,77,4.1504,1.6479,18.2495,161,1.4957,1.5648,19.916,-37.7924,30,0.2601,8107,3.8984,27.5837
lg,1624878347897852385,0,-0.1047,-0.8389,0.7612,78,19.104,28.8086,0.7324,161,1.4997,1.5648,20.2738,-37.6886,30,0.2581,8027,3.8984,26.713
lg,1624878347897870070,0,-0.1582,-0.8511,0.7239,79,29.3579,68.9087,-9.5825,161,1.5027,1.5628,21.7388,-37.7708,30,0.2561,8005,3.8984,24.405
lg,1624878347897887255,0,-0.1919,-0.8215,0.7075,80,33.6914,79.9561,-9.9487,161,1.5047,1.5608,23.6665,-37.8537,30,0.2501,8970,3.8984,21.7551
lg,1624878347897904477,0,-0.262,-0.7073,0.6333,81,27.4048,81.4819,-9.2163,161,1.5067,1.5598,25.674,-38.238,30,0.2471,8569,3.8984,19.0487
lg,1624878347897920885,0,-0.3013,-0.6804,0.6057,82,8.0566,67.627,8.3618,161,1.5077,1.5588,27.6982,-39.0465,30,0.2501,8109,3.8984,17.265
lg,1624878347897938273,0,-0.3872,-0.8276,0.6716,83,-8.7891,61.4014,15.3198,161,1.5087,1.5568,29.697,-40.8472,30,0.2561,8171,3.8984,15.8578
lg,1624878347897955070,0,-0.4607,-0.7471,0.6709,84,-16.2964,61.2183,21.1792,161,1.5097,1.5508,31.8758,-42.3791,30,0.2601,8192,3.8984,14.5511
lg,1624878347897972033,0,-0.5339,-0.6729,0.6858,85,-22.2778,18.0664,31.9214,161,1.5097,1.5538,33.1488,-43.0543,30,0.2631,8258,3.8984,15.0401
lg,1624878347897988348,0,-0.5481,-0.8005,0.8164,86,-17.8833,-20.2637,31.311,161,1.5087,1.5548,33.1069,-42.8541,30,0.2651,8255,3.8984,16.7691
lg,1624878347898006070,0,-0.5022,-0.8281,0.8425,87,-14.2212,-43.9453,29.2969,161,1.5057,1.5568,32.2072,-42.1647,30,0.2651,8322,3.8984,19.1745
lg,1624878347898022885,0,-0.3967,-0.7876,0.7393,88,-7.9956,-85.144,18.5547,161,1.4997,1.5598,29.6926,-40.9853,30,0.2631,8309,3.8984,22.3576
lg,1624878347898039755,0,-0.0908,-0.6711,0.8589,89,1.4038,-102.356,7.8735,161,1.4997,1.5618,25.8238,-39.2754,30,0.2631,8292,3.8984,25.6744
lg,1624878347898058959,0,-0.2827,-0.7156,0.3579,90,14.3433,-94.0552,-17.5171,161,1.4987,1.5648,22.478,-39.2754,30,0.2621,8637,3.8984,26.5619
lg,1624878347898076922,0,-0.1477,-0.7634,0.6404,91,-4.0283,-59.8755,-7.1411,161,1.4977,1.5658,20.5519,-39.1359,30,0.2621,8318,3.8984,27.4931
lg,1624878347898094440,0,-0.2192,-0.675,0.3687,92,13.0005,-26.8555,-5.127,161,1.4957,1.5628,19.4626,-39.2964,30,0.2621,8352,3.8984,27.7417
lg,1624878347898111699,0,-0.3274,-0.533,0.3455,93,11.9629,20.3247,17.5781,161,1.4967,1.5668,20.868,-39.4553,30,0.2631,8363,3.8984,27.5517
lg,1624878347898128644,0,-0.3999,-0.5688,0.6565,94,0.1221,40.4663,38.6963,161,1.4957,1.5678,23.2401,-39.4285,30,0.2631,8407,3.8984,27.7102
lg,1624878347898146366,0,-0.4094,-0.6782,0.7732,95,-7.019,27.0386,46.9971,161,1.4957,1.5688,25.1968,-39.427,30,0.2651,8398,3.8984,28.5191
lg,1624878347898163255,0,-0.314,-0.8101,0.9021,96,-3.1128,-10.9253,50.0488,161,1.4967,1.5678,25.6959,-38.7762,30,0.2661,8483,3.8984,30.4995
lg,1624878348248186570,0,-0.0803,-0.8154,0.7817,97,21.8506,30.9448,-3.7231,161,1.5027,1.5648,25.729,-38.6501,30,0.2651,26251,3.8984,29.3678
lg,1624878348248231199,0,-0.2874,-0.7686,0.6897,98,22.7661,95.8252,-16.1133,161,1.5057,1.5628,27.8817,-39.6094,30,0.2611,14402,3.8984,25.9204
lg,1624878348248262088,0,-0.4092,-0.6804,0.5952,99,15.5029,90.4541,-11.6577,161,1.5067,1.5618,30.1893,-40.855,30,0.2581,10103,3.8984,22.6594
lg,1624878348248291032,0,-0.5173,-0.7715,0.6431,100,-13.3057,57.1899,9.0332,161,1.5077,1.5608,32.0128,-42.5122,30,0.2621,8171,3.8984,21.0039
lg,1624878348248319051,0,-0.5005,-0.8689,0.7014,101,-26.5503,44.7388,18.7378,161,1.5087,1.5598,33.5083,-44.3658,30,0.2681,7909,3.8984,19.9963
lg,1624878348248346162,0,-0.6682,-0.7139,0.6079,102,-28.9307,7.6904,23.3154,161,1.5087,1.5598,34.4542,-45.4107,30,0.2711,7746,3.8984,20.4225
lg,1624878348248372292,0,-0.7122,-0.6843,0.6792,103,-32.5317,-27.1606,26.9775,161,1.5057,1.5618,34.0338,-45.1035,30,0.2711,7803,3.8984,23.3383
lg,1624878348248398477,0,-0.6912,-0.8435,0.8091,104,-31.9214,-81.1768,44.3115,161,1.5007,1.5638,32.8367,-44.0658,30,0.2681,8355,3.8984,27.5712
lg,1624878348248424051,0,-0.5098,-0.8049,0.7605,105,-20.9961,-171.3257,40.8325,161,1.4967,1.5668,28.6258,-41.5168,30,0.2661,8457,3.8984,34.3314
lg,1624878348248449940,0,-0.1318,-0.6455,0.6169,106,-10.5591,-202.2705,32.8369,161,1.4947,1.5658,21.3207,-38.8807,30,0.2641,7825,3.8984,40.074
lg,1624878348248475477,0,-0.2124,-0.7126,0.2632,107,-3.479,-193.0542,-5.4321,161,1.4937,1.5648,15.0837,-38.6507,30,0.2631,8447,3.8984,44.5625
lg,1624878348248501607,0,0.0862,-0.7034,0.4756,108,-1.9531,-125.7324,14.5264,161,1.4927,1.5648,10.7531,-38.5812,30,0.2631,9865,3.8984,48.0731
lg,1624878348248527829,0,0.064,-0.7019,0.5095,109,-4.5776,-33.8135,29.1138,161,1.4917,1.5658,9.8604,-39.0478,30,0.2611,7878,3.8984,49.7453
lg,1624878348248553255,0,0.0779,-0.677,0.634,110,-1.9531,9.1553,39.7949,161,1.4897,1.5648,11.8341,-39.4445,30,0.2621,7875,3.8984,49.8728
lg,1624878348248578310,0,-0.0356,-0.7366,0.7292,111,-9.2163,67.0166,43.396,105,1.4877,1.5658,14.6026,-40.1288,30,0.2621,7919,3.9732,49.4282
lg,1624878348248603384,0,-0.1487,-0.7886,0.7688,112,-7.2021,90.7593,41.8091,105,1.4907,1.5658,18.1562,-40.9546,30,0.2631,7947,3.9732,48.2303
lg,1624878348248627792,0,-0.2136,-0.7922,0.7561,113,-5.127,92.5903,37.5366,105,1.4907,1.5668,21.6255,-41.8494,30,0.2631,8036,3.9732,46.749
lg,1624878348248651792,0,-0.3169,-0.7588,0.7163,114,-2.0142,82.5806,28.8086,105,1.4917,1.5658,24.6377,-42.7017,30,0.2631,7987,3.9732,45.1826
lg,1624878348248676125,0,-0.3687,-0.7405,0.7307,115,-1.4038,62.6831,27.4658,105,1.4927,1.5658,26.9995,-43.2962,30,0.2651,8026,3.9732,44.1266
lg,1624878348248700107,0,-0.3853,-0.7324,0.7043,116,-4.6997,47.3633,25.0854,105,1.4937,1.5658,28.8008,-43.8971,30,0.2651,8062,3.9732,43.4162
lg,1624878348248724088,0,-0.416,-0.7346,0.6621,117,-7.1411,23.9258,23.3154,105,1.4937,1.5658,29.8897,-44.3383,30,0.2661,8082,3.9732,43.3394
lg,1624878348248748032,0,-0.4241,-0.7151,0.7092,118,-5.8594,9.0332,21.8506,105,1.4937,1.5668,30.4705,-44.3808,30,0.2661,8112,3.9732,43.7545
lg,1624878348248773032,0,-0.4045,-0.7512,0.7034,119,-6.958,-1.8921,20.3247,105,1.4937,1.5668,30.6227,-44.3786,30,0.2661,8143,3.9732,44.4407
lg,1624878348248797088,0,-0.365,-0.7319,0.6453,120,-2.1973,-21.3623,18.4326,105,1.4937,1.5668,30.1247,-43.9765,30,0.2671,8136,3.9732,45.6563
lg,1624878348248821773,0,-0.3694,-0.6689,0.5483,121,0.2441,-24.231,15.9302,105,1.4937,1.5668,29.8457,-43.6482,30,0.2671,8294,3.9732,46.7367
lg,1624878348248845866,0,-0.4226,-0.6924,0.6477,122,1.1597,-22.9492,18.7988,105,1.4937,1.5658,29.4628,-43.0553,30,0.2661,8192,3.9732,48.029
lg,1624878348248869736,0,-0.3672,-0.7661,0.7612,123,10.2539,-38.4521,11.9629,105,1.4947,1.5638,28.2329,-41.96,30,0.2661,8213,3.9732,49.5774
lg,1624878348248894773,0,-0.2317,-0.8159,0.7634,124,14.9536,-49.4995,3.1738,105,1.4957,1.5598,25.9227,-40.7287,30,0.2651,8222,3.9732,50.6736
lg,1624878348248919440,0,-0.1772,-0.8499,0.7732,125,31.25,-38.9404,-16.6626,105,1.4967,1.5528,23.6439,-39.5466,30,0.2611,8610,3.9732,51.0863
lg,1624878348248944236,0,-0.0977,-0.7866,0.7307,126,42.6636,-4.7607,-34.1797,105,1.4977,1.5408,21.9218,-38.5567,30,0.2541,9364,3.9732,49.9323
lg,1624878348248968699,0,-0.1562,-0.7,0.5701,127,38.5132,19.4702,-38.5132,105,1.4997,1.5307,21.112,-38.1909,30,0.2461,10222,3.9732,47.923
lg,1624878348248996792,0,-0.1863,-0.6118,0.5364,128,15.625,32.6538,-12.8784,105,1.5007,1.5257,21.4956,-38.467,30,0.2491,8567,3.9732,46.4631
lg,1624878348628603217,0,-0.79,-0.6646,0.6887,129,-28.9917,67.5049,16.4185,105,1.5027,1.5277,23.6226,-39.961,30,0.2601,25881,3.9732,46.3586
lg,1624878348628676958,0,-0.6838,-0.8696,0.8201,130,-20.3857,-120.5444,43.7012,105,1.4957,1.5378,21.2832,-39.184,30,0.2601,15450,3.9732,51.0519
lg,1624878348628697051,0,-0.5398,-0.7983,0.7432,131,-13.3057,-176.8188,43.396,105,1.4907,1.5428,17.0709,-37.9909,30,0.2601,7789,3.9732,57.0616
lg,1624878348628716310,0,0.0415,-0.6282,0.8228,132,8.606,-223.999,15.686,105,1.4897,1.5458,9.595,-36.2198,30,0.2591,7737,3.9732,63.1248
lg,1624878348628734921,0,-0.0217,-0.7361,0.3386,133,3.7842,-205.2002,-3.9062,105,1.4887,1.5468,3.9034,-37.1817,30,0.2591,7904,3.9732,67.2208
lg,1624878348628753143,0,0.2537,-0.8394,0.6365,134,-9.0332,-120.7886,8.667,105,1.4877,1.5458,-0.368,-38.0284,30,0.2591,7917,3.9732,70.4129
lg,1624878348628770606,0,0.0383,-0.7087,0.3792,135,0.6104,-16.9067,0.4272,105,1.4867,1.5448,-0.9787,-38.9159,30,0.2581,10975,3.9732,70.8545
lg,1624878348628788754,0,-0.0974,-0.6047,0.5325,136,6.0425,90.0879,28.8086,105,1.4867,1.5468,2.841,-39.0675,30,0.2571,7706,3.9732,69.4826
lg,1624878348628806625,0,-0.2932,-0.6643,0.7163,137,-0.2441,109.436,34.4849,105,1.4857,1.5478,7.678,-39.5871,30,0.2581,7846,3.9732,67.9737
lg,1624878348628824625,0,-0.3621,-0.7434,0.7239,138,-9.4604,92.8955,43.2739,105,1.4857,1.5478,12.0736,-40.3743,30,0.2561,7828,3.9732,66.8559
lg,1624878348628843125,0,-0.355,-0.7917,0.8564,139,-7.5073,61.7676,47.9736,105,1.4857,1.5488,15.3752,-40.7932,30,0.2571,8010,3.9732,66.6766
lg,1624878348628860514,0,-0.3086,-0.7944,0.8894,140,-3.54,47.6074,45.3491,105,1.4857,1.5498,17.8489,-40.9668,30,0.2581,7877,3.9732,66.7821
lg,1624878348628878051,0,-0.1843,-0.8267,0.8704,141,2.5024,16.4795,31.7993,105,1.4847,1.5508,18.8132,-40.7863,30,0.2591,7931,3.9732,67.3071
lg,1624878348628895310,0,-0.1914,-0.8015,0.7551,142,14.0991,22.644,12.146,105,1.4907,1.5528,19.4587,-40.5352,30,0.2601,7981,3.9732,66.9923
lg,1624878348628912773,0,-0.1641,-0.7458,0.7371,143,25.6958,43.1519,-3.479,105,1.4947,1.5518,20.2587,-40.1426,30,0.2591,11999,3.9732,65.622
lg,1624878348628930180,0,-0.2615,-0.7754,0.5747,144,32.0435,75.1953,-22.2778,105,1.4967,1.5498,21.778,-40.4035,30,0.2551,8349,3.9732,62.6209
lg,1624878348628948143,0,-0.3042,-0.7417,0.5525,145,35.2783,88.7451,-21.9727,105,1.4977,1.5458,23.7595,-40.759,30,0.2491,8378,3.9732,59.1952
lg,1624878348628965551,0,-0.3162,-0.7214,0.5818,146,34.6069,96.5576,-19.7144,105,1.4997,1.5418,25.9523,-41.2445,30,0.2411,8188,3.9732,55.5713
lg,1624878348628982829,0,-0.3606,-0.6423,0.5876,147,22.583,89.1113,-9.0942,105,1.5017,1.5368,28.2213,-41.9422,30,0.2371,8009,3.9732,52.4911
lg,1624878348629000199,0,-0.4336,-0.677,0.6643,148,-2.8687,66.04,8.4839,105,1.5037,1.5327,30.2344,-43.0527,30,0.2401,8623,3.9732,50.661
lg,1624878348629017588,0,-0.4897,-0.7874,0.7029,149,-18.2495,54.8096,19.6533,105,1.5037,1.5327,32.2064,-44.5615,30,0.2451,8767,3.9732,49.4396
lg,1624878348629038403,0,-0.6575,-0.7539,0.6897,150,-31.311,20.6299,39.0625,105,1.5027,1.5347,33.9035,-45.5777,30,0.2471,8518,3.9732,49.9972
lg,1624878348629057940,0,-0.8115,-0.7336,0.6963,151,-48.9502,-45.5933,43.2129,105,1.5007,1.5418,34.0579,-45.8545,30,0.2471,8150,3.9732,53.0189
lg,1624878348629076014,0,-0.7637,-0.7957,0.7275,152,-46.0205,-132.9346,66.4062,105,1.4957,1.5478,32.2382,-44.0532,30,0.2471,8245,3.9732,59.7325
lg,1624878348629095754,0,-0.604,-0.7783,0.7627,153,-44.3726,-179.3823,71.0449,105,1.4867,1.5488,28.8172,-41.761,30,0.2471,8782,3.9732,67.7973
lg,1624878348629113051,0,0.2078,-0.6731,1.3296,154,-20.0806,-236.5112,40.8936,105,1.4837,1.5478,21.3585,-38.4952,30,0.2471,8238,3.9732,76.1741
lg,1624878348629132551,0,0.0671,-0.8789,0.6975,155,-23.2544,-168.5791,1.0376,105,1.4847,1.5458,15.2037,-38.5474,30,0.2471,8672,3.9732,80.4399
lg,1624878348629152792,0,0.1404,-0.842,0.5764,156,-12.146,-129.0283,4.7607,105,1.4827,1.5438,11.0286,-38.3623,30,0.2471,8257,3.9732,81.65
lg,1624878348629174162,0,-0.0747,-0.78,0.3918,157,4.8218,-34.6069,-33.02,105,1.4827,1.5428,8.9226,-39.1592,30,0.2481,8315,3.9732,81.304
lg,1624878348629193847,0,-0.1555,-0.6067,0.3867,158,18.6768,28.4424,4.0283,105,1.4817,1.5458,10.0463,-39.2115,30,0.2481,8659,3.9732,80.5907
lg,1624878348629212199,0,-0.2668,-0.5581,0.5247,159,4.0283,69.2139,21.7896,105,1.4817,1.5468,13.088,-39.5505,30,0.2491,9064,3.9732,79.4304
lg,1624878348629231477,0,-0.3215,-0.741,0.699,160,-5.6763,70.4346,30.3345,105,1.4807,1.5478,16.1897,-40.274,30,0.2501,9095,3.9732,78.4555
lg,1624878349005057921,0,-0.3428,-0.7776,0.7747,161,8.0566,15.564,16.4795,105,1.4837,1.5538,16.4773,-39.9727,30,0.2531,26149,3.9732,78.7471
lg,1624878349005164236,0,-0.1426,-0.7715,0.813,162,26.8555,-13.4277,4.6387,105,1.4897,1.5538,15.8161,-38.8962,30,0.2541,10444,3.9732,79.2095
lg,1624878349005196143,0,-0.0884,-0.8464,0.7173,163,29.2969,17.334,-12.7563,105,1.4957,1.5528,15.6007,-38.3944,30,0.2521,12178,3.9732,78.2233
lg,1624878349005226032,0,-0.0981,-0.7725,0.6782,164,36.2549,58.96,-17.334,105,1.4977,1.5508,17.1689,-38.2612,30,0.2471,12185,3.9732,75.5499
lg,1624878349005254569,0,-0.1775,-0.7004,0.6033,165,25.8179,84.4116,-18.4326,105,1.4997,1.5498,19.101,-38.5464,30,0.2461,7893,3.9732,72.5995
lg,1624878349005281958,0,-0.3623,-0.6658,0.5662,166,-0.9155,89.7217,-1.1597,105,1.5007,1.5498,21.9778,-39.8683,30,0.2501,7790,3.9732,69.9915
lg,1624878349005309976,0,-0.3752,-0.7295,0.6042,167,-18.7988,87.1582,17.9443,105,1.5017,1.5488,25.1531,-41.7413,30,0.2541,7794,3.9732,67.9511
lg,1624878349005336680,0,-0.5869,-0.7144,0.6643,168,-28.3203,71.7163,22.9492,105,1.5027,1.5508,28.0963,-43.7026,30,0.2571,7921,3.9732,66.4339
lg,1624878349005362162,0,-0.7283,-0.78,0.6785,169,-45.2271,17.2729,36.1938,105,1.5007,1.5528,29.8732,-45.3886,30,0.2591,7875,3.9732,66.964
lg,1624878349005526199,0,-0.7805,-0.7927,0.8022,170,-43.396,-16.3574,43.7622,105,1.4967,1.5558,29.7789,-44.9612,30,0.2581,9190,3.9732,70.5998
lg,1624878349005563773,0,-0.6858,-0.739,0.8242,171,-26.5503,-110.4736,53.833,105,1.4897,1.5578,28.1995,-43.3227,30,0.2561,7927,3.9732,75.9592
lg,1624878349005594551,0,-0.0784,-0.7126,1.1343,172,-14.8315,-182.5562,41.4429,105,1.4877,1.5578,22.9667,-40.5007,30,0.2551,7913,3.9732,82.9483
lg,1624878349005625088,0,-0.1611,-0.7046,0.5796,173,9.7656,-190.4297,-1.2817,105,1.4867,1.5578,17.3715,-40.0226,30,0.2541,8028,3.9732,86.937
lg,1624878349005656643,0,0.0923,-0.8516,0.8286,174,-13.855,-132.5073,8.4839,105,1.4857,1.5578,12.7056,-39.8162,30,0.2541,7987,3.9732,90.6626
lg,1624878349005696865,0,-0.0815,-0.6931,0.3899,175,10.0098,-62.5,-10.3149,105,1.4857,1.5588,10.2924,-39.9642,30,0.2531,8022,3.9732,91.8008
lg,1624878349005725921,0,-0.0916,-0.623,0.3987,176,5.6152,-21.7285,3.2349,105,1.4857,1.5598,9.6073,-40.1618,30,0.2521,8038,3.9732,92.3738
lg,1624878349005755051,0,-0.1226,-0.5972,0.5706,177,2.1973,41.1987,25.2686,105,1.4847,1.5598,11.4641,-40.3631,30,0.2531,8054,3.9732,92.0312
lg,1624878349005782717,0,-0.2349,-0.7095,0.6541,178,-7.5684,60.5469,34.0576,105,1.4837,1.5598,14.2647,-41.0541,30,0.2531,8143,3.9732,91.4108
lg,1624878349005812476,0,-0.2842,-0.7324,0.7061,179,-8.2397,61.2793,33.5083,105,1.4847,1.5608,17.073,-41.7285,30,0.2551,8084,3.9732,90.722
lg,1624878349005840310,0,-0.3396,-0.7583,0.7627,180,-3.2959,48.5229,30.9448,105,1.4847,1.5598,19.3491,-42.0965,31,0.2581,8096,3.9732,90.2876
lg,1624878349005868365,0,-0.2861,-0.8184,0.8054,181,5.3711,18.3716,24.6582,105,1.4887,1.5578,20.3362,-41.9217,31,0.2591,10787,3.9732,90.4979
lg,1624878349005895754,0,-0.1121,-0.7837,0.8379,182,18.5547,7.6294,11.4746,105,1.4937,1.5588,20.2849,-41.169,31,0.2601,8194,3.9732,90.6283
lg,1624878349005922365,0,-0.0889,-0.873,0.7231,183,20.6909,40.5273,-1.1597,105,1.4977,1.5568,20.8551,-41.1341,31,0.2591,8216,3.9732,89.3151
lg,1624878349005951384,0,-0.114,-0.8408,0.696,184,24.353,58.7158,-4.2114,105,1.4997,1.5558,21.9238,-41.1983,30,0.2581,8251,3.9732,87.3765
lg,1624878349005977532,0,-0.2102,-0.6516,0.5662,185,14.8926,76.6602,-8.9722,105,1.4997,1.5558,23.6435,-41.8865,30,0.2601,8228,3.9732,84.7562
lg,1624878349006021439,0,-0.3569,-0.8086,0.6714,186,-29.0527,79.1016,1.5259,105,1.5007,1.5558,25.7868,-44.3551,30,0.2661,8241,3.9732,82.2855
lg,1624878349006195569,0,-0.4707,-0.8008,0.5574,187,-34.9121,80.3833,14.7095,105,1.5007,1.5578,28.7306,-47.1176,30,0.2691,8297,3.9732,79.9697
lg,1624878349006227847,0,-0.7192,-0.6909,0.5811,188,-33.7524,50.354,34.8511,105,1.4967,1.5598,31.4815,-48.8834,30,0.2661,8320,3.9732,79.2602
lg,1624878349006256532,0,-0.7429,-0.7375,0.7971,189,-25.7568,-17.334,48.0957,105,1.4927,1.5618,32.5829,-48.5392,30,0.2641,8402,3.9732,81.5029
lg,1624878349006287273,0,-0.4006,-0.7312,0.8035,190,-22.3999,-76.4771,44.0063,105,1.4917,1.5618,28.9646,-45.6984,30,0.2641,8351,3.9732,86.3195
lg,1624878349006318495,0,-0.4961,-0.7825,0.3186,191,4.6997,-141.4185,-3.9062,105,1.4897,1.5598,25.0088,-44.342,30,0.2631,8380,3.9732,90.3016
lg,1624878349006348736,0,-0.3037,-0.6721,0.438,192,6.4697,-122.4365,6.1646,105,1.4857,1.5608,21.5099,-43.0433,30,0.2621,8649,3.9732,93.9753
lg,1624878349329318180,0,-0.0352,-0.8372,0.8091,193,3.1738,-79.5898,37.2925,105,1.4867,1.5618,19.4088,-41.8197,30,0.2641,25924,3.9732,97.3944
lg,1624878349329376995,0,0.1116,-0.8206,0.7107,194,10.6201,-41.0767,25.0244,105,1.4877,1.5608,17.8793,-41.0703,30,0.2651,9429,3.9732,99.2291
lg,1624878349329409013,0,0.0786,-0.8279,0.6665,195,13.3057,0.3052,16.2354,105,1.4897,1.5588,17.6062,-40.6463,30,0.2671,7806,3.9732,99.6507
lg,1624878349329506865,0,-0.0564,-0.749,0.8059,196,18.2495,67.749,4.6997,105,1.4927,1.5578,19.1957,-40.5422,30,0.2701,7795,3.9732,97.9097
lg,1624878349329541902,0,-0.2026,-0.8445,0.7222,197,25.2686,88.0127,-13.7329,105,1.4987,1.5548,21.1665,-40.676,30,0.2681,12271,3.9732,94.9105
lg,1624878349329570865,0,-0.2747,-0.6096,0.5625,198,34.3018,60.4248,-15.9912,105,1.4997,1.5518,22.4648,-40.3896,30,0.2621,12072,3.9732,92.5963
lg,1624878349329599273,0,-0.2891,-0.5986,0.5095,199,19.5923,55.1147,-9.7046,105,1.4997,1.5508,23.7951,-40.8779,30,0.2631,7859,3.9732,90.5062
lg,1624878349329627347,0,-0.3774,-0.8181,0.6414,200,-23.6816,66.9556,8.728,105,1.4997,1.5498,25.8627,-42.9694,30,0.2671,7873,3.9732,88.6378
lg,1624878349329654828,0,-0.5603,-0.7317,0.697,201,-25.8789,70.1904,36.9263,105,1.4997,1.5518,29.0145,-44.5797,30,0.2721,7997,3.9732,87.5861
lg,1624878349329682587,0,-0.6743,-0.7048,0.7073,202,-31.6162,51.6357,42.0532,105,1.4977,1.5548,31.8488,-45.985,30,0.2721,7862,3.9732,87.2572
lg,1624878349329715143,0,-0.7095,-0.7922,0.8142,203,-32.4707,-34.9731,44.0063,105,1.4947,1.5578,32.1425,-45.8013,30,0.2691,8093,3.9732,89.9326
lg,1624878349329744217,0,-0.4851,-0.7861,0.7219,204,-19.8975,-130.188,50.7202,105,1.4927,1.5598,29.5815,-43.5979,30,0.2691,7973,3.9732,95.8518
lg,1624878349329772587,0,-0.1038,-0.6799,0.9414,205,-6.0425,-157.959,44.8608,105,1.4907,1.5598,25.2838,-41.282,31,0.2681,8039,3.9732,101.9649
lg,1624878349329800532,0,-0.0925,-0.7598,0.5066,206,-10.376,-123.4131,15.7471,105,1.4887,1.5608,21.2655,-40.7251,31,0.2681,7938,3.9732,105.7401
lg,1624878349329827921,0,-0.0374,-0.738,0.4768,207,5.9814,-45.4712,13.1836,105,1.4897,1.5608,19.5333,-40.5714,31,0.2671,8031,3.9732,107.1852
lg,1624878349329855773,0,-0.1316,-0.708,0.5291,208,1.77,-7.4463,10.6201,105,1.4897,1.5608,19.1631,-40.831,31,0.2671,8038,3.9732,107.56
lg,1624878349329883939,0,-0.1567,-0.7166,0.7417,209,5.4321,40.4053,27.0386,105,1.4897,1.5618,20.6673,-40.8228,30,0.2671,8014,3.9732,107.2604
lg,1624878349329911143,0,-0.25,-0.7798,0.6902,210,1.0986,42.2974,22.2778,105,1.4897,1.5638,22.2383,-41.2573,30,0.2691,8024,3.9732,106.6757
lg,1624878349329940495,0,-0.3093,-0.7812,0.7175,211,5.7983,50.7812,16.9067,105,1.4907,1.5618,23.9611,-41.6277,30,0.2701,13227,3.9732,105.6667
lg,1624878349329968495,0,-0.3525,-0.7046,0.738,212,11.8408,40.4663,14.9536,105,1.4927,1.5618,25.3617,-41.5167,30,0.2721,8344,3.9732,104.9419
lg,1624878349329997865,0,-0.3425,-0.7507,0.7063,213,14.4043,28.9307,8.606,105,1.4947,1.5608,25.8015,-41.513,30,0.2731,8163,3.9732,104.3289
lg,1624878349330026736,0,-0.3892,-0.7808,0.6377,214,0.8545,13.1226,3.2959,105,1.4947,1.5608,26.0975,-41.9689,30,0.2761,8132,3.9732,103.8871
lg,1624878349330054569,0,-0.4363,-0.7463,0.6775,215,-17.2119,6.1646,18.9819,105,1.4937,1.5618,26.6802,-42.6827,30,0.2761,8116,3.9732,104.2279
lg,1624878349330081828,0,-0.4741,-0.6807,0.7473,216,-16.6626,-4.3945,22.4609,105,1.4927,1.5638,27.0938,-42.9258,30,0.2761,8330,3.9732,105.1121
lg,1624878349330111013,0,-0.4443,-0.8362,0.6895,217,-17.2729,-23.1323,21.6675,105,1.4907,1.5638,26.0984,-42.8969,30,0.2771,9287,3.9732,106.5331
lg,1624878349330136384,0,-0.3574,-0.8179,0.7029,218,-7.9346,-50.5371,10.5591,105,1.4907,1.5648,24.6043,-42.671,30,0.2771,8926,3.9732,108.2853
lg,1624878349330166439,0,-0.2546,-0.6953,0.5413,219,0.8545,-51.5137,6.5918,105,1.4897,1.5648,22.9442,-42.3176,30,0.2771,8284,3.9732,109.8621
lg,1624878349330271476,0,-0.2839,-0.7432,0.6191,220,-3.3569,-13.1836,15.7471,105,1.4907,1.5648,22.7233,-42.4186,30,0.2771,8267,3.9732,110.6297
lg,1624878349330323680,0,-0.2698,-0.7471,0.6704,221,-1.4038,-9.8877,15.9912,105,1.4917,1.5658,22.3545,-42.2598,30,0.2781,8352,3.9732,111.4951
lg,1624878349330353458,0,-0.2112,-0.8103,0.7295,222,2.1973,-15.1367,13.6719,105,1.4907,1.5648,21.8258,-42.0728,30,0.2791,8342,3.9732,112.282
lg,1624878349330383050,0,-0.1804,-0.822,0.6953,223,8.4229,-6.1035,4.5166,105,1.4927,1.5628,21.2846,-41.9316,30,0.2791,8358,3.9732,112.4836
lg,1624878349330413217,0,-0.175,-0.7947,0.6802,224,15.686,11.2915,-4.0283,105,1.4937,1.5618,21.05,-41.773,30,0.2781,8446,3.9732,111.9183
lg,1624878349725654902,0,-0.1721,-0.7124,0.5591,225,27.9541,26.1841,-18.9209,89,1.4947,1.5538,21.1794,-41.6253,30,0.2661,26111,3.9842,110.4753
lg,1624878349725739846,0,-0.3059,-0.7585,0.6062,226,-1.2207,65.0024,12.207,89,1.4967,1.5508,23.2816,-42.6241,30,0.2661,17235,3.9842,108.8368
lg,1624878349725761420,0,-0.3896,-0.8247,0.7383,227,-16.6016,65.2466,16.2964,89,1.4967,1.5508,25.4569,-44.0991,30,0.2711,7801,3.9842,107.2986
lg,1624878349725781309,0,-0.584,-0.6951,0.6248,228,-25.4517,26.8555,28.9917,89,1.4967,1.5528,27.2833,-45.2174,30,0.2731,7790,3.9842,107.3104
lg,1624878349725800124,0,-0.6555,-0.7344,0.7031,229,-33.3862,2.4414,34.729,89,1.4937,1.5558,28.2858,-45.6247,30,0.2721,7727,3.9842,109.2143
lg,1624878349725818439,0,-0.6208,-0.7698,0.7505,230,-28.1982,-48.7671,49.9878,89,1.4897,1.5578,28.4099,-45.2316,30,0.2731,7764,3.9842,112.3944
lg,1624878349725836976,0,-0.1924,-0.6672,0.8999,231,4.7607,-123.9014,16.1133,89,1.4887,1.5598,24.5914,-42.7103,30,0.2731,8578,3.9842,116.9339
lg,1624878349725855846,0,-0.1299,-0.8662,0.8188,232,-21.3623,-105.0415,-0.6104,89,1.4887,1.5588,20.7858,-42.535,30,0.2731,12621,3.9842,119.9383
lg,1624878349725874624,0,-0.1812,-0.7363,0.4858,233,10.7422,-72.6929,-15.7471,89,1.4877,1.5588,17.8832,-42.1446,30,0.2721,7807,3.9842,121.324
lg,1624878349725921754,0,-0.3472,-0.6851,0.481,234,6.3477,-4.0894,0.4272,89,1.4867,1.5588,17.9693,-42.3295,30,0.2721,8313,3.9842,121.3053
lg,1624878349725948254,0,-0.3596,-0.627,0.6802,235,5.6763,13.6108,16.7847,89,1.4867,1.5598,18.7659,-42.1496,30,0.2721,9940,3.9842,121.9041
lg,1624878349725967698,0,-0.3345,-0.6655,0.6394,236,-4.8828,-19.5312,27.1606,89,1.4857,1.5608,18.9599,-42.0358,30,0.2731,8416,3.9842,123.2623
lg,1624878349725984735,0,-0.1763,-0.7715,0.6804,237,-6.4087,-25.8179,36.377,89,1.4817,1.5618,18.8052,-41.9441,30,0.2731,8837,3.9842,125.0495
lg,1624878349726002995,0,-0.1116,-0.7776,0.749,238,-0.7935,-9.5215,31.7383,89,1.4837,1.5618,18.8594,-41.7278,30,0.2741,8616,3.9842,126.2618
lg,1624878349726021217,0,-0.1584,-0.7715,0.6814,239,0.1221,-0.9155,29.1748,89,1.4847,1.5608,19.4008,-41.8056,30,0.2751,8445,3.9842,126.7393
lg,1624878349726051346,0,-0.186,-0.781,0.7195,240,1.5259,14.4043,23.9258,89,1.4867,1.5608,20.0905,-41.8455,30,0.2761,8459,3.9842,127.0122
lg,1624878349726069532,0,-0.1948,-0.7756,0.7363,241,5.3101,17.6392,19.5312,89,1.4877,1.5598,20.7462,-41.7745,30,0.2761,8532,3.9842,127.0648
lg,1624878349726086865,0,-0.1296,-0.7898,0.7241,242,17.6392,26.1841,11.2915,89,1.4907,1.5578,21.2801,-41.439,30,0.2721,8694,3.9842,126.5936
lg,1624878349726104902,0,-0.1245,-0.8784,0.7056,243,21.2402,40.2832,2.9907,89,1.4927,1.5538,22.2483,-41.4426,30,0.2671,8591,3.9842,124.8405
lg,1624878349726124291,0,-0.1343,-0.8296,0.6753,244,29.1138,62.7441,-5.188,89,1.4937,1.5468,23.3961,-41.4364,30,0.2591,8622,3.9842,122.7142
lg,1624878349726142106,0,-0.1958,-0.7239,0.6399,245,27.71,81.1157,-6.4087,89,1.4937,1.5418,25.1709,-41.6799,30,0.2531,8610,3.9842,120.0193
lg,1624878349726160402,0,-0.2424,-0.7051,0.6343,246,19.043,92.3462,3.7842,89,1.4977,1.5357,27.5716,-42.351,30,0.2491,8671,3.9842,117.2664
lg,1624878349726182976,0,-0.3918,-0.7239,0.6245,247,9.0332,90.9424,12.2681,89,1.4977,1.5327,30.2418,-43.7721,30,0.2521,8685,3.9842,115.2891
lg,1624878349726203069,0,-0.4536,-0.7983,0.6997,248,-20.9351,70.7397,25.2075,89,1.4977,1.5317,32.661,-45.5852,30,0.2571,8757,3.9842,113.6898
lg,1624878349726222291,0,-0.6787,-0.7258,0.6199,249,-40.5884,33.9966,42.4194,89,1.4977,1.5347,34.9192,-47.22,30,0.2581,8877,3.9842,113.8279
lg,1624878349726240624,0,-0.7844,-0.7285,0.6943,250,-45.4712,-27.71,58.6548,89,1.4927,1.5388,36.0028,-47.2693,30,0.2571,8787,3.9842,116.81
lg,1624878349726261920,0,-0.6472,-0.7363,0.8286,251,-31.3721,-112.4268,56.7627,89,1.4867,1.5428,34.3083,-44.8757,30,0.2541,8823,3.9842,122.8516
lg,1624878349726280235,0,-0.1738,-0.8169,0.9287,252,-26.1841,-170.5933,39.6729,89,1.4817,1.5448,29.4761,-42.1162,30,0.2541,8818,3.9842,129.8186
lg,1624878349726297087,0,-0.1746,-0.7993,0.3596,253,-3.0518,-168.2739,7.9346,89,1.4807,1.5478,24.0652,-41.1954,30,0.2531,9835,3.9842,132.935
lg,1624878349726321680,0,0.0481,-0.813,0.6333,254,-17.7612,-97.168,-5.3101,89,1.4797,1.5478,20.8277,-40.9354,30,0.2511,10205,3.9842,134.5696
lg,1624878349726342272,0,-0.0911,-0.7053,0.3884,255,8.8501,-35.2783,-19.8975,89,1.4787,1.5478,20.4582,-41.8311,30,0.2511,9582,3.9842,133.7969
lg,1624878349726359846,0,-0.2559,-0.6108,0.4258,256,4.7607,37.9028,5.188,89,1.4777,1.5488,21.6691,-42.4923,30,0.2521,8961,3.9842,132.6851
lg,1624878350110001698,0,-0.3472,-0.8027,0.7017,257,-3.7231,28.9307,29.541,89,1.4777,1.5518,23.1699,-42.8532,30,0.2531,27545,3.9842,132.6801
lg,1624878350110053661,0,-0.3179,-0.7793,0.7075,258,1.3428,9.3994,25.8179,89,1.4787,1.5538,23.8908,-42.7728,30,0.2561,8468,3.9842,133.1485
lg,1624878350110112328,0,-0.2078,-0.7803,0.7188,259,6.1646,-3.3569,22.644,89,1.4807,1.5548,23.8987,-42.3751,30,0.2581,7791,3.9842,133.8986
lg,1624878350110143957,0,-0.1069,-0.8113,0.7271,260,13.855,2.9297,13.7329,89,1.4847,1.5538,23.6401,-41.9162,30,0.2591,11682,3.9842,134.1553
lg,1624878350110172309,0,-0.1257,-0.8486,0.7112,261,20.0195,41.3818,1.4038,89,1.4897,1.5528,24.2353,-41.9291,30,0.2591,12078,3.9842,132.8488
lg,1624878350110199735,0,-0.1758,-0.8269,0.6541,262,27.5879,71.6553,-5.4321,89,1.4927,1.5518,25.6324,-42.2042,30,0.2571,8399,3.9842,130.3786
lg,1624878350110228365,0,-0.2454,-0.7529,0.644,263,24.292,88.3789,-7.9956,89,1.4937,1.5498,27.5446,-42.8499,30,0.2541,8351,3.9842,127.3057
lg,1624878350110257420,0,-0.2629,-0.7327,0.6443,264,20.9961,91.98,-5.7373,89,1.4947,1.5478,29.5561,-43.7179,30,0.2521,8407,3.9842,124.1249
lg,1624878350110284198,0,-0.3828,-0.6714,0.5632,265,6.5918,85.7544,-0.5493,89,1.4957,1.5488,31.7347,-45.1406,30,0.2561,9975,3.9842,121.1827
lg,1624878350110309531,0,-0.4805,-0.75,0.6787,266,-22.1558,60.73,20.5078,89,1.4957,1.5498,33.7404,-46.8837,30,0.2611,8980,3.9842,119.7224
lg,1624878350110335957,0,-0.5659,-0.7961,0.6067,267,-42.7856,27.5879,41.8091,89,1.4947,1.5518,35.5383,-48.6054,30,0.2621,8475,3.9842,119.9638
lg,1624878350110361994,0,-0.739,-0.8157,0.6604,268,-45.2271,2.3193,48.5229,89,1.4867,1.5538,37.0386,-49.6078,30,0.2581,8530,3.9842,121.4015
lg,1624878350110387976,0,-0.7944,-0.7456,0.6582,269,-41.0156,-33.02,57.1289,89,1.4817,1.5568,37.3829,-48.514,30,0.2581,8566,3.9842,125.0359
lg,1624878350110416068,0,-0.6016,-0.8262,0.3438,270,2.1973,-151.5503,-8.5449,89,1.4807,1.5508,32.9816,-46.1751,30,0.2561,11018,3.9842,129.7753
lg,1624878350110446957,0,-0.2627,-0.97,1.0447,271,-31.1279,-145.6909,7.6904,89,1.4807,1.5488,28.2577,-45.0446,30,0.2551,8905,3.9842,134.7443
lg,1624878350110475883,0,-0.2524,-0.7292,0.4426,272,13.6108,-157.3486,-31.9824,89,1.4797,1.5478,22.4542,-43.415,30,0.2551,8610,3.9842,138.3264
lg,1624878350110502883,0,-0.2224,-0.6963,0.3928,273,10.1929,-95.3979,-5.3711,89,1.4787,1.5478,19.299,-42.7531,30,0.2541,8634,3.9842,140.6923
lg,1624878350110528309,0,-0.0918,-0.6504,0.46,274,9.4604,-44.8608,18.6768,89,1.4777,1.5488,18.0014,-42.264,30,0.2541,8615,3.9842,142.3916
lg,1624878350110556717,0,-0.1133,-0.6301,0.4731,275,4.5166,-20.5078,22.2168,89,1.4767,1.5498,18.7232,-42.3163,30,0.2551,8673,3.9842,142.9924
lg,1624878350110583550,0,-0.1943,-0.751,0.7371,276,-5.3101,44.5557,33.2031,89,1.4777,1.5528,20.5957,-42.7309,30,0.2561,12067,3.9842,142.7079
lg,1624878350110608568,0,-0.2783,-0.8037,0.7476,277,-3.9062,43.335,30.7617,89,1.4767,1.5548,22.2643,-43.0151,30,0.2571,8687,3.9842,142.3918
lg,1624878350110665865,0,-0.3105,-0.7908,0.7214,278,2.0752,31.189,24.4751,89,1.4777,1.5558,23.5941,-43.1696,30,0.2591,8799,3.9842,142.1696
lg,1624878350110702624,0,-0.2678,-0.8489,0.7666,279,10.1929,17.334,17.5171,89,1.4817,1.5568,24.1627,-42.9351,30,0.2621,8701,3.9842,142.1313
lg,1624878350110733235,0,-0.1079,-0.7996,0.8513,280,30.0293,12.8174,10.376,89,1.4877,1.5568,24.079,-41.7588,30,0.2631,10301,3.9842,142.0771
lg,1624878350110758420,0,-0.1086,-0.8396,0.6636,281,37.5977,41.687,-16.7236,89,1.4937,1.5518,24.1718,-41.3972,30,0.2611,10442,3.9842,140.138
lg,1624878350110783865,0,-0.1448,-0.8281,0.6238,282,42.4194,76.9653,-23.0103,89,1.4927,1.5528,25.2365,-41.4495,30,0.2561,8828,3.9842,136.9279
lg,1624878350110813402,0,-0.2505,-0.7,0.5444,283,35.2783,103.5767,-23.9868,89,1.4967,1.5498,27.3005,-42.201,30,0.2501,8883,3.9842,132.854
lg,1624878350110843976,0,-0.4099,-0.6946,0.5374,284,10.8643,114.502,-8.728,89,1.4967,1.5458,30.2973,-44.0298,30,0.2481,8876,3.9842,128.797
lg,1624878350110869902,0,-0.5071,-0.7271,0.6377,285,-4.8828,109.9243,-1.2817,89,1.4977,1.5408,33.3313,-46.3195,30,0.2531,8938,3.9842,125.0035
lg,1624878350110896142,0,-0.6438,-0.762,0.6875,286,-25.3296,56.2744,24.5361,89,1.4987,1.5357,35.51,-48.0579,30,0.2581,8957,3.9842,123.7722
lg,1624878350110922402,0,-0.7207,-0.6897,0.6672,287,-33.9966,-16.6626,32.1655,89,1.4997,1.5357,36.0742,-48.3385,30,0.2601,8980,3.9842,125.4993
lg,1624878350110948050,0,-0.7356,-0.8472,0.6787,288,-34.6069,-79.7729,40.1001,89,1.4967,1.5408,35.0184,-47.3746,30,0.2611,11855,3.9842,129.6666
lg,1624878350462519679,0,0.1328,-0.6997,1.0491,289,-30.2734,-208.0688,53.5889,89,1.4847,1.5508,29.2925,-44.0046,30,0.2581,26991,3.9842,138.372
lg,1624878350462565346,0,-0.0144,-0.8677,0.3877,290,-14.7705,-160.3394,-2.5635,89,1.4827,1.5508,23.6106,-43.358,30,0.2581,8523,3.9842,142.7759
lg,1624878350462586587,0,0.2271,-0.8403,0.6213,291,1.5259,-74.0356,4.0283,89,1.4827,1.5518,20.2521,-42.8488,30,0.2591,7753,3.9842,144.914
lg,1624878350462606439,0,-0.0684,-0.7493,0.4077,292,3.418,-19.9585,-11.0474,89,1.4817,1.5528,20.4725,-43.9079,30,0.2591,7884,3.9842,143.5421
lg,1624878350462626327,0,-0.2649,-0.6614,0.4802,293,14.4653,98.5107,11.4136,89,1.4807,1.5528,23.4982,-44.7087,30,0.2601,8115,3.9842,140.7776
lg,1624878350462645568,0,-0.439,-0.5864,0.5564,294,1.8921,93.5669,27.0996,89,1.4807,1.5548,27.0788,-45.5848,30,0.2601,8468,3.9842,138.654
lg,1624878350462664272,0,-0.4712,-0.7832,0.7124,295,-5.188,51.5137,35.0342,89,1.4807,1.5558,29.3791,-46.137,30,0.2611,8312,3.9842,138.0413
lg,1624878350462685235,0,-0.3506,-0.8179,0.7605,296,4.7607,-0.5493,30.8838,89,1.4827,1.5558,29.772,-45.4788,30,0.2641,8480,3.9842,139.0297
lg,1624878350462704068,0,-0.1765,-0.7866,0.8208,297,16.7847,-13.7939,18.4937,89,1.4867,1.5548,29.0871,-44.2099,30,0.2661,8400,3.9842,140.1116
lg,1624878350462721976,0,-0.0886,-0.8403,0.73,298,25.3906,11.2915,2.8076,89,1.4907,1.5548,28.5439,-43.5339,31,0.2661,8397,3.9842,139.7364
lg,1624878350462768457,0,-0.0986,-0.8777,0.7212,299,26.001,33.5693,-3.6621,89,1.4947,1.5528,28.5058,-43.3639,31,0.2651,8542,3.9842,138.4102
lg,1624878350462791198,0,-0.1323,-0.7676,0.6482,300,34.8511,71.9604,-11.4136,89,1.4957,1.5518,29.4551,-43.5334,31,0.2621,8422,3.9842,135.627
lg,1624878350462809698,0,-0.2856,-0.6956,0.5593,301,22.0337,96.1304,-11.9629,89,1.4977,1.5508,31.4023,-44.7525,31,0.2591,9134,3.9842,131.9573
lg,1624878350462828235,0,-0.4465,-0.6929,0.6204,302,1.709,98.5718,7.8735,89,1.4977,1.5498,34.1292,-46.4895,30,0.2611,8738,3.9842,128.7892
lg,1624878350462846309,0,-0.5327,-0.7461,0.6526,303,-12.4512,87.2803,14.6484,89,1.4987,1.5498,36.2474,-48.4914,30,0.2681,8557,3.9842,127.2997
lg,1624878350462863772,0,-0.6846,-0.8074,0.6943,304,-34.1797,34.8511,28.9307,89,1.4977,1.5518,37.9334,-50.1001,30,0.2701,9855,3.9842,126.9043
lg,1624878350462881031,0,-0.708,-0.749,0.6638,305,-40.4663,-28.5645,43.5791,89,1.4927,1.5548,37.7706,-49.0294,30,0.2681,10270,3.9842,130.7005
lg,1624878350462913068,0,-0.6704,-0.7349,0.7073,306,-30.7617,-93.0176,47.7905,89,1.4867,1.5568,36.538,-47.0489,30,0.2651,8639,3.9842,135.8677
lg,1624878350462932253,0,-0.248,-0.7808,0.9058,307,-29.2969,-163.0859,49.3164,89,1.4817,1.5588,32.4428,-43.7769,30,0.2651,8661,3.9842,143.3475
lg,1624878350462950161,0,-0.2498,-0.7908,0.2639,308,4.5776,-165.2832,-15.5029,89,1.4827,1.5558,26.7455,-42.4381,30,0.2631,8727,3.9842,147.4048
lg,1624878350462967457,0,0.0449,-0.8457,0.7288,309,-21.8506,-130.0049,-0.7935,89,1.4837,1.5548,22.3384,-41.4462,30,0.2631,8629,3.9842,150.3007
lg,1624878350462985105,0,-0.0427,-0.7871,0.5146,310,10.6812,-79.1626,-24.4751,89,1.4817,1.5548,18.5893,-41.1472,30,0.2621,8645,3.9842,151.5079
lg,1624878350463005457,0,-0.1858,-0.7095,0.4006,311,8.667,-13.2446,-16.9678,89,1.4807,1.5548,17.5534,-41.6164,30,0.2631,8690,3.9842,151.0978
lg,1624878350463024698,0,-0.2068,-0.6467,0.4219,312,15.8691,35.0952,4.0283,89,1.4817,1.5558,18.6193,-41.8462,30,0.2611,8723,3.9842,150.0566
lg,1624878350463042031,0,-0.312,-0.5769,0.4832,313,5.188,61.5845,21.6675,89,1.4807,1.5568,21.1725,-42.312,30,0.2621,8761,3.9842,148.8794
lg,1624878350463060031,0,-0.3782,-0.5923,0.5713,314,-4.0283,67.0776,31.189,89,1.4807,1.5578,24.0228,-42.956,30,0.2631,8749,3.9842,147.8576
lg,1624878350463078087,0,-0.4387,-0.7788,0.7607,315,-13.7329,43.2739,37.4756,89,1.4807,1.5578,26.2135,-43.6475,30,0.2631,8777,3.9842,147.7047
lg,1624878350463096827,0,-0.3289,-0.8398,0.7942,316,-3.6621,-10.5591,37.8418,89,1.4807,1.5588,26.5366,-43.2183,30,0.2641,8816,3.9842,149.2016
lg,1624878350463113772,0,-0.1453,-0.8359,0.8074,317,3.2959,-24.4751,35.4614,89,1.4827,1.5588,26.0267,-42.3568,30,0.2641,8842,3.9842,151.0473
lg,1624878350463131531,0,-0.0149,-0.8718,0.8137,318,12.8174,2.6855,23.7427,89,1.4867,1.5578,25.7697,-41.7331,30,0.2671,8852,3.9842,151.6569
lg,1624878350463148883,0,-0.0029,-0.8174,0.7698,319,23.8647,22.4609,16.0522,89,1.4927,1.5588,25.9507,-41.1516,30,0.2661,8904,3.9842,151.3838
lg,1624878350463182364,0,-0.105,-0.8511,0.6655,320,27.4048,77.5146,-3.1128,89,1.4947,1.5558,27.3997,-41.6003,30,0.2641,8480,3.9842,148.7746
lg,1624878350820290235,0,-0.3765,-0.708,0.5659,321,18.5547,121.9482,-3.2349,89,1.4967,1.5468,30.7051,-43.1361,30,0.2521,26408,3.9842,144.7122
lg,1624878350820328642,0,-0.5112,-0.6997,0.606,322,-3.418,99.6094,11.7798,89,1.4987,1.5418,33.4201,-45.1369,30,0.2601,10088,3.9842,142.6753
lg,1624878350820349105,0,-0.7019,-0.7419,0.5974,323,-29.7241,29.9072,32.8979,89,1.4997,1.5388,35.3018,-46.5024,30,0.2621,7873,3.9842,142.6173
lg,1624878350820367901,0,-0.75,-0.7678,0.6536,324,-36.6211,-41.1377,31.25,89,1.4987,1.5398,35.1311,-46.6166,30,0.2651,8040,3.9842,145.0742
lg,1624878350820386716,0,-0.7583,-0.8076,0.6875,325,-34.4849,-71.9604,35.2173,89,1.4957,1.5418,34.1848,-45.979,30,0.2641,7820,3.9842,148.736
lg,1624878350820404068,0,-0.5969,-0.8264,0.7314,326,-29.541,-146.4844,47.9126,89,1.4887,1.5458,31.1762,-43.721,30,0.2621,7804,3.9842,155.2146
lg,1624878350820421809,0,0.0542,-0.6675,1.1072,327,-25.5737,-180.9082,45.8984,89,1.4857,1.5488,24.855,-40.2917,30,0.2631,7830,3.9842,162.7441
lg,1624878350820440290,0,-0.0771,-0.6541,0.5432,328,15.8081,-200.2563,-17.1509,89,1.4847,1.5508,17.5138,-38.3129,30,0.2611,7896,3.9842,167.433
lg,1624878350820458512,0,0.1096,-0.854,0.8018,329,-20.874,-125.9155,-6.3477,89,1.4857,1.5518,12.5584,-38.688,30,0.2621,8044,3.9842,170.3792
lg,1624878350820476235,0,-0.1101,-0.7666,0.3831,330,2.0142,-91.4307,-19.8364,89,1.4837,1.5498,9.889,-39.3646,30,0.2611,7859,3.9842,170.5296
lg,1624878350820494494,0,-0.1831,-0.7185,0.3555,331,2.7466,-10.437,-26.7334,89,1.4837,1.5488,9.0337,-40.2618,30,0.2611,7959,3.9842,169.8109
lg,1624878350820511753,0,-0.2551,-0.6982,0.4392,332,15.8081,55.481,0.4883,89,1.4837,1.5528,11.0621,-40.5388,30,0.2611,7879,3.9842,168.2577
lg,1624878350820529179,0,-0.3225,-0.6555,0.4651,333,14.5874,68.6035,9.2163,89,1.4837,1.5528,14.2487,-40.7991,30,0.2611,7883,3.9842,166.9797
lg,1624878350820546161,0,-0.4231,-0.5935,0.5718,334,-2.1362,64.9414,27.3438,89,1.4837,1.5538,17.4196,-41.3179,30,0.2621,7962,3.9842,166.0104
lg,1624878350820563605,0,-0.4819,-0.7854,0.7227,335,-15.4419,25.8789,38.3301,89,1.4827,1.5558,19.4768,-42.0017,30,0.2631,8169,3.9842,166.4206
lg,1624878350820581068,0,-0.4329,-0.8479,0.7588,336,-12.4512,-4.1504,41.1377,89,1.4827,1.5558,20.3418,-42.2169,30,0.2631,7985,3.9842,167.7676
lg,1624878350820598457,0,-0.2319,-0.8386,0.8208,337,1.5869,-57.0068,43.0298,89,1.4827,1.5568,19.431,-41.2694,30,0.2641,8033,3.9842,170.7005
lg,1624878350820616698,0,-0.0017,-0.8247,0.7942,338,7.6904,-57.4341,31.6772,88,1.4847,1.5568,17.776,-40.3265,30,0.2661,8039,3.9842,-186.7731
lg,1624878350820636846,0,0.0615,-0.8218,0.7827,339,11.4746,-37.2314,20.9351,88,1.4887,1.5558,16.3319,-39.6992,30,0.2651,8072,3.9842,-185.204
lg,1624878350820658661,0,0.0325,-0.8252,0.689,340,24.6582,27.4048,5.3101,88,1.4907,1.5548,16.6113,-39.2939,30,0.2651,8082,3.9842,-185.8856
lg,1624878350820677716,0,-0.1729,-0.7773,0.6079,341,34.3018,104.8584,-8.9111,88,1.4957,1.5488,19.3586,-39.3848,30,0.2611,16609,3.9842,170.8764
lg,1624878350820697327,0,-0.3137,-0.7141,0.603,342,24.7803,119.5679,-3.418,88,1.4967,1.5468,22.9029,-40.0264,30,0.2581,8154,3.9842,167.3439
lg,1624878350820803864,0,-0.3599,-0.6833,0.6179,343,16.2964,117.9199,6.5918,88,1.4977,1.5458,26.7717,-41.1405,30,0.2561,8194,3.9842,164.6115
lg,1624878350820835975,0,-0.4724,-0.7063,0.6631,344,-4.3335,98.5718,20.5078,88,1.4987,1.5438,30.1995,-42.6299,30,0.2601,8157,3.9842,162.2014
lg,1624878350820854549,0,-0.5552,-0.854,0.7498,345,-25.6958,63.9038,27.0996,88,1.4997,1.5428,32.6158,-44.4917,30,0.2651,8196,3.9842,160.9289
lg,1624878350820873327,0,-0.6736,-0.6917,0.6584,346,-29.1138,15.9302,25.7568,88,1.5007,1.5438,33.8844,-45.5325,30,0.2681,8656,3.9842,161.223
lg,1624878350820896105,0,-0.7087,-0.7661,0.6885,347,-36.1938,-16.8457,23.0103,88,1.4997,1.5468,33.3896,-45.6616,30,0.2701,8849,3.9842,163.7489
lg,1624878350820919420,0,-0.665,-0.8691,0.6724,348,-31.8604,-75.8057,38.7573,88,1.4957,1.5468,32.2892,-45.0862,30,0.2691,8309,3.9842,167.4801
lg,1624878350820963957,0,-0.4358,-0.7727,0.707,349,-23.0713,-140.1978,45.4102,88,1.4897,1.5538,29.1595,-43.0036,30,0.2661,8374,3.9842,-186.5139
lg,1624878350820989531,0,-0.0188,-0.6655,0.8472,350,-15.7471,-163.208,30.2734,88,1.4857,1.5538,24.0669,-40.7785,30,0.2661,8323,3.9842,-180.5379
lg,1624878350821007642,0,0.0378,-0.6697,0.7266,351,2.6855,-149.5972,-0.3052,88,1.4847,1.5548,18.4991,-39.2489,30,0.2651,8374,3.9842,-176.4568
lg,1624878350821025957,0,-0.0032,-0.8538,0.761,352,-20.1416,-73.4863,-5.3101,88,1.4827,1.5548,15.4015,-39.8932,30,0.2651,8337,3.9842,-174.7785
lg,1624878351209161494,0,-0.387,-0.6729,0.373,353,14.1602,53.5278,3.479,88,1.4827,1.5518,17.5934,-40.459,30,0.2641,26877,3.9842,-176.3154
lg,1624878351209210790,0,-0.4734,-0.6084,0.5481,354,11.0474,47.7295,23.1934,88,1.4817,1.5548,20.1282,-40.4625,31,0.2641,12478,3.9842,-176.9627
lg,1624878351209242123,0,-0.4941,-0.6785,0.6099,355,-3.479,2.8687,37.5366,88,1.4817,1.5558,21.5173,-40.4664,31,0.2641,10149,3.9842,-175.9161
lg,1624878351209279105,0,-0.3701,-0.8328,0.718,356,-4.3945,-31.9214,50.2319,88,1.4807,1.5568,21.7345,-40.0481,31,0.2641,7766,3.9842,-173.5061
lg,1624878351209308549,0,-0.155,-0.8022,0.7871,357,-0.3662,-48.0957,50.7812,88,1.4827,1.5568,20.6483,-38.9437,31,0.2661,7709,3.9842,-170.4431
lg,1624878351209336049,0,-0.0664,-0.8093,0.7935,358,8.667,-56.4575,42.3584,88,1.4847,1.5578,19.4954,-38.0533,30,0.2691,9654,3.9842,-168.2411
lg,1624878351209363068,0,0.1035,-0.8018,0.8108,359,17.2729,-18.2495,29.1138,88,1.4887,1.5578,18.6841,-37.1602,30,0.2691,7805,3.9842,-166.8929
lg,1624878351209389512,0,-0.0115,-0.8262,0.6477,360,19.7754,48.4619,3.7842,88,1.4927,1.5598,19.626,-37.3402,30,0.2701,8358,3.9842,-168.2065
lg,1624878351209415808,0,-0.0999,-0.8323,0.6274,361,20.0806,79.7729,1.4038,88,1.4957,1.5538,22.5707,-37.9797,30,0.2691,7996,3.9842,-171.2412
lg,1624878351209441660,0,-0.2571,-0.7703,0.6611,362,29.6021,122.6807,-1.77,88,1.4957,1.5518,26.0332,-38.6656,30,0.2651,7831,3.9842,-174.8295
lg,1624878351209467494,0,-0.3804,-0.7617,0.6292,363,19.6533,127.1973,-0.9155,88,1.4967,1.5478,29.8438,-40.0753,30,0.2591,12003,3.9842,-178.7309
lg,1624878351209492790,0,-0.5029,-0.7478,0.6497,364,10.498,110.9619,5.7373,88,1.4967,1.5448,33.2124,-41.6926,30,0.2571,8407,3.9842,-182.1265
lg,1624878351209518253,0,-0.6006,-0.729,0.6719,365,-9.2773,68.7256,14.0381,88,1.4977,1.5428,35.519,-43.2695,30,0.2621,8513,3.9842,-184.0042
lg,1624878351209543068,0,-0.6338,-0.8018,0.7034,366,-28.8086,15.2588,33.0811,88,1.4987,1.5408,36.6753,-44.2448,30,0.2651,8517,3.9842,-183.4732
lg,1624878351209568234,0,-0.6714,-0.7454,0.6113,367,-37.9639,-18.7988,30.8838,88,1.4997,1.5408,36.9346,-44.9493,30,0.2681,8550,3.9842,-181.8612
lg,1624878351209593975,0,-0.6702,-0.8284,0.6836,368,-40.2832,-67.9321,30.1514,88,1.4957,1.5448,35.3847,-43.8523,30,0.2671,9472,3.9842,-177.6285
lg,1624878351209619697,0,-0.5801,-0.7896,0.7258,369,-25.8789,-120.4834,42.1753,88,1.4897,1.5478,32.7466,-41.9639,30,0.2641,8670,3.9842,-172.2493
lg,1624878351209645549,0,-0.2827,-0.7205,0.7319,370,-17.395,-178.4668,30.2124,88,1.4867,1.5508,27.4833,-39.5316,30,0.2651,8604,3.9842,-165.8682
lg,1624878351209671234,0,-0.0876,-0.7429,0.3647,371,16.6626,-162.8418,-29.6631,88,1.4857,1.5538,20.972,-38.4468,30,0.2641,8571,3.9842,-162.853
lg,1624878351209696790,0,0.0303,-0.8311,0.7229,372,-4.2114,-118.2251,-31.5552,88,1.4847,1.5528,17.1312,-38.6549,30,0.2641,8604,3.9842,-161.3947
lg,1624878351209751846,0,-0.0413,-0.7888,0.5073,373,12.3291,-48.0347,-26.5503,88,1.4837,1.5528,14.4349,-38.8001,30,0.2641,8648,3.9842,-161.2227
lg,1624878351209781957,0,-0.2695,-0.71,0.3445,374,10.8643,11.0474,-28.2593,88,1.4837,1.5538,14.2826,-39.602,30,0.2641,8647,3.9842,-162.6517
lg,1624878351209880475,0,-0.3618,-0.6567,0.4141,375,22.583,57.373,2.7466,88,1.4837,1.5548,16.5519,-39.7381,30,0.2631,8664,3.9842,-164.2508
lg,1624878351209970308,0,-0.4507,-0.5574,0.5952,376,8.5449,52.2461,21.1182,88,1.4837,1.5558,19.1725,-39.7317,30,0.2641,8724,3.9842,-165.0086
lg,1624878351210036920,0,-0.4614,-0.7285,0.7434,377,-10.2539,6.7139,34.79,88,1.4837,1.5568,20.4531,-39.9878,30,0.2641,10391,3.9842,-164.1149
lg,1624878351210068864,0,-0.3293,-0.8799,0.7832,378,-3.3569,-44.0674,38.147,88,1.4827,1.5578,19.8945,-39.6031,30,0.2651,8761,3.9842,-161.7786
lg,1624878351210100068,0,-0.2344,-0.8281,0.7717,379,2.8687,-59.2041,37.2314,88,1.4837,1.5578,18.481,-38.778,30,0.2661,8790,3.9842,-159.047
lg,1624878351210128864,0,-0.0371,-0.7759,0.7683,380,7.9346,-54.8706,30.3955,88,1.4847,1.5588,16.8789,-37.9844,30,0.2681,8752,3.9842,-156.703
lg,1624878351210156568,0,0.0728,-0.8306,0.7261,381,15.0146,-9.2163,15.0146,88,1.4887,1.5578,16.1645,-37.6146,30,0.2681,8803,3.9842,-156.1043
lg,1624878351210185327,0,-0.0317,-0.8306,0.6816,382,21.4844,58.4106,-0.4272,88,1.4927,1.5568,17.4384,-37.7179,30,0.2691,8851,3.9842,-157.7621
lg,1624878351210215179,0,-0.1768,-0.7795,0.6121,383,25.1465,84.8999,-4.0283,88,1.4947,1.5558,20.2801,-38.1547,30,0.2671,8852,3.9842,-160.7961
lg,1624878351210241197,0,-0.2334,-0.7681,0.5999,384,25.3906,119.0796,-5.188,88,1.4947,1.5518,23.6004,-38.9636,30,0.2621,8891,3.9842,-164.3744
lg,1624878351558421049,0,-0.541,-0.7085,0.6763,385,-5.249,73.3643,18.7378,88,1.4967,1.5438,26.5364,-40.0486,30,0.2611,27001,3.9842,-165.916
lg,1624878351558464086,0,-0.5889,-0.864,0.7034,386,-27.4048,25.3296,29.7241,88,1.4987,1.5408,28.1331,-41.4305,30,0.2641,8714,3.9842,-165.837
lg,1624878351558484919,0,-0.6877,-0.7434,0.6599,387,-40.8325,-33.8745,30.7617,88,1.4977,1.5418,28.2082,-42.3296,30,0.2661,7788,3.9842,-163.8883
lg,1624878351558504438,0,-0.6704,-0.8179,0.6514,388,-38.3301,-93.2617,46.5088,88,1.4957,1.5478,26.8944,-42.1591,30,0.2661,12071,3.9842,-159.657
lg,1624878351558522901,0,-0.4604,-0.7512,0.7666,389,-22.8882,-152.5269,48.9502,88,1.4877,1.5508,23.4855,-40.5613,30,0.2641,10515,3.9842,-153.61
lg,1624878351558541382,0,-0.1382,-0.7642,0.7385,390,-17.7612,-185.4248,31.7993,88,1.4847,1.5538,18.0226,-39.3154,30,0.2641,8363,3.9842,-147.5678
lg,1624878351558559253,0,-0.0146,-0.8025,0.4036,391,10.5591,-144.6533,-24.7803,88,1.4847,1.5548,12.3297,-39.0553,30,0.2641,8351,3.9842,-144.8658
lg,1624878351558577105,0,-0.0132,-0.8132,0.5713,392,-8.0566,-96.6187,-21.9116,88,1.4837,1.5538,8.364,-39.6727,30,0.2631,8419,3.9842,-143.1882
lg,1624878351558595012,0,-0.0369,-0.7598,0.4307,393,9.6436,-24.353,-23.6816,88,1.4827,1.5548,6.7975,-40.1043,31,0.2641,8655,3.9842,-143.4057
lg,1624878351558613716,0,-0.311,-0.647,0.2349,394,9.4604,34.9731,-12.8174,88,1.4817,1.5538,8.2352,-40.9319,31,0.2641,9834,3.9842,-144.844
lg,1624878351558631253,0,-0.3782,-0.5698,0.4768,395,15.3198,78.4302,19.2871,88,1.4817,1.5558,11.8267,-40.8977,31,0.2641,8549,3.9842,-146.3884
lg,1624878351558648586,0,-0.4639,-0.6475,0.7527,396,-4.8218,49.8657,34.1187,88,1.4807,1.5558,14.7339,-41.139,31,0.2641,8481,3.9842,-146.6774
lg,1624878351558665753,0,-0.4529,-0.8062,0.8125,397,-8.606,25.3296,36.1938,88,1.4817,1.5568,16.7131,-41.4933,30,0.2661,8479,3.9842,-146.2801
lg,1624878351558683068,0,-0.3118,-0.8723,0.7791,398,5.5542,-31.4941,31.9214,88,1.4807,1.5578,16.5421,-40.9946,30,0.2671,8504,3.9842,-144.486
lg,1624878351558700605,0,-0.1157,-0.7529,0.7578,399,13.2446,-43.6401,23.8647,88,1.4827,1.5578,15.4323,-40.08,30,0.2691,8526,3.9842,-142.5955
lg,1624878351558719068,0,-0.0366,-0.7825,0.6895,400,12.2681,-30.8228,19.5312,88,1.4867,1.5578,14.8373,-39.651,30,0.2701,8565,3.9842,-141.8809
lg,1624878351558757197,0,-0.0625,-0.8152,0.6902,401,16.9067,13.3667,8.1177,88,1.4897,1.5558,15.0073,-39.4025,30,0.2701,8842,3.9842,-142.081
lg,1624878351558777975,0,-0.1418,-0.8486,0.7273,402,22.0337,62.0728,-0.5493,88,1.4937,1.5538,16.5999,-39.3716,30,0.2691,8594,3.9842,-143.845
lg,1624878351558796401,0,-0.2075,-0.7847,0.6794,403,21.4233,86.4258,-0.8545,88,1.4927,1.5528,19.026,-39.6183,30,0.2671,8599,3.9842,-146.2995
lg,1624878351558813586,0,-0.3696,-0.7261,0.6277,404,16.7236,93.3838,-1.0986,88,1.4937,1.5508,21.9235,-40.4958,30,0.2661,8582,3.9842,-148.8439
lg,1624878351558842031,0,-0.4299,-0.7312,0.6565,405,-4.0283,78.9185,10.0708,88,1.4947,1.5498,24.6196,-41.7082,30,0.2721,8651,3.9842,-150.8893
lg,1624878351558861086,0,-0.5408,-0.8281,0.6931,406,-26.7334,47.1191,31.0059,88,1.4967,1.5508,26.916,-43.265,30,0.2751,8686,3.9842,-151.4279
lg,1624878351558882975,0,-0.6753,-0.7666,0.6575,407,-39.5508,-8.3618,38.0859,88,1.4937,1.5538,27.1838,-44.0318,30,0.2741,8786,3.9842,-149.011
lg,1624878351558902382,0,-0.6694,-0.7932,0.6599,408,-38.6353,-62.3779,49.6216,88,1.4877,1.5558,26.8842,-44.1264,30,0.2701,8237,3.9842,-145.5361
lg,1624878351558920568,0,-0.2759,-0.7197,1.0959,409,-21.7896,-133.1177,52.2461,88,1.4867,1.5568,23.8696,-42.0733,30,0.2711,8251,3.9842,-139.6116
lg,1624878351558939086,0,-0.2532,-0.8567,0.5142,410,-9.2163,-153.0151,-4.1504,88,1.4847,1.5578,18.8819,-41.5693,30,0.2691,8307,3.9842,-135.632
lg,1624878351558957586,0,-0.0427,-0.8601,0.7395,411,-17.7002,-137.7563,7.6904,88,1.4837,1.5568,14.7098,-41.0839,30,0.2691,8256,3.9842,-132.5999
lg,1624878351558975697,0,-0.1094,-0.7036,0.3635,412,5.7983,-78.8574,-9.7656,88,1.4827,1.5568,11.8584,-41.2713,30,0.2691,8385,3.9842,-130.9775
lg,1624878351558993382,0,-0.21,-0.6709,0.4639,413,6.3477,6.6528,12.9395,88,1.4827,1.5568,12.5111,-41.5088,30,0.2681,10488,3.9842,-130.8727
lg,1624878351559013956,0,-0.252,-0.6943,0.6775,414,-0.2441,31.8604,24.5361,88,1.4797,1.5588,14.1888,-41.6999,30,0.2701,8309,3.9842,-131.0257
lg,1624878351559035271,0,-0.2427,-0.8315,0.7166,415,-1.5259,29.4189,25.4517,88,1.4827,1.5598,15.6716,-42.0592,30,0.2711,8314,3.9842,-131.1299
lg,1624878351559053901,0,-0.2578,-0.8411,0.679,416,2.3804,27.5269,21.1182,88,1.4827,1.5598,16.988,-42.1882,30,0.2731,8373,3.9842,-131.5315
lg,1624878351932537512,0,-0.2795,-0.7646,0.6782,417,12.8784,18.7378,7.6904,88,1.4877,1.5588,17.6797,-41.999,30,0.2751,26503,3.9842,-131.8914
lg,1624878351932574215,0,-0.1895,-0.7668,0.6423,418,12.3291,28.0762,4.6997,88,1.4907,1.5578,18.3625,-42.0244,30,0.2761,13223,3.9842,-132.6354
lg,1624878351932594215,0,-0.2878,-0.8052,0.6406,419,5.3711,51.6357,8.3618,88,1.4917,1.5568,20.0018,-42.5784,30,0.2761,9896,3.9842,-133.9675
lg,1624878351932613549,0,-0.3811,-0.7534,0.6917,420,3.9673,58.5938,7.9346,88,1.4927,1.5558,21.9148,-43.1424,30,0.2771,7755,3.9842,-135.3729
lg,1624878351932631901,0,-0.3994,-0.7632,0.7002,421,0.4883,46.6309,12.3901,88,1.4927,1.5558,23.5244,-43.6511,30,0.2761,7949,3.9842,-136.4301
lg,1624878351932649141,0,-0.3723,-0.7783,0.6831,422,-0.061,17.7612,19.2261,88,1.4927,1.5548,24.4144,-43.8204,30,0.2761,7661,3.9842,-136.4412
lg,1624878351932667215,0,-0.3035,-0.7522,0.5886,423,0.5493,4.0283,23.2544,88,1.4927,1.5548,24.9083,-43.8668,30,0.2771,7699,3.9842,-135.9636
lg,1624878351932685160,0,-0.3127,-0.76,0.6023,424,0.1221,8.3618,22.0947,88,1.4927,1.5518,25.4842,-43.9813,30,0.2761,8300,3.9842,-135.6505
lg,1624878351932702919,0,-0.3203,-0.7781,0.6501,425,2.5635,16.3574,17.395,88,1.4937,1.5498,26.1194,-44.1028,30,0.2751,8212,3.9842,-135.7098
lg,1624878351932741271,0,-0.2671,-0.7571,0.6902,426,3.54,1.709,23.0103,88,1.4947,1.5468,26.3492,-43.7985,30,0.2751,7811,3.9842,-135.0897
lg,1624878351932760123,0,-0.2351,-0.7595,0.7205,427,-2.1973,-4.2114,25.4517,88,1.4967,1.5468,26.3881,-43.5692,30,0.2771,7955,3.9842,-134.1886
lg,1624878351932778215,0,-0.3191,-0.8726,0.679,428,-25.8179,-1.4038,35.0952,88,1.4977,1.5448,26.9196,-44.4218,30,0.2761,7889,3.9842,-133.1717
lg,1624878351932796715,0,-0.5437,-0.7561,0.6067,429,-48.584,-2.5024,39.1846,88,1.4907,1.5488,28.052,-46.002,30,0.2641,12187,3.9842,-131.9664
lg,1624878351932813864,0,-0.697,-0.7898,0.7644,430,-36.0718,-21.4233,46.4478,88,1.4857,1.5518,28.9661,-46.39,30,0.2641,9552,3.9842,-129.793
lg,1624878351932830715,0,-0.3252,-0.6997,0.895,431,10.8032,-123.6572,-1.77,88,1.4857,1.5538,24.9426,-43.8361,30,0.2631,8488,3.9842,-125.7406
lg,1624878351932847956,0,-0.1279,-0.9099,0.793,432,-10.8643,-130.249,-26.9775,88,1.4837,1.5528,19.7171,-43.3207,31,0.2621,8496,3.9842,-122.7851
lg,1624878351932865123,0,-0.113,-0.8213,0.5742,433,13.2446,-121.0327,-39.7339,88,1.4827,1.5508,14.6078,-42.6014,31,0.2621,8578,3.9842,-120.7031
lg,1624878351932882919,0,-0.1619,-0.6917,0.4087,434,11.6577,-62.2559,-48.5229,88,1.4807,1.5458,11.367,-42.7264,31,0.2621,9429,3.9842,-120.5938
lg,1624878351932900178,0,-0.2771,-0.6687,0.2673,435,15.5029,2.3193,-26.3672,88,1.4807,1.5478,11.1347,-43.1942,31,0.2631,8586,3.9842,-121.6273
lg,1624878351932916901,0,-0.4321,-0.6045,0.3413,436,10.1929,56.2744,4.0283,88,1.4797,1.5488,13.6875,-43.6819,30,0.2631,8609,3.9842,-123.2107
lg,1624878351932934086,0,-0.4414,-0.5793,0.5386,437,9.0942,66.7725,20.3857,88,1.4807,1.5498,16.4456,-43.7095,30,0.2631,8608,3.9842,-123.7525
lg,1624878351932951141,0,-0.4382,-0.7302,0.792,438,-9.3384,12.8784,32.2266,88,1.4797,1.5498,17.9274,-43.8536,30,0.2631,8656,3.9842,-123.1398
lg,1624878351932968660,0,-0.2417,-0.929,0.7971,439,-1.2207,-46.5088,34.668,88,1.4767,1.5538,17.2768,-43.3895,30,0.2641,8688,3.9842,-120.8066
lg,1624878351932985660,0,-0.052,-0.7786,0.7129,440,11.7188,-57.1899,25.3906,88,1.4797,1.5548,15.7328,-42.4007,30,0.2641,8696,3.9842,-118.4582
lg,1624878351933013715,0,0.0549,-0.7524,0.7188,441,12.2681,-43.457,22.1558,88,1.4807,1.5558,14.8739,-41.8171,30,0.2661,8896,3.9842,-117.2799
lg,1624878351933031660,0,0.072,-0.814,0.7407,442,10.437,3.9062,16.4795,88,1.4847,1.5568,14.7028,-41.5288,30,0.2661,8899,3.9842,-116.9424
lg,1624878351933048734,0,0.0037,-0.8279,0.7222,443,20.9351,58.1665,0.061,88,1.4897,1.5568,15.8557,-41.4068,30,0.2661,8887,3.9842,-118.6187
lg,1624878351933151438,0,-0.1394,-0.7893,0.6299,444,26.1841,102.7832,-8.0566,88,1.4927,1.5558,18.391,-41.6756,30,0.2651,8721,3.9842,-121.8401
lg,1624878351933173993,0,-0.2424,-0.7893,0.6326,445,23.4985,126.8921,-6.5918,88,1.4937,1.5528,21.7699,-42.4358,30,0.2621,8819,3.9842,-125.7972
lg,1624878351933193345,0,-0.4312,-0.7566,0.6021,446,20.752,136.1084,-3.9673,88,1.4927,1.5498,25.7259,-43.7852,30,0.2601,8830,3.9842,-129.8202
lg,1624878351933266808,0,-0.5115,-0.7136,0.6411,447,0.2441,114.3188,9.8877,88,1.4937,1.5488,29.3223,-45.4626,30,0.2651,8856,3.9842,-133.2062
lg,1624878351933287345,0,-0.6125,-0.8423,0.7073,448,-29.0527,62.6831,34.2407,88,1.4967,1.5478,32.0146,-47.3077,30,0.2691,9159,3.9842,-134.3113
lg,1624878352301925086,0,-0.7144,-0.7688,0.6389,449,-27.4658,-93.5669,47.4243,99,1.4897,1.5528,30.8229,-46.0823,30,0.2681,29344,3.9787,-129.6636
lg,1624878352301955697,0,-0.2737,-0.7761,0.7334,450,-20.6909,-186.1572,49.1333,99,1.4847,1.5568,26.3,-43.3128,30,0.2661,13796,3.9787,-122.1285
lg,1624878352301975493,0,-0.0232,-0.7991,0.4514,451,1.5259,-174.9878,8.2397,99,1.4837,1.5568,20.492,-41.822,30,0.2661,9752,3.9787,-117.0356
lg,1624878352301994678,0,0.2358,-0.8184,0.6479,452,-8.2397,-96.2524,14.5264,99,1.4827,1.5578,16.7829,-41.5288,31,0.2651,7862,3.9787,-114.0141
lg,1624878352302013160,0,0.1084,-0.7747,0.4246,453,-0.061,-45.166,0.7324,99,1.4817,1.5568,14.581,-41.9683,31,0.2651,7769,3.9787,-112.9647
lg,1624878352302030919,0,-0.1621,-0.7141,0.4705,454,0.4883,59.9976,10.498,99,1.4817,1.5568,16.4863,-42.8884,31,0.2651,7723,3.9787,-114.4739
lg,1624878352302048382,0,-0.3223,-0.6753,0.6624,455,4.8218,85.3271,18.0054,99,1.4817,1.5578,19.562,-43.4419,31,0.2651,7772,3.9787,-116.3691
lg,1624878352302083456,0,-0.4011,-0.7334,0.6289,456,-0.3052,70.7397,22.8882,99,1.4817,1.5628,21.9914,-44.0248,30,0.2661,10010,3.9787,-117.1731
lg,1624878352302101882,0,-0.3855,-0.7891,0.7058,457,-0.4883,41.9922,27.5879,99,1.4827,1.5568,23.8741,-44.3618,30,0.2671,8159,3.9787,-117.6502
lg,1624878352302119382,0,-0.2942,-0.8132,0.7107,458,7.4463,14.8315,25.2686,99,1.4837,1.5598,24.6568,-44.1017,30,0.2681,8202,3.9787,-117.3863
lg,1624878352302136400,0,-0.2063,-0.8235,0.761,459,13.6719,17.0898,13.855,99,1.4857,1.5588,24.9679,-43.7161,30,0.2691,8602,3.9787,-117.5267
lg,1624878352302153567,0,-0.1743,-0.8083,0.7544,460,18.9209,26.2451,9.0332,99,1.4897,1.5598,25.3427,-43.3089,30,0.2701,7862,3.9787,-118.0979
lg,1624878352302170363,0,-0.1807,-0.8284,0.6824,461,24.7803,50.1709,-4.2725,99,1.4917,1.5588,26.0599,-43.3452,30,0.2681,7889,3.9787,-119.9
lg,1624878352302187123,0,-0.207,-0.7747,0.6196,462,26.9165,61.5845,-10.1318,99,1.4937,1.5568,27.2622,-43.6927,30,0.2671,8079,3.9787,-122.6793
lg,1624878352302204252,0,-0.2432,-0.738,0.6128,463,29.2969,82.3364,-13.6719,99,1.4937,1.5568,28.7261,-44.2247,30,0.2651,7925,3.9787,-125.8474
lg,1624878352302223456,0,-0.3716,-0.7046,0.561,464,15.8691,93.1396,-7.5073,99,1.4937,1.5558,30.8866,-45.5135,30,0.2661,8008,3.9787,-129.2711
lg,1624878352302240549,0,-0.5935,-0.7881,0.6562,465,-15.1978,67.2607,13.1836,99,1.4947,1.5558,33.0704,-47.288,30,0.2711,9308,3.9787,-131.2399
lg,1624878352302257419,0,-0.6855,-0.6997,0.5583,466,-35.0342,4.7607,31.3721,99,1.4947,1.5588,34.292,-48.3606,30,0.2711,10073,3.9787,-130.4798
lg,1624878352302273845,0,-0.739,-0.7437,0.5781,467,-45.4712,-31.25,32.4097,99,1.4907,1.5618,34.5819,-49.0946,30,0.2671,8058,3.9787,-128.389
lg,1624878352302290863,0,-0.7893,-0.8271,0.6826,468,-37.6587,-63.5986,48.584,99,1.4857,1.5628,34.4395,-48.4346,30,0.2641,8442,3.9787,-124.5288
lg,1624878352302307863,0,-0.3872,-0.6919,0.7666,469,13.7939,-164.0625,11.9629,99,1.4857,1.5608,29.7488,-44.4098,30,0.2641,8111,3.9787,-118.3712
lg,1624878352302324956,0,-0.3594,-0.8452,0.5662,470,-0.061,-182.5562,-9.1553,99,1.4847,1.5588,23.5924,-42.9157,30,0.2631,8073,3.9787,-113.1766
lg,1624878352302351104,0,-0.0911,-0.7808,0.4915,471,9.0332,-169.4946,-17.9443,99,1.4837,1.5568,17.4567,-41.6561,30,0.2631,8068,3.9787,-109.1196
lg,1624878352302368215,0,-0.2219,-0.6555,0.2637,472,2.1973,-98.999,-21.9116,99,1.4827,1.5568,14.0015,-41.9992,30,0.2621,8908,3.9787,-107.3467
lg,1624878352302385308,0,-0.147,-0.7158,0.5134,473,7.5073,-15.564,14.6484,99,1.4827,1.5578,13.7628,-41.9725,30,0.2611,8161,3.9787,-106.5871
lg,1624878352302402197,0,-0.1194,-0.6863,0.6941,474,1.5259,10.7422,26.3062,99,1.4807,1.5588,14.5124,-41.8857,30,0.2621,13511,3.9787,-106.1028
lg,1624878352302418586,0,-0.1362,-0.8164,0.689,475,-8.1787,31.0669,20.6299,99,1.4817,1.5608,15.6964,-42.5848,31,0.2641,9990,3.9787,-106.4166
lg,1624878352302434937,0,-0.228,-0.842,0.6873,476,-3.2959,43.7012,13.916,99,1.4807,1.5608,17.1968,-43.2673,31,0.2641,8586,3.9787,-107.3239
lg,1624878352302451530,0,-0.2734,-0.8025,0.7051,477,0.4883,40.5273,9.5215,99,1.4817,1.5618,18.5135,-43.7263,31,0.2661,8246,3.9787,-108.2716
lg,1624878352302468493,0,-0.2495,-0.7944,0.7061,478,1.709,32.4097,11.0474,99,1.4837,1.5618,19.536,-44.0366,31,0.2671,8271,3.9787,-108.9456
lg,1624878352302484975,0,-0.188,-0.8364,0.71,479,8.7891,31.8604,9.0332,99,1.4877,1.5658,20.3088,-44.1365,31,0.2671,9069,3.9787,-109.6917
lg,1624878352302501549,0,-0.1616,-0.7998,0.6577,480,22.7051,48.0957,1.9531,99,1.4907,1.5618,21.287,-43.9762,31,0.2661,8917,3.9787,-111.1589
lg,1624878352653152734,0,-0.3638,-0.7468,0.5679,481,22.583,87.5854,-4.0894,99,1.4937,1.5548,23.6667,-44.4742,30,0.2601,26417,3.9787,-114.0611
lg,1624878352653189789,0,-0.4775,-0.731,0.594,482,-7.1411,55.542,13.4277,99,1.4957,1.5538,25.7319,-45.5466,30,0.2671,9502,3.9787,-115.4763
lg,1624878352653234178,0,-0.6235,-0.7336,0.6123,483,-31.4941,-6.7749,27.5269,99,1.4967,1.5528,26.6239,-46.49,30,0.2711,14805,3.9787,-114.4795
lg,1624878352653255141,0,-0.6265,-0.7322,0.6294,484,-35.0342,-40.5884,33.6914,99,1.4937,1.5548,26.7434,-46.9209,30,0.2691,7767,3.9787,-112.1632
lg,1624878352653274159,0,-0.6274,-0.813,0.6763,485,-29.541,-89.5386,41.626,99,1.4877,1.5578,25.6616,-46.3657,30,0.2671,9553,3.9787,-108.0318
lg,1624878352653293197,0,-0.2634,-0.7952,0.9526,486,-18.4937,-156.7383,42.2974,99,1.4857,1.5588,21.9499,-44.3248,30,0.2681,7820,3.9787,-101.7385
lg,1624878352653311937,0,-0.1526,-0.7153,0.7134,487,6.1035,-176.4526,15.686,99,1.4847,1.5598,16.7473,-42.244,30,0.2681,7800,3.9787,-96.1395
lg,1624878352653329845,0,0.0479,-0.8794,0.7734,488,-15.9912,-145.874,6.4087,99,1.4827,1.5598,11.8796,-42.0836,30,0.2681,7832,3.9787,-91.9716
lg,1624878352653348826,0,0.0205,-0.7588,0.4414,489,7.2021,-85.6323,-9.0942,99,1.4817,1.5588,8.6101,-42.1224,30,0.2681,7850,3.9787,-90.0511
lg,1624878352653367048,0,-0.0232,-0.7173,0.428,490,4.0894,-36.8042,-4.3335,99,1.4847,1.5578,7.1464,-42.5014,30,0.2691,8331,3.9787,-89.2769
lg,1624878352653384993,0,-0.1484,-0.6816,0.4739,491,9.6436,49.0112,12.8784,99,1.4787,1.5588,9.0525,-42.7373,30,0.2681,8627,3.9787,-90.2999
lg,1624878352653403937,0,-0.27,-0.6653,0.6147,492,3.54,72.3877,24.7192,99,1.4817,1.5598,12.1309,-42.9932,30,0.2691,7933,3.9787,-91.5988
lg,1624878352653423641,0,-0.3149,-0.7068,0.6763,493,-1.709,67.627,27.4048,99,1.4827,1.5608,15.0638,-43.4328,30,0.2701,7936,3.9787,-92.714
lg,1624878352653442697,0,-0.3665,-0.8262,0.658,494,-1.0376,35.7056,28.9307,99,1.4837,1.5598,17.0515,-43.8183,30,0.2701,7940,3.9787,-92.9515
lg,1624878352653460937,0,-0.302,-0.7747,0.7041,495,6.3477,8.667,30.7007,99,1.4837,1.5618,18.1071,-43.5045,30,0.2721,8163,3.9787,-92.3164
lg,1624878352653482085,0,-0.1797,-0.8123,0.7114,496,8.0566,-3.9062,26.7334,99,1.4847,1.5608,18.3837,-43.0976,31,0.2721,10977,3.9787,-91.4521
lg,1624878352653500604,0,-0.0674,-0.7817,0.7251,497,11.1084,-1.0986,22.8882,99,1.4877,1.5608,18.5909,-42.4453,31,0.2721,8761,3.9787,-91.2527
lg,1624878352653518771,0,-0.0691,-0.8049,0.6724,498,20.813,29.8462,12.085,99,1.4907,1.5598,19.2156,-42.0782,31,0.2721,8595,3.9787,-91.8292
lg,1624878352653537845,0,-0.1682,-0.8396,0.6689,499,16.4795,72.6318,2.6855,99,1.4907,1.5588,21.0226,-42.4869,31,0.2731,8575,3.9787,-93.9575
lg,1624878352653555252,0,-0.4199,-0.7905,0.6152,500,-13.6108,70.1904,9.0332,99,1.4917,1.5598,23.3724,-44.0766,30,0.2791,8622,3.9787,-95.8928
lg,1624878352653572734,0,-0.5767,-0.7009,0.5994,501,-29.1748,39.4287,28.7476,99,1.4897,1.5618,25.6306,-45.565,30,0.2771,9001,3.9787,-96.3031
lg,1624878352653633659,0,-0.6228,-0.6829,0.6301,502,-27.6489,-9.8877,38.6353,99,1.4867,1.5628,26.7811,-46.0494,30,0.2741,10316,3.9787,-94.8112
lg,1624878352653658289,0,-0.5474,-0.7646,0.8674,503,-20.3247,-20.3857,36.0718,99,1.4857,1.5638,27.033,-45.9353,30,0.2751,8695,3.9787,-92.9768
lg,1624878352653677715,0,-0.4639,-0.9309,0.6121,504,-3.6621,-81.3599,7.6904,99,1.4847,1.5628,24.8274,-45.2671,30,0.2741,8737,3.9787,-90.3394
lg,1624878352653696271,0,-0.2332,-0.8098,0.562,505,12.146,-101.5015,0.6104,99,1.4837,1.5628,21.5309,-43.9593,30,0.2721,8728,3.9787,-87.3882
lg,1624878352653715030,0,-0.207,-0.6921,0.4419,506,5.5542,-65.0024,3.2959,99,1.4827,1.5618,19.4824,-43.5662,30,0.2721,8797,3.9787,-85.5615
lg,1624878352653733382,0,-0.2373,-0.6653,0.3872,507,5.0659,-43.7012,12.2681,99,1.4827,1.5628,19.2515,-43.3737,30,0.2721,8790,3.9787,-84.4201
lg,1624878352653750326,0,-0.1511,-0.7568,0.6587,508,2.2583,1.4648,27.8931,99,1.4827,1.5638,19.6367,-43.2321,30,0.2721,8794,3.9787,-83.6784
lg,1624878352653766919,0,-0.1946,-0.7612,0.6375,509,1.5869,11.1084,25.2686,99,1.4827,1.5648,20.3135,-43.2825,30,0.2721,8823,3.9787,-83.3139
lg,1624878352653784067,0,-0.2659,-0.7742,0.6633,510,1.3428,20.0806,22.644,99,1.4837,1.5648,21.289,-43.428,30,0.2721,8857,3.9787,-83.2865
lg,1624878352653800678,0,-0.2808,-0.8105,0.699,511,5.6152,11.1694,22.3999,99,1.4837,1.5638,21.9647,-43.2951,30,0.2721,8880,3.9787,-83.0024
lg,1624878352653817567,0,-0.2717,-0.7854,0.7261,512,8.8501,4.4556,25.8179,99,1.4857,1.5648,22.308,-42.7922,30,0.2741,8921,3.9787,-82.3057
lg,1624878353026092919,0,-0.1389,-0.8406,0.6401,513,17.6392,60.6079,10.0708,99,1.4927,1.5608,24.2592,-43.1153,30,0.2701,28068,3.9787,-84.4678
lg,1624878353026130048,0,-0.2383,-0.76,0.6436,514,22.7661,94.7876,3.9673,99,1.4927,1.5578,26.6795,-43.6647,30,0.2641,12487,3.9787,-87.3451
lg,1624878353026150585,0,-0.2983,-0.7241,0.6169,515,9.6436,95.2759,2.2583,99,1.4927,1.5578,29.0847,-44.894,30,0.2651,10620,3.9787,-90.3971
lg,1624878353026169900,0,-0.4675,-0.8008,0.7012,516,-27.771,75.5005,6.897,99,1.4937,1.5578,31.1432,-47.3035,30,0.2701,8295,3.9787,-92.77
lg,1624878353026188678,0,-0.5967,-0.7632,0.5149,517,-45.5933,43.335,25.5127,99,1.4927,1.5598,33.1157,-49.8437,30,0.2701,9983,3.9787,-93.6875
lg,1624878353026207252,0,-0.7559,-0.749,0.5205,518,-45.7153,24.5972,23.9868,99,1.4877,1.5628,34.4897,-51.0635,30,0.2651,8661,3.9787,-92.8909
lg,1624878353026245863,0,-0.8462,-0.7925,0.7676,519,-34.729,-31.0059,40.5273,99,1.4847,1.5638,34.3364,-50.0799,30,0.2681,8380,3.9787,-89.9123
lg,1624878353026265678,0,-0.5034,-0.7195,0.5022,520,18.7988,-145.752,-5.0049,99,1.4837,1.5608,30.174,-46.8462,30,0.2671,8406,3.9787,-85.007
lg,1624878353026283030,0,-0.2649,-0.9031,0.7578,521,-8.4229,-150.0854,-15.9912,99,1.4837,1.5578,24.8951,-45.2862,30,0.2651,8413,3.9787,-80.6948
lg,1624878353026301400,0,-0.3186,-0.738,0.3423,522,12.5732,-124.0845,-40.7715,99,1.4827,1.5578,20.1661,-44.5738,30,0.2641,9316,3.9787,-78.4633
lg,1624878353026318548,0,-0.3616,-0.6995,0.3357,523,8.3008,-92.5903,-28.8086,99,1.4817,1.5578,18.0409,-43.9756,30,0.2631,8453,3.9787,-76.822
lg,1624878353026335493,0,-0.2029,-0.708,0.502,524,19.2261,-50.354,12.6343,99,1.4817,1.5578,16.7523,-43.0781,30,0.2621,8460,3.9787,-75.114
lg,1624878353026352474,0,-0.1487,-0.644,0.6099,525,10.2539,-30.1514,22.4609,99,1.4827,1.5588,16.1918,-42.3632,30,0.2611,8496,3.9787,-73.612
lg,1624878353026369141,0,-0.135,-0.7388,0.6602,526,-7.9346,-1.0376,27.8931,99,1.4807,1.5598,16.5814,-42.6575,30,0.2621,8529,3.9787,-72.7911
lg,1624878353026387048,0,-0.1665,-0.8274,0.6777,527,-10.5591,9.3384,27.2217,99,1.4817,1.5618,17.2905,-43.2299,30,0.2631,8493,3.9787,-72.3165
lg,1624878353026406733,0,-0.1858,-0.866,0.7329,528,-1.8311,16.6626,24.9634,99,1.4807,1.5618,18.1414,-43.4735,30,0.2641,8571,3.9787,-72.1144
lg,1624878353026424863,0,-0.2212,-0.7712,0.6641,529,2.9297,14.1602,21.4844,99,1.4817,1.5628,18.9073,-43.5038,30,0.2651,8558,3.9787,-71.9417
lg,1624878353026442752,0,-0.198,-0.8022,0.6445,530,2.5635,19.4092,22.4609,99,1.4827,1.5628,19.7701,-43.6674,30,0.2661,8594,3.9787,-71.9227
lg,1624878353026459993,0,-0.1956,-0.8386,0.6853,531,5.8594,25.8789,20.813,99,1.4857,1.5618,20.7132,-43.7582,30,0.2651,8622,3.9787,-72.1442
lg,1624878353026477604,0,-0.1443,-0.7988,0.6902,532,20.3247,38.6963,9.8877,99,1.4887,1.5618,21.5901,-43.4674,30,0.2661,8705,3.9787,-73.0658
lg,1624878353026494344,0,-0.1504,-0.8977,0.71,533,28.8696,60.1807,-4.3335,99,1.4897,1.5598,22.659,-43.3764,30,0.2631,8650,3.9787,-75.1192
lg,1624878353026511419,0,-0.187,-0.8518,0.6235,534,35.1562,80.3223,-13.7329,99,1.4897,1.5558,24.1117,-43.5332,30,0.2571,8676,3.9787,-78.1348
lg,1624878353026528400,0,-0.2056,-0.792,0.5959,535,35.3394,88.623,-13.9771,99,1.4887,1.5508,25.9536,-43.81,30,0.2511,8925,3.9787,-81.4352
lg,1624878353026545641,0,-0.3306,-0.6702,0.541,536,20.874,96.4355,-1.2817,99,1.4897,1.5438,28.4663,-44.6719,30,0.2511,8732,3.9787,-84.639
lg,1624878353026562437,0,-0.4675,-0.707,0.6262,537,-12.4512,78.064,18.4937,99,1.4907,1.5438,30.9413,-46.5396,30,0.2551,10058,3.9787,-86.014
lg,1624878353026579622,0,-0.6294,-0.783,0.6853,538,-30.2124,47.1191,26.7334,99,1.4917,1.5458,32.9943,-48.2369,30,0.2561,8842,3.9787,-86.8439
lg,1624878353026607789,0,-0.7183,-0.7527,0.6125,539,-43.2739,-26.6113,36.0107,99,1.4907,1.5498,33.5051,-48.8994,30,0.2551,8901,3.9787,-84.7967
lg,1624878353026636770,0,-0.7529,-0.7822,0.7158,540,-29.8462,-75.4395,43.0298,99,1.4867,1.5538,32.8654,-47.7955,30,0.2531,8997,3.9787,-80.6906
lg,1624878353026654474,0,-0.5444,-0.8159,0.7026,541,-19.8364,-159.8511,39.917,99,1.4817,1.5568,29.4057,-45.1654,30,0.2531,8918,3.9787,-74.0108
lg,1624878353026671307,0,-0.0151,-0.7495,0.8684,542,3.7231,-208.313,23.5596,99,1.4797,1.5578,22.9556,-41.6782,30,0.2551,8881,3.9787,-66.8013
lg,1624878353026688456,0,-0.0623,-0.7417,0.3406,543,14.8926,-195.3125,-5.9204,99,1.4787,1.5568,16.2916,-40.2733,30,0.2551,8905,3.9787,-61.9314
lg,1624878353026824011,0,0.1416,-0.7964,0.5771,544,-5.0049,-108.2764,3.6011,99,1.4787,1.5568,12.1738,-40.2745,30,0.2551,8954,3.9787,-59.0796
lg,1624878353440940511,0,-0.282,-0.6665,0.5769,545,5.7983,89.4165,21.4233,99,1.4777,1.5578,15.6548,-40.7911,30,0.2571,27742,3.9787,-60.8817
lg,1624878353440985159,0,-0.4446,-0.7869,0.6763,546,-8.7891,37.7197,33.2031,99,1.4787,1.5598,17.9568,-41.4532,30,0.2581,15892,3.9787,-60.9645
lg,1624878353441006455,0,-0.3289,-0.8523,0.7986,547,1.5869,-9.1553,38.5742,99,1.4787,1.5608,18.6109,-41.1329,31,0.2591,8309,3.9787,-59.555
lg,1624878353441025826,0,-0.0667,-0.8066,0.8264,548,9.5215,-27.0996,36.1328,99,1.4807,1.5608,17.6921,-40.1391,31,0.2601,8296,3.9787,-57.758
lg,1624878353441044326,0,0.009,-0.8286,0.7847,549,15.686,-24.4751,17.0288,99,1.4837,1.5608,16.6732,-39.415,31,0.2621,8289,3.9787,-56.638
lg,1624878353441062733,0,0.0386,-0.8538,0.6587,550,28.6255,40.5884,-4.2114,99,1.4877,1.5608,17.1006,-39.1475,31,0.2641,8324,3.9787,-58.0057
lg,1624878353441080955,0,-0.137,-0.8098,0.6365,551,30.6396,108.9478,-21.4233,99,1.4907,1.5588,19.5438,-39.5715,30,0.2631,9650,3.9787,-61.7718
lg,1624878353441099752,0,-0.4006,-0.6724,0.5054,552,17.0898,126.4648,-20.874,99,1.4907,1.5588,23.0889,-40.9203,30,0.2641,8314,3.9787,-66.1436
lg,1624878353441118178,0,-0.4988,-0.7239,0.5671,553,-5.9204,122.8638,-10.2539,99,1.4907,1.5588,26.7012,-43.6219,30,0.2721,9418,3.9787,-69.7008
lg,1624878353441135437,0,-0.6997,-0.7896,0.6606,554,-26.4282,92.041,6.958,99,1.4897,1.5608,29.1503,-45.4963,30,0.2741,10367,3.9787,-71.1476
lg,1624878353441153029,0,-0.8501,-0.696,0.5723,555,-26.9165,6.7139,21.8506,99,1.4877,1.5608,30.5137,-46.4913,30,0.2731,8392,3.9787,-70.7539
lg,1624878353441170178,0,-0.8606,-0.834,0.6687,556,-26.123,-61.0352,35.0952,99,1.4837,1.5638,30.1763,-46.0872,30,0.2701,8449,3.9787,-67.659
lg,1624878353441187474,0,-0.426,-0.783,1.0415,557,-9.1553,-162.7197,43.5181,99,1.4827,1.5638,26.3143,-42.9342,30,0.2711,8538,3.9787,-60.874
lg,1624878353441204289,0,-0.2795,-0.6978,0.6838,558,17.1509,-202.6367,22.3389,99,1.4807,1.5638,20.5059,-40.3703,30,0.2701,8511,3.9787,-54.6116
lg,1624878353441221955,0,-0.0305,-0.8157,0.6616,559,-16.6626,-189.3921,13.6108,99,1.4807,1.5628,14.3737,-39.7981,30,0.2691,8454,3.9787,-49.2151
lg,1624878353441239455,0,-0.0022,-0.7253,0.2874,560,1.2207,-122.9248,7.6294,99,1.4797,1.5628,10.3291,-40.1056,30,0.2671,8546,3.9787,-46.0135
lg,1624878353441256733,0,0.0208,-0.7659,0.5793,561,-1.3428,-11.5356,25.2686,99,1.4797,1.5628,10.1847,-40.4662,30,0.2671,13013,3.9787,-45.0174
lg,1624878353441274178,0,-0.0981,-0.7461,0.6648,562,-4.0894,27.5879,25.9399,83,1.4797,1.5638,11.5128,-40.9196,30,0.2681,8568,3.9842,-45.0061
lg,1624878353441292011,0,-0.1943,-0.7947,0.6562,563,-5.249,39.6729,23.7427,83,1.4797,1.5648,13.2946,-41.5703,30,0.2681,9816,3.9842,-45.4245
lg,1624878353441309529,0,-0.2859,-0.821,0.645,564,-5.6152,36.0107,24.231,83,1.4807,1.5638,15.0913,-42.2484,30,0.2681,8831,3.9842,-45.7685
lg,1624878353441368881,0,-0.2715,-0.8054,0.7432,565,2.1362,21.4844,25.7568,83,1.4837,1.5628,16.3677,-42.3024,30,0.2711,8608,3.9842,-45.6306
lg,1624878353441390918,0,-0.0847,-0.7817,0.7451,566,11.4746,4.5776,22.3389,83,1.4867,1.5608,16.6314,-41.8422,30,0.2731,10277,3.9842,-45.1161
lg,1624878353441408992,0,-0.0452,-0.834,0.6792,567,12.207,15.4419,13.0615,83,1.4887,1.5578,16.9608,-41.8256,30,0.2721,8651,3.9842,-45.2767
lg,1624878353441426029,0,-0.125,-0.7407,0.6057,568,15.9302,45.9595,6.3477,83,1.4897,1.5568,18.1204,-41.8729,30,0.2731,8719,3.9842,-46.4737
lg,1624878353441443474,0,-0.3838,-0.7949,0.6379,569,-20.6299,68.5425,18.3716,83,1.4907,1.5578,20.7227,-43.5187,30,0.2761,8717,3.9842,-47.9922
lg,1624878353441460678,0,-0.4775,-0.7046,0.6809,570,-19.165,48.584,35.3394,83,1.4897,1.5608,23.2955,-44.5023,30,0.2781,8720,3.9842,-48.3898
lg,1624878353441478307,0,-0.5142,-0.6711,0.6924,571,-16.7847,32.3486,33.5693,83,1.4887,1.5618,24.5713,-44.9913,30,0.2771,8774,3.9842,-47.7444
lg,1624878353441567233,0,-0.5291,-0.8237,0.6177,572,-12.9395,-28.3813,22.3999,83,1.4877,1.5628,24.5145,-45.1537,30,0.2771,11146,3.9842,-46.2907
lg,1624878353441618029,0,-0.4495,-0.7744,0.6028,573,-7.019,-46.3257,23.8647,83,1.4867,1.5638,23.4386,-44.5925,30,0.2761,8820,3.9842,-43.8465
lg,1624878353441639233,0,-0.2878,-0.7375,0.5593,574,-3.8452,-59.3262,26.4893,83,1.4857,1.5628,22.2515,-44.0524,30,0.2761,8850,3.9842,-41.3532
lg,1624878353441658807,0,-0.217,-0.7629,0.6267,575,-1.4038,-33.9966,24.5361,83,1.4867,1.5648,21.5693,-43.7057,30,0.2771,9039,3.9842,-39.6749
lg,1624878353441679289,0,-0.1621,-0.8098,0.6912,576,7.8735,-9.3994,16.2354,83,1.4877,1.5648,21.2372,-43.3393,30,0.2791,8905,3.9842,-38.9804
lg,1624878353780900122,0,-0.2817,-0.7812,0.6545,577,15.8691,38.3911,-0.9155,83,1.4907,1.5618,22.0928,-43.4002,30,0.2831,26524,3.9842,-40.244
lg,1624878353780936288,0,-0.3323,-0.7478,0.6113,578,13.1836,25.6348,-3.418,83,1.4927,1.5618,22.6168,-43.4907,30,0.2841,8986,3.9842,-41.2243
lg,1624878353780956751,0,-0.3452,-0.7668,0.6333,579,-0.2441,17.395,2.9297,83,1.4927,1.5608,23.0599,-43.9382,30,0.2851,7821,3.9842,-41.7607
lg,1624878353780975622,0,-0.5242,-0.7183,0.5396,580,-27.832,-1.5869,21.9727,83,1.4877,1.5628,23.9176,-45.0866,30,0.2771,9600,3.9842,-41.1625
lg,1624878353781010140,0,-0.5083,-0.78,0.8208,581,-30.5176,-21.3013,32.8369,83,1.4847,1.5638,23.2171,-44.3439,30,0.2801,11745,3.9842,-39.4083
lg,1624878353781029418,0,-0.4485,-0.9216,0.8589,582,-11.4746,-68.0542,-5.9814,83,1.4837,1.5628,19.7768,-43.9991,30,0.2781,10187,3.9842,-36.7844
lg,1624878353781046918,0,-0.4084,-0.8105,0.605,583,13.0005,-129.1504,-26.5503,83,1.4817,1.5598,15.4156,-42.941,30,0.2761,8399,3.9842,-33.971
lg,1624878353781066974,0,-0.2417,-0.7969,0.5906,584,6.5918,-120.7275,-22.2168,83,1.4807,1.5578,11.2252,-42.4597,30,0.2741,8428,3.9842,-31.3767
lg,1624878353781102011,0,-0.0869,-0.7605,0.54,585,12.146,-92.7734,-15.9912,83,1.4807,1.5568,7.8401,-42.1079,30,0.2721,8497,3.9842,-29.4124
lg,1624878353781121807,0,-0.0649,-0.7351,0.4575,586,10.498,-62.8052,-14.5874,83,1.4797,1.5568,6.7879,-42.4344,30,0.2721,8466,3.9842,-28.9834
lg,1624878353781139251,0,-0.1147,-0.6902,0.4109,587,5.249,6.1646,1.6479,83,1.4797,1.5558,8.1287,-42.9177,30,0.2721,10355,3.9842,-29.6645
lg,1624878353781158159,0,-0.1868,-0.7219,0.5898,588,0,48.2178,16.7847,83,1.4797,1.5578,10.1963,-43.3156,30,0.2731,9791,3.9842,-30.5456
lg,1624878353781176270,0,-0.2527,-0.7952,0.708,589,-6.7749,48.4619,22.0337,83,1.4797,1.5588,11.9518,-43.8332,31,0.2731,10500,3.9842,-30.8992
lg,1624878353781194103,0,-0.2588,-0.8457,0.7346,590,-4.2114,11.6577,23.1934,83,1.4787,1.5578,12.9696,-44.1194,31,0.2741,8549,3.9842,-30.5899
lg,1624878353781212603,0,-0.1682,-0.8186,0.6677,591,1.8921,-15.1367,26.123,83,1.4767,1.5598,13.1083,-44.0292,31,0.2761,8660,3.9842,-29.4462
lg,1624878353781230492,0,-0.0662,-0.7888,0.6399,592,4.4556,-10.8032,28.0151,83,1.4797,1.5608,13.2067,-43.8623,31,0.2761,8567,3.9842,-28.3737
lg,1624878353781247455,0,-0.0217,-0.8364,0.6826,593,6.2256,-0.1221,28.7476,83,1.4817,1.5608,13.9102,-43.7072,30,0.2761,8621,3.9842,-28.0668
lg,1624878353781264900,0,-0.0066,-0.8071,0.7036,594,11.5967,33.7524,22.644,83,1.4837,1.5608,14.9729,-43.5184,30,0.2761,8562,3.9842,-28.4066
lg,1624878353781281807,0,-0.0593,-0.7839,0.6987,595,22.2168,75.6226,11.6577,83,1.4857,1.5578,17.0136,-43.3171,30,0.2731,8656,3.9842,-30.2735
lg,1624878353781298918,0,-0.187,-0.8455,0.6934,596,22.3999,115.6006,-1.9531,83,1.4877,1.5548,20.0018,-43.8002,30,0.2691,8668,3.9842,-33.7861
lg,1624878353781317288,0,-0.3188,-0.8247,0.6411,597,24.4141,127.3804,-5.7983,83,1.4877,1.5508,23.4041,-44.6102,30,0.2631,8684,3.9842,-38.0574
lg,1624878353781334622,0,-0.3945,-0.7771,0.6384,598,25.3296,130.6152,-5.249,83,1.4867,1.5458,26.8357,-45.6393,30,0.2591,8708,3.9842,-42.4123
lg,1624878353781354900,0,-0.5667,-0.6597,0.5549,599,6.2866,110.9009,4.4556,83,1.4877,1.5438,30.2502,-47.2242,30,0.2611,8718,3.9842,-46.0141
lg,1624878353781410140,0,-0.6519,-0.802,0.6707,600,-27.771,52.5513,23.6206,83,1.4897,1.5428,32.4046,-49.0023,30,0.2631,8833,3.9842,-47.1678
lg,1624878353781432900,0,-0.7358,-0.7324,0.5813,601,-37.7808,-6.8359,29.9072,83,1.4907,1.5428,33.3576,-49.9538,30,0.2641,8824,3.9842,-46.0417
lg,1624878353781452437,0,-0.7607,-0.7869,0.6213,602,-43.6401,-47.3633,33.5693,83,1.4897,1.5458,32.7517,-49.4694,30,0.2641,8844,3.9842,-42.2446
lg,1624878353781473622,0,-0.7385,-0.7998,0.6624,603,-32.5928,-100.5249,40.0391,83,1.4847,1.5498,31.4282,-48.2246,30,0.2591,8873,3.9842,-37.4275
lg,1624878353781492937,0,-0.5894,-0.8184,0.6514,604,-21.1182,-179.5044,34.9121,83,1.4807,1.5528,27.498,-45.6761,31,0.2601,8887,3.9842,-30.3593
lg,1624878353781511159,0,-0.0974,-0.8345,0.4351,605,8.8501,-218.3228,-18.1885,83,1.4797,1.5548,20.0321,-43.5591,31,0.2591,13834,3.9842,-24.5615
lg,1624878353781528492,0,0.1626,-0.8511,0.5725,606,5.7983,-158.7524,-19.2871,83,1.4787,1.5548,13.8143,-42.6737,31,0.2581,8874,3.9842,-20.7897
lg,1624878353781546696,0,0.0759,-0.7734,0.3525,607,8.7891,-72.4487,-27.6489,83,1.4787,1.5548,10.2536,-42.9616,30,0.2571,9631,3.9842,-19.8121
lg,1624878353781566363,0,0.0503,-0.6934,0.2959,608,11.4136,-24.7192,-13.7329,83,1.4777,1.5548,8.8253,-43.4811,30,0.2571,8949,3.9842,-19.7114
lg,1624878354150891492,0,-0.2776,-0.7498,0.7231,609,1.2207,106.8115,25.1465,83,1.4797,1.5588,12.17,-43.9871,30,0.2591,28573,3.9842,-21.3574
lg,1624878354150957010,0,-0.3403,-0.8552,0.7859,610,8.1787,27.71,23.0713,83,1.4797,1.5598,12.8093,-43.3952,30,0.2601,9825,3.9842,-20.7218
lg,1624878354150977844,0,-0.1648,-0.771,0.7712,611,14.9536,-16.3574,21.4233,83,1.4807,1.5598,12.7478,-42.6086,30,0.2621,8365,3.9842,-19.6352
lg,1624878354150997196,0,-0.0391,-0.8225,0.7556,612,15.5029,-7.019,15.564,83,1.4847,1.5598,12.5358,-42.0298,30,0.2631,8241,3.9842,-19.0145
lg,1624878354151016381,0,-0.0256,-0.8062,0.7021,613,22.3389,10.1318,10.9253,83,1.4877,1.5588,13.0943,-41.3734,30,0.2631,8260,3.9842,-19.8716
lg,1624878354151034788,0,-0.0435,-0.8318,0.7041,614,28.3813,56.8237,-6.958,83,1.4887,1.5568,14.1891,-40.9862,30,0.2631,8315,3.9842,-21.7087
lg,1624878354151053029,0,-0.2148,-0.7488,0.5859,615,29.541,87.4634,-12.5732,83,1.4887,1.5558,16.4346,-40.9668,30,0.2631,10135,3.9842,-24.5915
lg,1624878354151072418,0,-0.4236,-0.6948,0.5437,616,-6.0425,89.0503,4.5166,83,1.4887,1.5548,19.5678,-42.3349,30,0.2671,8789,3.9842,-27.0632
lg,1624878354151090492,0,-0.5459,-0.7498,0.676,617,-23.2544,79.4067,29.6021,83,1.4907,1.5558,23.0242,-43.9745,30,0.2691,8359,3.9842,-28.548
lg,1624878354151108122,0,-0.6243,-0.7156,0.6863,618,-25.5737,61.2793,31.1279,83,1.4907,1.5578,25.0757,-45.3742,30,0.2681,8360,3.9842,-28.4117
lg,1624878354151125325,0,-0.6877,-0.8313,0.7053,619,-38.6963,-8.3618,37.2314,83,1.4867,1.5598,26.1912,-46.454,30,0.2651,8381,3.9842,-27.0634
lg,1624878354151165344,0,-0.6289,-0.8281,0.8318,620,-20.4468,-74.8901,40.2832,83,1.4847,1.5618,25.3567,-45.612,30,0.2651,8404,3.9842,-23.3888
lg,1624878354151185788,0,-0.3691,-0.7942,0.5537,621,12.4512,-140.0146,5.7983,83,1.4837,1.5618,21.3944,-43.7108,30,0.2631,8437,3.9842,-19.0742
lg,1624878354151203233,0,-0.2478,-0.8691,0.7097,622,-13.2446,-145.0195,2.8076,83,1.4827,1.5618,16.9338,-43.1017,30,0.2631,8459,3.9842,-14.8649
lg,1624878354151220825,0,-0.1084,-0.7676,0.4109,623,11.8408,-129.7607,-5.4932,83,1.4807,1.5628,12.6438,-42.4789,30,0.2621,9775,3.9842,-11.5972
lg,1624878354151238381,0,-0.1294,-0.6399,0.3242,624,3.9673,-56.5186,8.3618,83,1.4807,1.5628,11.1479,-42.7417,30,0.2611,10354,3.9842,-9.9537
lg,1624878354151257362,0,-0.1675,-0.7139,0.5867,625,-0.4272,11.5967,27.2217,83,1.4807,1.5638,12.425,-43.1048,30,0.2621,8637,3.9842,-9.568
lg,1624878354151276010,0,-0.187,-0.7402,0.6702,626,-4.6387,20.0806,29.2358,83,1.4807,1.5648,13.7337,-43.3983,30,0.2631,7958,3.9842,-9.3006
lg,1624878354151294325,0,-0.2483,-0.7993,0.6909,627,-6.3477,17.5781,27.2217,83,1.4817,1.5648,14.9689,-43.7922,30,0.2641,8066,3.9842,-9.0425
lg,1624878354151312844,0,-0.2327,-0.8203,0.7126,628,-4.0283,7.8735,28.2593,83,1.4817,1.5648,15.8618,-43.9873,30,0.2651,8082,3.9842,-8.4782
lg,1624878354151330325,0,-0.2263,-0.8115,0.7097,629,-2.2583,3.3569,30.4565,83,1.4817,1.5648,16.6429,-44.0334,30,0.2661,8070,3.9842,-7.7161
lg,1624878354151349733,0,-0.1289,-0.8384,0.7429,630,0.7324,-4.3335,31.7383,83,1.4837,1.5638,16.9998,-43.8621,30,0.2681,8083,3.9842,-6.688
lg,1624878354151367881,0,-0.0359,-0.8123,0.7324,631,7.6294,14.1602,22.8271,83,1.4867,1.5638,17.4428,-43.6342,30,0.2681,8196,3.9842,-6.4595
lg,1624878354151387585,0,-0.0054,-0.7754,0.6899,632,14.1602,34.4849,17.7002,83,1.4887,1.5618,18.7557,-43.7609,30,0.2691,8183,3.9842,-7.921
lg,1624878354151405640,0,-0.1094,-0.875,0.645,633,13.4888,78.6743,0.7324,83,1.4887,1.5598,20.5171,-44.3959,30,0.2671,8190,3.9842,-10.3571
lg,1624878354151424455,0,-0.271,-0.7495,0.5674,634,11.5967,91.2476,-3.1738,83,1.4907,1.5608,22.8249,-45.3275,30,0.2691,8129,3.9842,-13.3487
lg,1624878354151445640,0,-0.3911,-0.79,0.6658,635,-10.8643,81.9702,0.2441,83,1.4907,1.5618,25.0205,-47.3135,30,0.2741,8237,3.9842,-15.3106
lg,1624878354151463344,0,-0.4482,-0.7771,0.5977,636,-26.001,60.791,20.9351,83,1.4897,1.5648,27.23,-49.161,30,0.2731,8230,3.9842,-16.7994
lg,1624878354151480862,0,-0.6392,-0.7007,0.5264,637,-22.8882,20.5078,23.6206,83,1.4867,1.5658,28.8208,-50.213,30,0.2701,8291,3.9842,-16.8824
lg,1624878354151530992,0,-0.5081,-0.7852,0.9878,638,-12.146,-18.1274,32.2266,83,1.4847,1.5658,29.0816,-49.4271,30,0.2711,8250,3.9842,-15.0569
lg,1624878354151556177,0,-0.5271,-0.7961,0.7275,639,9.8267,-57.4341,14.2822,83,1.4847,1.5648,27.8756,-47.8057,30,0.2701,8286,3.9842,-12.6197
lg,1624878354151576010,0,-0.3123,-0.8428,0.7139,640,-2.1362,-107.1167,6.3477,83,1.4837,1.5648,24.6834,-46.3262,30,0.2701,8321,3.9842,-8.9597
lg,1624878354510088881,0,-0.0776,-0.7632,0.6638,641,7.2632,-43.396,20.9351,83,1.4827,1.5638,23.8026,-45.433,30,0.2681,25477,3.9842,-7.3842
lg,1624878354510140047,0,-0.1492,-0.7764,0.625,642,2.6855,25.8179,16.8457,83,1.4827,1.5658,24.4022,-45.6785,30,0.2701,13543,3.9842,-7.7738
lg,1624878354510170325,0,-0.2944,-0.8057,0.6907,643,0.061,52.2461,12.0239,83,1.4827,1.5668,25.8336,-46.3693,30,0.2711,10229,3.9842,-9.1308
lg,1624878354510199584,0,-0.3408,-0.771,0.7173,644,-0.1221,46.2036,14.5264,83,1.4837,1.5668,27.1977,-46.8624,30,0.2721,7747,3.9842,-10.1984
lg,1624878354510227899,0,-0.3474,-0.7896,0.7312,645,1.1597,17.6392,18.3105,83,1.4847,1.5668,27.837,-46.8251,30,0.2731,7766,3.9842,-10.2187
lg,1624878354510255269,0,-0.2925,-0.8147,0.6985,646,4.1504,4.8218,19.5923,83,1.4857,1.5668,27.9022,-46.293,30,0.2741,7746,3.9842,-9.5058
lg,1624878354510281751,0,-0.1394,-0.7532,0.6946,647,10.376,-10.8032,24.4141,83,1.4877,1.5668,27.6449,-45.6904,30,0.2751,7729,3.9842,-8.907
lg,1624878354510308510,0,-0.1602,-0.8123,0.6506,648,4.0283,12.207,18.4937,83,1.4887,1.5668,27.7757,-45.6784,30,0.2751,8627,3.9842,-8.8325
lg,1624878354510335862,0,-0.2422,-0.8374,0.6475,649,-2.8076,34.3018,24.6582,83,1.4887,1.5658,28.8471,-46.2291,30,0.2761,7796,3.9842,-9.3078
lg,1624878354510361732,0,-0.2786,-0.8052,0.6785,650,-3.479,39.1235,23.4375,83,1.4887,1.5658,30.0081,-46.8169,30,0.2771,7840,3.9842,-9.8057
lg,1624878354510388158,0,-0.3447,-0.8032,0.6909,651,-10.1318,24.4751,23.3154,83,1.4897,1.5668,30.8957,-47.4628,30,0.2771,8067,3.9842,-10.0025
lg,1624878354510414844,0,-0.3464,-0.8145,0.6396,652,-5.9204,7.6294,21.4844,83,1.4897,1.5668,31.2416,-47.6645,30,0.2781,9025,3.9842,-9.6838
lg,1624878354510444436,0,-0.3433,-0.7439,0.5688,653,-2.6245,-3.9673,22.644,83,1.4887,1.5678,31.3631,-47.5276,30,0.2781,8975,3.9842,-8.9394
lg,1624878354510527769,0,-0.3491,-0.7737,0.6204,654,0.4883,-7.2632,15.3809,83,1.4907,1.5668,31.1447,-47.2766,30,0.2781,7968,3.9842,-8.2834
lg,1624878354510557769,0,-0.303,-0.7983,0.6812,655,4.6997,-13.9771,12.7563,83,1.4897,1.5668,30.4384,-46.737,30,0.2781,8296,3.9842,-7.4572
lg,1624878354510586121,0,-0.2007,-0.8113,0.6272,656,10.1929,-18.0664,6.5918,83,1.4867,1.5658,29.3815,-46.1632,30,0.2791,7973,3.9842,-6.7683
lg,1624878354510614844,0,-0.2068,-0.7749,0.6038,657,10.6812,1.709,-2.0752,83,1.4907,1.5658,28.6867,-46.0468,30,0.2801,8727,3.9842,-7.0161
lg,1624878354510643066,0,-0.2146,-0.7229,0.5676,658,7.9346,4.8828,-2.0752,83,1.4927,1.5668,28.3996,-46.5063,30,0.2821,8034,3.9842,-7.3738
lg,1624878354510670899,0,-0.3408,-0.782,0.6411,659,-20.0195,21.1182,8.3618,83,1.4887,1.5678,28.825,-47.6815,30,0.2761,8020,3.9842,-7.8975
lg,1624878354510699807,0,-0.6467,-0.7163,0.4856,660,-34.4849,14.3433,18.5547,83,1.4877,1.5688,30.0708,-49.3098,30,0.2721,10463,3.9842,-7.9724
lg,1624878354510727344,0,-0.5386,-0.6936,1.1562,661,-5.249,-11.7798,32.3486,83,1.4847,1.5698,30.4488,-48.0318,30,0.2721,8236,3.9842,-6.1829
lg,1624878354510754047,0,-0.5647,-0.9651,0.8906,662,-19.043,-106.0791,-3.9062,83,1.4837,1.5678,27.2015,-47.0809,30,0.2731,8400,3.9842,-2.6992
lg,1624878354510784566,0,-0.4482,-0.8679,0.6401,663,0.8545,-142.1509,-4.2114,83,1.4817,1.5648,22.9948,-45.4256,30,0.2721,8231,3.9842,1.6004
lg,1624878354510810807,0,-0.2227,-0.7209,0.5366,664,4.2114,-142.8833,-7.1411,83,1.4807,1.5638,18.4104,-44.1255,30,0.2721,8128,3.9842,5.5677
lg,1624878354510837010,0,-0.0127,-0.71,0.5,665,0.6104,-107.9102,10.8032,83,1.4807,1.5608,14.9394,-43.5426,30,0.2711,8219,3.9842,8.8775
lg,1624878354510865307,0,0.0022,-0.7166,0.4521,666,-4.8218,-74.4019,11.3525,83,1.4787,1.5598,12.5351,-43.7151,30,0.2721,8207,3.9842,11.1872
lg,1624878354510890899,0,-0.0364,-0.7693,0.5588,667,-5.188,10.3149,23.8647,83,1.4787,1.5598,13.0895,-44.2358,31,0.2721,8252,3.9842,11.5079
lg,1624878354510916844,0,-0.1658,-0.7661,0.6206,668,-5.127,41.748,22.8271,83,1.4777,1.5598,14.7722,-44.8296,31,0.2731,8469,3.9842,10.9082
lg,1624878354510942010,0,-0.2327,-0.7683,0.6416,669,-6.1035,37.6587,24.5361,83,1.4777,1.5618,16.4429,-45.4099,31,0.2731,8286,3.9842,10.455
lg,1624878354510998677,0,-0.2283,-0.8442,0.6514,670,-4.9438,16.2354,26.4282,83,1.4777,1.5628,17.4766,-45.7923,31,0.2751,8316,3.9842,10.6634
lg,1624878354511031177,0,-0.1794,-0.8538,0.6284,671,1.0376,4.3335,26.3672,83,1.4787,1.5638,18.0434,-45.8653,30,0.2771,8312,3.9842,11.208
lg,1624878354511058399,0,-0.1003,-0.8289,0.6521,672,4.5776,4.3945,27.771,83,1.4797,1.5638,18.535,-45.6516,30,0.2781,8356,3.9842,11.607
lg,1624878354877666547,0,-0.0278,-0.873,0.709,673,26.3062,52.2461,-2.8076,87,1.4887,1.5618,19.2413,-45.3497,30,0.2721,25907,3.9831,9.8737
lg,1624878354877699232,0,-0.1101,-0.8215,0.6089,674,40.8325,102.356,-25.8789,87,1.4877,1.5558,20.8524,-45.3785,30,0.2611,11775,3.9831,5.8828
lg,1624878354877719584,0,-0.2441,-0.7361,0.5396,675,35.8276,131.1646,-31.1279,87,1.4877,1.5518,23.3668,-46.1648,30,0.2541,7849,3.9831,0.7624
lg,1624878354877738454,0,-0.3257,-0.6738,0.4954,676,28.4424,130.8594,-24.7803,87,1.4887,1.5488,26.1224,-47.3968,30,0.2501,7679,3.9831,-4.3095
lg,1624878354877756306,0,-0.5247,-0.6353,0.5466,677,0.4272,118.5913,-3.9673,87,1.4907,1.5468,29.3584,-49.3648,30,0.2531,8055,3.9831,-8.4764
lg,1624878354877774177,0,-0.7402,-0.8542,0.7109,678,-30.7617,98.5718,11.7188,87,1.4907,1.5448,32.3541,-52.2669,30,0.2571,9405,3.9831,-11.7181
lg,1624878354877791547,0,-0.9468,-0.7573,0.6189,679,-37.9639,5.6763,14.2212,87,1.4917,1.5458,33.3964,-53.6146,30,0.2591,8757,3.9831,-11.4978
lg,1624878354877808991,0,-1.0042,-0.731,0.6616,680,-35.7056,-45.4102,16.3574,87,1.4927,1.5508,33.3282,-53.6116,30,0.2591,8361,3.9831,-9.162
lg,1624878354877828436,0,-0.8887,-0.8286,0.7788,681,-20.1416,-146.4844,34.668,87,1.4897,1.5538,31.0376,-50.6896,30,0.2581,8532,3.9831,-2.524
lg,1624878354877846417,0,-0.5247,-0.8896,0.7004,682,-9.3994,-251.2207,33.5083,87,1.4847,1.5578,25.2082,-46.597,30,0.2561,8490,3.9831,7.0055
lg,1624878354877863732,0,-0.127,-0.8083,0.5696,683,-5.5542,-279.2358,30.5176,87,1.4797,1.5588,17.2633,-43.5151,30,0.2551,8450,3.9831,16.4526
lg,1624878354877880769,0,0.1333,-0.75,0.6633,684,1.709,-273.9868,24.9023,87,1.4787,1.5588,8.9749,-41.7389,30,0.2561,8472,3.9831,24.7337
lg,1624878354877898936,0,0.3057,-0.7163,0.3479,685,7.9346,-193.5425,-5.249,87,1.4777,1.5578,1.9845,-41.7356,30,0.2551,8518,3.9831,29.626
lg,1624878354877938343,0,0.3491,-0.79,0.4082,686,-17.334,-54.0771,5.6763,87,1.4767,1.5568,-0.3475,-43.1464,30,0.2551,8509,3.9831,31.2392
lg,1624878354877959010,0,0.2288,-0.8184,0.3474,687,-5.7983,22.1558,4.9438,87,1.4767,1.5558,-0.1274,-44.2566,30,0.2551,7774,3.9831,30.7776
lg,1624878354877976973,0,-0.0205,-0.7964,0.5303,688,3.1128,121.46,12.5732,87,1.4767,1.5568,3.7237,-44.6926,30,0.2551,8145,3.9831,27.7255
lg,1624878354877994880,0,-0.1877,-0.7053,0.635,689,7.9346,131.8359,23.1323,87,1.4767,1.5568,8.3889,-44.8188,30,0.2541,8625,3.9831,24.6377
lg,1624878354878011991,0,-0.3577,-0.6992,0.6562,690,0.1831,118.3472,24.4141,87,1.4767,1.5568,12.335,-45.5303,30,0.2541,8624,3.9831,22.7196
lg,1624878354878029214,0,-0.3921,-0.7649,0.6177,691,-13.0615,70.4956,34.8511,87,1.4767,1.5568,15.6518,-46.5162,30,0.2531,8047,3.9831,21.5732
lg,1624878354878046751,0,-0.353,-0.7993,0.7817,692,-8.4229,25.2075,48.0347,87,1.4767,1.5578,17.8046,-46.6289,30,0.2541,7931,3.9831,22.1949
lg,1624878354878064066,0,-0.0859,-0.7871,0.8926,693,6.5308,-31.6772,46.5088,87,1.4797,1.5608,17.4585,-45.5467,30,0.2571,13895,3.9831,24.5339
lg,1624878354878081121,0,0.1423,-0.907,0.8918,694,21.9727,-16.2964,14.1602,87,1.4847,1.5608,16.48,-44.3965,30,0.2571,8666,3.9831,25.4271
lg,1624878354878098677,0,0.1226,-0.8342,0.6802,695,46.5088,64.0259,-30.4565,87,1.4887,1.5598,16.5808,-43.5845,30,0.2581,8653,3.9831,22.574
lg,1624878354878115880,0,-0.1372,-0.8831,0.5408,696,40.9546,166.2598,-57.6782,87,1.4887,1.5548,19.3849,-44.5921,30,0.2521,8874,3.9831,15.7953
lg,1624878354878133380,0,-0.4246,-0.7412,0.4558,697,28.9917,205.5664,-51.5747,87,1.4887,1.5468,23.8868,-46.865,30,0.2441,10425,3.9831,7.7362
lg,1624878354878150251,0,-0.656,-0.5884,0.4609,698,6.4697,151.123,-28.0151,87,1.4887,1.5388,27.7331,-49.306,30,0.2431,10156,3.9831,1.8223
lg,1624878354878167566,0,-0.7146,-0.7578,0.6643,699,-26.5503,97.5952,4.3335,87,1.4897,1.5317,30.6166,-51.9628,30,0.2471,8754,3.9831,-1.5107
lg,1624878354878184251,0,-0.7632,-0.8381,0.6123,700,-29.2358,61.3403,16.0522,87,1.4907,1.5307,32.4948,-53.7013,30,0.2491,8802,3.9831,-2.2231
lg,1624878354878213195,0,-0.8892,-0.8203,0.6077,701,-39.3066,1.5869,30.7617,87,1.4907,1.5357,33.8579,-54.8115,30,0.2491,8836,3.9831,-1.4198
lg,1624878354878231232,0,-0.9817,-0.8223,0.6931,702,-30.0293,-83.0688,39.1846,87,1.4897,1.5428,33.5263,-53.4045,30,0.2491,8854,3.9831,3.0392
lg,1624878354878327047,0,-0.8208,-0.7964,0.6782,703,-13.0615,-214.1724,47.5464,87,1.4857,1.5478,29.8511,-48.905,30,0.2481,8882,3.9831,12.3857
lg,1624878354878353714,0,-0.3716,-0.8057,0.5535,704,-11.4746,-324.646,56.4575,87,1.4817,1.5498,22.2832,-44.2613,30,0.2451,8863,3.9831,24.4385
lg,1624878355248567936,0,0.4304,-0.7969,0.3633,705,-7.7515,-249.5728,22.0947,87,1.4747,1.5508,16.4199,-44.0107,30,0.2471,26490,3.9831,30.0685
lg,1624878355248624880,0,0.4241,-0.8809,0.3782,706,-11.1084,2.9907,27.3438,87,1.4737,1.5498,18.3284,-45.3567,30,0.2481,14921,3.9831,28.2464
lg,1624878355248656436,0,0.1838,-0.8804,0.6897,707,3.7231,136.4746,24.7803,87,1.4747,1.5498,21.753,-46.6495,30,0.2481,8524,3.9831,24.7147
lg,1624878355248687436,0,-0.1064,-0.792,0.6775,708,9.0332,159.4849,17.4561,87,1.4747,1.5518,25.9214,-48.2654,30,0.2491,8293,3.9831,20.0475
lg,1624878355248716713,0,-0.3059,-0.8225,0.6284,709,4.6387,132.9956,11.4136,87,1.4747,1.5528,29.3356,-50.2079,30,0.2501,8297,3.9831,15.7527
lg,1624878355248745732,0,-0.3823,-0.8276,0.6438,710,4.1504,115.0513,13.6108,87,1.4757,1.5548,32.2491,-52.0441,30,0.2511,8331,3.9831,11.9374
lg,1624878355248773899,0,-0.4233,-0.7366,0.6382,711,8.606,64.5142,20.813,87,1.4757,1.5548,34.1189,-52.5619,30,0.2531,9427,3.9831,10.1732
lg,1624878355248801732,0,-0.3706,-0.6531,0.582,712,12.0239,12.4512,28.6865,87,1.4787,1.5558,34.8817,-51.666,30,0.2551,8419,3.9831,10.6574
lg,1624878355248829973,0,-0.1428,-0.7437,0.731,713,19.9585,-9.2773,23.8647,87,1.4857,1.5568,34.3534,-49.9562,30,0.2581,10555,3.9831,11.8966
lg,1624878355248855843,0,-0.0081,-0.8696,0.7048,714,35.7666,16.8457,-1.8311,87,1.4887,1.5528,33.6056,-49.4488,30,0.2571,12368,3.9831,9.8981
lg,1624878355248883232,0,-0.0273,-0.8708,0.6873,715,45.166,70.9839,-26.4282,87,1.4897,1.5488,33.4154,-49.6308,30,0.2541,8541,3.9831,6.4232
lg,1624878355248909176,0,-0.197,-0.793,0.6084,716,38.6353,125.6714,-32.6538,87,1.4907,1.5418,34.7132,-51.3946,30,0.2471,8479,3.9831,0.671
lg,1624878355248936436,0,-0.4338,-0.6514,0.5374,717,13.7939,122.9858,-19.104,87,1.4917,1.5357,36.7589,-53.9413,30,0.2441,8458,3.9831,-4.6959
lg,1624878355249038491,0,-0.5586,-0.6621,0.6794,718,2.3193,118.4692,-5.8594,87,1.4927,1.5327,39.143,-56.6026,30,0.2471,8554,3.9831,-8.5869
lg,1624878355249071454,0,-0.6484,-0.824,0.6931,719,-26.8555,85.8154,18.1885,87,1.4927,1.5317,41.2705,-59.4897,30,0.2501,8977,3.9831,-11.7012
lg,1624878355249100343,0,-0.7585,-0.7866,0.6252,720,-33.2031,26.3672,34.9731,87,1.4937,1.5347,42.8356,-60.6517,30,0.2511,8584,3.9831,-11.7628
lg,1624878355249128936,0,-0.884,-0.7166,0.6389,721,-35.4004,-44.6777,27.2827,87,1.4947,1.5388,42.9075,-59.6049,30,0.2511,8667,3.9831,-8.5508
lg,1624878355249154695,0,-0.7715,-0.8557,0.7556,722,-29.8462,-119.9951,45.8374,87,1.4917,1.5438,41.5708,-55.7081,30,0.2491,8618,3.9831,-1.3962
lg,1624878355249181788,0,-0.6594,-0.8855,0.7192,723,-26.5503,-175.293,46.7529,87,1.4887,1.5468,37.1536,-49.9803,30,0.2481,8650,3.9831,8.9871
lg,1624878355249208417,0,-0.2957,-0.7996,0.6394,724,-20.6299,-237.6709,46.2036,87,1.4807,1.5488,31.3367,-45.2382,30,0.2471,8653,3.9831,18.9216
lg,1624878355249258102,0,0.0696,-0.7859,0.6633,725,-20.6909,-227.478,38.9404,87,1.4787,1.5508,24.5827,-42.3314,30,0.2481,8684,3.9831,27.179
lg,1624878355249291047,0,0.2512,-0.7959,0.4041,726,-1.77,-166.8701,3.479,87,1.4767,1.5518,18.3255,-41.431,30,0.2481,8649,3.9831,31.7231
lg,1624878355249318121,0,0.2427,-0.8831,0.4978,727,-17.334,-42.0532,11.5356,87,1.4757,1.5518,16.2255,-42.4117,30,0.2501,8675,3.9831,33.0321
lg,1624878355249345639,0,0.1375,-0.856,0.4236,728,-0.6714,20.5688,4.1504,87,1.4747,1.5528,16.0376,-43.402,30,0.2491,8739,3.9831,32.3436
lg,1624878355249371991,0,-0.0374,-0.8098,0.5852,729,8.9111,97.9614,8.1787,87,1.4747,1.5538,18.5353,-44.2492,30,0.2501,8717,3.9831,29.6241
lg,1624878355249399010,0,-0.1838,-0.7595,0.6196,730,7.6904,110.7178,12.3901,87,1.4757,1.5548,21.6967,-45.2148,30,0.2501,8783,3.9831,26.5896
lg,1624878355249425399,0,-0.3057,-0.7468,0.575,731,1.4648,94.1162,13.5498,87,1.4747,1.5558,24.5429,-46.4309,30,0.2511,9736,3.9831,23.9517
lg,1624878355249451399,0,-0.3777,-0.7734,0.6733,732,3.9062,72.6929,18.5547,87,1.4767,1.5568,26.8833,-47.1437,30,0.2531,10397,3.9831,22.1173
lg,1624878355249476251,0,-0.2607,-0.8254,0.8792,733,17.1509,37.3535,11.5967,87,1.4807,1.5568,27.6566,-46.6762,30,0.2541,8955,3.9831,21.3215
lg,1624878355249502232,0,-0.0867,-0.8796,0.8335,734,28.2593,19.2261,1.709,87,1.4867,1.5558,26.7529,-45.4751,31,0.2561,8936,3.9831,20.4932
lg,1624878355249552899,0,-0.0398,-0.8772,0.7424,735,44.9829,26.6724,-26.4282,87,1.4887,1.5528,25.8019,-44.6049,31,0.2561,8889,3.9831,18.7264
lg,1624878355249581010,0,-0.0698,-0.876,0.5659,736,53.7109,80.6885,-52.124,87,1.4897,1.5468,25.7836,-44.8133,31,0.2521,8906,3.9831,14.3202
lg,1624878355620630713,0,-0.4412,-0.7942,0.6694,737,-40.2832,129.6387,18.5547,87,1.4927,1.5418,29.9882,-48.2243,30,0.2601,27535,3.9831,10.6119
lg,1624878355620663084,0,-0.8604,-0.7505,0.5889,738,-40.1611,45.7764,22.522,87,1.4937,1.5468,32.3204,-50.4303,30,0.2611,9019,3.9831,9.6012
lg,1624878355620683158,0,-0.936,-0.7859,0.7178,739,-29.1138,-36.0107,43.8843,87,1.4927,1.5508,33.1021,-50.0411,30,0.2591,9046,3.9831,12.3169
lg,1624878355620702010,0,-0.7812,-0.8672,0.7598,740,-23.2544,-80.9326,51.2085,87,1.4887,1.5538,30.9524,-47.1968,30,0.2561,8319,3.9831,19.0838
lg,1624878355620719806,0,-0.6333,-0.8855,0.6909,741,-16.1133,-205.0171,55.4199,87,1.4837,1.5568,26.7723,-43.9321,30,0.2541,8528,3.9831,27.4538
lg,1624878355620738158,0,-0.1638,-0.7725,0.677,742,-7.6294,-272.8882,59.8145,87,1.4827,1.5568,19.6644,-40.5358,30,0.2541,9009,3.9831,37.2377
lg,1624878355620756324,0,0.1382,-0.7107,0.3618,743,1.5869,-253.2349,31.9214,87,1.4797,1.5558,11.7013,-39.2517,30,0.2541,8518,3.9831,44.6793
lg,1624878355620774935,0,0.3682,-0.8354,0.5503,744,-22.9492,-198.4863,40.4663,87,1.4787,1.5548,7.5296,-39.8806,30,0.2531,8326,3.9831,49.4996
lg,1624878355620793361,0,0.4004,-0.8809,0.501,745,-5.3101,-65.0635,37.8418,87,1.4787,1.5568,5.4399,-40.5055,30,0.2531,8394,3.9831,52.2613
lg,1624878355620811417,0,0.2788,-0.8174,0.5967,746,5.127,50.293,17.2119,87,1.4777,1.5588,6.6021,-40.8841,30,0.2531,8372,3.9831,51.4159
lg,1624878355620828991,0,0.0037,-0.7944,0.5864,747,10.0708,132.6904,4.1504,87,1.4807,1.5588,10.4183,-41.4801,30,0.2561,8387,3.9831,47.9455
lg,1624878355620846324,0,-0.2346,-0.7922,0.7251,748,14.0991,159.6069,-0.4272,87,1.4847,1.5598,15.2117,-42.1189,30,0.2581,11005,3.9831,43.5201
lg,1624878355620863676,0,-0.3911,-0.8579,0.6951,749,17.5781,149.1089,-6.4087,87,1.4887,1.5588,18.7652,-42.946,30,0.2581,8415,3.9831,39.3104
lg,1624878355620881047,0,-0.3992,-0.8491,0.6621,750,20.2637,107.9102,-14.8315,87,1.4927,1.5578,21.5438,-43.7332,31,0.2581,8618,3.9831,35.5751
lg,1624878355620898380,0,-0.408,-0.7473,0.5537,751,26.8555,59.6313,-11.1084,87,1.4927,1.5568,23.0379,-43.8398,31,0.2571,8501,3.9831,33.3036
lg,1624878355620938176,0,-0.3694,-0.7598,0.5361,752,-2.8687,27.9541,-3.7231,87,1.4927,1.5558,23.6828,-44.7632,31,0.2611,8523,3.9831,32.1668
lg,1624878355620959269,0,-0.3108,-0.7605,0.6187,753,-15.7471,27.6489,11.0474,87,1.4937,1.5588,24.7819,-45.9888,31,0.2661,8732,3.9831,31.9386
lg,1624878355620977454,0,-0.4014,-0.7385,0.6628,754,-34.8511,30.1514,30.0293,87,1.4927,1.5588,26.3608,-47.4782,30,0.2671,8026,3.9831,31.8429
lg,1624878355620994343,0,-0.5837,-0.7629,0.5767,755,-38.147,21.6675,48.2788,87,1.4907,1.5638,28.5663,-48.8617,30,0.2641,8053,3.9831,32.4711
lg,1624878355621011584,0,-0.6973,-0.7275,0.6782,756,-32.4707,1.6479,44.9829,87,1.4877,1.5648,29.3551,-48.6765,30,0.2641,8067,3.9831,34.963
lg,1624878355621028991,0,-0.4983,-0.7126,0.9243,757,-20.3247,-78.2471,48.7671,87,1.4857,1.5648,28.4774,-47.0102,30,0.2621,8095,3.9831,39.3423
lg,1624878355621045898,0,-0.2092,-0.9219,0.7344,758,-25.7568,-135.2539,37.4146,87,1.4827,1.5618,25.1337,-45.7196,30,0.2591,12905,3.9831,44.7957
lg,1624878355621064510,0,-0.1038,-0.8647,0.6406,759,-6.5918,-133.1177,34.1797,87,1.4817,1.5608,21.6008,-44.2606,30,0.2581,8160,3.9831,49.8066
lg,1624878355621081935,0,-0.0342,-0.7817,0.5286,760,-3.9062,-74.5239,30.8228,87,1.4817,1.5608,19.5812,-43.7853,30,0.2591,8144,3.9831,52.7873
lg,1624878355621099621,0,0.0049,-0.7983,0.5688,761,-0.9155,-12.9395,29.7241,87,1.4807,1.5618,19.2706,-43.8306,30,0.2581,8273,3.9831,53.927
lg,1624878355621210898,0,-0.0029,-0.7961,0.5842,762,-1.5259,16.5405,27.0996,87,1.4817,1.5628,19.8772,-44.2661,31,0.2591,8211,3.9831,54.1011
lg,1624878355621236584,0,-0.1221,-0.8066,0.5364,763,3.2349,58.0444,18.1885,87,1.4827,1.5638,21.5418,-45.0519,31,0.2601,9470,3.9831,52.7365
lg,1624878355621256824,0,-0.2913,-0.8232,0.6011,764,5.0049,82.7637,14.4043,87,1.4837,1.5648,24.0374,-46.0275,31,0.2591,8251,3.9831,50.4744
lg,1624878355621277787,0,-0.407,-0.8418,0.647,765,10.5591,71.5332,10.2539,87,1.4857,1.5638,26.1722,-46.6951,30,0.2621,8262,3.9831,48.3902
lg,1624878355621296973,0,-0.3618,-0.8167,0.7036,766,17.5171,51.5137,12.6343,87,1.4887,1.5628,27.6367,-46.6776,30,0.2641,8282,3.9831,47.0482
lg,1624878355621315435,0,-0.2759,-0.8345,0.6611,767,26.4282,18.4326,0.8545,87,1.4927,1.5618,27.5468,-46.2026,30,0.2641,8571,3.9831,46.3205
lg,1624878355621366695,0,-0.1858,-0.8264,0.6252,768,33.6914,17.7002,-2.3804,87,1.4937,1.5618,27.292,-45.4411,30,0.2621,8314,3.9831,45.5341
lg,1624878355988262695,0,-0.2483,-0.7061,0.5029,769,25.5737,85.4492,-11.7798,87,1.4937,1.5548,28.8772,-46.2854,30,0.2551,25695,3.9831,42.2007
lg,1624878355988293306,0,-0.5273,-0.7913,0.668,770,-39.4287,71.2891,22.644,87,1.4957,1.5538,31.372,-48.8575,30,0.2621,15192,3.9831,40.4016
lg,1624878355988313324,0,-0.6416,-0.8157,0.573,771,-51.6968,53.1616,36.1328,87,1.4947,1.5568,33.8791,-51.6016,31,0.2581,7834,3.9831,39.429
lg,1624878355988332139,0,-0.8699,-0.6934,0.5498,772,-38.8184,1.0376,42.8467,87,1.4907,1.5598,35.6619,-52.4261,31,0.2581,7760,3.9831,40.6749
lg,1624878355988354269,0,-0.8425,-0.6748,0.7744,773,-24.9023,-96.4966,57.8003,87,1.4857,1.5618,35.2093,-49.7977,31,0.2551,7738,3.9831,46.4164
lg,1624878355988373509,0,-0.592,-0.7849,0.907,774,-32.1045,-164.1846,60.6079,87,1.4837,1.5608,32.3048,-46.3341,31,0.2541,7778,3.9831,54.4685
lg,1624878355988392195,0,-0.2568,-0.9446,0.5273,775,-0.4272,-226.6846,17.0898,87,1.4817,1.5578,25.6998,-43.1728,30,0.2521,9308,3.9831,61.971
lg,1624878355988410417,0,0.1011,-0.8865,0.6675,776,-7.5073,-180.603,15.0757,87,1.4817,1.5548,19.653,-41.6605,30,0.2501,8503,3.9831,67.5412
lg,1624878355988428602,0,0.0891,-0.7905,0.4792,777,2.5024,-141.4795,-1.1597,87,1.4807,1.5548,16.1642,-41.8538,30,0.2511,7836,3.9831,69.4964
lg,1624878355988446232,0,0.0295,-0.7742,0.4045,778,-1.5259,-25.3296,9.3384,87,1.4807,1.5548,14.9983,-42.4648,30,0.2511,7841,3.9831,70.2639
lg,1624878355988463750,0,-0.0171,-0.8035,0.5125,779,7.9956,55.7861,20.1416,87,1.4797,1.5548,16.6417,-43.0077,30,0.2511,7832,3.9831,69.1441
lg,1624878355988481046,0,-0.1707,-0.6997,0.5906,780,8.2397,97.5342,19.8364,87,1.4797,1.5558,19.7653,-43.6383,30,0.2511,7964,3.9831,66.8489
lg,1624878355988498009,0,-0.3728,-0.782,0.6404,781,-1.5259,104.0039,15.7471,87,1.4797,1.5568,23.1813,-44.9356,30,0.2531,7929,3.9831,64.1106
lg,1624878355988515158,0,-0.5164,-0.825,0.6577,782,0.9155,66.1621,16.9678,87,1.4797,1.5588,25.6238,-45.7802,30,0.2551,8784,3.9831,62.4624
lg,1624878355988532472,0,-0.5249,-0.7974,0.6804,783,4.5776,34.5459,17.2729,87,1.4807,1.5598,27.1084,-45.9873,30,0.2561,7928,3.9831,61.8279
lg,1624878355988567806,0,-0.3718,-0.7844,0.6736,784,7.8735,-22.522,24.1089,87,1.4827,1.5608,26.8756,-45.1302,30,0.2561,8431,3.9831,63.2466
lg,1624878355988586065,0,-0.1633,-0.8145,0.6758,785,14.6484,-33.5693,23.1323,87,1.4847,1.5608,25.867,-43.9694,30,0.2571,8573,3.9853,64.9287
lg,1624878355988603250,0,-0.0884,-0.8997,0.675,786,19.8364,6.8359,8.667,86,1.4877,1.5588,25.4827,-43.5391,30,0.2571,8762,3.9853,64.8195
lg,1624878355988620306,0,-0.1138,-0.8372,0.6265,787,27.0996,52.4902,0.4883,86,1.4897,1.5578,26.2664,-43.5641,30,0.2571,8414,3.9853,63.0427
lg,1624878355988637028,0,-0.1707,-0.8069,0.6138,788,27.771,68.6035,-1.2207,86,1.4907,1.5558,27.5572,-43.8269,30,0.2561,8017,3.9853,60.6966
lg,1624878355988653769,0,-0.3137,-0.6934,0.5298,789,17.5781,83.8013,5.4321,86,1.4907,1.5548,29.7889,-44.6814,30,0.2561,8061,3.9853,58.032
lg,1624878355988670454,0,-0.4668,-0.7773,0.5776,790,-24.292,62.1948,21.4844,86,1.4917,1.5548,31.9683,-46.7045,30,0.2621,8082,3.9853,56.4764
lg,1624878355988687232,0,-0.499,-0.7832,0.6121,791,-30.4565,54.6875,33.7524,86,1.4927,1.5568,34.4166,-48.5528,30,0.2631,8892,3.9853,55.5318
lg,1624878355988703491,0,-0.6514,-0.6887,0.5623,792,-33.9966,16.8457,45.4712,86,1.4907,1.5588,36.2882,-49.496,30,0.2621,8158,3.9853,56.3224
lg,1624878355988719732,0,-0.7085,-0.7988,0.582,793,-40.0391,-33.9966,52.1851,86,1.4867,1.5618,36.9642,-49.4753,30,0.2591,8965,3.9853,59.205
lg,1624878355988736509,0,-0.6152,-0.8245,0.7515,794,-35.2173,-100.0366,56.7017,86,1.4827,1.5628,35.7007,-47.4737,30,0.2601,8573,3.9853,64.8501
lg,1624878355988753454,0,-0.3174,-0.7568,0.989,795,-11.1694,-137.0239,43.7622,86,1.4797,1.5618,32.624,-44.8651,30,0.2601,8270,3.9853,70.8252
lg,1624878355988770417,0,-0.1448,-0.9341,0.8816,796,-22.8882,-144.9585,16.1743,86,1.4777,1.5568,27.9307,-43.2267,30,0.2601,9021,3.9853,75.9863
lg,1624878355988786991,0,-0.0513,-0.8328,0.5198,797,3.7842,-120.5444,-6.3477,86,1.4747,1.5588,23.3176,-42.2295,30,0.2601,8997,3.9853,79.1088
lg,1624878355988804343,0,-0.1055,-0.7896,0.4539,798,3.9673,-44.4946,-6.7749,86,1.4767,1.5588,21.2121,-42.4009,30,0.2601,8661,3.9853,79.8963
lg,1624878355988821306,0,-0.1323,-0.728,0.4141,799,10.6812,-15.5029,0.1831,86,1.4767,1.5598,21.2031,-42.7212,30,0.2611,8389,3.9853,79.4261
lg,1624878355988838065,0,-0.1941,-0.7273,0.4534,800,12.5732,33.6304,6.2256,86,1.4777,1.5588,22.0407,-43.1304,30,0.2611,8329,3.9853,78.4078
lg,1624878356350183657,0,-0.4285,-0.8364,0.6426,801,12.0239,45.3491,10.437,86,1.4787,1.5638,23.6883,-43.3754,30,0.2661,26930,3.9853,77.2597
lg,1624878356350308861,0,-0.2854,-0.8074,0.6455,802,18.1274,-8.4839,11.3525,86,1.4817,1.5638,23.1177,-42.4662,30,0.2681,16638,3.9853,78.1531
lg,1624878356350334676,0,-0.2109,-0.7756,0.6609,803,23.8037,-24.8413,14.7705,86,1.4847,1.5638,22.3296,-41.3431,30,0.2681,7724,3.9853,79.2315
lg,1624878356350356361,0,-0.1074,-0.7839,0.6753,804,27.832,-6.2256,5.9814,86,1.4877,1.5628,21.662,-40.4212,30,0.2691,7756,3.9853,79.4712
lg,1624878356350376342,0,-0.1069,-0.8271,0.6643,805,28.0151,12.6343,-0.5493,86,1.4897,1.5628,21.42,-39.8862,30,0.2681,7732,3.9853,78.9315
lg,1624878356350395009,0,-0.1196,-0.8293,0.646,806,33.02,51.5137,-7.3242,86,1.4907,1.5608,22.2358,-39.6925,30,0.2661,7740,3.9853,77.0765
lg,1624878356350415380,0,-0.2703,-0.7654,0.574,807,28.4424,83.8623,-11.1084,86,1.4917,1.5598,24.2687,-40.1725,30,0.2651,8577,3.9853,74.1492
lg,1624878356350434991,0,-0.3716,-0.7283,0.5493,808,16.2964,80.6885,-6.1035,86,1.4937,1.5598,26.5101,-41.4334,30,0.2691,8613,3.9853,72.0112
lg,1624878356350456620,0,-0.4639,-0.7629,0.6143,809,-15.1367,63.5376,11.2305,86,1.4957,1.5608,28.6373,-43.1378,30,0.2711,7853,3.9853,70.2791
lg,1624878356350477231,0,-0.6475,-0.7532,0.5547,810,-33.4473,28.3203,16.7236,86,1.4957,1.5618,30.1539,-45.0266,31,0.2691,7856,3.9853,69.7344
lg,1624878356350497028,0,-0.7188,-0.7568,0.5435,811,-37.2314,-5.3711,23.8647,86,1.4927,1.5638,30.976,-46.2652,31,0.2651,7919,3.9853,70.5637
lg,1624878356350515157,0,-0.7385,-0.7844,0.6907,812,-22.8882,-55.7251,44.7388,86,1.4887,1.5648,30.8817,-45.5456,31,0.2621,8136,3.9853,73.8475
lg,1624878356350534602,0,-0.5322,-0.7947,0.7976,813,-15.686,-140.9302,43.2739,86,1.4857,1.5668,27.8615,-43.2137,31,0.2611,8006,3.9853,79.8157
lg,1624878356350554713,0,-0.2317,-0.7922,0.9717,814,-1.8311,-176.3306,34.8511,86,1.4847,1.5658,23.0238,-41.1308,30,0.2601,7928,3.9853,85.9215
lg,1624878356350573231,0,-0.1018,-0.8662,0.614,815,-5.188,-171.2036,6.0425,86,1.4807,1.5658,17.3565,-40.1832,30,0.2581,7984,3.9853,90.6516
lg,1624878356350595120,0,0.0071,-0.8179,0.5427,816,9.8267,-116.6382,-7.6904,86,1.4827,1.5648,12.9352,-39.6912,30,0.2571,8021,3.9853,93.3177
lg,1624878356350614176,0,0.019,-0.7659,0.4783,817,8.0566,-77.1484,-11.2915,86,1.4817,1.5648,9.7547,-39.7624,30,0.2581,8050,3.9853,94.8174
lg,1624878356350669417,0,-0.0278,-0.7266,0.3982,818,7.6904,3.7842,6.3477,86,1.4817,1.5638,9.748,-40.2733,30,0.2561,8070,3.9853,94.7734
lg,1624878356350697509,0,-0.1812,-0.7195,0.5222,819,8.1787,72.3267,12.5732,86,1.4817,1.5638,12.3394,-40.7689,30,0.2561,8031,3.9853,93.1517
lg,1624878356350715657,0,-0.2275,-0.7185,0.5974,820,8.7891,86.0596,16.9678,86,1.4817,1.5648,15.4236,-41.2143,30,0.2561,8051,3.9853,91.2682
lg,1624878356350734324,0,-0.4216,-0.7219,0.5803,821,1.0376,57.1899,24.231,86,1.4827,1.5648,18.1291,-41.7758,30,0.2581,13088,3.9853,90.3389
lg,1624878356350753361,0,-0.4058,-0.7886,0.6748,822,6.0425,27.0996,32.5317,86,1.4827,1.5668,19.9275,-41.737,30,0.2581,8597,3.9853,90.5078
lg,1624878356350770917,0,-0.3274,-0.7856,0.751,823,11.4746,11.4746,32.7759,86,1.4837,1.5678,21.0091,-41.1995,30,0.2601,8105,3.9853,91.1686
lg,1624878356350788787,0,-0.1362,-0.8196,0.7632,824,16.7847,-14.5264,22.8271,86,1.4867,1.5678,20.6153,-40.3591,30,0.2601,8207,3.9853,92.224
lg,1624878356350805935,0,-0.0381,-0.8469,0.7244,825,28.8696,15.625,6.4697,86,1.4907,1.5658,20.5373,-39.6596,30,0.2611,11535,3.9853,91.866
lg,1624878356350823713,0,-0.1052,-0.8313,0.6577,826,31.7383,69.8853,-9.6436,86,1.4927,1.5648,21.86,-39.6957,30,0.2591,8267,3.9853,89.4522
lg,1624878356350841305,0,-0.2314,-0.7927,0.613,827,31.0669,104.0649,-12.7563,86,1.4927,1.5628,24.3666,-40.2801,30,0.2581,8404,3.9853,85.9191
lg,1624878356350858898,0,-0.2979,-0.7698,0.6172,828,29.9683,113.2202,-9.0332,86,1.4927,1.5618,27.2538,-41.0964,30,0.2561,8294,3.9853,82.1402
lg,1624878356350877139,0,-0.4993,-0.6885,0.4866,829,10.8032,104.4922,0.9155,86,1.4927,1.5608,30.5165,-42.7094,31,0.2591,8291,3.9853,78.7325
lg,1624878356350895657,0,-0.5696,-0.7698,0.6672,830,-16.9678,67.0776,22.644,86,1.4957,1.5628,33.0151,-44.3718,31,0.2631,8608,3.9853,77.1956
lg,1624878356350915565,0,-0.6191,-0.6694,0.5508,831,-15.8081,-0.3052,27.0996,86,1.4957,1.5638,33.8623,-44.7118,31,0.2641,8403,3.9853,78.006
lg,1624878356350935861,0,-0.6611,-0.7832,0.6162,832,-32.2876,-48.2788,38.208,86,1.4947,1.5658,33.5596,-44.6336,31,0.2631,8398,3.9853,80.7988
lg,1624878356709427916,0,-0.3838,-0.7305,0.8015,833,-9.1553,-157.1045,49.8657,86,1.4837,1.5668,28.6211,-40.651,30,0.2591,26049,3.9853,87.4678
lg,1624878356709466527,0,-0.1335,-0.8835,0.7087,834,-15.2588,-153.1372,20.3857,86,1.4817,1.5628,23.655,-39.4707,30,0.2601,15171,3.9853,92.3331
lg,1624878356709487102,0,-0.0691,-0.7827,0.4519,835,15.0757,-118.042,4.2725,86,1.4817,1.5618,19.4199,-38.4902,30,0.2591,7768,3.9853,95.3274
lg,1624878356709506546,0,-0.042,-0.7397,0.51,836,16.8457,-47.2412,9.8267,86,1.4807,1.5618,17.5624,-38.0118,30,0.2581,7791,3.9853,96.6551
lg,1624878356709525213,0,0.0049,-0.7366,0.5503,837,20.3857,-16.8457,17.5781,86,1.4807,1.5618,16.7869,-37.5155,30,0.2581,8227,3.9853,97.4776
lg,1624878356709543602,0,-0.0598,-0.741,0.6099,838,17.334,36.438,14.7095,86,1.4807,1.5618,17.7892,-37.4805,30,0.2571,9476,3.9853,96.8796
lg,1624878356709561361,0,-0.2344,-0.7732,0.625,839,18.0054,73.3032,13.2446,86,1.4787,1.5618,20.2565,-37.7739,30,0.2571,9149,3.9853,95.2577
lg,1624878356709578602,0,-0.3843,-0.7412,0.6399,840,19.7754,76.5991,13.0615,86,1.4817,1.5618,23.0362,-38.0096,30,0.2571,7793,3.9853,93.5159
lg,1624878356709595694,0,-0.4214,-0.7241,0.7151,841,20.3247,62.2559,12.7563,86,1.4817,1.5628,25.28,-37.991,30,0.2571,8382,3.9853,92.1579
lg,1624878356709612972,0,-0.3884,-0.7195,0.6943,842,22.0947,14.4653,12.3901,86,1.4817,1.5628,25.8806,-37.4096,31,0.2571,7869,3.9853,92.0604
lg,1624878356709630231,0,-0.2847,-0.718,0.6467,843,23.4375,-10.8032,13.0615,86,1.4817,1.5638,25.4896,-36.5837,31,0.2581,7866,3.9853,92.6182
lg,1624878356709647861,0,-0.2415,-0.7617,0.635,844,23.3154,-9.3994,13.3057,86,1.4817,1.5638,25.06,-35.9113,31,0.2581,7907,3.9853,93.0906
lg,1624878356709664750,0,-0.2207,-0.7485,0.6072,845,24.7803,8.5449,15.0757,86,1.4827,1.5648,25.2367,-35.4122,31,0.2591,7918,3.9853,93.1406
lg,1624878356709682602,0,-0.2356,-0.7109,0.5706,846,27.2827,17.0898,14.9536,86,1.4837,1.5658,25.9084,-34.9333,30,0.2601,7979,3.9853,92.8293
lg,1624878356709699027,0,-0.2517,-0.6885,0.5994,847,31.9214,36.1938,18.1885,86,1.4837,1.5658,27.1157,-34.3572,30,0.2621,14276,3.9853,92.3143
lg,1624878356709715416,0,-0.2732,-0.7209,0.6206,848,30.4565,48.8892,18.7378,86,1.4847,1.5668,28.7359,-34.0239,30,0.2631,8007,3.9853,91.4768
lg,1624878356709731546,0,-0.3025,-0.7366,0.6562,849,31.6162,52.2461,17.8833,86,1.4867,1.5668,30.461,-33.6267,30,0.2641,7989,3.9853,90.4549
lg,1624878356709765361,0,-0.3252,-0.7358,0.6499,850,38.147,52.9785,15.8691,86,1.4887,1.5678,32.122,-33.1347,30,0.2651,8300,3.9853,89.374
lg,1624878356709783639,0,-0.3594,-0.731,0.6492,851,40.4053,45.166,11.2305,86,1.4897,1.5678,33.4374,-32.5723,30,0.2671,8150,3.9853,88.2954
lg,1624878356709799953,0,-0.3486,-0.7283,0.615,852,43.0298,28.1982,12.207,86,1.4917,1.5688,34.1693,-31.7367,30,0.2681,9352,3.9853,87.6441
lg,1624878356709817509,0,-0.3276,-0.7156,0.6062,853,44.6167,19.8364,14.5264,86,1.4927,1.5688,34.404,-30.5279,30,0.2691,8325,3.9853,87.4539
lg,1624878356709835657,0,-0.2976,-0.7056,0.5869,854,48.8281,7.4463,16.2354,86,1.4937,1.5688,34.4102,-29.1763,30,0.2691,8179,3.9853,87.4487
