name,time,activity,ax,ay,az,batch_val,gx,gy,gz,ibat,index,middle,pitch,roll,temp,thumb,ts,vbat,yaw
rg,1624878364865242276,1,0.2871,-0.0161,1.0044,1,1.5869,-13.3667,14.3433,66,1.0995,1.2616,-24.9189,-7.059,27,1.0075,19281,4.0876,-99.1238
rg,1624878364865280455,1,0.2891,-0.0127,1.0044,2,0.8545,-12.5122,13.9771,66,1.1005,1.2616,-24.9945,-7.0444,27,1.0075,8277,4.0876,-98.557
rg,1624878364865301359,1,0.2852,-0.0159,1.0085,3,1.2817,-11.5967,14.5264,66,1.1005,1.2616,-25.0177,-7.029,28,1.0065,7710,4.0876,-97.968
rg,1624878364865321800,1,0.2825,-0.0195,0.999,4,0.9766,-10.1318,13.916,66,1.0995,1.2616,-24.9847,-7.0208,28,1.0075,7767,4.0876,-97.4098
rg,1624878364865341075,1,0.2832,-0.0168,1.0056,5,1.0376,-9.6436,13.6108,66,1.0995,1.2616,-24.9333,-6.9965,28,1.0075,7680,4.0876,-96.8704
rg,1624878364865359591,1,0.282,-0.0134,0.9995,6,1.1597,-11.3525,14.7095,66,1.0995,1.2616,-24.9477,-6.9844,28,1.0085,7763,4.0876,-96.2767
rg,1624878364865377976,1,0.2778,-0.0183,1.0032,7,1.2207,-11.8408,14.3433,66,1.0995,1.2616,-24.9775,-6.9778,27,1.0075,7774,4.0876,-95.6907
rg,1624878364865395363,1,0.283,-0.0068,1.0034,8,0.9155,-12.5122,13.4888,66,1.0985,1.2616,-25.0427,-6.9411,27,1.0085,7815,4.0876,-95.1507
rg,1624878364865412175,1,0.2949,-0.0149,1.0059,9,1.3428,-13.3667,14.9536,66,1.0945,1.2616,-25.1545,-6.9388,27,1.0105,8615,4.0876,-94.5328
rg,1624878364865443225,1,0.2942,-0.0151,1.0017,10,0.8545,-13.1836,15.1367,66,1.1005,1.2616,-25.2546,-6.9611,27,1.0085,9486,4.0876,-93.9074
rg,1624878364865463037,1,0.301,-0.0139,1.0056,11,0.2441,-11.4746,14.0991,66,1.0995,1.2646,-25.2998,-6.9817,27,1.0075,7817,4.0876,-93.3382
rg,1624878364865481645,1,0.2927,-0.0107,1.0107,12,0.4272,-10.2539,13.6108,66,1.0995,1.2616,-25.2777,-6.9739,27,1.0065,7842,4.0876,-92.8011
rg,1624878364865499605,1,0.2756,-0.0239,1.0129,13,0.6104,-10.1929,14.8926,66,1.0995,1.2616,-25.2099,-7.0127,27,1.0075,7956,4.0876,-92.195
rg,1624878364865516787,1,0.2817,-0.0149,1.0181,14,0.3662,-10.3149,15.1978,66,1.1005,1.2596,-25.1584,-7.0435,27,1.0085,7867,4.0876,-91.5845
rg,1624878364865534118,1,0.2856,-0.0234,0.9958,15,0.3662,-11.7188,14.2822,66,1.0985,1.2626,-25.1886,-7.0813,27,1.0065,33236,4.0876,-90.9973
rg,1624878364865551059,1,0.2903,-0.0129,0.9961,16,1.0376,-11.2915,15.3198,66,1.0995,1.2616,-25.206,-7.0845,27,1.0085,8189,4.0876,-90.378
rg,1624878364865567575,1,0.3083,-0.019,0.9966,17,1.5259,-10.9253,15.1367,66,1.0995,1.2616,-25.1723,-7.0638,27,1.0085,7986,4.0876,-89.8061
rg,1624878364865584776,1,0.2888,-0.009,0.9995,18,1.4648,-8.8501,15.3198,66,1.1025,1.2626,-25.0896,-7.0346,27,1.0065,7954,4.0876,-89.2043
rg,1624878364865602125,1,0.2903,-0.0193,1.0105,19,0.1221,-8.606,14.4653,66,1.0995,1.2616,-24.9999,-7.0666,27,1.0085,7991,4.0876,-88.6308
rg,1624878364865619326,1,0.2825,-0.0168,1.0142,20,0.1221,-8.8501,15.0757,66,1.0995,1.2626,-24.934,-7.0726,27,1.0075,8036,4.0876,-88.0273
rg,1624878364865636119,1,0.2798,-0.0115,1.0098,21,1.0376,-9.8877,14.4653,66,1.0995,1.2626,-24.8808,-7.0488,27,1.0085,8066,4.0876,-87.4555
rg,1624878364865652802,1,0.2751,-0.0142,0.9971,22,0.4272,-10.1929,15.8081,66,1.1005,1.2626,-24.8325,-7.0819,27,1.0085,8101,4.0876,-86.8201
rg,1624878364865670466,1,0.2778,-0.0095,1.0176,23,0,-10.3149,14.4043,66,1.1005,1.2626,-24.8151,-7.1676,27,1.0085,8066,4.0876,-86.21
rg,1624878364865688018,1,0.2751,-0.0208,1.009,24,-0.1831,-10.1318,14.0381,66,1.0995,1.2626,-24.767,-7.2019,28,1.0095,8131,4.0876,-85.6474
rg,1624878364865718088,1,0.2742,-0.0269,1.0049,25,0.5493,-11.8408,13.7329,66,1.0995,1.2626,-24.7893,-7.2187,28,1.0075,8184,4.0876,-85.0827
rg,1624878364865735677,1,0.2803,-0.0173,0.998,26,0.3052,-11.2915,13.1226,66,1.0995,1.2626,-24.843,-7.2216,28,1.0075,8170,4.0876,-84.4846
rg,1624878364865753045,1,0.2935,-0.0107,1.001,27,0.3662,-13.4888,14.8315,66,1.0995,1.2626,-24.9734,-7.2445,28,1.0075,8440,4.0876,-83.8735
rg,1624878364865769764,1,0.4153,-1.0371,0.6702,28,-74.3408,-178.9551,10.6201,111,0.7834,0.5973,-31.9345,-12.979,27,0.9285,8456,4.037,-81.1692
rg,1624878364865788132,1,0.5681,-1.1472,0.6323,29,-55.1147,-155.1514,15.8081,111,0.7684,0.5773,-37.6768,-18.6588,28,0.9235,8381,4.037,-77.3539
rg,1624878364865805795,1,0.5999,-1.1426,0.5439,30,-45.7764,-138.2446,23.3154,111,0.7674,0.4942,-42.2703,-24.8402,28,0.9084,8251,4.037,-72.3618
rg,1624878364865823404,1,0.5984,-0.9651,0.4404,31,-21.2402,-103.7598,21.0571,111,0.7724,0.4202,-45.3059,-30.0104,28,0.8924,8139,4.037,-67.465
rg,1624878364865840864,1,0.5122,-0.615,0.6218,32,70.4346,-22.644,18.5547,111,0.7754,0.4002,-45.1756,-29.01,28,0.8954,8164,4.037,-65.4015
rg,1624878365195336251,1,0.3643,-0.4204,0.2515,33,10.0098,35.1562,16.4185,111,0.7764,0.3962,-43.1446,-29.6938,28,0.8864,25608,4.037,-64.7153
rg,1624878365195413498,1,0.3213,-0.5339,0.4031,34,-18.7378,58.8379,27.4048,111,0.7774,0.4012,-39.9912,-31.2835,28,0.8864,8739,4.037,-64.328
rg,1624878365195435846,1,0.1892,-0.5754,0.4351,35,-37.7808,80.6274,21.2402,111,0.7784,0.4092,-35.944,-33.0174,28,0.8864,8548,4.037,-64.9595
rg,1624878365195456121,1,0.1816,-0.6875,0.5828,36,-49.6216,56.0303,21.1182,111,0.7784,0.4152,-32.7263,-35.3654,28,0.8884,7741,4.037,-65.2134
rg,1624878365195475211,1,0.2192,-0.803,0.6709,37,-54.5654,39.856,22.7051,111,0.7794,0.4252,-30.3626,-38.3987,28,0.8934,7965,4.037,-64.7773
rg,1624878365195492523,1,0.3047,-1.1453,0.7375,38,-45.166,36.3159,29.8462,111,0.7804,0.4442,-27.7108,-40.1988,28,0.9024,16177,4.037,-64.6931
rg,1624878365195512187,1,0.2463,-1.1287,0.7659,39,-12.2681,48.1567,21.9727,111,0.7804,0.4562,-25.0357,-41.0567,28,0.9094,7650,4.037,-65.0482
rg,1624878365195529684,1,0.1523,-1.0481,0.7065,40,19.4092,32.2266,20.6299,111,0.7804,0.4762,-22.8484,-40.8111,28,0.9164,8604,4.037,-65.0242
rg,1624878365195547792,1,0.2151,-1.0261,0.6179,41,32.3486,12.8174,20.6909,111,0.7804,0.4962,-22.0126,-40.1149,28,0.9225,7720,4.037,-64.1208
rg,1624878365195566215,1,0.2014,-0.9966,0.5515,42,51.0254,-10.1929,10.2539,111,0.7894,0.5143,-21.6445,-39.1629,28,0.9285,7780,4.037,-63.1737
rg,1624878365195584194,1,0.0996,-0.8252,0.4387,43,57.4341,-15.1367,2.1362,111,0.8014,0.5263,-21.5164,-37.9842,28,0.9335,8372,4.037,-62.3402
rg,1624878365195602451,1,0.0339,-0.6653,0.4377,44,46.5088,-25.5127,6.4697,111,0.8114,0.5423,-21.4623,-37.2282,28,0.9395,7976,4.037,-61.1572
rg,1624878365195794088,1,0.04,-0.5811,0.4915,45,7.1411,-51.3306,8.8501,111,0.8144,0.5513,-22.1586,-38.0771,28,0.9415,8436,4.037,-59.3123
rg,1624878365195864688,1,0.1116,-0.6384,0.5112,46,-24.1699,-71.5942,11.1084,111,0.8024,0.5563,-24.0256,-42.0453,27,0.9405,8614,4.037,-56.0087
rg,1624878365195888240,1,0.3811,-0.96,0.6768,47,-74.4629,-96.2524,22.8271,111,0.7824,0.5563,-25.8781,-47.0871,27,0.9365,8196,4.037,-52.1049
rg,1624878365195983577,1,0.4854,-1.1223,0.6643,48,-70.6787,-79.0405,18.5547,111,0.7694,0.5463,-27.1449,-51.8382,27,0.9295,8699,4.037,-48.667
rg,1624878365196006444,1,0.4966,-1.1587,0.5298,49,-41.1377,-41.5649,34.2407,111,0.7664,0.4972,-26.8106,-55.1194,28,0.9144,9053,4.037,-46.0079
rg,1624878365196038217,1,0.4285,-1.0154,0.4951,50,-16.8457,-12.7563,34.1187,111,0.7704,0.4232,-25.7306,-56.7299,28,0.9044,10909,4.037,-44.529
rg,1624878365196066935,1,0.2388,-0.7576,0.5085,51,65.3076,34.4849,25.2075,111,0.7724,0.4052,-23.6839,-53.8313,28,0.9044,7982,4.037,-45.1544
rg,1624878365196095782,1,0.1963,-0.615,0.1624,52,88.3789,22.2778,35.5835,111,0.7724,0.3992,-21.8224,-51.2192,28,0.9014,8208,4.037,-44.6398
rg,1624878365196115928,1,0.1541,-0.4172,0.2729,53,38.269,8.606,15.8081,111,0.7734,0.3992,-20.9333,-49.9604,28,0.8984,8011,4.037,-44.4134
rg,1624878365196134462,1,0.0425,-0.3787,0.2849,54,23.2544,8.2397,10.6201,111,0.7744,0.4052,-19.7769,-49.1609,28,0.8964,8117,4.037,-44.3402
rg,1624878365196155533,1,0.0774,-0.4229,0.3948,55,-3.6621,3.1128,19.5312,111,0.7754,0.4122,-18.645,-50.2263,28,0.8944,9044,4.037,-43.8598
rg,1624878365196177529,1,0.1697,-0.5303,0.4905,56,-42.4805,-6.5918,22.9492,111,0.7764,0.4202,-18.0394,-52.1145,28,0.8954,9008,4.037,-43.0606
rg,1624878365196197082,1,0.3943,-0.8669,0.7073,57,-78.0029,-17.7002,26.3672,111,0.7774,0.4302,-17.6553,-55.5479,28,0.8984,8420,4.037,-41.8263
rg,1624878365196220671,1,0.4761,-1.2522,0.8367,58,-66.3452,8.667,14.0381,111,0.7784,0.4382,-16.9899,-58.2157,28,0.9044,8798,4.037,-41.8068
rg,1624878365196245908,1,0.2834,-1.3555,0.876,59,-11.0474,42.5415,8.0566,111,0.7824,0.4472,-15.5471,-58.2257,28,0.9114,8741,4.037,-43.1571
rg,1624878365196293308,1,0.1909,-1.1301,0.7122,60,25.0854,44.1284,15.1367,111,0.7854,0.4632,-13.8214,-55.9565,28,0.9204,8576,4.037,-43.912
rg,1624878365196316804,1,0.1992,-1.0149,0.6299,61,67.8711,22.2168,19.7144,111,0.7904,0.4842,-12.4949,-53.2618,28,0.9295,8884,4.037,-44.1673
rg,1624878365196346115,1,0.1663,-0.874,0.436,62,76.7822,6.8359,14.8926,111,0.8044,0.4992,-11.7539,-50.6249,28,0.9365,8730,4.037,-43.9251
rg,1624878365196374277,1,0.0725,-0.7185,0.4114,63,58.1665,2.3804,11.3525,111,0.8134,0.5092,-11.0856,-48.7215,28,0.9405,8687,4.037,-43.6189
rg,1624878365196401736,1,0.0605,-0.5754,0.5073,64,7.9956,-28.1982,11.1694,111,0.8144,0.5153,-11.2286,-48.6114,28,0.9435,8941,4.037,-42.456
rg,1624878365534138523,1,0.3572,-1.0598,0.564,65,-77.0264,-66.4673,17.5781,111,0.7674,0.5032,-12.0063,-52.4365,28,0.9235,28079,4.037,-39.9702
rg,1624878365534174018,1,0.4014,-1.1501,0.5288,66,-35.9497,-21.4844,34.3628,111,0.7694,0.4292,-11.6365,-54.6693,28,0.9064,10747,4.037,-38.3268
rg,1624878365534194737,1,0.4292,-1.1438,0.6499,67,-8.3618,-16.7847,39.4897,111,0.7714,0.4082,-10.2806,-53.2415,28,0.9064,7555,4.037,-37.562
rg,1624878365534214882,1,0.3152,-0.9722,0.2568,68,87.0361,19.5923,46.3257,111,0.7714,0.4032,-8.6546,-50.6655,28,0.9014,7613,4.037,-36.8974
rg,1624878365534233324,1,0.2996,-0.6104,0.2964,69,77.5146,-2.0752,10.9253,111,0.7724,0.3992,-8.9786,-48.1015,28,0.8994,7547,4.037,-36.4894
rg,1624878365534251136,1,0.1155,-0.4204,0.1326,70,91.0034,15.1978,-16.0522,111,0.7734,0.3962,-9.2878,-45.2369,27,0.8974,7566,4.037,-37.2473
rg,1624878365534268596,1,-0.0339,-0.1055,0.0771,71,71.7163,31.9214,-16.8457,111,0.7744,0.3992,-7.9248,-42.4933,27,0.8944,8799,4.037,-38.5574
rg,1624878365534286741,1,-0.0417,-0.1323,0.3972,72,-18.9209,34.6069,11.6577,111,0.7764,0.4092,-6.0854,-42.2389,27,0.8964,7869,4.037,-39.2812
rg,1624878365534305016,1,0.0493,-0.3757,0.5952,73,-70.1904,15.7471,27.0386,111,0.7774,0.4172,-5.0579,-45.1868,27,0.8984,7831,4.037,-38.9198
rg,1624878365534324254,1,0.3372,-1.0063,0.7942,74,-107.4219,-24.7192,29.4189,111,0.7794,0.4202,-5.2347,-49.8501,27,0.9044,8087,4.037,-37.3554
rg,1624878365534343862,1,0.46,-1.4104,0.8921,75,-67.5049,-8.5449,10.0098,111,0.7804,0.4332,-5.5349,-52.8822,27,0.9104,8028,4.037,-36.8004
rg,1624878365534361748,1,0.4116,-1.4441,0.9163,76,-30.3955,10.2539,6.0425,111,0.7814,0.4432,-5.0436,-52.8278,27,0.9174,8394,4.037,-37.4319
rg,1624878365534379005,1,0.2292,-1.2034,0.8313,77,33.2031,26.6113,7.3853,111,0.7844,0.4612,-4.3145,-51.5356,28,0.9265,8347,4.037,-38.0906
rg,1624878365534396669,1,0.1711,-0.9763,0.6211,78,65.0635,13.5498,10.6812,111,0.7904,0.4792,-3.805,-49.1522,28,0.9335,8191,4.037,-38.2242
rg,1624878365534414018,1,0.0876,-0.8159,0.4502,79,65.4297,-0.4883,6.8359,111,0.8024,0.4932,-3.6798,-47.0126,28,0.9395,8400,4.037,-37.9978
rg,1624878365534431275,1,0.0532,-0.7458,0.4326,80,55.7861,-7.4463,5.6152,111,0.8094,0.5032,-3.7204,-45.3056,28,0.9455,8111,4.037,-37.5945
rg,1624878365534447920,1,0.0376,-0.6208,0.4678,81,20.3857,-39.2456,3.7231,111,0.8124,0.5072,-4.6798,-44.8752,28,0.9475,7857,4.037,-36.3525
rg,1624878365534464566,1,0.2166,-0.7302,0.6128,82,-51.8188,-83.4961,9.4604,111,0.7994,0.5102,-7.0261,-47.4051,28,0.9475,7900,4.037,-33.6428
rg,1624878365534481804,1,0.3059,-0.8933,0.6331,83,-78.6133,-94.8486,6.4697,111,0.7794,0.5112,-9.6231,-51.258,28,0.9415,7900,4.037,-30.5169
rg,1624878365534529778,1,0.3853,-1.1028,0.6135,84,-95.6421,-90.0879,10.1929,111,0.7714,0.5072,-11.7048,-56.0274,28,0.9335,7982,4.037,-27.2439
rg,1624878365534549257,1,0.4727,-1.2544,0.5557,85,-64.4531,-62.3169,28.5645,111,0.7684,0.4652,-12.3477,-59.5541,28,0.9204,7928,4.037,-24.3805
rg,1624878365534593972,1,0.4893,-1.2607,0.5071,86,-43.7012,-52.3071,35.2173,111,0.7704,0.4192,-12.4247,-62.1654,28,0.9134,8067,4.037,-21.735
rg,1624878365534613839,1,0.4644,-1.1658,0.5767,87,54.0771,-2.4414,37.1704,111,0.7714,0.4082,-11.4545,-60.2191,28,0.9114,7993,4.037,-20.9154
rg,1624878365534631948,1,0.4692,-0.8049,0.2881,88,107.1167,-27.4658,29.6021,111,0.7734,0.4012,-11.6984,-56.6017,28,0.9094,8107,4.037,-19.2844
rg,1624878365534649297,1,0.3469,-0.5317,0.1902,89,100.1587,-2.6245,-0.5493,169,0.7734,0.3952,-12.558,-53.0727,28,0.9064,8049,4.0128,-19.1428
rg,1624878365534667646,1,0.0125,-0.1143,-0.0186,90,121.0327,38.5132,-25.3296,169,0.7734,0.3992,-10.502,-47.4426,28,0.9034,10173,4.0128,-21.0108
rg,1624878365534685865,1,-0.0881,0.0715,0.0613,91,38.0249,58.4106,6.5918,169,0.7754,0.4072,-7.199,-44.0367,28,0.9034,8342,4.0128,-22.7783
rg,1624878365534703178,1,0.1055,-0.3098,0.53,92,-90.6372,23.1934,44.0674,169,0.7764,0.4172,-5.4056,-47.1718,28,0.9044,8944,4.0128,-22.2755
rg,1624878365534720675,1,0.4424,-1.1003,0.9297,93,-140.686,1.0376,49.4385,169,0.7774,0.4252,-4.3225,-52.9783,28,0.9094,8775,4.0128,-21.0086
rg,1624878365534737617,1,0.5183,-1.5522,0.7996,94,-114.3188,11.5967,38.4521,169,0.7794,0.4322,-3.3405,-56.2012,28,0.9144,8595,4.0128,-21.3639
rg,1624878365534754855,1,0.4187,-1.5183,0.8884,95,-30.9448,52.6123,13.3057,169,0.7794,0.4362,-2.1494,-57.4877,28,0.9194,8734,4.0128,-22.8302
rg,1624878365534771852,1,0.1069,-1.1636,0.8901,96,37.7197,72.7539,11.7798,169,0.7814,0.4482,-0.2476,-55.7294,28,0.9305,9259,4.0128,-25.0153
rg,1624878365892520761,1,-0.0029,-0.8362,0.3818,97,70.0684,-17.8833,11.6577,169,0.8064,0.4952,-0.4329,-53.4254,28,0.9505,25564,4.0128,-23.91
rg,1624878365892616469,1,0.0271,-0.5513,0.5225,98,27.3438,-56.2744,7.8125,169,0.8094,0.5012,-1.601,-52.0845,27,0.9535,8288,4.0128,-21.9292
rg,1624878365892638780,1,0.0994,-0.5186,0.5427,99,-15.1978,-83.9844,9.0942,169,0.7984,0.5062,-3.5897,-52.481,27,0.9545,7602,4.0128,-19.052
rg,1624878365892658906,1,0.3369,-0.8716,0.6052,100,-85.083,-115.2344,7.6904,169,0.7774,0.5072,-6.551,-56.3188,27,0.9515,7611,4.0128,-15.0846
rg,1624878365892677904,1,0.3735,-0.968,0.5593,101,-90.9424,-107.9712,4.6997,169,0.7654,0.5072,-9.0974,-60.5972,27,0.9465,7371,4.0128,-11.2371
rg,1624878365892697067,1,0.4419,-1.1206,0.5632,102,-74.7681,-78.125,20.1416,169,0.7634,0.4812,-10.2227,-64.2103,27,0.9375,7624,4.0128,-8.0226
rg,1624878365892715768,1,0.4961,-1.1821,0.4824,103,-46.4478,-52.9785,28.3203,169,0.7664,0.4302,-10.499,-66.6276,27,0.9295,7826,4.0128,-5.5558
rg,1624878365892799144,1,0.5344,-1.1628,0.7456,104,-9.8267,-36.438,28.5645,169,0.7684,0.4132,-9.4374,-64.6537,27,0.9315,8132,4.0128,-5.1366
rg,1624878365892820493,1,0.3821,-1.0037,0.1941,105,86.0596,5.3711,43.0298,169,0.7674,0.4062,-8.2549,-61.8299,27,0.9265,7856,4.0128,-4.4779
rg,1624878365892840305,1,0.2773,-0.6228,0.1545,106,87.4023,1.77,-1.0986,169,0.7694,0.4002,-8.8597,-58.832,28,0.9255,8481,4.0128,-4.5066
rg,1624878365892858061,1,0.0994,-0.4031,0.0376,107,112.4878,16.1743,-23.3765,169,0.7714,0.4002,-8.9759,-55.2953,28,0.9245,7938,4.0128,-5.5858
rg,1624878365892877540,1,-0.0366,-0.009,0.011,108,96.1914,37.7197,-15.2588,169,0.7724,0.4052,-6.3559,-51.0266,28,0.9235,8059,4.0128,-7.1196
rg,1624878365892932124,1,0.0176,-0.0151,0.2878,109,-8.2397,45.4102,23.0103,169,0.7734,0.4162,-4.463,-49.5771,28,0.9245,8124,4.0128,-8.127
rg,1624878365892958453,1,0.3157,-0.7263,0.8518,110,-83.9233,36.377,41.5039,169,0.7754,0.4232,-2.6338,-54.4459,28,0.9265,8073,4.0128,-7.9667
rg,1624878365892976913,1,0.4321,-1.1089,0.9211,111,-136.9629,34.6069,42.8467,169,0.7774,0.4332,-1.0034,-59.7338,28,0.9305,8261,4.0128,-8.1876
rg,1624878365892998225,1,0.4153,-1.5845,0.873,112,-65.3076,53.5889,9.3384,169,0.7794,0.4462,-0.1181,-62.3667,28,0.9375,10834,4.0128,-9.8758
rg,1624878365893018407,1,0.144,-1.3804,0.8972,113,27.9541,67.5049,-2.3193,169,0.7804,0.4552,0.8758,-61.0402,28,0.9435,7763,4.0128,-12.3036
rg,1624878365893037274,1,0.0686,-1.0022,0.73,114,87.0972,33.6304,5.249,169,0.7844,0.4712,1.5793,-57.2919,27,0.9515,9079,4.0128,-13.3544
rg,1624878365893058456,1,0.0647,-0.8723,0.594,115,93.0176,11.8408,5.3711,169,0.7944,0.4832,1.477,-53.7866,27,0.9565,7877,4.0128,-13.1313
rg,1624878365893078379,1,0.0337,-0.6946,0.4238,116,76.1108,-10.9253,5.3711,169,0.8044,0.4942,1.2297,-50.9163,27,0.9615,7958,4.0128,-12.6627
rg,1624878365893096728,1,-0.0195,-0.5598,0.4978,117,35.2173,-26.8555,1.6479,169,0.8084,0.5012,0.6066,-49.3834,28,0.9635,8942,4.0128,-11.7915
rg,1624878365893115374,1,0.0852,-0.5991,0.6167,118,-47.3022,-81.604,3.7842,169,0.7994,0.5052,-1.5989,-51.0769,28,0.9645,8335,4.0128,-9.1764
rg,1624878365893134908,1,0.2341,-0.8228,0.7041,119,-92.1021,-109.1309,6.4697,169,0.7784,0.5072,-4.8028,-55.828,28,0.9565,8652,4.0128,-5.1191
rg,1624878365893156534,1,0.408,-1.0645,0.6536,120,-111.2671,-116.8213,6.897,169,0.7674,0.5012,-7.52,-60.8026,28,0.9475,8240,4.0128,-0.9448
rg,1624878365893176031,1,0.5627,-1.2234,0.5579,121,-77.3315,-90.5151,27.5269,169,0.7654,0.4512,-8.7819,-64.587,28,0.9335,8542,4.0128,2.854
rg,1624878365893194047,1,0.6216,-1.1577,0.4788,122,-20.5688,-51.0864,38.8184,169,0.7674,0.4082,-8.9077,-65.8933,28,0.9255,8576,4.0128,5.4081
rg,1624878365893214284,1,0.6228,-1.0801,0.7524,123,13.916,-16.5405,36.3159,169,0.7684,0.4002,-8.4055,-65.6151,28,0.9245,8235,4.0128,6.6302
rg,1624878365893232689,1,0.3906,-0.8081,0.2292,124,80.7495,12.146,34.3628,169,0.7694,0.3962,-7.6108,-62.7075,28,0.9204,8671,4.0128,6.8139
rg,1624878365893278886,1,0.2102,-0.5034,0.1423,125,63.0493,36.2549,-1.4648,169,0.7694,0.3952,-7.5433,-60.4266,28,0.9164,8439,4.0128,5.5394
rg,1624878365893306659,1,-0.0076,-0.2151,0.0273,126,64.7583,67.0166,-4.7607,169,0.7724,0.3982,-6.0012,-58.4128,28,0.9154,8500,4.0128,3.2355
rg,1624878365893325341,1,-0.0696,-0.1218,0.1079,127,33.2642,83.1299,7.8125,169,0.7734,0.4072,-2.8741,-57.5389,28,0.9154,8486,4.0128,0.9772
rg,1624878365893362243,1,0.0266,-0.3479,0.5134,128,-61.2793,63.2935,38.7573,169,0.7744,0.4172,-0.231,-59.035,28,0.9164,8400,4.0128,-0.4154
rg,1624878366374513589,1,0.1824,-1.4373,0.8704,129,-35.4614,37.6587,0.4272,169,0.7824,0.4372,0.3009,-60.4295,28,0.9385,27521,4.0128,-1.7078
rg,1624878366374550528,1,0.022,-1.0525,0.7644,130,43.335,19.7754,3.1738,169,0.7864,0.4562,0.7586,-58.4375,28,0.9465,15778,4.0128,-2.3254
rg,1624878366374570803,1,0.0188,-0.9333,0.499,131,55.481,-13.0005,1.6479,169,0.7904,0.4692,0.4655,-56.3406,28,0.9535,7945,4.0128,-1.8544
rg,1624878366374589912,1,-0.0056,-0.8684,0.4387,132,55.8472,-23.8037,2.3193,169,0.7964,0.4802,-0.3359,-54.4741,28,0.9585,7610,4.0128,-0.7363
rg,1624878366374608687,1,0.0139,-0.7075,0.4067,133,42.9077,-48.7671,-0.9155,169,0.7974,0.4872,-1.5363,-52.997,28,0.9615,7418,4.0128,0.8188
rg,1624878366374626703,1,0.1411,-0.5835,0.542,134,-18.9209,-89.8438,-1.2817,169,0.7904,0.4922,-4.0441,-53.6499,28,0.9625,8983,4.0128,3.6729
rg,1624878366374645959,1,0.2302,-0.7026,0.6123,135,-58.7158,-100.708,-5.188,169,0.7794,0.4942,-6.9121,-56.3561,28,0.9595,7676,4.0128,6.8855
rg,1624878366374665160,1,0.2939,-0.9937,0.5918,136,-95.0928,-106.8115,-6.6528,169,0.7744,0.4832,-9.6355,-60.7619,28,0.9505,7749,4.0128,10.4545
rg,1624878366374682676,1,0.4282,-1.272,0.5613,137,-84.4116,-100.1587,12.146,169,0.7714,0.4362,-11.305,-65.0307,28,0.9355,7645,4.0128,14.3507
rg,1624878366374700377,1,0.4746,-1.3472,0.5625,138,-60.0586,-97.4731,21.6064,169,0.7734,0.4002,-12.3022,-68.3271,28,0.9305,7850,4.0128,18.3801
rg,1624878366374720856,1,0.5034,-1.3066,0.4739,139,63.7207,-46.0815,37.4146,169,0.7734,0.3942,-11.9258,-66.3228,28,0.9265,7980,4.0128,20.7118
rg,1624878366374740501,1,0.6375,-0.9097,0.2659,140,122.0093,-80.0781,27.5879,169,0.7734,0.3912,-13.1562,-62.4304,28,0.9245,8065,4.0128,24.1738
rg,1624878366374757128,1,0.4365,-0.5757,0.0618,141,132.6294,-54.5044,-10.6812,169,0.7734,0.3862,-15.5431,-58.2324,28,0.9215,7877,4.0128,26.0293
rg,1624878366374773941,1,0.1074,-0.0708,-0.0203,142,152.3438,-19.104,-39.7949,169,0.7754,0.3862,-18.8585,-53.0371,28,0.9194,8103,4.0128,25.9418
rg,1624878366374842079,1,0.0283,0.1467,0.0339,143,61.4624,13.7939,5.3711,169,0.7764,0.3892,-19.1881,-48.672,28,0.9194,8387,4.0128,25.0081
rg,1624878366374864428,1,0.1406,0.0945,0.1182,144,-7.3853,13.0615,37.7197,169,0.7774,0.3892,-19.1471,-47.415,28,0.9194,7876,4.0128,25.057
rg,1624878366374883481,1,0.5374,-0.5779,0.7019,145,-122.6807,30.0903,65.7349,169,0.7794,0.3972,-16.8276,-52.2703,28,0.9225,7754,4.0128,25.7856
rg,1624878366374901200,1,0.6814,-1.2693,0.7261,146,-142.0288,63.5376,65.979,169,0.7804,0.4112,-13.1128,-57.2229,28,0.9255,7885,4.0128,23.7963
rg,1624878366374919216,1,0.6074,-1.4438,0.7222,147,-99.9146,118.5303,29.9072,169,0.7824,0.4162,-9.9641,-60.7292,28,0.9305,7795,4.0128,20.3316
rg,1624878366374960229,1,0.1113,-1.3535,0.8872,148,-29.3579,152.771,-9.8267,169,0.7834,0.4292,-7.1143,-60.8978,28,0.9355,8901,4.0128,14.7112
rg,1624878366374979615,1,-0.2197,-1.0774,0.7551,149,33.8135,109.2529,8.9722,169,0.7854,0.4372,-3.9855,-58.9528,28,0.9435,8040,4.0128,11.0701
rg,1624878366375010796,1,-0.2056,-0.9668,0.6743,150,49.0723,58.2886,16.6016,169,0.7864,0.4512,-2.9479,-56.7695,28,0.9495,8307,4.0128,11.2137
rg,1624878366375033033,1,-0.0046,-0.894,0.5757,151,49.2554,-28.5645,10.8643,169,0.7904,0.4642,-3.0986,-54.8713,28,0.9555,8517,4.0128,12.4081
rg,1624878366375051419,1,0.0981,-0.8628,0.4248,152,44.2505,-50.9033,8.1177,169,0.8024,0.4742,-4.1264,-53.5596,28,0.9605,8320,4.0128,14.2724
rg,1624878366375069639,1,0.166,-0.7556,0.4722,153,28.6255,-50.6592,3.9062,169,0.8084,0.4852,-5.4624,-52.7222,28,0.9645,8241,4.0128,16.0053
rg,1624878366375173939,1,0.1465,-0.6755,0.4983,154,13.1836,-54.4434,-0.061,169,0.8094,0.4882,-6.9518,-52.3125,27,0.9665,8554,4.0128,17.7376
rg,1624878366375208730,1,0.2029,-0.689,0.5732,155,-47.7905,-72.1436,6.0425,169,0.7944,0.4912,-8.695,-54.4658,27,0.9655,8263,4.0128,20.217
rg,1624878366375229357,1,0.3652,-0.9858,0.6316,156,-96.9849,-84.0454,10.7422,169,0.7754,0.4932,-10.5041,-58.9522,27,0.9595,8252,4.0128,23.3354
rg,1624878366375248780,1,0.426,-1.1658,0.5701,157,-90.332,-66.8945,19.104,169,0.7684,0.4782,-11.4179,-63.2644,27,0.9485,8707,4.0128,26.1413
rg,1624878366375269981,1,0.4641,-1.2134,0.4968,158,-71.7773,-51.5137,28.1372,169,0.7684,0.4302,-11.5833,-66.8648,28,0.9355,8401,4.0128,28.5911
rg,1624878366375288348,1,0.5005,-1.2197,0.6055,159,-17.9443,-26.3672,37.1704,169,0.7704,0.4012,-10.9554,-67.7528,28,0.9375,9084,4.0128,30.1388
rg,1624878366375305883,1,0.3596,-1.0488,0.23,160,88.9893,15.4419,45.2881,169,0.7714,0.3952,-9.3602,-64.5895,28,0.9335,8384,4.0128,30.3619
rg,1624878366718153743,1,-0.1042,-0.2942,0.093,161,102.1118,34.729,-9.8877,169,0.7744,0.3842,-8.0153,-60.5878,27,0.9295,26528,4.0128,29.0178
rg,1624878366718189683,1,-0.1331,-0.0837,0.1592,162,57.8003,0.1831,18.1274,169,0.7754,0.3882,-5.8368,-57.3235,27,0.9295,8977,4.0128,29.2941
rg,1624878366718210495,1,0.0063,-0.0945,0.2964,163,16.6626,-39.6118,32.5928,169,0.7774,0.3882,-6.088,-55.757,27,0.9315,7724,4.0128,31.223
rg,1624878366718230492,1,0.3279,-0.5029,0.6335,164,-70.1904,-61.3403,47.1191,169,0.7784,0.3972,-6.4707,-58.2577,27,0.9335,7725,4.0128,34.2676
rg,1624878366718248841,1,0.6589,-1.1548,0.8442,165,-98.0225,-9.3384,47.7905,169,0.7804,0.4112,-5.7099,-62.1366,27,0.9375,7633,4.0128,35.5467
rg,1624878366718266949,1,0.6748,-1.3423,0.7993,166,-82.4585,31.7383,34.0576,169,0.7804,0.4212,-4.622,-65.2631,27,0.9425,8014,4.0128,35.0096
rg,1624878366718283873,1,0.353,-1.3953,0.9397,167,-31.3721,101.4404,-4.0894,169,0.7824,0.4332,-3.3972,-65.8805,28,0.9495,8002,4.0128,31.2059
rg,1624878366718301815,1,-0.0217,-1.1792,0.8293,168,31.1279,104.3701,1.8311,169,0.7854,0.4442,-1.4144,-64.031,28,0.9555,7986,4.0128,27.4245
rg,1624878366718345938,1,-0.0718,-1.0769,0.728,169,50.9033,75.8667,11.2305,169,0.7894,0.4572,0.5373,-61.6461,28,0.9615,8044,4.0128,24.9214
rg,1624878366718366602,1,-0.0356,-0.8896,0.5149,170,62.0117,9.8267,11.2305,169,0.7984,0.4682,1.1769,-59.0908,28,0.9665,8038,4.0128,24.8024
rg,1624878366718385395,1,0.0491,-0.7131,0.4272,171,46.0205,-25.8179,10.0098,169,0.8064,0.4812,0.7956,-57.2209,28,0.9695,7848,4.0128,25.8883
rg,1624878366718403319,1,0.0889,-0.634,0.46,172,31.189,-31.311,8.4229,169,0.8094,0.4882,0.051,-55.6268,28,0.9715,8556,4.0128,27.1181
rg,1624878366718421149,1,0.1641,-0.6289,0.5813,173,-33.6914,-52.6123,6.7139,169,0.8004,0.4942,-1.319,-56.6553,28,0.9735,7973,4.0128,29.0207
rg,1624878366718438036,1,0.3494,-1.0981,0.6067,174,-97.5342,-79.2847,7.8125,169,0.7704,0.4972,-3.2795,-61.0215,28,0.9605,7751,4.0128,32.0103
rg,1624878366718456607,1,0.4431,-1.2886,0.5413,175,-79.4067,-62.9883,24.4141,169,0.7674,0.4592,-4.1137,-64.5884,28,0.9475,10781,4.0128,34.731
rg,1624878366718474975,1,0.4644,-1.314,0.5247,176,-28.1372,-45.4102,28.1372,169,0.7684,0.4202,-4.3958,-65.9952,28,0.9385,7750,4.0128,36.8704
rg,1624878366718492213,1,0.5215,-1.2458,0.9094,177,23.6206,-28.2593,29.48,169,0.7704,0.4082,-4.3554,-64.7007,28,0.9395,7965,4.0128,38.3478
rg,1624878366718509044,1,0.343,-0.9653,0.1816,178,124.6948,-30.0903,38.269,169,0.7714,0.4022,-4.139,-60.3846,27,0.9365,7745,4.0128,40.1391
rg,1624878366718525801,1,0.1572,-0.5283,0.1113,179,116.394,-39.7339,16.7847,169,0.7724,0.3962,-5.2408,-56.2429,27,0.9325,7892,4.0128,40.2225
rg,1624878366718542614,1,0.0029,-0.3257,0.0427,180,136.6577,7.8735,-23.9868,169,0.7724,0.3952,-5.6684,-51.7112,27,0.9295,8817,4.0128,39.5009
rg,1624878366718559463,1,-0.1111,0.0481,0.0166,181,116.6382,12.0239,-6.5918,169,0.7734,0.4002,-3.693,-47.005,27,0.9285,10726,4.0128,39.4366
rg,1624878366718575924,1,-0.0911,0.1521,0.0796,182,30.5176,-5.127,33.8135,169,0.7764,0.4082,-1.8536,-43.9526,28,0.9285,8002,4.0128,40.4371
rg,1624878366718593106,1,0.2527,-0.3706,0.6946,183,-129.5166,-27.832,66.9556,169,0.7774,0.4152,-1.311,-48.5917,28,0.9305,8237,4.0128,43.0928
rg,1624878366718610696,1,0.593,-1.283,1.053,184,-175.5371,32.4707,65.3687,169,0.7804,0.4232,0.8248,-55.6588,28,0.9345,8519,4.0128,43.7079
rg,1624878366718627935,1,0.5457,-1.5574,0.7739,185,-129.5166,62.2559,44.6167,169,0.7814,0.4342,2.9233,-61.1494,28,0.9415,8427,4.0128,42.5428
rg,1624878366718656727,1,0.2981,-1.5815,1.0544,186,-48.9502,102.2949,-8.9111,169,0.7834,0.4422,4.038,-63.1314,27,0.9485,8656,4.0128,38.766
rg,1624878366718675557,1,-0.0264,-1.2104,0.9036,187,33.1421,93.689,-2.3804,169,0.7864,0.4512,5.5544,-61.6862,27,0.9565,8808,4.0128,35.4121
rg,1624878366718693018,1,0.0635,-0.9209,0.645,188,58.5327,41.687,14.5264,169,0.7904,0.4632,6.5272,-59.1937,27,0.9635,8604,4.0128,34.2568
rg,1624878366718709534,1,0.1667,-0.8079,0.4373,189,56.5186,26.6724,14.2212,169,0.8024,0.4722,6.6908,-57.3748,27,0.9685,8910,4.0128,33.9401
rg,1624878366718725921,1,0.175,-0.7498,0.3796,190,38.5132,15.7471,10.0098,169,0.8124,0.4772,6.6495,-56.0871,27,0.9725,8560,4.0128,33.5938
rg,1624878366718742529,1,0.0784,-0.6331,0.4858,191,6.1646,22.0337,-2.0142,169,0.8184,0.4792,6.5905,-55.7761,27,0.9745,8291,4.0128,32.8276
rg,1624878366718759712,1,-0.0122,-0.697,0.5703,192,-50.7812,-11.5356,3.7842,169,0.8124,0.4812,6.2351,-57.5353,27,0.9765,8122,4.0128,33.3273
rg,1624878367080077576,1,0.3513,-1.1523,0.5427,193,-107.2388,-66.4673,14.9536,169,0.7594,0.4732,4.5839,-61.8311,28,0.9625,23668,4.0128,35.936
rg,1624878367080119922,1,0.4058,-1.2341,0.4827,194,-62.7441,-40.5884,31.9824,169,0.7594,0.4472,4.1597,-64.4262,28,0.9495,8461,4.0128,37.9631
rg,1624878367080140752,1,0.4082,-1.2458,0.4106,195,-36.9873,-31.9824,36.8652,169,0.7634,0.4072,4.0668,-65.591,28,0.9495,7613,4.0128,39.7673
rg,1624878367080160472,1,0.3662,-1.1975,0.5588,196,40.2222,-1.2817,41.4429,169,0.7644,0.3952,4.7804,-63.8905,28,0.9475,7795,4.0128,40.5076
rg,1624878367080179414,1,0.427,-1.0249,0.3062,197,94.8486,-43.457,35.5225,169,0.7644,0.3862,4.2152,-60.2694,28,0.9465,7605,4.0128,42.6495
rg,1624878367080197559,1,0.2373,-0.8267,0.1597,198,99.9756,-14.5874,7.5073,169,0.7664,0.3772,3.4044,-56.9314,28,0.9455,8448,4.0128,43.2291
rg,1624878367080215242,1,-0.0542,-0.3611,0.0232,199,143.7988,17.7002,-13.2446,169,0.7674,0.3762,3.6007,-52.3412,28,0.9435,7931,4.0128,42.2884
rg,1624878367080233332,1,-0.1731,0.0195,0.0583,200,119.0796,35.2173,0.4272,169,0.7684,0.3782,6.6298,-46.9546,27,0.9415,7883,4.0128,41.3726
rg,1624878367080251534,1,-0.1812,0.093,0.0928,201,81.604,22.7661,17.4561,169,0.7694,0.3822,9.5846,-42.3633,27,0.9415,8133,4.0128,41.4607
rg,1624878367080294695,1,-0.0786,-0.0659,0.2502,202,-44.4946,-17.4561,45.166,169,0.7704,0.3892,10.6236,-42.7845,27,0.9415,7712,4.0128,43.463
rg,1624878367080318543,1,0.2947,-0.8889,1.0698,203,-164.6729,-38.0859,49.8657,169,0.7714,0.3972,10.1248,-48.7558,27,0.9445,8273,4.0172,46.0508
rg,1624878367080337781,1,0.3892,-1.2913,1.0796,204,-160.0952,-15.0146,44.9219,172,0.7724,0.4162,10.5801,-53.5624,27,0.9475,8495,4.0172,46.413
rg,1624878367080355557,1,0.333,-1.6111,0.7676,205,-56.4575,25.5127,13.6719,172,0.7754,0.4272,10.7927,-56.332,27,0.9605,7861,4.0172,45.8197
rg,1624878367080386608,1,0.0061,-1.1011,0.8384,206,47.0581,36.9263,-4.6997,172,0.7784,0.4472,11.0329,-54.5513,27,0.9675,16139,4.0172,44.4923
rg,1624878367080406846,1,0.0989,-0.8545,0.6028,207,61.5234,0.3662,4.6387,172,0.7874,0.4552,10.5456,-52.0773,28,0.9745,9012,4.0172,44.5772
rg,1624878367080424973,1,0.1638,-0.8042,0.4263,208,44.7388,-10.6201,-2.3193,172,0.8014,0.4672,9.4101,-50.6284,28,0.9785,8238,4.0172,44.7731
rg,1624878367080442434,1,0.1658,-0.7781,0.4302,209,35.0952,-6.2866,-4.5166,172,0.8124,0.4702,8.3403,-49.6153,28,0.9815,7706,4.0172,44.7773
rg,1624878367080461505,1,0.0925,-0.7109,0.5186,210,9.2163,-1.4038,-15.9302,172,0.8184,0.4752,7.2566,-49.4571,28,0.9845,7957,4.0172,44.379
rg,1624878367080479336,1,0.0872,-0.7026,0.5713,211,-36.9873,-32.2266,-8.667,172,0.8164,0.4782,5.6678,-50.8908,28,0.9845,8024,4.0172,45.154
rg,1624878367080497760,1,0.2417,-0.8479,0.6536,212,-73.6084,-56.1523,3.7231,172,0.7914,0.4822,3.4366,-54.6177,28,0.9815,8238,4.0172,47.4723
rg,1624878367080516257,1,0.3752,-1.0518,0.5776,213,-99.5483,-63.9648,4.8218,172,0.7644,0.4822,1.3987,-58.7321,28,0.9745,7949,4.0172,49.732
rg,1624878367080534107,1,0.3906,-1.1443,0.5215,214,-89.7217,-47.5464,10.6201,172,0.7584,0.4712,0.1188,-62.532,28,0.9615,8463,4.0172,51.6144
rg,1624878367080551975,1,0.3564,-1.1995,0.3992,215,-57.4951,-31.4941,17.4561,172,0.7594,0.4252,-0.4258,-65.1636,28,0.9485,8482,4.0172,53.064
rg,1624878367080570213,1,0.3625,-1.2336,0.6777,216,-35.2783,-32.7148,18.9209,172,0.7604,0.3982,-0.8181,-66.4239,28,0.9505,8265,4.0172,54.5704
rg,1624878367080587674,1,0.2793,-1.1763,0.1523,217,85.8154,-22.8271,48.4619,172,0.7624,0.3902,0.0636,-63.6118,28,0.9465,8546,4.0172,56.207
rg,1624878367080606375,1,0.3376,-0.9258,0.217,218,95.7642,-41.3818,19.8975,172,0.7644,0.3802,-0.768,-60.2758,28,0.9455,8594,4.0172,58.0162
rg,1624878367080623891,1,0.0381,-0.4475,0.0476,219,125.5493,-30.7007,-7.5073,172,0.7654,0.3782,-2.1054,-55.2275,28,0.9415,8242,4.0172,58.4022
rg,1624878367080667700,1,-0.064,-0.1992,0.0161,220,145.874,-6.958,-16.2354,172,0.7664,0.3792,-2.0315,-50.4794,28,0.9405,8632,4.0172,58.3074
rg,1624878367080701880,1,-0.1133,0.0654,0.0884,221,83.374,-3.6621,12.8784,172,0.7684,0.3852,-0.1184,-45.5852,28,0.9405,8472,4.0172,58.7775
rg,1624878367080721230,1,0.0649,-0.1069,0.3738,222,-42.9688,-37.2314,42.9688,172,0.7694,0.3942,-0.2857,-46.1923,27,0.9415,8229,4.0172,61.041
rg,1624878367080740338,1,0.3787,-0.8613,0.9226,223,-104.3701,-37.4146,48.5229,172,0.7714,0.4002,-0.0326,-51.501,27,0.9445,8321,4.0172,63.2496
rg,1624878367080758262,1,0.4692,-1.2087,0.929,224,-134.0942,0.9766,49.1943,172,0.7724,0.4072,0.9172,-56.866,27,0.9485,8112,4.0172,64.3933
rg,1624878367413531240,1,0.0049,-1.1375,0.8254,225,30.1514,50.9644,0,172,0.7764,0.4392,1.9975,-55.5803,28,0.9665,24284,4.0172,62.6968
rg,1624878367413565531,1,0.1289,-0.9614,0.624,226,45.5933,28.6255,11.1694,172,0.7834,0.4512,2.3923,-53.6907,28,0.9745,8751,4.0172,62.5434
rg,1624878367413585714,1,0.1604,-0.9163,0.509,227,48.584,5.0049,7.3242,172,0.7994,0.4562,2.309,-52.023,28,0.9785,8327,4.0172,62.5408
rg,1624878367413605211,1,0.0928,-0.8315,0.4243,228,36.377,5.249,-5.3101,172,0.8144,0.4632,1.9586,-51.0002,28,0.9815,8340,4.0172,62.2235
rg,1624878367413623505,1,-0.0254,-0.7078,0.4917,229,18.0664,-0.9766,-13.6719,172,0.8254,0.4642,1.5003,-50.4436,28,0.9845,7868,4.0172,61.9031
rg,1624878367413642410,1,-0.0518,-0.6643,0.5459,230,-3.1128,-17.334,-14.2212,172,0.8294,0.4672,0.7004,-50.5583,28,0.9855,8013,4.0172,62.079
rg,1624878367413660574,1,0.1257,-0.7734,0.5605,231,-67.8711,-80.8716,1.1597,172,0.8144,0.4692,-1.5643,-53.4123,28,0.9845,7919,4.0172,64.6654
rg,1624878367413680831,1,0.3757,-1.041,0.5933,232,-106.0791,-96.1304,2.9297,172,0.7824,0.4732,-4.2324,-58.0595,28,0.9775,7979,4.0172,67.9453
rg,1624878367413700272,1,0.3572,-1.0933,0.4795,233,-104.0039,-87.1582,-0.4883,172,0.7604,0.4702,-6.4408,-62.7963,28,0.9675,8585,4.0172,71.024
rg,1624878367413719844,1,0.439,-1.207,0.481,234,-73.0591,-63.1714,16.3574,172,0.7564,0.4602,-7.4077,-66.2211,28,0.9565,7916,4.0172,73.6404
rg,1624878367413748895,1,0.4209,-1.2048,0.4141,235,-25.9399,-28.0762,28.9307,172,0.7594,0.4192,-7.2085,-67.618,28,0.9505,8244,4.0172,75.1632
rg,1624878367413770967,1,0.4587,-1.1978,0.7693,236,-4.1504,-17.8223,33.8135,172,0.7604,0.4002,-5.8593,-65.4727,28,0.9545,8360,4.0172,75.2394
rg,1624878367413789723,1,0.3062,-1.1702,0.2273,237,93.3838,-2.0752,46.4478,172,0.7624,0.3922,-4.5743,-62.3285,28,0.9535,8784,4.0172,76.1708
rg,1624878367413881248,1,0.0168,-0.6135,0.0466,238,104.6143,-26.5503,0.7935,172,0.7634,0.3822,-5.8743,-57.6172,28,0.9525,11393,4.0172,76.4695
rg,1624878367413908485,1,-0.1201,-0.0503,0.0073,239,159.0576,-15.7471,-28.8086,172,0.7644,0.3822,-5.0169,-51.6289,28,0.9505,11079,4.0172,76.4763
rg,1624878367413928223,1,-0.1511,0.125,0.0513,240,135.498,-16.2964,-15.8081,172,0.7654,0.3902,-4.2984,-44.9234,28,0.9515,7821,4.0172,76.5282
rg,1624878367413946758,1,-0.0842,0.1895,0.0603,241,18.4937,-42.7856,29.48,172,0.7684,0.3982,-3.9022,-42.4747,28,0.9515,8022,4.0172,78.4476
rg,1624878367413966662,1,0.2524,-0.4426,0.6838,242,-163.6353,-87.0361,54.5654,172,0.7684,0.4062,-5.2804,-48.9535,28,0.9535,7878,4.0172,82.4744
rg,1624878367413984364,1,0.6096,-0.9873,1.2969,243,-208.374,-77.6367,57.9224,172,0.7704,0.4142,-5.8348,-57.8371,28,0.9565,8071,4.0172,86.4164
rg,1624878367414001954,1,0.5911,-1.6504,0.5859,244,-115.7227,5.7373,43.8843,172,0.7734,0.4232,-4.7046,-62.9725,28,0.9635,8502,4.0172,87.1499
rg,1624878367414018785,1,0.427,-1.5764,0.9363,245,-32.1655,62.561,-3.479,172,0.7754,0.4272,-4.0526,-63.9248,28,0.9695,8478,4.0172,84.8287
rg,1624878367414035912,1,0.1287,-1.104,0.7573,246,49.4995,55.2368,0.4272,172,0.7794,0.4322,-3.0912,-61.4817,28,0.9775,8451,4.0172,82.841
rg,1624878367414052817,1,0.1394,-0.8203,0.5051,247,60.3027,38.3911,10.1929,172,0.7884,0.4372,-2.3894,-58.9996,28,0.9835,8506,4.0172,82.1193
rg,1624878367414071056,1,0.1455,-0.7847,0.4404,248,47.4243,14.4653,8.9111,172,0.8024,0.4462,-2.0523,-57.1477,28,0.9875,8418,4.0172,81.8119
rg,1624878367414089090,1,0.0769,-0.7849,0.4141,249,18.8599,7.1411,-3.2959,172,0.8184,0.4492,-2.1224,-56.5696,28,0.9925,10008,4.0172,81.5061
rg,1624878367414107347,1,-0.0149,-0.7947,0.4641,250,1.9531,-6.3477,-6.897,172,0.8254,0.4522,-2.3699,-56.6061,28,0.9935,8669,4.0172,81.5718
rg,1624878367414126622,1,0.0566,-0.8098,0.5254,251,-19.5312,-50.5371,-2.0142,172,0.8274,0.4532,-3.5671,-57.4754,28,0.9945,8766,4.0172,83.2297
rg,1624878367414145490,1,0.3098,-0.9307,0.5957,252,-54.9316,-86.5479,16.7847,172,0.8044,0.4552,-5.2534,-59.908,28,0.9925,8727,4.0172,86.5557
rg,1624878367414165950,1,0.4866,-1.0854,0.4878,253,-77.7588,-93.8721,24.6582,172,0.7694,0.4542,-6.8077,-63.6183,28,0.9835,9353,4.0172,90.3895
rg,1624878367414183467,1,0.521,-1.2095,0.4451,254,-65.3687,-57.0679,25.5737,172,0.7614,0.4452,-7.424,-66.7592,28,0.9715,9981,4.0172,92.9496
rg,1624878367414202446,1,0.5078,-1.2327,0.4387,255,-41.5649,-26.3062,31.5552,172,0.7604,0.4242,-7.167,-68.7535,28,0.9565,8504,4.0172,94.4371
rg,1624878367414221036,1,0.5347,-1.2114,0.8462,256,14.4043,17.5781,46.3867,172,0.7634,0.3962,-5.6957,-67.6586,28,0.9595,8351,4.0172,94.3949
rg,1624878367766342317,1,-0.0254,-0.4436,0.0867,257,139.3433,28.1982,-6.8359,172,0.7654,0.3662,-5.126,-62.4228,28,0.9525,25122,4.0172,93.3126
rg,1624878367766395958,1,-0.1165,-0.2292,0.0369,258,148.1323,25.8179,-6.897,172,0.7684,0.3672,-2.4487,-56.9413,28,0.9515,8538,4.0172,92.5664
rg,1624878367766416455,1,-0.1802,0.0903,0.0923,259,93.8721,16.2964,14.3433,172,0.7694,0.3722,0.2242,-51.8976,28,0.9495,7928,4.0172,92.3985
rg,1624878367766435860,1,-0.0366,0.0354,0.282,260,-31.9824,-37.2314,54.5654,172,0.7704,0.3832,1.297,-51.2007,27,0.9505,7813,4.0172,94.9297
rg,1624878367766454228,1,0.384,-0.7449,0.9448,261,-114.0137,-58.2886,64.209,172,0.7734,0.3902,1.298,-57.3191,27,0.9515,8368,4.0172,98.6178
rg,1624878367766472114,1,0.5791,-1.1953,1.0667,262,-180.2979,-39.0625,62.5,172,0.7754,0.4002,1.8978,-64.0891,27,0.9545,8318,4.0172,101.2497
rg,1624878367766489556,1,0.5833,-1.7429,0.8291,263,-109.6802,30.7617,25.6958,172,0.7784,0.4072,2.5978,-68.4985,27,0.9595,7895,4.0172,100.5577
rg,1624878367766507036,1,0.1084,-1.553,0.9587,264,-19.5312,83.374,-6.7749,172,0.7824,0.4122,3.3037,-69.0276,28,0.9675,8461,4.0172,97.364
rg,1624878367766524644,1,0.0093,-1.2991,0.8384,265,24.0479,74.1577,2.1973,172,0.7854,0.4192,4.3224,-67.7662,28,0.9765,8126,4.0172,94.6554
rg,1624878367766541624,1,0.0862,-0.9314,0.5903,266,52.8564,23.4375,9.8267,172,0.7924,0.4272,4.7056,-65.2968,28,0.9835,8178,4.0172,93.9705
rg,1624878367766558732,1,0.0679,-0.8203,0.3655,267,39.6118,1.0986,-5.188,172,0.8054,0.4352,4.1799,-63.7386,28,0.9895,8038,4.0172,93.8346
rg,1624878367766577211,1,-0.04,-0.7563,0.3992,268,1.4038,-24.4751,-11.1694,172,0.8154,0.4442,3.2898,-63.5623,28,0.9935,15176,4.0172,94.5228
rg,1624878367766595727,1,-0.0364,-0.7124,0.4719,269,-23.1934,-45.4102,-8.4839,172,0.8034,0.4472,2.1595,-64.1236,28,0.9945,7801,4.0172,96.0256
rg,1624878367766613503,1,0.2175,-0.8687,0.5537,270,-92.4072,-101.2573,4.7607,172,0.7784,0.4482,0.138,-67.4664,28,0.9895,7908,4.0172,99.8243
rg,1624878367766634074,1,0.282,-1.0527,0.4106,271,-111.3892,-104.3701,3.7842,172,0.7644,0.4432,-1.7025,-72.0022,28,0.9745,10871,4.0172,103.8126
rg,1624878367766651720,1,0.4304,-1.1931,0.5044,272,-60.9741,-71.2891,29.3579,172,0.7634,0.4292,-2.0471,-74.3404,28,0.9615,7830,4.0172,106.8867
rg,1624878367766669255,1,0.5059,-1.2583,0.5068,273,-33.4473,-53.2227,49.3774,172,0.7664,0.3922,-1.5061,-75.0555,28,0.9665,8107,4.0172,109.4349
rg,1624878367766685993,1,0.5007,-1.2991,0.2739,274,40.7104,6.4087,69.0918,172,0.7664,0.3832,0.4699,-73.5321,28,0.9645,7853,4.0172,109.9175
rg,1624878367766703194,1,0.5144,-1.1248,0.2678,275,83.4961,-1.0986,37.8418,172,0.7674,0.3732,0.9522,-70.2887,28,0.9635,7994,4.0172,110.3939
rg,1624878367766720655,1,0.1565,-0.5828,0.0242,276,136.9019,9.5215,-22.3999,172,0.7684,0.3672,-0.3554,-65.4675,28,0.9615,9043,4.0172,109.6675
rg,1624878367766782832,1,0.0051,-0.269,0.0007,277,150.5127,16.2964,-41.626,172,0.7684,0.3662,-1.5704,-60.3641,28,0.9605,8070,4.0172,108.3382
rg,1624878367766803681,1,-0.1475,0.1174,0.03,278,126.8921,26.7334,-23.2544,172,0.7704,0.3742,-0.059,-54.2886,28,0.9595,8572,4.0172,107.0079
rg,1624878367766823475,1,-0.0542,0.1294,0.0503,279,-11.5356,8.7891,42.0532,172,0.7734,0.3862,2.3242,-52.9671,28,0.9595,8811,4.0172,107.728
rg,1624878367766841787,1,0.3367,-0.6711,0.9001,280,-104.126,-3.1738,56.4575,172,0.7744,0.3932,3.4024,-59.4335,28,0.9625,8193,4.0172,109.4198
rg,1624878367766860229,1,0.4998,-1.1819,1.2163,281,-207.6416,15.564,52.124,172,0.7754,0.4012,4.7733,-67.0988,28,0.9645,8681,4.0172,109.8795
rg,1624878367766879560,1,0.2366,-1.8508,0.7466,282,-106.3232,45.8984,10.8643,172,0.7794,0.4112,5.365,-71.5023,28,0.9685,8730,4.0172,108.3217
rg,1624878367766896687,1,-0.071,-1.4924,0.8127,283,6.958,36.1328,-8.606,172,0.7814,0.4192,5.3836,-70.95,28,0.9755,8720,4.0172,106.8736
rg,1624878367766915444,1,0.0229,-0.8831,0.6919,284,69.519,-12.4512,13.0005,172,0.7824,0.4272,5.4426,-67.3527,28,0.9825,8815,4.0172,107.5887
rg,1624878367766934163,1,0.1624,-0.7869,0.5591,285,66.04,-38.269,21.7285,172,0.7864,0.4372,4.3703,-64.8264,28,0.9895,8320,4.0172,109.8508
rg,1624878367766952439,1,0.3525,-0.8911,0.4062,286,37.1704,-54.8706,9.3384,172,0.7984,0.4452,2.8227,-63.2203,28,0.9935,8236,4.0172,111.9761
rg,1624878367766970603,1,0.3042,-0.9473,0.2808,287,29.541,-20.6909,-5.4321,172,0.8114,0.4532,1.4819,-62.392,28,0.9975,8561,4.0172,112.5885
rg,1624878367766988860,1,0.1152,-0.8062,0.4023,288,26.3672,11.5356,-8.606,172,0.8174,0.4562,1.0476,-61.3809,28,0.9995,8324,4.0172,112.0146
rg,1624878368029184760,1,0.2375,-0.9102,0.5991,289,-70.9839,-53.5889,17.6392,172,0.7774,0.4662,0.1746,-63.9945,28,0.9915,25011,4.0172,114.2572
rg,1624878368029244549,1,0.3403,-1.1331,0.5122,290,-84.4116,-51.2085,26.2451,172,0.7624,0.4642,-0.3099,-67.4189,28,0.9815,8415,4.0172,116.5705
rg,1624878368029266824,1,0.4634,-1.3132,0.4297,291,-60.791,-25.7568,40.8325,172,0.7584,0.4282,0.1282,-70.0042,28,0.9665,8374,4.0172,118.1341
rg,1624878368029286543,1,0.4099,-1.3113,0.395,292,-41.3208,-7.8125,39.917,172,0.7614,0.3842,0.8757,-71.757,28,0.9645,7921,4.0172,118.9555
rg,1624878368029306189,1,0.2529,-1.1804,0.5723,293,65.6128,39.4897,41.9922,172,0.7614,0.3772,2.5149,-68.853,28,0.9635,7774,4.0172,118.0191
rg,1624878368029325094,1,0.3506,-0.8823,0.2725,294,111.3281,-28.8086,34.3628,172,0.7644,0.3682,2.4256,-64.4748,28,0.9625,8118,4.0172,119.5762
rg,1624878368029343906,1,0.1995,-0.6675,0.1692,295,98.877,-15.9912,-5.5542,172,0.7654,0.3622,1.2168,-60.9286,28,0.9605,8025,4.0172,120.0018
rg,1624878368030878861,1,-0.0981,-0.2712,0.062,296,125.7935,9.4604,-38.6963,172,0.7654,0.3592,0.8024,-56.5131,28,0.9585,8353,4.0172,118.8958
rg,1624878368030906635,1,-0.1763,0.0071,0.0552,297,83.252,17.395,0.1221,172,0.7684,0.3642,3.3636,-52.5926,28,0.9565,8385,4.0172,118.4199
rg,1624878368030932002,1,0.001,-0.0632,0.23,298,29.1138,-0.1831,28.6255,172,0.7694,0.3682,4.1695,-52.8156,28,0.9555,8018,4.0172,120.3175
rg,1624878368030956018,1,0.3298,-0.7891,0.803,299,-111.0229,-36.6211,49.7437,172,0.7734,0.3902,4.2227,-58.5732,27,0.9575,8909,4.0172,122.6418
rg,1624878368030977441,1,0.4641,-1.5234,0.8022,300,-135.1929,22.0947,40.5884,172,0.7754,0.4042,5.3911,-62.5879,27,0.9615,11255,4.0172,121.7367
rg,1624878368031000568,1,0.3169,-1.6667,0.833,301,-46.2646,54.8706,9.8267,172,0.7794,0.4092,6.118,-64.6359,27,0.9665,7798,4.0172,119.9395
rg,1624878368031019991,1,0.0574,-1.1792,0.738,302,31.189,55.7861,3.3569,172,0.7814,0.4152,6.8729,-63.3328,27,0.9735,7903,4.0172,118.0025
rg,1624878368031039730,1,0.0632,-0.9663,0.6379,303,46.6919,36.438,15.3198,172,0.7834,0.4232,7.5713,-61.4135,28,0.9805,7830,4.0172,116.9957
rg,1624878368031069281,1,0.1621,-0.8086,0.439,304,38.3911,1.0376,16.8457,172,0.7864,0.4342,7.4906,-59.8334,28,0.9875,7983,4.0172,117.2804
rg,1624878368031088594,1,0.1096,-0.8728,0.4197,305,7.2021,-4.2114,-3.2959,172,0.7864,0.4432,6.7454,-59.701,28,0.9935,8202,4.0172,117.3369
rg,1624878368031107517,1,-0.0496,-0.9238,0.4927,306,-29.48,-26.001,-9.7656,172,0.7834,0.4512,5.7346,-60.8758,28,0.9965,8426,4.0172,118.0455
rg,1624878368031126237,1,-0.0479,-0.9653,0.5266,307,-52.6733,-51.9409,-5.3101,172,0.7784,0.4532,4.2538,-62.8964,28,0.9915,8199,4.0172,119.7853
rg,1624878368031150419,1,0.1016,-1.012,0.4343,308,-70.4346,-103.5156,-9.7656,172,0.7754,0.4492,1.7476,-65.6611,28,0.9805,8827,4.0172,123.352
rg,1624878368031168195,1,0.28,-1.0637,0.4348,309,-34.1797,-110.3516,3.7842,172,0.7734,0.4202,-0.4705,-67.0481,28,0.9705,8443,4.0172,127.4621
rg,1624878368031185563,1,0.5447,-1.1321,0.4861,310,8.1787,-108.0933,35.8276,172,0.7744,0.4002,-1.7329,-66.7854,28,0.9675,8448,4.0172,131.9957
rg,1624878368031207949,1,0.6187,-1.157,0.4824,311,31.311,-86.1206,39.1235,172,0.7734,0.3992,-2.5371,-65.0205,28,0.9635,8519,4.0172,134.6415
rg,1624878368031226910,1,0.572,-1.0203,0.2217,312,70.0684,-45.2881,16.9067,172,0.7744,0.4002,-3.724,-62.7543,28,0.9615,8209,4.0172,136.5645
rg,1624878368031244963,1,0.2737,-0.4766,0.0281,313,104.248,4.4556,-17.334,172,0.7754,0.4022,-5.2545,-59.3415,28,0.9585,8092,4.0172,136.0915
rg,1624878368031262535,1,0.0479,-0.0398,-0.0173,314,106.5674,29.48,-23.0103,172,0.7764,0.4092,-6.1954,-57.1291,28,0.9555,8220,4.0172,133.3815
rg,1624878368031280514,1,-0.0261,0.0137,0.0693,315,23.9868,104.6143,-10.1318,172,0.7794,0.4132,-3.3055,-53.8771,28,0.9555,8070,4.0172,129.4997
rg,1624878368031297716,1,-0.0176,-0.4822,0.603,316,-118.2251,125.3662,23.9868,172,0.7844,0.4212,0.4521,-57.8964,28,0.9585,8271,4.0172,125.8392
rg,1624878368032104169,1,-0.0701,-1.4688,1.0349,317,-150.7568,71.8994,24.353,172,0.7904,0.4312,2.7567,-63.834,28,0.9635,10784,4.0172,123.7948
rg,1624878368032214230,1,-0.0044,-1.7959,0.7266,318,-30.5176,-23.0713,-4.6997,165,0.7964,0.4392,2.0897,-65.1718,28,0.9725,8749,4.0161,124.5428
rg,1624878368032248725,1,0.2805,-1.2007,0.6545,319,67.5659,-23.3154,14.8315,165,0.7984,0.4502,1.6743,-62.2778,28,0.9815,8936,4.0161,125.6321
rg,1624878368032271722,1,0.2922,-0.7957,0.3787,320,90.332,-14.1602,21.8506,165,0.8004,0.4542,1.0615,-59.0558,28,0.9875,8575,4.0161,126.1508
rg,1624878368397602614,1,0.0452,-0.7424,0.4436,321,-100.0366,-43.5791,2.6855,165,0.7794,0.4592,0.1586,-63.0223,28,0.9745,24925,4.0161,127.7345
rg,1624878368397711563,1,0.0605,-0.9922,0.4563,322,-112.1826,-85.7544,-10.0098,165,0.7734,0.4472,-1.7526,-67.6186,28,0.9455,9113,4.0161,130.6913
rg,1624878368397734801,1,0.6753,-1.3284,0.6311,323,-26.8555,-125.6714,64.0869,165,0.7734,0.4142,-2.1078,-68.759,28,0.9415,10141,4.0161,136.3099
rg,1624878368397755447,1,0.8433,-1.4351,0.7224,324,10.3149,-90.8813,75.6226,165,0.7734,0.4102,-1.5966,-68.2868,28,0.9395,7543,4.0161,140.7807
rg,1624878368397828252,1,0.9028,-1.4524,0.3193,325,75.2563,-31.8604,66.1011,165,0.7744,0.4052,-0.7869,-65.6293,28,0.9385,7766,4.0161,142.9606
rg,1624878368397869691,1,0.4248,-1.0227,0.1519,326,119.2627,55.0537,-7.8125,165,0.7744,0.3992,-0.9286,-61.401,28,0.9355,7638,4.0161,140.8237
rg,1624878368397894207,1,0.1831,-0.655,0.0845,327,142.1509,68.6035,-31.8604,165,0.7754,0.3962,-1.1867,-56.4541,28,0.9315,7472,4.0161,137.8038
rg,1624878368397940479,1,-0.1807,-0.0896,-0.0479,328,161.6821,99.3042,-47.4854,165,0.7754,0.3992,1.5985,-50.9972,28,0.9295,7723,4.0161,133.6045
rg,1624878368397969234,1,-0.2573,0.1453,-0.0378,329,100.4028,81.4819,1.2207,165,0.7774,0.4042,5.7485,-46.6725,28,0.9285,7993,4.0161,131.2701
rg,1624878368397997749,1,-0.2375,0.1414,-0.0471,330,36.6211,60.4858,30.3345,165,0.7794,0.4102,10.3147,-44.8231,28,0.9305,7814,4.0161,130.459
rg,1624878368398027375,1,-0.1326,-0.2747,0.2776,331,-153.4424,5.188,49.3164,165,0.7834,0.4162,12.239,-50.6944,28,0.9335,8007,4.0161,131.6349
rg,1624878368398047132,1,0.2478,-1.3655,1.4023,332,-237.2437,-24.292,36.499,165,0.7854,0.4232,12.137,-59.518,28,0.9385,7622,4.0161,133.4127
rg,1624878368398065593,1,0.1667,-1.7432,0.7698,333,-164.7339,-11.1694,27.5269,165,0.7884,0.4262,12.2404,-66.1356,28,0.9465,7865,4.0161,134.3136
rg,1624878368398085812,1,0.3237,-1.8989,0.885,334,-29.9072,-9.3994,3.7842,165,0.7914,0.4312,11.4143,-67.1847,28,0.9545,7740,4.0161,134.7454
rg,1624878368398120234,1,0.2468,-1.5474,0.8386,335,26.7334,6.5308,-4.6997,165,0.7934,0.4362,11.0369,-63.8673,28,0.9635,7892,4.0161,134.3482
rg,1624878368398141620,1,0.2896,-0.9844,0.5767,336,94.6045,11.6577,17.5781,165,0.7954,0.4432,10.9028,-59.9344,28,0.9715,7748,4.0161,134.2614
rg,1624878368398172468,1,0.2363,-0.7996,0.3152,337,75.5005,10.9863,3.6621,165,0.8074,0.4502,10.2533,-57.3004,28,0.9765,7869,4.0161,133.869
rg,1624878368398197206,1,0.1936,-0.7644,0.2603,338,57.251,13.7329,-0.5493,165,0.8194,0.4542,9.6339,-55.6269,28,0.9785,7771,4.0161,133.2806
rg,1624878368398215037,1,0.0798,-0.7361,0.3215,339,25.6958,20.0195,-0.6714,165,0.8254,0.4572,9.5255,-55.5019,28,0.9825,10514,4.0161,132.7877
rg,1624878368398232035,1,-0.061,-0.7004,0.4421,340,-14.2822,-9.6436,2.8076,165,0.8124,0.4602,9.1912,-56.0857,28,0.9825,7970,4.0161,133.1631
rg,1624878368398250014,1,0.168,-0.8511,0.5356,341,-91.3086,-76.7212,24.0479,165,0.7814,0.4652,7.6488,-59.3223,28,0.9795,8250,4.0161,136.3148
rg,1624878368398276029,1,0.2761,-1.1079,0.4192,342,-116.0889,-103.5767,14.4653,165,0.7624,0.4622,5.403,-63.8753,28,0.9705,8260,4.0161,140.2386
rg,1624878368398298193,1,0.356,-1.2239,0.4846,343,-96.3745,-100.647,22.7051,165,0.7614,0.4512,3.7944,-67.5562,28,0.9615,8119,4.0161,144.301
rg,1624878368398317376,1,0.5237,-1.3489,0.3894,344,-26.4282,-65.4297,60.1807,165,0.7634,0.4022,4.1241,-68.604,28,0.9555,9341,4.0161,147.6213
rg,1624878368398348853,1,0.6262,-1.3345,0.5769,345,44.6777,-7.3853,74.8291,165,0.7644,0.3892,5.7282,-66.6137,28,0.9555,8048,4.0161,149.0157
rg,1624878368398365703,1,0.6206,-1.1919,0.3096,346,106.0791,-24.4751,42.6025,165,0.7654,0.3812,5.6316,-62.5231,28,0.9545,9828,4.0161,150.5572
rg,1624878368398396532,1,0.3982,-0.9241,0.1028,347,112.9761,-3.8452,-1.8311,165,0.7664,0.3742,3.6795,-57.8277,27,0.9515,7990,4.0161,149.2278
rg,1624878368398416437,1,-0.011,-0.292,-0.0396,348,172.1191,32.8979,-56.1523,165,0.7674,0.3712,2.5614,-52.5382,27,0.9485,8172,4.0161,146.7728
rg,1624878368398434602,1,-0.1958,0.1245,0.0447,349,135.8643,94.1162,-23.6206,165,0.7684,0.3772,6.176,-46.3136,27,0.9475,9316,4.0161,143.45
rg,1624878368398453803,1,-0.2161,0.1267,0.0442,350,-6.958,82.3975,44.3726,165,0.7704,0.3892,11.6969,-45.6879,27,0.9475,8531,4.0161,142.423
rg,1624878368398472245,1,-0.1843,-0.1375,0.1597,351,-101.7456,49.2554,55.1758,165,0.7724,0.3942,13.1792,-52.6193,27,0.9495,8362,4.0161,143.5147
rg,1624878368398490261,1,0.0808,-1.1499,1.3594,352,-231.8115,-18.1885,38.8794,165,0.7744,0.4042,13.4856,-60.9928,27,0.9525,8752,4.0161,145.1699
rg,1624878368789953467,1,0.1741,-1.1545,0.7793,353,43.335,-14.0991,8.4839,165,0.7804,0.4192,12.6966,-58.8917,27,0.9665,25235,4.0161,145.8787
rg,1624878368789982390,1,0.2563,-0.7913,0.5769,354,49.3164,-35.3394,7.6294,165,0.7824,0.4242,11.1601,-56.433,27,0.9765,8529,4.0161,147.2875
rg,1624878368790002609,1,0.2874,-0.8213,0.4988,355,30.3345,-38.5742,-1.4038,165,0.7904,0.4372,9.2269,-55.3646,27,0.9875,8567,4.0161,148.4723
rg,1624878368790023736,1,0.1836,-0.978,0.3308,356,15.3809,-1.8921,-7.2021,165,0.8014,0.4462,8.2082,-55.3771,28,0.9905,10696,4.0161,148.2699
rg,1624878368790042382,1,0.0193,-0.8489,0.4141,357,6.5918,0.1831,-11.9019,165,0.8014,0.4522,7.4527,-55.4834,28,0.9915,7435,4.0161,147.9438
rg,1624878368790060528,1,-0.033,-0.7593,0.4141,358,-11.9019,-19.2871,-6.5308,165,0.7884,0.4512,6.5979,-56.1209,28,0.9935,7646,4.0161,148.4121
rg,1624878368790078155,1,0.1816,-0.8484,0.511,359,-83.9844,-67.0776,9.8267,165,0.7694,0.4512,4.8449,-59.3205,28,0.9855,7514,4.0161,150.9099
rg,1624878368790095820,1,0.2334,-1.0752,0.4343,360,-99.4263,-69.7021,6.8359,165,0.7644,0.4482,3.3997,-63.4048,27,0.9715,7619,4.0161,153.6149
rg,1624878368790113280,1,0.4822,-1.332,0.4854,361,-59.6313,-74.9512,44.4336,165,0.7654,0.4152,2.8727,-65.829,27,0.9595,10366,4.0161,157.0893
rg,1624878368790131000,1,0.6736,-1.4741,0.9331,362,-24.7803,-59.4482,55.1147,165,0.7644,0.3982,3.007,-66.3461,27,0.9615,8163,4.0161,160.1739
rg,1624878368790148091,1,0.7439,-1.5833,0.3438,363,73.3032,-22.0337,76.416,165,0.7664,0.3892,4.3503,-63.6833,27,0.9585,7901,4.0161,162.2111
rg,1624878368790164774,1,0.4656,-1.2434,0.1274,364,127.6855,32.959,9.7656,165,0.7664,0.3812,4.3764,-59.3987,28,0.9575,8468,4.0161,161.1388
rg,1624878368790181957,1,0.2087,-0.8735,0.0552,365,172.9736,39.978,-32.8369,165,0.7684,0.3782,4.0198,-53.9539,28,0.9545,7962,4.0161,158.9717
rg,1624878368790198733,1,-0.1628,-0.1516,-0.0449,366,220.3979,67.0166,-62.9883,165,0.7684,0.3792,5.3399,-46.7202,28,0.9535,8126,4.0161,155.3125
rg,1624878368790215971,1,-0.2498,0.1875,0.0371,367,167.0532,63.7817,-12.146,165,0.7694,0.3882,8.7149,-39.1814,28,0.9525,9084,4.0161,153.439
rg,1624878368790250282,1,-0.2092,0.198,-0.0432,368,23.4375,23.0103,47.1191,165,0.7714,0.3962,12.3914,-37.0697,28,0.9545,7979,4.0161,154.5543
rg,1624878368790268853,1,-0.1724,0.0278,-0.0745,369,-73.0591,3.9673,55.0537,165,0.7744,0.3972,16.0852,-39.8654,28,0.9555,7788,4.0161,156.1143
rg,1624878368790286629,1,0.1633,-0.8142,1.3328,370,-255.0049,-38.6963,57.8613,165,0.7754,0.4042,15.7688,-48.8732,28,0.9585,7990,4.0161,159.1147
rg,1624878368790304016,1,0.3032,-1.416,1.6899,371,-259.2163,-12.3901,56.5186,165,0.7784,0.4132,16.7715,-55.9781,28,0.9625,7850,4.0161,160.2636
rg,1624878368790379025,1,0.2283,-1.9468,0.5825,372,-87.6465,-30.8228,38.9404,165,0.7804,0.4202,16.5613,-59.5959,28,0.9665,7843,4.0161,162.0418
rg,1624878368790398874,1,0.1936,-1.4851,0.8892,373,0.1831,-13.1836,-11.1694,165,0.7824,0.4252,15.024,-59.4909,28,0.9745,8552,4.0161,162.2874
rg,1624878368790416927,1,0.25,-0.9402,0.7131,374,61.5234,-29.1748,2.3804,165,0.7844,0.4302,13.4619,-56.4986,28,0.9805,8283,4.0161,163.4039
rg,1624878368790434518,1,0.2976,-0.8376,0.5884,375,51.0864,-29.7241,0.7935,165,0.7894,0.4372,11.6432,-54.3994,28,0.9875,8192,4.0161,164.3651
rg,1624878368790451478,1,0.2847,-0.8601,0.3689,376,25.4517,-15.8081,-11.7188,165,0.8004,0.4452,9.8202,-53.8028,28,0.9925,8328,4.0161,164.506
rg,1624878368790468476,1,0.1597,-0.8772,0.3076,377,9.2163,12.0239,-11.6577,165,0.8084,0.4492,8.9776,-54.1925,28,0.9955,8284,4.0161,163.7232
rg,1624878368790485215,1,-0.0232,-0.7422,0.4036,378,2.9907,16.5405,-10.1318,165,0.8084,0.4492,8.7544,-55.0083,28,0.9975,8297,4.0161,163.3549
rg,1624878368790502361,1,-0.0393,-0.6621,0.3936,379,-43.0298,-16.7236,8.3008,165,0.7844,0.4482,8.4248,-56.7715,28,0.9965,8729,4.0161,164.0824
rg,1624878368790519359,1,0.1157,-0.8503,0.5007,380,-111.7554,-62.7441,10.6201,165,0.7654,0.4482,6.9102,-61.0052,28,0.9855,8627,4.0161,166.4788
rg,1624878368790535875,1,0.2419,-1.1504,0.5032,381,-107.4829,-85.2661,21.7896,165,0.7644,0.4502,5.4613,-65.1172,28,0.9715,8125,4.0161,169.9321
rg,1624878368790552021,1,0.5405,-1.385,0.5359,382,-82.7026,-94.2383,37.3535,165,0.7644,0.4132,4.7778,-66.9957,28,0.9685,8329,4.0161,-185.9275
rg,1624878368790568149,1,0.6924,-1.4763,0.884,383,-18.3716,-63.5986,60.4858,165,0.7644,0.4022,6.3252,-65.8175,27,0.9685,9562,4.0161,-183.7214
rg,1624878368790584221,1,0.8062,-1.5303,0.3726,384,61.9507,-19.104,89.4165,165,0.7664,0.3912,7.9776,-63.4277,27,0.9675,8368,4.0161,-181.5606
rg,1624878369077733197,1,-0.2217,-0.2656,-0.0474,385,181.0303,80.9326,-56.7017,165,0.7684,0.3902,8.8144,-57.83,27,0.9655,25432,4.0161,-185.6103
rg,1624878369077777951,1,-0.3008,0.0928,-0.0305,386,178.3447,75.9888,-44.0674,165,0.7694,0.3952,11.9241,-52.0611,28,0.9645,8413,4.0161,-187.8777
rg,1624878369077798375,1,-0.291,0.1631,-0.0471,387,104.7363,38.5132,15.625,165,0.7724,0.4052,15.516,-47.6162,28,0.9665,8765,4.0161,-188.4964
rg,1624878369077817724,1,-0.1697,0.0115,-0.0522,388,-69.7021,-15.1978,48.9502,165,0.7744,0.4092,18.8238,-50.2858,28,0.9675,7967,4.0161,-186.8354
rg,1624878369077836926,1,0.2544,-1.0005,1.5281,389,-241.1499,-73.2422,42.5415,165,0.7774,0.4202,17.5303,-58.068,28,0.9705,7682,4.0161,-182.9996
rg,1624878369077855794,1,0.3665,-1.6045,1.5564,390,-231.5674,-45.0439,38.5742,165,0.7784,0.4292,17.0543,-66.0468,28,0.9745,7671,4.0161,-180.3589
rg,1624878369077874069,1,0.4014,-2.1626,0.6895,391,-43.335,-45.5933,26.3672,165,0.7804,0.4382,16.2713,-67.3821,28,0.9825,7796,4.0161,-178.2377
rg,1624878369077892271,1,0.3035,-1.1948,0.6272,392,144.9585,6.7139,5.7983,165,0.7864,0.4512,15.4951,-61.4371,28,0.9935,13830,4.0161,-178.3878
rg,1624878369077910195,1,0.2598,-0.8616,0.4028,393,163.6963,0.2441,7.3853,165,0.8004,0.4572,14.6,-55.6403,28,0.9975,7698,4.0161,-178.5007
rg,1624878369077930063,1,0.1174,-0.4836,0.177,394,124.6338,20.0195,2.5635,165,0.8134,0.4612,14.1285,-51.3796,28,0.9995,7742,4.0161,-179.2863
rg,1624878369077948283,1,-0.1106,-0.3884,0.2737,395,49.8657,52.4292,-3.0518,165,0.8224,0.4612,15.3116,-49.9622,28,1.0015,7664,4.0161,-181.0784
rg,1624878369077967151,1,-0.2229,-0.4326,0.4451,396,6.2866,41.5039,0.3052,165,0.8214,0.4632,16.5582,-49.8362,28,1.0025,7878,4.0161,-182.3307
rg,1624878369077984982,1,-0.2014,-0.7817,0.5764,397,-93.0786,-69.1528,15.1978,165,0.7904,0.4672,15.1251,-52.9658,28,0.9985,8955,4.0161,-179.722
rg,1624878369078001962,1,0.2378,-1.0889,0.6536,398,-150.5127,-162.6587,16.0522,165,0.7614,0.4652,11.0111,-57.8681,28,0.9885,8084,4.0161,-173.8755
rg,1624878369078020404,1,0.5154,-1.3506,0.5513,399,-94.4214,-160.7666,20.2637,165,0.7564,0.4592,7.3206,-61.0302,28,0.9765,8849,4.0161,-167.8936
rg,1624878369078071194,1,0.6379,-1.3743,0.4651,400,-42.1753,-128.7842,43.6401,165,0.7574,0.4352,5.2712,-62.4779,28,0.9685,8483,4.0161,-162.5344
rg,1624878369078093469,1,0.8745,-1.2478,0.613,401,6.5308,-42.0532,69.397,165,0.7594,0.4072,5.5663,-61.9885,28,0.9735,8405,4.0161,-159.7592
rg,1624878369078125354,1,0.5945,-1.1133,0.2754,402,67.749,43.2739,48.4619,165,0.7604,0.4012,6.8624,-59.8321,28,0.9725,8656,4.0161,-160.4144
rg,1624878369078144148,1,0.4087,-0.9854,0.26,403,55.9692,59.021,-3.0518,165,0.7624,0.3922,6.8763,-58.4043,28,0.9715,8401,4.0161,-162.6046
rg,1624878369078161683,1,0.1458,-0.8152,0.127,404,75.4395,85.022,-34.8511,165,0.7634,0.3912,6.8737,-56.6902,28,0.9715,7989,4.0161,-166.3638
rg,1624878369078180089,1,-0.2253,-0.3372,0.0901,405,113.5254,125.2441,-44.3726,165,0.7654,0.3952,9.2702,-53.4788,28,0.9685,8123,4.0161,-171.576
rg,1624878369078198179,1,-0.3535,-0.0483,0.1611,406,72.1436,110.1074,0.1831,165,0.7664,0.4012,13.8501,-50.6982,28,0.9695,7991,4.0161,-174.971
rg,1624878369078220584,1,-0.3494,-0.0637,0.1965,407,17.4561,72.4487,22.3389,165,0.7684,0.4082,18.0337,-49.8144,28,0.9685,8130,4.0161,-176.5245
rg,1624878369078240267,1,-0.2495,-0.5815,0.5735,408,-124.2065,-28.4424,26.9775,165,0.7694,0.4162,17.6403,-54.1231,28,0.9725,10753,4.0161,-174.8231
rg,1624878369078258839,1,0.0591,-1.3411,1.0193,409,-161.8652,-78.064,33.1421,165,0.7734,0.4252,16.2903,-59.4816,28,0.9755,8784,4.0161,-171.2796
rg,1624878369078276170,1,0.271,-1.6438,0.6594,410,-54.1992,-60.3638,42.3584,165,0.7754,0.4292,15.6168,-61.1391,28,0.9805,8327,4.0161,-168.3106
rg,1624878369078294094,1,0.3687,-1.3298,0.7488,411,15.625,-36.0107,8.606,165,0.7754,0.4362,14.1068,-60.1063,28,0.9885,8959,4.0161,-166.8404
rg,1624878369078312054,1,0.28,-1.0142,0.5542,412,58.8989,-27.0996,-8.4839,165,0.7784,0.4412,12.2036,-57.6209,28,0.9955,8586,4.0161,-166.101
rg,1624878369078329756,1,0.2324,-0.9009,0.4475,413,60.791,-15.8691,-5.127,165,0.7914,0.4482,10.7194,-55.3366,28,1.0015,8542,4.0161,-165.745
rg,1624878369078347680,1,0.1084,-0.7881,0.3391,414,41.2598,11.0474,0.4272,165,0.8054,0.4532,10.2948,-54.1967,28,1.0045,8628,4.0161,-166.1943
rg,1624878369078365659,1,0.0271,-0.7319,0.4146,415,11.7188,0.5493,-0.061,165,0.8104,0.4532,9.8288,-53.9723,28,1.0065,8779,4.0161,-166.2593
rg,1624878369078382954,1,0.0439,-0.6665,0.501,416,-51.6968,-41.687,4.6997,165,0.7984,0.4582,8.5238,-55.748,28,1.0075,9090,4.0161,-164.7514
rg,1624878369430410929,1,0.3562,-1.1863,0.3828,417,-105.896,-77.7588,15.564,165,0.7614,0.4512,7.0052,-59.0368,28,0.9705,24582,4.0161,-161.5758
rg,1624878369430484920,1,0.6799,-1.2964,0.6912,418,-13.3667,-17.7002,56.5186,165,0.7624,0.4212,7.3879,-59.4409,28,0.9735,10083,4.0161,-159.8126
rg,1624878369430506085,1,0.6226,-1.3757,0.373,419,41.626,29.9072,65.1245,165,0.7644,0.4142,9.0681,-58.2811,28,0.9725,7575,4.0161,-159.5806
rg,1624878369430525749,1,0.5823,-1.375,0.427,420,48.1567,33.8745,48.645,165,0.7644,0.4102,10.0794,-56.4414,28,0.9715,7503,4.0161,-161.3051
rg,1624878369430544450,1,0.1243,-1.085,0.1504,421,109.436,66.6504,-8.0566,165,0.7654,0.4092,10.7286,-53.496,28,0.9705,7592,4.0161,-163.9062
rg,1624878369430562652,1,-0.2502,-0.4097,-0.0022,422,165.8325,84.1064,-37.9028,165,0.7654,0.4062,12.5228,-48.785,28,0.9705,8687,4.0161,-167.7301
rg,1624878369430582261,1,-0.3247,0.0815,-0.002,423,180.3589,78.125,-29.9072,165,0.7674,0.4112,16.1575,-42.3233,28,0.9685,7868,4.0161,-169.3171
rg,1624878369430600759,1,-0.2917,0.1838,0.0032,424,117.3096,25.6348,25.6348,165,0.7684,0.4152,19.6409,-36.6127,28,0.9675,7952,4.0161,-168.7937
rg,1624878369430678175,1,-0.1616,0.0559,-0.054,425,-56.2134,-34.729,59.3872,165,0.7714,0.4212,22.2237,-37.645,28,0.9695,7868,4.0161,-165.8291
rg,1624878369430702913,1,-0.0884,-0.2888,0.2273,426,-167.5415,-65.918,58.8989,165,0.7744,0.4272,20.5671,-42.7635,28,0.9705,7818,4.0161,-161.9545
rg,1624878369430721763,1,0.4661,-1.5427,1.6802,427,-265.2588,-55.603,51.9409,165,0.7764,0.4322,19.4057,-52.1716,28,0.9745,7922,4.0161,-158.6198
rg,1624878369430742297,1,0.3594,-2.1804,0.6094,428,-77.8809,-31.5552,30.5176,165,0.7814,0.4402,18.6085,-55.5447,28,0.9815,7700,4.0161,-157.0485
rg,1624878369430761203,1,0.3376,-1.9976,0.8186,429,-16.7236,-11.9019,6.3477,165,0.7844,0.4422,17.6252,-56.368,28,0.9925,7822,4.0161,-156.586
rg,1624878369430778571,1,0.1843,-0.8955,0.5217,430,131.0425,-0.6104,7.8735,165,0.7904,0.4502,16.8099,-51.2188,28,0.9995,12587,4.0161,-156.4631
rg,1624878369430797383,1,0.1741,-0.7131,0.343,431,120.3003,-3.54,8.1787,165,0.8054,0.4572,15.8849,-47.0782,28,1.0035,7765,4.0161,-156.3886
rg,1624878369430817548,1,0.1074,-0.585,0.1787,432,67.4438,-2.4414,-3.2959,144,0.8184,0.4612,14.7964,-45.4014,28,1.0055,7799,4.0227,-156.7031
rg,1624878369430835360,1,-0.0293,-0.616,0.2864,433,15.625,13.2446,-0.9155,144,0.8294,0.4642,14.6846,-45.6632,28,1.0075,7939,4.0227,-157.3221
rg,1624878369430856099,1,-0.0615,-0.686,0.4377,434,-10.1929,1.6479,2.2583,144,0.8314,0.4652,14.395,-46.5323,28,1.0095,7881,4.0227,-157.4239
rg,1624878369430877522,1,0.05,-0.8389,0.5317,435,-72.876,-65.1245,17.8833,144,0.8034,0.4702,12.5227,-49.2955,28,1.0065,8980,4.0227,-155.0356
rg,1624878369430895372,1,0.417,-1.0552,0.5107,436,-119.6899,-106.3232,26.123,144,0.7684,0.4732,9.5225,-53.8348,28,0.9955,8347,4.0227,-151.0561
rg,1624878369430912796,1,0.4841,-1.2009,0.4048,437,-93.1396,-78.4302,10.9253,144,0.7554,0.4752,6.9973,-57.7676,28,0.9845,8450,4.0227,-148.2544
rg,1624878369430931442,1,0.5354,-1.2202,0.4036,438,-59.8755,-48.0957,23.3154,144,0.7554,0.4532,5.626,-60.5189,28,0.9745,8360,4.0227,-146.1601
rg,1624878369430950976,1,0.6394,-1.2144,0.6057,439,-26.3672,28.8696,49.3774,144,0.7574,0.4202,6.7402,-61.6726,28,0.9795,7967,4.0227,-146.2246
rg,1624878369430970548,1,0.353,-1.2869,0.3452,440,37.5977,90.8813,59.3872,144,0.7584,0.4132,9.7194,-60.9679,28,0.9775,8480,4.0227,-148.3725
rg,1624878369430988028,1,0.3855,-1.3372,0.4468,441,50.354,62.1338,51.4526,144,0.7604,0.4052,11.0251,-59.339,28,0.9765,8030,4.0227,-150.4775
rg,1624878369431037207,1,-0.0364,-1.0557,0.1643,442,111.084,78.8574,-15.0146,144,0.7604,0.4022,11.8563,-56.3625,28,0.9755,8221,4.0227,-153.7031
rg,1624878369431058427,1,-0.2612,-0.4304,0.0259,443,164.1846,74.646,-41.3818,144,0.7614,0.4042,13.0733,-51.5448,28,0.9735,8093,4.0227,-157.3369
rg,1624878369431076665,1,-0.2971,-0.0012,0.0405,444,168.8843,59.9976,-40.8936,144,0.7634,0.4072,15.4628,-46.0277,28,0.9725,8206,4.0227,-159.2781
rg,1624878369431094700,1,-0.2756,0.0913,0.0486,445,94.1162,17.8833,-8.1787,144,0.7654,0.4102,17.8503,-41.6759,28,0.9715,8103,4.0227,-159.7398
rg,1624878369431113772,1,-0.1768,-0.1692,0.1912,446,-64.3311,-35.9497,19.4092,144,0.7674,0.4162,17.9788,-43.7299,28,0.9725,8300,4.0227,-158.1199
rg,1624878369431148268,1,0.1182,-1.064,1.2124,447,-186.9507,-68.8477,18.9819,144,0.7684,0.4262,15.8182,-50.2874,28,0.9755,8090,4.0227,-155.3913
rg,1624878369431167414,1,0.1528,-1.4556,0.9832,448,-164.4287,-52.002,22.3389,144,0.7684,0.4372,14.4956,-56.4536,28,0.9795,8343,4.0227,-153.1291
rg,1624878369780508337,1,0.2227,-1.0759,0.6252,449,96.2524,-34.1187,-9.8877,144,0.7854,0.4562,12.4425,-52.5316,28,1.0035,23809,4.0227,-152.2873
rg,1624878369780562738,1,0.1978,-0.6677,0.2395,450,78.6743,-23.0103,-1.709,144,0.8054,0.4642,10.7745,-49.9283,28,1.0075,15245,4.0227,-151.7694
rg,1624878369780594271,1,0.1602,-0.6211,0.2241,451,56.9458,-3.418,-2.0752,144,0.8184,0.4662,9.7105,-48.4146,28,1.0095,7522,4.0227,-151.8779
rg,1624878369780624582,1,0.0166,-0.6147,0.3555,452,10.5591,19.5923,2.1362,144,0.8264,0.4662,9.8608,-48.5351,28,1.0105,9143,4.0227,-152.4945
rg,1624878369780652875,1,-0.0681,-0.6541,0.4319,453,-48.7671,-17.395,14.0991,144,0.8214,0.4682,9.6487,-50.6354,28,1.0125,7597,4.0227,-151.6363
rg,1624878369780680983,1,0.1104,-0.7466,0.5979,454,-91.3696,-54.8096,28.9307,144,0.7924,0.4702,8.2774,-54.0173,28,1.0095,7758,4.0227,-149.1591
rg,1624878369780708961,1,0.4006,-1.0525,0.5732,455,-144.3481,-87.1582,31.189,144,0.7624,0.4732,6.4069,-59.5746,28,0.9995,8091,4.0227,-145.5247
rg,1624878369780736384,1,0.4058,-1.1731,0.3403,456,-125.7935,-68.6035,26.3062,144,0.7544,0.4692,5.1221,-64.8152,28,0.9875,7835,4.0227,-142.6124
rg,1624878369780763418,1,0.4702,-1.1729,0.3777,457,-90.0879,-42.5415,42.1143,144,0.7534,0.4322,5.003,-68.4718,28,0.9775,7915,4.0227,-140.3723
rg,1624878369780791081,1,0.5864,-1.1814,0.7417,458,-57.5562,22.7051,66.4673,144,0.7564,0.3992,6.7455,-70.3607,28,0.9815,8048,4.0227,-140.247
rg,1624878369780818578,1,0.4749,-1.4771,0.4878,459,10.437,51.3306,78.4912,144,0.7574,0.3922,9.4645,-70.1072,28,0.9805,8186,4.0227,-141.1474
rg,1624878369780846352,1,0.5823,-1.6257,0.5698,460,13.4888,26.6113,66.5894,144,0.7584,0.3882,11.2476,-69.5935,28,0.9795,7982,4.0227,-141.2497
rg,1624878369780874275,1,0.124,-1.4878,0.2664,461,83.252,73.1812,-8.606,144,0.7594,0.3902,11.3755,-67.2395,28,0.9785,7935,4.0227,-144.2489
rg,1624878369780900772,1,-0.2158,-0.6741,-0.0088,462,195.4346,56.8848,-42.8467,144,0.7604,0.3922,11.1185,-60.866,28,0.9775,8201,4.0227,-147.2471
rg,1624878369780928972,1,-0.2644,-0.2878,-0.0308,463,218.75,39.7339,-46.3867,144,0.7624,0.3962,12.6606,-52.8414,28,0.9765,8007,4.0227,-149.5126
rg,1624878369780960246,1,-0.2854,0.1665,-0.0203,464,184.082,10.437,-19.8975,144,0.7644,0.4012,14.4418,-45.0788,28,0.9765,8768,4.0227,-150.087
rg,1624878369780989354,1,-0.2207,0.2085,-0.1536,465,36.9873,-17.9443,38.5132,144,0.7664,0.4032,16.8465,-42.8788,28,0.9775,7781,4.0227,-148.3132
rg,1624878369781017832,1,-0.0967,-0.2571,-0.0959,466,-84.0454,-30.0293,56.2744,144,0.7684,0.4072,17.7801,-52.0174,28,0.9795,8599,4.0227,-145.7808
rg,1624878369781046495,1,0.2639,-0.8521,1.2898,467,-300.4761,-69.0308,62.2559,144,0.7704,0.4122,17.3885,-62.0395,28,0.9825,7822,4.0227,-141.628
rg,1624878369781075399,1,0.2173,-2.1064,0.7349,468,-201.8433,15.2588,45.9595,144,0.7724,0.4192,18.4165,-70.3442,28,0.9885,8035,4.0227,-141.481
rg,1624878369781102878,1,0.354,-2.2705,0.8298,469,-17.2729,-8.728,-2.1362,144,0.7744,0.4272,17.1953,-70.8994,28,0.9955,9252,4.0227,-141.1519
rg,1624878369781131356,1,0.2498,-1.7522,0.7869,470,60.3638,32.2876,-8.5449,144,0.7794,0.4342,16.6754,-65.7415,28,1.0035,8390,4.0227,-142.4459
rg,1624878369781158519,1,0.1345,-0.9417,0.4404,471,162.5366,35.5225,0.4272,144,0.7934,0.4422,16.4089,-59.5984,28,1.0085,8058,4.0227,-143.7962
rg,1624878369781185331,1,-0.0479,-0.5251,0.1763,472,120.1782,34.6069,-8.4839,144,0.8084,0.4482,16.4205,-55.6776,28,1.0115,8143,4.0227,-145.3563
rg,1624878369781212198,1,-0.1746,-0.4409,0.2424,473,44.6167,9.5215,-9.6436,144,0.8124,0.4522,16.4295,-54.2563,28,1.0145,8421,4.0227,-145.968
rg,1624878369781239121,1,-0.2107,-0.4216,0.2607,474,-5.4932,-17.2119,-5.3711,144,0.7944,0.4602,16.1159,-54.4884,28,1.0125,8552,4.0227,-145.5533
rg,1624878369781266636,1,-0.1533,-0.6926,0.4519,475,-121.2158,-84.8389,-5.4932,144,0.7674,0.4662,13.8556,-58.6791,28,0.9985,8123,4.0227,-142.7583
rg,1624878369781293966,1,-0.0496,-1.0469,0.4968,476,-150.0854,-140.4419,-8.2397,144,0.7604,0.4652,10.4471,-63.8671,28,0.9815,8412,4.0227,-137.9184
rg,1624878369781321574,1,0.4209,-1.4514,0.5764,477,-123.9014,-166.1987,12.7563,144,0.7584,0.4282,8.1538,-66.3891,28,0.9705,8628,4.0227,-130.5174
rg,1624878369781377216,1,0.7073,-1.5977,0.6777,478,-48.2788,-178.2227,76.2939,144,0.7594,0.4092,7.0303,-67.2905,28,0.9725,8297,4.0227,-122.7029
rg,1624878369781411767,1,0.9197,-1.6616,0.1584,479,96.1914,-105.3467,92.5293,144,0.7604,0.4042,7.3262,-63.3585,28,0.9745,8417,4.0227,-117.4187
rg,1624878369781440930,1,0.8174,-1.1934,0.1267,480,142.6392,-37.7808,12.3901,144,0.7624,0.4002,5.5398,-58.1527,28,0.9725,8729,4.0227,-116.0059
rg,1624878370134947561,1,-0.1536,0.0586,-0.0076,481,121.0938,109.8633,-30.8838,144,0.7654,0.4102,9.1213,-53.5506,27,0.9685,27249,4.0227,-120.2427
rg,1624878370135068159,1,-0.322,-0.0168,0.0439,482,30.1514,133.9111,10.1929,144,0.7674,0.4162,15.1178,-56.097,28,0.9695,8514,4.0227,-123.6708
rg,1624878370135136337,1,-0.3372,-0.3025,0.3562,483,-144.2871,88.9282,38.3301,144,0.7684,0.4242,19.0611,-62.0269,28,0.9715,8018,4.0227,-125.9465
rg,1624878370135167241,1,-0.2146,-1.2483,1.4116,484,-235.1685,-7.3242,26.4282,144,0.7714,0.4272,19.4798,-70.3013,28,0.9745,7424,4.0227,-124.9023
rg,1624878370135187961,1,-0.157,-1.5759,1.0054,485,-194.3359,-43.335,28.8086,144,0.7734,0.4332,19.5478,-76.7878,28,0.9785,7663,4.0227,-122.5823
rg,1624878370135209032,1,0.1609,-1.8577,0.7759,486,-55.1147,-72.1436,41.748,144,0.7754,0.4392,19.619,-77.4391,28,0.9845,7571,4.0227,-119.0639
rg,1624878370135316909,1,0.3408,-1.4248,0.7776,487,42.6636,-58.5938,25.1465,144,0.7754,0.4442,18.8637,-74.198,28,0.9915,7821,4.0227,-116.2111
rg,1624878370135341684,1,0.3723,-1.2092,0.6392,488,79.4678,-68.1152,16.5405,144,0.7794,0.4522,17.3922,-69.6272,28,0.9985,8110,4.0227,-113.166
rg,1624878370135362256,1,0.3467,-0.8733,0.3301,489,90.7593,-59.4482,0.9155,144,0.7914,0.4612,15.1359,-65.3471,28,1.0045,7962,4.0227,-110.9123
rg,1624878370135385291,1,0.2395,-0.6589,0.168,490,63.2324,-10.3149,1.6479,144,0.8004,0.4662,13.7387,-63.1119,28,1.0075,8058,4.0227,-110.6299
rg,1624878370135406066,1,0.1665,-0.5627,0.189,491,35.6445,14.7095,6.5918,144,0.8014,0.4732,13.1299,-62.1007,28,1.0105,7731,4.0227,-111.1322
rg,1624878370135426434,1,-0.0613,-0.5278,0.4043,492,-60.5469,33.0811,7.9346,144,0.7824,0.4772,13.6989,-64.3652,28,1.0075,8046,4.0227,-112.1059
rg,1624878370135445228,1,-0.0652,-0.874,0.5632,493,-144.8975,-34.729,16.1133,144,0.7664,0.4872,13.3586,-69.4702,28,0.9935,7921,4.0227,-110.4436
rg,1624878370135464041,1,0.0613,-1.0486,0.5081,494,-150.3296,-82.3364,20.3247,144,0.7644,0.4672,12.4878,-74.4578,28,0.9755,8135,4.0227,-106.8962
rg,1624878370135482983,1,0.4358,-1.3252,0.481,495,-96.1304,-118.1641,48.7061,144,0.7634,0.4362,12.1016,-77.003,28,0.9735,8353,4.0227,-101.662
rg,1624878370135501759,1,0.7957,-1.4851,0.5066,496,7.9346,-67.627,89.5996,144,0.7634,0.4232,13.5172,-75.6738,28,0.9735,8017,4.0227,-98.0834
rg,1624878370135522164,1,0.9141,-1.4768,0.3193,497,42.1143,-46.3257,91.3086,144,0.7634,0.4092,14.9414,-73.3611,28,0.9725,7731,4.0227,-95.2995
rg,1624878370135563493,1,0.5842,-1.217,0.2422,498,65.1245,81.543,8.3618,144,0.7644,0.4022,14.7595,-71.7535,28,0.9705,7983,4.0227,-98.4934
rg,1624878370135589083,1,-0.0154,-0.8081,0.21,499,84.3506,149.8413,-35.3394,144,0.7654,0.4012,14.8187,-70.144,28,0.9685,11177,4.0227,-104.8697
rg,1624878370135609025,1,-0.4028,-0.4329,-0.0203,500,126.2207,131.8359,-37.5366,144,0.7654,0.4042,16.4167,-67.2765,28,0.9665,8169,4.0227,-110.667
rg,1624878370135634726,1,-0.4353,-0.2498,-0.0305,501,123.3521,100.4639,-30.7007,144,0.7674,0.4082,18.9621,-64.2704,28,0.9655,7878,4.0227,-113.4848
rg,1624878370135654668,1,-0.4727,-0.031,0.0837,502,46.3867,28.6865,4.5776,144,0.7704,0.4162,21.6405,-62.4368,28,0.9655,8058,4.0227,-114.3489
rg,1624878370135674184,1,-0.3162,-0.5002,0.4771,503,-109.375,-69.1528,32.1655,144,0.7724,0.4222,21.7257,-64.9588,28,0.9675,7987,4.0227,-110.8366
rg,1624878370135695793,1,0.1689,-1.3311,1.0894,504,-161.6211,-133.1787,42.5415,144,0.7744,0.4292,20.2035,-68.6559,28,0.9715,8871,4.0227,-104.6242
rg,1624878370135715976,1,0.2959,-1.6096,0.7488,505,-104.9805,-119.2017,43.0298,144,0.7774,0.4332,19.0592,-70.8606,28,0.9755,8288,4.0227,-99.1702
rg,1624878370135736178,1,0.5515,-1.6223,0.6377,506,12.9395,-58.2886,33.2642,144,0.7784,0.4382,18.166,-69.3517,28,0.9845,8711,4.0227,-96.3685
rg,1624878370135756009,1,0.4346,-1.1443,0.6357,507,85.6934,4.0894,3.3569,144,0.7794,0.4422,17.0026,-65.6319,28,0.9945,8492,4.0227,-96.416
rg,1624878370135775377,1,0.3235,-0.8875,0.4226,508,91.9189,25.5737,-2.9907,144,0.7934,0.4462,16.0288,-62.2071,28,1.0005,8553,4.0227,-97.4586
rg,1624878370135794523,1,0.2454,-0.8296,0.2844,509,79.4678,42.6025,-2.6855,144,0.8104,0.4542,15.7736,-59.9597,28,1.0045,8387,4.0227,-99.2218
rg,1624878370135813243,1,0.0203,-0.729,0.2388,510,56.2134,80.5664,-2.3804,144,0.8244,0.4582,16.6502,-59.015,28,1.0075,8493,4.0227,-102.3057
rg,1624878370135831352,1,-0.262,-0.6733,0.332,511,33.2031,81.4209,-5.9204,144,0.8344,0.4612,18.2163,-58.777,28,1.0095,8548,4.0227,-105.4105
rg,1624878370135851387,1,-0.3772,-0.6218,0.3699,512,-8.3618,-7.6294,4.8218,144,0.8324,0.4642,18.5884,-58.9949,28,1.0095,8677,4.0227,-105.0311
rg,1624878370478869020,1,0.5518,-1.3086,0.4128,513,-130.6152,-181.7017,30.2124,144,0.7584,0.4642,15.2869,-61.3001,28,0.9735,29396,4.0227,-99.2362
rg,1624878370478918459,1,0.7458,-1.448,0.3228,514,-43.1519,-89.7217,44.6167,144,0.7574,0.4202,15.1819,-62.0573,28,0.9655,8308,4.0227,-97.0209
rg,1624878370478939679,1,0.8723,-1.252,0.8711,515,6.4697,35.4614,64.8804,144,0.7574,0.4012,16.5256,-61.5517,28,0.9665,7647,4.0227,-96.9997
rg,1624878370478959695,1,0.5632,-1.2097,0.3201,516,62.9883,69.2749,54.1992,144,0.7594,0.3942,18.2878,-59.972,28,0.9645,7584,4.0227,-98.6035
rg,1624878370478978304,1,0.48,-1.179,0.3423,517,47.9126,70.9229,20.752,144,0.7604,0.3912,18.9937,-59.2714,28,0.9625,7831,4.0227,-100.9293
rg,1624878370478996172,1,-0.1584,-0.9199,0.178,518,104.9194,130.7373,-48.0957,144,0.7604,0.3912,19.7324,-57.7998,28,0.9615,7638,4.0227,-106.9848
rg,1624878370479014152,1,-0.4346,-0.3826,0.0522,519,154.2969,124.7559,-26.8555,144,0.7624,0.3912,22.7469,-54.1347,28,0.9605,8946,4.0227,-112.2463
rg,1624878370479031650,1,-0.427,-0.1553,0.0107,520,152.71,96.3745,-9.0942,144,0.7634,0.3942,26.9494,-49.2986,28,0.9605,8248,4.0227,-115.6433
rg,1624878370479049111,1,-0.3352,0.1187,0.0193,521,55.1758,7.6904,22.2168,144,0.7664,0.3982,29.9263,-46.1905,28,0.9615,8132,4.0227,-114.849
rg,1624878370479066387,1,-0.2114,-0.3118,0.3005,522,-126.2207,-67.4438,28.4424,144,0.7674,0.4092,28.8147,-49.6442,28,0.9635,8460,4.0227,-111.659
rg,1624878370479083126,1,0.1843,-1.3728,1.4211,523,-226.7456,-96.8628,33.3252,144,0.7684,0.4132,26.3143,-56.3538,28,0.9675,8237,4.0227,-107.0629
rg,1624878370479100365,1,0.1829,-1.7732,0.8843,524,-168.7012,-72.0215,37.5977,144,0.7694,0.4212,24.9438,-61.7902,28,0.9735,8235,4.0227,-103.5427
rg,1624878370479116733,1,0.3672,-1.9385,0.6624,525,-11.5967,-48.4619,29.6631,144,0.7684,0.4282,23.7771,-61.6089,28,0.9785,8683,4.0227,-101.2206
rg,1624878370479133787,1,0.2532,-1.2502,0.6802,526,91.2476,-27.5269,3.6011,144,0.7674,0.4352,22.081,-57.5339,28,0.9865,7967,4.0227,-100.1538
rg,1624878370479150378,1,0.2705,-0.999,0.6008,527,119.3237,-45.105,-1.0376,144,0.7734,0.4432,19.6394,-52.3525,28,0.9945,7929,4.0227,-98.7085
rg,1624878370479170560,1,0.2463,-0.7251,0.3032,528,104.8584,-43.2129,0.3662,144,0.7884,0.4532,17.2192,-48.3173,28,1.0015,7809,4.0227,-97.5429
rg,1624878370479188466,1,0.1768,-0.6384,0.1243,529,68.6035,4.9438,8.7891,144,0.8064,0.4632,16.4866,-46.7167,28,1.0055,7947,4.0227,-97.8135
rg,1624878370479215778,1,0.124,-0.6262,0.1943,530,46.6309,38.8184,13.0005,144,0.8164,0.4682,16.952,-46.1018,28,1.0075,7832,4.0227,-98.9151
rg,1624878370479233868,1,-0.054,-0.7041,0.4226,531,0.3052,57.4951,12.4512,144,0.8204,0.4742,18.3782,-47.0325,28,1.0085,8056,4.0227,-100.4639
rg,1624878370479251811,1,-0.1458,-0.7642,0.4485,532,-58.5327,-12.3901,16.1133,144,0.8044,0.4802,18.1841,-49.6033,28,1.0075,7908,4.0227,-99.7752
rg,1624878370479269401,1,-0.0469,-0.8667,0.5483,533,-95.459,-45.8374,14.9536,144,0.7754,0.4882,16.9065,-53.1567,28,0.9975,7923,4.0227,-97.9631
rg,1624878370479287066,1,0.1526,-1.0857,0.4336,534,-121.8872,-84.8389,15.3809,144,0.7584,0.4922,14.5824,-57.7186,28,0.9805,8101,4.0227,-94.8358
rg,1624878370479304101,1,0.3965,-1.2178,0.3914,535,-82.8247,-84.5947,32.2876,144,0.7564,0.4722,12.7888,-60.6941,28,0.9645,8020,4.0227,-91.2746
rg,1624878370479321396,1,0.4871,-1.2512,0.3699,536,-59.3262,-62.8662,43.5181,144,0.7564,0.4372,11.9039,-62.8651,28,0.9615,8192,4.0227,-88.2509
rg,1624878370479338264,1,0.6138,-1.3301,0.8162,537,-2.0142,18.4326,52.1851,144,0.7564,0.4272,12.8416,-62.7026,28,0.9605,8025,4.0227,-87.9202
rg,1624878370479355188,1,0.5696,-1.5017,0.5386,538,42.1753,32.8979,38.7573,144,0.7584,0.4172,13.6029,-61.4023,28,0.9595,8176,4.0227,-88.4542
rg,1624878370479371946,1,0.3069,-1.4209,0.407,539,59.7534,62.6831,-0.5493,144,0.7584,0.4182,13.839,-60.045,28,0.9575,8081,4.0227,-90.8503
rg,1624878370479388573,1,-0.217,-0.8787,0.1648,540,153.6865,86.4258,-49.6826,144,0.7604,0.4212,14.0096,-55.6428,28,0.9555,8198,4.0227,-95.1276
rg,1624878370479415422,1,-0.3337,-0.2397,0.0481,541,184.082,73.9136,-48.7671,144,0.7604,0.4262,15.7149,-49.7565,28,0.9535,8174,4.0227,-98.8245
rg,1624878370479432902,1,-0.3604,-0.0225,0.0469,542,168.2129,59.5703,-37.1094,144,0.7634,0.4302,18.2451,-44.7545,28,0.9555,8297,4.0227,-100.0902
rg,1624878370479449641,1,-0.3982,0.1304,0.0156,543,53.6499,-2.6245,0.061,144,0.7644,0.4332,20.3465,-41.9746,28,0.9575,8159,4.0227,-99.7628
rg,1624878370479466213,1,-0.3088,-0.3044,0.1787,544,-117.0654,-86.9141,26.001,144,0.7664,0.4352,19.4076,-46.0486,28,0.9605,8286,4.0227,-96.616
rg,1624878370965512135,1,0.6365,-1.7791,0.533,545,-20.9961,-82.0923,51.7578,144,0.7704,0.4402,17.5955,-45.605,28,0.9815,26823,4.0227,-94.9178
rg,1624878370965544890,1,0.3853,-1.0344,0.6414,546,48.8892,-2.1362,-2.5635,144,0.7704,0.4412,16.1191,-43.1908,28,0.9895,8287,4.0227,-95.6196
rg,1624878370965565444,1,0.3035,-0.8569,0.512,547,79.1626,15.7471,-8.728,144,0.7764,0.4452,15.1376,-40.8424,28,0.9965,7528,4.0172,-96.5272
rg,1624878370965584608,1,0.1099,-0.7188,0.3091,548,47.4243,47.4854,4.2725,154,0.7904,0.4542,15.8499,-40.2678,28,1.0005,7453,4.0172,-97.9498
rg,1624878370965603495,1,0.0391,-0.7278,0.3203,549,30.9448,51.6357,7.1411,154,0.7994,0.4582,16.9335,-40.3885,28,1.0045,7733,4.0172,-99.4037
rg,1624878370965621919,1,-0.0994,-0.7937,0.3984,550,-5.9204,30.8228,6.2866,154,0.7984,0.4632,17.6521,-41.7296,28,1.0065,7658,4.0172,-100.3204
rg,1624878370965640195,1,-0.0266,-0.8333,0.4949,551,-63.9648,-46.7529,14.2822,154,0.7804,0.4662,16.0805,-44.4675,28,1.0045,7809,4.0172,-98.749
rg,1624878370965657730,1,0.0874,-0.9272,0.5283,552,-90.5762,-70.1294,12.0239,154,0.7614,0.4722,13.7128,-48.0756,28,0.9935,7943,4.0172,-96.457
rg,1624878370965675135,1,0.2092,-1.0767,0.4275,553,-99.3652,-91.7969,9.3384,154,0.7574,0.4742,10.7657,-52.1504,28,0.9765,7841,4.0172,-93.4833
rg,1624878370965692226,1,0.4111,-1.1746,0.4138,554,-56.7627,-70.9229,44.4336,154,0.7574,0.4432,9.4226,-54.4999,28,0.9655,8117,4.0172,-90.2036
rg,1624878370965709317,1,0.605,-1.2395,0.7241,555,-38.6963,-53.894,64.5752,154,0.7574,0.4262,9.1018,-55.6943,28,0.9675,7843,4.0172,-86.9387
rg,1624878370965725852,1,0.6721,-1.4216,0.3057,556,31.7993,0.9766,82.8857,154,0.7584,0.4192,10.603,-54.8836,28,0.9645,7980,4.0172,-85.1997
rg,1624878370965760663,1,0.5464,-1.4023,0.2849,557,59.3872,54.3213,17.0288,154,0.7594,0.4092,11.2617,-53.6363,28,0.9635,8019,4.0172,-86.7706
rg,1624878370965778661,1,0.2268,-1.1804,0.2507,558,95.1538,87.1582,-24.4141,154,0.7604,0.4102,11.786,-51.4575,28,0.9605,8213,4.0172,-90.4039
rg,1624878370965795844,1,-0.2202,-0.4829,0.0857,559,160.5225,118.1641,-50.4761,154,0.7604,0.4132,14.8105,-46.7714,28,0.9565,8208,4.0172,-95.4783
rg,1624878370965813120,1,-0.3911,-0.0552,0.071,560,140.3198,123.5352,-23.0713,154,0.7604,0.4172,19.659,-42.3447,28,0.9555,8025,4.0172,-99.686
rg,1624878370965830155,1,-0.48,0.0354,0.0247,561,20.1416,62.1338,16.2964,154,0.7654,0.4252,24.0578,-41.7866,28,0.9565,7849,4.0172,-100.8742
rg,1624878370965847246,1,-0.4773,-0.158,0.1001,562,-68.9087,2.9907,24.0479,154,0.7664,0.4282,26.3971,-44.5025,28,0.9575,7779,4.0172,-100.3296
rg,1624878370965864299,1,-0.2295,-0.9116,0.9397,563,-198.6084,-122.9248,29.541,154,0.7704,0.4302,23.3268,-50.3327,28,0.9615,7855,4.0172,-95.4156
rg,1624878370965881520,1,0.2073,-1.6917,0.8821,564,-206.2988,-151.3062,37.3535,154,0.7724,0.4332,20.2081,-54.23,28,0.9655,7773,4.0172,-89.5582
rg,1624878370965898425,1,0.3306,-1.8604,0.5127,565,-56.5186,-119.3848,52.7954,154,0.7734,0.4382,18.1137,-55.5081,28,0.9715,7982,4.0172,-84.4103
rg,1624878370965915571,1,0.5732,-1.5007,0.687,566,43.7012,-67.0776,24.353,154,0.7734,0.4412,15.9899,-53.3032,28,0.9795,7853,4.0172,-81.6819
rg,1624878370965932588,1,0.3914,-0.988,0.5261,567,82.8247,-46.3257,-1.0376,154,0.7764,0.4472,13.2824,-49.2449,28,0.9885,7959,4.0172,-80.8348
rg,1624878370965949438,1,0.2842,-0.7332,0.2668,568,86.0596,-5.9204,-2.0752,154,0.7924,0.4592,11.8523,-46.5559,28,0.9965,11798,4.0172,-80.9208
rg,1624878370965966362,1,0.1665,-0.6685,0.1763,569,66.1011,22.583,3.1128,154,0.8054,0.4642,12.5074,-46.1769,28,1.0015,8229,4.0172,-82.4723
rg,1624878370965983138,1,0.0789,-0.6687,0.2483,570,22.3389,69.1528,8.0566,154,0.8134,0.4642,13.9408,-46.6174,28,1.0035,8892,4.0172,-84.5055
rg,1624878370965999895,1,-0.1294,-0.7446,0.45,571,-18.9819,58.2275,6.6528,154,0.8054,0.4712,15.4922,-48.2593,28,1.0045,8773,4.0172,-86.2121
rg,1624878370966016838,1,-0.2095,-0.8354,0.5127,572,-81.665,-10.498,12.4512,154,0.7784,0.4802,15.472,-51.7348,28,0.9965,8369,4.0172,-85.6494
rg,1624878370966033558,1,0.019,-1.063,0.4683,573,-133.606,-91.3086,9.4604,154,0.7574,0.4872,13.0344,-56.822,28,0.9785,8787,4.0172,-82.4889
rg,1624878370966050686,1,0.1309,-1.1433,0.4717,574,-121.0938,-113.0371,9.0942,154,0.7554,0.4562,10.5082,-59.7022,28,0.9605,8430,4.0172,-78.1975
rg,1624878370966076998,1,0.4407,-1.23,0.4551,575,-49.1333,-93.0786,46.7529,154,0.7544,0.4192,9.2155,-61.3049,28,0.9575,8390,4.0172,-74.0306
rg,1624878370966094422,1,0.7432,-1.3062,0.76,576,8.5449,-22.2778,74.8291,154,0.7544,0.4082,10.081,-60.5197,28,0.9575,8200,4.0172,-71.774
rg,1624878371307155958,1,-0.2212,-0.8745,0.1616,577,141.8457,105.4077,-67.3218,154,0.7564,0.3892,10.1513,-56.4699,28,0.9525,25945,4.0172,-76.9667
rg,1624878371307193861,1,-0.3643,-0.5388,0.0264,578,175.7202,105.6519,-65.3687,154,0.7574,0.3922,12.2441,-50.5937,28,0.9525,8395,4.0172,-81.1176
rg,1624878371307215303,1,-0.4058,-0.0278,-0.0007,579,177.124,61.7065,-31.9824,154,0.7594,0.3942,15.1393,-44.2585,28,0.9525,7538,4.0172,-83.7667
rg,1624878371307235524,1,-0.385,0.2168,-0.0037,580,69.3359,-7.9346,9.5215,154,0.7614,0.3982,17.2687,-40.5097,28,0.9535,7743,4.0172,-82.9593
rg,1624878371307255318,1,-0.3276,0.1226,-0.0374,581,-22.2168,-46.6919,24.5972,154,0.7634,0.4042,18.7165,-40.2896,28,0.9555,7526,4.0172,-80.7476
rg,1624878371307274297,1,-0.1621,-0.5261,0.5146,582,-218.0176,-121.7041,44.3726,154,0.7664,0.4102,16.2248,-47.7169,28,0.9595,7901,4.0172,-75.9246
rg,1624878371307293462,1,0.4263,-1.6167,1.3613,583,-274.6582,-151.8555,50.5981,154,0.7674,0.4202,13.849,-56.0513,28,0.9645,7649,4.0172,-70.4969
rg,1624878371307311812,1,0.3198,-1.9246,0.4819,584,-138.2446,-88.6841,53.9551,154,0.7684,0.4302,12.6227,-58.2306,28,0.9705,9352,4.0172,-66.5016
rg,1624878371307330606,1,0.6738,-1.8579,0.7842,585,-12.146,-54.6875,28.2593,154,0.7674,0.4392,11.2758,-58.5241,28,0.9785,7930,4.0172,-64.0642
rg,1624878371307348901,1,0.3989,-1.2024,0.6499,586,95.5811,-16.0522,-14.4043,154,0.7734,0.4492,9.3956,-54.7829,28,0.9875,8176,4.0172,-63.8978
rg,1624878371307367177,1,0.2781,-0.7666,0.3372,587,103.0884,1.0376,-1.3428,154,0.7864,0.4622,8.3284,-51.1082,28,0.9935,8827,4.0172,-64.0707
rg,1624878371307385786,1,0.2285,-0.6833,0.2292,588,82.3975,19.104,5.0049,154,0.8024,0.4712,7.9994,-48.6388,28,0.9995,8099,4.0172,-64.6656
rg,1624878371307480294,1,0.1277,-0.6719,0.2246,589,30.9448,48.7061,9.2773,154,0.8134,0.4752,8.8719,-48.4532,28,1.0015,8340,4.0172,-66.0221
rg,1624878371307501959,1,-0.1204,-0.7791,0.3677,590,-12.146,47.7295,9.7046,154,0.8064,0.4792,9.8562,-50.5309,28,1.0035,12578,4.0172,-66.4082
rg,1624878371307521438,1,0.0173,-0.9146,0.5337,591,-101.5015,-48.4619,23.3154,154,0.7764,0.4872,9.0014,-54.5846,28,0.9945,9963,4.0172,-64.3211
rg,1624878371307540010,1,0.103,-1.0159,0.4705,592,-122.1313,-73.0591,15.564,154,0.7554,0.4862,7.3887,-59.4589,28,0.9775,7765,4.0172,-61.544
rg,1624878371307558101,1,0.2979,-1.1714,0.4082,593,-104.6753,-99.9756,25.1465,154,0.7534,0.4722,5.5772,-63.6034,28,0.9605,7872,4.0172,-57.5533
rg,1624878371307575599,1,0.5896,-1.2661,0.4421,594,-62.1338,-86.9141,42.6025,154,0.7544,0.4322,5.6905,-64.6845,28,0.9535,7840,4.0172,-54.1277
rg,1624878371307594227,1,0.8059,-1.3083,0.8032,595,-6.5918,-35.1562,81.4209,154,0.7534,0.4182,6.7779,-64.4244,28,0.9535,7982,4.0172,-51.4339
rg,1624878371307611966,1,0.7566,-1.4827,0.3574,596,46.0815,33.8135,67.9321,154,0.7534,0.4162,8.5654,-63.0043,28,0.9515,8403,4.0172,-51.5215
rg,1624878371307629668,1,0.3489,-1.4141,0.2646,597,73.2422,106.5674,-10.437,154,0.7544,0.4122,9.324,-61.3258,28,0.9515,8501,4.0172,-55.6454
rg,1624878371307647184,1,-0.0088,-1.2231,0.2798,598,115.0513,137.5122,-40.8936,154,0.7544,0.4132,10.9977,-56.8997,28,0.9495,8149,4.0172,-61.9527
rg,1624878371307665053,1,-0.4521,-0.5974,0.0977,599,187.6831,137.3901,-47.1191,154,0.7564,0.4142,13.6841,-51.3639,28,0.9495,8505,4.0172,-67.7205
rg,1624878371307690384,1,-0.4565,-0.0681,-0.0293,600,194.7632,70.8008,-25.7568,154,0.7584,0.4162,16.9313,-44.6592,28,0.9485,8376,4.0172,-70.5565
rg,1624878371307708419,1,-0.4893,0.2087,-0.021,601,90.1489,5.6763,2.4414,154,0.7604,0.4222,19.3496,-40.4595,28,0.9505,8282,4.0172,-70.377
rg,1624878371307736360,1,-0.4624,0.1353,0.0027,602,-7.0801,-36.499,18.6157,154,0.7634,0.4282,19.2807,-44.233,28,0.9525,8517,4.0172,-67.1665
rg,1624878371307754988,1,-0.2576,-0.5735,0.5623,603,-190.979,-133.1177,41.687,154,0.7654,0.4362,16.8556,-50.2469,28,0.9565,8461,4.0172,-61.8819
rg,1624878371307796150,1,0.3162,-1.5852,1.3184,604,-203.7354,-150.1465,53.5889,154,0.7664,0.4372,14.0504,-56.6597,28,0.9625,8339,4.0172,-55.5107
rg,1624878371307817963,1,0.4929,-1.9622,0.532,605,-26.062,-111.3281,65.3076,154,0.7654,0.4422,12.7874,-57.1539,28,0.9715,8832,4.0172,-50.38
rg,1624878371307837165,1,0.5452,-1.4231,0.7024,606,76.0498,-56.8848,11.2915,154,0.7674,0.4472,10.6915,-53.9221,28,0.9805,8807,4.0172,-48.2923
rg,1624878371307854811,1,0.4109,-0.8921,0.4407,607,132.3853,-44.8608,-7.4463,154,0.7794,0.4532,8.1155,-48.8004,28,0.9905,8300,4.0172,-47.1831
rg,1624878371307878901,1,0.3687,-0.7344,0.3328,608,114.6851,-25.1465,-4.5166,154,0.7964,0.4652,6.0893,-44.7482,28,0.9965,8236,4.0172,-46.6985
rg,1624878371654884923,1,-0.0532,-0.6726,0.3635,609,-15.9912,94.3604,11.3525,154,0.8144,0.4772,8.9643,-46.3524,28,1.0005,26217,4.0172,-49.1705
rg,1624878371654951360,1,-0.2131,-0.7896,0.4968,610,-84.0454,28.8696,21.9727,154,0.7834,0.4832,10.5391,-50.1892,28,0.9975,8683,4.0172,-49.5283
rg,1624878371654972358,1,-0.0476,-1.0093,0.4832,611,-147.9492,-83.6792,12.3901,154,0.7554,0.4882,8.6315,-56.139,28,0.9795,8469,4.0172,-46.5976
rg,1624878371654992060,1,0.0581,-1.0906,0.4084,612,-141.3574,-118.103,10.6812,154,0.7494,0.4752,6.1353,-61.7388,28,0.9625,8239,4.0172,-42.3545
rg,1624878371655011465,1,0.4619,-1.21,0.427,613,-70.4956,-120.8496,54.0161,154,0.7514,0.4302,4.8949,-64.3546,28,0.9535,7807,4.0172,-37.061
rg,1624878371655030704,1,0.8726,-1.3108,0.8708,614,-13.4277,-39.7949,85.5713,154,0.7504,0.4162,6.0249,-64.3237,28,0.9535,8069,4.0172,-34.1182
rg,1624878371655051165,1,0.7678,-1.4153,0.3745,615,16.7847,9.0942,80.6885,154,0.7514,0.4102,7.8237,-63.8929,28,0.9525,7868,4.0172,-33.0854
rg,1624878371655070181,1,0.636,-1.5103,0.3987,616,25.5127,69.2749,8.5449,154,0.7514,0.4052,8.2135,-63.6095,28,0.9505,8147,4.0172,-35.5089
rg,1624878371655133434,1,-0.1296,-1.1838,0.3728,617,101.5625,151.062,-53.772,154,0.7514,0.4012,9.017,-60.8603,28,0.9485,8004,4.0172,-41.9744
rg,1624878371655154783,1,-0.4243,-0.8833,0.2695,618,141.2964,154.9683,-51.5747,154,0.7534,0.4032,11.0566,-56.779,28,0.9475,8231,4.0172,-48.4787
rg,1624878371655173670,1,-0.5042,-0.3328,-0.0415,619,185.1807,79.1016,-32.1655,154,0.7534,0.4102,13.5419,-50.9219,28,0.9465,8168,4.0172,-51.9329
rg,1624878371655191965,1,-0.4744,0.1021,-0.0002,620,127.0142,-3.479,-13.0615,154,0.7554,0.4092,15.2936,-45.5792,28,0.9455,8021,4.0172,-51.9964
rg,1624878371655210944,1,-0.2966,-0.2817,0.2004,621,-125.4272,-119.6289,39.978,154,0.7604,0.4222,14.2401,-49.6432,28,0.9495,15558,4.0172,-47.3325
rg,1624878371655229257,1,-0.116,-0.6772,0.6948,622,-195.6787,-160.1562,50.5371,154,0.7644,0.4272,11.7092,-55.7647,28,0.9535,7809,4.0172,-40.789
rg,1624878371655247811,1,0.3589,-1.6387,1.0479,623,-184.1431,-141.0522,53.1616,154,0.7654,0.4362,9.7817,-62.0263,28,0.9595,8275,4.0172,-34.734
rg,1624878371655266624,1,0.5784,-1.8882,0.592,624,-24.5972,-102.356,52.3071,154,0.7664,0.4472,8.7513,-62.6414,28,0.9685,9545,4.0172,-30.1426
rg,1624878371655284363,1,0.5234,-1.3413,0.7134,625,73.6694,-39.1846,2.4414,154,0.7674,0.4552,7.0276,-59.4706,28,0.9775,7950,4.0172,-28.736
rg,1624878371655329950,1,0.459,-1.0862,0.6162,626,108.7036,-33.9966,-5.9814,154,0.7784,0.4632,5.0607,-55.0532,28,0.9855,8548,4.0172,-27.7604
rg,1624878371655350171,1,0.3301,-0.7419,0.2791,627,102.6611,-3.1738,-0.3662,154,0.7954,0.4772,3.927,-51.4618,28,0.9915,8460,4.0172,-27.7483
rg,1624878371655368909,1,0.2092,-0.6221,0.1912,628,53.1006,59.7534,9.8267,154,0.8094,0.4842,4.8992,-50.2505,28,0.9955,8633,4.0172,-29.4283
rg,1624878371655388204,1,0.0405,-0.6191,0.293,629,27.832,82.8247,13.6108,154,0.8164,0.4922,7.5004,-50.9463,28,0.9975,8074,4.0172,-32.143
rg,1624878371655406035,1,-0.0879,-0.6646,0.3914,630,-22.8271,95.3369,16.6626,154,0.8134,0.4982,10.3276,-52.5908,28,0.9995,8267,4.0172,-34.807
rg,1624878371655436236,1,-0.2065,-0.8125,0.5308,631,-90.6372,19.9585,26.7334,154,0.7854,0.5072,11.7208,-56.3692,28,0.9955,8613,4.0172,-34.8699
rg,1624878371655456345,1,-0.0098,-1.1072,0.5156,632,-149.231,-85.7544,14.0991,154,0.7594,0.5112,10.0224,-62.0327,28,0.9825,8451,4.0172,-31.625
rg,1624878371655475102,1,0.2327,-1.2966,0.4189,633,-142.2729,-120.4834,9.8877,154,0.7544,0.4892,7.7155,-65.8252,28,0.9655,8579,4.0172,-26.5549
rg,1624878371655493433,1,0.3816,-1.3157,0.4121,634,-53.7109,-112.3047,44.0063,154,0.7534,0.4462,6.6778,-67.6058,28,0.9515,8782,4.0172,-21.7199
rg,1624878371655511802,1,0.7126,-1.2119,0.6248,635,11.1694,-66.04,81.604,154,0.7544,0.4282,7.3807,-66.519,28,0.9525,8712,4.0172,-17.9892
rg,1624878371655530207,1,0.6479,-1.2676,0.27,636,55.2368,0.6714,56.1523,154,0.7564,0.4222,7.2555,-64.7197,28,0.9505,11002,4.0172,-17.6803
rg,1624878371655548983,1,0.4258,-1.1765,0.2393,637,61.4624,49.9878,-9.2163,154,0.7574,0.4212,6.7823,-63.0106,28,0.9485,8168,4.0172,-19.736
rg,1624878371655566944,1,-0.1458,-0.6719,0.0945,638,122.1313,128.6621,-43.457,154,0.7574,0.4202,7.938,-59.5429,28,0.9475,8317,4.0172,-25.2019
rg,1624878371655584813,1,-0.4177,-0.1936,0.114,639,143.8599,150.6958,-36.1938,154,0.7584,0.4162,12.4114,-54.6416,28,0.9465,8119,4.0172,-30.7967
rg,1624878371655603144,1,-0.4958,-0.032,0.1091,640,121.3989,133.0566,2.1362,154,0.7604,0.4222,17.7494,-50.5719,28,0.9465,8293,4.0172,-34.9684
rg,1624878372002879841,1,-0.0466,-1.3022,1.2639,641,-208.4351,-172.3633,32.7148,154,0.7664,0.4422,14.1307,-56.8643,28,0.9555,24561,4.0172,-28.3015
rg,1624878372002957055,1,0.3108,-1.8577,0.6113,642,-164.0015,-171.6919,42.7856,154,0.7684,0.4482,11.8552,-58.9905,28,0.9615,8679,4.0172,-22.4394
rg,1624878372002978368,1,0.4734,-1.8201,0.5754,643,-4.0894,-106.0791,47.1191,154,0.7704,0.4502,10.3142,-58.7604,28,0.9705,8325,4.0172,-17.8562
rg,1624878372003000569,1,0.4617,-1.2483,0.6279,644,80.3223,-49.6216,9.5215,154,0.7714,0.4482,8.4782,-55.4105,28,0.9795,7866,4.0172,-16.0207
rg,1624878372003021252,1,0.3528,-0.8672,0.4541,645,103.7598,-35.4614,-4.0283,154,0.7814,0.4522,6.4368,-51.3882,28,0.9885,7964,4.0172,-15.0455
rg,1624878372003040436,1,0.3098,-0.7844,0.3291,646,88.0127,-13.7939,-0.2441,154,0.7984,0.4562,5.0749,-48.4129,28,0.9925,8038,4.0172,-14.7209
rg,1624878372003059452,1,0.1919,-0.7302,0.2012,647,44.1284,27.9541,7.4463,154,0.8144,0.4642,5.3093,-47.6751,28,0.9965,7947,4.0172,-15.451
rg,1624878372003079191,1,0.0007,-0.7476,0.3406,648,12.8784,60.8521,4.2725,154,0.8284,0.4682,6.8558,-48.0295,28,0.9995,8142,4.0172,-17.2188
rg,1624878372003097096,1,-0.1042,-0.7937,0.4165,649,-0.4272,51.6357,2.3804,154,0.8344,0.4682,8.446,-48.7195,28,1.0005,8479,4.0172,-18.7739
rg,1624878372003116113,1,-0.1294,-0.8655,0.4844,650,-34.79,-27.2827,11.4136,154,0.8184,0.4742,8.054,-50.4075,28,0.9975,7935,4.0172,-17.7027
rg,1624878372003134833,1,0.2354,-0.9922,0.5178,651,-100.4028,-92.8955,23.0713,154,0.7824,0.4822,5.7654,-54.4401,28,0.9895,8319,4.0172,-14.2083
rg,1624878372003153516,1,0.3433,-1.146,0.2952,652,-85.3882,-82.8857,-2.0142,154,0.7514,0.4882,3.0448,-58.4129,28,0.9615,15495,4.0172,-11.5318
rg,1624878372003199956,1,0.3884,-1.1367,0.3271,653,-43.9453,-55.2979,14.5874,154,0.7504,0.4532,1.5059,-60.674,28,0.9475,7971,4.0172,-9.3428
rg,1624878372003222546,1,0.501,-1.0625,0.3994,654,-18.4326,9.4604,54.5654,154,0.7514,0.4292,2.6254,-61.6875,28,0.9475,7941,4.0172,-8.6303
rg,1624878372003251599,1,0.2957,-1.2356,0.4912,655,22.2168,72.6929,54.5654,154,0.7514,0.4232,5.3232,-61.1495,28,0.9475,7779,4.0172,-10.1683
rg,1624878372003270486,1,0.28,-1.4209,0.4146,656,40.4663,44.4336,48.7061,154,0.7524,0.4212,7.2593,-60.0768,28,0.9475,8014,4.0172,-10.8244
rg,1624878372003288947,1,-0.0627,-1.3115,0.2756,657,85.9375,40.7104,-13.5498,154,0.7534,0.4192,7.4657,-57.5598,28,0.9455,8427,4.0172,-12.6056
rg,1624878372003308371,1,-0.3259,-0.6052,0.0408,658,188.7207,28.1982,-34.79,154,0.7544,0.4172,7.8286,-51.215,28,0.9445,8797,4.0172,-14.4196
rg,1624878372003327702,1,-0.2688,-0.001,0.0227,659,191.5283,8.8501,-10.0708,154,0.7554,0.4122,9.9844,-43.4979,28,0.9435,8641,4.0172,-14.7799
rg,1624878372003346941,1,-0.2571,0.1626,0.0481,660,149.4141,-6.0425,7.3853,154,0.7574,0.4152,11.5348,-38.9887,28,0.9445,8708,4.0172,-12.7854
rg,1624878372003365032,1,-0.1609,0.1199,0.0129,661,-29.2969,-55.603,41.0156,154,0.7604,0.4212,12.757,-38.4123,28,0.9465,8844,4.0172,-9.8026
rg,1624878372003383067,1,0.0474,-0.5603,0.6904,662,-225.0977,-97.229,52.3071,154,0.7614,0.4342,10.7042,-46.5269,28,0.9485,8827,4.0172,-5.5161
rg,1624878372003401454,1,0.344,-1.615,1.03,663,-227.7832,-35.4614,53.6499,164,0.7654,0.4422,10.6773,-55.5453,28,0.9555,8481,4.0095,-3.0469
rg,1624878372003418989,1,0.4062,-2.0366,0.7275,664,-77.3926,-20.5078,33.8135,164,0.7694,0.4492,10.553,-58.9242,28,0.9625,8779,4.0095,-1.6867
rg,1624878372003436432,1,0.1143,-1.4543,0.7766,665,-25.8789,1.5869,6.4697,164,0.7704,0.4512,9.5399,-57.6831,28,0.9705,9037,4.0095,-1.8314
rg,1624878372003453596,1,0.0737,-1.1516,0.6497,666,81.3599,-21.3013,-7.5073,164,0.7734,0.4482,8.3188,-54.4558,28,0.9815,8930,4.0095,-1.3165
rg,1624878372003471224,1,0.1643,-0.7964,0.3694,667,87.0972,-41.8091,16.4185,164,0.7874,0.4542,7.1072,-51.1538,28,0.9905,8599,4.0095,0.3466
rg,1624878372003488908,1,0.2087,-0.7695,0.2188,668,43.8843,-36.5601,7.6294,164,0.8054,0.4632,5.6027,-50.1081,28,0.9955,8534,4.0095,1.5646
rg,1624878372003506406,1,0.1265,-0.8044,0.2239,669,7.3242,-6.6528,-1.8921,164,0.8164,0.4682,4.8367,-50.7201,28,0.9985,8423,4.0095,1.6338
rg,1624878372003523830,1,0.0234,-0.8447,0.3875,670,-24.0479,-2.9297,2.0752,164,0.8164,0.4722,4.585,-52.2328,28,1.0005,10542,4.0095,1.7323
rg,1624878372003541180,1,0.1062,-0.9626,0.4705,671,-76.355,-48.2178,17.9443,164,0.7904,0.4782,3.6344,-55.5856,28,0.9975,8412,4.0095,3.6938
rg,1624878372003558530,1,0.1951,-1.0337,0.4263,672,-100.4028,-61.3403,22.2778,164,0.7634,0.4832,2.5321,-60.2411,28,0.9845,8570,4.0095,6.2196
rg,1624878372577264481,1,0.4177,-0.9973,0.3503,673,-13.7329,-3.418,62.8052,164,0.7554,0.4312,3.7253,-61.0862,28,0.9585,24231,4.0095,7.5529
rg,1624878372577393210,1,0.4385,-1.218,0.522,674,-3.2959,42.4805,68.8477,164,0.7544,0.4212,6.0929,-61.4354,28,0.9595,8325,4.0095,7.3636
rg,1624878372577415670,1,0.4624,-1.4255,0.4136,675,13.2446,28.5645,63.1104,164,0.7554,0.4182,7.9503,-61.338,28,0.9585,7736,4.0095,7.5105
rg,1624878372577436928,1,0.2224,-1.5085,0.2974,676,49.5605,55.603,3.3569,164,0.7554,0.4172,8.5234,-60.3033,28,0.9595,7829,4.0095,5.5101
rg,1624878372577455537,1,-0.0742,-1.2803,0.2148,677,103.2104,67.5049,-28.8086,164,0.7564,0.4162,8.6672,-55.2901,28,0.9575,7770,4.0095,2.3638
rg,1624878372577475442,1,-0.3435,-0.5305,0.0388,678,185.791,49.5605,-45.3491,164,0.7574,0.4162,9.411,-49.2706,28,0.9555,8845,4.0095,-0.4352
rg,1624878372577494052,1,-0.3206,0.001,0.0051,679,174.8047,13.855,-20.0195,164,0.7584,0.4182,11.4458,-42.4207,28,0.9555,7874,4.0095,-1.2568
rg,1624878372577513198,1,-0.2905,0.1062,-0.0146,680,50.415,-31.4331,22.8882,164,0.7604,0.4222,13.3025,-39.5503,28,0.9555,8750,4.0095,0.4597
rg,1624878372577534103,1,-0.2324,-0.0525,0.0403,681,-51.9409,-61.1572,39.2456,164,0.7644,0.4262,12.55,-41.2203,28,0.9575,8110,4.0095,3.258
rg,1624878372577552416,1,0.1614,-0.8875,1.1479,682,-209.1064,-125.9766,57.9224,164,0.7674,0.4352,9.9014,-48.3692,28,0.9625,7897,4.0095,8.6188
rg,1624878372577570026,1,0.458,-1.9219,0.5093,683,-60.3638,-48.4009,64.8193,164,0.7714,0.4462,9.7878,-51.222,28,0.9725,14403,4.0095,11.6602
rg,1624878372577587098,1,0.5752,-1.8318,0.738,684,-13.0615,-23.3765,45.4102,164,0.7734,0.4512,9.7075,-50.1659,28,0.9805,7691,4.0095,11.6668
rg,1624878372577604930,1,0.3179,-1.2312,0.6326,685,84.4727,18.7988,4.5776,164,0.7774,0.4572,9.4727,-47.3549,28,0.9885,7896,4.0095,11.1086
rg,1624878372577623613,1,0.1697,-0.8103,0.3982,686,95.9473,40.8936,4.2114,164,0.7884,0.4642,9.9606,-44.3441,28,0.9945,7691,4.0095,9.9068
rg,1624878372577642815,1,0.0696,-0.7104,0.3213,687,72.998,55.481,3.2349,164,0.8024,0.4712,11.0892,-42.5258,28,0.9995,7832,4.0095,8.2921
rg,1624878372577733047,1,-0.1367,-0.7161,0.2996,688,26.5503,52.9175,-2.3193,164,0.8114,0.4772,12.5679,-42.7283,28,1.0015,8807,4.0095,6.5706
rg,1624878372577760526,1,-0.3142,-0.7937,0.3396,689,-7.5684,12.3291,-2.5024,164,0.8134,0.4832,13.1845,-44.0104,28,1.0025,8203,4.0095,5.9505
rg,1624878372577780079,1,-0.1421,-0.791,0.4109,690,-62.7441,-83.1909,11.1084,164,0.7954,0.4892,11.0321,-46.6567,28,1.0015,8597,4.0095,8.5317
rg,1624878372577799003,1,0.0244,-0.9028,0.4946,691,-95.459,-113.7085,13.2446,164,0.7734,0.4982,7.7387,-50.5831,28,0.9895,8620,4.0095,12.2263
rg,1624878372577817890,1,0.2607,-1.1111,0.3762,692,-110.3516,-148.1323,15.686,164,0.7624,0.4952,3.9235,-55.2408,28,0.9745,8055,4.0095,17.2792
rg,1624878372577838351,1,0.5894,-1.2935,0.3083,693,-67.5049,-141.1133,41.0767,164,0.7574,0.4542,1.1818,-58.4274,28,0.9545,8553,4.0095,22.8799
rg,1624878372577857683,1,0.7068,-1.292,0.3113,694,-29.1138,-103.5767,52.9785,164,0.7584,0.4262,1.0115,-58.1075,28,0.9515,8244,4.0095,25.821
rg,1624878372577879051,1,0.7495,-1.2395,0.4766,695,46.6309,23.9868,63.5986,164,0.7574,0.4192,2.5141,-56.591,28,0.9475,8665,4.0095,26.3532
rg,1624878372577899642,1,0.6646,-1.2896,0.4502,696,49.7437,60.4248,29.9683,164,0.7594,0.4152,3.7717,-55.1688,28,0.9455,8613,4.0095,24.9781
rg,1624878372577917770,1,0.0107,-1.1426,0.2393,697,89.1724,153.5645,-28.0151,164,0.7594,0.4132,6.2843,-52.9857,28,0.9445,8391,4.0095,19.2629
rg,1624878372577936416,1,-0.4932,-0.6721,0.1167,698,125,168.1519,-35.2173,164,0.7594,0.4092,10.4169,-48.2307,28,0.9425,8376,4.0095,13.2688
rg,1624878372577956673,1,-0.5713,-0.4287,0.0127,699,181.3965,135.376,-29.1748,164,0.7604,0.4112,14.9444,-42.9283,28,0.9405,8333,4.0095,8.3907
rg,1624878372577974783,1,-0.5088,0.0708,-0.0181,700,135.3149,20.9961,0.8545,164,0.7624,0.4132,17.833,-37.4652,28,0.9415,8097,4.0095,8.016
rg,1624878372577994077,1,-0.3672,0.072,0.0249,701,-21.1182,-94.9707,23.1323,164,0.7644,0.4152,17.537,-36.8747,28,0.9425,8226,4.0095,11.3632
rg,1624878372578012279,1,-0.2664,-0.2378,0.2007,702,-118.1641,-138.916,37.4146,164,0.7674,0.4222,15.0573,-40.6303,28,0.9455,8159,4.0095,16.0553
rg,1624878372578029944,1,0.3577,-1.2488,1.4177,703,-228.3325,-182.251,57.6782,164,0.7694,0.4332,10.5261,-48.2128,28,0.9495,8377,4.0095,23.0113
rg,1624878372578047664,1,0.4731,-1.8689,0.4216,704,-85.4492,-90.6372,63.9038,164,0.7734,0.4372,9.2734,-51.9079,28,0.9575,8819,4.0095,27.3236
rg,1624878372615450482,1,0.262,-0.9976,0.5933,705,67.3828,10.8643,-15.564,164,0.7774,0.4452,8.6202,-49.7777,28,0.9795,25303,4.0095,26.4917
rg,1624878372615968580,1,0.1182,-0.7717,0.4045,706,45.6543,23.9258,-3.2959,164,0.7844,0.4482,8.7083,-49.426,28,0.9885,9822,4.0095,25.6673
rg,1624878372615997614,1,0.0427,-0.8799,0.3315,707,15.0757,17.334,-2.0142,164,0.7954,0.4552,8.6668,-49.6851,28,0.9915,7595,4.0095,24.9617
rg,1624878372616038610,1,-0.0251,-0.9185,0.2893,708,8.8501,-0.5493,-1.8921,164,0.8074,0.4672,8.3359,-50.2161,28,0.9955,7595,4.0095,24.7966
rg,1624878372616059164,1,-0.0327,-0.9072,0.3218,709,9.6436,-11.8408,-0.1831,164,0.8134,0.4702,7.7959,-50.5624,28,0.9985,7574,4.0095,25.0471
rg,1624878372616080051,1,0.0383,-0.8762,0.3447,710,0.4272,-47.0581,4.7607,164,0.8134,0.4732,6.3752,-51.0432,28,0.9995,7593,4.0095,26.5467
rg,1624878372616099641,1,0.2461,-0.8218,0.3611,711,-37.9639,-64.7583,21.4233,164,0.7944,0.4772,4.6304,-52.8775,28,0.9975,8351,4.0095,29.0759
rg,1624878372616119380,1,0.3372,-0.8909,0.4126,712,-69.8853,-58.3496,25.1465,164,0.7744,0.4802,3.1931,-55.9418,28,0.9875,7594,4.0095,31.5506
rg,1624878372616151821,1,0.3367,-1.0684,0.2747,713,-94.2993,-45.4102,14.5264,164,0.7644,0.4792,1.9582,-60.3406,28,0.9725,7946,4.0095,33.389
rg,1624878372616175801,1,0.4109,-1.1489,0.3696,714,-77.6978,-30.3955,17.4561,164,0.7614,0.4632,2.1062,-62.6819,28,0.9595,7669,4.0095,34.2886
rg,1624878372616197354,1,0.4375,-1.1472,0.3687,715,-27.6489,18.2495,45.7153,164,0.7604,0.4312,3.2101,-64.1186,28,0.9545,7867,4.0095,34.4444
rg,1624878372616219537,1,0.3542,-1.2595,0.729,716,11.4746,62.6831,50.7202,164,0.7614,0.4202,5.4618,-63.5888,28,0.9535,8191,4.0095,33.0799
rg,1624878372616239331,1,0.2439,-1.4321,0.4294,717,49.8047,21.6675,34.5459,164,0.7624,0.4182,6.5064,-61.9831,28,0.9515,10492,4.0095,32.8903
rg,1624878372616260033,1,-0.1294,-1.0837,0.125,718,70.6787,25.6348,6.2256,164,0.7624,0.4162,6.5286,-58.17,28,0.9505,7801,4.0095,31.2125
rg,1624878372616281161,1,-0.231,-0.7344,0.0327,719,164.4897,33.02,-29.0527,164,0.7634,0.4152,6.7785,-52.8646,28,0.9495,7923,4.0095,29.3589
rg,1624878372616305732,1,-0.2944,-0.136,0.043,720,169.4336,31.189,-22.7661,164,0.7644,0.4162,8.7971,-46.6343,28,0.9485,7819,4.0095,27.8781
rg,1624878372616326193,1,-0.3179,0.0137,0.0862,721,132.8735,15.625,-5.5542,164,0.7664,0.4182,10.823,-43.2621,28,0.9495,7948,4.0095,29.0446
rg,1624878372616346951,1,-0.2163,-0.0745,0.1365,722,-27.771,-65.1245,32.5928,164,0.7684,0.4232,11.4034,-43.4833,28,0.9515,8052,4.0095,31.9022
rg,1624878372616369245,1,0.1162,-0.8433,0.884,723,-169.3726,-138.5498,40.7104,164,0.7714,0.4302,8.1328,-49.3465,28,0.9505,8407,4.0095,37.1407
rg,1624878372616389780,1,0.4497,-1.5925,0.6846,724,-183.8989,-132.2021,44.8608,164,0.7734,0.4362,6.3495,-54.7965,28,0.9585,7903,4.0095,41.1829
rg,1624878372616408944,1,0.4971,-1.7249,0.4495,725,-67.9321,-57.4341,36.1328,164,0.7754,0.4412,5.453,-57.987,28,0.9645,8133,4.0095,43.8453
rg,1624878372616456070,1,0.2976,-1.3584,0.7168,726,9.0332,23.8037,-8.9111,164,0.7764,0.4512,5.0113,-57.8692,28,0.9675,7934,4.0095,42.8275
rg,1624878372616479882,1,0.0039,-0.9546,0.6145,727,47.1191,28.1982,-13.4277,164,0.7774,0.4602,4.9646,-56.058,28,0.9775,8897,4.0095,41.5836
rg,1624878372616500102,1,-0.0488,-0.8977,0.5283,728,40.6494,13.4277,-7.5073,164,0.7804,0.4652,4.9303,-54.6135,28,0.9835,7994,4.0095,40.9563
rg,1624878372616519193,1,0.041,-1.0632,0.4626,729,26.7944,-33.5083,-4.3335,164,0.7874,0.4752,3.7411,-53.9255,28,0.9915,8193,4.0095,41.9065
rg,1624878372616538062,1,0.0808,-1.0564,0.2461,730,43.2129,-47.0581,-2.2583,164,0.8014,0.4892,2.251,-52.9989,28,0.9955,8083,4.0095,43.3093
rg,1624878372616556226,1,0.1084,-0.9578,0.2449,731,49.7437,-45.4712,0.7324,164,0.8064,0.4962,0.8016,-51.741,28,0.9985,8264,4.0095,44.7354
rg,1624878372616575502,1,0.1421,-0.7322,0.2622,732,33.9355,-53.6499,4.2114,164,0.8014,0.4982,-0.8335,-51.0863,28,1.0005,8064,4.0095,46.5072
rg,1624878372616593556,1,0.2698,-0.7026,0.3691,733,-43.457,-68.4814,9.5825,164,0.7824,0.4982,-2.8969,-53.3059,28,0.9945,8090,4.0095,48.928
rg,1624878372616613554,1,0.3057,-0.8193,0.3694,734,-81.9702,-57.312,10.7422,164,0.7664,0.4952,-4.119,-58.1964,28,0.9805,8069,4.0095,50.8323
rg,1624878372616630941,1,0.3447,-1.0549,0.3396,735,-103.4546,-35.1562,16.3574,164,0.7624,0.4732,-4.7531,-62.9601,28,0.9635,8239,4.0095,52.4395
rg,1624878372616649440,1,0.3633,-1.2268,0.3569,736,-55.6641,7.3853,38.9404,164,0.7614,0.4272,-3.665,-65.6124,28,0.9535,8745,4.0095,52.8876
rg,1624878372961227230,1,0.0247,-1.1433,0.1455,737,140.5029,35.7056,-17.2729,164,0.7614,0.4082,-3.5505,-60.5623,28,0.9475,31799,4.0095,51.3462
rg,1624878372961351755,1,-0.293,-0.626,0.0972,738,181.2744,41.9922,-24.4141,164,0.7644,0.4012,-2.4038,-53.951,28,0.9465,12795,4.0095,49.5156
rg,1624878372961376623,1,-0.3767,-0.3611,0.0391,739,166.4429,-12.5122,-0.9155,164,0.7654,0.3942,-1.0595,-48.1051,28,0.9455,9951,4.0095,50.0064
rg,1624878372961397380,1,-0.2446,-0.26,0.0264,740,87.6465,-109.5581,23.8647,164,0.7664,0.3932,-1.7647,-45.6752,28,0.9445,7483,4.0095,53.9181
rg,1624878372961416860,1,-0.1489,-0.3149,0.124,741,42.4194,-150.2686,26.001,164,0.7664,0.3962,-5.7666,-46.4466,28,0.9455,7452,4.0095,59.8433
rg,1624878372961436913,1,0.116,-0.6638,0.5083,742,-33.9966,-190.1245,27.5269,164,0.7674,0.3972,-10.1231,-48.9249,28,0.9445,7627,4.0095,66.2942
rg,1624878372961454708,1,0.3491,-1.1018,0.5244,743,-33.2642,-149.1089,26.6724,164,0.7684,0.3982,-13.3137,-51.9358,28,0.9445,7645,4.0095,71.796
rg,1624878372961474095,1,0.437,-1.1389,0.5142,744,12.6953,-83.9233,11.6577,164,0.7694,0.3992,-15.2285,-52.6936,28,0.9415,9963,4.0095,74.9561
rg,1624878372961495834,1,0.3552,-0.9895,0.4932,745,29.48,-58.2886,-1.8921,164,0.7704,0.3972,-16.8112,-51.8123,28,0.9405,7853,4.0095,76.2345
rg,1624878372961513776,1,0.199,-0.7544,0.4688,746,31.9824,-41.4429,-16.4795,164,0.7714,0.3942,-18.1865,-51.0599,28,0.9385,7684,4.0095,77.2401
rg,1624878372961530941,1,0.1465,-0.7327,0.4197,747,3.6011,-35.0952,-9.7046,164,0.7724,0.3922,-19.0351,-51.5662,28,0.9375,7735,4.0095,78.2574
rg,1624878372961550254,1,0.167,-0.8049,0.4333,748,-11.5967,-38.269,-5.9814,164,0.7734,0.3912,-19.818,-52.8084,28,0.9365,7733,4.0095,79.5181
rg,1624878372961568641,1,0.1956,-0.9783,0.4216,749,-11.9019,-43.457,-13.0615,164,0.7734,0.3902,-20.9063,-54.246,28,0.9355,12263,4.0095,80.87
rg,1624878372961586584,1,0.1917,-0.9692,0.4277,750,-3.8452,-46.9971,-16.6626,164,0.7754,0.3912,-22.116,-55.3379,28,0.9355,7757,4.0095,82.2848
rg,1624878372961606675,1,0.1733,-0.9302,0.4155,751,6.7749,-62.5,-23.5596,164,0.7754,0.3932,-23.8072,-56.1525,28,0.9355,7667,4.0095,84.123
rg,1624878372961698832,1,0.1697,-0.9143,0.4082,752,8.7891,-71.7163,-27.5269,164,0.7764,0.3922,-26.0324,-57.058,28,0.9355,7790,4.0095,86.5601
rg,1624878372961719719,1,0.1787,-0.9302,0.4377,753,12.8784,-88.2568,-32.1655,164,0.7774,0.3952,-28.3619,-58.0457,28,0.9365,7698,4.0095,89.2848
rg,1624878372961737384,1,0.1902,-0.9902,0.4739,754,21.1792,-96.0693,-35.5225,164,0.7784,0.4012,-30.8373,-58.9123,28,0.9365,11384,4.0095,92.3378
rg,1624878372961754753,1,0.2161,-1.0149,0.4902,755,35.4614,-105.835,-37.0483,164,0.7804,0.4032,-33.4726,-59.5385,28,0.9375,7782,4.0095,95.8701
rg,1624878372961773769,1,0.2842,-0.9463,0.429,756,54.7485,-113.3423,-33.6914,164,0.7814,0.4032,-36.1851,-59.8773,28,0.9385,7966,4.0095,99.9773
rg,1624878372961791916,1,0.3098,-0.8972,0.3987,757,61.1572,-113.0371,-32.2876,164,0.7814,0.4022,-38.8038,-60.2321,28,0.9385,7793,4.0095,104.2875
rg,1624878372961809247,1,0.3547,-0.7896,0.3396,758,69.458,-106.3843,-27.0996,164,0.7824,0.4022,-41.1826,-60.4146,28,0.9385,7940,4.0095,108.6204
rg,1624878372961827301,1,0.4182,-0.7239,0.3054,759,66.1621,-95.0928,-15.564,164,0.7834,0.4022,-43.0481,-60.8028,28,0.9385,7975,4.0095,112.8949
rg,1624878372961845559,1,0.4568,-0.7131,0.314,760,61.4014,-86.0596,-10.0098,164,0.7834,0.4002,-44.5386,-61.3044,28,0.9395,8023,4.0095,116.9838
rg,1624878372961863909,1,0.5417,-0.7239,0.3157,761,50.354,-53.9551,-1.2207,164,0.7844,0.3992,-45.1997,-61.3837,28,0.9395,7876,4.0095,119.7919
rg,1624878372961898442,1,0.5579,-0.7407,0.3291,762,40.9546,-10.8643,-4.1504,164,0.7844,0.4002,-45.1292,-60.2529,28,0.9395,8085,4.0095,120.3658
rg,1624878372961919477,1,0.5132,-0.7371,0.3511,763,36.6821,8.606,-9.1553,164,0.7854,0.4002,-44.5217,-58.0957,28,0.9405,8357,4.0095,118.9115
rg,1624878372961938957,1,0.3718,-0.7737,0.4351,764,26.4893,32.7759,-21.3013,164,0.7854,0.4022,-43.4848,-55.5751,28,0.9405,9753,4.0095,116.7846
rg,1624878372961956752,1,0.2104,-0.8364,0.5261,765,26.6724,37.7808,-23.3154,164,0.7854,0.4032,-42.1794,-52.9926,28,0.9405,8000,4.0095,114.4717
rg,1624878372961974565,1,0.0725,-0.8916,0.5818,766,38.9404,1.5869,-26.3062,164,0.7864,0.4042,-41.5602,-51.0278,28,0.9405,8147,4.0095,113.7007
rg,1624878372961993989,1,0.032,-0.8887,0.5774,767,48.8281,-28.5645,-30.6396,164,0.7864,0.4042,-42.7643,-49.9727,28,0.9415,8016,4.0095,115.4596
rg,1624878372962012413,1,0.165,-0.8071,0.5669,768,68.3594,-92.2852,-31.8604,164,0.7864,0.4032,-44.8508,-49.4234,28,0.9415,8230,4.0095,118.4253
rg,1624878373314904280,1,0.6423,-0.6445,0.4111,769,92.2852,-143.2495,-19.5312,164,0.7864,0.4042,-48.9068,-50.2365,28,0.9425,26649,4.0095,124.3718
rg,1624878373314942295,1,0.8542,-0.5811,0.3657,770,87.0361,-67.8711,-9.0942,164,0.7874,0.4062,-51.0028,-49.2367,28,0.9425,13060,4.0095,127.4586
rg,1624878373314963293,1,0.8281,-0.531,0.4021,771,66.7114,15.0146,-12.207,164,0.7874,0.4062,-50.9584,-45.746,28,0.9435,13903,4.0095,126.3233
rg,1624878373314983162,1,0.6372,-0.5815,0.5171,772,41.8701,84.0454,-16.6016,164,0.7874,0.4072,-48.5285,-40.8997,28,0.9435,7549,4.0095,122.0911
rg,1624878373315006419,1,0.5291,-0.6433,0.5715,773,32.2266,103.2715,-15.8691,164,0.7884,0.4082,-44.5257,-36.6705,28,0.9435,7603,4.0095,117.5625
rg,1624878373315024880,1,0.3179,-0.7212,0.6909,774,28.6865,107.7881,-17.4561,164,0.7894,0.4082,-40.4145,-33.24,28,0.9435,7548,4.0095,113.7972
rg,1624878373315043212,1,0.1392,-0.7551,0.7498,775,45.7764,52.002,-22.7661,164,0.7894,0.4092,-37.9376,-30.5057,28,0.9435,7612,4.0095,111.8014
rg,1624878373315060914,1,0.0552,-0.7104,0.707,776,56.2134,6.2866,-28.1372,164,0.7904,0.4082,-38.821,-28.4169,28,0.9435,8953,4.0095,111.9231
rg,1624878373315079727,1,0.1389,-0.6421,0.6919,777,70.4346,-89.2944,-35.0952,118,0.7904,0.4082,-41.5062,-26.6958,28,0.9435,7707,4.0381,112.95
rg,1624878373315156016,1,0.3516,-0.593,0.6572,778,71.8994,-146.8506,-35.0342,118,0.7894,0.4082,-46.6203,-25.9133,28,0.9435,7638,4.0381,115.3674
rg,1624878373315176015,1,0.4663,-0.5925,0.6367,779,71.8384,-166.8091,-32.6538,118,0.7904,0.4062,-52.6652,-26.0062,28,0.9435,7733,4.0381,118.7491
rg,1624878373315209012,1,0.6941,-0.6201,0.6277,780,79.834,-175.9033,-28.9307,118,0.7894,0.4062,-58.8887,-26.9379,28,0.9435,8963,4.0381,123.3392
rg,1624878373315227417,1,0.8794,-0.5879,0.5852,781,90.3931,-131.5918,-18.3105,118,0.7894,0.4012,-63.3895,-27.5588,28,0.9435,9470,4.0381,127.9149
rg,1624878373315244749,1,0.9783,-0.4927,0.5769,782,86.3647,-65.3687,-11.7798,118,0.7894,0.4012,-65.4618,-26.4742,28,0.9435,7718,4.0381,130.3941
rg,1624878373315262692,1,0.9673,-0.4375,0.5715,783,78.6743,-29.9683,-15.0146,118,0.7894,0.4002,-65.2455,-22.8306,28,0.9435,7825,4.0381,129.2941
rg,1624878373315280024,1,0.8281,-0.3828,0.6016,784,55.481,23.4375,-20.813,118,0.7894,0.3992,-64.0676,-18.8741,28,0.9435,7763,4.0381,127.229
rg,1624878373315297189,1,0.6577,-0.4663,0.6504,785,33.6914,51.8188,-23.2544,118,0.7904,0.3982,-61.5191,-15.7376,28,0.9435,7951,4.0381,124.9472
rg,1624878373315314076,1,0.5769,-0.5088,0.6877,786,27.4048,53.3447,-22.0947,118,0.7904,0.3992,-58.6174,-13.6213,28,0.9435,7815,4.0381,123.3806
rg,1624878373315330649,1,0.4539,-0.5618,0.7808,787,29.4189,34.729,-23.8647,118,0.7904,0.3992,-56.3722,-11.965,28,0.9435,7960,4.0381,122.3284
rg,1624878373315347443,1,0.3911,-0.5906,0.8701,788,39.2456,-8.9111,-25.3906,118,0.7904,0.3992,-55.7151,-10.488,28,0.9435,7883,4.0381,121.9003
rg,1624878373315363831,1,0.3931,-0.5908,0.8943,789,44.0674,-39.1846,-24.231,118,0.7904,0.3992,-56.2676,-9.1889,28,0.9435,7943,4.0381,121.906
rg,1624878373315380514,1,0.4683,-0.5686,0.8918,790,50.5981,-90.21,-28.0762,118,0.7864,0.3992,-58.8853,-7.8232,28,0.9435,7936,4.0381,122.1454
rg,1624878373315397254,1,0.6101,-0.5237,0.8623,791,53.0396,-119.2627,-26.4282,118,0.7894,0.3982,-62.7609,-6.5102,28,0.9435,8027,4.0381,122.6155
rg,1624878373315414567,1,0.6985,-0.5044,0.8264,792,53.833,-129.6387,-23.5596,118,0.7894,0.3962,-67.1873,-5.2849,28,0.9425,7981,4.0381,123.2671
rg,1624878373315431676,1,0.8967,-0.4941,0.762,793,53.7109,-129.5776,-17.395,118,0.7884,0.3952,-71.5612,-4.674,28,0.9435,8087,4.0381,124.6064
rg,1624878373315448767,1,1.0632,-0.4915,0.6941,794,53.1616,-86.9751,-8.728,118,0.7894,0.3952,-74.3125,-4.9083,28,0.9425,8003,4.0381,126.851
rg,1624878373315466377,1,1.1084,-0.4856,0.6448,795,50.8423,-50.293,-4.1504,118,0.7904,0.3942,-74.1467,-5.4122,28,0.9425,8177,4.0381,129.1724
rg,1624878373315484209,1,1.0762,-0.4211,0.6311,796,40.5884,32.8369,-2.5024,118,0.7904,0.3952,-72.2929,-5.2626,28,0.9435,8027,4.0381,130.53
rg,1624878373315501355,1,0.8455,-0.4221,0.6345,797,22.7051,102.5391,-4.5166,118,0.7904,0.3952,-67.5778,-4.9873,28,0.9435,8160,4.0381,130.9618
rg,1624878373315518835,1,0.6487,-0.4846,0.6597,798,14.4043,121.7041,-1.1597,118,0.7904,0.3962,-61.5231,-5.7576,28,0.9435,8078,4.0381,131.9095
rg,1624878373315535871,1,0.5732,-0.5056,0.6953,799,12.8174,134.1553,2.6245,118,0.7914,0.3952,-55.4006,-6.3142,28,0.9425,8204,4.0381,132.6322
rg,1624878373315562609,1,0.4526,-0.5359,0.7524,800,24.1089,120.8496,5.5542,118,0.7914,0.3962,-49.7121,-6.5659,28,0.9435,8158,4.0381,133.4529
rg,1624878373673979141,1,0.5,-0.4915,0.782,801,45.5933,50.293,14.7095,118,0.7924,0.3972,-46.9784,-6.4522,28,0.9445,26922,4.0381,134.9914
rg,1624878373674013842,1,0.5515,-0.4485,0.7681,802,43.6401,45.2881,9.3384,118,0.7914,0.3972,-44.6452,-5.8813,28,0.9435,12786,4.0381,135.6063
rg,1624878373674034433,1,0.479,-0.3965,0.8037,803,32.2876,39.6118,-5.4321,118,0.7924,0.3972,-42.4135,-5.1892,28,0.9435,9857,4.0381,135.7686
rg,1624878373674053616,1,0.3945,-0.3931,0.8452,804,23.1323,18.4326,-19.7754,118,0.7934,0.3962,-41.0703,-4.4579,28,0.9435,7421,4.0381,135.2763
rg,1624878373674083206,1,0.3667,-0.4473,0.8577,805,10.7422,-23.0103,-25.8179,118,0.7924,0.3962,-41.3772,-4.2955,28,0.9445,7586,4.0381,134.7336
rg,1624878373674113333,1,0.407,-0.4854,0.8752,806,10.437,-54.4434,-26.001,118,0.7924,0.3962,-42.983,-4.2736,28,0.9445,7454,4.0381,134.3447
rg,1624878373674132257,1,0.5571,-0.5222,0.834,807,16.2354,-102.1118,-26.123,118,0.7924,0.3972,-46.7212,-4.1885,28,0.9445,7686,4.0381,134.1945
rg,1624878373674150607,1,0.6409,-0.5125,0.8184,808,19.3481,-114.8071,-25.2075,118,0.7924,0.3962,-51.359,-3.8617,28,0.9455,8000,4.0381,134.2781
rg,1624878373674168957,1,0.7964,-0.5095,0.7874,809,26.7334,-119.812,-19.043,118,0.7904,0.3952,-55.8667,-3.6072,28,0.9445,8306,4.0381,134.643
rg,1624878373674186308,1,0.936,-0.481,0.7065,810,32.1045,-92.2241,-5.7373,118,0.7904,0.3952,-59.3521,-3.8067,28,0.9445,7592,4.0381,135.8864
rg,1624878373674204084,1,0.9944,-0.4614,0.6702,811,32.959,-68.6035,2.3193,118,0.7914,0.3932,-61.9159,-4.4815,28,0.9445,7669,4.0381,137.7622
rg,1624878373674221342,1,1.0291,-0.417,0.6382,812,28.3813,1.4648,14.6484,118,0.7914,0.3942,-61.5944,-5.8136,28,0.9455,7643,4.0381,140.2243
rg,1624878373674238488,1,0.8706,-0.3716,0.6501,813,16.0522,72.998,12.3291,118,0.7914,0.3942,-58.2867,-6.6755,28,0.9445,7796,4.0381,141.6337
rg,1624878373674255301,1,0.7549,-0.3916,0.675,814,7.6904,96.3745,10.2539,118,0.7934,0.3942,-53.9923,-7.4337,28,0.9455,7639,4.0381,142.5075
rg,1624878373674272207,1,0.5466,-0.4495,0.7415,815,-0.7935,116.2109,8.9722,118,0.7924,0.3952,-48.6569,-8.3432,28,0.9415,7783,4.0381,143.0519
rg,1624878373674289576,1,0.4548,-0.4543,0.7632,816,-1.8921,111.5112,9.2773,118,0.7934,0.3952,-43.8914,-9.1415,28,0.9465,7696,4.0381,143.4436
rg,1624878373674306149,1,0.3237,-0.4751,0.8247,817,2.6245,73.7305,5.6763,118,0.7934,0.3962,-40.0877,-9.8203,28,0.9455,7684,4.0381,143.7979
rg,1624878373674323554,1,0.363,-0.4929,0.8108,818,14.5874,8.2397,6.8359,118,0.7934,0.3972,-40.2983,-10.3543,28,0.9455,12630,4.0381,144.9584
rg,1624878373674340368,1,0.4297,-0.4792,0.7886,819,26.2451,-46.3257,5.7373,118,0.7934,0.3982,-41.5437,-10.7687,28,0.9465,8677,4.0381,146.342
rg,1624878373674357292,1,0.5557,-0.4402,0.7524,820,32.2876,-70.6787,5.3101,118,0.7934,0.3982,-43.9667,-11.0411,28,0.9465,7993,4.0381,147.9426
rg,1624878373674374050,1,0.6138,-0.3977,0.6965,821,33.02,-68.1763,0.6714,118,0.7934,0.3992,-46.4142,-11.0975,28,0.9465,7869,4.0381,149.3014
rg,1624878373674390419,1,0.6235,-0.3623,0.6782,822,30.9448,-63.7207,2.3804,118,0.7934,0.3992,-48.647,-11.2021,28,0.9465,7961,4.0381,150.6846
rg,1624878373674406954,1,0.6042,-0.3062,0.6694,823,26.3062,-47.6685,1.2207,118,0.7934,0.4002,-50.1498,-11.2665,28,0.9475,8310,4.0381,151.8054
rg,1624878373674423545,1,0.593,-0.3105,0.7212,824,15.9302,-34.6069,2.6245,118,0.7944,0.4012,-50.9776,-11.6829,28,0.9445,8630,4.0381,152.8618
rg,1624878373674451691,1,0.6018,-0.3914,0.7913,825,11.2305,-33.5083,5.0049,118,0.7944,0.4012,-51.543,-12.6386,28,0.9475,7956,4.0381,154.1757
rg,1624878373674468745,1,0.6118,-0.4216,0.8179,826,10.437,-32.2876,5.249,118,0.7934,0.4012,-52.0762,-13.6218,28,0.9485,8162,4.0381,155.5881
rg,1624878373674485558,1,0.6604,-0.4307,0.8232,827,18.1885,-34.9121,8.2397,118,0.7944,0.4022,-52.7159,-14.4812,28,0.9485,8166,4.0381,157.2512
rg,1624878373674502483,1,0.7009,-0.3911,0.8003,828,24.231,-27.8931,10.9253,118,0.7934,0.4022,-53.1191,-15.0421,28,0.9485,8211,4.0381,158.9021
rg,1624878373674519574,1,0.719,-0.3733,0.7964,829,25.8179,-19.9585,12.3901,118,0.7944,0.4032,-53.2163,-15.4434,28,0.9485,8034,4.0381,160.466
rg,1624878373674536591,1,0.7175,-0.3525,0.7708,830,21.7285,-1.1597,12.2681,118,0.7904,0.4022,-52.6239,-15.6739,28,0.9485,8237,4.0381,161.6389
rg,1624878373674553922,1,0.6646,-0.354,0.7673,831,18.0054,18.5547,12.3901,118,0.7944,0.4042,-51.2208,-15.7632,28,0.9495,8098,4.0381,162.4494
rg,1624878373674570532,1,0.6331,-0.3516,0.7803,832,16.1133,24.231,9.4604,118,0.7944,0.4052,-49.496,-15.6801,28,0.9485,8297,4.0381,162.9253
rg,1624878374016693045,1,0.5542,-0.3743,0.8127,833,15.564,11.9629,9.4604,118,0.7934,0.4052,-48.2525,-15.7861,28,0.9495,25122,4.0381,163.632
rg,1624878374016745004,1,0.5742,-0.3865,0.8328,834,17.7002,4.6997,7.3242,118,0.7934,0.4082,-47.5581,-15.6838,28,0.9495,9249,4.0381,164.3484
rg,1624878374016776834,1,0.6138,-0.3877,0.8271,835,26.123,-0.1831,3.7231,118,0.7934,0.4112,-46.9971,-15.2545,28,0.9505,8172,4.0381,164.9024
rg,1624878374016807369,1,0.6099,-0.3655,0.8013,836,27.9541,-1.77,1.4038,118,0.7944,0.4142,-46.5741,-14.6561,28,0.9505,8160,4.0381,165.3334
rg,1624878374016836625,1,0.594,-0.3401,0.7761,837,29.7241,-1.5869,-1.0986,118,0.7944,0.4172,-46.2864,-13.6649,28,0.9515,9072,4.0381,165.5248
rg,1624878374016865012,1,0.5249,-0.2297,0.719,838,33.2642,-6.4087,-0.1831,118,0.7954,0.4182,-46.0768,-12.5843,28,0.9515,8154,4.0381,165.7412
rg,1624878374016892658,1,0.5056,-0.1724,0.7219,839,22.0337,-3.9673,8.8501,118,0.7954,0.4192,-45.6791,-12.1366,28,0.9525,8130,4.0381,166.317
rg,1624878374016922081,1,0.5684,-0.2715,0.8,840,5.7373,-6.958,17.9443,118,0.7954,0.4202,-45.3274,-12.9862,28,0.9525,10338,4.0381,167.6226
rg,1624878374016950708,1,0.6616,-0.3621,0.8323,841,1.6479,-11.4136,19.8364,118,0.7954,0.4222,-45.431,-14.1634,28,0.9535,7697,4.0381,169.2953
rg,1624878374017068550,1,0.6729,-0.3564,0.8313,842,9.7656,-20.6299,16.1743,118,0.7964,0.4222,-45.717,-15.0296,28,0.9535,7633,4.0381,170.7798
rg,1624878374017104899,1,0.6636,-0.2993,0.8167,843,11.2915,-17.5781,11.9019,118,0.7964,0.4232,-45.9274,-15.4684,28,0.9535,7799,4.0381,-188.1304
rg,1624878374017133896,1,0.6492,-0.2876,0.8098,844,8.9111,-13.1836,14.4043,118,0.7974,0.4232,-45.9145,-16.0312,28,0.9535,7624,4.0381,-186.9826
rg,1624878374017215241,1,0.6338,-0.3032,0.8164,845,4.2114,-9.2773,14.6484,118,0.7964,0.4232,-45.7051,-16.7426,28,0.9535,8196,4.0381,-185.8849
rg,1624878374017244942,1,0.6123,-0.3088,0.821,846,3.6621,-7.9346,13.7939,118,0.7974,0.4242,-45.4105,-17.4022,28,0.9545,8227,4.0381,-184.8731
rg,1624878374017272736,1,0.5967,-0.3042,0.8157,847,3.418,-8.4229,14.0991,118,0.7984,0.4242,-45.1331,-18.0231,28,0.9545,7906,4.0381,-183.8609
rg,1624878374017299493,1,0.5911,-0.2915,0.8149,848,3.2959,-12.5732,15.9912,118,0.7984,0.4252,-44.9692,-18.7282,28,0.9545,7717,4.0381,-182.7265
rg,1624878374017326491,1,0.5942,-0.3074,0.7988,849,4.2114,-17.9443,14.4653,118,0.7974,0.4242,-45.0412,-19.4413,28,0.9545,7940,4.0381,-181.5486
rg,1624878374017352878,1,0.5994,-0.2922,0.7852,850,4.3335,-19.8975,14.8315,118,0.7984,0.4252,-45.1911,-20.1343,28,0.9555,7814,4.0381,-180.3489
