name,time,activity,ax,ay,az,batch_val,gx,gy,gz,ibat,index,middle,pitch,roll,temp,thumb,ts,vbat,yaw
rg,1624882390971004188,1,-0.165,-0.2002,1.1733,1,-28.9307,-39.0015,-22.7661,64,1.0855,1.4737,-4.1163,-12.9419,29,0.9505,19683,4.1052,136.7121
rg,1624882390971035114,1,-0.1545,-0.1902,1.1572,2,-31.0669,-36.8652,-22.8271,64,1.0855,1.4707,-5.303,-13.9913,29,0.9495,8524,4.1052,136.1527
rg,1624882390971055800,1,-0.1484,-0.1904,1.1616,3,-35.7666,-34.9731,-21.1792,64,1.0855,1.4687,-6.3745,-15.1807,29,0.9495,7958,4.1052,135.6618
rg,1624882390971075651,1,-0.1338,-0.2151,1.1311,4,-41.748,-30.7007,-20.9351,64,1.0855,1.4677,-7.2697,-16.6097,29,0.9485,8003,4.1052,135.1647
rg,1624882390971094262,1,-0.1113,-0.2419,1.1377,5,-44.6167,-30.5786,-19.5312,64,1.0865,1.4667,-8.1995,-18.1931,29,0.9485,7951,4.1052,134.7586
rg,1624882390971112114,1,-0.0796,-0.2812,1.1404,6,-48.8892,-23.0713,-20.0806,64,1.0855,1.4657,-8.8554,-19.8947,29,0.9475,8152,4.1052,134.2644
rg,1624882390971129522,1,-0.0913,-0.3086,1.1497,7,-53.6499,-12.7563,-20.5078,64,1.0855,1.4657,-9.1023,-21.7404,29,0.9475,8119,4.1052,133.6337
rg,1624882390971146207,1,-0.0984,-0.3276,1.1719,8,-56.0303,-7.9346,-22.644,64,1.0855,1.4657,-9.1815,-23.6364,29,0.9475,8018,4.1052,132.8681
rg,1624882390971163670,1,-0.1226,-0.345,1.1636,9,-58.7769,-4.8218,-25.6348,64,1.0855,1.4647,-9.1996,-25.5512,29,0.9465,8032,4.1052,131.9501
rg,1624882390971182003,1,-0.1084,-0.3435,1.1448,10,-62.6831,-10.1318,-25.2686,64,1.0855,1.4627,-9.4525,-27.5717,29,0.9475,8032,4.1052,131.1518
rg,1624882390971200540,1,-0.0857,-0.3748,1.0945,11,-63.7817,-10.376,-26.7944,64,1.0845,1.4617,-9.8491,-29.63,29,0.9465,8560,4.1052,130.1488
rg,1624882390971218577,1,-0.0774,-0.3716,1.0723,12,-63.9038,-9.0332,-30.9448,64,1.0845,1.4607,-10.2333,-31.621,29,0.9475,8185,4.1052,129.1914
rg,1624882390971235503,1,-0.1643,-0.7239,0.4211,13,88.501,-15.3809,3.8452,141,0.8164,0.5863,-9.9559,-29.8801,29,0.9124,10790,4.0711,129.8381
rg,1624882390971252688,1,-0.1975,-0.6855,0.3984,14,50.5371,-24.7192,6.3477,141,0.8164,0.6083,-9.8181,-29.098,29,0.9154,8181,4.0711,130.7588
rg,1624882390971269855,1,-0.1348,-0.5903,0.4167,15,-38.0859,-73.8525,5.7373,141,0.7844,0.6123,-11.4765,-31.9093,29,0.9154,8058,4.0711,132.6398
rg,1624882390971287022,1,-0.0078,-0.7483,0.5867,16,-136.4136,-122.2534,-20.752,141,0.7534,0.5943,-15.4676,-38.6434,29,0.9114,8012,4.0711,134.9836
rg,1624882390971304059,1,0.0605,-0.939,0.5693,17,-152.5269,-127.1362,-18.4326,141,0.7344,0.4952,-19.2199,-46.4246,29,0.9024,8210,4.0711,138.205
rg,1624882390971321633,1,0.2949,-1.3718,0.6716,18,-149.292,-123.5352,29.48,141,0.7274,0.4292,-21.1097,-54.7472,29,0.8964,8115,4.0711,143.2764
rg,1624882390971338855,1,0.427,-1.4053,0.645,19,0.7935,-48.5229,58.5938,141,0.7254,0.4232,-20.0536,-56.2289,29,0.8944,8186,4.0711,146.5501
rg,1624882390971355577,1,0.4656,-1.3625,0.2769,20,62.1338,-33.2642,76.7822,141,0.7254,0.4132,-18.5132,-55.2315,29,0.8894,8384,4.0711,149.7084
rg,1624882390971372485,1,0.6204,-1,0.4041,21,110.4736,3.9062,67.5659,141,0.7234,0.3992,-16.7167,-51.7341,29,0.8864,8162,4.0711,151.3824
rg,1624882390971389281,1,0.2036,-0.4656,0.2234,22,164.7949,62.3169,-17.5781,141,0.7234,0.3922,-15.805,-44.9502,29,0.8834,8375,4.0711,149.0785
rg,1624882390971406040,1,-0.0698,-0.0933,0.0908,23,166.8701,73.7915,-41.5649,141,0.7244,0.3922,-12.5986,-37.9034,29,0.8814,8148,4.0711,144.9243
rg,1624882390971422948,1,-0.1753,0.0132,0.071,24,123.5352,125.4272,-40.7104,189,0.7254,0.3962,-7.2592,-31.6114,30,0.8804,8344,4.0183,140.649
rg,1624882390971439651,1,-0.27,0.0789,0.0176,25,32.8369,117.6758,3.479,189,0.7284,0.4012,-1.0289,-29.5222,30,0.8824,8220,4.0183,138.3306
rg,1624882390971456485,1,-0.3367,-0.2485,0.2163,26,-147.1558,51.1475,14.5874,189,0.7344,0.4132,2.6393,-35.9189,30,0.8854,8360,4.0183,137.6329
rg,1624882390971473966,1,-0.3987,-0.6633,0.9019,27,-227.356,2.8076,9.8877,189,0.7424,0.4312,3.1537,-44.9534,30,0.8904,8284,4.0183,137.847
rg,1624882390971491151,1,-0.1267,-2.0017,1.5356,28,-209.5337,-82.8247,10.9863,189,0.7504,0.4462,1.3288,-53.4798,29,0.8954,8448,4.0183,140.6253
rg,1624882390971507725,1,0.2397,-2.0312,0.6406,29,10.498,-70.1294,14.1602,189,0.7614,0.4752,-0.1723,-53.7535,29,0.9014,8321,4.0183,143.2053
rg,1624882390971524874,1,0.1482,-1.2146,0.9529,30,125.8545,18.0054,7.5684,189,0.7804,0.5102,0.3015,-48.6475,29,0.9054,8541,4.0183,142.822
rg,1624882390971541355,1,0.1172,-0.957,0.7236,31,158.9966,17.8833,14.5264,189,0.8064,0.5503,0.9808,-42.4663,29,0.9104,8400,4.0183,142.7021
rg,1624882390971557800,1,0.009,-0.7,0.4724,32,123.1689,5.5542,-4.5166,189,0.8304,0.5893,0.9709,-38.0798,29,0.9134,8379,4.0183,142.4092
rg,1624882391306592472,1,-0.2532,-0.5967,0.377,33,39.917,-27.6489,-15.0146,189,0.8614,0.6723,-0.849,-38.2673,29,0.9174,24690,4.0183,143.2365
rg,1624882391306641949,1,-0.2546,-0.6199,0.4329,34,-36.1328,-93.75,-18.6768,189,0.8264,0.6813,-3.9161,-40.2493,29,0.9164,8745,4.0183,145.0414
rg,1624882391306672711,1,0.0759,-0.8247,0.6638,35,-142.0288,-163.208,8.8501,189,0.7594,0.6583,-8.3775,-46.8492,29,0.9064,9115,4.0183,149.8501
rg,1624882391306702879,1,0.5005,-1.4385,0.4216,36,-122.9248,-101.8066,29.2358,189,0.7204,0.4312,-10.4925,-53.3697,29,0.8924,19206,4.0183,153.9417
rg,1624882391306731639,1,0.5103,-1.2561,0.636,37,-66.04,-33.6914,53.0396,189,0.7214,0.4052,-7.9073,-52.419,29,0.8924,7949,4.0183,154.345
rg,1624882391306760639,1,0.1479,-0.929,0.449,38,96.9849,44.8608,68.1763,189,0.7194,0.3972,-4.6893,-49.0363,29,0.8864,8086,4.0183,154.7371
rg,1624882391306788806,1,0.4119,-0.7673,0.3308,39,93.4448,-32.7148,72.0825,189,0.7224,0.3862,-4.2819,-46.1443,29,0.8854,7913,4.0183,157.6786
rg,1624882391306816491,1,0.3218,-0.6924,0.2825,40,81.9092,1.5869,36.5601,189,0.7214,0.3812,-3.509,-43.2353,29,0.8814,8099,4.0183,157.2239
rg,1624882391306843954,1,0.0647,-0.5278,0.2568,41,97.0459,34.8511,6.1646,189,0.7214,0.3822,-2.4295,-40.1185,30,0.8794,8490,4.0183,156.5232
rg,1624882391306869878,1,-0.0718,-0.2708,0.1499,42,85.2051,56.2744,3.3569,189,0.7224,0.3812,-0.0022,-37.472,30,0.8774,8262,4.0183,155.2626
rg,1624882391306896526,1,-0.1086,-0.0989,0.1826,43,26.9165,31.9214,5.3711,189,0.7234,0.3812,2.1958,-36.085,30,0.8774,8577,4.0183,154.6828
rg,1624882391306922988,1,-0.1411,-0.1387,0.3079,44,-25.8789,22.3999,4.5776,189,0.7274,0.3852,3.3916,-37.0086,30,0.8784,8279,4.0183,154.297
rg,1624882391306948616,1,-0.052,-0.6731,0.8159,45,-144.4702,0.9766,21.8506,189,0.7334,0.3992,3.9572,-42.8159,29,0.8824,8371,4.0183,154.9373
rg,1624882391306974355,1,0.135,-1.5312,1.022,46,-144.2261,-2.8076,24.6582,189,0.7424,0.4202,4.2667,-49.0277,29,0.8874,8310,4.0183,155.684
rg,1624882391306999705,1,-0.0063,-1.7983,0.8499,47,-23.1323,7.8735,4.0894,189,0.7514,0.4402,4.4367,-50.5655,29,0.8924,8558,4.0183,155.5043
rg,1624882391307026983,1,-0.0198,-1.4944,0.8596,48,28.6255,6.1035,1.5869,189,0.7614,0.4612,4.4927,-49.7999,29,0.8974,8147,4.0183,155.3265
rg,1624882391307086040,1,-0.0093,-0.9897,0.821,49,88.2568,-4.2725,9.8877,189,0.7804,0.4962,4.5106,-46.2572,29,0.9044,8580,4.0183,155.7125
rg,1624882391307114059,1,0.1731,-0.8933,0.5442,50,83.4351,-26.4282,17.7002,189,0.8074,0.5323,3.7215,-43.3115,29,0.9104,8219,4.0183,156.9103
rg,1624882391307140540,1,0.1348,-0.8718,0.4028,51,69.458,-22.4609,11.1694,189,0.8294,0.5673,3.061,-41.6124,29,0.9134,8740,4.0183,157.3654
rg,1624882391307166668,1,0.0618,-0.8274,0.3857,52,59.4482,-1.4648,2.8076,189,0.8434,0.5953,2.8262,-40.1265,29,0.9164,7995,4.0183,157.4367
rg,1624882391307192463,1,-0.1099,-0.7026,0.4531,53,35.0342,-1.2207,-3.9062,189,0.8464,0.6143,2.8775,-39.3844,29,0.9184,8205,4.0183,157.3173
rg,1624882391307218332,1,-0.0925,-0.605,0.4739,54,-52.4902,-62.1948,4.5166,189,0.8164,0.6213,1.2768,-41.8944,29,0.9174,8159,4.0183,159.0515
rg,1624882391307245257,1,0.0747,-0.7041,0.5928,55,-112.9761,-95.6421,7.3242,189,0.7634,0.6153,-2.356,-48.6157,29,0.9114,9297,4.0183,162.617
rg,1624882391307272553,1,0.2781,-1.1299,0.5889,56,-175.6592,-122.4365,5.9814,189,0.7364,0.5022,-5.5113,-56.4199,29,0.9034,8149,4.0183,166.7012
rg,1624882391307298533,1,0.3967,-1.5706,0.5833,57,-127.0142,-73.2422,42.8467,189,0.7254,0.4312,-5.8285,-62.3154,29,0.8954,8319,4.0183,170.1704
rg,1624882391307324625,1,0.3376,-1.2844,0.7146,58,-56.1523,-28.0151,65.6738,189,0.7234,0.4052,-2.8264,-60.6241,29,0.8964,8178,4.0183,170.2443
rg,1624882391307350364,1,0.385,-1.23,0.3291,59,83.1909,35.6445,95.7642,189,0.7234,0.3962,0.6286,-57.8448,29,0.8904,8401,4.0183,170.9776
rg,1624882391307378123,1,0.3247,-0.9033,0.3184,60,127.9297,68.9697,35.2783,189,0.7224,0.3832,2.587,-53.2451,29,0.8864,12443,4.0183,169.4569
rg,1624882391307404419,1,0.1248,-0.6699,0.1899,61,162.9028,77.0874,-5.4932,189,0.7224,0.3862,3.7665,-47.0301,29,0.8834,9021,4.0183,166.1086
rg,1624882391307430084,1,-0.1187,-0.1929,0.0808,62,181.3965,105.7129,-38.4521,189,0.7234,0.3852,6.7183,-40.8426,29,0.8824,8507,4.0183,162.0669
rg,1624882391307456657,1,-0.2654,0.1079,0.1152,63,137.146,133.5449,-15.3809,189,0.7244,0.3902,12.4369,-34.8278,29,0.8814,8872,4.0183,158.4996
rg,1624882391307482396,1,-0.3162,0.1304,0.0706,64,-1.77,88.1348,18.1274,189,0.7294,0.3962,17.7594,-34.2758,29,0.8844,8876,4.0183,157.2712
rg,1624882391813324319,1,-0.0403,-2.1667,0.9475,65,-135.437,-81.7871,29.48,189,0.7554,0.4482,15.3114,-40.0493,29,0.9024,26370,4.0183,159.9564
rg,1624882391813367959,1,0.2061,-1.3984,1.011,66,103.7598,8.4839,11.0474,189,0.7774,0.4942,15.0146,-36.4398,29,0.9084,15514,4.0183,159.9189
rg,1624882391813388454,1,0.1272,-1.0701,0.8235,67,151.6113,24.353,14.2212,189,0.8044,0.5293,15.373,-31.0614,29,0.9134,7857,4.0183,159.641
rg,1624882391813408597,1,-0.0547,-0.675,0.4343,68,150.7568,12.5732,0.6714,189,0.8284,0.5563,15.444,-26.1453,29,0.9164,7887,4.0183,159.1223
rg,1624882391813427777,1,-0.262,-0.5063,0.407,69,123.5962,20.2026,-6.4087,189,0.8444,0.5833,16.4197,-23.2097,29,0.9184,7774,4.0183,158.3431
rg,1624882391813446159,1,-0.2695,-0.4207,0.4512,70,76.5381,4.1504,-3.7842,189,0.8514,0.6083,16.8336,-20.9454,29,0.9215,7765,4.0183,157.9306
rg,1624882391813464375,1,-0.3826,-0.4495,0.3015,71,-29.3579,-68.2373,-19.2871,189,0.8234,0.6163,14.8293,-23.1368,29,0.9225,8409,4.0183,157.9177
rg,1624882391813482220,1,-0.1355,-0.7183,0.6157,72,-187.3779,-185.6689,-1.4038,189,0.7674,0.6133,8.0206,-30.9345,29,0.9174,8901,4.0183,161.0608
rg,1624882391813499417,1,0.3154,-1.2637,0.7241,73,-224.2432,-233.4595,-5.4321,189,0.7334,0.5353,-0.5858,-40.8315,29,0.9094,8109,4.0183,166.7403
rg,1624882391813517577,1,0.5457,-1.5569,0.6592,74,-203.3081,-216.7969,23.3154,189,0.7234,0.4282,-6.6111,-50.3058,29,0.9064,8451,4.0183,-186.3642
rg,1624882391813537090,1,0.7883,-1.5107,0.905,75,-19.3481,-50.6592,69.8853,189,0.7214,0.3992,-6.3878,-51.7483,29,0.9084,8471,4.0183,-182.9693
rg,1624882391813575745,1,0.7266,-1.2249,0.5256,76,86.5479,15.7471,126.2207,189,0.7214,0.3952,-2.971,-49.0245,29,0.9044,8334,4.0183,-180.2062
rg,1624882391813596759,1,0.7227,-1.0281,0.5593,77,100.8301,37.8418,109.314,189,0.7214,0.3802,-0.2756,-44.8811,29,0.9014,8614,4.0183,-180.881
rg,1624882391813616643,1,0.2419,-0.7524,0.3503,78,128.2349,91.0645,0.6714,189,0.7224,0.3772,1.778,-40.5402,29,0.8994,8722,4.0183,-183.3576
rg,1624882391813634599,1,-0.1265,-0.4011,0.2029,79,134.0332,122.3145,-45.2271,189,0.7214,0.3752,5.0175,-36.2931,29,0.8984,8393,4.0183,-187.8255
rg,1624882391813652852,1,-0.3252,-0.1509,0.0959,80,129.8828,149.353,-15.1978,189,0.7224,0.3782,11.4738,-32.0619,29,0.8974,8547,4.0183,168.3171
rg,1624882391813670808,1,-0.3442,0.0254,0.1533,81,44.9829,89.9048,11.1694,189,0.7284,0.3832,16.6475,-29.9834,29,0.8984,10430,4.0183,166.9638
rg,1624882391813688357,1,-0.4028,-0.251,0.3091,82,-114.9902,-7.6904,0.6714,189,0.7344,0.3952,17.4897,-34.7799,29,0.9004,8194,4.0183,167.0397
rg,1624882391813706388,1,-0.3005,-1.053,1.2783,83,-222.5952,-88.0127,10.376,189,0.7414,0.4162,14.7488,-43.0918,29,0.9034,8393,4.0183,169.6422
rg,1624882391813724010,1,-0.0276,-1.6384,1.417,84,-207.0923,-98.8159,19.9585,189,0.7494,0.4332,12.1798,-48.2421,29,0.9084,8329,4.0183,-187.4877
rg,1624882391813741911,1,0.2002,-1.9692,0.6785,85,-34.1187,-60.4858,7.9346,189,0.7594,0.4612,10.1902,-50.0789,29,0.9124,8562,4.0183,-185.5855
rg,1624882391813760201,1,0.0864,-1.2761,0.9307,86,85.144,2.1973,-6.2256,189,0.7784,0.4952,9.5393,-46.8661,29,0.9174,9159,4.0183,-185.861
rg,1624882391813778250,1,0.0208,-0.8069,0.5588,87,126.4648,-4.6387,6.5918,189,0.8044,0.5313,9.1741,-42.0989,29,0.9235,8916,4.0183,-185.6122
rg,1624882391813795725,1,-0.0525,-0.6494,0.4287,88,82.4585,-6.2256,-5.0049,189,0.8274,0.5593,8.6574,-39.3713,29,0.9265,9223,4.0183,-185.6962
rg,1624882391813813069,1,-0.1594,-0.6372,0.4204,89,34.4849,-11.6577,-8.3618,189,0.8354,0.5823,8.2241,-38.6454,29,0.9285,9023,4.0183,-185.7593
rg,1624882391813832508,1,-0.1711,-0.6035,0.384,90,0.6714,-29.8462,-5.6763,189,0.8174,0.5883,6.416,-41.2432,29,0.9295,8881,4.0183,-184.3866
rg,1624882391813888027,1,0.0244,-0.7048,0.5579,91,-111.145,-95.8252,-1.709,189,0.7704,0.5823,3.2962,-45.8549,29,0.9265,8984,4.0183,-181.8162
rg,1624882391813920863,1,0.271,-1.0024,0.6401,92,-168.2739,-130.6763,-8.5449,189,0.7384,0.5022,-0.9624,-52.9247,29,0.9154,8739,4.0183,-178.0596
rg,1624882391813946992,1,0.4507,-1.3921,0.554,93,-126.2207,-82.1533,21.9116,189,0.7284,0.4112,-2.688,-58.6229,29,0.9054,9004,4.0183,-174.8111
rg,1624882391813966301,1,0.5623,-1.304,0.9309,94,-3.8452,14.0991,62.0117,189,0.7254,0.3912,-0.9325,-58.6345,29,0.9044,9122,4.0183,-174.0177
rg,1624882391813984720,1,0.4727,-1.1282,0.4834,95,69.6411,31.7383,81.4209,189,0.7234,0.3752,1.7034,-56.1389,29,0.8984,9186,4.0183,-173.3565
rg,1624882391814002399,1,0.29,-0.9653,0.4136,96,85.2661,57.312,28.6865,189,0.7234,0.3702,3.2854,-53.1835,29,0.8954,8895,4.0183,-174.6008
rg,1624882392169332825,1,-0.2073,-0.1016,0.1013,97,157.1045,98.5107,-24.353,189,0.7254,0.3642,6.8284,-47.0461,29,0.8884,24900,4.0183,-178.1469
rg,1624882392169368144,1,-0.2732,0.1477,0.1287,98,14.6484,59.4482,18.7988,189,0.7334,0.3742,10.8489,-45.3082,29,0.8914,15642,4.0183,-179.1683
rg,1624882392169388582,1,-0.3455,-0.4656,0.533,99,-183.7158,-27.2827,17.7612,189,0.7404,0.3962,11.2601,-52.2255,29,0.8944,7907,4.0183,-177.8615
rg,1624882392169407687,1,-0.0063,-1.9304,1.9146,100,-229.9194,-109.7412,17.5781,189,0.7494,0.4212,9.0038,-60.3758,29,0.9014,7986,4.0183,-173.677
rg,1624882392169427125,1,0.0891,-2.1907,0.8391,101,-107.3608,-106.5674,19.8364,189,0.7584,0.4412,7.3073,-64.3877,29,0.9074,8190,4.0183,-169.5294
rg,1624882392169445618,1,0.366,-1.7051,0.8098,102,65.918,-48.5229,12.085,189,0.7774,0.4762,6.1502,-61.5225,29,0.9124,8066,4.0183,-167.5863
rg,1624882392169464241,1,0.2053,-0.9724,0.7261,103,159.9121,21.1792,27.5879,189,0.8024,0.5052,6.9124,-54.8276,29,0.9174,8296,4.0183,-167.7307
rg,1624882392169482474,1,0.115,-0.749,0.5024,104,165.2222,20.0195,22.4609,189,0.8244,0.5333,7.8182,-48.3056,29,0.9215,8428,4.0183,-167.8274
rg,1624882392169499763,1,-0.1304,-0.5217,0.4104,105,109.314,28.2593,-2.6855,189,0.8364,0.5623,8.6467,-44.1999,29,0.9245,8356,4.0183,-168.7409
rg,1624882392169517237,1,-0.2852,-0.4785,0.3938,106,39.1846,4.5776,-2.9907,189,0.8404,0.5823,9.3242,-42.8896,29,0.9255,8220,4.0183,-168.9812
rg,1624882392169534655,1,-0.2942,-0.6045,0.448,107,-76.9043,-90.21,-9.7046,189,0.8114,0.5923,6.9674,-46.018,29,0.9255,8532,4.0183,-166.7774
rg,1624882392169576885,1,-0.167,-0.7109,0.5725,108,-142.8223,-137.5122,-9.0942,189,0.7644,0.5813,3.2323,-51.5584,29,0.9194,8348,4.0183,-162.8918
rg,1624882392169595971,1,0.2549,-1.1953,0.7026,109,-196.6553,-201.1108,-1.0376,189,0.7384,0.4922,-1.8348,-59.6267,29,0.9114,8310,4.0183,-156.277
rg,1624882392169613407,1,0.5762,-1.6504,0.5525,110,-130.9204,-138.0005,34.668,189,0.7274,0.4062,-3.7671,-65.5462,29,0.9044,8503,4.0183,-150.6942
rg,1624882392169630140,1,0.5154,-1.2964,0.6653,111,46.0205,12.8784,69.458,189,0.7244,0.3872,-1.6578,-63.6231,29,0.9014,11692,4.0183,-149.9945
rg,1624882392169647558,1,0.541,-0.9775,0.4751,112,124.7559,2.4414,87.5244,189,0.7254,0.3732,0.4964,-58.6635,29,0.8974,8138,4.0183,-148.4456
rg,1624882392169664754,1,0.4954,-0.7993,0.4089,113,122.2534,8.728,52.1851,189,0.7244,0.3622,0.5197,-53.8766,29,0.8944,8215,4.0183,-149.5741
rg,1624882392169681431,1,0.0933,-0.5488,0.1846,114,134.3384,56.7627,-30.9448,189,0.7234,0.3552,0.5745,-49.2059,29,0.8914,8168,4.0183,-152.1432
rg,1624882392169698479,1,-0.1873,-0.2566,0.1108,115,135.7422,126.4038,-31.5552,189,0.7234,0.3522,4.329,-44.5422,29,0.8874,8187,4.0183,-156.6493
rg,1624882392169715082,1,-0.2751,-0.0229,0.1331,116,97.0459,118.6523,4.6387,189,0.7254,0.3532,9.8904,-40.4678,29,0.8884,8598,4.0183,-159.6255
rg,1624882392169731740,1,-0.2952,0.0276,0.1978,117,-17.6392,42.2974,12.6343,189,0.7284,0.3592,13.2037,-40.3381,29,0.8894,9189,4.0183,-160.1807
rg,1624882392169748788,1,-0.3201,-0.1582,0.3052,118,-106.9946,-8.0566,9.1553,189,0.7344,0.3672,13.563,-44.352,30,0.8934,8508,4.0183,-159.6593
rg,1624882392169766169,1,-0.2234,-0.98,1.3186,119,-240.4785,-80.0781,14.8926,189,0.7414,0.3862,11.6945,-52.9867,30,0.8974,8805,4.0183,-156.7044
rg,1624882392169783421,1,0.179,-2.0403,0.9919,120,-142.0288,-71.3501,20.0806,189,0.7504,0.4162,10.1325,-58.5281,30,0.9034,8919,4.0183,-153.9018
rg,1624882392169800339,1,0.2253,-1.6621,0.7722,121,19.2871,-12.3291,-5.0049,189,0.7614,0.4292,9.0361,-57.9539,30,0.9104,8652,4.0183,-153.6315
rg,1624882392169817924,1,-0.0176,-0.9341,0.8682,122,95.6421,27.4048,-0.7935,189,0.7774,0.4612,9.2967,-53.8422,29,0.9154,9016,4.0183,-154.5121
rg,1624882392169835286,1,0.0337,-0.7268,0.5276,123,97.29,10.7422,11.3525,189,0.8014,0.4942,8.7996,-50.8789,29,0.9204,8855,4.0183,-154.1482
rg,1624882392169852908,1,0.0532,-0.7607,0.5308,124,43.457,-21.4844,-6.4087,189,0.8224,0.5213,7.5792,-49.2312,29,0.9235,8661,4.0183,-153.6793
rg,1624882392169869882,1,0.0176,-0.8828,0.4346,125,13.5498,-24.7803,-12.6343,189,0.8384,0.5543,6.2224,-49.203,29,0.9265,11466,4.0183,-153.329
rg,1624882392169887189,1,-0.0356,-0.7854,0.4651,126,5.9814,-28.3203,-13.7939,189,0.8344,0.5693,4.7724,-50.0452,29,0.9305,9026,4.0183,-152.4059
rg,1624882392169904329,1,0.1492,-0.813,0.5845,127,-98.999,-84.6558,5.188,189,0.7834,0.5713,2.347,-53.9746,29,0.9275,9262,4.0183,-149.5982
rg,1624882392169924712,1,0.2197,-0.9392,0.5618,128,-136.1694,-106.6895,3.7842,189,0.7434,0.5203,-0.5438,-60.518,29,0.9194,8593,4.0183,-145.5314
rg,1624882392475773239,1,0.3083,-1.2061,0.5498,129,58.4717,30.9448,67.0166,189,0.7254,0.3772,1.8906,-58.3556,29,0.9054,24398,4.0183,-145.2518
rg,1624882392475825791,1,0.5579,-1.1028,0.551,130,85.5713,-14.7705,87.3413,189,0.7264,0.3622,3.4796,-55.0004,29,0.9014,9066,4.0183,-142.8833
rg,1624882392475880195,1,0.47,-1.0029,0.4165,131,102.0508,8.2397,56.1523,189,0.7244,0.3532,4.7462,-51.4514,29,0.8984,7991,4.0183,-141.8672
rg,1624882392475902653,1,0.0813,-0.7488,0.2664,132,162.1094,38.6353,-9.3994,189,0.7244,0.3462,5.0745,-45.8344,29,0.8964,8074,4.0183,-143.3624
rg,1624882392475923555,1,-0.1672,-0.3198,0.1357,133,180.7251,97.0459,-25.3296,189,0.7234,0.3452,8.0268,-39.7489,29,0.8944,7975,4.0183,-146.7825
rg,1624882392475943531,1,-0.249,-0.1243,0.1089,134,180.1147,122.9858,-11.3525,189,0.7244,0.3432,14.0268,-32.921,29,0.8924,8284,4.0359,-149.024
rg,1624882392475962431,1,-0.2708,0.1675,0.1113,135,124.5117,86.1206,27.4048,152,0.7264,0.3462,19.2753,-26.7455,29,0.8934,8007,4.0359,-149.3778
rg,1624882392476020152,1,-0.2424,0.1812,0.114,136,-50.5371,-7.5073,29.2358,152,0.7294,0.3552,21.0879,-26.7302,29,0.8944,9275,4.0359,-147.588
rg,1624882392476043408,1,-0.2778,-0.4863,0.7231,137,-252.9297,-87.0972,18.8599,152,0.7364,0.3712,18.3987,-36.1932,29,0.8974,8178,4.0359,-145.0676
rg,1624882392476063346,1,-0.0601,-1.1963,1.9031,138,-313.9648,-105.4077,25.0854,152,0.7434,0.3932,15.6082,-46.3632,29,0.9044,8385,4.0359,-141.6642
rg,1624882392476082469,1,0.2017,-2.2971,0.6663,139,-130.4321,-69.519,23.8647,152,0.7514,0.4082,13.7791,-51.8953,29,0.9094,8608,4.0359,-139.1005
rg,1624882392476101092,1,0.3059,-1.6484,0.8657,140,29.6631,-7.2632,-6.4697,152,0.7614,0.4312,12.5125,-51.101,29,0.9144,8454,4.0359,-139.137
rg,1624882392476119751,1,0.02,-0.7964,0.8853,141,99.6094,44.1895,4.5776,152,0.7854,0.4582,13.2731,-47.0288,29,0.9215,8730,4.0359,-140.3239
rg,1624882392476137874,1,0.0256,-0.7356,0.4829,142,53.5278,2.5024,5.249,152,0.8114,0.4902,11.9181,-46.8355,29,0.9255,11128,4.0359,-140.359
rg,1624882392476171358,1,-0.0076,-0.8572,0.4675,143,-7.2021,-22.8882,-22.3999,152,0.8264,0.5102,10.2038,-47.68,29,0.9285,8104,4.0359,-140.4066
rg,1624882392476190258,1,-0.0317,-0.9556,0.3962,144,-9.8877,-30.7007,-11.7188,152,0.8284,0.5303,8.7283,-48.7426,29,0.9305,9929,4.0359,-139.9272
rg,1624882392476207936,1,-0.0205,-0.8538,0.4709,145,-44.5557,-62.3779,-7.6904,152,0.8064,0.5363,6.6008,-50.7695,29,0.9305,8388,4.0359,-138.2706
rg,1624882392476226725,1,0.1375,-0.9414,0.51,146,-94.8486,-105.0415,-1.3428,152,0.7584,0.5273,3.4891,-54.6714,29,0.9225,9398,4.0359,-134.9748
rg,1624882392476244348,1,0.2402,-1.1909,0.4675,147,-84.5947,-101.8066,21.6064,152,0.7374,0.4692,1.4311,-58.4047,29,0.9114,10134,4.0359,-131.113
rg,1624882392476262155,1,0.4128,-1.3271,0.5977,148,-42.9077,-65.0024,57.1289,152,0.7314,0.3972,1.4059,-60.3009,29,0.9064,8863,4.0359,-127.7111
rg,1624882392476279907,1,0.3779,-1.1877,0.2583,149,14.0381,-23.0103,67.1387,152,0.7274,0.3782,3.456,-57.8764,29,0.9064,8893,4.0359,-126.5934
rg,1624882392476300697,1,0.5024,-1.1479,0.3752,150,90.6372,-4.5776,83.1909,152,0.7274,0.3622,5.1249,-54.6087,29,0.9034,8691,4.0359,-124.6567
rg,1624882392476320525,1,0.2898,-0.8701,0.3799,151,130.3711,45.5933,45.2881,152,0.7274,0.3452,6.8148,-49.8813,29,0.9004,9026,4.0359,-125.0747
rg,1624882392476339648,1,0.0242,-0.4709,0.2014,152,170.7153,71.228,-1.9531,152,0.7274,0.3392,8.3278,-44.0175,29,0.8994,8532,4.0359,-127.3283
rg,1624882392476357603,1,-0.1733,-0.0903,0.1145,153,161.1328,117.4927,-13.0005,152,0.7274,0.3352,13.0063,-38.0827,29,0.8974,8660,4.0359,-130.7597
rg,1624882392476375966,1,-0.2542,0.146,0.1633,154,93.4448,93.75,7.6294,152,0.7284,0.3412,17.8045,-33.3575,29,0.8974,9095,4.0359,-132.3613
rg,1624882392476393551,1,-0.2927,0.157,0.2058,155,18.9209,60.5469,11.7188,152,0.7334,0.3492,19.8723,-35.5972,29,0.8984,9019,4.0359,-132.0346
rg,1624882392476411303,1,-0.3828,-0.3154,0.4709,156,-170.105,-42.6025,4.2114,152,0.7414,0.3652,18.529,-42.003,29,0.9034,9727,4.0359,-130.7727
rg,1624882392476428944,1,-0.1243,-1.4741,1.7561,157,-273.6816,-129.7607,10.1929,152,0.7484,0.3902,14.7152,-51.5911,29,0.9074,8490,4.0359,-126.4655
rg,1624882392476530952,1,0.2454,-2.1633,0.5913,158,-72.8149,-101.4404,9.4604,152,0.7574,0.4142,11.8182,-54.5587,29,0.9124,8696,4.0359,-123.1085
rg,1624882392476556727,1,0.2192,-1.3401,0.907,159,42.8467,-8.0566,-16.4795,152,0.7694,0.4322,10.3382,-52.9184,29,0.9174,8579,4.0359,-123.2608
rg,1624882392476645597,1,0.0237,-0.7361,0.697,160,79.7119,20.813,-9.3384,152,0.7874,0.4552,10.51,-49.0417,29,0.9225,8654,4.0359,-123.4716
rg,1624882392839620346,1,0.1062,-0.876,0.4316,161,-3.6621,-39.2456,-24.1699,152,0.8314,0.5123,8.1202,-49.6655,29,0.9305,25548,4.0359,-123.0012
rg,1624882392839666208,1,0.0627,-0.918,0.3503,162,-3.479,-32.8369,-17.8223,152,0.8364,0.5323,6.2897,-50.4836,29,0.9315,8764,4.0359,-122.548
rg,1624882392839696542,1,0.051,-0.8506,0.4844,163,-46.3257,-53.6499,-4.1504,152,0.8124,0.5403,4.4703,-52.5613,29,0.9325,8601,4.0359,-120.997
rg,1624882392839725338,1,0.1497,-0.8928,0.5071,164,-76.2939,-76.416,2.6245,152,0.7684,0.5373,2.1906,-55.9153,29,0.9275,8051,4.0359,-118.4685
rg,1624882392839753615,1,0.2507,-1.1636,0.4829,165,-99.7925,-91.1865,12.3291,152,0.7424,0.4732,0.171,-60.2616,29,0.9215,8131,4.0359,-115.1087
rg,1624882392839780150,1,0.2969,-1.3411,0.3862,166,-45.4102,-43.7012,42.7856,152,0.7324,0.3942,0.3632,-62.5774,29,0.9124,8389,4.0359,-112.751
rg,1624882392839805740,1,0.3218,-1.1499,0.6316,167,72.2656,24.7803,76.9653,152,0.7294,0.3592,2.9725,-59.609,29,0.9104,8658,4.0359,-112.1557
rg,1624882392839832126,1,0.449,-0.8857,0.4287,168,125.7935,18.2495,72.8149,152,0.7284,0.3462,4.7586,-54.6804,29,0.9074,17700,4.0359,-111.2522
rg,1624882392839859125,1,0.1021,-0.6267,0.3196,169,168.5791,63.5376,13.2446,152,0.7284,0.3382,6.2318,-48.435,29,0.9044,7906,4.0359,-112.9792
rg,1624882392839907321,1,-0.1182,-0.2844,0.2781,170,164.978,75.9277,-1.5259,152,0.7284,0.3352,9.1296,-42.6841,29,0.9024,9500,4.0359,-115.9088
rg,1624882392839935154,1,-0.1763,-0.1418,0.2341,171,134.3384,106.5674,1.5869,152,0.7284,0.3352,13.3179,-37.4598,29,0.9024,7976,4.0359,-118.5509
rg,1624882392839963208,1,-0.2251,0.0149,0.3267,172,61.0962,77.3926,15.8081,152,0.7294,0.3402,17.0928,-34.1149,29,0.9024,8043,4.0359,-119.5797
rg,1624882392839990318,1,-0.3235,-0.1733,0.5281,173,-83.8623,10.6201,4.8828,152,0.7354,0.3492,18.086,-36.9179,29,0.9054,8365,4.0359,-119.5157
rg,1624882392840016741,1,-0.3074,-0.8713,1.0901,174,-146.5454,-29.48,-0.4883,152,0.7414,0.3612,16.248,-44.1924,29,0.9094,8577,4.0359,-117.7652
rg,1624882392840049058,1,-0.1006,-1.3867,1.3779,175,-203.4302,-69.7021,16.8457,152,0.7494,0.3852,14.3713,-51.6303,29,0.9144,8339,4.0359,-115.129
rg,1624882392840077020,1,0.1633,-1.9355,0.8252,176,-62.9883,-61.4624,7.2021,152,0.7554,0.4092,12.4099,-54.2292,29,0.9174,8586,4.0359,-113.0672
rg,1624882392840104407,1,0.063,-1.2407,0.908,177,33.1421,-14.0381,-17.9443,152,0.7674,0.4272,10.9221,-52.8731,29,0.9215,8736,4.0359,-113.041
rg,1624882392840130646,1,-0.0164,-0.7866,0.7244,178,72.2046,-20.9351,5.0659,152,0.7834,0.4492,10.1621,-49.6141,29,0.9265,8400,4.0359,-112.2148
rg,1624882392840174302,1,0.1177,-0.7739,0.4844,179,32.8979,-62.9272,-7.3853,152,0.8084,0.4842,7.6181,-48.3552,29,0.9305,10894,4.0359,-110.5505
rg,1624882392840202060,1,0.1655,-0.8567,0.4836,180,17.5781,-69.397,-18.3105,152,0.8224,0.5092,4.603,-48.2271,29,0.9335,8130,4.0359,-109.2851
rg,1624882392840228002,1,0.1565,-0.9045,0.3755,181,18.5547,-54.5654,-17.8833,152,0.8324,0.5203,2.0974,-48.1479,29,0.9325,8378,4.0359,-108.1892
rg,1624882392840253277,1,0.1555,-0.8325,0.4077,182,-2.8687,-46.4478,-4.3335,152,0.8234,0.5413,0.2894,-48.8338,29,0.9345,8197,4.0359,-106.9298
rg,1624882392840279609,1,0.2349,-0.8643,0.512,183,-69.397,-64.6973,4.3945,152,0.7834,0.5413,-1.7399,-52.0227,29,0.9335,8333,4.0359,-104.8089
rg,1624882392840305903,1,0.2446,-0.9475,0.481,184,-86.4258,-68.8477,5.0659,152,0.7524,0.5022,-3.624,-55.9962,29,0.9265,8255,4.0359,-102.4301
rg,1624882392840331530,1,0.3196,-1.2551,0.5144,185,-72.937,-37.4756,34.9731,152,0.7324,0.4232,-3.618,-59.4741,29,0.9164,8440,4.0359,-100.3754
rg,1624882392840358899,1,0.4021,-1.2295,0.9392,186,10.8643,20.0806,66.04,152,0.7334,0.3792,-1.3771,-58.7939,29,0.9184,8351,4.0359,-99.7383
rg,1624882392840385804,1,0.3013,-1.0271,0.3081,187,80.4443,48.0347,66.8335,152,0.7294,0.3622,0.9603,-54.8051,29,0.9134,8540,4.0359,-98.7621
rg,1624882392840411654,1,0.3921,-0.9666,0.5347,188,122.9248,-0.8545,70.4956,152,0.7314,0.3492,2.3764,-50.0723,29,0.9104,8363,4.0359,-97.0619
rg,1624882392840438059,1,0.126,-0.7195,0.4241,189,146.2402,53.894,26.7334,152,0.7294,0.3402,4.1823,-44.6471,29,0.9054,8397,4.0359,-97.9658
rg,1624882392840488424,1,-0.1028,-0.3979,0.3411,190,153.0151,94.0552,8.5449,152,0.7294,0.3372,7.4673,-38.9514,29,0.9054,8603,4.0359,-100.2314
rg,1624882392840514570,1,-0.1968,-0.2393,0.3066,191,140.686,107.8491,9.1553,152,0.7284,0.3352,12.3104,-33.6797,29,0.9034,8399,4.0359,-102.1011
rg,1624882392840540086,1,-0.2458,0.0171,0.3162,192,94.6045,77.3315,19.7754,152,0.7314,0.3362,16.3848,-29.0232,29,0.9034,8593,4.0359,-102.7844
rg,1624882393237727703,1,-0.1748,-0.9604,1.2551,193,-231.9336,-101.0742,9.2773,152,0.7454,0.3652,12.85,-37.9236,29,0.9114,26206,4.0359,-100.2271
rg,1624882393237766781,1,0.2153,-2.0203,1.1536,194,-149.7192,-76.355,12.2681,152,0.7534,0.3912,10.2044,-44.2606,29,0.9164,8897,4.0359,-97.959
rg,1624882393237787719,1,0.1704,-1.5369,0.7854,195,2.4414,-19.5312,-13.0005,152,0.7644,0.4212,8.6846,-44.8547,29,0.9215,8754,4.0359,-97.9041
rg,1624882393237807787,1,-0.0078,-1.1145,0.9705,196,42.4194,2.8687,-22.0337,152,0.7794,0.4482,8.3056,-41.9926,29,0.9265,8719,4.0359,-98.2629
rg,1624882393237826983,1,0.0098,-0.6641,0.6414,197,71.167,-21.3623,5.9814,152,0.7984,0.4642,7.4638,-39.2027,29,0.9295,8269,4.0359,-97.5486
rg,1624882393237845309,1,0.157,-0.6697,0.4604,198,14.9536,-68.7256,-14.8926,152,0.8174,0.4942,4.2624,-39.094,29,0.9335,8385,4.0359,-96.3466
rg,1624882393237863690,1,0.2507,-0.8911,0.4573,199,-16.4185,-65.0024,-25.6958,152,0.8374,0.5143,0.9053,-40.6992,29,0.9355,12871,4.0359,-95.527
rg,1624882393237882293,1,0.2349,-0.8911,0.4023,200,-12.0239,-28.9307,-11.5356,152,0.8404,0.5333,-0.8242,-42.1022,29,0.9385,10557,4.0359,-95.1143
rg,1624882393237900785,1,0.2283,-0.8613,0.5012,201,-32.1045,-27.5269,2.3193,152,0.8124,0.5413,-2.0362,-44.0673,29,0.9365,7920,4.0359,-94.2759
rg,1624882393237918574,1,0.2505,-0.9529,0.4438,202,-79.834,-40.1611,6.897,152,0.7694,0.5363,-3.3955,-48.0981,29,0.9325,7872,4.0359,-92.8817
rg,1624882393237938604,1,0.2383,-1.2371,0.4185,203,-76.416,-27.832,24.7192,152,0.7444,0.4742,-3.6293,-52.1103,29,0.9265,8072,4.0359,-91.3304
rg,1624882393237957003,1,0.2439,-1.2683,0.405,204,-47.1802,-5.7373,39.1235,152,0.7344,0.3882,-1.8746,-52.9236,29,0.9174,8007,4.0359,-90.5918
rg,1624882393237993339,1,0.2747,-1.0862,1.0129,205,48.4619,32.5928,60.8521,152,0.7304,0.3592,0.4969,-50.7525,29,0.9194,8490,4.0359,-90.1356
rg,1624882393238012684,1,0.2397,-0.8872,0.2637,206,135.498,-2.7466,70.9839,152,0.7304,0.3522,1.9598,-46.1434,29,0.9164,8309,4.0359,-88.2093
rg,1624882393238029768,1,0.2102,-0.729,0.4924,207,123.7793,15.686,42.4805,152,0.7294,0.3392,2.9836,-41.5404,29,0.9134,8404,4.0359,-87.4605
rg,1624882393238047000,1,0.0669,-0.6416,0.4609,208,137.146,44.7388,21.4844,152,0.7274,0.3312,5.1427,-36.3009,29,0.9104,8585,4.0359,-88.6344
rg,1624882393238064418,1,-0.124,-0.3816,0.4175,209,132.1411,70.1904,6.5308,152,0.7284,0.3272,7.8912,-31.415,29,0.9094,8469,4.0359,-90.0013
rg,1624882393238081539,1,-0.25,-0.1445,0.4131,210,95.6421,71.5332,9.3384,152,0.7294,0.3302,11.3982,-27.3537,29,0.9074,9050,4.0359,-91.0074
rg,1624882393238099309,1,-0.2864,-0.0703,0.6143,211,-9.9487,4.6387,14.0991,152,0.7324,0.3312,12.3708,-26.9079,30,0.9084,8467,4.0359,-90.4281
rg,1624882393238117208,1,-0.2444,-0.4092,0.7034,212,-73.6084,-38.5742,8.7891,152,0.7374,0.3392,9.9473,-31.7785,30,0.9114,8386,4.0359,-88.7453
rg,1624882393238134904,1,0.0295,-1.0632,1.2073,213,-201.1108,-85.022,17.2119,152,0.7464,0.3532,7.18,-39.7773,30,0.9154,11605,4.0359,-86.2082
rg,1624882393238152581,1,0.2581,-1.7969,1.085,214,-132.1411,-44.3115,5.3711,152,0.7544,0.3762,5.4847,-45.6189,30,0.9204,8546,4.0359,-84.9047
rg,1624882393238170054,1,0.1724,-1.7559,0.8923,215,-65.7349,-27.5269,-14.2822,152,0.7664,0.4052,3.9178,-48.8756,29,0.9245,8369,4.0359,-84.5338
rg,1624882393238187101,1,-0.0298,-1.1509,0.8984,216,27.5269,-15.3198,-18.4937,152,0.7834,0.4292,2.8516,-47.8925,29,0.9285,8512,4.0359,-84.5736
rg,1624882393238215099,1,0.1321,-0.7874,0.4985,217,54.7485,-42.7246,13.3057,152,0.8054,0.4602,1.6521,-46.0154,29,0.9325,8413,4.0359,-82.9853
rg,1624882393238233720,1,0.2656,-0.731,0.377,218,21.8506,-67.627,-5.7983,152,0.8254,0.4862,-1.1427,-45.7465,29,0.9355,9246,4.0359,-81.2219
rg,1624882393238251397,1,0.314,-0.8289,0.3416,219,9.6436,-65.6738,-14.7095,152,0.8394,0.5112,-3.5338,-46.6259,29,0.9365,9005,4.0359,-80.2406
rg,1624882393238353939,1,0.2927,-0.8689,0.3484,220,-10.6201,-26.5503,-9.7656,152,0.8454,0.5233,-5.0866,-47.8759,29,0.9385,8686,4.0359,-79.6684
rg,1624882393238377175,1,0.1606,-0.9167,0.4194,221,-38.208,-11.5356,5.8594,152,0.8254,0.5413,-5.3745,-50.1148,29,0.9385,8662,4.0359,-79.1015
rg,1624882393238397890,1,0.2234,-1.0159,0.438,222,-79.5898,-39.4897,16.8457,152,0.7774,0.5333,-6.051,-54.0845,29,0.9325,9018,4.0359,-77.3656
rg,1624882393238418254,1,0.2441,-1.2437,0.3474,223,-79.895,-40.3442,26.2451,152,0.7434,0.4592,-6.2661,-58.2489,29,0.9245,8800,4.0359,-75.3426
rg,1624882393238437450,1,0.3037,-1.2041,0.3779,224,-6.4697,-9.4604,57.5562,152,0.7294,0.3702,-4.7893,-59.1914,29,0.9134,8786,4.0359,-73.7615
rg,1624882393504391956,1,0.3872,-0.8008,0.5061,225,122.6807,1.5869,71.0449,152,0.7264,0.3322,-3.0621,-54.3302,29,0.9124,27692,4.0359,-72.2985
rg,1624882393504441596,1,0.1951,-0.6868,0.481,226,136.9019,42.5415,39.2456,152,0.7254,0.3282,-1.0694,-47.8743,29,0.9114,8790,4.0359,-73.783
rg,1624882393504462664,1,-0.0332,-0.325,0.3896,227,154.3579,79.2236,7.8125,152,0.7244,0.3252,1.5775,-41.403,29,0.9084,8699,4.0359,-75.7841
rg,1624882393504481897,1,-0.2004,-0.0378,0.3967,228,110.2905,124.3896,6.4697,152,0.7274,0.3252,6.5649,-36.0113,29,0.9084,8377,4.0359,-78.621
rg,1624882393504500779,1,-0.3218,0.0642,0.542,229,3.418,90.8203,14.7095,152,0.7294,0.3302,10.827,-34.7721,29,0.9104,8225,4.0359,-80.1015
rg,1624882393504519086,1,-0.3821,-0.0745,0.6165,230,-73.3643,43.0908,10.1318,152,0.7344,0.3362,13.0534,-37.5861,29,0.9114,8452,4.0359,-80.7749
rg,1624882393504537096,1,-0.3962,-0.7744,1.0496,231,-211.0596,-57.9834,2.2583,152,0.7404,0.3542,11.5431,-45.5937,29,0.9154,8628,4.0359,-79.1286
rg,1624882393504555070,1,-0.0103,-1.7532,1.3784,232,-207.5195,-87.4634,14.2822,152,0.7474,0.3792,9.2833,-53.5409,29,0.9194,8199,4.0359,-76.0669
rg,1624882393504572469,1,0.1501,-1.7222,0.7527,233,-43.1519,-50.5981,-4.8828,152,0.7584,0.4102,7.4199,-55.5278,29,0.9235,9085,4.0359,-74.585
rg,1624882393504589849,1,-0.084,-1.0022,0.9277,234,31.4941,-25.7568,-23.0713,152,0.7884,0.4542,6.0195,-53.1363,29,0.9325,13649,4.0359,-73.2429
rg,1624882393504609842,1,0.1257,-0.6992,0.3901,235,42.2974,-72.7539,-1.2817,152,0.8104,0.4762,2.8635,-52.2775,29,0.9355,8260,4.0359,-70.2755
rg,1624882393504628242,1,0.2112,-0.7642,0.3655,236,5.9814,-114.6851,-15.8691,152,0.8294,0.4902,-1.076,-52.4409,29,0.9385,7950,4.0359,-67.0478
rg,1624882393504645789,1,0.3149,-0.915,0.311,237,1.0986,-98.6328,-20.813,152,0.8414,0.5072,-4.7686,-53.2174,29,0.9405,8071,4.0359,-64.3815
rg,1624882393504662781,1,0.3359,-0.9082,0.2754,238,-4.8828,-60.4248,-3.8452,152,0.8444,0.5213,-6.896,-54.3249,29,0.9415,8060,4.0359,-62.4447
rg,1624882393504679550,1,0.3721,-0.9043,0.3577,239,-27.9541,-51.6357,6.8359,152,0.8164,0.5333,-8.4239,-56.0867,29,0.9395,9112,4.0359,-60.5182
rg,1624882393504696208,1,0.3677,-0.9761,0.3911,240,-67.8711,-35.4004,9.3384,152,0.7724,0.5313,-9.2877,-59.4581,29,0.9355,8306,4.0359,-59.0266
rg,1624882393504712643,1,0.2747,-1.1633,0.2988,241,-57.6172,-6.2256,27.5269,152,0.7404,0.4752,-8.5982,-62.488,29,0.9285,8332,4.0359,-58.1653
rg,1624882393504728912,1,0.2891,-1.2424,0.3918,242,-22.3389,22.8271,58.0444,152,0.7314,0.3852,-6.2801,-63.7866,29,0.9245,9112,4.0359,-57.8786
rg,1624882393504745310,1,0.1133,-1.0352,0.5442,243,112.915,52.4292,58.4106,152,0.7274,0.3592,-3.2104,-59.1452,29,0.9275,8491,4.0359,-58.6225
rg,1624882393504761579,1,0.1887,-0.9763,0.2117,244,151.4282,4.3945,68.4204,152,0.7264,0.3442,-1.141,-53.8559,29,0.9245,8202,4.0359,-57.2415
rg,1624882393504778478,1,0.2444,-0.7107,0.4304,245,151.1841,2.8687,47.6685,152,0.7264,0.3282,-0.188,-48.015,29,0.9215,8375,4.0359,-56.1632
rg,1624882393504804752,1,-0.0474,-0.4465,0.407,246,175.354,65.1855,14.6484,134,0.7254,0.3162,2.2504,-41.0276,29,0.9194,8272,4.0447,-57.5645
rg,1624882393504822392,1,-0.1328,-0.3032,0.4048,247,157.0435,81.9092,15.7471,134,0.7244,0.3122,6.514,-35.1268,29,0.9174,8267,4.0447,-59.081
rg,1624882393504838995,1,-0.2424,-0.0911,0.4214,248,108.9478,81.665,29.9072,134,0.7264,0.3152,10.7818,-30.1058,29,0.9174,8421,4.0447,-59.7165
rg,1624882393504855449,1,-0.2361,-0.0229,0.5583,249,2.3804,3.3569,27.5879,134,0.7284,0.3192,11.9575,-28.8307,29,0.9174,8319,4.0447,-58.6096
rg,1624882393504872273,1,-0.229,-0.4036,0.8103,250,-132.7515,-71.9604,8.2397,134,0.7324,0.3302,9.7683,-33.6819,30,0.9204,8441,4.0447,-56.7827
rg,1624882393504888616,1,-0.1287,-0.7354,1.0896,251,-182.7393,-84.0454,12.085,134,0.7394,0.3432,6.9797,-40.9037,30,0.9245,8329,4.0447,-54.3612
rg,1624882393504905478,1,0.1775,-1.49,1.1624,252,-181.0303,-34.668,30.0903,134,0.7464,0.3592,6.3597,-48.3282,30,0.9285,8595,4.0447,-52.5439
rg,1624882393504922117,1,0.0781,-1.7041,0.9082,253,-68.4204,-5.4932,-7.2021,134,0.7544,0.3802,5.6608,-51.5825,30,0.9305,8437,4.0447,-52.61
rg,1624882393504939016,1,-0.1704,-1.0566,0.9265,254,14.5874,-8.8501,-30.6396,134,0.7674,0.4112,4.5349,-50.9202,29,0.9335,8702,4.0447,-53.0871
rg,1624882393504955581,1,-0.1753,-0.8386,0.8062,255,36.3159,-31.0059,-15.9302,134,0.7854,0.4372,3.1841,-49.4125,29,0.9375,8471,4.0447,-52.5378
rg,1624882393504972184,1,0.1045,-0.7373,0.4839,256,19.3481,-90.21,5.4932,134,0.8064,0.4632,0.6121,-48.8208,29,0.9415,8618,4.0447,-49.6785
rg,1624882393898473430,1,0.4822,-0.9983,0.3049,257,11.7188,-53.1006,-6.2866,134,0.8484,0.5153,-1.9336,-49.2055,29,0.9465,25515,4.0447,-48.2446
rg,1624882393898505171,1,0.3032,-0.9231,0.4097,258,-5.4932,11.7188,15.3198,134,0.8364,0.5413,-1.7475,-50.0475,29,0.9475,14910,4.0447,-48.1828
rg,1624882393898526276,1,0.207,-1.0193,0.4272,259,-51.3916,3.479,23.1934,134,0.7834,0.5383,-1.2892,-52.7613,29,0.9425,9695,4.0447,-47.6875
rg,1624882393898545917,1,0.1812,-1.1506,0.4124,260,-58.1665,-0.7935,28.1372,134,0.7504,0.4902,-0.6791,-55.7596,29,0.9365,7940,4.0447,-46.9852
rg,1624882393898564799,1,0.1963,-1.3267,0.5105,261,-26.3672,15.9912,46.875,134,0.7344,0.4062,0.9481,-57.313,29,0.9275,7861,4.0447,-46.4814
rg,1624882393898582828,1,0.22,-1.1328,1.1216,262,72.5708,40.7104,70.8618,134,0.7304,0.3642,3.8481,-53.9245,29,0.9305,9173,4.0447,-46.2371
rg,1624882393898600319,1,0.0969,-0.8542,0.3054,263,144.5923,54.5044,72.4487,134,0.7284,0.3592,6.1871,-47.2659,29,0.9275,8214,4.0447,-44.1261
rg,1624882393898617830,1,0.2466,-0.7083,0.4775,264,169.7998,-24.9023,90.4541,134,0.7274,0.3382,7.0828,-39.9821,29,0.9235,9051,4.0447,-40.852
rg,1624882393898635062,1,0.0974,-0.3948,0.5288,265,153.6255,34.2407,34.729,134,0.7264,0.3262,8.397,-33.6857,29,0.9194,8589,4.0447,-40.581
rg,1624882393898652183,1,-0.0657,-0.1704,0.4353,266,121.0938,66.8335,7.4463,134,0.7254,0.3252,10.8127,-28.5564,29,0.9184,8441,4.0447,-41.6545
rg,1624882393898686518,1,-0.2451,-0.0674,0.5137,267,46.0205,76.416,4.2114,134,0.7274,0.3282,14.1791,-26.2352,29,0.9164,8662,4.0447,-42.7882
rg,1624882393898704158,1,-0.2922,-0.0615,0.5742,268,-4.3335,47.4854,5.0659,134,0.7304,0.3322,14.9609,-28.3096,29,0.9174,8758,4.0447,-42.7391
rg,1624882393898721056,1,-0.2898,-0.6689,0.9348,269,-120.6055,-38.5132,-2.3193,134,0.7364,0.3412,12.4292,-35.0121,29,0.9204,10100,4.0447,-41.254
rg,1624882393898747535,1,-0.1436,-1.0037,1.2131,270,-203.2471,-82.2144,7.6904,134,0.7454,0.3542,9.7968,-42.8287,29,0.9255,8295,4.0447,-38.9248
rg,1624882393898769974,1,0.1943,-1.7195,1.1399,271,-152.6489,-64.5142,8.5449,134,0.7514,0.3782,7.6723,-49.1125,29,0.9255,8276,4.0447,-36.8667
rg,1624882393898788188,1,0.0559,-1.5122,0.8074,272,-31.6772,-38.4521,-26.2451,134,0.7604,0.4072,5.5155,-50.8115,29,0.9315,8387,4.0447,-36.4184
rg,1624882393898805365,1,-0.0732,-1.1567,0.8696,273,12.7563,-37.1094,-33.2642,134,0.7784,0.4372,3.4869,-50.2292,29,0.9355,8217,4.0447,-36.1084
rg,1624882393898822319,1,0.0068,-0.731,0.5422,274,63.4766,-80.4443,-7.5684,134,0.7984,0.4612,1.0055,-47.7239,29,0.9405,8413,4.0447,-33.8839
rg,1624882393898839181,1,0.2544,-0.6733,0.3501,275,32.2876,-130.5542,-6.958,134,0.8204,0.4842,-3.4678,-47.0528,29,0.9385,8240,4.0447,-30.2389
rg,1624882393898855802,1,0.4937,-0.8042,0.3481,276,9.9487,-114.1357,-1.6479,134,0.8394,0.4922,-7.5866,-47.6317,29,0.9455,8419,4.0447,-26.8632
rg,1624882393898872385,1,0.5764,-0.8906,0.3372,277,4.3335,-80.8105,1.77,134,0.8524,0.5163,-10.603,-48.5692,29,0.9455,8243,4.0447,-24.2737
rg,1624882393898889080,1,0.5066,-0.9592,0.3262,278,0.8545,-1.0376,0,134,0.8514,0.5313,-11.2798,-49.3292,29,0.9465,8407,4.0447,-24.093
rg,1624882393898905868,1,0.2761,-0.9404,0.4634,279,-24.7192,41.5039,20.6909,134,0.8164,0.5433,-9.7344,-50.7247,29,0.9435,8294,4.0447,-24.7416
rg,1624882393898922674,1,0.1782,-0.991,0.405,280,-55.481,15.1367,24.8413,134,0.7674,0.5353,-8.5826,-53.6144,29,0.9385,12658,4.0447,-24.5003
rg,1624882393898939221,1,0.2368,-1.1519,0.4287,281,-42.1753,6.7749,37.9028,134,0.7384,0.4662,-7.2916,-55.9968,29,0.9315,9625,4.0447,-23.7525
rg,1624882393898955879,1,0.2244,-1.1699,0.6172,282,7.8125,43.7622,61.7676,134,0.7314,0.3882,-4.3681,-55.908,29,0.9285,8388,4.0447,-23.7995
rg,1624882393898972685,1,0.0015,-0.9556,0.7107,283,119.6289,79.7729,67.3218,134,0.7274,0.3692,-0.1556,-50.9837,29,0.9295,8275,4.0447,-24.77
rg,1624882393898989268,1,0.0442,-0.876,0.3701,284,149.0479,32.0435,74.1577,134,0.7264,0.3602,2.8009,-45.6341,29,0.9255,8397,4.0447,-23.7664
rg,1624882393899005630,1,0.0886,-0.5955,0.5869,285,135.9253,16.6016,54.3823,134,0.7254,0.3372,4.4126,-40.1242,29,0.9235,8252,4.0447,-22.6448
rg,1624882393899021991,1,-0.0688,-0.3147,0.4465,286,135.9253,67.5049,24.4141,134,0.7244,0.3322,7.2448,-34.5884,29,0.9194,9499,4.0447,-23.4943
rg,1624882393899038797,1,-0.1846,-0.083,0.4746,287,89.1724,84.3506,9.3384,134,0.7254,0.3332,10.8308,-30.3655,29,0.9174,8943,4.0447,-24.8767
rg,1624882393899064701,1,-0.3213,-0.0493,0.5715,288,-3.8452,50.415,0.7324,134,0.7284,0.3382,13.331,-29.8538,29,0.9174,8849,4.0447,-25.7175
rg,1624882394348896643,1,-0.2285,-0.9819,1.0391,289,-207.0312,-98.0835,0.1221,134,0.7424,0.3682,9.9442,-38.1733,29,0.9255,25426,4.0447,-23.5846
rg,1624882394348928402,1,0.1443,-1.552,1.0356,290,-156.311,-79.1016,7.4463,134,0.7524,0.3892,7.2346,-44.7469,29,0.9295,9091,4.0447,-21.3317
rg,1624882394348948857,1,0.082,-1.4297,0.845,291,-42.7856,-45.5933,-29.2358,134,0.7624,0.4212,4.7442,-46.9659,30,0.9345,8213,4.0447,-20.8951
rg,1624882394348967997,1,0.0942,-0.8425,0.5657,292,31.0059,-74.8291,-6.1035,134,0.7964,0.4602,2.124,-45.958,30,0.9415,15195,4.0447,-18.9187
rg,1624882394348986619,1,0.1978,-0.7957,0.4648,293,25.8789,-95.3369,-4.3945,134,0.8174,0.4762,-1.2052,-45.4216,30,0.9445,7797,4.0447,-16.3308
rg,1624882394349004647,1,0.386,-0.8276,0.3416,294,10.498,-107.4829,-15.0146,134,0.8354,0.4882,-5.4751,-45.9351,29,0.9475,7959,4.0447,-13.6457
rg,1624882394349022212,1,0.4868,-0.8843,0.2983,295,0.5493,-54.8096,-10.6201,134,0.8484,0.5062,-8.1538,-46.9307,29,0.9485,7815,4.0447,-12.2482
rg,1624882394349039870,1,0.365,-0.864,0.3081,296,-0.8545,-24.353,-6.897,134,0.8514,0.5223,-8.689,-48.2552,29,0.9495,8002,4.0447,-12.201
rg,1624882394349057491,1,0.2996,-0.8647,0.4114,297,-36.8652,14.6484,9.2773,134,0.8244,0.5293,-8.38,-50.301,29,0.9475,8633,4.0447,-12.3094
rg,1624882394349075167,1,0.2141,-0.9949,0.4353,298,-77.6978,0.5493,18.3105,134,0.7784,0.5283,-7.9066,-54.0758,29,0.9395,7927,4.0447,-11.7816
rg,1624882394349092399,1,0.2334,-1.1597,0.4275,299,-49.3164,-2.7466,37.1094,134,0.7484,0.5012,-6.8665,-56.7623,29,0.9335,8701,4.0447,-10.7593
rg,1624882394349109334,1,0.2976,-1.2004,0.4099,300,-16.5405,12.2681,54.3213,134,0.7344,0.4282,-5.0556,-57.9166,29,0.9265,7990,4.0447,-9.9499
rg,1624882394349125843,1,0.2664,-1.0215,1.0054,301,69.0918,50.0488,67.3828,134,0.7304,0.3672,-1.9352,-54.6522,29,0.9275,12388,4.0447,-10.1796
rg,1624882394349142296,1,0.1147,-0.9226,0.3992,302,123.0469,43.8843,62.1338,134,0.7274,0.3572,0.6835,-50.1373,29,0.9245,7869,4.0447,-10.0659
rg,1624882394349158509,1,0.1934,-0.7852,0.5566,303,126.8311,7.6904,56.4575,134,0.7264,0.3412,2.0832,-45.2121,29,0.9215,7978,4.0447,-8.8021
rg,1624882394349175185,1,-0.0466,-0.5688,0.5063,304,136.2305,55.1147,19.043,134,0.7254,0.3292,4.2659,-39.944,29,0.9194,7842,4.0447,-9.7393
rg,1624882394349192379,1,-0.1218,-0.4302,0.4705,305,133.0566,64.1479,12.3291,134,0.7254,0.3282,7.146,-34.4848,29,0.9164,8098,4.0447,-10.8593
rg,1624882394349227306,1,-0.2278,-0.1895,0.4292,306,96.3745,60.4858,7.3853,134,0.7254,0.3252,10.0641,-30.4072,29,0.9154,9001,4.0447,-11.8462
rg,1624882394349245594,1,-0.2666,-0.0723,0.5068,307,16.2964,16.2354,9.2773,134,0.7304,0.3282,11.5118,-28.9712,29,0.9154,8365,4.0447,-11.6982
rg,1624882394349262566,1,-0.2598,-0.3188,0.6821,308,-104.6753,-55.9692,5.188,134,0.7334,0.3402,10.0016,-32.7375,29,0.9164,8677,4.0447,-10.3237
rg,1624882394349280020,1,-0.0837,-0.9597,1.0903,309,-156.3721,-80.9326,4.0283,134,0.7414,0.3482,7.1757,-40.2437,29,0.9204,8822,4.0447,-7.9011
rg,1624882394349297103,1,0.1196,-1.376,1.2063,310,-187.9272,-74.646,16.3574,134,0.7494,0.3762,5.069,-47.7831,29,0.9235,8250,4.0447,-5.3577
rg,1624882394349316262,1,0.1907,-1.7495,0.8655,311,-77.8198,-38.6353,-10.3149,134,0.7594,0.4012,3.3465,-51.4257,29,0.9295,8611,4.0447,-4.4849
rg,1624882394349334198,1,-0.0491,-1.158,0.885,312,19.6533,-15.8081,-25.4517,134,0.7724,0.4362,2.1041,-50.6834,29,0.9335,8549,4.0447,-4.6327
rg,1624882394349351744,1,0.0503,-0.7668,0.5625,313,46.6919,-24.353,-9.8267,134,0.7924,0.4552,0.829,-48.876,30,0.9385,8490,4.0447,-3.229
rg,1624882394349369421,1,0.1306,-0.7136,0.4285,314,29.1138,-64.5142,-1.0376,134,0.8134,0.4742,-1.285,-48.1053,30,0.9425,8596,4.0447,-1.3293
rg,1624882394349386319,1,0.3123,-0.7952,0.3909,315,1.0986,-86.0596,-11.1694,134,0.8314,0.4902,-4.5958,-48.7494,30,0.9445,8363,4.0447,0.973
rg,1624882394349403291,1,0.436,-0.9104,0.3315,316,-4.5776,-55.1758,-7.7515,134,0.8434,0.5062,-7.0331,-49.8274,29,0.9465,8885,4.0447,2.5207
rg,1624882394349419800,1,0.3826,-0.9214,0.3442,317,-5.0049,-30.0903,-4.9438,134,0.8484,0.5253,-7.7552,-50.7545,29,0.9475,8261,4.0447,2.6732
rg,1624882394349436161,1,0.2871,-0.9163,0.3955,318,-15.3198,14.5264,6.958,134,0.8354,0.5353,-7.5138,-51.9212,29,0.9475,8376,4.0447,2.4725
rg,1624882394349453096,1,0.2219,-1.0081,0.4697,319,-55.9082,4.3335,24.5361,134,0.7884,0.5373,-6.7788,-54.7064,29,0.9435,8241,4.0447,2.9896
rg,1624882394349469827,1,0.2703,-1.2107,0.3889,320,-62.9272,-12.7563,31.4941,134,0.7544,0.5072,-6.227,-58.0067,29,0.9375,8469,4.0447,4.2011
rg,1624882394686923569,1,0.1709,-1.022,1.022,321,85.2661,53.0396,65.2466,134,0.7304,0.3682,-2.9159,-54.0572,29,0.9235,24541,4.0447,3.8317
rg,1624882394687077449,1,0.0571,-0.8311,0.2615,322,163.147,-2.6855,71.3501,134,0.7264,0.3542,-0.8048,-48.318,29,0.9204,8826,4.0447,5.7307
rg,1624882394687099665,1,0.0903,-0.5603,0.5027,323,137.207,8.5449,52.5513,134,0.7254,0.3372,0.6927,-42.8283,29,0.9174,8633,4.0447,6.9399
rg,1624882394687119528,1,0.0127,-0.4294,0.4902,324,146.4233,34.668,39.1846,134,0.7244,0.3312,3.0475,-36.8335,29,0.9134,8385,4.0447,6.9242
rg,1624882394687138520,1,-0.0725,-0.1538,0.4438,325,122.0703,51.3306,32.4097,134,0.7254,0.3312,5.6919,-31.2803,29,0.9104,8043,4.0447,6.8925
rg,1624882394687160865,1,-0.1694,-0.0251,0.5073,326,40.6494,40.7715,20.0195,134,0.7264,0.3342,8.0207,-28.6326,29,0.9094,8405,4.0447,6.8854
rg,1624882394687179135,1,-0.2539,-0.2039,0.6838,327,-80.6274,-10.8032,9.2773,134,0.7304,0.3392,8.2938,-31.3151,29,0.9114,8114,4.0447,7.4826
rg,1624882394687198367,1,-0.2458,-0.4651,0.8247,328,-139.7095,-40.7104,7.5073,134,0.7354,0.3462,6.6291,-38.6422,29,0.9154,8673,4.0447,9.1314
rg,1624882394687218601,1,-0.0415,-1.1228,1.1484,329,-202.8198,-54.5044,15.3198,134,0.7424,0.3582,5.2493,-46.7381,29,0.9184,8529,4.0447,11.0567
rg,1624882394687241558,1,0.1694,-1.769,1.083,330,-143.0664,-34.3018,2.3193,134,0.7514,0.3802,4.0511,-52.7998,29,0.9235,8584,4.0447,12.1462
rg,1624882394687260235,1,-0.052,-1.3931,0.8452,331,-27.832,-11.3525,-32.4707,134,0.7624,0.4032,2.6524,-54.1586,29,0.9285,8707,4.0447,11.7261
rg,1624882394687278671,1,0.0039,-0.7361,0.5286,332,27.2827,-41.1377,-17.8833,134,0.7934,0.4502,0.7486,-52.9862,29,0.9365,9130,4.0447,13.9149
rg,1624882394687298126,1,0.2764,-0.8015,0.3821,333,-5.127,-116.7603,-8.1177,134,0.8154,0.4822,-2.9824,-53.6824,29,0.9405,10364,4.0447,17.47
rg,1624882394687316451,1,0.4783,-0.9651,0.3032,334,-12.207,-101.5015,-9.3384,134,0.8334,0.4982,-6.499,-55.0827,29,0.9425,8010,4.0447,20.6113
rg,1624882394687333497,1,0.5374,-0.9932,0.2786,335,-3.9673,-69.5801,-5.8594,134,0.8454,0.5163,-9.0755,-56.1983,29,0.9445,8146,4.0447,22.8821
rg,1624882394687350673,1,0.4729,-0.958,0.2759,336,7.4463,2.8687,-5.4321,134,0.8504,0.5243,-9.8438,-56.4884,29,0.9445,8036,4.0447,22.7624
rg,1624882394687368108,1,0.2429,-0.894,0.3469,337,-15.0757,38.9404,15.5029,134,0.8324,0.5373,-8.6606,-57.3955,29,0.9445,8358,4.0447,21.8591
rg,1624882394687385655,1,0.1621,-0.9917,0.3228,338,-43.396,33.0811,26.6113,134,0.7844,0.5383,-7.5773,-60.5996,29,0.9395,8300,4.0447,22.0393
rg,1624882394687403183,1,0.1846,-1.1213,0.3176,339,-72.937,-5.3711,22.644,134,0.7524,0.4872,-6.9364,-64.1084,29,0.9335,8731,4.0447,22.723
rg,1624882394687420748,1,0.1846,-1.2202,0.385,340,-12.085,23.4375,38.0249,134,0.7374,0.4212,-5.2183,-64.8868,29,0.9235,8449,4.0447,22.5638
rg,1624882394687452655,1,0.1738,-1.0242,0.7285,341,71.7773,42.2974,67.3218,134,0.7324,0.3822,-2.1721,-61.5837,29,0.9235,8579,4.0447,22.2142
rg,1624882394687473370,1,0.0017,-0.8213,0.3516,342,162.2314,23.2544,66.8335,134,0.7284,0.3692,0.6616,-55.315,29,0.9204,8738,4.0447,22.8234
rg,1624882394687491343,1,0.127,-0.6453,0.4478,343,167.4805,-22.583,74.0967,134,0.7284,0.3562,1.8388,-49.4724,29,0.9184,8765,4.0447,24.6715
rg,1624882394687509352,1,0.0195,-0.5352,0.4619,344,140.2588,20.752,37.1704,134,0.7274,0.3432,3.3476,-43.8386,29,0.9164,8846,4.0447,25.0779
rg,1624882394687527084,1,-0.1279,-0.2983,0.4058,345,137.8174,48.7061,23.8647,134,0.7264,0.3422,5.8608,-38.0888,29,0.9144,9286,4.0447,24.5561
rg,1624882394687544038,1,-0.2144,-0.1021,0.4993,346,81.9092,41.9922,24.0479,134,0.7294,0.3442,8.4553,-33.8956,29,0.9124,8583,4.0447,24.4665
rg,1624882394687561863,1,-0.2219,-0.124,0.637,347,-22.522,-18.0054,24.0479,134,0.7324,0.3492,8.8284,-33.7591,29,0.9134,8879,4.0447,25.8083
rg,1624882394687579242,1,-0.1223,-0.5869,0.925,348,-139.4043,-62.3779,14.1602,134,0.7364,0.3552,7.0682,-38.9817,29,0.9154,8405,4.0447,27.7778
rg,1624882394687596993,1,0.0835,-1.1438,1.0547,349,-165.7104,-22.7661,18.9819,134,0.7434,0.3632,6.512,-45.7645,29,0.9194,8597,4.0447,28.9421
rg,1624882394687613502,1,0.0544,-1.5103,1.0063,350,-104.7363,19.2871,-1.2817,134,0.7534,0.3842,6.6618,-50.4186,29,0.9255,8617,4.0447,28.2948
rg,1624882394687633346,1,-0.2319,-1.2913,0.9541,351,-24.1089,1.0376,-40.5884,134,0.7664,0.4162,5.488,-51.6045,29,0.9295,11192,4.0447,27.2251
rg,1624882394687651930,1,-0.1216,-0.9482,0.759,352,25.2686,-59.6313,-16.7236,134,0.7844,0.4472,3.4866,-50.46,29,0.9355,8714,4.0447,28.6707
rg,1624882395028585202,1,0.4058,-0.8748,0.3469,353,10.437,-115.1123,-17.1509,134,0.8364,0.4962,-0.9662,-50.6055,29,0.9425,25777,4.0447,31.7558
rg,1624882395028746321,1,0.5127,-0.8701,0.2788,354,7.2632,-61.2793,-12.207,134,0.8474,0.5203,-3.9606,-51.1059,29,0.9445,9191,4.0447,33.3687
rg,1624882395028768925,1,0.4028,-0.8687,0.3577,355,-7.5684,5.0049,-10.3149,134,0.8514,0.5323,-4.9125,-51.961,29,0.9455,7969,4.0447,32.9989
rg,1624882395028794476,1,0.2219,-0.9526,0.4863,356,-24.231,20.5688,-1.5259,134,0.8344,0.5443,-4.3957,-54.1687,29,0.9445,8541,4.0447,32.7392
rg,1624882395028814338,1,0.2095,-1.0073,0.45,357,-64.27,2.0142,20.6299,154,0.7894,0.5483,-3.9233,-57.208,29,0.9395,8287,4.0403,33.177
rg,1624882395028853395,1,0.2869,-1.2019,0.3933,358,-67.9321,-18.3716,27.4658,154,0.7594,0.5092,-3.7132,-60.5504,29,0.9355,8502,4.0403,34.4217
rg,1624882395028875462,1,0.2725,-1.2178,0.449,359,-1.0376,23.9868,43.2129,154,0.7414,0.4402,-2.0655,-60.9359,29,0.9285,8500,4.0403,34.4461
rg,1624882395028894434,1,0.1665,-1.0173,0.6086,360,36.9873,36.0718,49.3774,154,0.7344,0.3942,0.2011,-58.3306,29,0.9215,8477,4.0403,34.4148
rg,1624882395028914963,1,0.1387,-0.8877,0.8579,361,93.9941,27.0996,52.4902,154,0.7314,0.3802,2.5399,-54.5028,29,0.9194,8874,4.0403,34.6666
rg,1624882395028933658,1,0.1069,-0.6619,0.3979,362,138.2446,-25.2075,59.082,154,0.7304,0.3572,3.3635,-49.0367,29,0.9184,14441,4.0403,36.8899
rg,1624882395028954169,1,-0.0474,-0.4761,0.4719,363,122.0093,24.7192,32.6538,154,0.7294,0.3512,5.0108,-43.996,29,0.9164,7994,4.0403,37.0784
rg,1624882395028973308,1,-0.116,-0.2817,0.407,364,116.0278,28.0762,27.771,154,0.7284,0.3462,6.6596,-39.6417,29,0.9144,8137,4.0403,37.303
rg,1624882395028993355,1,-0.1394,-0.186,0.407,365,76.1108,11.9629,20.2637,154,0.7304,0.3452,7.9557,-35.9823,29,0.9134,8069,4.0403,37.7331
rg,1624882395029014144,1,-0.1479,-0.1274,0.5461,366,2.5024,-25.7568,19.5312,154,0.7344,0.3502,7.8631,-34.8418,29,0.9134,8179,4.0403,39.1043
rg,1624882395029033135,1,0.0139,-0.489,0.8904,367,-101.0132,-51.8188,26.6113,154,0.7414,0.3582,6.5023,-38.3546,29,0.9164,8464,4.0403,41.2563
rg,1624882395029052200,1,0.1846,-1.0586,1.02,368,-141.1133,-4.8828,28.0151,154,0.7514,0.3762,6.5586,-44.1598,30,0.9204,10489,4.0403,42.2239
rg,1624882395029069728,1,0.0811,-1.5535,1.1514,369,-94.6655,40.5884,8.4839,154,0.7644,0.4002,7.5657,-48.4091,30,0.9265,8413,4.0403,41.2462
rg,1624882395029087367,1,-0.1089,-1.5591,1.0723,370,-50.2319,42.7246,-11.1694,154,0.7774,0.4302,8.3206,-50.9224,30,0.9325,8896,4.0403,39.5993
rg,1624882395029106413,1,-0.2468,-1.1458,0.8584,371,30.0293,2.0752,-14.4043,154,0.7934,0.4532,7.9863,-49.862,29,0.9365,8296,4.0403,39.1542
rg,1624882395029124460,1,-0.0293,-0.8047,0.6042,372,49.5605,-57.1289,-7.8125,154,0.8134,0.4742,6.0067,-47.8158,29,0.9395,8537,4.0403,40.6628
rg,1624882395029167593,1,0.1924,-0.6831,0.4985,373,19.2261,-84.2896,-12.8174,154,0.8294,0.4952,2.6328,-47.1108,29,0.9435,8660,4.0403,42.7821
rg,1624882395029188678,1,0.2659,-0.7012,0.4509,374,1.3428,-82.6416,-14.8926,154,0.8384,0.5143,-0.9424,-47.4896,29,0.9435,8425,4.0403,44.7925
rg,1624882395029208855,1,0.3533,-0.7654,0.4033,375,-26.9165,-61.2793,-12.6343,154,0.8444,0.5313,-3.7629,-49.1506,29,0.9465,8559,4.0403,46.3115
rg,1624882395029230866,1,0.3521,-0.8901,0.4785,376,-67.9321,-34.1187,1.8921,154,0.8274,0.5373,-5.1672,-52.4073,29,0.9465,8342,4.0403,47.4677
rg,1624882395029248671,1,0.374,-1.0493,0.5046,377,-96.3135,-36.7432,9.6436,154,0.7784,0.5333,-6.1948,-56.8304,29,0.9415,9089,4.0403,48.9545
rg,1624882395029266755,1,0.334,-1.2139,0.4143,378,-74.3408,-17.2119,26.001,154,0.7514,0.4932,-5.9991,-60.4545,29,0.9355,8364,4.0403,50.1558
rg,1624882395029288155,1,0.3408,-1.1704,0.4209,379,-47.5464,3.6011,41.3208,154,0.7364,0.4212,-4.2143,-61.5047,29,0.9255,8705,4.0403,50.1324
rg,1624882395029306164,1,0.3076,-1.0696,0.72,380,14.8315,38.8794,44.9219,154,0.7354,0.3802,-2.2619,-60.6607,29,0.9255,8386,4.0403,49.612
rg,1624882395029323358,1,0.0918,-0.9084,0.3284,381,105.3467,33.1421,41.748,154,0.7324,0.3802,-0.2821,-56.8083,29,0.9235,8624,4.0403,49.3492
rg,1624882395029340923,1,0.168,-0.8696,0.5312,382,100.8301,1.2817,46.5088,154,0.7324,0.3632,0.9068,-52.8356,29,0.9204,9670,4.0403,50.3609
rg,1624882395029358469,1,-0.0701,-0.7036,0.3813,383,138.916,41.8091,28.2593,154,0.7314,0.3562,2.9972,-47.6439,29,0.9164,9244,4.0403,49.7961
rg,1624882395029376181,1,-0.1809,-0.4153,0.3965,384,131.4697,49.2554,29.6631,154,0.7314,0.3522,5.783,-42.381,29,0.9154,8783,4.0403,49.2661
rg,1624882395381945106,1,-0.1201,-0.1116,0.459,385,5.3101,-48.7671,29.2358,154,0.7354,0.3552,5.4685,-40.8843,29,0.9144,24865,4.0403,51.5621
rg,1624882395381984034,1,0.0337,-0.4429,0.8086,386,-101.2573,-65.6738,24.9634,154,0.7404,0.3622,3.926,-44.2256,29,0.9164,8541,4.0403,54.1389
rg,1624882395382005359,1,0.1956,-0.9856,0.9292,387,-144.7144,-5.3101,31.7993,154,0.7454,0.3702,4.2352,-50.0073,29,0.9194,8188,4.0403,55.1766
rg,1624882395382024980,1,0.1892,-1.2185,0.9043,388,-133.667,28.5645,26.2451,154,0.7544,0.3932,5.4559,-55.5827,30,0.9245,8340,4.0403,54.894
rg,1624882395382091718,1,-0.0906,-1.4143,0.999,389,-75.3174,48.7671,-14.1602,154,0.7634,0.4122,5.9318,-58.738,30,0.9305,8065,4.0403,52.9442
rg,1624882395382117880,1,-0.282,-1.1284,0.8623,390,-7.019,17.0898,-26.001,154,0.7754,0.4352,5.6046,-58.8797,30,0.9345,8152,4.0403,51.8432
rg,1624882395382138928,1,-0.1104,-0.9011,0.7371,391,11.6577,-49.5605,-8.4229,154,0.8014,0.4612,3.9939,-58.0577,30,0.9405,8406,4.0403,53.3852
rg,1624882395382158753,1,0.1465,-0.8447,0.5354,392,-4.0894,-87.1582,-14.7705,154,0.8184,0.4762,0.9886,-58.2398,30,0.9445,8007,4.0403,56.0324
rg,1624882395382178115,1,0.3083,-0.8767,0.4126,393,-10.376,-84.7168,-18.0664,154,0.8304,0.4952,-2.1043,-58.9135,30,0.9465,7988,4.0403,58.551
rg,1624882395382200978,1,0.3555,-0.8665,0.3472,394,-11.3525,-48.7671,-14.2822,154,0.8374,0.5102,-4.3104,-59.7745,30,0.9485,8058,4.0403,59.9595
rg,1624882395382219043,1,0.3208,-0.8374,0.4155,395,-34.4849,-22.3999,-1.2207,154,0.8334,0.5213,-5.3617,-61.3477,29,0.9495,8064,4.0403,60.7361
rg,1624882395382236867,1,0.3054,-0.8921,0.4861,396,-56.9458,-18.1274,8.3008,154,0.7964,0.5233,-5.674,-64.6233,29,0.9465,8670,4.0403,61.814
rg,1624882395382255098,1,0.2866,-1.0671,0.4106,397,-87.0972,-28.3813,16.0522,154,0.7614,0.5072,-5.8646,-68.3873,29,0.9365,8169,4.0403,63.1419
rg,1624882395382274090,1,0.2874,-1.1848,0.3262,398,-39.978,-2.6245,38.147,154,0.7454,0.4402,-4.765,-70.2711,29,0.9275,8348,4.0403,63.8042
rg,1624882395382293155,1,0.2434,-1.0334,0.6196,399,27.5879,39.2456,56.1523,154,0.7404,0.3952,-2.3882,-68.6772,29,0.9265,8544,4.0403,63.0699
rg,1624882395382313258,1,0.2319,-0.9829,0.7808,400,66.7114,40.3442,62.5,154,0.7364,0.3842,0.2086,-65.3306,29,0.9265,8068,4.0403,62.5135
rg,1624882395382331860,1,0.3423,-1.0349,0.3862,401,97.168,-19.5923,64.27,154,0.7344,0.3662,1.4764,-61.5702,29,0.9245,8479,4.0403,64.3316
rg,1624882395382350685,1,0.165,-0.939,0.4297,402,132.4463,26.7944,38.6963,154,0.7344,0.3592,2.9311,-56.4277,29,0.9245,8269,4.0403,64.1812
rg,1624882395382368712,1,-0.0967,-0.5962,0.4246,403,167.8467,42.6636,23.0103,154,0.7334,0.3562,4.7686,-49.1985,29,0.9215,8309,4.0403,62.9255
rg,1624882395382391279,1,-0.1743,-0.3887,0.4006,404,180.8472,60.6079,11.7188,154,0.7324,0.3482,7.2766,-41.9334,29,0.9204,8707,4.0403,61.563
rg,1624882395382410048,1,-0.2151,-0.0676,0.364,405,138.5498,49.8657,26.2451,154,0.7344,0.3512,10.3833,-35.4269,29,0.9204,8807,4.0403,61.3147
rg,1624882395382455738,1,-0.1748,0.0789,0.4487,406,37.7808,7.0801,30.5176,154,0.7384,0.3542,11.817,-32.2062,29,0.9204,8251,4.0403,62.482
rg,1624882395382491942,1,-0.1921,-0.2686,0.8179,407,-111.7554,-29.3579,20.6909,154,0.7424,0.3632,11.356,-35.8306,30,0.9225,8674,4.0403,63.9668
rg,1624882395382515102,1,-0.1521,-0.6238,1.0908,408,-170.105,-33.5083,17.8833,154,0.7494,0.3732,10.4136,-42.4694,30,0.9255,8282,4.0403,65.3864
rg,1624882395382532815,1,0.0361,-1.3882,1.1821,409,-189.8193,-8.8501,23.3154,154,0.7574,0.3962,10.3883,-50.1392,30,0.9305,8526,4.0403,66.2785
rg,1624882395382551324,1,-0.0715,-1.7864,1.074,410,-86.0596,12.6953,-14.0991,154,0.7664,0.4202,9.9214,-54.0458,29,0.9345,8331,4.0403,65.4685
rg,1624882395382568778,1,-0.2305,-1.1917,0.9729,411,15.686,-6.897,-34.729,154,0.7784,0.4362,8.5843,-53.375,29,0.9395,8564,4.0403,64.8886
rg,1624882395382586379,1,-0.2324,-0.9197,0.8972,412,33.5083,-28.0762,-29.1138,154,0.7934,0.4532,6.9657,-51.7861,29,0.9435,8415,4.0403,65.1127
rg,1624882395382603981,1,-0.0364,-0.6807,0.5339,413,16.6016,-84.0454,-20.752,154,0.8144,0.4752,2.987,-51.9615,29,0.9475,10497,4.0403,67.7376
rg,1624882395382623065,1,0.1699,-0.728,0.4312,414,-23.9868,-121.8872,-35.2173,154,0.8274,0.4932,-1.6327,-53.1582,29,0.9485,8767,4.0403,70.7501
rg,1624882395382641482,1,0.3501,-0.8574,0.3342,415,-38.6963,-124.4507,-28.7476,154,0.8374,0.5133,-6.1915,-55.4931,29,0.9515,8998,4.0403,74.1669
rg,1624882395382659250,1,0.4817,-0.9087,0.2839,416,-47.9126,-95.8862,-11.4136,154,0.8354,0.5233,-9.4548,-58.4092,29,0.9515,9019,4.0403,77.2484
rg,1624882395727615567,1,0.3879,-1.1768,0.3022,417,-71.6553,22.2778,26.9775,154,0.7494,0.4702,-8.4174,-61.8691,29,0.9365,25831,4.0403,77.1203
rg,1624882395727655346,1,0.3208,-1.1702,0.3105,418,-39.978,46.4478,43.0298,154,0.7384,0.4092,-5.5791,-62.3319,29,0.9285,8838,4.0403,76.0809
rg,1624882395727676246,1,0.2991,-1.0364,0.8408,419,32.0435,62.0728,59.2651,154,0.7354,0.3872,-2.6063,-60.5245,29,0.9305,8642,4.0403,74.9726
rg,1624882395727696071,1,0.2458,-1.0649,0.2634,420,98.938,2.1362,64.8804,154,0.7334,0.3792,-0.7451,-57.1956,30,0.9295,8618,4.0403,76.2486
rg,1624882395727714395,1,0.238,-1.052,0.3962,421,128.6621,-4.5166,43.5181,154,0.7344,0.3672,0.1305,-52.5242,30,0.9265,8474,4.0403,77.3802
rg,1624882395727734720,1,-0.1089,-0.5664,0.3899,422,184.8755,26.001,23.0103,154,0.7344,0.3582,2.1779,-45.081,30,0.9255,10866,4.0403,76.8855
rg,1624882395727752934,1,-0.1785,-0.2314,0.2952,423,182.1289,48.8281,29.6021,154,0.7334,0.3552,5.4952,-37.6567,29,0.9245,8078,4.0403,76.9911
rg,1624882395727770368,1,-0.1809,-0.0757,0.2905,424,157.5317,36.1328,45.8374,154,0.7344,0.3532,8.6937,-30.5101,29,0.9245,7888,4.0403,77.8386
rg,1624882395727787451,1,-0.1492,0.0974,0.3528,425,72.5708,-19.7144,49.8047,154,0.7394,0.3562,9.5523,-25.7371,29,0.9255,8018,4.0403,80.2534
rg,1624882395727805071,1,-0.1008,-0.0808,0.6919,426,2.0142,-54.1992,44.6777,154,0.7434,0.3642,7.378,-27.6299,29,0.9275,7916,4.0403,83.2027
rg,1624882395727881018,1,0.0029,-0.4199,1.1042,427,-145.813,-82.0312,39.1846,154,0.7504,0.3732,5.0528,-32.8346,30,0.9305,8185,4.0403,86.2746
rg,1624882395727901028,1,0.2625,-1.1892,1.1443,428,-183.7158,-14.6484,52.8564,154,0.7574,0.3962,5.2966,-40.4737,30,0.9345,8393,4.0403,88.3132
rg,1624882395728738958,1,0.1609,-1.6533,1.0994,429,-120.2393,57.4951,22.3999,154,0.7674,0.4222,7.1869,-45.9775,30,0.9395,8582,4.0403,87.3421
rg,1624882395728777163,1,-0.301,-1.4243,1.1072,430,-73.7305,67.3828,-11.5967,154,0.7804,0.4402,7.9196,-47.3234,30,0.9435,8434,4.0403,84.825
rg,1624882395728803880,1,-0.3311,-1.1499,0.9783,431,17.6392,22.0947,-28.1372,154,0.7944,0.4592,7.8681,-46.8936,29,0.9465,8069,4.0403,83.3888
rg,1624882395728833302,1,-0.1636,-0.7908,0.7019,432,26.8555,-50.293,-25.5127,154,0.8124,0.4752,5.7855,-45.7803,29,0.9485,8348,4.0403,84.1437
rg,1624882395728859927,1,0.0498,-0.658,0.5144,433,-7.6294,-92.2241,-30.9448,154,0.8274,0.4932,1.9871,-46.1969,29,0.9515,8355,4.0403,85.9249
rg,1624882395728882531,1,0.2131,-0.6865,0.3579,434,-40.9546,-106.8115,-36.2549,154,0.8404,0.5133,-2.628,-48.4452,29,0.9535,10061,4.0403,88.0809
rg,1624882395728909897,1,0.2708,-0.7415,0.3257,435,-54.6265,-105.1025,-36.438,154,0.8454,0.5293,-7.1243,-51.5562,29,0.9545,8342,4.0403,90.4314
rg,1624882395728933798,1,0.377,-0.8481,0.3254,436,-80.5664,-95.6421,-23.8037,154,0.8444,0.5373,-10.7466,-55.7959,29,0.9545,8552,4.0403,93.0856
rg,1624882395728962035,1,0.5127,-1.019,0.4053,437,-112.6099,-75.7446,0.3052,154,0.8084,0.5363,-12.8652,-61.2801,29,0.9505,8502,4.0403,95.8435
rg,1624882395728985844,1,0.4956,-1.1804,0.3577,438,-109.7412,-52.2461,10.2539,154,0.7674,0.5233,-13.7645,-66.5841,29,0.9435,9173,4.0403,98.0708
rg,1624882395729007373,1,0.4302,-1.1299,0.2639,439,-37.5366,10.7422,35.4004,154,0.7504,0.4762,-12.5606,-68.4948,29,0.9365,8174,4.0403,98.3075
rg,1624882395729033294,1,0.3635,-1.0076,0.3145,440,-3.2349,51.6968,45.8374,154,0.7414,0.4082,-10.3638,-68.5149,29,0.9305,8515,4.0403,97.0529
rg,1624882395729058047,1,0.2078,-0.9116,0.6738,441,32.8369,73.6694,58.5938,154,0.7404,0.3942,-7.0976,-66.3232,29,0.9315,8331,4.0403,95.0924
rg,1624882395729078039,1,0.1936,-1.0449,0.2944,442,66.4673,10.1318,54.4434,154,0.7384,0.3842,-5.0787,-64.0243,29,0.9285,8584,4.0403,95.6693
rg,1624882395729102329,1,0.1775,-1.1399,0.478,443,93.5059,-0.1831,31.311,154,0.7394,0.3762,-4.0983,-60.4513,29,0.9285,8428,4.0403,96.2633
rg,1624882395729123933,1,-0.0713,-0.9016,0.4097,444,165.1611,19.7754,22.522,154,0.7384,0.3702,-2.5966,-54.043,29,0.9265,8783,4.0403,96.1148
rg,1624882395729145296,1,-0.1782,-0.4312,0.2598,445,181.7627,16.7847,19.7144,154,0.7374,0.3692,-0.7916,-46.8708,29,0.9255,8513,4.0403,96.2179
rg,1624882395729166232,1,-0.1907,-0.2278,0.248,446,181.9458,12.6953,23.0713,154,0.7404,0.3672,1.3449,-39.4618,29,0.9255,8825,4.0403,96.6154
rg,1624882395729243105,1,-0.1685,0.0251,0.3728,447,120.3613,-6.0425,42.7246,154,0.7454,0.3732,3.0526,-33.1783,29,0.9255,8823,4.0403,98.2175
rg,1624882395729273769,1,-0.0452,-0.0806,0.6382,448,-7.5073,-54.4434,54.3213,154,0.7514,0.3872,2.4539,-32.3336,29,0.9295,8868,4.0403,101.2811
rg,1624882396240609415,1,0.1919,-1.4656,1.0835,449,-85.2661,51.3306,29.8462,154,0.7814,0.4432,4.4831,-36.5529,30,0.9435,25469,4.0403,101.0763
rg,1624882396240659866,1,0.0288,-1.5388,1.1641,450,-59.021,63.1714,7.6294,154,0.7954,0.4602,6.0565,-38.1978,30,0.9475,9018,4.0403,99.1909
rg,1624882396240681339,1,-0.2764,-1.2712,0.9893,451,14.7095,38.0249,-21.6675,154,0.8114,0.4852,6.8592,-38.3265,29,0.9515,8262,4.0403,97.5003
rg,1624882396240701200,1,-0.2126,-0.8577,0.7397,452,39.6729,-21.3013,-20.5688,154,0.8294,0.5123,5.669,-37.0861,29,0.9535,8984,4.0403,97.3325
rg,1624882396240720024,1,0.0979,-0.5984,0.512,453,-14.8315,-87.5854,-33.7524,154,0.8404,0.5313,1.5885,-38.0833,29,0.9555,11294,4.0403,98.3645
rg,1624882396240794542,1,0.2573,-0.699,0.4006,454,-36.6211,-100.5249,-35.7666,154,0.8454,0.5443,-3.1823,-41.1638,29,0.9565,7940,4.0403,99.965
rg,1624882396240815607,1,0.4138,-0.8867,0.3955,455,-74.2798,-98.4497,-24.6582,154,0.8384,0.5553,-6.9492,-45.9706,29,0.9565,10049,4.0403,102.1995
rg,1624882396240834431,1,0.4993,-0.9731,0.4265,456,-111.3281,-82.1533,-5.3101,154,0.8034,0.5573,-9.9773,-51.475,29,0.9535,8016,4.0403,104.6776
rg,1624882396240853033,1,0.5203,-1.1934,0.4158,457,-116.9434,-51.4526,-0.8545,154,0.7684,0.5293,-11.6936,-57.1569,29,0.9485,8092,4.0403,106.5064
rg,1624882396240871430,1,0.415,-1.3442,0.3794,458,-100.9521,-19.2871,9.7046,154,0.7454,0.4712,-10.7222,-60.5772,30,0.9405,8068,4.0403,106.7209
rg,1624882396240890884,1,0.345,-1.2583,0.3667,459,-26.4282,43.2739,38.269,154,0.7394,0.4152,-8.7249,-61.994,30,0.9335,8037,4.0403,106.0147
rg,1624882396240909097,1,0.1658,-0.9792,0.7246,460,78.6743,69.0308,33.5693,154,0.7374,0.3922,-6.1627,-58.2785,30,0.9335,8434,4.0403,104.2158
rg,1624882396240928365,1,0.2085,-0.9075,0.2297,461,125.2441,-17.7002,52.3071,154,0.7374,0.3832,-5.0833,-54.1104,30,0.9315,8433,4.0403,106.0321
rg,1624882396240948171,1,0.1875,-0.8911,0.3989,462,117.7979,-17.1509,44.9219,154,0.7374,0.3672,-3.8766,-49.284,29,0.9295,8578,4.0403,106.61
rg,1624882396240967087,1,-0.043,-0.7512,0.2893,463,167.2974,13.3057,27.8931,154,0.7354,0.3592,-2.4444,-43.3874,29,0.9275,8194,4.0403,107.058
rg,1624882396240996083,1,-0.1189,-0.4412,0.3018,464,178.2227,10.0098,34.9731,154,0.7354,0.3552,-0.6595,-36.7681,29,0.9255,8511,4.0403,107.9219
rg,1624882396241016871,1,-0.137,-0.1743,0.3005,465,142.8833,-15.1367,42.6025,154,0.7364,0.3542,0.64,-30.821,29,0.9245,8269,4.0403,109.7148
rg,1624882396241036510,1,-0.0959,-0.0823,0.3557,466,108.5205,-42.6025,47.4243,154,0.7374,0.3562,0.597,-25.7916,29,0.9245,8260,4.0403,112.2243
rg,1624882396241054444,1,0.0635,-0.0811,0.5676,467,7.9956,-86.9751,47.9126,154,0.7414,0.3622,-1.988,-24.8214,29,0.9265,8500,4.0403,115.4504
rg,1624882396241073101,1,0.3442,-0.5027,0.9924,468,-83.9233,-61.1572,51.7578,154,0.7464,0.3692,-3.8324,-28.3888,29,0.9285,8983,4.0403,118.4207
rg,1624882396241090980,1,0.4531,-0.9956,0.9817,469,-112.5488,36.1328,47.7905,163,0.7524,0.3842,-2.1735,-33.5481,30,0.9325,8224,4.0326,119.3789
rg,1624882396241109712,1,0.3433,-1.1628,1.0356,470,-112.1216,80.8105,29.6021,163,0.7604,0.4022,0.7157,-38.5617,30,0.9365,8072,4.0326,118.4666
rg,1624882396241129369,1,-0.1516,-1.3333,1.1895,471,-92.041,120.1172,-18.7988,163,0.7684,0.4242,4.0124,-42.7573,30,0.9405,8300,4.0326,114.7503
rg,1624882396241148323,1,-0.4783,-1.2424,1.0337,472,-29.2969,65.0024,-22.9492,163,0.7784,0.4372,5.7424,-44.4112,30,0.9445,8224,4.0326,112.2564
rg,1624882396241247667,1,-0.2673,-0.9873,0.8533,473,-2.1973,-40.3442,-27.5269,163,0.7934,0.4522,4.0573,-44.6435,30,0.9485,9403,4.0326,112.5914
rg,1624882396241277533,1,-0.1255,-0.8831,0.7534,474,-4.6997,-73.7915,-29.6021,163,0.8114,0.4712,0.9528,-45.0347,30,0.9515,8883,4.0326,113.8225
rg,1624882396241296950,1,0.1382,-0.7766,0.5447,475,-18.4326,-100.8911,-28.8696,163,0.8254,0.4902,-3.0403,-46.1843,30,0.9535,8678,4.0326,115.9026
rg,1624882396241318127,1,0.2905,-0.7725,0.3784,476,-34.4849,-104.7363,-35.9497,163,0.8374,0.5092,-7.5323,-48.4035,30,0.9555,8556,4.0326,118.0676
rg,1624882396241337784,1,0.3691,-0.803,0.2842,477,-47.5464,-91.6748,-35.6445,163,0.8444,0.5233,-11.6025,-51.4071,29,0.9565,8668,4.0326,120.1077
rg,1624882396241357924,1,0.416,-0.8613,0.2861,478,-52.4292,-70.1294,-20.1416,163,0.8474,0.5323,-14.4486,-54.6303,29,0.9565,8551,4.0326,122.0761
rg,1624882396241376377,1,0.5037,-0.9746,0.3687,479,-61.0352,-58.5938,-3.2959,163,0.8304,0.5363,-15.6206,-58.5498,29,0.9565,9408,4.0326,124.0278
rg,1624882396241396331,1,0.5239,-1.0642,0.3835,480,-76.6602,-41.2598,17.6392,163,0.7864,0.5323,-16.1791,-62.5416,30,0.9495,8862,4.0326,126.009
rg,1624882396420869150,1,0.2454,-0.9951,0.4561,481,18.6768,78.5522,58.6548,163,0.7414,0.4072,-12.509,-61.4668,30,0.9315,24901,4.0326,124.301
rg,1624882396420907558,1,0.1226,-0.9775,0.5366,482,90.0269,79.7729,70.0684,163,0.7394,0.3852,-8.2482,-57.6077,30,0.9315,9343,4.0326,122.9431
rg,1624882396420929290,1,0.2217,-1.0984,0.3772,483,90.271,26.7944,73.7915,163,0.7394,0.3832,-6.5539,-54.8768,30,0.9295,7975,4.0326,124.6106
rg,1624882396420949559,1,0.2161,-1.2344,0.5779,484,101.4404,8.0566,42.6025,163,0.7394,0.3782,-5.1029,-51.2875,30,0.9275,8004,4.0326,125.4162
rg,1624882396420969087,1,-0.0757,-0.9241,0.3997,485,195.9229,21.7285,18.4937,163,0.7394,0.3702,-3.6176,-44.0587,30,0.9265,9096,4.0326,125.3454
rg,1624882396420988671,1,-0.2012,-0.0339,0.2295,486,228.9429,25.3906,8.728,163,0.7394,0.3582,-1.0533,-33.9421,30,0.9255,12922,4.0326,125.0558
rg,1624882396421006957,1,-0.1924,0.1606,0.2537,487,196.6553,19.5312,23.9868,163,0.7404,0.3602,1.3218,-24.3645,30,0.9245,7962,4.0326,125.5833
rg,1624882396421025170,1,-0.1108,0.3748,0.2634,488,70.9839,-29.1138,49.6826,163,0.7454,0.3642,1.5048,-19.3065,30,0.9255,8327,4.0326,127.9341
rg,1624882396421123365,1,-0.01,0.0737,0.2944,489,-116.9434,-94.4824,45.2881,163,0.7514,0.3742,-1.3328,-22.7142,30,0.9285,8081,4.0326,131.013
rg,1624882396421150100,1,0.064,-0.2822,0.8525,490,-218.3838,-117.4316,43.8232,163,0.7584,0.3962,-5.0264,-31.7366,30,0.9325,8165,4.0326,134.747
rg,1624882396421171203,1,0.4795,-1.5044,1.5449,491,-260.5591,-49.3774,41.4429,163,0.7674,0.4142,-5.8788,-42.8198,30,0.9385,8401,4.0326,137.3333
rg,1624882396421190972,1,0.2058,-2.2322,0.9146,492,-102.2339,18.0054,-4.4556,163,0.7784,0.4342,-5.4766,-47.7703,30,0.9425,8380,4.0326,136.7896
rg,1624882396421231973,1,-0.0723,-1.3848,1.0168,493,44.3726,31.0059,-32.5928,163,0.7904,0.4502,-5.2746,-46.0557,30,0.9465,8294,4.0326,135.0129
rg,1624882396421251056,1,-0.1194,-0.9312,0.9673,494,77.0264,14.3433,-32.8979,163,0.8034,0.4632,-5.3782,-42.7628,30,0.9495,8436,4.0326,133.6713
rg,1624882396421272789,1,-0.0349,-0.4807,0.5591,495,51.8188,-39.978,-29.0527,163,0.8164,0.4782,-7.0173,-40.6246,30,0.9525,8310,4.0326,133.8708
rg,1624882396421293966,1,0.1641,-0.5288,0.437,496,-32.8979,-84.8999,-31.1279,163,0.8274,0.4942,-10.6236,-42.5135,30,0.9545,8395,4.0326,135.2647
rg,1624882396421315254,1,0.3228,-0.8147,0.3538,497,-58.8989,-96.1304,-29.9072,163,0.8304,0.5102,-14.4923,-46.6925,30,0.9545,8281,4.0326,137.4174
rg,1624882396421334115,1,0.3704,-0.8972,0.312,498,-77.6367,-88.501,-20.0195,163,0.8224,0.5173,-17.7553,-51.2726,30,0.9555,8456,4.0326,139.8876
rg,1624882396421354384,1,0.4729,-0.9849,0.4185,499,-85.6323,-63.1104,-3.418,163,0.7844,0.5163,-19.6033,-55.9349,30,0.9515,9045,4.0326,142.14
rg,1624882396421373096,1,0.4163,-1.043,0.4365,500,-74.707,-30.5786,5.3711,163,0.7594,0.4902,-20.0132,-59.8123,30,0.9425,10909,4.0326,143.5247
rg,1624882396421393365,1,0.2861,-0.9905,0.4607,501,-5.6152,34.3018,40.1611,163,0.7484,0.4352,-17.7325,-60.1036,30,0.9335,11287,4.0326,143.181
rg,1624882396421411004,1,0.2695,-0.9976,0.6843,502,14.1602,39.7949,48.4009,163,0.7474,0.4082,-15.0622,-59.2245,30,0.9335,8297,4.0326,142.702
rg,1624882396421429216,1,0.2163,-1.0144,0.3247,503,70.1904,19.4092,63.1104,163,0.7454,0.3942,-12.3882,-57.0915,30,0.9305,8297,4.0326,143.5208
rg,1624882396421447929,1,0.2905,-1.0552,0.4639,504,83.1909,-4.0894,44.9829,163,0.7454,0.3832,-11.0703,-54.3554,30,0.9285,8353,4.0326,144.7621
rg,1624882396421465771,1,0.1763,-0.9675,0.3972,505,116.7603,14.1602,31.0059,163,0.7444,0.3732,-9.6547,-48.9321,29,0.9255,8250,4.0326,144.9271
rg,1624882396421483687,1,-0.0071,-0.637,0.3564,506,166.0767,12.8784,19.4092,163,0.7444,0.3662,-8.0557,-42.5885,29,0.9225,9426,4.0326,145.1811
rg,1624882396421501751,1,-0.1245,-0.3403,0.3223,507,158.6304,0.8545,21.3013,163,0.7454,0.3602,-6.6078,-36.4972,29,0.9215,8973,4.0326,145.8892
rg,1624882396421519482,1,-0.0767,-0.2244,0.3906,508,103.0884,-44.5557,38.3911,163,0.7464,0.3562,-6.5666,-32.3839,30,0.9215,8767,4.0326,148.1712
rg,1624882396421536842,1,0.0718,-0.3984,0.5903,509,26.9775,-90.1489,36.1938,163,0.7494,0.3572,-8.8051,-31.7889,30,0.9194,8895,4.0326,151.3514
rg,1624882396421555091,1,0.2932,-0.739,0.8103,510,-14.7705,-84.8999,31.6162,163,0.7504,0.3582,-11.2206,-33.2902,30,0.9184,9163,4.0326,154.3566
rg,1624882396421573063,1,0.3208,-0.9241,0.7595,511,-11.0474,-57.4951,28.1372,163,0.7524,0.3602,-11.8531,-34.1185,30,0.9184,8587,4.0326,155.6977
rg,1624882396421591183,1,0.2202,-0.8938,0.7625,512,14.5874,-6.1646,4.1504,163,0.7554,0.3642,-11.7104,-34.1023,30,0.9184,9104,4.0326,156.0854
rg,1624882398030035038,1,-0.0388,-0.6348,0.6162,513,9.5215,-44.1895,-14.8926,163,0.7624,0.3712,-12.9489,-34.2963,29,0.9184,24592,4.0326,156.6968
rg,1624882398030073091,1,0.2114,-0.686,0.5552,514,0.9155,-69.2749,-13.5498,163,0.7654,0.3762,-15.5599,-35.1951,29,0.9215,14273,4.0326,158.0185
rg,1624882398030094174,1,0.2688,-0.698,0.55,515,2.8687,-65.5518,-13.6719,163,0.7684,0.3792,-17.9806,-35.8458,29,0.9235,7785,4.0326,159.0764
rg,1624882398030136266,1,0.3279,-0.7278,0.5737,516,9.8877,-50.415,-18.2495,163,0.7714,0.3822,-20.1106,-36.2685,29,0.9245,7711,4.0326,159.9029
rg,1624882398030155904,1,0.3296,-0.7686,0.5869,517,16.0522,-31.4331,-18.3716,163,0.7754,0.3852,-21.5265,-36.3246,29,0.9275,7900,4.0326,160.2905
rg,1624882398030174115,1,0.3093,-0.7812,0.5874,518,21.5454,-24.292,-16.7847,163,0.7774,0.3892,-22.574,-36.142,29,0.9275,7819,4.0326,160.5746
rg,1624882398030192382,1,0.2498,-0.792,0.595,519,32.4707,-13.3667,-14.5264,163,0.7804,0.3912,-23.0449,-35.4679,29,0.9305,9776,4.0326,160.6728
rg,1624882398030210445,1,0.2065,-0.7708,0.5862,520,45.2881,-13.7939,-11.9629,163,0.7814,0.3952,-23.3718,-34.3386,29,0.9315,8339,4.0326,160.8755
rg,1624882398030227767,1,0.1946,-0.7375,0.5378,521,55.3589,-24.4751,-11.4746,163,0.7834,0.3982,-24.0384,-33.0077,30,0.9325,8268,4.0326,161.3811
rg,1624882398030244626,1,0.218,-0.7639,0.5005,522,58.8379,-34.6069,-10.8032,163,0.7834,0.3992,-25.0882,-31.8064,30,0.9335,9426,4.0326,162.2025
rg,1624882398030261263,1,0.249,-0.8306,0.6526,523,60.4248,-33.5693,-6.7749,163,0.7844,0.4012,-25.8915,-30.3501,30,0.9335,8347,4.0326,163.0362
rg,1624882398030279122,1,0.1804,-0.8384,0.7192,524,77.2705,-30.2734,-6.0425,163,0.7844,0.3992,-26.464,-28.2697,30,0.9335,8154,4.0326,163.8329
rg,1624882398030296222,1,0.1099,-0.7542,0.6843,525,91.3696,-47.4854,-7.2021,163,0.7844,0.4002,-27.5496,-25.7841,29,0.9345,8662,4.0326,164.9136
rg,1624882398030312803,1,0.1377,-0.6824,0.6814,526,95.7642,-64.5752,-0.4272,163,0.7854,0.4022,-29.1983,-23.3827,29,0.9355,8331,4.0326,166.5293
rg,1624882398030329570,1,0.1558,-0.6528,0.6724,527,96.4966,-72.6929,1.4038,163,0.7854,0.4032,-31.2364,-21.1112,29,0.9355,8509,4.0326,168.3241
rg,1624882398030350134,1,0.2097,-0.5864,0.6313,528,95.0928,-88.501,-2.5635,163,0.7864,0.4032,-33.9754,-19.0112,30,0.9355,9410,4.0326,170.1771
rg,1624882398030368216,1,0.2903,-0.5007,0.5955,529,92.7124,-103.3325,-8.1787,163,0.7864,0.4042,-37.5324,-16.9542,30,0.9355,8326,4.0326,-188.0885
rg,1624882398030385834,1,0.3591,-0.447,0.5317,530,87.0361,-111.2671,-16.6626,163,0.7874,0.4042,-41.6614,-14.9969,30,0.9355,8305,4.0326,-186.6873
rg,1624882398030403527,1,0.457,-0.4675,0.5686,531,67.1387,-113.9526,-23.5596,163,0.7874,0.4042,-46.0009,-13.6342,30,0.9355,8387,4.0326,-185.6382
rg,1624882398030433243,1,0.4973,-0.5049,0.6025,532,57.312,-105.7129,-25.8179,163,0.7874,0.4052,-49.3511,-12.5154,30,0.9355,8257,4.0326,-185.2055
rg,1624882398030451788,1,0.5251,-0.5764,0.6541,533,48.4619,-74.7681,-31.189,163,0.7864,0.4012,-51.9759,-11.337,30,0.9345,9066,4.0326,-185.011
rg,1624882398030469147,1,0.4548,-0.6233,0.7192,534,52.063,-50.7202,-33.0811,163,0.7874,0.4022,-53.3941,-9.7268,30,0.9345,8538,4.0326,-185.2013
rg,1624882398030486988,1,0.3784,-0.6426,0.7866,535,62.1948,-44.6777,-30.8838,163,0.7874,0.4032,-54.3234,-7.7546,30,0.9355,9194,4.0326,-185.3421
rg,1624882398030505051,1,0.3264,-0.5867,0.7776,536,73.0591,-52.8564,-27.5269,163,0.7874,0.4042,-55.4351,-5.5029,30,0.9355,8780,4.0326,-185.2808
rg,1624882398030522540,1,0.322,-0.5051,0.7532,537,76.9653,-68.9087,-27.832,163,0.7884,0.4032,-57.13,-2.9508,30,0.9365,8931,4.0326,-185.3508
rg,1624882398030539825,1,0.3071,-0.4707,0.7444,538,76.355,-76.416,-30.9448,163,0.7864,0.4022,-59.454,-0.1545,30,0.9345,8782,4.0326,-185.8943
rg,1624882398030556906,1,0.2927,-0.4297,0.7092,539,70.0684,-101.6846,-34.9731,163,0.7864,0.4042,-62.2567,2.9925,29,0.9355,8945,4.0326,-186.9469
rg,1624882398030573821,1,0.3484,-0.429,0.6914,540,62.5,-132.0801,-41.5649,163,0.7884,0.4042,-66.2167,7.0559,29,0.9365,8827,4.0326,170.6765
rg,1624882398030591754,1,0.4563,-0.3975,0.6423,541,67.749,-152.9541,-44.8608,163,0.7884,0.4022,-70.9163,13.6332,29,0.9345,9267,4.0326,165.934
rg,1624882398030608891,1,0.6094,-0.4182,0.7449,542,69.8242,-162.2314,-38.0249,163,0.7894,0.4012,-75.6029,23.7005,29,0.9355,8983,4.0326,157.7605
rg,1624882398030626417,1,0.7495,-0.4419,0.7852,543,66.1011,-151.6113,-30.9448,163,0.7884,0.3992,-79.3251,39.3505,29,0.9355,9131,4.0326,143.7425
rg,1624882398030643943,1,0.835,-0.4514,0.7434,544,69.8242,-109.9243,-24.7192,163,0.7894,0.3982,-81.1782,57.5605,29,0.9355,8980,4.0326,127.3712
rg,1624882398192543371,1,0.4243,-0.2727,0.9226,545,2.3804,-9.9487,16.2964,145,0.8114,0.4202,-25.2967,-20.0285,30,0.9365,20216,4.0436,-74.1262
rg,1624882398192591854,1,0.4246,-0.2749,0.9236,546,2.0142,-8.606,15.564,145,0.8114,0.4202,-25.3398,-20.1367,30,0.9365,8594,4.0436,-73.4101
rg,1624882398192614012,1,0.4094,-0.2803,0.9341,547,2.0752,-7.1411,14.7095,145,0.8124,0.4202,-25.2973,-20.2174,30,0.9375,7746,4.0436,-72.752
rg,1624882398192635150,1,0.4062,-0.271,0.9324,548,3.479,-9.3384,16.1133,145,0.8134,0.4222,-25.3164,-20.258,30,0.9375,7944,4.0436,-72.0118
rg,1624882398192654399,1,0.4114,-0.2705,0.925,549,3.6011,-10.1929,16.2354,145,0.8124,0.4212,-25.3805,-20.3048,30,0.9375,7874,4.0436,-71.2519
rg,1624882398192706662,1,0.4224,-0.2739,0.928,550,3.9062,-9.7046,15.4419,145,0.8124,0.4232,-25.4527,-20.3276,30,0.9375,7975,4.0436,-70.5301
rg,1624882398192728597,1,0.4229,-0.2688,0.9248,551,4.1504,-8.3618,15.5029,145,0.8124,0.4232,-25.4761,-20.3232,30,0.9365,7842,4.0436,-69.831
rg,1624882398192748587,1,0.4165,-0.2595,0.925,552,3.6621,-7.6904,15.0757,145,0.8144,0.4222,-25.4697,-20.3047,30,0.9365,7967,4.0436,-69.1694
rg,1624882398192766984,1,0.415,-0.2585,0.9294,553,2.9297,-6.3477,16.1133,145,0.8124,0.4242,-25.3928,-20.3199,29,0.9325,7903,4.0436,-68.4876
rg,1624882398192784954,1,0.4109,-0.271,0.9314,554,2.4414,-6.7749,17.1509,145,0.8124,0.4262,-25.3356,-20.3769,29,0.9375,8043,4.0436,-67.7618
rg,1624882398192803443,1,0.4163,-0.2686,0.9336,555,2.6245,-5.9814,16.5405,145,0.8134,0.4252,-25.2396,-20.4246,29,0.9375,7897,4.0436,-67.0609
rg,1624882398192822155,1,0.4126,-0.2659,0.9309,556,2.7466,-6.5308,17.0288,145,0.8134,0.4272,-25.1562,-20.4721,29,0.9365,8056,4.0436,-66.3344
rg,1624882398192840793,1,0.4092,-0.2695,0.928,557,3.0518,-6.2256,18.0664,145,0.8134,0.4262,-25.0441,-20.5305,30,0.9375,10270,4.0436,-65.5664
rg,1624882398192860393,1,0.4058,-0.2698,0.9351,558,2.8687,-6.4087,16.2354,145,0.8134,0.4262,-24.956,-20.557,30,0.9375,8086,4.0436,-64.8745
rg,1624882398192879309,1,0.4119,-0.2634,0.9387,559,2.8076,-7.5073,16.5405,145,0.8134,0.4252,-24.919,-20.5801,30,0.9375,7998,4.0436,-64.1605
rg,1624882398192897520,1,0.4124,-0.2703,0.929,560,1.77,-7.019,16.9067,145,0.8144,0.4262,-24.866,-20.6684,30,0.9375,8132,4.0436,-63.4301
rg,1624882398192916047,1,0.4036,-0.2712,0.9321,561,2.0752,-6.6528,16.6626,145,0.8144,0.4272,-24.7838,-20.7328,30,0.9385,8040,4.0436,-62.7175
rg,1624882398192934147,1,0.396,-0.2737,0.9358,562,1.77,-5.9814,15.2588,145,0.8134,0.4282,-24.6805,-20.7794,30,0.9375,8229,4.0436,-62.0734
rg,1624882398192952451,1,0.3918,-0.2771,0.9326,563,2.4414,-7.9346,17.0288,145,0.8134,0.4282,-24.6214,-20.8492,30,0.9355,8075,4.0436,-61.3228
rg,1624882398192971218,1,0.3953,-0.2769,0.9373,564,2.1973,-8.3008,15.3198,145,0.8144,0.4282,-24.6053,-20.8949,30,0.9385,8247,4.0436,-60.6393
rg,1624882398193006177,1,0.4011,-0.2673,0.9392,565,1.8921,-8.5449,15.4419,145,0.8144,0.4302,-24.6098,-20.9322,30,0.9375,12874,4.0436,-59.957
rg,1624882398193027594,1,0.395,-0.2732,0.937,566,1.9531,-7.5684,14.3433,145,0.8154,0.4282,-24.629,-20.9598,30,0.9385,12161,4.0436,-59.341
rg,1624882398193045990,1,0.3909,-0.2722,0.9397,567,3.1128,-8.5449,13.5498,145,0.8154,0.4302,-24.6389,-20.9205,30,0.9385,8244,4.0436,-58.7346
rg,1624882398193064721,1,0.3938,-0.2688,0.9426,568,3.418,-10.2539,14.8315,145,0.8154,0.4302,-24.6967,-20.8979,29,0.9385,8449,4.0436,-58.0504
rg,1624882398193084284,1,0.4026,-0.2659,0.9348,569,3.6011,-9.7656,14.2822,145,0.8154,0.4312,-24.7666,-20.8563,29,0.9385,8580,4.0436,-57.3964
rg,1624882398193104052,1,0.4019,-0.2703,0.9414,570,3.418,-9.7656,14.4653,145,0.8154,0.4302,-24.8236,-20.8331,29,0.9385,8326,4.0436,-56.7319
rg,1624882398193122319,1,0.3958,-0.2732,0.9341,571,2.6855,-9.2163,15.1367,145,0.8164,0.4312,-24.8409,-20.8597,29,0.9385,8475,4.0436,-56.0432
rg,1624882398193140790,1,0.3916,-0.2695,0.9338,572,2.7466,-8.7891,14.4653,145,0.8164,0.4332,-24.8387,-20.8031,29,0.9385,8394,4.0436,-55.4068
rg,1624882398193159001,1,0.3884,-0.26,0.9358,573,3.9673,-10.6812,14.0381,145,0.8164,0.4322,-24.9991,-20.7971,29,0.9395,9560,4.0436,-54.683
rg,1624882398193178324,1,0.4026,-0.2578,0.9409,574,3.1128,-13.0005,14.4653,145,0.8164,0.4332,-25.1734,-20.7857,29,0.9395,9053,4.0436,-53.9777
rg,1624882398193197258,1,0.4158,-0.2668,0.9346,575,0.9766,-11.5356,12.5732,145,0.8184,0.4342,-25.3411,-20.8449,29,0.9385,9316,4.0436,-53.3621
rg,1624882398193216600,1,0.4011,-0.2795,0.9365,576,1.0376,-9.4604,13.3057,145,0.8174,0.4332,-25.3795,-20.926,29,0.9395,10288,4.0436,-52.7384
rg,1624882398550076316,1,0.3877,-0.269,0.9373,577,3.1738,-11.4136,13.9771,145,0.8184,0.4392,-25.4763,-20.9174,29,0.9405,25783,4.0436,-52.0686
rg,1624882398550126745,1,0.3958,-0.2759,0.9507,578,2.9297,-12.7563,15.2588,145,0.8184,0.4402,-25.5834,-20.9612,29,0.9395,8620,4.0436,-51.3202
rg,1624882398550157832,1,0.4041,-0.2625,0.9387,579,3.2959,-11.6577,14.5264,145,0.8184,0.4402,-25.6996,-20.9498,29,0.9395,11453,4.0436,-50.6285
rg,1624882398550219173,1,0.4062,-0.2578,0.9314,580,2.0752,-11.0474,15.0757,145,0.8194,0.4402,-25.7774,-20.987,29,0.9395,7833,4.0436,-49.9267
rg,1624882398550249390,1,0.3987,-0.2749,0.9387,581,1.0986,-10.376,14.0991,145,0.8184,0.4412,-25.8146,-21.0738,29,0.9395,11043,4.0436,-49.2618
rg,1624882398550277568,1,0.3901,-0.2803,0.9395,582,1.5259,-10.376,13.7939,145,0.8194,0.4412,-25.8348,-21.146,29,0.9395,7873,4.0436,-48.6059
rg,1624882398550319493,1,0.4001,-0.2634,0.9375,583,2.3193,-11.9629,14.8315,145,0.8194,0.4432,-25.9241,-21.1781,29,0.9405,9044,4.0436,-47.8982
rg,1624882398550346116,1,0.3997,-0.2581,0.9375,584,2.3193,-12.207,13.6108,145,0.8204,0.4442,-26.0371,-21.1774,30,0.9395,7869,4.0436,-47.2428
rg,1624882398550371830,1,0.4131,-0.2649,0.9287,585,2.1362,-11.7798,15.0146,145,0.8204,0.4442,-26.1404,-21.2309,30,0.9405,7974,4.0436,-46.5258
rg,1624882398550397211,1,0.4097,-0.2661,0.9395,586,2.0752,-9.6436,14.8315,145,0.8204,0.4442,-26.1471,-21.262,30,0.9395,10677,4.0436,-45.8539
rg,1624882398550425390,1,0.3967,-0.2688,0.9326,587,1.0376,-8.606,14.7095,145,0.8204,0.4462,-26.095,-21.3332,30,0.9405,7958,4.0436,-45.2001
rg,1624882398550452846,1,0.3889,-0.2722,0.9385,588,2.6245,-7.6904,13.9771,145,0.8204,0.4462,-26.0053,-21.3086,30,0.9405,7869,4.0436,-44.597
rg,1624882398550480469,1,0.386,-0.2617,0.9434,589,2.5024,-10.1318,15.0146,145,0.8214,0.4492,-25.9836,-21.3099,30,0.9395,7984,4.0436,-43.9175
rg,1624882398550506924,1,0.4006,-0.259,0.9314,590,2.4414,-11.2915,16.2964,145,0.8224,0.4492,-26.026,-21.3484,30,0.9405,7935,4.0436,-43.1646
rg,1624882398550533047,1,0.4114,-0.2673,0.9351,591,0.8545,-10.3149,15.686,145,0.8224,0.4492,-26.0544,-21.4485,30,0.9405,9583,4.0436,-42.4457
rg,1624882398550559576,1,0.4021,-0.2695,0.9375,592,1.8311,-8.8501,15.7471,145,0.8234,0.4502,-25.9984,-21.4996,30,0.9405,8582,4.0436,-41.7484
rg,1624882398550586236,1,0.3984,-0.2646,0.9463,593,1.9531,-9.3384,15.9912,145,0.8234,0.4512,-25.9527,-21.5327,30,0.9405,9512,4.0436,-41.042
rg,1624882398550612691,1,0.3967,-0.2637,0.9397,594,1.77,-9.4604,15.8691,145,0.8214,0.4522,-25.9166,-21.572,30,0.9395,8295,4.0436,-40.3383
rg,1624882398550638239,1,0.3997,-0.271,0.9424,595,1.0376,-9.5215,15.2588,145,0.8244,0.4532,-25.894,-21.643,30,0.9405,8005,4.0436,-39.6528
rg,1624882398550663361,1,0.3923,-0.2717,0.9434,596,2.0142,-8.9722,15.0146,145,0.8244,0.4532,-25.845,-21.6654,30,0.9415,8167,4.0436,-38.9869
rg,1624882398550689761,1,0.3867,-0.2642,0.9402,597,1.4648,-10.376,16.1743,145,0.8244,0.4542,-25.8205,-21.7222,30,0.9415,8091,4.0436,-38.2578
rg,1624882398550732742,1,0.3975,-0.2683,0.937,598,2.6855,-11.1084,16.6016,145,0.8254,0.4562,-25.8397,-21.7535,30,0.9415,8233,4.0436,-37.4942
rg,1624882398550760624,1,0.4021,-0.2659,0.9316,599,2.0142,-10.3149,16.0522,145,0.8254,0.4562,-25.8229,-21.7955,29,0.9415,8108,4.0436,-36.7593
rg,1624882398550788655,1,0.3914,-0.2693,0.936,600,2.1973,-10.0098,16.1133,145,0.8244,0.4572,-25.796,-21.8289,29,0.9425,8262,4.0436,-36.0342
rg,1624882398550814666,1,0.3945,-0.2732,0.9529,601,1.0376,-8.9111,16.1133,145,0.8254,0.4562,-25.7217,-21.896,29,0.9395,8128,4.0436,-35.3292
rg,1624882398550840788,1,0.3972,-0.2727,0.928,602,2.5635,-9.9487,16.2964,145,0.8264,0.4582,-25.7094,-21.9262,29,0.9415,8306,4.0832,-34.5933
rg,1624882398550866465,1,0.3909,-0.2576,0.929,603,2.8687,-10.0098,16.0522,75,0.8274,0.4602,-25.6948,-21.9029,30,0.9395,8221,4.0832,-33.8826
rg,1624882398550892032,1,0.3958,-0.269,0.9468,604,3.1738,-8.7891,15.9912,75,0.8274,0.4622,-25.6297,-21.8725,30,0.9445,8350,4.0832,-33.1883
rg,1624882398550918283,1,0.3901,-0.2625,0.9265,605,3.1128,-9.6436,16.7236,75,0.8274,0.4622,-25.5941,-21.8626,30,0.9415,8221,4.0832,-32.4498
rg,1624882398550944276,1,0.3994,-0.2681,0.9346,606,2.9297,-9.0942,16.7847,75,0.8274,0.4632,-25.5249,-21.8829,30,0.9415,8425,4.0832,-31.6989
rg,1624882398550970472,1,0.3882,-0.2654,0.9434,607,2.2583,-8.728,17.2119,75,0.8284,0.4642,-25.4347,-21.9018,30,0.9425,8321,4.0832,-30.9584
rg,1624882398550995946,1,0.3867,-0.2664,0.9387,608,3.0518,-8.4839,15.8691,75,0.8284,0.4652,-25.3592,-21.8671,30,0.9365,8456,4.0832,-30.2751
rg,1624882398903653516,1,0.3884,-0.2717,0.9395,609,2.8687,-9.3994,18.3716,75,0.8294,0.4672,-25.2845,-21.9023,30,0.9415,28680,4.0832,-29.4684
rg,1624882398903692218,1,0.3821,-0.2722,0.9453,610,2.3804,-9.0942,17.4561,75,0.8294,0.4692,-25.2056,-21.8976,30,0.9415,8667,4.0832,-28.7207
rg,1624882398903724621,1,0.3845,-0.2673,0.9382,611,3.7842,-11.1694,16.9067,75,0.8294,0.4692,-25.2186,-21.8707,30,0.9425,9752,4.0832,-27.9495
rg,1624882398903744685,1,0.3855,-0.2629,0.9355,612,3.2349,-11.2915,16.9067,75,0.8294,0.4712,-25.2639,-21.874,30,0.9415,7877,4.0832,-27.1205
rg,1624882398903783757,1,0.397,-0.2666,0.9441,613,2.4414,-11.7188,17.395,75,0.8294,0.4712,-25.3083,-21.9106,30,0.9415,7952,4.0832,-26.3216
rg,1624882398903803598,1,0.396,-0.2778,0.9456,614,0.9155,-10.0098,15.686,75,0.8314,0.4722,-25.306,-21.989,30,0.9425,8043,4.0832,-25.6112
rg,1624882398903822458,1,0.3828,-0.2822,0.9451,615,1.2207,-8.9111,15.5029,75,0.8304,0.4712,-25.2632,-21.9861,30,0.9425,7952,4.0832,-24.8668
rg,1624882398903841392,1,0.3755,-0.2627,0.9434,616,3.2349,-10.1318,16.1743,75,0.8304,0.4722,-25.2252,-21.9431,29,0.9445,8356,4.0832,-24.1506
rg,1624882398903899287,1,0.3823,-0.2595,0.9424,617,2.8687,-10.7422,15.8691,75,0.8314,0.4722,-25.2316,-21.9092,29,0.9445,8623,4.0832,-23.4386
rg,1624882398903919203,1,0.394,-0.2683,0.9404,618,3.1738,-11.4746,15.9912,75,0.8314,0.4722,-25.318,-21.8838,29,0.9425,7899,4.0832,-22.7021
rg,1624882398903937155,1,0.3901,-0.26,0.9529,619,3.2349,-11.4136,14.7705,75,0.8314,0.4712,-25.3706,-21.8195,30,0.9425,8086,4.0832,-22.0253
rg,1624882398903954885,1,0.3774,-0.2666,0.9412,620,2.3804,-10.8643,15.0757,75,0.8324,0.4732,-25.3777,-21.8154,30,0.9395,7952,4.0832,-21.3347
rg,1624882398903974078,1,0.3765,-0.2788,0.9465,621,1.8921,-11.4746,14.9536,75,0.8324,0.4722,-25.3992,-21.8573,30,0.9425,8147,4.0832,-20.6285
rg,1624882398903991289,1,0.3728,-0.2769,0.9473,622,2.1973,-11.5356,14.5874,75,0.8314,0.4702,-25.42,-21.8744,30,0.9455,7998,4.0832,-19.9392
rg,1624882398904009185,1,0.3828,-0.2686,0.9358,623,3.418,-14.5874,14.5874,75,0.8334,0.4732,-25.5836,-21.8549,29,0.9445,8145,4.0832,-19.2035
rg,1624882398904026971,1,0.3845,-0.2637,0.9316,624,3.6621,-15.625,16.0522,75,0.8334,0.4732,-25.7655,-21.8543,29,0.9435,8037,4.0832,-18.3932
rg,1624882398904044200,1,0.3926,-0.2576,0.937,625,2.8076,-15.9302,14.8315,75,0.8334,0.4732,-25.9836,-21.8542,29,0.9435,8240,4.0832,-17.6349
rg,1624882398904061893,1,0.4028,-0.2644,0.938,626,1.0376,-15.1367,15.3809,75,0.8344,0.4742,-26.1725,-21.9478,29,0.9445,8062,4.0832,-16.8596
rg,1624882398904079400,1,0.3928,-0.2781,0.9404,627,1.0376,-12.6953,13.3057,75,0.8334,0.4752,-26.2679,-22.0127,30,0.9425,8247,4.0832,-16.1992
rg,1624882398904113655,1,0.3899,-0.2751,0.9409,628,0.9766,-12.6343,14.4043,75,0.8364,0.4742,-26.3348,-22.0909,30,0.9435,8098,4.0832,-15.4983
rg,1624882398904133553,1,0.3809,-0.2698,0.938,629,1.77,-14.3433,14.2212,75,0.8344,0.4752,-26.4499,-22.1342,30,0.9435,8232,4.0832,-14.7819
rg,1624882398904151097,1,0.3945,-0.261,0.9348,630,2.0752,-15.9912,13.9771,75,0.8344,0.4762,-26.6571,-22.1569,30,0.9435,10061,4.0832,-14.0553
rg,1624882398904169086,1,0.3999,-0.2639,0.9336,631,1.6479,-16.2354,15.686,75,0.8344,0.4762,-26.8494,-22.2405,30,0.9435,8357,4.0832,-13.2497
rg,1624882398904186205,1,0.3972,-0.2639,0.9351,632,0.9766,-14.2212,14.4653,75,0.8344,0.4762,-26.9709,-22.3105,30,0.9435,12874,4.0832,-12.5304
rg,1624882398904204935,1,0.3958,-0.2644,0.9385,633,1.8921,-14.7095,14.3433,75,0.8344,0.4772,-27.1013,-22.3432,30,0.9435,8487,4.0832,-11.8092
rg,1624882398904222572,1,0.3887,-0.2754,0.9409,634,1.0376,-14.0991,13.4277,75,0.8344,0.4762,-27.198,-22.411,30,0.9435,8285,4.0832,-11.1261
rg,1624882398904239931,1,0.3972,-0.2686,0.9397,635,0.9766,-14.8315,14.4653,75,0.8354,0.4762,-27.3055,-22.4985,30,0.9425,8497,4.0832,-10.3911
rg,1624882398904257105,1,0.3916,-0.271,0.9417,636,1.1597,-14.9536,14.5264,75,0.8354,0.4762,-27.4137,-22.5758,30,0.9435,8348,4.0832,-9.6538
rg,1624882398904274853,1,0.4001,-0.2717,0.9409,637,1.5869,-15.1367,14.8926,75,0.8354,0.4752,-27.5351,-22.6462,30,0.9425,8467,4.0832,-8.8974
rg,1624882398904295399,1,0.3972,-0.2661,0.9424,638,2.0752,-14.5874,13.916,75,0.8354,0.4762,-27.6411,-22.6586,30,0.9435,8576,4.0832,-8.1986
rg,1624882398904315518,1,0.4006,-0.2668,0.9438,639,2.5635,-14.0381,13.9771,75,0.8354,0.4782,-27.7335,-22.6583,30,0.9435,8385,4.0832,-7.5026
rg,1624882398904336898,1,0.4065,-0.2598,0.9414,640,2.6245,-14.0381,13.9771,75,0.8364,0.4772,-27.8317,-22.6347,30,0.9435,8594,4.0832,-6.8169
rg,1624882399278119266,1,0.4072,-0.2627,0.9258,641,2.2583,-13.3057,13.855,75,0.8374,0.4782,-27.9136,-22.6373,29,0.9435,26835,4.0832,-6.1402
rg,1624882399278170045,1,0.4006,-0.2644,0.9238,642,1.2207,-13.7329,15.0146,75,0.8364,0.4802,-27.984,-22.6751,29,0.9435,12800,4.0832,-5.4292
rg,1624882399278242982,1,0.4028,-0.272,0.9326,643,0.9766,-11.9019,12.8784,75,0.8364,0.4792,-28.0056,-22.7145,29,0.9435,7799,4.0832,-4.8107
rg,1624882399278275143,1,0.4041,-0.2595,0.9329,644,1.8311,-12.207,14.4043,75,0.8374,0.4802,-28.0203,-22.7219,30,0.9435,10202,4.0832,-4.1374
rg,1624882399278306285,1,0.4089,-0.2629,0.925,645,0.9766,-12.4512,15.1978,75,0.8374,0.4802,-28.0453,-22.795,30,0.9445,7697,4.0832,-3.42
rg,1624882399278335185,1,0.4124,-0.27,0.9309,646,0.9155,-10.9863,13.855,75,0.8374,0.4792,-28.0188,-22.8534,30,0.9445,7861,4.0832,-2.7744
rg,1624882399278363363,1,0.405,-0.2634,0.9399,647,0.9766,-10.5591,15.4419,75,0.8374,0.4802,-27.95,-22.9,30,0.9435,8792,4.0832,-2.0872
rg,1624882399278392282,1,0.395,-0.2646,0.9375,648,1.5259,-9.2163,14.7705,75,0.8374,0.4802,-27.8265,-22.9008,30,0.9445,7792,4.0832,-1.4512
rg,1624882399278422275,1,0.394,-0.2617,0.9399,649,2.3804,-11.6577,16.7847,75,0.8374,0.4802,-27.7632,-22.917,30,0.9445,9490,4.0832,-0.6922
rg,1624882399278451009,1,0.3975,-0.2581,0.9351,650,2.3804,-11.4136,16.2964,75,0.8384,0.4802,-27.71,-22.9335,30,0.9455,8144,4.0832,0.0481
rg,1624882399278478538,1,0.4006,-0.2605,0.9385,651,1.4038,-10.6812,14.9536,75,0.8344,0.4802,-27.6583,-22.9412,30,0.9435,7867,4.0832,0.7124
rg,1624882399278507512,1,0.4001,-0.2585,0.9355,652,2.7466,-10.498,15.9302,75,0.8384,0.4812,-27.5887,-22.909,30,0.9445,8014,4.0832,1.4127
rg,1624882399278537950,1,0.4001,-0.2637,0.938,653,2.6855,-10.6812,15.3198,75,0.8384,0.4822,-27.5348,-22.8796,30,0.9445,7943,4.0832,2.0961
rg,1624882399278566202,1,0.3938,-0.2698,0.9429,654,1.8311,-10.437,15.686,75,0.8384,0.4822,-27.4502,-22.8995,30,0.9445,8451,4.0832,2.7953
rg,1624882399278595269,1,0.3982,-0.2698,0.9402,655,1.6479,-10.8032,15.625,75,0.8384,0.4832,-27.4116,-22.8864,30,0.9445,7959,4.0832,3.5226
rg,1624882399278622150,1,0.3997,-0.2673,0.939,656,2.1973,-10.437,14.6484,75,0.8384,0.4822,-27.3634,-22.868,30,0.9445,8148,4.0832,4.1775
rg,1624882399278651384,1,0.4019,-0.2693,0.9238,657,2.5635,-11.0474,16.7847,75,0.8384,0.4832,-27.3214,-22.8962,30,0.9445,9529,4.0832,4.9392
rg,1624882399278714372,1,0.4072,-0.2681,0.9348,658,3.1738,-9.0332,16.4185,75,0.8394,0.4842,-27.2156,-22.8646,30,0.9445,8168,4.0832,5.6448
rg,1624882399278748404,1,0.3989,-0.2576,0.9282,659,3.1738,-8.5449,15.8691,75,0.8394,0.4852,-27.0973,-22.798,30,0.9455,8268,4.0832,6.31
rg,1624882399278775137,1,0.3972,-0.2578,0.9373,660,2.8687,-8.606,15.686,75,0.8394,0.4872,-26.979,-22.7359,30,0.9445,8206,4.0832,6.967
rg,1624882399278817043,1,0.395,-0.2612,0.9407,661,1.8921,-9.1553,15.7471,75,0.8394,0.4872,-26.8769,-22.7245,30,0.9445,8109,4.0832,7.6395
rg,1624882399278844720,1,0.395,-0.2603,0.9285,662,1.9531,-9.2163,15.5029,75,0.8394,0.4882,-26.7945,-22.712,29,0.9455,8231,4.0832,8.3059
rg,1624882399278871657,1,0.3901,-0.2593,0.9343,663,1.709,-8.9722,15.8081,75,0.8394,0.4892,-26.6834,-22.721,29,0.9455,8120,4.0832,8.9847
rg,1624882399278898667,1,0.3862,-0.261,0.9478,664,2.3804,-8.667,16.4185,75,0.8404,0.4882,-26.5424,-22.689,29,0.9455,8315,4.0832,9.6734
rg,1624882399278926901,1,0.3914,-0.2615,0.9426,665,3.0518,-9.2163,15.5029,75,0.8394,0.4892,-26.4556,-22.6224,29,0.9455,8149,4.0832,10.3367
rg,1624882399278953856,1,0.3882,-0.2632,0.9414,666,2.9297,-10.2539,16.3574,75,0.8394,0.4902,-26.4181,-22.6393,29,0.9445,8765,4.0832,11.0835
rg,1624882399278980718,1,0.3918,-0.2629,0.9402,667,2.1973,-11.1694,15.9302,75,0.8404,0.4902,-26.3727,-22.6198,29,0.9455,8235,4.0832,11.7717
rg,1624882399279008489,1,0.3914,-0.2612,0.9438,668,1.709,-10.9253,15.686,75,0.8394,0.4932,-26.352,-22.6228,29,0.9465,8414,4.0832,12.4725
rg,1624882399279035092,1,0.3906,-0.2639,0.9321,669,1.8921,-10.0098,14.2822,75,0.8404,0.4922,-26.3266,-22.5995,29,0.9455,8365,4.0832,13.1059
rg,1624882399279061047,1,0.397,-0.2642,0.9326,670,1.0376,-11.9019,15.3198,75,0.8404,0.4922,-26.3678,-22.6456,30,0.9455,8432,4.0832,13.8156
rg,1624882399279088150,1,0.4041,-0.2666,0.9321,671,1.0376,-11.4136,15.0757,75,0.8404,0.4922,-26.3704,-22.6825,30,0.9455,8314,4.0832,14.5231
rg,1624882399279114753,1,0.3992,-0.2725,0.9392,672,2.2583,-10.437,15.564,75,0.8404,0.4922,-26.3483,-22.6847,30,0.9455,8489,4.0832,15.2227
rg,1624882399631998416,1,0.3994,-0.2656,0.9285,673,2.6855,-8.8501,15.4419,75,0.8404,0.4942,-26.2818,-22.6468,30,0.9455,25331,4.0832,15.886
rg,1624882399632054031,1,0.3909,-0.2642,0.9424,674,2.0752,-8.2397,15.686,75,0.8414,0.4932,-26.165,-22.6194,30,0.9455,12562,4.0832,16.5431
rg,1624882399632074891,1,0.3828,-0.2581,0.9426,675,2.9907,-8.667,16.3574,75,0.8404,0.4962,-26.0445,-22.5557,29,0.9455,12427,4.0832,17.2289
rg,1624882399632094491,1,0.3828,-0.2576,0.9438,676,2.0142,-8.1177,15.8691,75,0.8414,0.4972,-25.9159,-22.5169,29,0.9455,9707,4.0832,17.8853
rg,1624882399632112683,1,0.3889,-0.2556,0.9438,677,3.2349,-9.5215,16.0522,75,0.8414,0.4972,-25.8546,-22.4397,29,0.9455,7768,4.0832,18.5722
rg,1624882399632130042,1,0.3857,-0.2603,0.9465,678,2.5024,-9.6436,15.4419,75,0.8404,0.4972,-25.8004,-22.3924,29,0.9455,7980,4.0832,19.241
rg,1624882399632146734,1,0.394,-0.2615,0.9341,679,1.709,-10.498,16.1743,75,0.8424,0.4982,-25.7967,-22.4624,30,0.9465,7927,4.0832,19.9973
rg,1624882399632164130,1,0.3914,-0.2654,0.9424,680,1.8921,-9.9487,16.5405,75,0.8414,0.4972,-25.7512,-22.4748,30,0.9455,8000,4.0832,20.7226
rg,1624882399632183952,1,0.3972,-0.2629,0.9377,681,1.77,-9.4604,15.686,75,0.8414,0.4982,-25.7185,-22.4703,30,0.9465,8419,4.0832,21.4034
rg,1624882399632201219,1,0.3943,-0.2632,0.9407,682,1.8311,-10.7422,15.9912,75,0.8414,0.4982,-25.7214,-22.4765,30,0.9465,8638,4.0832,22.118
rg,1624882399632218763,1,0.3997,-0.2656,0.9407,683,2.1362,-10.9863,16.9067,75,0.8424,0.4982,-25.7202,-22.458,30,0.9465,9264,4.0832,22.8375
rg,1624882399632235751,1,0.3965,-0.2588,0.9412,684,2.0142,-9.8267,16.6016,75,0.8424,0.5002,-25.6883,-22.4615,30,0.9475,10089,4.0832,23.5643
rg,1624882399632252683,1,0.3914,-0.26,0.9419,685,2.1362,-8.1787,16.4185,75,0.8424,0.5002,-25.5862,-22.4352,30,0.9465,7997,4.0832,24.2489
rg,1624882399632269320,1,0.3865,-0.2615,0.9438,686,2.4414,-8.2397,16.8457,75,0.8424,0.5022,-25.4725,-22.4059,30,0.9445,8117,4.0832,24.953
rg,1624882399632285789,1,0.3833,-0.2595,0.939,687,2.7466,-7.9956,17.1509,75,0.8414,0.5032,-25.354,-22.3634,30,0.9465,7980,4.0832,25.6417
rg,1624882399632323230,1,0.3804,-0.2607,0.9495,688,1.5869,-9.3384,16.7236,75,0.8414,0.5022,-25.2764,-22.3679,30,0.9465,8118,4.0832,26.3578
rg,1624882399632340904,1,0.3828,-0.2642,0.9429,689,2.1362,-10.376,16.5405,75,0.8424,0.5032,-25.2514,-22.3663,30,0.9435,8046,4.0832,27.0893
rg,1624882399632357818,1,0.387,-0.2588,0.9397,690,2.2583,-11.4746,17.0288,75,0.8424,0.5032,-25.2727,-22.3666,30,0.9465,8235,4.0832,27.8553
rg,1624882399632375640,1,0.387,-0.2622,0.9429,691,1.6479,-10.0708,15.9912,75,0.8414,0.5052,-25.2538,-22.3686,30,0.9465,8066,4.0832,28.5574
rg,1624882399632392331,1,0.3928,-0.2644,0.9385,692,1.9531,-10.1318,15.9912,75,0.8424,0.5052,-25.2522,-22.3673,30,0.9465,8320,4.0832,29.2642
rg,1624882399632409042,1,0.3838,-0.2727,0.9421,693,1.0986,-10.7422,16.3574,75,0.8424,0.5062,-25.2438,-22.4262,30,0.9475,8133,4.0832,30.003
rg,1624882399632425511,1,0.3862,-0.2651,0.9426,694,0.9155,-10.1318,15.625,75,0.8434,0.5072,-25.2359,-22.4482,29,0.9465,8302,4.0832,30.6901
rg,1624882399632441962,1,0.3904,-0.261,0.9438,695,0.9766,-10.5591,15.8691,75,0.8414,0.5082,-25.2438,-22.4718,29,0.9465,8195,4.0832,31.393
rg,1624882399632458506,1,0.3916,-0.2634,0.937,696,2.7466,-10.7422,16.1133,75,0.8424,0.5072,-25.2612,-22.4399,29,0.9475,8204,4.0832,32.113
rg,1624882399632475809,1,0.386,-0.2646,0.9436,697,1.5869,-10.7422,15.9912,75,0.8434,0.5062,-25.2305,-22.4496,29,0.9475,8221,4.0832,32.8107
rg,1624882399632493186,1,0.3853,-0.2581,0.9426,698,1.709,-9.5825,15.2588,75,0.8424,0.5062,-25.2038,-22.4196,30,0.9465,8396,4.0832,33.4692
rg,1624882399632511360,1,0.3774,-0.2571,0.9404,699,1.5869,-11.0474,16.0522,75,0.8434,0.5082,-25.2407,-22.3836,30,0.9475,8297,4.0832,34.1714
rg,1624882399632529034,1,0.3882,-0.26,0.9487,700,0.9766,-11.8408,15.5029,75,0.8434,0.5092,-25.2927,-22.41,30,0.9475,8582,4.0832,34.8894
rg,1624882399632548708,1,0.3831,-0.2678,0.9443,701,0.9155,-10.7422,14.3433,75,0.8434,0.5092,-25.3117,-22.4275,30,0.9475,8325,4.0832,35.5399
rg,1624882399632566993,1,0.3816,-0.2698,0.9463,702,1.8311,-10.437,14.7095,75,0.8424,0.5092,-25.3081,-22.415,29,0.9465,8438,4.0832,36.2012
rg,1624882399632606379,1,0.3787,-0.2627,0.9395,703,2.1362,-10.6812,14.6484,75,0.8434,0.5102,-25.3161,-22.3799,29,0.9475,9373,4.0832,36.8592
rg,1624882399632626109,1,0.3823,-0.262,0.937,704,1.8311,-12.085,16.0522,75,0.8444,0.5092,-25.3636,-22.3938,29,0.9475,9342,4.0832,37.5993
rg,1624882399985113430,1,0.3872,-0.2578,0.9336,705,1.2207,-11.2305,14.9536,75,0.8434,0.5102,-25.4081,-22.3999,29,0.9475,27722,4.0832,38.2769
rg,1624882399985154446,1,0.3835,-0.2661,0.946,706,1.0376,-10.6812,14.5874,75,0.8434,0.5112,-25.4125,-22.4122,29,0.9475,8847,4.0832,38.9323
rg,1624882399985175621,1,0.3723,-0.2607,0.9412,707,1.1597,-11.2305,14.5874,75,0.8434,0.5112,-25.424,-22.4142,29,0.9475,10848,4.0832,39.5947
rg,1624882399985195110,1,0.3789,-0.2622,0.939,708,1.9531,-12.3901,15.5029,75,0.8444,0.5123,-25.4781,-22.4148,29,0.9475,7766,4.0832,40.3167
rg,1624882399985214525,1,0.3821,-0.2588,0.9404,709,2.1973,-12.3901,14.9536,75,0.8444,0.5123,-25.5451,-22.3884,29,0.9475,7909,4.0832,41.0126
rg,1624882399985233403,1,0.387,-0.2559,0.9421,710,2.5635,-11.8408,15.564,75,0.8444,0.5123,-25.5927,-22.4122,29,0.9475,7790,4.0832,41.7179
rg,1624882399985251373,1,0.3904,-0.25,0.9497,711,1.709,-12.2681,15.3198,75,0.8444,0.5112,-25.6577,-22.3871,30,0.9475,7876,4.0832,42.4159
rg,1624882399985268880,1,0.386,-0.2654,0.9412,712,0.9155,-11.2305,14.7095,75,0.8444,0.5123,-25.6837,-22.4171,30,0.9465,9002,4.0832,43.0891
rg,1624882399985285628,1,0.3804,-0.2698,0.9417,713,1.0376,-11.4136,15.0757,75,0.8454,0.5112,-25.6965,-22.4583,30,0.9485,7916,4.0832,43.7841
rg,1624882399985302116,1,0.3818,-0.261,0.9456,714,1.77,-11.2305,15.7471,94,0.8444,0.5092,-25.6945,-22.4569,29,0.9505,7821,4.0733,44.4929
rg,1624882399985319271,1,0.3853,-0.2671,0.9412,715,1.0376,-11.8408,15.8081,94,0.8444,0.5123,-25.7219,-22.5076,29,0.9475,8011,4.0733,45.2224
rg,1624882399985335870,1,0.3882,-0.2654,0.9424,716,1.0986,-11.7798,16.1133,94,0.8454,0.5112,-25.741,-22.5431,29,0.9475,7889,4.0733,45.9112
rg,1624882399985352543,1,0.3906,-0.2612,0.9434,717,1.9531,-11.1694,15.1367,94,0.8444,0.5092,-25.7626,-22.5233,29,0.9485,8042,4.0733,46.5941
rg,1624882399985391318,1,0.3884,-0.2583,0.9377,718,0.9155,-11.9019,15.1367,94,0.8454,0.5123,-25.8109,-22.5484,29,0.9445,7909,4.0733,47.2886
rg,1624882399985409473,1,0.3896,-0.2544,0.9414,719,2.0142,-11.8408,16.1133,94,0.8454,0.5123,-25.8482,-22.531,29,0.9485,8050,4.0733,47.9908
rg,1624882399985426646,1,0.3894,-0.2522,0.946,720,0.9766,-11.5967,15.625,94,0.8444,0.5123,-25.8723,-22.5415,29,0.9485,8483,4.0733,48.6915
rg,1624882399985443227,1,0.3831,-0.2634,0.9341,721,0.9155,-10.498,16.5405,94,0.8454,0.5133,-25.833,-22.5952,29,0.9485,13016,4.0733,49.4253
rg,1624882399985459919,1,0.3801,-0.2634,0.9414,722,1.8311,-10.7422,15.1367,94,0.8444,0.5133,-25.8244,-22.5968,30,0.9475,8042,4.0733,50.0711
rg,1624882399985477055,1,0.3818,-0.2605,0.948,723,0.9766,-10.9863,15.564,94,0.8444,0.5143,-25.8079,-22.6153,30,0.9475,8087,4.0733,50.7652
rg,1624882399985494173,1,0.3811,-0.2593,0.9434,724,2.0142,-12.5122,15.564,94,0.8444,0.5143,-25.8505,-22.6035,30,0.9475,8186,4.0733,51.4854
rg,1624882399985511087,1,0.3855,-0.2681,0.9458,725,0.7935,-12.085,15.8081,94,0.8444,0.5153,-25.8801,-22.6345,30,0.9485,8149,4.0733,52.1776
rg,1624882399985528335,1,0.3838,-0.2639,0.9465,726,0.9766,-12.085,15.625,94,0.8444,0.5153,-25.9061,-22.671,30,0.9475,9111,4.0733,52.8967
rg,1624882399985545582,1,0.3838,-0.26,0.9438,727,0.9766,-11.9629,15.7471,94,0.8444,0.5153,-25.9257,-22.7004,30,0.9515,8662,4.0733,53.615
rg,1624882399985562923,1,0.3848,-0.2627,0.9407,728,0.9155,-10.9253,15.2588,94,0.8454,0.5153,-25.917,-22.7229,30,0.9435,8342,4.0733,54.2986
rg,1624882399985579652,1,0.384,-0.2598,0.9392,729,1.77,-10.1318,14.7705,94,0.8454,0.5163,-25.8876,-22.6898,30,0.9485,8151,4.0733,54.9456
rg,1624882399985596788,1,0.3894,-0.2585,0.9443,730,1.8921,-11.1084,15.686,94,0.8454,0.5153,-25.8889,-22.671,29,0.9485,8235,4.0733,55.645
rg,1624882399985649420,1,0.386,-0.262,0.9412,731,0.9155,-11.6577,15.8691,94,0.8434,0.5163,-25.9017,-22.7089,29,0.9505,8505,4.0733,56.3659
rg,1624882399985715724,1,0.385,-0.2571,0.9382,732,1.8921,-10.8643,15.4419,94,0.8454,0.5163,-25.8931,-22.6835,29,0.9485,8249,4.0733,57.0509
rg,1624882399985768004,1,0.3845,-0.2603,0.9429,733,0.9155,-10.6812,16.1743,94,0.8454,0.5163,-25.8905,-22.696,30,0.9495,8264,4.0733,57.7558
rg,1624882399985788382,1,0.3892,-0.2571,0.9441,734,1.709,-10.498,14.9536,94,0.8444,0.5163,-25.8806,-22.6633,30,0.9485,8464,4.0733,58.4131
rg,1624882399985806593,1,0.3857,-0.2607,0.9419,735,0.9155,-10.0098,15.1978,94,0.8454,0.5163,-25.8432,-22.6734,30,0.9505,8367,4.0733,59.0766
rg,1624882399985826861,1,0.3787,-0.2673,0.9487,736,1.0986,-10.437,15.7471,94,0.8454,0.5173,-25.7931,-22.6979,30,0.9485,8447,4.0733,59.774
rg,1624882400343050846,1,0.395,-0.2622,0.9346,737,1.0376,-11.9019,16.0522,94,0.8454,0.5173,-25.8219,-22.7286,30,0.9485,25554,4.0733,60.4695
rg,1624882400343106515,1,0.3887,-0.2634,0.9324,738,0.9766,-8.1787,16.1743,94,0.8454,0.5183,-25.7158,-22.7492,29,0.9485,15985,4.0733,61.1459
rg,1624882400343127912,1,0.3877,-0.2605,0.9404,739,0.9766,-7.9346,15.8081,94,0.8454,0.5183,-25.6034,-22.7469,29,0.9485,7780,4.0733,61.7972
rg,1624882400343147938,1,0.3857,-0.2605,0.9414,740,2.6855,-6.7749,16.2964,94,0.8454,0.5193,-25.4412,-22.674,29,0.9495,7707,4.0733,62.4481
rg,1624882400343166130,1,0.3884,-0.2605,0.9478,741,0.9766,-7.3242,17.334,94,0.8444,0.5213,-25.2799,-22.6802,29,0.9485,7744,4.0733,63.1722
rg,1624882400343183747,1,0.3906,-0.2627,0.9504,742,3.0518,-4.8828,16.9067,94,0.8454,0.5213,-25.0547,-22.5873,30,0.9495,7905,4.0733,63.8162
rg,1624882400343201717,1,0.3794,-0.26,0.9512,743,3.1128,-4.6997,18.0054,94,0.8454,0.5203,-24.7937,-22.5027,30,0.9495,10887,4.0733,64.5002
rg,1624882400343218668,1,0.376,-0.262,0.9456,744,3.7231,-4.5776,17.8223,94,0.8464,0.5213,-24.539,-22.3977,30,0.9485,8041,4.0733,65.1794
rg,1624882400343235507,1,0.3845,-0.2576,0.9568,745,2.7466,-6.5308,16.7236,94,0.8464,0.5233,-24.3943,-22.312,30,0.9495,7935,4.0733,65.8419
rg,1624882400343252532,1,0.3828,-0.2507,0.9575,746,3.1128,-7.2632,17.0898,94,0.8464,0.5243,-24.276,-22.2087,30,0.9495,8065,4.0733,66.5263
rg,1624882400343269464,1,0.3831,-0.2478,0.9402,747,3.3569,-7.1411,18.1885,94,0.8464,0.5253,-24.1563,-22.1202,30,0.9495,9375,4.0733,67.2568
rg,1624882400343306941,1,0.387,-0.2595,0.9324,748,2.9297,-5.188,18.3716,94,0.8434,0.5253,-23.9774,-22.0723,30,0.9495,8378,4.0733,67.9769
rg,1624882400343326374,1,0.385,-0.262,0.9426,749,2.8687,-2.4414,18.2495,94,0.8474,0.5253,-23.6944,-22.0038,30,0.9505,7942,4.0733,68.6465
rg,1624882400343343881,1,0.3806,-0.2581,0.9419,750,4.2725,-2.0752,18.4937,94,0.8464,0.5263,-23.3945,-21.8711,30,0.9495,8173,4.0733,69.3176
rg,1624882400343361239,1,0.374,-0.2559,0.9492,751,4.2114,-0.8545,19.104,94,0.8454,0.5263,-23.0408,-21.7342,30,0.9495,7977,4.0733,69.9919
rg,1624882400343377893,1,0.3711,-0.262,0.957,752,4.2114,0.3052,19.104,94,0.8464,0.5283,-22.6464,-21.5993,30,0.9495,8162,4.0733,70.6534
rg,1624882400343395604,1,0.3645,-0.2634,0.9482,753,4.7607,1.0376,19.4092,94,0.8464,0.5283,-22.2395,-21.4359,30,0.9495,8060,4.0733,71.3479
rg,1624882400343413221,1,0.3638,-0.2578,0.9568,754,4.9438,1.709,18.7988,94,0.8474,0.5283,-21.8193,-21.2518,30,0.9495,8272,4.0733,71.9771
rg,1624882400343430413,1,0.3574,-0.2563,0.9531,755,4.0283,1.4038,19.8975,94,0.8474,0.5293,-21.403,-21.1234,30,0.9505,8146,4.0733,72.6583
rg,1624882400343447901,1,0.3491,-0.259,0.9619,756,4.2725,0.9155,19.8975,94,0.8474,0.5303,-21.0275,-21.0422,30,0.9495,8263,4.0733,73.3641
rg,1624882400343465685,1,0.3425,-0.2642,0.9624,757,2.9297,-0.1831,17.7002,94,0.8474,0.5313,-20.6966,-20.9445,30,0.9505,10248,4.0733,73.9898
rg,1624882400343483470,1,0.3301,-0.2549,0.96,758,3.54,-0.7935,17.7002,94,0.8464,0.5303,-20.3813,-20.8064,30,0.9485,8312,4.0733,74.6195
rg,1624882400343500921,1,0.3325,-0.2588,0.9612,759,2.1362,-2.1973,16.8457,94,0.8474,0.5313,-20.1472,-20.7302,30,0.9505,8226,4.0733,75.2419
rg,1624882400343519279,1,0.3323,-0.2605,0.9604,760,1.5259,-6.2866,17.0288,94,0.8474,0.5323,-20.0722,-20.7076,30,0.9505,8408,4.0733,75.9363
rg,1624882400343536526,1,0.3337,-0.2639,0.9663,761,2.0752,-6.0425,16.4795,94,0.8474,0.5323,-20.0465,-20.6225,30,0.9505,8251,4.0733,76.5869
rg,1624882400343552996,1,0.3342,-0.2617,0.9688,762,1.0986,-8.3618,16.1133,94,0.8474,0.5323,-20.0653,-20.6163,30,0.9505,8467,4.0733,77.2768
rg,1624882400343580673,1,0.3228,-0.2649,0.9641,763,0.9766,-8.9722,15.564,94,0.8474,0.5343,-20.0925,-20.6204,30,0.9505,8491,4.0733,77.9574
rg,1624882400343599272,1,0.3247,-0.2661,0.9661,764,0.8545,-10.8643,15.1367,94,0.8484,0.5353,-20.1975,-20.6354,30,0.9515,8472,4.0733,78.6501
rg,1624882400343617001,1,0.3267,-0.2603,0.9614,765,1.0986,-11.7188,14.1602,94,0.8474,0.5353,-20.36,-20.6152,29,0.9505,8328,4.0733,79.3107
rg,1624882400343718761,1,0.3379,-0.2559,0.9617,766,1.8921,-14.3433,15.3198,94,0.8494,0.5353,-20.614,-20.5953,29,0.9515,8472,4.0733,80.0571
rg,1624882400343749624,1,0.3455,-0.2561,0.9551,767,1.0376,-14.5264,14.1602,94,0.8484,0.5363,-20.901,-20.6037,29,0.9505,8575,4.0733,80.7623
rg,1624882400343772410,1,0.3528,-0.2542,0.9548,768,0.9766,-14.8926,14.9536,94,0.8474,0.5383,-21.1944,-20.6278,29,0.9505,8404,4.0733,81.5038
rg,1624882400710652500,1,0.3533,-0.2622,0.9519,769,0.9766,-12.8174,13.4888,94,0.8474,0.5393,-21.4588,-20.669,30,0.9495,27268,4.0733,82.2369
rg,1624882400710693737,1,0.3511,-0.2605,0.9595,770,1.0986,-12.6953,13.9771,94,0.8484,0.5383,-21.6531,-20.6772,30,0.9505,12984,4.0733,82.9096
rg,1624882400710714578,1,0.3555,-0.2605,0.9592,771,0.9766,-13.6719,14.5874,94,0.8474,0.5383,-21.8762,-20.7076,30,0.9505,10288,4.0733,83.6222
rg,1624882400710733826,1,0.3521,-0.2529,0.9551,772,0.7935,-14.0991,14.3433,94,0.8484,0.5383,-22.1075,-20.7315,30,0.9515,7692,4.0733,84.326
rg,1624882400710754871,1,0.3538,-0.2554,0.957,773,0.9766,-13.6719,14.0991,94,0.8484,0.5393,-22.317,-20.7515,30,0.9505,7686,4.0733,85.0163
rg,1624882400710773211,1,0.3545,-0.2524,0.9678,774,0.9155,-12.5732,14.5264,94,0.8484,0.5393,-22.4675,-20.7593,30,0.9515,8196,4.0733,85.7005
rg,1624882400710791051,1,0.3455,-0.2529,0.9683,775,1.0376,-13.6719,15.2588,94,0.8484,0.5403,-22.6237,-20.7819,30,0.9505,7783,4.0733,86.4316
rg,1624882400710808354,1,0.3545,-0.2563,0.9575,776,0.9766,-14.1602,15.5029,94,0.8484,0.5403,-22.8125,-20.8302,30,0.9505,9306,4.0733,87.1859
rg,1624882400710825453,1,0.356,-0.2527,0.9517,777,1.77,-13.5498,14.6484,94,0.8494,0.5393,-22.9945,-20.8436,30,0.9515,7890,4.0733,87.9317
rg,1624882400710863615,1,0.3547,-0.2546,0.9614,778,0.9155,-13.4888,14.2822,94,0.8494,0.5393,-23.1588,-20.8672,30,0.9515,7776,4.0733,88.6235
rg,1624882400710883382,1,0.354,-0.2607,0.9607,779,1.0376,-13.6108,14.8315,94,0.8494,0.5393,-23.3102,-20.9108,30,0.9515,7962,4.0733,89.345
rg,1624882400710900851,1,0.3484,-0.2605,0.9587,780,1.0376,-12.9395,14.0381,94,0.8494,0.5403,-23.4295,-20.9398,30,0.9515,7822,4.0733,90.0243
rg,1624882400710918339,1,0.3472,-0.261,0.9646,781,1.0376,-14.5874,14.2822,94,0.8474,0.5403,-23.5971,-20.9792,30,0.9525,8072,4.0733,90.7376
rg,1624882400710935679,1,0.3469,-0.2549,0.9626,782,0.9155,-14.4043,12.6343,94,0.8494,0.5393,-23.7771,-20.9835,30,0.9515,7918,4.0733,91.3755
rg,1624882400710952389,1,0.356,-0.2532,0.957,783,1.0986,-15.8081,12.9395,94,0.8494,0.5403,-24.0202,-20.9974,30,0.9515,8051,4.0733,92.0484
rg,1624882400710969321,1,0.3606,-0.2507,0.9543,784,1.0376,-16.4795,11.9629,94,0.8504,0.5403,-24.3044,-21.001,30,0.9515,7955,4.0733,92.6907
rg,1624882400710985994,1,0.3579,-0.2551,0.9536,785,0.9766,-16.8457,12.5732,94,0.8504,0.5413,-24.5758,-21.0334,30,0.9525,8116,4.0733,93.3683
rg,1624882400711002759,1,0.3552,-0.2576,0.9648,786,1.9531,-17.0288,13.4277,94,0.8484,0.5413,-24.8172,-21.043,30,0.9545,7946,4.0733,94.0833
rg,1624882400711019766,1,0.3613,-0.2563,0.9541,787,0.9155,-17.4561,13.3057,94,0.8494,0.5403,-25.0861,-21.1025,30,0.9535,7988,4.0733,94.8024
rg,1624882400711036550,1,0.3684,-0.2583,0.9543,788,0.9766,-16.8457,13.0615,94,0.8504,0.5413,-25.3381,-21.1573,30,0.9525,8131,4.0733,95.5038
rg,1624882400711053371,1,0.3684,-0.2529,0.9502,789,0.9155,-15.9302,13.1226,94,0.8504,0.5413,-25.5492,-21.2009,30,0.9515,11496,4.0733,96.1886
rg,1624882400711071118,1,0.3706,-0.2537,0.9519,790,0.9155,-15.3809,13.1836,94,0.8504,0.5413,-25.7333,-21.2434,30,0.9515,8074,4.0733,96.8672
rg,1624882400711088865,1,0.3713,-0.2532,0.9573,791,0.9766,-15.686,14.0381,94,0.8504,0.5423,-25.9063,-21.2973,30,0.9515,8072,4.0733,97.584
rg,1624882400711112319,1,0.3789,-0.2554,0.9531,792,1.0376,-14.9536,13.6719,94,0.8504,0.5423,-26.0674,-21.3456,30,0.9515,8097,4.0733,98.2771
rg,1624882400711142441,1,0.374,-0.2581,0.9553,793,1.0376,-11.9629,13.6108,94,0.8504,0.5423,-26.0997,-21.3751,30,0.9515,8115,4.0733,98.9202
rg,1624882400711160133,1,0.3792,-0.2502,0.9451,794,0.9155,-12.0239,14.2822,94,0.8504,0.5423,-26.1271,-21.4408,30,0.9515,8979,4.0733,99.6417
rg,1624882400711177269,1,0.3721,-0.2507,0.9517,795,0.9766,-11.4136,14.7095,94,0.8504,0.5433,-26.1141,-21.4982,30,0.9515,8167,4.0733,100.3587
rg,1624882400711274509,1,0.373,-0.2522,0.9558,796,1.0376,-12.4512,16.2354,94,0.8504,0.5423,-26.1219,-21.5598,30,0.9535,8218,4.0733,101.1103
rg,1624882400711298629,1,0.3738,-0.2549,0.9507,797,0.9766,-12.4512,16.4185,94,0.8504,0.5433,-26.1301,-21.6344,30,0.9515,8258,4.0733,101.873
rg,1624882400711320137,1,0.3708,-0.2588,0.949,798,0.9766,-10.1318,15.5029,94,0.8514,0.5443,-26.0592,-21.682,30,0.9525,8445,4.0733,102.5626
rg,1624882400711341089,1,0.3669,-0.2537,0.9504,799,1.0376,-9.5215,15.8691,94,0.8504,0.5423,-25.9553,-21.7133,30,0.9535,8305,4.0733,103.2505
rg,1624882400711360837,1,0.3628,-0.2522,0.9529,800,0.9766,-10.0098,15.3809,94,0.8484,0.5443,-25.8709,-21.7338,30,0.9545,8418,4.0733,103.9233
rg,1624882401065400135,1,0.3638,-0.2534,0.9487,801,1.0986,-10.8032,16.0522,94,0.8504,0.5443,-25.8134,-21.771,30,0.9515,25237,4.0733,104.6391
rg,1624882401065447540,1,0.366,-0.2583,0.9519,802,0.9155,-9.6436,15.3809,94,0.8514,0.5463,-25.7256,-21.8021,30,0.9525,9497,4.0733,105.3114
rg,1624882401065469011,1,0.3599,-0.2544,0.9529,803,0.9766,-10.5591,16.0522,94,0.8514,0.5463,-25.6438,-21.7896,29,0.9525,12511,4.0733,105.9968
rg,1624882401065489388,1,0.3591,-0.2595,0.9573,804,1.0986,-10.376,15.4419,94,0.8504,0.5463,-25.5709,-21.8154,29,0.9515,8024,4.0733,106.6827
rg,1624882401065509080,1,0.3635,-0.2554,0.9541,805,2.8687,-10.9863,15.0146,94,0.8514,0.5463,-25.5422,-21.7588,29,0.9525,7751,4.0733,107.3577
rg,1624882401065529013,1,0.363,-0.2534,0.957,806,1.5259,-10.6812,15.0757,94,0.8514,0.5463,-25.5004,-21.7499,30,0.9515,7981,4.0733,108.0281
rg,1624882401065548279,1,0.365,-0.2517,0.9644,807,1.9531,-10.2539,14.8926,94,0.8514,0.5473,-25.4468,-21.7092,30,0.9525,7838,4.0733,108.6804
rg,1624882401065589460,1,0.3589,-0.2576,0.9578,808,1.5259,-9.8267,14.7095,94,0.8514,0.5463,-25.373,-21.697,30,0.9525,9224,4.0733,109.3259
rg,1624882401065611264,1,0.3618,-0.2529,0.9543,809,1.8311,-10.9863,16.2964,94,0.8524,0.5483,-25.3313,-21.7004,30,0.9525,8404,4.0733,110.0525
rg,1624882401065629604,1,0.3635,-0.2488,0.9548,810,2.6855,-10.498,16.5405,94,0.8514,0.5483,-25.3157,-21.6832,30,0.9525,8060,4.0733,110.8559
rg,1624882401065647647,1,0.3577,-0.2561,0.9597,811,2.8687,-9.9487,15.3198,94,0.8514,0.5483,-25.2398,-21.6238,30,0.9525,12752,4.0733,111.5268
rg,1624882401065666895,1,0.3621,-0.2507,0.9536,812,3.6011,-10.498,17.0898,94,0.8514,0.5483,-25.1764,-21.5635,30,0.9525,8081,4.0733,112.2769
rg,1624882401065684697,1,0.3625,-0.2498,0.9619,813,1.8921,-10.437,17.0898,94,0.8514,0.5493,-25.1092,-21.565,30,0.9525,7960,4.0733,113.0236
rg,1624882401065703018,1,0.3584,-0.2454,0.9507,814,1.8921,-8.9111,15.686,94,0.8524,0.5503,-25.0095,-21.5269,30,0.9525,8144,4.0733,113.6861
rg,1624882401065721117,1,0.355,-0.2473,0.9534,815,1.8311,-9.2773,15.2588,94,0.8524,0.5513,-24.9247,-21.4892,30,0.9525,8014,4.0733,114.3386
rg,1624882401065739086,1,0.3604,-0.2463,0.959,816,1.4648,-10.3149,16.1133,94,0.8524,0.5523,-24.8754,-21.4932,30,0.9525,8738,4.0733,115.0455
rg,1624882401065756500,1,0.3594,-0.2534,0.9583,817,1.0376,-10.0098,15.0757,94,0.8544,0.5503,-24.8295,-21.5,30,0.9525,8798,4.0733,115.7077
rg,1624882401065773561,1,0.3499,-0.2568,0.959,818,1.2207,-10.376,14.8315,94,0.8524,0.5523,-24.7819,-21.5034,30,0.9525,8239,4.0733,116.3684
rg,1624882401065790864,1,0.3552,-0.2527,0.9526,819,0.9155,-10.6812,14.7705,94,0.8514,0.5523,-24.7646,-21.5145,30,0.9525,8123,4.0733,117.0294
rg,1624882401065808147,1,0.3557,-0.2515,0.9683,820,1.9531,-11.7798,15.0146,94,0.8534,0.5523,-24.7761,-21.4829,30,0.9545,8275,4.0733,117.7128
rg,1624882401065824746,1,0.3628,-0.2502,0.9583,821,0.9766,-11.7798,14.4043,94,0.8514,0.5533,-24.8175,-21.4854,30,0.9515,8188,4.0733,118.3735
rg,1624882401065841511,1,0.3616,-0.2446,0.9504,822,0.9155,-11.7798,15.1367,94,0.8524,0.5553,-24.8511,-21.4953,30,0.9535,8309,4.0733,119.0608
rg,1624882401065871373,1,0.3638,-0.2488,0.9585,823,0.9766,-11.5356,15.5029,94,0.8524,0.5553,-24.8578,-21.512,30,0.9525,8230,4.0733,119.7609
rg,1624882401065890435,1,0.3577,-0.2537,0.9651,824,0.8545,-10.6201,14.6484,94,0.8514,0.5553,-24.8333,-21.5182,30,0.9515,8214,4.0733,120.4136
rg,1624882401065907830,1,0.3552,-0.2554,0.9563,825,0.9155,-10.9253,15.1367,94,0.8524,0.5553,-24.8141,-21.5411,30,0.9535,8233,4.0733,121.095
rg,1624882401065925651,1,0.3589,-0.2559,0.9583,826,0.9766,-11.5967,16.0522,94,0.8534,0.5553,-24.8263,-21.58,30,0.9535,8266,4.0733,121.8162
rg,1624882401065943509,1,0.3652,-0.2466,0.9578,827,1.0376,-11.3525,15.625,94,0.8524,0.5553,-24.8372,-21.587,30,0.9525,8313,4.0733,122.5153
rg,1624882401065961497,1,0.3665,-0.2529,0.9634,828,1.8311,-11.4136,15.625,94,0.8524,0.5563,-24.8467,-21.5736,30,0.9505,8337,4.0733,123.22
rg,1624882401065978503,1,0.3662,-0.2458,0.9548,829,1.1597,-9.8267,15.0757,85,0.8534,0.5553,-24.8129,-21.5565,30,0.9535,8525,4.0766,123.8719
rg,1624882401065997102,1,0.3608,-0.2502,0.949,830,0.9155,-9.8877,15.4419,85,0.8524,0.5563,-24.782,-21.5844,30,0.9535,8427,4.0766,124.5894
rg,1624882401066014571,1,0.3652,-0.2495,0.9575,831,1.0376,-10.8032,17.2119,85,0.8534,0.5573,-24.7501,-21.6207,30,0.9535,10645,4.0766,125.3472
rg,1624882401066073814,1,0.3643,-0.2507,0.9646,832,1.8921,-10.2539,16.7236,85,0.8514,0.5593,-24.699,-21.607,30,0.9515,8438,4.0766,126.0748
rg,1624882401423732658,1,0.3596,-0.2466,0.948,833,2.1973,-9.4604,17.8833,85,0.8524,0.5573,-24.6069,-21.5958,30,0.9535,27251,4.0766,126.8372
rg,1624882401423769078,1,0.3564,-0.2512,0.9563,834,1.2817,-8.728,18.3105,85,0.8524,0.5583,-24.4715,-21.6271,30,0.9535,8687,4.0766,127.6071
rg,1624882401423789492,1,0.3655,-0.2532,0.9509,835,2.1973,-7.2632,18.1885,85,0.8524,0.5583,-24.3102,-21.6154,30,0.9525,14184,4.0766,128.351
rg,1624882401423808629,1,0.3643,-0.2454,0.9495,836,2.0142,-7.5073,19.2261,85,0.8524,0.5583,-24.1225,-21.5976,30,0.9535,7817,4.0766,129.0769
rg,1624882401423826672,1,0.3569,-0.2559,0.9656,837,2.5635,-5.8594,17.8833,85,0.8534,0.5593,-23.9001,-21.5487,30,0.9535,7968,4.0766,129.784
rg,1624882401423907867,1,0.3545,-0.2537,0.9526,838,2.2583,-5.4321,18.3105,85,0.8534,0.5593,-23.6693,-21.5183,30,0.9535,7833,4.0766,130.5034
rg,1624882401423931134,1,0.3545,-0.2583,0.958,839,1.4648,-4.0894,17.6392,85,0.8534,0.5603,-23.4029,-21.5049,30,0.9535,9552,4.0766,131.177
rg,1624882401423949733,1,0.3538,-0.25,0.9641,840,2.3193,-3.8452,18.3105,85,0.8534,0.5603,-23.0876,-21.4112,30,0.9545,8415,4.0766,131.8351
rg,1624882401423968536,1,0.342,-0.2488,0.97,841,1.6479,-4.5776,18.7378,85,0.8524,0.5603,-22.8172,-21.378,30,0.9535,8563,4.0766,132.5507
rg,1624882401423987061,1,0.3315,-0.2539,0.9614,842,2.0752,-5.127,17.2729,85,0.8534,0.5623,-22.5825,-21.3222,30,0.9545,7781,4.0766,133.2226
rg,1624882401424005216,1,0.3264,-0.2493,0.9609,843,2.0142,-5.9204,17.5781,85,0.8544,0.5623,-22.4226,-21.2661,30,0.9535,8036,4.0766,133.9355
rg,1624882401424022444,1,0.334,-0.2493,0.9661,844,1.8921,-7.4463,17.4561,85,0.8524,0.5633,-22.2913,-21.2214,30,0.9545,7846,4.0766,134.6482
rg,1624882401424040284,1,0.3337,-0.2478,0.9668,845,3.9062,-8.667,17.7002,85,0.8534,0.5643,-22.2073,-21.1039,30,0.9535,8021,4.0766,135.3891
rg,1624882401424057327,1,0.3325,-0.2556,0.9705,846,1.2207,-8.1177,16.9678,85,0.8534,0.5643,-22.1365,-21.0608,30,0.9535,8018,4.0766,136.1295
rg,1624882401424073832,1,0.3306,-0.2461,0.9683,847,2.6245,-9.0332,15.9302,85,0.8524,0.5643,-22.0925,-20.9693,30,0.9535,8045,4.0766,136.8052
rg,1624882401424091190,1,0.3301,-0.252,0.9653,848,1.5869,-12.4512,16.9678,85,0.8534,0.5643,-22.1623,-20.9734,30,0.9545,8461,4.0766,137.5829
rg,1624882401424109011,1,0.3359,-0.2441,0.957,849,1.2817,-11.9629,15.8081,85,0.8544,0.5643,-22.2472,-20.9582,30,0.9515,9947,4.0766,138.3017
rg,1624882401424127388,1,0.3433,-0.2532,0.969,850,1.77,-12.6953,15.7471,85,0.8544,0.5643,-22.3518,-20.9739,30,0.9535,7940,4.0766,139.0477
rg,1624882401424144690,1,0.3455,-0.2454,0.9683,851,0.9155,-12.085,15.8691,85,0.8534,0.5643,-22.4444,-20.9742,30,0.9535,8123,4.0766,139.7697
rg,1624882401424161233,1,0.345,-0.2517,0.9631,852,0.9766,-12.6953,16.2964,85,0.8544,0.5653,-22.5505,-21.001,30,0.9525,7994,4.0766,140.5253
rg,1624882401424190095,1,0.3367,-0.2573,0.9619,853,0.9766,-12.5122,16.3574,85,0.8544,0.5653,-22.6253,-21.0338,30,0.9535,8054,4.0766,141.2675
