name,time,activity,ax,ay,az,batch_val,gx,gy,gz,ibat,index,middle,pitch,roll,temp,thumb,ts,vbat,yaw
lg,1625137567950132761,0,-0.2231,-0.1875,1.0676,1,-0.061,-8.728,15.564,62,1.3997,1.4037,8.9611,-6.9484,34,0.1741,19964,4.0007,119.1725
lg,1625137567950170780,0,-0.1948,-0.1919,1.0623,2,0.7935,-12.6343,15.3809,62,1.4007,1.4037,8.584,-6.9409,35,0.1731,9353,4.0007,119.8325
lg,1625137567950190687,0,-0.1726,-0.1758,1.0579,3,1.9531,-14.4653,15.5029,62,1.4007,1.4037,8.1063,-6.8591,35,0.1731,7935,4.0007,120.5106
lg,1625137567950209521,0,-0.1414,-0.189,1.0427,4,1.709,-11.7188,18.3716,62,1.4007,1.4047,7.7083,-6.8152,35,0.1731,7982,4.0007,121.2848
lg,1625137567950227428,0,-0.1499,-0.1755,1.0261,5,0.6714,-4.0283,18.9209,62,1.4007,1.4037,7.656,-6.797,35,0.1741,8139,4.0007,122.0472
lg,1625137567950246298,0,-0.1421,-0.1628,1.0427,6,0.061,0.4272,17.8223,62,1.4007,1.4037,7.7558,-6.7795,34,0.1731,7966,4.0007,122.7487
lg,1625137567950264687,0,-0.179,-0.1765,1.0308,7,-1.0376,8.4839,17.5781,62,1.4017,1.4047,8.2507,-6.8423,34,0.1731,7912,4.0007,123.3974
lg,1625137567950282613,0,-0.1995,-0.1877,1.0552,8,-1.0376,10.6201,15.8691,62,1.3997,1.4027,8.8715,-6.9129,34,0.1741,7995,4.0007,123.9953
lg,1625137567950299928,0,-0.2288,-0.1902,1.0388,9,-0.8545,10.437,17.9443,62,1.4007,1.4037,9.5192,-6.9975,34,0.1741,9058,4.0007,124.641
lg,1625137567950317521,0,-0.2502,-0.178,1.0439,10,0.1831,6.5918,18.3105,62,1.4007,1.4037,10.0163,-6.9733,34,0.1741,9653,4.0007,125.329
lg,1625137567950335558,0,-0.2437,-0.1829,1.041,11,0.8545,1.77,16.8457,62,1.4007,1.4037,10.2831,-6.9363,34,0.1741,8009,4.0007,125.9796
lg,1625137567950352854,0,-0.228,-0.1831,1.0347,12,1.5259,-3.6621,18.0664,62,1.4007,1.4037,10.3004,-6.8619,34,0.1741,8784,4.0007,126.7052
lg,1625137567950370761,0,-0.2078,-0.167,1.0383,13,1.77,-5.8594,17.1509,62,1.4007,1.4037,10.1448,-6.7921,34,0.1741,8482,4.0007,127.4026
lg,1625137567950387873,0,-0.187,-0.1599,1.0308,14,1.709,-7.3242,17.4561,62,1.4007,1.4037,9.935,-6.6735,34,0.1741,8138,4.0007,128.1279
lg,1625137567950404354,0,-0.1714,-0.1741,1.0415,15,1.4648,-3.7842,16.7847,62,1.3997,1.4037,9.8323,-6.6057,34,0.1731,8905,4.0007,128.8035
lg,1625137567950420984,0,-0.1594,-0.1777,1.0342,16,0,2.6855,18.4326,62,1.4007,1.4037,9.9741,-6.6031,34,0.1731,8502,4.0007,129.5132
lg,1625137567950437947,0,-0.1519,-0.1711,1.0283,17,-1.4038,7.3242,17.2119,62,1.4007,1.4037,10.3178,-6.6556,35,0.1731,8891,4.0007,130.1537
lg,1625137567950455150,0,-0.1907,-0.1692,1.0386,18,-5.127,14.0381,16.4185,62,1.4007,1.4037,10.9464,-6.851,35,0.1731,8230,4.0007,130.7316
lg,1625137567950473150,0,-0.2241,-0.1846,1.064,19,-5.7983,15.686,13.916,62,1.3997,1.4037,11.663,-7.1033,35,0.1741,8972,4.0007,131.1947
lg,1625137567950490484,0,-0.2524,-0.188,1.0439,20,-7.3242,12.6953,15.0757,62,1.4007,1.4047,12.3067,-7.4022,35,0.1721,9085,4.0007,131.7158
lg,1625137567950507410,0,-0.2522,-0.2078,1.0466,21,-6.958,9.8267,16.6626,62,1.3997,1.4037,12.8133,-7.6831,34,0.1731,8242,4.0007,132.3097
lg,1625137567950524261,0,-0.2507,-0.2014,1.0608,22,-2.9907,6.3477,16.6626,62,1.3997,1.4037,13.1612,-7.7772,34,0.1721,8968,4.0007,132.9256
lg,1625137567950541058,0,-0.2563,-0.1631,1.0405,23,1.3428,1.6479,16.5405,62,1.3987,1.4047,13.3319,-7.6139,34,0.1721,8809,4.0007,133.5804
lg,1625137567950558039,0,-0.2375,-0.166,1.0305,24,1.709,-2.1362,13.5498,62,1.3997,1.4037,13.2951,-7.4749,34,0.1711,9096,4.0007,134.1305
lg,1625137567950575150,0,-0.2283,-0.1978,1.043,25,-0.4272,-3.0518,13.3057,62,1.3987,1.4037,13.1951,-7.4916,35,0.1721,8358,4.0007,134.6594
lg,1625137567950592447,0,-0.208,-0.188,1.0569,26,-0.7324,-2.4414,13.855,62,1.3987,1.4037,13.0979,-7.5091,35,0.1711,8760,4.0007,135.2092
lg,1625137567950610336,0,-0.1846,-0.1958,1.0559,27,-1.3428,-0.4272,15.3809,62,1.3987,1.4037,13.0263,-7.5385,35,0.1711,8371,4.0007,135.8107
lg,1625137567950627076,0,-0.1626,-0.1753,1.0806,28,-3.8452,4.6997,17.4561,62,1.3977,1.4037,13.1196,-7.6021,35,0.1701,8854,4.0007,136.481
lg,1625137567950643947,0,0.0312,-0.9724,0.4849,29,-36.3159,-9.5825,19.8364,135,1.3156,1.3707,13.8543,-9.6189,34,0.1551,14369,3.9413,136.5738
lg,1625137567950661169,0,-0.2456,-0.9221,0.4417,30,11.1084,76.0498,8.9722,135,1.3146,1.3717,18.8878,-10.4279,34,0.1551,9589,3.9413,136.1787
lg,1625137567950677965,0,-0.4456,-0.6968,0.6196,31,31.4941,102.9663,38.147,135,1.3136,1.3737,23.593,-10.2221,34,0.1551,9239,3.9413,136.5548
lg,1625137567950695595,0,-0.2898,-0.583,0.6902,32,13.4277,37.2314,43.7012,135,1.3126,1.3747,25.2426,-10.208,35,0.1551,8840,3.9413,137.6756
lg,1625137568330599835,0,-0.3491,-0.7686,0.6694,33,-2.9907,15.0757,15.3198,135,1.3156,1.3787,25.2079,-11.4579,34,0.1541,27104,3.9413,137.6684
lg,1625137568330643298,0,-0.3538,-0.7644,0.6318,34,-11.0474,-25.9399,15.2588,135,1.3156,1.3797,24.2959,-12.9993,34,0.1531,9628,3.9413,137.9332
lg,1625137568330664354,0,-0.3723,-0.7676,0.5198,35,-9.0332,-23.2544,18.5547,135,1.3156,1.3797,23.6951,-14.5047,34,0.1541,7832,3.9413,138.3139
lg,1625137568330683909,0,-0.3569,-0.7593,0.6274,36,-0.2441,-3.1128,30.0293,135,1.3156,1.3807,23.8887,-15.3534,34,0.1541,7865,3.9413,139.0639
lg,1625137568330704743,0,-0.1785,-0.7505,0.7676,37,-0.061,-6.5918,31.189,135,1.3156,1.3817,23.1217,-16.0813,35,0.1551,7855,3.9413,139.9354
lg,1625137568330723280,0,-0.1082,-0.7964,0.8066,38,-4.3945,-24.9634,17.4561,135,1.3176,1.3827,21.7517,-17.1655,35,0.1571,8963,3.9413,140.4576
lg,1625137568330741687,0,-0.0881,-0.9294,0.813,39,-5.9814,-23.7427,-12.3291,135,1.3216,1.3807,20.1262,-18.7351,35,0.1561,8365,3.9413,139.8038
lg,1625137568330759706,0,-0.0266,-0.8779,0.9382,40,9.0332,-19.4092,-42.8467,135,1.3236,1.3767,18.1571,-19.8304,35,0.1551,7917,3.9413,138.0281
lg,1625137568330777502,0,-0.0134,-0.8298,0.679,41,20.6909,-16.8457,-59.9365,135,1.3226,1.3657,16.3233,-21.2246,35,0.1551,8372,3.9413,135.4284
lg,1625137568330795261,0,-0.1702,-0.8667,0.241,42,15.625,-8.3008,-78.064,135,1.3216,1.3607,14.8543,-23.2251,35,0.1511,7987,3.9413,132.0345
lg,1625137568330812465,0,-0.0022,-0.8169,0.3403,43,20.9961,-7.6294,-20.4468,135,1.3256,1.3597,13.8292,-24.1747,35,0.1501,8303,3.9413,130.9708
lg,1625137568330829558,0,-0.0676,-0.9092,0.5281,44,10.9253,39.4287,15.3809,135,1.3286,1.3567,17.2165,-25.5796,35,0.1541,8765,3.9413,130.4328
lg,1625137568330847372,0,-0.1995,-0.9346,0.6665,45,-6.5308,109.6802,45.6543,135,1.3317,1.3447,21.7208,-27.0884,35,0.1591,8417,3.9413,129.7588
lg,1625137568330864706,0,-0.5728,-0.8252,0.6592,46,-7.019,103.1494,50.9033,135,1.3367,1.3407,26.6209,-28.3131,35,0.1601,8041,3.9413,129.2873
lg,1625137568330882780,0,-0.7378,-0.697,0.6812,47,-21.1792,23.4985,70.0684,135,1.3387,1.3467,29.2203,-28.6922,35,0.1611,8444,3.9413,131.2904
lg,1625137568330901669,0,-0.7932,-0.7158,0.7146,48,-33.5083,-15.0146,73.4863,135,1.3296,1.3597,30.4102,-28.9992,35,0.1621,8853,3.9413,134.2894
lg,1625137568330920298,0,-0.5757,-0.7622,0.6646,49,-54.6875,-106.3843,94.2993,135,1.3206,1.3677,28.553,-28.9094,35,0.1611,8567,3.9413,140.0621
lg,1625137568330938502,0,0.1201,-0.5049,0.708,50,-32.8369,-178.894,35.8276,135,1.3186,1.3707,21.6538,-28.3056,35,0.1571,9324,3.9413,145.0942
lg,1625137568330956446,0,0.1445,-1.0884,0.9934,51,-70.1294,-118.7134,8.3618,135,1.3176,1.3717,16.7118,-30.9556,35,0.1551,8291,3.9413,147.6236
lg,1625137568330973743,0,-0.1069,-0.9644,0.2048,52,-14.5874,-25.3906,-22.7661,135,1.3156,1.3737,15.1515,-33.3124,35,0.1541,8938,3.9413,146.8941
lg,1625137568330991632,0,-0.4197,-0.8374,0.438,53,31.6162,88.8672,18.9209,135,1.3146,1.3777,18.9299,-33.5047,35,0.1561,8889,3.9413,145.2253
lg,1625137568331009280,0,-0.345,-0.6899,0.5913,54,38.9404,87.0972,35.0342,135,1.3106,1.3807,22.6582,-32.6232,35,0.1551,8924,3.9413,144.3118
lg,1625137568331026706,0,-0.2859,-0.7485,0.6294,55,5.3711,41.0156,34.3628,135,1.3086,1.3827,24.5538,-32.9915,35,0.1561,13398,3.9413,144.3266
lg,1625137568331044595,0,-0.197,-0.8613,0.6506,56,7.6904,14.8315,22.7661,135,1.3076,1.3827,25.0368,-33.3131,35,0.1581,9010,3.9413,144.4593
lg,1625137568331061558,0,-0.1912,-0.8477,0.6348,57,12.207,14.5264,16.2354,135,1.3106,1.3807,25.4146,-33.4701,35,0.1601,8613,3.9413,144.1195
lg,1625137568331080502,0,-0.1455,-0.8076,0.6846,58,20.0806,20.1416,5.5542,135,1.3196,1.3777,25.5518,-33.4821,35,0.1611,9011,3.9413,143.5311
lg,1625137568331098243,0,-0.1189,-0.7761,0.5327,59,21.6675,0.1221,-22.3999,135,1.3306,1.3697,24.4086,-33.891,34,0.1611,11863,3.9413,142.3052
lg,1625137568331116724,0,-0.123,-0.8477,0.5034,60,12.3291,-1.1597,-26.7944,135,1.3337,1.3657,23.6773,-34.8597,34,0.1601,9498,3.9413,140.8767
lg,1625137568331134983,0,-0.2058,-0.9565,0.51,61,10.498,33.3252,-10.6812,135,1.3367,1.3597,24.0899,-36.0391,34,0.1611,9105,3.9413,139.205
lg,1625137568331152298,0,-0.438,-0.876,0.4985,62,-6.1646,56.3965,23.4985,135,1.3397,1.3587,26.4887,-37.5078,34,0.1661,9103,3.9413,138.1503
lg,1625137568331170520,0,-0.5654,-0.7168,0.699,63,-12.8174,32.5928,59.2651,135,1.3407,1.3667,29.0793,-37.7576,34,0.1691,8772,3.9413,139.2277
lg,1625137568331188483,0,-0.5283,-0.6992,0.6785,64,-34.2407,-26.062,76.5991,135,1.3327,1.3777,30.1102,-37.6952,34,0.1681,9157,3.9413,142.5945
lg,1625137568700983891,0,-0.0215,-0.9529,0.865,65,-40.5273,-86.1206,5.6152,135,1.3246,1.3787,26.373,-38.6931,35,0.1601,26178,3.9413,145.0649
lg,1625137568701032928,0,-0.4685,-0.8977,0.4497,66,0.5493,14.0991,-14.8315,135,1.3246,1.3837,26.4491,-40.0287,35,0.1591,17583,3.9413,143.726
lg,1625137568701054761,0,-0.2488,-0.749,0.5493,67,18.6768,8.606,5.8594,135,1.3246,1.3867,26.262,-39.9289,35,0.1601,7907,3.9413,143.672
lg,1625137568701074724,0,-0.2622,-0.7705,0.5906,68,10.0098,7.3853,6.5918,135,1.3236,1.3887,26.2345,-40.0462,34,0.1611,7913,3.9413,143.451
lg,1625137568701094965,0,-0.2603,-0.8823,0.6646,69,10.376,9.2163,4.0894,135,1.3246,1.3897,26.1284,-40.2301,34,0.1621,7882,3.9413,143.0825
lg,1625137568701115668,0,-0.2769,-0.8748,0.6033,70,11.1084,0.3052,-6.6528,135,1.3276,1.3897,25.3177,-40.574,34,0.1631,7934,3.9413,142.4134
lg,1625137568701134761,0,-0.3025,-0.8457,0.6018,71,13.3667,-4.7607,-17.0898,135,1.3327,1.3897,24.5433,-40.9856,34,0.1641,8882,3.9413,141.6527
lg,1625137568701153687,0,-0.271,-0.8257,0.6721,72,19.043,-26.4893,-18.3105,135,1.3397,1.3887,22.8718,-40.5679,34,0.1641,8146,3.9413,141.6357
lg,1625137568701196817,0,-0.03,-0.708,0.426,73,19.104,-66.9556,-37.3535,135,1.3407,1.3837,19.1144,-40.3323,34,0.1631,8032,3.9413,141.9868
lg,1625137568701218354,0,-0.0303,-0.7959,0.3765,74,6.958,-57.312,-38.7573,135,1.3377,1.3797,15.6074,-40.8257,34,0.1591,8064,3.9413,142.0367
lg,1625137568701237057,0,0.0276,-0.967,0.5127,75,14.5874,-0.9766,-10.8643,135,1.3357,1.3747,15.7069,-41.4693,35,0.1581,8228,3.9413,140.8491
lg,1625137568701256131,0,-0.262,-0.9758,0.5867,76,-3.6011,71.2891,10.376,135,1.3387,1.3697,18.0001,-42.7851,35,0.1611,8200,3.9413,138.9798
lg,1625137568701274724,0,-0.3845,-0.9026,0.6111,77,-1.4038,73.4253,30.0903,135,1.3417,1.3737,21.2686,-43.5539,35,0.1661,8158,3.9413,137.6731
lg,1625137568701292872,0,-0.5254,-0.7083,0.6379,78,-5.7983,36.3159,48.8281,135,1.3417,1.3827,23.9559,-43.7699,35,0.1691,8171,3.9413,138.054
lg,1625137568701311557,0,-0.5164,-0.7312,0.6584,79,-26.062,-42.5415,57.4951,135,1.3377,1.3897,24.4659,-43.6827,34,0.1691,8133,3.9413,141.1048
lg,1625137568701330928,0,-0.0652,-0.7332,0.8252,80,-36.5601,-110.0464,68.8477,135,1.3337,1.3937,22.3451,-42.8666,34,0.1691,9324,3.9413,146.6138
lg,1625137568701349613,0,0.1697,-0.6526,0.72,81,-16.1743,-127.2583,37.2925,135,1.3337,1.3917,19.0677,-43.3829,34,0.1711,8892,3.9413,150.8909
lg,1625137568701367872,0,-0.0776,-0.9392,0.6055,82,-34.4849,-56.8237,7.0801,135,1.3327,1.3927,17.0652,-44.7328,34,0.1711,8224,3.9413,152.5932
lg,1625137568701385761,0,-0.4246,-0.9509,0.3926,83,15.686,13.7329,2.4414,135,1.3337,1.3957,17.7762,-45.0515,34,0.1711,8266,3.9413,152.0081
lg,1625137568701403317,0,-0.5227,-0.884,0.5977,84,22.0337,28.1982,12.6953,135,1.3337,1.3977,18.9088,-43.4611,34,0.1711,8271,3.9413,152.7975
lg,1625137568701421631,0,-0.0964,-0.6714,0.7368,85,14.8315,-33.8745,34.1797,135,1.3347,1.3987,18.32,-42.1652,34,0.1711,11068,3.9413,154.8396
lg,1625137568701440557,0,-0.0562,-0.8049,0.7151,86,3.8452,-30.1514,27.3438,139,1.3367,1.3987,17.5584,-41.7356,34,0.1731,8360,3.9402,156.4607
lg,1625137568701460594,0,-0.0747,-0.9224,0.7483,87,7.019,-12.146,18.0054,139,1.3407,1.3977,17.1332,-41.5565,34,0.1741,8557,3.9402,157.2482
lg,1625137568701479298,0,-0.0354,-0.7183,0.6716,88,22.3999,-1.4038,8.4839,139,1.3457,1.3967,16.7244,-40.7864,34,0.1751,8424,3.9402,157.4853
lg,1625137568701497687,0,-0.1538,-0.7568,0.6516,89,21.5454,3.7231,3.479,139,1.3477,1.3957,16.7417,-40.6963,34,0.1751,8371,3.9402,157.1227
lg,1625137568701516872,0,-0.2324,-0.8855,0.5322,90,-2.0752,10.3149,8.7891,139,1.3507,1.3947,17.1474,-41.4984,35,0.1791,8461,3.9402,156.907
lg,1625137568701536057,0,-0.3684,-0.9282,0.6309,91,-20.6909,18.3716,39.917,139,1.3477,1.3977,18.8126,-42.6488,35,0.1781,8409,3.9402,157.4675
lg,1625137568701553502,0,-0.4377,-0.7214,0.688,92,-16.3574,27.4048,71.5942,139,1.3397,1.4027,21.7449,-42.932,35,0.1761,8462,3.9402,158.8637
lg,1625137568701571242,0,-0.2073,-0.5508,0.9634,93,-15.2588,2.9297,65.6128,139,1.3357,1.4027,23.6813,-43.1387,35,0.1761,8508,3.9402,160.7146
lg,1625137568701589150,0,-0.407,-0.8438,0.8374,94,-43.6401,-40.8325,20.5078,139,1.3337,1.3987,22.8791,-44.2106,35,0.1751,8504,3.9402,162.5627
lg,1625137568701607705,0,-0.229,-0.9175,0.5911,95,-29.541,-78.0029,0.6104,139,1.3337,1.3977,20.2713,-45.0402,35,0.1751,8636,3.9402,164.7405
lg,1625137568701818557,0,-0.3984,-0.9426,0.4968,96,-10.7422,-26.8555,4.6387,139,1.3337,1.3987,19.6897,-45.8006,35,0.1751,9290,3.9402,165.4654
lg,1625137569082837890,0,0.1179,-0.8918,0.603,97,-7.4463,-18.2495,9.4604,139,1.3337,1.4017,19.0678,-46.4062,34,0.1761,26253,3.9402,164.9668
lg,1625137569082883520,0,-0.1414,-0.9177,0.5784,98,18.4326,57.1289,-31.0669,139,1.3387,1.4027,19.2722,-47.005,34,0.1741,15894,3.9402,162.1515
lg,1625137569082905853,0,-0.2007,-0.8994,0.5757,99,23.2544,62.2559,-39.4287,139,1.3427,1.3997,19.4605,-47.5121,35,0.1751,8482,3.9402,158.9391
lg,1625137569082926446,0,-0.1504,-0.8601,0.6653,100,40.9546,44.3726,-54.8096,139,1.3417,1.3927,18.591,-47.0286,35,0.1731,8827,3.9402,155.9216
lg,1625137569082946594,0,-0.1294,-0.8022,0.2844,101,55.542,9.5215,-68.6646,139,1.3367,1.3837,16.5177,-46.4238,35,0.1681,8836,3.9402,153.3605
lg,1625137569082965464,0,-0.1445,-0.7087,0.3025,102,38.208,42.4194,-34.3628,139,1.3347,1.3757,16.49,-46.3477,35,0.1661,10484,3.9402,150.859
lg,1625137569082985279,0,-0.2764,-0.8357,0.4348,103,8.728,105.2246,29.9683,139,1.3377,1.3697,20.2347,-47.3751,34,0.1701,9467,3.9402,148.2974
lg,1625137569083004835,0,-0.6704,-0.9216,0.7551,104,-17.6392,105.4077,64.8193,139,1.3397,1.3697,25.3105,-48.7826,34,0.1751,8895,3.9402,146.7175
lg,1625137569083023483,0,-0.8311,-0.6428,0.5405,105,-15.3198,33.5693,97.168,139,1.3447,1.3797,29.8496,-48.6028,34,0.1761,8948,3.9402,148.4541
lg,1625137569083042168,0,-0.79,-0.5552,0.637,106,-42.9688,-81.4209,109.436,139,1.3357,1.3877,31.4276,-46.8684,34,0.1741,8954,3.9402,154.8194
lg,1625137569083061372,0,-0.6111,-0.6296,0.7202,107,-61.6455,-133.8501,123.4741,139,1.3296,1.3907,28.5425,-43.9281,34,0.1731,8832,3.9402,165.1605
lg,1625137569083081446,0,0.1875,-0.7048,0.6309,108,-49.8657,-228.6987,64.6362,139,1.3276,1.3887,22.2209,-42.2376,34,0.1691,8985,3.9402,-185.9516
lg,1625137569083100187,0,0.457,-1.1909,0.9407,109,-68.5425,-166.1377,31.4941,139,1.3266,1.3907,16.8116,-43.4011,34,0.1671,9007,3.9402,-180.3075
lg,1625137569083118464,0,0.0872,-1.0828,0.428,110,-11.3525,-8.606,-16.7236,139,1.3246,1.3927,15.3369,-44.9056,34,0.1671,9100,3.9402,-180.835
lg,1625137569083136539,0,-0.1257,-0.8557,0.5139,111,31.311,70.4956,1.2207,139,1.3236,1.3937,17.0507,-44.7853,34,0.1681,8766,3.9402,-183.0255
lg,1625137569083154520,0,-0.25,-0.7107,0.5605,112,22.644,69.6411,-6.8359,139,1.3226,1.3947,18.7587,-44.847,34,0.1701,9079,3.9402,-185.3768
lg,1625137569083173094,0,-0.3391,-0.7671,0.54,113,15.686,70.4956,-4.8828,139,1.3226,1.3967,20.7236,-45.4293,34,0.1711,9065,3.9402,-187.7952
lg,1625137569083197798,0,-0.4092,-0.8059,0.522,114,15.1367,41.1377,2.9297,139,1.3216,1.3947,22.0547,-45.6958,34,0.1721,8753,3.9402,170.8696
lg,1625137569083216631,0,-0.2954,-0.6885,0.4832,115,15.5029,-12.085,8.9111,139,1.3206,1.3977,21.8701,-45.1972,34,0.1731,9155,3.9402,171.3743
lg,1625137569083234835,0,-0.1821,-0.7441,0.5649,116,5.188,-15.686,21.0571,139,1.3256,1.3977,21.6005,-44.8819,34,0.1741,8778,3.9402,-187.6239
lg,1625137569083252816,0,-0.1624,-0.8579,0.6963,117,-3.2349,-7.5684,28.4424,139,1.3276,1.3967,21.6685,-44.8499,34,0.1761,9200,3.9402,-186.6195
lg,1625137569083269946,0,-0.252,-0.9058,0.6621,118,-8.728,-0.7324,32.6538,139,1.3306,1.3957,22.4653,-45.1841,34,0.1751,8831,3.9402,-185.7511
lg,1625137569083287261,0,-0.2581,-0.8408,0.7515,119,-3.1738,5.0049,44.0063,139,1.3327,1.3967,23.4689,-44.9591,34,0.1731,13851,3.9402,-184.6043
lg,1625137569083305631,0,-0.155,-0.8535,0.7222,120,-7.2632,-8.4839,42.9077,139,1.3347,1.3967,23.8279,-44.8055,34,0.1731,10738,3.9402,-183.0973
lg,1625137569083323335,0,-0.041,-0.9053,0.7346,121,-2.0142,-2.9907,23.9868,139,1.3357,1.3937,23.5757,-44.8038,34,0.1691,9014,3.9402,-182.3681
lg,1625137569083340909,0,-0.0657,-0.9014,0.7041,122,5.6152,16.1743,-4.1504,139,1.3367,1.3907,23.1279,-45.1261,34,0.1661,9075,3.9402,-183.115
lg,1625137569083359390,0,-0.136,-0.8884,0.5913,123,11.2305,25.9399,-26.8555,139,1.3347,1.3857,22.4764,-45.7705,34,0.1651,9091,3.9402,-184.9171
lg,1625137569083377853,0,-0.1831,-0.8501,0.4443,124,18.7988,45.5322,-26.4893,139,1.3357,1.3827,22.5363,-46.5487,34,0.1641,10495,3.9402,-187.3956
lg,1625137569083395872,0,-0.2341,-0.8647,0.3291,125,19.7754,38.3911,-16.4795,139,1.3367,1.3837,23.2355,-47.5187,34,0.1681,8728,3.9402,170.9598
lg,1625137569083413224,0,-0.3054,-0.9473,0.5674,126,-4.3335,64.0869,17.9443,139,1.3427,1.3817,25.1699,-48.8038,34,0.1721,9176,3.9402,169.1996
lg,1625137569083431057,0,-0.6003,-0.8328,0.4148,127,-14.4653,66.8945,47.1802,139,1.3457,1.3837,28.6452,-50.3281,34,0.1731,9186,3.9402,168.0455
lg,1625137569083502205,0,-0.7205,-0.6538,0.6951,128,-5.7373,8.728,63.4766,139,1.3397,1.3927,31.1377,-49.4963,35,0.1721,8839,3.9402,169.7517
lg,1625137569467875427,0,-0.0037,-1.0869,0.6138,129,-56.1523,-155.3955,1.77,139,1.3337,1.3927,26.1664,-49.4108,34,0.1641,27695,3.9402,-186.2962
lg,1625137569467928186,0,-0.1074,-0.9956,0.4712,130,1.2817,-18.4937,-7.5684,139,1.3337,1.3927,24.6903,-49.832,34,0.1631,11157,3.9402,-186.1733
lg,1625137569467949594,0,-0.1997,-0.9253,0.5271,131,22.8271,21.3013,6.8359,139,1.3327,1.3937,25.7284,-48.8317,34,0.1631,8047,3.9402,-186.9504
lg,1625137569467970186,0,-0.1567,-0.6033,0.5964,132,35.8276,41.8091,23.8647,139,1.3327,1.3947,26.944,-47.5432,34,0.1631,7951,3.9402,-187.5739
lg,1625137569467990557,0,-0.2419,-0.7031,0.6216,133,16.7847,54.4434,28.1982,139,1.3317,1.3967,28.7393,-47.3492,35,0.1641,7894,3.9402,171.4509
lg,1625137569468010057,0,-0.3486,-0.8604,0.7417,134,14.3433,59.7534,28.1982,139,1.3327,1.3987,30.7087,-47.4157,35,0.1651,9287,3.9402,170.2616
lg,1625137569468028538,0,-0.3347,-0.8274,0.8,135,18.4326,52.2461,21.8506,139,1.3357,1.4017,32.1821,-47.1812,35,0.1671,8542,3.9402,169.1856
lg,1625137569468046705,0,-0.2893,-0.7727,0.7109,136,16.5405,31.8604,9.8877,139,1.3417,1.4027,32.2695,-47.0797,35,0.1651,10831,3.9402,168.2926
lg,1625137569468065446,0,-0.1802,-0.7773,0.8477,137,12.6343,26.001,-8.3618,139,1.3427,1.4007,31.8263,-46.9737,34,0.1631,8024,3.9402,167.2404
lg,1625137569468083131,0,-0.2031,-0.8958,0.6558,138,10.7422,25.1465,-43.2129,139,1.3377,1.3957,30.3991,-47.9936,34,0.1581,8040,3.9402,164.8585
lg,1625137569468101501,0,-0.2407,-0.9504,0.626,139,7.2632,28.6865,-50.7812,139,1.3317,1.3907,28.8762,-49.6485,34,0.1561,8019,3.9402,162.224
lg,1625137569468120575,0,-0.2776,-0.8799,0.2861,140,13.1226,6.1646,-15.8691,139,1.3306,1.3897,28.139,-50.3774,35,0.1591,13264,3.9402,161.0954
lg,1625137569468138205,0,-0.3318,-0.8115,0.4656,141,-16.9678,30.7617,41.2598,139,1.3357,1.3897,29.8538,-51.4076,35,0.1641,8109,3.9402,160.9984
lg,1625137569468158038,0,-0.4814,-0.7883,0.5916,142,-24.292,35.6445,54.3213,139,1.3417,1.3927,32.2738,-52.2999,35,0.1651,8104,3.9402,161.2195
lg,1625137569468177501,0,-0.5637,-0.7959,0.6218,143,-31.3721,-4.5776,86.5479,139,1.3427,1.3997,34.7593,-52.0188,35,0.1661,8533,3.9402,163.9472
lg,1625137569468195835,0,-0.4512,-0.7649,0.6631,144,-41.9922,-80.9937,82.2144,139,1.3367,1.4037,34.8734,-50.3567,34,0.1661,8183,3.9402,169.6116
lg,1625137569468213946,0,-0.062,-0.7954,0.7104,145,-51.5137,-127.6855,70.0073,139,1.3317,1.4037,32.5078,-48.5013,34,0.1681,9975,3.9402,-183.4885
lg,1625137569468232335,0,0.2085,-0.7673,0.7986,146,-40.6494,-136.5967,46.2646,139,1.3306,1.4027,28.3385,-48.5251,34,0.1671,8266,3.9402,-179.5284
lg,1625137569468251983,0,0.0105,-1.1279,0.6616,147,-47.7295,-67.2607,4.7607,139,1.3296,1.4007,25.6572,-49.7997,34,0.1671,8594,3.9402,-177.3156
lg,1625137569468269872,0,-0.1187,-1.0369,0.4258,148,1.5259,-7.3242,6.4087,139,1.3296,1.4047,24.9446,-50.3096,34,0.1661,8287,3.9402,-177.2128
lg,1625137569468287964,0,0.106,-0.8049,0.4475,149,20.874,21.0571,23.1323,139,1.3296,1.4067,25.0146,-49.9519,34,0.1691,9009,3.9402,-177.4728
lg,1625137569468309686,0,0.0044,-0.9131,0.6907,150,21.3013,47.7905,22.1558,139,1.3327,1.4067,26.3447,-49.9191,34,0.1691,8933,3.9402,-179.5208
lg,1625137569468327946,0,-0.1174,-0.9622,0.6504,151,32.1045,83.1299,2.7466,139,1.3387,1.4047,27.7502,-50.1591,34,0.1711,8247,3.9402,-182.4256
lg,1625137569468346538,0,-0.1174,-0.7878,0.7913,152,50.293,78.0029,-27.9541,139,1.3467,1.4027,28.0505,-49.5541,34,0.1691,8984,3.9402,-185.8362
lg,1625137569468364927,0,-0.2505,-0.7883,0.3386,153,37.7197,55.9692,-55.9082,139,1.3457,1.3957,27.3425,-50.4224,34,0.1651,9045,3.9402,170.2652
lg,1625137569468383168,0,-0.29,-0.8003,0.2346,154,31.7383,34.2407,-40.2222,139,1.3447,1.3927,26.7054,-51.1566,34,0.1641,8714,3.9402,167.4983
lg,1625137569468401057,0,-0.3391,-0.9731,0.6333,155,-3.2349,70.6177,24.4751,139,1.3477,1.3897,28.7944,-52.369,34,0.1701,10331,3.9402,165.5637
lg,1625137569468418649,0,-0.4819,-0.9155,0.5837,156,-6.2866,77.8809,38.147,139,1.3517,1.3917,32.1793,-53.4358,34,0.1741,9108,3.9402,163.9427
lg,1625137569468436353,0,-0.8186,-0.7119,0.6528,157,-11.1084,57.9224,60.1196,139,1.3497,1.3997,35.788,-53.9476,34,0.1731,8817,3.9402,163.5178
lg,1625137569468453927,0,-0.7715,-0.6306,0.7253,158,-23.4375,-47.5464,86.1206,139,1.3407,1.4037,37.5185,-51.6857,34,0.1751,9196,3.9402,168.3058
lg,1625137569468472631,0,-0.0701,-0.4651,0.9209,159,-27.2827,-176.2085,37.1094,139,1.3357,1.4037,32.9442,-47.1549,35,0.1731,9221,3.9402,-183.2785
lg,1625137569468491335,0,0.0464,-0.9785,0.698,160,-73.8525,-170.5322,-10.8032,139,1.3357,1.4017,26.7506,-47.7021,35,0.1711,8519,3.9402,-177.9867
lg,1625137569837528279,0,-0.1594,-0.7888,0.5322,161,17.5171,4.3945,5.8594,139,1.3317,1.4037,26.6759,-46.4726,34,0.1651,26185,3.9402,-177.4666
lg,1625137569837581242,0,-0.0745,-0.625,0.5583,162,16.1133,0.4272,12.9395,139,1.3296,1.4067,26.2205,-45.7255,34,0.1671,12928,3.9402,-177.1178
lg,1625137569837603705,0,-0.1091,-0.8635,0.5779,163,-0.3662,-0.7935,10.6812,139,1.3296,1.4077,25.7786,-46.1208,34,0.1681,8092,3.9402,-177.0006
lg,1625137569837624483,0,-0.134,-0.9688,0.5894,164,10.3149,5.3101,4.5166,139,1.3306,1.4087,25.3317,-46.2555,34,0.1701,7844,3.9402,-177.2669
lg,1625137569837644446,0,-0.1357,-0.8472,0.5732,165,22.4609,12.6953,7.019,139,1.3337,1.4077,25.1993,-45.848,34,0.1721,8173,3.9402,-177.637
lg,1625137569837664075,0,-0.1426,-0.8376,0.6033,166,25.2075,13.6719,8.3618,139,1.3367,1.4077,25.147,-45.2691,34,0.1721,7993,3.9402,-177.9676
lg,1625137569837682427,0,-0.0581,-0.8293,0.6282,167,27.3438,11.1084,4.3335,139,1.3427,1.4067,24.7369,-44.5892,34,0.1721,8120,3.9402,-178.3238
lg,1625137569837700816,0,0.0125,-0.8113,0.6008,168,33.4473,19.9585,-7.6904,139,1.3447,1.4037,24.1228,-43.9858,34,0.1681,8404,3.9402,-179.3451
lg,1625137569837720612,0,-0.0305,-0.8792,0.6128,169,26.6113,34.5459,-12.5122,139,1.3427,1.4007,24.416,-44.3081,34,0.1641,8049,3.9402,-181.5258
lg,1625137569837739427,0,-0.1648,-0.9236,0.5125,170,27.9541,64.7583,-7.9346,139,1.3427,1.3977,25.4497,-44.8431,34,0.1651,8053,3.9402,-184.0756
lg,1625137569837758668,0,-0.2808,-0.8618,0.5352,171,17.7002,83.313,16.5405,139,1.3427,1.3947,27.8729,-45.6447,34,0.1681,8032,3.9402,-186.4494
lg,1625137569837779094,0,-0.4563,-0.8433,0.7141,172,-3.2349,69.519,38.3301,139,1.3477,1.3937,30.6706,-46.4591,34,0.1721,10069,3.9402,-187.609
lg,1625137569837797501,0,-0.5889,-0.7185,0.5217,173,-14.0991,22.0337,59.9365,139,1.3497,1.3977,33.1236,-46.6736,34,0.1751,8114,3.9402,-186.5725
lg,1625137569837815649,0,-0.6067,-0.6597,0.4827,174,-23.6816,-14.6484,67.3218,139,1.3447,1.4037,34.8095,-46.3397,34,0.1741,8147,3.9402,-183.9698
lg,1625137569837839057,0,-0.5562,-0.74,0.6594,175,-38.6963,-61.5234,93.5059,139,1.3347,1.4067,35.5431,-44.8638,34,0.1741,8206,3.9402,-178.6579
lg,1625137569837859575,0,-0.033,-0.6626,0.6255,176,-16.6626,-122.0703,49.8657,139,1.3377,1.4067,32.1518,-42.3864,34,0.1701,8165,3.9402,-172.9303
lg,1625137569837878205,0,-0.1816,-0.9382,0.5396,177,-40.0391,-116.5161,19.5312,139,1.3347,1.4037,28.0129,-42.1215,34,0.1681,8237,3.9402,-168.792
lg,1625137569837898408,0,-0.0339,-0.9392,0.3967,178,-8.4229,-74.3408,11.5356,139,1.3347,1.4067,25.2303,-42.345,34,0.1681,8416,3.9402,-166.6706
lg,1625137569837917816,0,-0.3708,-0.8936,0.5649,179,8.1177,21.7896,2.0752,139,1.3327,1.4087,25.7155,-42.8914,34,0.1681,8335,3.9402,-167.524
lg,1625137569837936797,0,-0.0708,-0.7493,0.6245,180,21.9727,19.4092,27.1606,139,1.3327,1.4107,25.9729,-42.1912,34,0.1691,8193,3.9402,-167.0025
lg,1625137569837955760,0,-0.0042,-0.8201,0.6499,181,14.5264,18.2495,22.7051,139,1.3327,1.4087,26.1412,-41.9258,34,0.1701,8238,3.9402,-166.9818
lg,1625137569837973297,0,-0.1812,-0.9272,0.6355,182,15.5029,60.1196,9.9487,139,1.3347,1.4107,27.5344,-42.5584,34,0.1721,8969,3.9402,-168.7264
lg,1625137569838051316,0,-0.3503,-0.8203,0.5767,183,26.8555,67.0166,-6.6528,139,1.3367,1.4097,28.995,-43.082,34,0.1721,8248,3.9402,-171.2601
lg,1625137569838081520,0,-0.312,-0.6338,0.6208,184,28.0762,56.3965,-7.6294,139,1.3437,1.4077,29.4399,-42.5077,34,0.1741,9042,3.9402,-172.6048
lg,1625137569838100446,0,-0.2983,-0.7385,0.5747,185,9.3994,1.9531,-12.8784,139,1.3477,1.4017,28.6941,-42.7741,34,0.1751,13457,3.9402,-173.297
lg,1625137569838119316,0,-0.3381,-0.9512,0.5149,186,-9.3994,-4.4556,7.6904,139,1.3497,1.3997,28.3752,-43.7437,34,0.1771,8660,3.9402,-173.2797
lg,1625137569838139242,0,-0.4087,-0.8835,0.6819,187,-21.3013,4.3945,39.1235,139,1.3487,1.4047,29.2649,-44.3923,34,0.1791,9081,3.9402,-172.3057
lg,1625137569838158538,0,-0.4714,-0.7634,0.7009,188,-14.5874,9.3994,52.3682,139,1.3427,1.4097,30.4803,-44.0132,34,0.1781,9122,3.9402,-170.0914
lg,1625137569838176946,0,-0.333,-0.6475,0.7446,189,-25.3296,-37.0483,54.0771,139,1.3397,1.4127,30.2281,-43.3644,34,0.1801,9840,3.9402,-167.0232
lg,1625137569838195353,0,-0.2612,-0.8032,0.5117,190,-27.6489,-72.6929,24.8413,139,1.3387,1.4137,28.2576,-43.5423,34,0.1811,9656,3.9402,-164.2033
lg,1625137569838216057,0,-0.1213,-0.9189,0.5391,191,-24.1699,-58.7769,25.0854,139,1.3397,1.4137,26.9602,-44.0512,34,0.1811,8823,3.9402,-163.0317
lg,1625137569838234760,0,-0.1638,-0.9043,0.6516,192,-5.9814,-6.8359,14.8315,139,1.3387,1.4137,26.4641,-44.412,34,0.1811,8475,3.9402,-162.5394
lg,1625137570195085593,0,-0.209,-0.8853,0.551,193,9.0332,37.4756,2.5024,139,1.3397,1.4137,27.0192,-45.1264,34,0.1821,24998,3.9402,-163.9036
lg,1625137570195147871,0,-0.2871,-0.8203,0.6011,194,16.5405,34.668,-4.4556,139,1.3467,1.4107,27.4236,-45.3962,34,0.1811,10269,3.9402,-165.3196
lg,1625137570195181371,0,-0.22,-0.7458,0.5471,195,23.0103,0.5493,-21.5454,139,1.3487,1.4027,26.2817,-45.1421,34,0.1791,11815,3.9787,-166.1796
lg,1625137570195211686,0,-0.1907,-0.7803,0.4702,196,16.3574,-17.6392,-22.8882,88,1.3467,1.3967,24.5947,-45.1348,34,0.1751,7861,3.9787,-166.5958
lg,1625137570195270538,0,-0.1404,-0.9163,0.3711,197,7.2632,-10.6201,-13.9771,88,1.3477,1.3947,23.3216,-45.8265,34,0.1761,7933,3.9787,-167.0844
lg,1625137570195302630,0,-0.2949,-0.9695,0.4971,198,-14.6484,31.189,32.959,88,1.3517,1.3967,24.8358,-47.1004,34,0.1821,9642,3.9787,-167.3591
lg,1625137570195332705,0,-0.5242,-0.6875,0.5034,199,-11.2305,37.1094,46.5088,88,1.3507,1.4047,27.7873,-47.4286,34,0.1821,8023,3.9787,-166.7259
lg,1625137570195371427,0,-0.5989,-0.6257,0.5278,200,-11.7798,17.1509,71.8994,88,1.3437,1.4087,30.6836,-47.163,34,0.1811,8130,3.9787,-165.11
lg,1625137570195477093,0,-0.4421,-0.5542,0.9033,201,-22.7051,-53.3447,70.9229,88,1.3407,1.4107,30.9752,-45.3051,34,0.1801,8148,3.9787,-160.689
lg,1625137570195508779,0,-0.4041,-0.8096,0.6196,202,-38.3911,-113.5864,25.1465,88,1.3397,1.4087,28.1358,-44.9007,34,0.1781,8405,3.9787,-156.3185
lg,1625137570195543723,0,-0.2378,-0.999,0.8389,203,-45.2881,-121.7041,26.9165,88,1.3397,1.4077,24.7242,-45.1702,34,0.1741,8391,3.9787,-151.8793
lg,1625137570195573538,0,-0.1179,-0.9648,0.5771,204,-22.4609,-111.9995,-6.3477,88,1.3367,1.4077,20.7067,-45.3856,34,0.1731,8068,3.9787,-148.8578
lg,1625137570195613742,0,0.1257,-0.8601,0.5254,205,-5.6763,-74.2798,8.3008,88,1.3387,1.4097,17.8269,-45.3257,34,0.1741,8078,3.9787,-146.5598
lg,1625137570195642742,0,0.1189,-0.8921,0.5789,206,9.1553,8.0566,2.1362,88,1.3397,1.4107,17.1917,-45.4837,34,0.1751,13517,3.9787,-146.8841
lg,1625137570195673834,0,-0.1394,-0.897,0.5825,207,20.9961,69.6411,-5.3101,88,1.3417,1.4127,18.599,-45.7994,34,0.1771,9907,3.9787,-149.2755
lg,1625137570195700797,0,-0.3323,-0.8447,0.5479,208,24.8413,83.6182,-11.3525,88,1.3437,1.4137,20.5756,-46.2129,34,0.1771,8152,3.9787,-152.3098
lg,1625137570195728668,0,-0.365,-0.7993,0.5317,209,23.1323,56.2134,-13.4277,88,1.3477,1.4127,21.7457,-46.454,34,0.1751,8217,3.9787,-154.5937
lg,1625137570195756816,0,-0.345,-0.8179,0.5686,210,22.644,35.9497,-14.3433,88,1.3517,1.4097,21.4933,-45.7549,34,0.1761,9414,3.9787,-155.5465
lg,1625137570195898556,0,-0.1355,-0.8088,0.6223,211,37.7808,3.7231,-13.1226,88,1.3497,1.4037,20.6806,-44.7021,34,0.1741,8742,3.9787,-156.1615
lg,1625137570195939982,0,-0.0862,-0.8652,0.4849,212,29.9683,-1.4038,-31.189,88,1.3417,1.3917,19.1789,-44.4688,34,0.1691,8246,3.9787,-157.2977
lg,1625137570195971093,0,-0.0938,-0.8779,0.4172,213,24.9023,26.6724,-16.2964,88,1.3407,1.3847,18.9812,-44.7068,34,0.1681,8310,3.9787,-158.8515
lg,1625137570195999093,0,-0.2161,-0.8999,0.4336,214,6.8359,51.9409,6.5918,88,1.3437,1.3817,20.5664,-45.3878,34,0.1741,8591,3.9787,-160.3818
lg,1625137570196029890,0,-0.4771,-0.8601,0.7134,215,-13.4277,81.8481,58.5938,88,1.3467,1.3867,24.6067,-46.4065,34,0.1781,8306,3.9787,-161.2382
lg,1625137570196059538,0,-0.6357,-0.6514,0.5728,216,-12.207,36.5601,80.5664,88,1.3467,1.3957,28.3891,-46.3812,34,0.1791,8458,3.9787,-159.9758
lg,1625137570196532427,0,-0.6904,-0.6384,0.6755,217,-18.2495,-8.667,76.5991,88,1.3427,1.4017,30.0058,-45.5553,34,0.1791,8417,3.9787,-155.977
lg,1625137570196566464,0,-0.2957,-0.624,1.1775,218,-37.7808,-75.0732,89.9048,88,1.3387,1.4047,29.7605,-43.5935,34,0.1771,8404,3.9787,-150.2071
lg,1625137570196595705,0,-0.1553,-0.9717,0.7815,219,-59.1431,-139.9536,23.4985,88,1.3377,1.4037,25.5241,-43.8898,34,0.1751,8520,3.9787,-145.2248
lg,1625137570196624223,0,0.1982,-0.9866,0.5562,220,-34.79,-136.7188,-0.6714,88,1.3367,1.4017,20.3273,-44.3596,34,0.1721,8425,3.9787,-141.4001
lg,1625137570196652353,0,0.033,-1.0103,0.4675,221,-28.5034,-70.4346,-26.9775,88,1.3367,1.4027,19.1321,-46.229,34,0.1721,8636,3.9787,-142.7376
lg,1625137570196679445,0,-0.3645,-0.9802,0.4153,222,3.418,43.2739,-17.395,88,1.3377,1.4017,19.8298,-47.5083,34,0.1731,8575,3.9787,-144.849
lg,1625137570196708316,0,-0.3923,-0.7886,0.4612,223,23.0713,34.0576,5.9204,88,1.3367,1.4057,21.0654,-47.36,34,0.1751,8543,3.9787,-145.9082
lg,1625137570196736390,0,-0.3152,-0.7114,0.5569,224,16.2354,22.9492,16.7847,88,1.3367,1.4077,22.102,-46.9706,34,0.1761,8545,3.9787,-146.2075
lg,1625137570564218871,0,-0.083,-0.8708,0.5366,225,5.7373,-34.9121,12.4512,88,1.3437,1.4077,20.7272,-46.5676,34,0.1791,29019,3.9787,-144.858
lg,1625137570564259519,0,0.1521,-0.7681,0.6558,226,22.7051,-21.9727,13.4888,88,1.3487,1.4057,19.3955,-45.41,34,0.1811,9170,3.9787,-143.8395
lg,1625137570564280427,0,0.0371,-0.8286,0.509,227,9.9487,10.7422,-1.4648,88,1.3507,1.4027,18.8337,-45.6637,34,0.1811,10980,3.9787,-144.3858
lg,1625137570564300223,0,-0.2024,-0.9426,0.5425,228,-8.728,44.7388,29.1138,88,1.3527,1.4007,20.5923,-46.7653,34,0.1831,8453,3.9787,-145.0943
lg,1625137570564320445,0,-0.291,-0.9177,0.6658,229,-11.9019,58.5327,47.1191,88,1.3497,1.4037,23.3079,-47.7051,34,0.1831,8526,3.9787,-145.6771
lg,1625137570564339630,0,-0.3411,-0.6426,0.6926,230,-3.7842,50.4761,64.3311,88,1.3457,1.4067,26.4172,-47.5317,34,0.1821,8492,3.9787,-145.3351
lg,1625137570564358241,0,-0.4246,-0.6592,0.5276,231,-9.6436,12.5122,30.0903,88,1.3437,1.4077,27.6467,-47.8298,34,0.1771,8496,3.9787,-144.9063
lg,1625137570564400945,0,-0.2666,-0.9226,0.843,232,-23.3154,-32.1655,26.2451,88,1.3417,1.4067,26.951,-47.8792,34,0.1741,8709,3.9787,-143.0282
lg,1625137570564421334,0,-0.2615,-0.8867,0.6755,233,-13.9771,-36.0107,5.4932,88,1.3417,1.4067,25.8091,-48.1983,34,0.1741,8552,3.9787,-141.8324
lg,1625137570564440019,0,-0.3816,-0.8479,0.4937,234,-3.54,5.188,-6.5308,88,1.3417,1.4077,25.5808,-48.9577,34,0.1741,8567,3.9787,-142.398
lg,1625137570564466075,0,-0.3054,-0.8247,0.5891,235,4.8218,14.4653,-0.3662,88,1.3437,1.4107,25.5964,-49.1982,34,0.1751,8562,3.9787,-142.9901
lg,1625137570564485778,0,-0.2598,-0.8403,0.6323,236,5.5542,15.1367,-1.4648,88,1.3437,1.4117,25.3317,-49.4908,34,0.1771,7987,3.9787,-143.8045
lg,1625137570564504556,0,-0.2217,-0.8667,0.6394,237,3.8452,16.2354,-14.0991,88,1.3457,1.4117,24.778,-49.9021,34,0.1781,8025,3.9787,-144.8237
lg,1625137570564522482,0,-0.2886,-0.8879,0.5469,238,1.77,18.5547,-31.311,88,1.3467,1.4117,23.9212,-50.7934,34,0.1771,8065,3.9787,-146.4696
lg,1625137570564540297,0,-0.3164,-0.887,0.5425,239,1.5869,17.5781,-37.5366,88,1.3487,1.4107,22.7572,-51.49,34,0.1771,8073,3.9787,-148.0838
lg,1625137570564558260,0,-0.2581,-0.8818,0.6404,240,15.0146,1.9531,-40.9546,88,1.3477,1.4097,21.1501,-51.4199,34,0.1741,8856,3.9787,-149.284
lg,1625137570564577204,0,-0.2131,-0.8342,0.4309,241,29.9072,-30.2734,-59.6924,88,1.3407,1.4027,18.2215,-50.8725,34,0.1691,8877,3.9787,-150.0304
lg,1625137570564596038,0,-0.1206,-0.8435,0.2585,242,35.9497,-57.8613,-42.9688,88,1.3387,1.3977,15.0736,-50.1038,34,0.1661,8501,3.9787,-149.5785
lg,1625137570564614834,0,0.0422,-0.7686,0.21,243,28.6865,-32.959,-0.6714,88,1.3367,1.3987,13.5558,-49.6705,34,0.1661,11784,3.9787,-148.8101
lg,1625137570564633093,0,-0.1709,-0.9397,0.6279,244,-22.0947,40.5273,42.6636,88,1.3427,1.3987,15.6987,-50.8465,34,0.1721,8515,3.9787,-149.0358
lg,1625137570564651890,0,-0.5286,-0.9146,0.4431,245,-28.7476,56.8237,66.8945,88,1.3477,1.4027,19.9505,-52.0012,34,0.1751,8782,3.9787,-148.2862
lg,1625137570564670334,0,-0.5747,-0.7761,0.4873,246,-15.1978,5.4932,98.4497,88,1.3417,1.4067,23.6562,-51.904,34,0.1731,8949,3.9787,-145.9359
lg,1625137570564688852,0,-0.5874,-0.5681,0.752,247,-12.3291,-40.0391,106.9946,88,1.3347,1.4087,26.3172,-49.9955,34,0.1711,8594,3.9787,-141.3634
lg,1625137570564728501,0,-0.1418,-0.5476,0.4858,248,-20.5688,-166.3208,51.8188,88,1.3327,1.4067,22.93,-47.8151,34,0.1671,8638,3.9787,-134.3238
lg,1625137570564749778,0,0.1274,-1.1006,0.8303,249,-59.3872,-192.4438,19.3481,88,1.3317,1.4057,17.3159,-48.1053,34,0.1671,8638,3.9787,-127.7631
lg,1625137570564768186,0,0.0974,-1.0991,0.5107,250,-34.2407,-154.9072,1.4038,88,1.3306,1.4067,12.4582,-48.8938,34,0.1671,8867,3.9787,-123.1159
lg,1625137570564786630,0,0.041,-0.9985,0.5244,251,6.6528,-31.9214,3.2349,88,1.3296,1.4077,11.1622,-48.9354,34,0.1671,8390,3.9787,-122.1594
lg,1625137570564805223,0,0.0007,-0.7776,0.5769,252,23.6816,33.8135,14.7705,88,1.3286,1.4087,12.0518,-48.2891,34,0.1671,9078,3.9787,-122.837
lg,1625137570564823519,0,-0.2256,-0.8193,0.6506,253,17.7612,73.7915,15.8081,88,1.3286,1.4097,14.4793,-48.1181,34,0.1681,9125,3.9787,-124.6959
lg,1625137570564841723,0,-0.2915,-0.8391,0.626,254,16.1133,67.1387,14.3433,88,1.3296,1.4107,16.2016,-48.0579,34,0.1691,8806,3.9787,-126.0572
lg,1625137570564860315,0,-0.2983,-0.8145,0.5901,255,12.9395,35.3394,6.7139,88,1.3317,1.4117,17.3521,-48.0315,34,0.1711,9144,3.9787,-127.0347
lg,1625137570564879186,0,-0.2666,-0.8091,0.5552,256,9.8877,11.1084,5.8594,88,1.3327,1.4117,17.7377,-47.9806,34,0.1701,8459,3.9787,-127.305
lg,1625137570939484574,0,-0.0852,-0.9207,0.3965,257,-4.3945,-2.3804,3.6011,88,1.3437,1.4107,17.3076,-48.8526,34,0.1771,27324,3.9787,-127.3578
lg,1625137570939713278,0,-0.3704,-0.8665,0.7549,258,-0.1831,50.2319,61.2183,88,1.3397,1.4157,20.4792,-48.8169,34,0.1771,15663,3.9787,-127.2593
lg,1625137570939752149,0,-0.281,-0.5496,0.7385,259,2.4414,13.4277,49.1943,88,1.3377,1.4177,22.1745,-47.8619,34,0.1781,8271,3.9787,-126.1147
lg,1625137570939782834,0,-0.3179,-0.8643,0.7163,260,-27.0386,-31.1279,38.6353,88,1.3367,1.4177,22.2395,-48.2297,34,0.1771,9606,3.9787,-124.0326
lg,1625137570939814686,0,-0.2363,-0.9084,0.6025,261,-19.043,-41.1377,38.147,88,1.3367,1.4177,21.8995,-48.4089,34,0.1771,8036,3.9787,-121.737
lg,1625137570939843315,0,-0.2612,-0.937,0.6499,262,-2.9297,-7.2632,29.0527,88,1.3357,1.4187,22.2217,-48.3974,34,0.1771,9029,3.9787,-120.7749
lg,1625137570939872352,0,-0.145,-0.8245,0.7205,263,4.6997,5.188,24.4141,88,1.3367,1.4187,22.5059,-48.0135,34,0.1791,8457,3.9787,-120.2468
lg,1625137570939901963,0,-0.1282,-0.8518,0.7114,264,6.1035,10.6812,15.564,88,1.3377,1.4197,22.6501,-47.953,34,0.1791,8003,3.9787,-120.2296
lg,1625137570939930852,0,-0.155,-0.9019,0.6421,265,9.5215,24.6582,-3.418,88,1.3387,1.4197,22.6281,-48.1857,34,0.1791,7999,3.9787,-121.2299
lg,1625137570939960149,0,-0.2302,-0.8909,0.6362,266,19.043,34.3628,-23.0713,88,1.3447,1.4177,22.425,-48.3583,34,0.1781,8030,3.9787,-123.1047
lg,1625137570939990019,0,-0.2222,-0.8215,0.5916,267,26.4282,28.5034,-28.4424,88,1.3457,1.4137,21.9341,-48.1943,34,0.1771,8057,3.9787,-124.9332
lg,1625137570940017315,0,-0.2388,-0.7812,0.3625,268,15.5029,-14.8926,-39.3677,88,1.3457,1.4097,20.1411,-48.4785,34,0.1751,8067,3.9787,-125.8262
lg,1625137570940044334,0,-0.2866,-0.9321,0.4368,269,-8.9722,3.418,-4.5166,88,1.3477,1.4087,19.9363,-49.5644,34,0.1761,8269,3.9787,-126.2855
lg,1625137570940070723,0,-0.28,-0.8508,0.4163,270,-13.0615,6.5308,16.2964,88,1.3487,1.4127,20.4815,-50.5686,34,0.1791,8081,3.9787,-126.2479
lg,1625137570940102574,0,-0.3242,-0.7078,0.5525,271,-19.5312,-4.5776,56.7017,88,1.3447,1.4157,22.0886,-50.7773,34,0.1821,8164,3.9787,-124.5737
lg,1625137570940131871,0,-0.4099,-0.8264,0.5759,272,-30.3955,-11.9019,71.8384,88,1.3417,1.4197,23.034,-50.4945,34,0.1821,12845,3.9787,-121.6911
lg,1625137570940160352,0,-0.2156,-0.7383,0.7278,273,-6.3477,-61.2793,42.9688,88,1.3397,1.4157,22.3318,-49.2748,34,0.1801,8146,3.9787,-118.374
lg,1625137570940188463,0,-0.0935,-0.8794,0.6914,274,-32.8979,-79.9561,23.9258,88,1.3377,1.4147,20.3013,-49.491,34,0.1781,8680,3.9787,-115.1319
lg,1625137570940216019,0,-0.3044,-1.0261,0.5933,275,-11.9019,-35.4004,8.728,88,1.3387,1.4147,19.4322,-49.9064,34,0.1781,8245,3.9787,-113.8852
lg,1625137570940244223,0,-0.2053,-0.9546,0.6006,276,0.9766,-26.2451,19.2261,88,1.3377,1.4147,18.5058,-49.1479,34,0.1781,9008,3.9787,-112.044
lg,1625137570940272056,0,0.0706,-0.7888,0.5645,277,9.8877,-29.9683,20.6299,88,1.3387,1.4157,17.4679,-48.4922,34,0.1791,9049,3.9787,-110.5969
lg,1625137570940298982,0,0.0183,-0.9072,0.6589,278,9.7656,24.4141,12.3901,88,1.3407,1.4177,17.7641,-48.4485,34,0.1801,8978,3.9787,-111.09
lg,1625137570940327704,0,-0.1501,-0.9119,0.6448,279,22.522,58.7769,-3.8452,88,1.3437,1.4177,18.8003,-48.4135,34,0.1801,10331,3.9787,-113.1318
lg,1625137570940386556,0,-0.2261,-0.8076,0.5557,280,29.8462,62.8662,-18.2495,88,1.3467,1.4187,19.6859,-48.3251,34,0.1801,8818,3.9787,-115.7302
lg,1625137570940420889,0,-0.1907,-0.6914,0.5503,281,41.1987,34.4849,-17.8833,88,1.3497,1.4167,19.7764,-47.3398,34,0.1801,9073,3.9787,-117.3716
lg,1625137570940448056,0,-0.1338,-0.7427,0.5232,282,21.5454,27.4048,-19.104,88,1.3477,1.4127,19.5073,-47.2534,34,0.1771,9088,3.9787,-118.8819
lg,1625137570940473797,0,-0.124,-0.8457,0.5891,283,16.1133,39.0625,-10.8643,88,1.3437,1.4067,19.7453,-47.4428,34,0.1731,8759,3.9787,-120.5242
lg,1625137570940499482,0,-0.1892,-0.9683,0.5654,284,10.0708,67.8711,2.0142,88,1.3447,1.4017,21.2248,-48.2699,34,0.1751,9126,3.9787,-122.7884
lg,1625137570940526278,0,-0.408,-0.9241,0.644,285,-8.7891,86.2427,30.0293,88,1.3457,1.4057,24.3249,-49.6469,34,0.1811,9154,3.9787,-124.8605
lg,1625137570940552149,0,-0.614,-0.6646,0.6064,286,-9.0332,63.9648,54.0771,88,1.3477,1.4137,27.9995,-50.1992,34,0.1811,9212,3.9787,-125.4661
lg,1625137570940578704,0,-0.7388,-0.6187,0.6311,287,-21.9116,-12.2681,56.2134,88,1.3427,1.4167,29.8719,-49.8506,34,0.1821,8452,3.9787,-123.2853
lg,1625137570940606426,0,-0.5085,-0.6282,0.8906,288,-32.3486,-60.791,57.6782,88,1.3407,1.4187,29.491,-48.7306,34,0.1821,8867,3.9787,-119.1847
lg,1625137571297309463,0,-0.364,-1.0522,0.3806,289,-22.1558,-67.688,-11.4136,88,1.3387,1.4177,27.0013,-49.5544,34,0.1791,25871,3.9787,-117.6263
lg,1625137571297346778,0,-0.1746,-0.6951,0.5876,290,14.1602,-61.1572,18.5547,88,1.3387,1.4197,25.3183,-47.8463,34,0.1801,12610,3.9787,-115.0389
lg,1625137571297367297,0,-0.0249,-0.782,0.6038,291,-9.4604,-68.0542,5.9814,88,1.3397,1.4207,22.7544,-47.4374,34,0.1811,8126,3.9787,-112.7384
lg,1625137571297387834,0,0.063,-0.9216,0.6213,292,-15.3809,-62.0117,4.0894,88,1.3427,1.4217,20.3268,-48.0013,34,0.1841,7907,3.9787,-111.6969
lg,1625137571297430537,0,0.0444,-0.9968,0.5852,293,-6.7139,-27.5879,-16.0522,88,1.3457,1.4217,18.2605,-48.6007,34,0.1841,7996,3.9787,-111.4353
lg,1625137571297451130,0,-0.0098,-0.9187,0.4526,294,13.5498,-11.1694,-19.7754,88,1.3497,1.4207,16.7042,-48.731,34,0.1831,7978,3.9787,-111.823
lg,1625137571297470037,0,0.0938,-0.7502,0.4658,295,39.7339,-4.8828,-17.395,88,1.3517,1.4187,15.185,-47.6133,34,0.1841,8258,3.9787,-112.2719
lg,1625137571297488222,0,-0.1023,-0.8142,0.4436,296,5.5542,32.959,3.2349,88,1.3547,1.4157,15.8208,-48.1871,34,0.1841,9891,3.9787,-113.3437
lg,1625137571297506056,0,-0.2078,-0.9099,0.5833,297,-14.4043,46.814,28.6865,88,1.3547,1.4187,18.8001,-49.3794,34,0.1861,8923,3.9787,-113.8263
lg,1625137571297524000,0,-0.4238,-0.9365,0.7256,298,-8.9111,49.0723,63.4766,88,1.3537,1.4227,22.0244,-49.7795,34,0.1871,8499,3.9787,-113.7065
lg,1625137571297541519,0,-0.3315,-0.6575,0.675,299,-2.8076,-6.8359,57.1899,88,1.3497,1.4247,23.4747,-48.9422,34,0.1861,8038,3.9787,-111.7814
lg,1625137571297558871,0,-0.2241,-0.5881,0.7085,300,-6.1646,-37.3535,41.4429,88,1.3477,1.4257,22.7402,-48.79,34,0.1871,8006,3.9787,-109.1823
lg,1625137571297576389,0,-0.2449,-0.946,0.6897,301,-34.4238,-58.2886,37.5366,88,1.3467,1.4267,21.9215,-49.2359,34,0.1871,8084,3.9787,-106.2908
lg,1625137571297593889,0,-0.1587,-0.9377,0.4932,302,-8.3008,-50.293,33.0811,88,1.3467,1.4267,21.1065,-49.1578,34,0.1871,8113,3.9787,-103.9247
lg,1625137571297610852,0,-0.1663,-0.8833,0.5957,303,0.3052,-23.8647,30.7007,88,1.3467,1.4257,20.8156,-48.7073,34,0.1881,8119,3.9787,-102.3472
lg,1625137571297628426,0,-0.0359,-0.7874,0.6497,304,4.1504,-11.2915,28.5034,88,1.3477,1.4247,20.6349,-48.1914,34,0.1881,8088,3.9787,-101.2061
lg,1625137571297645556,0,0.0234,-0.9084,0.6138,305,-0.4272,-5.3101,13.7939,88,1.3487,1.4227,20.0628,-48.3292,34,0.1881,8162,3.9787,-100.7589
lg,1625137571297663371,0,-0.0371,-0.9292,0.6089,306,2.4414,9.8877,4.6997,88,1.3507,1.4197,19.8264,-48.5981,34,0.1871,8136,3.9787,-101.0476
lg,1625137571297681445,0,-0.1287,-0.8884,0.6013,307,18.2495,32.4707,-5.4321,88,1.3537,1.4167,20.0083,-48.5693,34,0.1881,8228,3.9787,-102.3407
lg,1625137571297699148,0,-0.1243,-0.6809,0.4546,308,22.0947,10.2539,-12.7563,88,1.3557,1.4107,19.4531,-48.2277,34,0.1871,8205,3.9787,-103.1349
lg,1625137571297728334,0,-0.1853,-0.8606,0.5562,309,15.8081,17.7002,-5.9814,88,1.3567,1.4067,19.939,-48.5149,34,0.1871,8590,3.9787,-104.0504
lg,1625137571297746093,0,-0.2161,-0.9067,0.5166,310,-0.7935,29.3579,18.5547,80,1.3587,1.4047,20.9493,-49.1683,34,0.1891,8940,3.9831,-104.6386
lg,1625137571297767889,0,-0.3298,-0.8799,0.687,311,-7.019,37.4146,43.8232,80,1.3557,1.4087,23.0634,-49.55,34,0.1911,8585,3.9831,-104.6763
lg,1625137571297786315,0,-0.4099,-0.7698,0.5928,312,-14.7705,18.2495,67.5659,80,1.3527,1.4137,25.576,-49.7001,34,0.1901,8972,3.9831,-103.4127
lg,1625137571297804185,0,-0.2227,-0.5645,0.4595,313,-17.395,-4.8218,61.0962,80,1.3487,1.4167,25.1606,-49.1157,34,0.1831,8305,3.9831,-101.4604
lg,1625137571297821297,0,-0.3694,-0.8359,0.7002,314,-35.0952,-39.856,15.686,80,1.3467,1.4157,24.3475,-49.7933,34,0.1791,8687,3.9831,-99.6845
lg,1625137571297917611,0,-0.1399,-0.9255,0.4587,315,-27.1606,-73.7305,12.207,80,1.3457,1.4117,22.2128,-50.3411,34,0.1741,8800,3.9831,-97.1129
lg,1625137571297938797,0,-0.3171,-0.9697,0.5959,316,-5.6763,-16.2354,-0.1831,80,1.3457,1.4097,21.5375,-50.687,34,0.1711,9280,3.9831,-96.6977
lg,1625137571297958722,0,-0.3059,-0.802,0.5049,317,7.0801,4.5776,8.7891,80,1.3427,1.4137,21.7811,-50.6479,34,0.1701,9076,3.9831,-96.7138
lg,1625137571297977482,0,-0.0874,-0.8115,0.5125,318,1.5259,1.8311,19.2261,80,1.3447,1.4137,21.7757,-50.7026,34,0.1711,9132,3.9831,-96.3605
lg,1625137571298174352,0,-0.0522,-0.9307,0.5737,319,1.8311,19.165,12.207,80,1.3457,1.4157,21.8955,-51.0574,34,0.1731,8784,3.9831,-96.7886
lg,1625137571298198445,0,-0.0569,-0.9417,0.605,320,8.0566,32.1045,5.4932,80,1.3457,1.4157,22.0758,-51.2831,34,0.1741,9193,3.9831,-98.1987
lg,1625137571670811722,0,-0.26,-0.8613,0.5227,321,19.2871,28.6255,-14.8315,80,1.3527,1.4137,22.0255,-51.3224,34,0.1741,25948,3.9831,-99.6772
lg,1625137571670898500,0,0.0906,-0.8408,0.6462,322,53.2227,-13.4888,-16.2964,80,1.3427,1.3987,19.9146,-49.8743,34,0.1671,16759,3.9831,-100.616
lg,1625137571670920315,0,0.0549,-0.8403,0.4973,323,38.6353,11.1694,-49.2554,80,1.3367,1.3857,17.8212,-49.2721,34,0.1611,7953,3.9831,-102.4612
lg,1625137571670943704,0,-0.0198,-0.7834,0.4099,324,40.8325,54.5044,-28.1372,80,1.3327,1.3777,17.7574,-48.9395,34,0.1571,7902,3.9831,-105.1346
lg,1625137571670963611,0,-0.0676,-0.7805,0.4905,325,32.5317,90.6372,-4.4556,80,1.3327,1.3737,19.5848,-48.7733,34,0.1561,7977,3.9831,-108.2
lg,1625137571670983593,0,-0.2095,-0.8071,0.6348,326,16.8457,136.4136,29.9683,80,1.3337,1.3707,23.71,-49.5443,34,0.1591,7923,3.9831,-111.8468
lg,1625137571671005333,0,-0.5452,-0.9958,0.8149,327,-7.1411,119.6899,40.2832,80,1.3367,1.3687,27.9432,-51.1518,34,0.1651,9477,3.9831,-114.8267
lg,1625137571671023759,0,-0.6733,-0.7717,0.5398,328,-15.625,42.2974,59.7534,80,1.3417,1.3737,31.1496,-51.813,34,0.1671,8006,3.9831,-114.7104
lg,1625137571671041333,0,-0.7192,-0.686,0.5173,329,-25.5737,0.5493,65.5518,80,1.3437,1.3847,33.5589,-51.8434,34,0.1671,8389,3.9831,-112.8324
lg,1625137571671060796,0,-0.8049,-0.6885,0.592,330,-41.8091,-56.5796,92.3462,80,1.3367,1.3937,35.335,-50.5991,34,0.1671,8368,3.9831,-107.8245
lg,1625137571671079815,0,-0.4241,-0.7461,0.7544,331,-64.8804,-162.0483,116.9434,80,1.3327,1.3977,34.1068,-47.3929,34,0.1651,8379,3.9831,-97.9922
lg,1625137571671098741,0,0.019,-0.791,0.2139,332,-30.2734,-216.1865,24.5361,80,1.3327,1.3957,27.7482,-45.6523,34,0.1631,10615,3.9831,-90.5903
lg,1625137571671118630,0,0.1204,-1.075,0.5273,333,-71.7163,-164.6729,15.0757,80,1.3327,1.3957,22.8078,-46.2279,34,0.1611,8091,3.9831,-86.3751
lg,1625137571671139463,0,-0.0623,-1.0498,0.2705,334,-29.6631,-89.4165,-18.3105,80,1.3317,1.3947,19.1945,-47.775,34,0.1601,8130,3.9831,-84.5534
lg,1625137571671209889,0,-0.0571,-0.958,0.4302,335,13.2446,-26.123,0.5493,80,1.3317,1.3997,17.9163,-47.7126,34,0.1601,8622,3.9831,-83.9637
lg,1625137571671252815,0,0.2112,-0.7971,0.6409,336,28.7476,9.3384,10.3149,80,1.3306,1.4017,17.3482,-46.6985,34,0.1611,8087,3.9831,-84.0126
lg,1625137571671272407,0,0.1648,-0.7756,0.6387,337,27.9541,34.9731,-6.4697,80,1.3317,1.4037,17.0997,-46.101,34,0.1651,8222,3.9831,-85.3144
lg,1625137571671292259,0,-0.0962,-0.8635,0.6104,338,24.292,94.4824,-43.457,80,1.3337,1.4047,17.966,-46.7215,34,0.1651,8680,3.9831,-89.546
lg,1625137571671312704,0,-0.3455,-0.8796,0.593,339,30.3345,107.4219,-52.5513,80,1.3387,1.4047,19.3431,-47.4154,34,0.1661,8643,3.9831,-94.4912
lg,1625137571671331704,0,-0.4001,-0.8059,0.6111,340,42.9077,96.8628,-49.0112,80,1.3437,1.4027,20.5929,-47.4241,34,0.1661,8223,3.9831,-99.0073
lg,1625137571671350537,0,-0.394,-0.6895,0.6438,341,51.3916,66.1621,-42.5415,80,1.3447,1.3987,21.2653,-46.5064,34,0.1621,10561,3.9831,-102.3036
lg,1625137571671369259,0,-0.3843,-0.688,0.6382,342,22.7661,43.8843,-32.7148,80,1.3427,1.3927,21.5531,-46.4651,34,0.1591,9096,3.9831,-104.6452
lg,1625137571671388333,0,-0.4138,-0.8479,0.6138,343,-2.1973,32.2876,-9.5825,80,1.3407,1.3897,22.1519,-47.3275,34,0.1581,9185,3.9831,-106.0534
lg,1625137571671408037,0,-0.3745,-0.8987,0.6206,344,-13.7329,1.8921,15.686,80,1.3417,1.3897,22.54,-48.0376,34,0.1601,8438,3.9831,-105.777
lg,1625137571671427278,0,-0.2102,-0.9253,0.6855,345,-24.0479,-24.6582,38.208,80,1.3437,1.3917,22.5457,-48.4843,34,0.1631,9113,3.9831,-103.9618
lg,1625137571671446611,0,-0.2058,-0.9473,0.6667,346,-29.4189,-30.1514,41.5039,80,1.3477,1.3957,22.5133,-49.0827,34,0.1671,8381,3.9831,-101.8933
lg,1625137571671464481,0,-0.1848,-0.9031,0.5029,347,-33.5693,-60.1196,49.2554,80,1.3517,1.4017,21.9761,-49.6309,34,0.1681,8764,3.9831,-98.7192
lg,1625137571671482556,0,-0.1938,-0.8857,0.4326,348,-32.1655,-66.9556,53.3447,80,1.3527,1.4047,21.4848,-50.1295,34,0.1691,8417,3.9831,-95.2519
lg,1625137571671499907,0,-0.1423,-0.8745,0.3638,349,-33.9966,-73.1812,60.73,80,1.3527,1.4077,20.9915,-50.4621,34,0.1711,8487,3.9831,-90.8696
lg,1625137571671518222,0,-0.0439,-0.9062,0.3882,350,-30.0903,-85.5103,71.228,80,1.3497,1.4107,20.6371,-50.427,34,0.1711,10001,3.9831,-86.7321
lg,1625137571671538759,0,-0.0251,-0.9036,0.5767,351,5.4321,-34.79,57.6172,80,1.3497,1.4117,20.7629,-49.5338,34,0.1711,10555,3.9831,-84.1196
lg,1625137571671574204,0,0.0393,-0.8772,0.6816,352,15.9912,-31.4941,47.6685,80,1.3507,1.4117,20.4909,-48.1685,35,0.1731,8575,3.9831,-81.8151
lg,1625137572043016611,0,-0.1377,-0.9502,0.5671,353,-6.2866,28.1372,31.9214,80,1.3367,1.4157,21.669,-48.867,35,0.1711,25706,3.9831,-81.9737
lg,1625137572043071592,0,-0.4116,-0.5156,0.489,354,39.3677,81.665,21.3623,80,1.3327,1.4087,24.7853,-48.0016,34,0.1671,15113,3.9831,-83.9843
lg,1625137572043092944,0,-0.542,-0.6321,1.083,355,-13.1836,12.5122,8.4229,80,1.3317,1.3997,25.3486,-47.8823,34,0.1651,7875,3.9831,-83.8457
lg,1625137572043120185,0,-0.5239,-0.6389,0.5667,356,-9.6436,-45.166,-21.3013,80,1.3306,1.3937,23.7532,-47.923,34,0.1641,7921,3.9831,-82.9968
lg,1625137572043140611,0,-0.7285,-0.8088,0.3984,357,-39.2456,-35.0952,-18.3716,80,1.3306,1.3927,22.8961,-49.76,34,0.1621,7962,3.9831,-82.5861
lg,1625137572043160037,0,-0.3933,-0.9133,0.585,358,-14.8315,-24.5361,37.4146,80,1.3306,1.3927,23.294,-49.9139,34,0.1601,8739,3.9831,-80.8377
lg,1625137572043178352,0,-0.0278,-0.8765,0.4565,359,-17.2119,-57.251,31.189,80,1.3306,1.3937,21.9648,-50.0568,34,0.1601,8007,3.9831,-78.2752
lg,1625137572043196389,0,0.1211,-0.998,0.4993,360,-19.8975,-30.8228,30.0903,80,1.3306,1.3967,21.9925,-50.8948,34,0.1611,8094,3.9831,-77.6182
lg,1625137572043215481,0,0.1882,-1.0205,0.5193,361,-7.0801,16.2354,27.1606,80,1.3286,1.4007,22.0751,-51.6023,34,0.1611,7939,3.9831,-77.6174
lg,1625137572043234148,0,0.1372,-0.9766,0.4536,362,7.1411,35.1562,5.3101,80,1.3276,1.4037,22.0074,-52.2674,35,0.1631,8388,3.9831,-78.8807
lg,1625137572043252666,0,-0.0449,-0.9514,0.4622,363,18.6768,71.167,-8.7891,80,1.3276,1.4067,22.6933,-53.0313,35,0.1651,8536,3.9831,-81.7455
lg,1625137572043271592,0,-0.1011,-0.9363,0.4785,364,23.3154,75.8667,-10.3149,80,1.3306,1.4077,23.6166,-53.5005,35,0.1661,9168,3.9831,-85.0433
lg,1625137572043290018,0,-0.166,-0.8909,0.5244,365,33.6304,83.1299,-12.207,80,1.3327,1.4057,24.612,-53.733,34,0.1661,8768,3.9831,-88.3988
lg,1625137572043307463,0,-0.1228,-0.8206,0.6777,366,47.4243,77.2095,-8.7891,80,1.3347,1.4047,25.4529,-52.9438,34,0.1641,8090,3.9831,-91.3125
lg,1625137572043325296,0,-0.0801,-0.729,0.5728,367,60.0586,80.4443,-30.1514,80,1.3306,1.3997,25.6399,-52.063,34,0.1591,8762,3.9831,-94.9423
lg,1625137572043343111,0,-0.2461,-0.7703,0.532,368,48.2788,92.6514,-46.875,80,1.3226,1.3917,25.9847,-52.2391,34,0.1551,10006,3.9831,-99.5306
lg,1625137572043360685,0,-0.3462,-0.7664,0.4702,369,41.9312,108.3374,-39.5508,80,1.3166,1.3807,27.143,-53.0151,34,0.1531,8245,3.9831,-104.5669
lg,1625137572043395074,0,-0.5059,-0.6877,0.4214,370,25.5127,116.5161,5.0659,80,1.3166,1.3747,30.24,-54.1856,34,0.1511,8506,3.9831,-108.81
lg,1625137572043415592,0,-0.6426,-0.8044,0.675,371,-9.8877,101.4404,49.4385,80,1.3206,1.3687,34.2063,-55.7813,34,0.1571,8951,3.9831,-111.3221
lg,1625137572043433963,0,-0.8748,-0.9414,0.6023,372,-31.8604,36.0718,67.3828,80,1.3266,1.3587,37.3784,-56.8881,34,0.1601,8557,3.9831,-111.001
lg,1625137572043451259,0,-0.9531,-0.8325,0.4937,373,-35.5225,-14.7095,69.3359,80,1.3296,1.3597,39.8794,-56.8314,34,0.1611,8618,3.9831,-108.5168
lg,1625137572043469629,0,-0.9504,-0.6348,0.3582,374,-53.6499,-125.5493,109.9243,80,1.3246,1.3687,41.1239,-53.375,34,0.1631,8640,3.9831,-99.8278
lg,1625137572043488796,0,-0.8481,-0.71,0.5259,375,-71.167,-177.3682,164.4897,80,1.3096,1.3807,41.826,-47.6366,34,0.1621,9059,3.9831,-86.9124
lg,1625137572043509074,0,0.0676,-0.7671,1.1848,376,-84.0454,-288.8794,150.4517,80,1.3066,1.3797,36.1707,-40.2978,34,0.1611,8308,3.9831,-70.664
lg,1625137572043527685,0,0.5762,-1.1765,1.0483,377,-93.5669,-287.7808,62.561,80,1.3046,1.3797,27.0635,-38.683,34,0.1601,9130,3.9831,-60.0644
lg,1625137572043545574,0,0.6453,-1.1978,0.8945,378,-81.665,-231.2012,43.8232,80,1.3046,1.3817,19.3073,-39.4109,34,0.1581,8416,3.9831,-52.5069
lg,1625137572043563296,0,0.387,-1.2104,0.374,379,-31.3721,-50.4761,5.5542,80,1.3036,1.3857,16.6835,-41.4147,34,0.1591,8454,3.9831,-51.346
lg,1625137572043670592,0,0.2542,-1.0215,0.1997,380,4.7607,8.728,-18.9819,80,1.3056,1.3897,15.406,-42.843,34,0.1611,8934,3.9831,-52.5669
lg,1625137572043727203,0,0.0515,-0.9172,0.335,381,43.1519,120.5444,-13.7329,80,1.3036,1.3897,17.8773,-43.2939,34,0.1631,8851,3.9831,-56.7136
lg,1625137572043748907,0,-0.1797,-0.8394,0.3447,382,52.9175,164.4897,-18.0664,80,1.3036,1.3917,23.0161,-43.8802,34,0.1641,9069,3.9831,-62.9422
lg,1625137572043771333,0,-0.5774,-0.7283,0.4316,383,62.9272,179.9316,-14.1602,80,1.3056,1.3947,28.2083,-44.5185,34,0.1651,9240,3.9831,-69.1798
lg,1625137572043793000,0,-0.7666,-0.6084,0.5459,384,51.3916,111.5112,-7.9346,80,1.3066,1.3957,31.7214,-44.5099,34,0.1661,8878,3.9831,-73.1113
lg,1625137572408412944,0,-0.1697,-0.8357,0.5945,385,8.4839,-83.8623,-7.0801,80,1.3236,1.3967,28.2792,-43.389,34,0.1691,28071,3.9831,-70.8936
lg,1625137572408448203,0,-0.1501,-0.9653,0.4897,386,-17.9443,-48.7061,13.2446,80,1.3266,1.4007,26.5096,-44.0503,34,0.1721,13740,3.9831,-69.3416
lg,1625137572408468777,0,-0.3362,-0.7747,0.6602,387,-1.8311,-2.5024,46.2036,80,1.3216,1.4037,27.3895,-43.6308,34,0.1741,7983,3.9831,-67.872
lg,1625137572408489222,0,-0.4048,-0.6555,0.6138,388,-3.3569,1.6479,57.8003,80,1.3186,1.4057,28.8924,-43.0094,34,0.1741,7918,3.9831,-66.0764
lg,1625137572408508611,0,-0.3577,-0.6094,0.5845,389,-0.061,-34.79,35.4004,80,1.3166,1.4057,28.5898,-42.0439,34,0.1741,7913,3.9831,-63.8727
lg,1625137572408527185,0,-0.3066,-0.9595,0.8652,390,-26.3672,-46.2036,29.4189,80,1.3156,1.4037,26.729,-41.9742,34,0.1731,7979,3.9831,-60.6743
lg,1625137572408545185,0,-0.2566,-0.9622,0.7039,391,-16.7847,-83.374,19.165,80,1.3166,1.4037,24.2179,-41.8032,34,0.1711,8745,3.9831,-57.7949
lg,1625137572408562796,0,-0.1299,-0.8616,0.5364,392,-6.7139,-63.4155,4.6997,80,1.3146,1.4057,21.8373,-41.9668,34,0.1701,8606,3.9831,-56.0773
lg,1625137572408580648,0,0.0901,-0.8767,0.5669,393,-1.5869,-44.4946,3.3569,80,1.3176,1.4067,19.6159,-42.163,34,0.1711,8036,3.9831,-54.9261
lg,1625137572408599333,0,0.1479,-0.8911,0.5293,394,1.6479,-26.062,-1.0986,80,1.3196,1.4087,17.7926,-42.5592,34,0.1741,8073,3.9831,-54.4485
lg,1625137572408617648,0,0.01,-0.9495,0.5801,395,14.6484,43.7012,-15.564,80,1.3216,1.4097,17.9521,-43.1539,34,0.1741,8097,3.9831,-56.3775
lg,1625137572408635833,0,-0.2139,-0.9038,0.5737,396,22.1558,81.9092,-28.6255,80,1.3246,1.4087,19.2789,-43.8861,34,0.1751,8177,3.9831,-59.8164
lg,1625137572408653759,0,-0.2964,-0.8848,0.6003,397,24.292,82.1533,-32.8979,80,1.3266,1.4067,20.5625,-44.5621,34,0.1731,8107,3.9831,-63.4178
lg,1625137572408671203,0,-0.2461,-0.7744,0.4783,398,43.396,45.3491,-29.4189,80,1.3266,1.4027,20.8319,-44.175,34,0.1711,8146,3.9831,-65.8694
lg,1625137572408688370,0,-0.1733,-0.7542,0.4285,399,31.6162,10.6812,-27.2827,80,1.3286,1.3977,20.0298,-43.9708,34,0.1681,8137,3.9831,-67.2582
lg,1625137572408705722,0,-0.1309,-0.7559,0.4888,400,28.0151,15.564,-17.2729,80,1.3256,1.3937,19.5077,-43.8055,34,0.1671,8189,3.9831,-68.4613
lg,1625137572408722444,0,-0.2419,-0.9131,0.5298,401,1.2207,54.0771,6.3477,80,1.3256,1.3937,20.9831,-44.8903,34,0.1681,8176,3.9831,-70.099
lg,1625137572408740055,0,-0.4441,-0.8923,0.6902,402,-11.1694,60.8521,49.4385,80,1.3317,1.3967,24.107,-45.7601,34,0.1731,8266,3.9831,-70.5787
lg,1625137572408757074,0,-0.5417,-0.7969,0.7488,403,-10.0098,61.5845,66.4062,80,1.3317,1.4027,27.8964,-45.7752,34,0.1751,8289,3.9831,-69.376
lg,1625137572408773666,0,-0.7087,-0.6125,0.6389,404,-28.6255,-15.8691,80.7495,80,1.3236,1.4087,30.1753,-45.3237,34,0.1751,15207,3.9831,-66.233
lg,1625137572408790833,0,-0.3237,-0.5874,1.0522,405,-33.3252,-86.3647,78.6743,80,1.3216,1.4087,29.3545,-43.271,34,0.1731,8373,3.9831,-60.5056
lg,1625137572408828537,0,-0.1506,-0.9683,0.8979,406,-71.2891,-149.8413,31.4941,80,1.3206,1.4077,25.0188,-43.6831,34,0.1701,8734,3.9831,-54.9128
lg,1625137572408853888,0,0.0745,-0.9888,0.6587,407,-54.2603,-167.1143,21.0571,80,1.3206,1.4077,20.2684,-44.4989,34,0.1681,8260,3.9831,-51.302
lg,1625137572408872463,0,-0.0012,-1.0605,0.5525,408,-31.9824,-59.3262,-12.146,80,1.3216,1.4087,17.5121,-46.042,34,0.1671,9083,3.9831,-50.1222
lg,1625137572408890333,0,-0.0759,-0.9087,0.3855,409,-0.6104,9.8267,-2.1362,80,1.3226,1.4107,17.2434,-47.0112,34,0.1681,10329,3.9831,-50.7344
lg,1625137572408907666,0,-0.1926,-0.8428,0.4683,410,11.9019,53.5278,2.9297,80,1.3196,1.4117,18.5517,-47.5708,34,0.1701,8358,3.9831,-52.473
lg,1625137572408925000,0,-0.3096,-0.8374,0.4175,411,9.4604,54.0161,4.8828,80,1.3236,1.4137,20.1447,-48.327,34,0.1711,8867,3.9831,-54.2371
lg,1625137572408942314,0,-0.321,-0.8357,0.4526,412,7.3853,18.4937,3.3569,80,1.3236,1.4147,20.6873,-48.7193,34,0.1731,8748,3.9831,-54.9137
lg,1625137572408959685,0,-0.283,-0.8167,0.4343,413,5.7983,-3.7231,5.127,80,1.3256,1.4147,20.6138,-48.9154,34,0.1731,8474,3.9831,-54.8352
lg,1625137572409089629,0,-0.1333,-0.8601,0.4275,414,2.5635,-35.4614,12.8174,80,1.3286,1.4167,19.5957,-48.8921,34,0.1741,8925,3.9831,-53.5479
lg,1625137572409117481,0,0.0422,-0.9268,0.5066,415,10.0098,-34.4849,22.0947,80,1.3317,1.4157,18.5213,-48.4405,34,0.1741,8876,3.9831,-52.0101
lg,1625137572409138351,0,0.1111,-0.8894,0.5815,416,28.2593,-2.1973,23.0103,80,1.3367,1.4167,18.2085,-47.4254,34,0.1731,9286,3.9831,-51.4117
lg,1625137572772037203,0,0.0693,-0.8079,0.8025,417,38.208,59.8145,-26.001,80,1.3296,1.4047,18.1978,-46.85,34,0.1661,26487,3.9831,-54.7728
lg,1625137572772074888,0,-0.074,-0.8713,0.6003,418,41.4429,112.4878,-60.5469,80,1.3256,1.3997,18.9216,-47.2032,34,0.1591,11555,3.9831,-60.0972
lg,1625137572772096666,0,-0.3306,-0.8965,0.3335,419,44.1895,150.0244,-51.6968,80,1.3256,1.3977,21.4432,-48.4482,34,0.1601,8071,3.9831,-66.5987
lg,1625137572772115944,0,-0.7114,-0.8267,0.718,420,9.3384,168.5181,-28.7476,80,1.3286,1.3977,25.3615,-50.6357,34,0.1661,8058,3.9831,-73.0178
lg,1625137572772134703,0,-1.0591,-0.7593,0.4321,421,-5.8594,160.3394,-3.8452,92,1.3327,1.3987,29.697,-52.7914,34,0.1661,7882,3.9776,-76.6193
lg,1625137572772152722,0,-1.1343,-0.6609,0.4055,422,-9.0942,43.2129,26.001,92,1.3367,1.4037,32.5414,-53.7568,34,0.1681,7989,3.9776,-77.5945
lg,1625137572772170851,0,-1.2588,-0.5725,0.7549,423,-21.1182,-47.3022,56.3965,92,1.3357,1.4097,34.0244,-52.2239,34,0.1681,8972,3.9776,-73.8866
lg,1625137572772190092,0,-0.8718,-0.6477,0.5046,424,-63.1104,-236.8164,93.4448,92,1.3246,1.4117,31.3978,-48.492,34,0.1651,8641,3.9776,-62.3532
lg,1625137572772208185,0,-0.1223,-0.7612,0.5122,425,-97.6562,-380.6152,81.2988,92,1.3226,1.4087,22.6156,-45.915,34,0.1641,9529,3.9776,-47.6056
lg,1625137572772225740,0,0.425,-0.9612,0.0784,426,-78.4302,-332.8247,38.0249,92,1.3206,1.4057,13.1388,-46.9624,34,0.1631,8238,3.9776,-36.9425
lg,1625137572772243888,0,0.6484,-1.2976,0.4309,427,-67.8711,-178.4668,39.4897,92,1.3186,1.4057,8.1995,-49.3092,34,0.1621,8089,3.9776,-30.6375
lg,1625137572772261888,0,0.5486,-1.3428,0.3367,428,-28.7476,-85.083,37.6587,92,1.3176,1.4067,6.0859,-50.9447,34,0.1611,8095,3.9776,-27.1538
lg,1625137572772306314,0,0.438,-1.105,0.592,429,40.1001,58.3496,52.7954,92,1.3156,1.4077,8.221,-49.7992,34,0.1621,8100,3.9776,-27.671
lg,1625137572772327129,0,0.2319,-0.7412,0.7134,430,64.5752,117.7368,31.0669,92,1.3156,1.4107,11.4292,-47.5396,34,0.1641,11279,3.9776,-30.4315
lg,1625137572772345703,0,-0.1851,-0.6472,0.5679,431,38.8184,147.0947,5.6763,92,1.3136,1.4127,15.585,-47.029,34,0.1641,8101,3.9776,-34.7327
lg,1625137572772363222,0,-0.3904,-0.7249,0.6145,432,28.1982,151.5503,3.2349,92,1.3126,1.4147,20.1999,-47.4081,34,0.1641,8125,3.9776,-39.3488
lg,1625137572772380888,0,-0.5679,-0.7871,0.7002,433,23.5596,114.624,4.8828,92,1.3156,1.4147,23.729,-47.8062,34,0.1651,8203,3.9776,-42.8753
lg,1625137572772398518,0,-0.4517,-0.7283,0.6755,434,23.6206,51.7578,0.6104,92,1.3196,1.4157,25.1547,-47.5145,34,0.1671,8152,3.9776,-44.5276
lg,1625137572772417962,0,-0.3472,-0.6912,0.7046,435,24.1699,26.3062,-2.3804,92,1.3236,1.4157,24.9315,-47.0938,34,0.1661,8191,3.9776,-45.1622
lg,1625137572772434962,0,-0.2429,-0.7625,0.5842,436,4.5776,9.0332,-11.6577,92,1.3266,1.4157,24.409,-47.3961,34,0.1661,8179,3.9776,-45.8948
lg,1625137572772452018,0,-0.2292,-0.9321,0.562,437,-6.8359,27.771,-9.8267,92,1.3286,1.4137,24.3738,-48.637,34,0.1661,8581,3.9776,-47.2857
lg,1625137572772471685,0,-0.4326,-0.905,0.4932,438,-29.0527,49.0112,-1.77,92,1.3317,1.4137,25.5229,-51.0141,34,0.1691,8842,3.9776,-49.1994
lg,1625137572772490370,0,-0.6326,-0.8469,0.5579,439,-32.5317,48.7061,11.8408,92,1.3337,1.4157,27.6341,-52.4917,34,0.1731,9310,3.9776,-49.5384
lg,1625137572772507351,0,-0.5566,-0.7178,0.5022,440,-31.7993,-39.4287,52.1851,92,1.3296,1.4207,28.5187,-52.4949,34,0.1741,9070,3.9776,-46.7183
lg,1625137572772524499,0,-0.563,-0.7354,0.4783,441,-41.687,-63.2324,54.1992,92,1.3256,1.4217,28.8691,-52.49,34,0.1741,8908,3.9776,-42.9991
lg,1625137572772541629,0,-0.2097,-0.7585,0.5652,442,-30.0903,-121.3379,50.2319,92,1.3256,1.4207,26.82,-51.0414,34,0.1711,8934,3.9776,-37.2969
lg,1625137572772559185,0,0.0071,-0.9717,0.6174,443,-59.7534,-138.2446,28.0762,92,1.3236,1.4187,23.221,-51.3537,34,0.1701,8981,3.9776,-31.8825
lg,1625137572772576407,0,0.0798,-1.0566,0.3894,444,-29.48,-92.3462,7.9956,92,1.3246,1.4187,20.1992,-52.0531,34,0.1691,8991,3.9776,-28.8405
lg,1625137572772594518,0,0.0366,-1.0249,0.4641,445,5.4321,-12.2681,19.8364,92,1.3246,1.4197,19.6892,-52.0749,34,0.1691,9062,3.9776,-28.1059
lg,1625137572772613073,0,0.144,-0.9719,0.5532,446,18.2495,1.709,24.6582,92,1.3256,1.4227,19.2862,-51.3869,34,0.1711,9124,3.9776,-28.1541
lg,1625137572772632259,0,0.1675,-0.8813,0.5186,447,24.1089,26.9775,5.5542,92,1.3276,1.4227,19.0481,-50.9957,34,0.1721,9045,3.9776,-29.0145
lg,1625137572772669703,0,-0.0483,-0.9102,0.511,448,30.0903,66.7725,-13.7939,92,1.3306,1.4247,19.6532,-51.0405,34,0.1711,9175,3.9776,-31.7177
lg,1625137573171625314,0,-0.2676,-0.6309,0.4973,449,42.1753,64.7583,-15.8081,92,1.3397,1.4207,20.7425,-50.2589,34,0.1721,26202,3.9776,-34.2889
lg,1625137573171679369,0,-0.4272,-0.8582,0.6365,450,-0.5493,46.4478,15.9912,92,1.3397,1.4217,22.4457,-50.8015,34,0.1741,15920,3.9776,-35.4401
lg,1625137573171700814,0,-0.5591,-0.8262,0.6809,451,-15.9912,29.9683,41.1987,92,1.3387,1.4247,24.6705,-51.371,34,0.1771,8431,3.9776,-35.326
lg,1625137573171720536,0,-0.5349,-0.7146,0.6135,452,-14.1602,15.7471,55.4199,92,1.3347,1.4267,26.4518,-51.0166,34,0.1781,8508,3.9776,-33.4191
lg,1625137573171739073,0,-0.4609,-0.6875,0.7468,453,-21.8506,-33.0811,54.6875,92,1.3327,1.4287,27.2315,-50.3149,34,0.1791,8828,3.9776,-30.5618
lg,1625137573171758444,0,-0.2473,-0.7241,0.3936,454,-22.2778,-86.6699,25.6348,92,1.3317,1.4277,25.4122,-50.0168,34,0.1791,9379,3.9776,-27.0655
lg,1625137573171776499,0,-0.092,-0.9653,0.5776,455,-34.9121,-90.7593,16.6626,92,1.3317,1.4277,22.8188,-50.3474,34,0.1781,10033,3.9776,-23.7003
lg,1625137573171794166,0,-0.2092,-1.0076,0.4919,456,-12.6953,-33.6304,-9.5215,92,1.3327,1.4277,21.2154,-51.085,34,0.1781,10758,3.9776,-23.0485
lg,1625137573171811518,0,-0.21,-0.8823,0.4636,457,8.606,-21.9727,-2.5635,92,1.3327,1.4297,20.2301,-50.9565,34,0.1791,8951,3.9776,-22.5499
lg,1625137573171829129,0,-0.1226,-0.8152,0.4932,458,10.0098,-24.4141,-3.9062,92,1.3337,1.4317,18.9931,-50.638,34,0.1821,8930,3.9776,-21.9615
lg,1625137573171846832,0,-0.1421,-0.8765,0.4822,459,4.3945,-10.498,-2.5635,92,1.3357,1.4327,18.2284,-50.797,34,0.1801,8739,3.9776,-21.8247
lg,1625137573171864777,0,-0.092,-0.9077,0.5505,460,10.6812,-1.4648,-0.1831,92,1.3377,1.4327,17.6673,-50.6757,34,0.1801,8989,3.9776,-21.8838
lg,1625137573171882110,0,-0.0618,-0.9026,0.5627,461,15.625,5.0049,0.1831,92,1.3407,1.4317,17.1885,-50.4177,34,0.1781,9021,3.9776,-22.1416
lg,1625137573171899536,0,-0.0305,-0.8757,0.5754,462,22.3999,25.0854,-1.0986,92,1.3397,1.4287,17.1852,-50.0201,34,0.1761,8999,3.9776,-23.0577
lg,1625137573171916592,0,-0.0132,-0.8655,0.655,463,33.3252,54.6875,-16.7847,92,1.3367,1.4237,17.4303,-49.4544,34,0.1751,9062,3.9776,-25.3003
lg,1625137573171936758,0,-0.1658,-0.8604,0.54,464,39.0625,79.2236,-31.311,92,1.3327,1.4177,18.2121,-49.2658,34,0.1721,8723,3.9776,-28.788
lg,1625137573171954703,0,-0.2051,-0.7881,0.4983,465,51.6357,87.0361,-4.2114,92,1.3296,1.4117,20.1333,-48.4898,34,0.1711,9139,3.9776,-31.7948
lg,1625137573171972203,0,-0.3074,-0.7305,0.5413,466,33.8745,118.3472,19.7144,92,1.3306,1.4097,23.776,-48.5476,34,0.1691,9116,3.9776,-35.1312
lg,1625137573171989184,0,-0.4233,-0.771,0.6189,467,16.0522,119.4458,30.3345,92,1.3317,1.4077,27.8937,-49.8293,34,0.1761,9141,3.9776,-37.468
lg,1625137573172028240,0,-0.6958,-0.8096,0.5479,468,-25.2686,24.353,71.9604,92,1.3397,1.4127,31.0128,-50.4294,34,0.1781,14582,3.9776,-36.3176
lg,1625137573172046555,0,-0.696,-0.6719,0.4885,469,-29.1748,-49.4385,82.0923,92,1.3367,1.4187,32.6064,-49.4503,34,0.1781,9196,3.9776,-32.1051
lg,1625137573172064018,0,-0.6741,-0.7922,0.5825,470,-58.2275,-109.6802,116.8213,92,1.3296,1.4217,33.2964,-47.7779,34,0.1761,9331,3.9776,-24.5806
lg,1625137573172081944,0,0.0308,-0.7324,0.5215,471,-31.6772,-205.0781,75.6226,92,1.3276,1.4177,28.5365,-44.5632,34,0.1711,9271,3.9776,-15.4509
lg,1625137573172099999,0,0.2947,-1.0964,0.9446,472,-66.3452,-188.0493,28.6865,92,1.3276,1.4157,22.5557,-44.4863,34,0.1701,9781,3.9776,-8.7934
lg,1625137573172118388,0,0.05,-1.0354,0.3599,473,-36.8042,-78.4302,-25.8789,92,1.3266,1.4167,18.745,-46.4415,34,0.1701,11912,3.9776,-7.5704
lg,1625137573172135906,0,-0.0842,-0.9956,0.2864,474,7.3853,-15.9912,-5.4932,92,1.3266,1.4197,17.6729,-47.1336,34,0.1711,9404,3.9776,-7.5879
lg,1625137573172153147,0,0.01,-0.8499,0.5483,475,34.9731,24.6582,5.4932,92,1.3266,1.4207,17.8018,-46.326,34,0.1711,9364,3.9776,-8.3168
lg,1625137573172170851,0,-0.1443,-0.7466,0.5742,476,34.1797,70.7397,0.8545,92,1.3276,1.4217,19.417,-45.8827,34,0.1701,9327,3.9776,-10.5254
lg,1625137573172188999,0,-0.3567,-0.7427,0.5845,477,23.5596,79.6509,-3.1128,92,1.3276,1.4237,21.5762,-46.0546,34,0.1711,9362,3.9776,-13.1438
lg,1625137573172206388,0,-0.5295,-0.7761,0.5337,478,18.0054,61.8896,4.7607,92,1.3296,1.4237,23.726,-46.3685,34,0.1731,9476,3.9776,-15.0698
lg,1625137573172225073,0,-0.4751,-0.7632,0.6741,479,19.4702,44.7998,11.4136,92,1.3306,1.4247,24.9279,-45.7336,34,0.1741,9459,3.9776,-15.2741
lg,1625137573172243869,0,-0.3599,-0.7388,0.731,480,17.8223,3.1128,20.813,92,1.3357,1.4257,24.9727,-44.72,34,0.1741,9454,3.9776,-14.7028
lg,1625137573542001462,0,0.0579,-0.9692,0.6694,481,24.4141,19.8975,-71.9604,92,1.3317,1.4127,22.4511,-45.3334,34,0.1621,26403,3.9776,-17.7224
lg,1625137573542043332,0,-0.2058,-1.0295,0.3682,482,38.6353,104.248,-86.9141,92,1.3236,1.3977,22.4184,-47.0397,34,0.1541,15410,3.9776,-23.9649
lg,1625137573542064406,0,-0.343,-0.7358,0.3181,483,38.6353,91.5527,-40.2832,92,1.3236,1.3917,23.7604,-47.8653,34,0.1551,8838,3.9776,-28.3751
lg,1625137573542084591,0,-0.5549,-0.728,0.469,484,-3.3569,96.3745,36.1328,92,1.3256,1.3867,27.7265,-49.2679,34,0.1601,8792,3.9776,-30.6727
lg,1625137573542103628,0,-0.8425,-0.8115,0.6575,485,-29.7241,41.3818,62.561,92,1.3306,1.3897,31.1257,-50.305,34,0.1611,8834,3.9776,-30.305
lg,1625137573542122166,0,-0.906,-0.7754,0.5811,486,-33.1421,-11.7188,84.6558,92,1.3347,1.3977,32.8143,-48.6424,34,0.1641,8865,3.9776,-24.6745
lg,1625137573542141258,0,-0.7893,-0.615,0.5566,487,-36.7432,-118.5303,101.5625,92,1.3296,1.4077,31.9098,-45.9373,34,0.1621,10191,3.9776,-15.7028
lg,1625137573542159851,0,-0.3752,-0.8083,0.5327,488,-92.7124,-279.2969,125.4883,92,1.3236,1.4107,27.1646,-43.6072,34,0.1611,8318,3.9776,-2.8351
lg,1625137573542178295,0,0.521,-0.9272,0.408,489,-67.627,-324.585,55.603,92,1.3216,1.4087,17.5227,-42.8256,34,0.1571,10375,3.9776,8.083
lg,1625137573542196332,0,0.6333,-1.1548,0.6055,490,-89.9048,-268.2495,29.4189,92,1.3206,1.4077,10.7622,-45.0154,34,0.1541,7981,3.9776,14.5956
lg,1625137573542214795,0,0.7017,-1.157,0.3054,491,-38.8184,-91.0034,8.4229,92,1.3206,1.4077,7.0438,-47.0944,34,0.1531,8768,3.9776,17.3253
lg,1625137573542249258,0,0.1018,-1.1794,0.5208,492,18.4937,116.0889,-1.8921,92,1.3206,1.4097,9.6733,-47.6032,34,0.1541,8768,3.9776,13.7253
lg,1625137573542269091,0,0.0161,-0.7874,0.5396,493,52.3682,141.3574,5.7983,92,1.3216,1.4117,13.2481,-46.6332,34,0.1551,8516,3.9776,9.5949
lg,1625137573542287295,0,-0.0999,-0.665,0.4766,494,47.4854,150.7568,-5.249,92,1.3226,1.4147,17.2868,-46.8586,34,0.1571,8278,3.9776,4.4119
lg,1625137573542305351,0,-0.365,-0.7314,0.5073,495,26.123,153.2593,-14.2212,92,1.3236,1.4137,21.1934,-47.8404,34,0.1581,8861,3.9776,-0.8734
lg,1625137573542323128,0,-0.54,-0.8118,0.5049,496,20.6299,115.1123,-19.4092,92,1.3266,1.4177,23.9778,-49.0394,34,0.1571,8093,3.9776,-5.3077
lg,1625137573542341462,0,-0.5442,-0.7917,0.6003,497,22.3389,85.5713,-19.8364,92,1.3306,1.4187,25.0718,-49.1391,34,0.1581,8148,3.9776,-7.6885
lg,1625137573542360795,0,-0.4326,-0.769,0.6667,498,28.0762,26.001,-13.6719,92,1.3367,1.4167,25.2535,-48.5414,34,0.1591,8120,3.9776,-8.9471
lg,1625137573542379091,0,-0.2595,-0.7324,0.5647,499,27.2217,-17.5781,-18.3716,92,1.3397,1.4177,23.8607,-47.5901,34,0.1571,8580,3.9776,-8.9767
lg,1625137573542397628,0,-0.1599,-0.8481,0.5981,500,16.2964,-23.8647,-26.123,92,1.3397,1.4157,21.8619,-47.237,34,0.1561,8576,3.9776,-9.1005
lg,1625137573542417832,0,-0.136,-0.8926,0.5315,501,16.1133,-15.686,-23.5596,92,1.3377,1.4147,20.592,-47.2309,34,0.1561,8960,3.9776,-9.7608
lg,1625137573542436610,0,-0.1201,-0.9382,0.501,502,19.6533,11.9629,-14.1602,92,1.3357,1.4127,19.9647,-47.3176,34,0.1551,8246,3.9776,-10.7584
lg,1625137573542455128,0,-0.3174,-0.8721,0.3901,503,5.9814,32.6538,6.2256,92,1.3387,1.4137,20.9905,-48.0992,34,0.1601,8266,3.9776,-11.8624
lg,1625137573542474240,0,-0.4502,-0.907,0.5581,504,-23.4375,23.9868,64.1479,92,1.3437,1.4167,23.6232,-49.0246,35,0.1631,8327,3.9776,-10.9539
lg,1625137573542492480,0,-0.5088,-0.832,0.5876,505,-31.311,5.9204,80.8105,92,1.3427,1.4227,26.3361,-49.5862,35,0.1641,8726,3.9776,-8.9203
lg,1625137573542511777,0,-0.6753,-0.7141,0.519,506,-31.189,-44.0063,98.999,92,1.3327,1.4267,28.6234,-48.931,35,0.1631,9084,3.9776,-4.569
lg,1625137573542549925,0,-0.0369,-0.4685,0.7659,507,6.0425,-120.7886,72.4487,92,1.3286,1.4167,26.4966,-45.0449,35,0.1611,9115,3.9776,1.9876
lg,1625137573542571073,0,0.1138,-0.887,0.9802,508,-72.6318,-171.1426,4.9438,92,1.3286,1.4127,20.6787,-45.6186,34,0.1581,10878,3.9776,7.5216
lg,1625137573542588740,0,-0.1584,-1.0461,0.2568,509,-51.6968,-90.332,-35.0952,92,1.3286,1.4147,16.8172,-48.3014,34,0.1571,8453,3.9776,8.8893
lg,1625137573542608888,0,-0.0764,-1.1599,0.6335,510,10.9253,-14.0991,5.4321,92,1.3286,1.4157,16.0896,-48.2212,34,0.1571,8499,3.9776,9.3257
lg,1625137573542625999,0,0.0757,-1.0088,0.6648,511,24.231,-1.5869,18.7378,92,1.3276,1.4187,15.6939,-47.329,34,0.1571,9034,3.9776,9.8234
lg,1625137573542644073,0,0.0955,-0.8018,0.6714,512,29.0527,51.8799,-4.2114,92,1.3266,1.4207,16.1633,-46.7387,34,0.1581,8610,3.9776,8.0873
lg,1625137573916965628,0,-0.3481,-0.9341,0.45,513,6.2256,78.4302,-54.4434,92,1.3337,1.4257,16.7813,-48.2774,35,0.1571,25472,3.9776,3.9517
lg,1625137573916994388,0,-0.397,-0.917,0.4492,514,27.6489,27.9541,-39.978,92,1.3407,1.4227,16.5229,-48.3272,35,0.1581,15106,3.9776,1.8012
lg,1625137573917014332,0,-0.1819,-0.7119,0.4529,515,45.5322,-10.9253,-33.02,92,1.3437,1.4187,14.6798,-46.4474,35,0.1571,7924,3.9776,1.9792
lg,1625137573917033147,0,-0.095,-0.6775,0.4683,516,44.4336,-31.3721,-20.0195,92,1.3427,1.4117,12.9215,-44.9402,35,0.1581,7909,3.9776,2.2377
lg,1625137573917051110,0,-0.0327,-0.7771,0.47,517,26.123,-18.1274,-5.5542,92,1.3397,1.4067,11.8375,-44.369,34,0.1561,7986,3.9776,2.4728
lg,1625137573917069276,0,-0.0535,-0.8088,0.4119,518,21.4844,-2.6855,7.6904,92,1.3397,1.4037,13.0857,-44.6421,34,0.1571,7957,3.9776,2.2981
lg,1625137573917087388,0,-0.2244,-0.9138,0.6272,519,-0.8545,52.4292,49.8047,92,1.3427,1.4037,15.9939,-44.9123,34,0.1621,9435,3.9776,2.1755
lg,1625137573917105313,0,-0.4094,-0.9253,0.8015,520,-23.0713,54.9927,89.5386,92,1.3447,1.4047,20.1681,-45.6742,34,0.1631,8083,3.9776,3.1268
lg,1625137573917122758,0,-0.4851,-0.738,0.574,521,-31.1279,-7.2632,102.8442,92,1.3457,1.4127,23.1973,-45.9239,34,0.1651,8019,3.9776,6.3484
lg,1625137573917158536,0,-0.5784,-0.6914,0.5637,522,-39.2456,-23.8647,108.6426,92,1.3357,1.4177,26.0374,-45.9547,34,0.1641,8039,3.9776,10.3544
lg,1625137573917177573,0,-0.3005,-0.5999,1.2373,523,-39.4897,-76.2939,125.1831,92,1.3317,1.4177,26.9294,-43.8253,34,0.1641,8036,3.9776,17.0908
lg,1625137573917195091,0,-0.1648,-0.8604,0.9473,524,-67.688,-158.2031,56.9458,92,1.3296,1.4197,23.1956,-43.6291,34,0.1641,8111,3.9776,23.7728
lg,1625137573917222202,0,0.2622,-1.0293,0.6528,525,-55.1758,-190.918,15.8691,92,1.3296,1.4207,16.8894,-44.2889,34,0.1611,11124,3.9776,29.685
lg,1625137573917240739,0,0.2383,-1.082,0.5525,526,-55.9692,-122.5586,-10.0708,92,1.3296,1.4217,13.8393,-46.8301,34,0.1611,8158,3.9776,30.4467
lg,1625137573917257962,0,0.1528,-1.0742,0.2917,527,-19.4092,-17.2729,-13.6719,92,1.3296,1.4217,12.1916,-48.6434,34,0.1631,8583,3.9776,30.3481
lg,1625137573917277425,0,0.0654,-1.0073,0.416,528,18.7378,64.9414,-8.606,92,1.3296,1.4247,13.0401,-49.1277,34,0.1641,8180,3.9776,27.9497
lg,1625137573917294628,0,-0.1797,-0.8508,0.425,529,31.25,111.6943,-19.4702,92,1.3317,1.4257,15.2654,-49.4212,34,0.1651,8276,3.9776,23.8023
lg,1625137573917311888,0,-0.2622,-0.8074,0.45,530,34.5459,104.4922,-19.5923,92,1.3327,1.4267,17.3969,-49.5643,34,0.1651,8223,3.9776,19.8388
lg,1625137573917328499,0,-0.3076,-0.7878,0.4543,531,29.48,61.0352,-19.3481,92,1.3327,1.4277,18.4391,-49.5507,34,0.1651,8636,3.9776,17.2353
lg,1625137573917345536,0,-0.3333,-0.7749,0.3955,532,26.7334,19.8975,-12.3901,90,1.3367,1.4277,18.6014,-48.8905,34,0.1671,8247,3.9798,16.8264
lg,1625137573917362369,0,-0.2524,-0.7607,0.5862,533,27.3438,11.2915,10.5591,90,1.3397,1.4277,19.0588,-47.9486,34,0.1681,9028,3.9798,16.7206
lg,1625137573917379443,0,-0.1392,-0.7446,0.6743,534,27.71,10.5591,20.2026,90,1.3437,1.4277,19.4929,-46.7451,34,0.1681,8836,3.9798,16.9686
lg,1625137573917396184,0,-0.1826,-0.8215,0.679,535,21.3013,14.4043,6.0425,90,1.3457,1.4257,19.6742,-46.1264,34,0.1671,9006,3.9798,16.6501
lg,1625137573917412832,0,-0.1611,-0.918,0.7864,536,21.3623,19.7754,9.3384,90,1.3447,1.4237,20.0119,-45.5117,35,0.1641,8263,3.9798,16.2749
lg,1625137573917429221,0,-0.0225,-0.8711,0.7317,537,24.0479,11.5356,-5.3101,90,1.3417,1.4197,19.4481,-44.9017,35,0.1611,8796,3.9798,15.7007
lg,1625137573917445943,0,0.0132,-0.8359,0.5898,538,20.6909,13.4277,-14.8926,90,1.3387,1.4167,18.8483,-45.0323,35,0.1571,9700,3.9798,14.2849
lg,1625137573917462684,0,0.0081,-0.8899,0.5759,539,15.9912,49.6826,-14.8926,90,1.3357,1.4127,19.0767,-45.5147,35,0.1561,8763,3.9798,12.1871
lg,1625137573917479350,0,-0.1238,-0.9104,0.4438,540,18.5547,94.7876,-5.249,90,1.3347,1.4107,21.0954,-46.5765,34,0.1551,9125,3.9798,8.8747
lg,1625137573917495813,0,-0.3474,-0.825,0.4897,541,15.3198,103.0273,0.3052,90,1.3357,1.4087,23.8528,-47.7107,34,0.1571,9160,3.9798,5.4259
lg,1625137573917522239,0,-0.543,-0.834,0.6033,542,-7.9346,79.3457,34.6069,90,1.3387,1.4067,27.1339,-48.957,34,0.1601,8807,3.9798,3.7107
lg,1625137573917539406,0,-0.7168,-0.8408,0.6204,543,-19.8975,49.9268,48.7671,90,1.3427,1.4087,29.8406,-49.6419,34,0.1611,8579,3.9798,4.9812
lg,1625137573917556258,0,-0.8188,-0.748,0.6191,544,-35.2173,-12.9395,80.5054,90,1.3427,1.4167,31.7772,-48.9853,34,0.1621,10179,3.9798,9.2332
lg,1625137574281207128,0,0.2104,-0.6147,0.8389,545,-54.3823,-252.4414,85.3882,90,1.3246,1.4157,24.4818,-48.0128,34,0.1541,26623,3.9798,17.7105
lg,1625137574281244758,0,0.3418,-1.1848,0.6599,546,-64.4531,-143.3716,11.2915,90,1.3196,1.4147,20.041,-49.8172,34,0.1511,13175,3.9798,22.245
lg,1625137574281265665,0,-0.0625,-1.178,0.3762,547,-10.0098,3.6621,3.0518,90,1.3166,1.4147,19.6094,-51.1366,34,0.1501,8120,3.9798,21.8986
lg,1625137574281284961,0,0.0923,-0.8792,0.5618,548,37.2925,38.6353,34.79,90,1.3146,1.4147,20.7108,-50.0186,34,0.1501,7957,3.9798,21.4645
lg,1625137574281303813,0,0.041,-0.7197,0.499,549,36.0718,62.7441,25.0854,90,1.3126,1.4147,22.1859,-49.29,34,0.1511,7968,3.9798,20.0162
lg,1625137574281321961,0,-0.2397,-0.7341,0.5139,550,16.1743,83.9844,19.5923,90,1.3116,1.4167,24.6592,-49.7581,34,0.1521,7945,3.9798,17.6912
lg,1625137574281340647,0,-0.3206,-0.8127,0.5625,551,14.7705,59.4482,25.3906,90,1.3106,1.4187,26.6895,-49.948,34,0.1541,10580,3.9798,16.3005
lg,1625137574281359147,0,-0.2551,-0.7373,0.5779,552,16.4795,32.8369,23.3154,90,1.3106,1.4207,27.7867,-49.5691,35,0.1551,8480,3.9798,15.8101
lg,1625137574281376924,0,-0.2112,-0.7839,0.6082,553,11.7798,27.6489,18.6768,90,1.3126,1.4227,28.4452,-49.3927,35,0.1551,11846,3.9798,15.352
lg,1625137574281394332,0,-0.1345,-0.8928,0.7761,554,10.6201,31.0059,13.7939,90,1.3156,1.4227,28.8111,-49.2572,35,0.1561,8053,3.9798,14.697
lg,1625137574281412110,0,-0.0793,-0.9255,0.8508,555,12.5732,36.377,1.77,90,1.3216,1.4227,28.7278,-49.1816,35,0.1551,8036,3.9798,13.5607
lg,1625137574281429591,0,0.0437,-0.8772,0.7197,556,33.8745,52.4292,-29.48,90,1.3256,1.4207,28.026,-49.1601,35,0.1521,8049,3.9798,10.8487
lg,1625137574281447387,0,-0.0603,-0.9429,0.606,557,24.6582,92.1631,-71.5942,90,1.3226,1.4157,27.2272,-50.9645,35,0.1491,8095,3.9798,5.4304
lg,1625137574281465702,0,-0.1643,-0.9788,0.564,558,26.4893,112.4268,-78.6133,90,1.3196,1.4097,27.3566,-53.461,35,0.1481,8784,3.9798,-1.6045
lg,1625137574281522147,0,-0.332,-1.0234,0.3918,559,35.5225,142.8223,-72.937,90,1.3186,1.4057,27.8599,-56.0137,35,0.1461,8514,3.9798,-9.0623
lg,1625137574281546073,0,-0.4861,-0.8669,0.2295,560,45.8374,119.0796,-61.4624,90,1.3186,1.4027,28.4466,-57.776,34,0.1491,8613,3.9798,-15.4586
lg,1625137574281564943,0,-0.5916,-0.6228,0.4568,561,11.7188,67.4438,-9.3994,90,1.3206,1.3997,29.8889,-58.5428,34,0.1531,8182,3.9798,-18.2421
lg,1625137574281585295,0,-0.6357,-0.7544,0.4167,562,-29.6021,11.9629,69.2139,90,1.3236,1.4027,32.7488,-59.1815,34,0.1521,8404,3.9798,-17.0963
lg,1625137574281605239,0,-0.73,-0.8159,0.5156,563,-47.1191,-11.8408,78.4302,90,1.3276,1.4097,35.368,-59.6317,34,0.1511,8276,3.9798,-14.646
lg,1625137574281627887,0,-0.9893,-0.8652,0.5806,564,-34.9121,-75.6226,80.3223,90,1.3276,1.4147,36.8657,-57.7667,34,0.1541,8404,3.9798,-9.2895
lg,1625137574281648628,0,-0.8203,-0.7002,0.5488,565,-47.9126,-206.9702,117.4927,90,1.3186,1.4187,36.2449,-52.4008,34,0.1521,8988,3.9798,2.6655
lg,1625137574281668091,0,-0.1313,-0.5703,0.8364,566,-68.1152,-295.4712,126.1597,90,1.3136,1.4167,31.3507,-46.0966,34,0.1541,8992,3.9798,17.8122
lg,1625137574281686461,0,0.3323,-0.9529,0.4524,567,-53.3447,-319.1528,87.8906,90,1.3136,1.4147,22.15,-44.6804,34,0.1501,9027,3.9798,28.8937
lg,1625137574281707369,0,0.5786,-1.145,0.7039,568,-103.3936,-291.5649,27.4048,90,1.3136,1.4157,13.2267,-46.4067,34,0.1491,8681,3.9798,38.2303
lg,1625137574281725721,0,0.6211,-1.3298,0.3943,569,-47.3022,-115.1733,3.2959,90,1.3106,1.4187,8.8944,-48.5412,34,0.1501,8751,3.9798,41.5868
lg,1625137574281744813,0,0.6472,-1.1646,0.4924,570,33.3862,34.3018,18.7988,90,1.3136,1.4207,9.0432,-47.9353,34,0.1521,8353,3.9798,40.9433
lg,1625137574281762776,0,0.2925,-0.8167,0.5103,571,64.0259,152.2217,-10.0708,90,1.3146,1.4227,11.8633,-46.6348,35,0.1551,9105,3.9798,36.0376
lg,1625137574281785721,0,-0.0076,-0.7522,0.4482,572,61.5845,203.3081,-22.1558,90,1.3166,1.4237,16.9817,-46.3026,35,0.1561,9083,3.9798,29.229
lg,1625137574281803498,0,-0.446,-0.7422,0.4822,573,47.9736,211.792,-26.1841,90,1.3196,1.4247,22.3718,-47.2456,35,0.1561,9184,3.9798,21.7956
lg,1625137574281822461,0,-0.6943,-0.696,0.4761,574,49.8047,139.4043,-21.0571,90,1.3266,1.4247,26.1625,-47.6343,35,0.1571,9162,3.9798,16.5542
lg,1625137574281842739,0,-0.6062,-0.5845,0.6304,575,38.3911,63.4155,-9.1553,90,1.3317,1.4227,27.9537,-46.9958,34,0.1581,9220,3.9798,14.2618
lg,1625137574281860869,0,-0.5066,-0.7102,0.5957,576,5.127,2.6245,7.6904,90,1.3337,1.4197,28.2718,-46.8262,34,0.1571,8835,3.9798,14.3622
lg,1625137574662572517,0,-0.2273,-1.0249,0.6357,577,-9.0942,-28.6865,21.2402,90,1.3387,1.4197,27.5471,-47.224,34,0.1631,26888,3.9798,15.6894
lg,1625137574662611054,0,-0.2817,-0.9258,0.5073,578,-42.4194,-40.5273,56.6406,90,1.3407,1.4267,27.661,-48.0779,34,0.1641,17602,3.9798,18.4917
lg,1625137574662632202,0,-0.2693,-0.7107,0.4846,579,-25.2686,-56.5186,52.1851,90,1.3367,1.4307,27.3023,-47.7957,34,0.1621,7921,3.9798,21.8141
lg,1625137574662676850,0,-0.3003,-0.7141,0.4956,580,-23.3765,-55.7861,50.7812,90,1.3327,1.4317,26.9847,-47.4797,35,0.1631,8154,3.9798,25.0667
lg,1625137574662697461,0,-0.1423,-0.6792,0.4656,581,-26.4893,-86.731,41.4429,90,1.3306,1.4307,25.1985,-47.0745,35,0.1631,8162,3.9798,29.003
lg,1625137574662715850,0,-0.4268,-0.9585,0.52,582,-23.9258,-48.3398,20.874,90,1.3317,1.4307,24.3816,-47.6788,35,0.1631,8001,3.9798,30.9524
lg,1625137574662733998,0,-0.2634,-0.9177,0.4944,583,-6.4087,-47.1802,29.1138,90,1.3317,1.4317,22.963,-46.8178,35,0.1621,8306,3.9798,33.8616
lg,1625137574662753276,0,-0.0359,-0.886,0.603,584,5.0049,-94.8486,25.2075,90,1.3337,1.4337,20.2745,-45.6261,34,0.1631,8022,3.9798,37.4082
lg,1625137574662772072,0,0.3828,-0.9131,0.5869,585,1.8921,-93.5059,10.6201,90,1.3357,1.4347,16.5267,-45.0144,34,0.1641,8061,3.9798,40.3636
lg,1625137574662790906,0,0.4497,-0.9592,0.49,586,4.6997,-54.5044,1.9531,90,1.3387,1.4347,14.6246,-45.0055,34,0.1671,8038,3.9798,40.4393
lg,1625137574662809850,0,0.2959,-0.9436,0.5,587,29.7852,32.6538,-6.958,90,1.3397,1.4337,14.2308,-44.7609,34,0.1681,8018,3.9798,39.1102
lg,1625137574662827998,0,-0.1702,-0.8452,0.5735,588,27.71,120.9717,14.6484,90,1.3387,1.4347,17.8691,-44.9555,35,0.1661,8072,3.9798,35.874
lg,1625137574662846294,0,-0.4951,-0.8396,0.6309,589,8.4839,152.6489,44.8608,90,1.3337,1.4387,23.6423,-45.5514,35,0.1641,8115,3.9798,32.6463
lg,1625137574662864646,0,-0.5525,-0.6272,0.9724,590,37.5977,113.1592,62.561,90,1.3317,1.4367,28.6739,-44.2359,35,0.1601,8105,3.9798,31.2572
lg,1625137574662883350,0,-0.8013,-0.5432,0.792,591,-19.3481,14.3433,14.5264,90,1.3266,1.4277,29.9321,-44.6494,35,0.1591,8476,3.9798,31.439
lg,1625137574662901850,0,-0.7686,-0.6765,0.5508,592,-19.104,-51.0864,10.5591,90,1.3246,1.4207,28.5846,-45.092,34,0.1541,8566,3.9798,33.7091
lg,1625137574662919683,0,-0.8225,-0.8479,0.5605,593,-49.0112,-73.7915,13.5498,90,1.3246,1.4167,27.3381,-46.1106,34,0.1521,8213,3.9798,36.344
lg,1625137574662937387,0,-0.3628,-0.9592,0.6782,594,-29.6021,-119.9951,42.7856,90,1.3246,1.4177,24.8405,-45.3713,34,0.1491,8616,3.9798,41.3423
lg,1625137574662955943,0,0.2451,-0.8733,0.5564,595,-35.6445,-157.959,25.6958,90,1.3246,1.4177,19.7688,-45.1477,35,0.1491,8612,3.9798,46.765
lg,1625137574662986165,0,0.439,-1.0378,0.5366,596,-38.147,-51.8799,9.6436,90,1.3246,1.4187,17.1705,-46.739,35,0.1501,9951,3.9798,48.4143
lg,1625137574663005943,0,0.2368,-1.0981,0.4993,597,-11.4746,50.5981,-8.7891,90,1.3256,1.4217,17.221,-48.4712,35,0.1501,10516,3.9798,46.3915
lg,1625137574663023554,0,-0.0056,-1.0447,0.4712,598,10.9253,114.1357,-24.9634,90,1.3256,1.4247,18.7859,-50.068,35,0.1521,13597,3.9798,41.863
lg,1625137574663041609,0,-0.1831,-0.9517,0.3953,599,15.0757,127.8687,-41.8701,90,1.3266,1.4277,20.362,-51.9535,35,0.1531,9076,3.9798,36.2998
lg,1625137574663062443,0,-0.3564,-0.9468,0.3096,600,13.3667,105.6519,-47.6685,90,1.3296,1.4297,21.3794,-53.9166,35,0.1521,9035,3.9798,31.1883
lg,1625137574663080461,0,-0.311,-0.9265,0.4189,601,33.2031,62.6221,-39.4287,90,1.3276,1.4297,21.4012,-54.2133,35,0.1501,9066,3.9798,27.8447
lg,1625137574663098554,0,-0.2024,-0.8865,0.4673,602,46.6919,24.5361,-61.8286,90,1.3216,1.4257,19.5921,-53.5113,34,0.1481,8749,3.9798,25.3253
lg,1625137574663116072,0,-0.1406,-0.8574,0.3726,603,53.894,1.5259,-66.1011,90,1.3156,1.4207,16.94,-51.8829,34,0.1461,8871,3.9798,24.1139
lg,1625137574663134332,0,-0.0605,-0.7397,0.3037,604,65.8569,-1.4648,-39.6729,90,1.3116,1.4147,15.2006,-50.1611,34,0.1461,9071,3.9798,22.9328
lg,1625137574663151665,0,-0.1179,-0.6182,0.3013,605,52.6733,74.0356,7.3242,90,1.3116,1.4117,17.1245,-49.2066,34,0.1451,9130,3.9798,20.6266
lg,1625137574663169906,0,-0.3657,-0.6821,0.5588,606,13.6719,128.9673,39.1846,90,1.3136,1.4097,21.8501,-49.7343,34,0.1501,8409,3.9798,17.5229
lg,1625137574663188424,0,-0.76,-0.9255,0.6882,607,-17.5781,104.0039,70.4346,90,1.3186,1.4087,27.093,-51.2029,34,0.1531,9207,3.9798,15.903
lg,1625137574663207183,0,-0.9285,-0.7852,0.5774,608,-26.3062,51.5747,84.4116,90,1.3236,1.4097,30.6968,-51.1382,34,0.1531,9216,3.9798,18.8889
lg,1625137575025933667,0,-0.7034,-0.6155,0.6204,609,-62.0728,-160.1562,167.8467,90,1.3096,1.4177,30.9866,-47.4062,35,0.1521,25537,3.9798,29.9682
lg,1625137575026027589,0,0.1406,-0.7122,0.9238,610,-71.0449,-283.2031,113.4033,90,1.3056,1.4157,24.9728,-43.8353,35,0.1531,8967,3.9798,42.8745
lg,1625137575026059261,0,0.5781,-1.3352,0.6509,611,-76.4771,-203.186,19.6533,90,1.3056,1.4177,18.1736,-45.1691,35,0.1531,10706,3.9798,49.2859
lg,1625137575026138320,0,0.4116,-1.167,0.2847,612,-25.3906,-33.8745,-12.9395,90,1.3066,1.4187,15.5848,-47.1321,35,0.1541,8131,3.9798,49.5938
lg,1625137575026169380,0,0.2803,-0.9744,0.3474,613,22.522,56.9458,-9.8267,90,1.3066,1.4207,15.7103,-47.6673,35,0.1541,8947,3.9798,47.3344
lg,1625137575026198365,0,0.1663,-0.8855,0.3369,614,32.2266,97.9614,-11.9019,90,1.3076,1.4217,17.0217,-48.1736,35,0.1561,7870,3.9798,43.7365
lg,1625137575026243584,0,-0.2473,-0.8347,0.3235,615,38.5742,164.5508,-19.7754,90,1.3086,1.4237,20.71,-49.311,34,0.1561,9059,3.9798,37.7139
lg,1625137575026272642,0,-0.4714,-0.7732,0.4338,616,49.3774,142.5781,-13.7329,90,1.3106,1.4247,24.2647,-49.703,34,0.1571,8574,3.9798,32.478
lg,1625137575026299255,0,-0.4954,-0.729,0.4792,617,47.3633,115.7227,-13.7939,90,1.3136,1.4267,27.1364,-49.8737,34,0.1561,7997,3.9798,28.0753
lg,1625137575026325663,0,-0.5205,-0.7034,0.5366,618,36.377,58.3496,-8.1787,90,1.3166,1.4257,28.5112,-49.57,35,0.1581,8104,3.9798,25.7742
lg,1625137575026353795,0,-0.3713,-0.761,0.6365,619,27.832,7.1411,2.8076,90,1.3216,1.4267,27.9084,-48.5536,35,0.1591,12852,3.9798,26.244
lg,1625137575026382076,0,-0.3447,-0.8042,0.6309,620,12.207,-22.9492,4.0894,90,1.3246,1.4257,27.0523,-47.7831,35,0.1621,8087,3.9798,27.0761
lg,1625137575026409744,0,-0.3818,-0.9348,0.6003,621,-17.395,-26.7334,24.1699,90,1.3256,1.4277,26.7456,-48.1298,35,0.1631,8108,3.9798,28.5175
lg,1625137575026437228,0,-0.3687,-0.8843,0.7349,622,-6.4087,-30.1514,43.7622,90,1.3246,1.4307,26.8762,-47.4169,34,0.1641,9570,3.9798,30.798
lg,1625137575026464619,0,-0.2817,-0.7678,0.7002,623,-0.3662,-37.4756,48.3398,90,1.3236,1.4327,26.7311,-46.225,34,0.1641,8116,3.9798,33.4925
lg,1625137575026491954,0,-0.1821,-0.739,0.6636,624,-16.5405,-47.9126,33.6304,90,1.3236,1.4337,25.6144,-46.1964,34,0.1641,10165,3.9798,35.8439
lg,1625137575026519734,0,-0.1702,-0.9341,0.5503,625,-20.3247,-41.5039,26.9165,90,1.3226,1.4337,24.6238,-46.6524,34,0.1651,8179,3.9798,37.752
lg,1625137575026546013,0,-0.2131,-0.9692,0.5999,626,-2.6855,-9.1553,25.3296,90,1.3236,1.4347,24.5738,-46.8008,34,0.1651,8154,3.9798,38.6056
lg,1625137575026574460,0,-0.2285,-0.8828,0.5537,627,6.4697,11.3525,21.7896,90,1.3256,1.4357,25.0405,-46.7279,34,0.1671,8237,3.9798,38.6458
lg,1625137575026601850,0,-0.1357,-0.8042,0.6372,628,9.9487,-1.0986,13.7329,90,1.3276,1.4367,24.7241,-46.3413,34,0.1671,8211,3.9798,39.0077
lg,1625137575026629352,0,0.0049,-0.8401,0.6499,629,3.9062,-28.0151,-17.334,90,1.3296,1.4357,22.4958,-46.286,34,0.1661,8232,3.9798,39.2674
lg,1625137575026656465,0,-0.0425,-0.938,0.4724,630,1.6479,-22.4609,-32.5928,90,1.3327,1.4347,20.2227,-47.1273,34,0.1631,8383,3.9798,38.0823
lg,1625137575026715769,0,-0.0439,-0.9692,0.4604,631,13.6719,-2.6245,-44.4336,90,1.3327,1.4317,18.4318,-47.3921,34,0.1611,9364,3.9798,36.3645
lg,1625137575026757188,0,-0.064,-0.8735,0.3313,632,37.1704,8.4839,-42.3584,90,1.3337,1.4307,16.895,-47.2298,34,0.1611,9036,3.9798,34.6189
lg,1625137575026783782,0,-0.188,-0.7722,0.373,633,16.1133,48.4619,-10.8032,90,1.3367,1.4307,17.7213,-47.7917,34,0.1661,8414,3.9798,32.6176
lg,1625137575026812229,0,-0.4939,-0.8901,0.5891,634,-24.231,79.6509,47.4243,90,1.3407,1.4347,21.5146,-49.4856,34,0.1691,8390,3.9798,31.298
lg,1625137575026838935,0,-0.6833,-0.8994,0.6272,635,-28.9307,81.2988,75.0732,90,1.3357,1.4387,26.4625,-51.0371,34,0.1661,8407,3.9798,30.5914
lg,1625137575026868290,0,-0.843,-0.7522,0.6904,636,-4.9438,21.6064,83.7402,90,1.3286,1.4397,30.0995,-50.3111,34,0.1671,8405,3.9798,32.2993
lg,1625137575026897793,0,-0.3586,-0.375,0.7268,637,-2.3804,-114.563,47.3633,90,1.3246,1.4347,28.3197,-46.8356,34,0.1671,8541,3.9798,38.1506
lg,1625137575026924109,0,-0.1279,-0.8999,0.7922,638,-76.0498,-178.3447,13.3667,90,1.3246,1.4327,23.0262,-47.2503,35,0.1651,8862,3.9798,44.3226
lg,1625137575026951852,0,-0.0251,-0.9819,0.4421,639,-68.3594,-181.5796,-4.1504,90,1.3236,1.4297,17.2495,-48.866,35,0.1631,8499,3.9798,49.6439
lg,1625137575026982208,0,0.0291,-1.1931,0.5273,640,-46.5698,-98.2666,-17.8223,90,1.3236,1.4297,13.4885,-50.7066,35,0.1611,8559,3.9798,52.0906
lg,1625137575391570730,0,-0.1396,-0.7808,0.3113,641,21.4844,61.0352,-5.3711,90,1.3216,1.4307,14.7122,-51.0451,34,0.1621,26323,3.9798,49.8331
lg,1625137575391611223,0,-0.2415,-0.8088,0.4653,642,16.6016,75.4395,10.498,90,1.3216,1.4327,17.0417,-51.3345,34,0.1651,11839,3.9798,47.5644
lg,1625137575391631831,0,-0.2561,-0.8608,0.541,643,14.7095,41.0767,11.7188,95,1.3226,1.4347,17.7772,-51.0497,34,0.1661,10591,3.9776,47.1993
lg,1625137575391651439,0,-0.1833,-0.8508,0.5269,644,16.2354,4.0894,11.1694,95,1.3246,1.4367,17.9352,-50.6333,34,0.1651,8239,3.9776,47.2729
lg,1625137575391670768,0,-0.082,-0.8506,0.522,645,18.2495,-5.188,9.0332,95,1.3266,1.4367,17.5653,-50.0924,34,0.1651,7969,3.9776,47.5818
lg,1625137575391689615,0,-0.052,-0.8523,0.5803,646,19.4702,3.2959,10.498,95,1.3306,1.4367,17.472,-49.2931,34,0.1651,7978,3.9776,47.2754
lg,1625137575391708370,0,0.0574,-0.9199,0.8276,647,29.7241,21.1182,-1.5259,95,1.3357,1.4337,17.1953,-48.2561,34,0.1631,8014,3.9776,46.5763
lg,1625137575391763837,0,0.1838,-0.8545,0.7163,648,38.8184,32.5928,-46.6919,95,1.3347,1.4277,15.664,-47.4262,34,0.1571,8538,3.9776,44.2347
lg,1625137575391786632,0,0.0549,-0.9841,0.6157,649,29.8462,88.562,-97.9614,95,1.3266,1.4147,14.4246,-48.0677,34,0.1541,9085,3.9776,38.6842
lg,1625137575391805072,0,-0.0771,-1.0796,0.5354,650,34.1187,127.5024,-112.5488,95,1.3216,1.4017,14.2827,-49.2478,34,0.1481,8149,3.9776,31.4699
lg,1625137575391824901,0,-0.3713,-1.0183,0.2864,651,54.4434,156.3721,-101.0132,95,1.3176,1.3897,15.4813,-49.9706,34,0.1451,8146,3.9776,23.6071
lg,1625137575391843841,0,-0.4524,-0.6467,0.3103,652,68.5425,124.0845,-29.2969,95,1.3196,1.3817,18.4554,-49.1054,34,0.1441,8142,3.9776,18.7365
lg,1625137575391862448,0,-0.4719,-0.4995,0.3442,653,53.1006,120.4224,10.3149,95,1.3216,1.3777,22.8677,-48.504,34,0.1481,8115,3.9776,15.0722
lg,1625137575391880609,0,-0.5935,-0.6611,0.5166,654,-14.5874,97.7173,56.1523,95,1.3206,1.3757,27.5804,-49.9051,34,0.1511,8187,3.9776,13.3608
lg,1625137575391898030,0,-0.7913,-0.9817,0.7429,655,-32.4097,28.4424,67.1387,95,1.3256,1.3777,30.5617,-50.8334,34,0.1531,8126,3.9776,14.2609
lg,1625137575391916377,0,-0.8313,-0.9214,0.5532,656,-31.189,-35.1562,69.7632,95,1.3296,1.3837,32.269,-50.6929,34,0.1511,8171,3.9776,17.4196
lg,1625137575391934464,0,-0.894,-0.7661,0.3574,657,-44.2505,-140.1978,82.1533,95,1.3286,1.3917,31.7641,-48.8806,34,0.1521,8421,3.9776,24.7538
lg,1625137575391951792,0,-0.8652,-0.6987,0.4636,658,-46.5088,-187.3169,137.2681,95,1.3236,1.4007,31.2758,-45.2929,34,0.1531,8251,3.9776,35.4726
lg,1625137575391969676,0,-0.4595,-0.7234,0.5039,659,-72.3267,-282.3486,174.5605,95,1.3136,1.4047,27.7615,-41.3032,34,0.1531,8314,3.9776,49.969
lg,1625137575391986892,0,-0.0852,-0.8035,0.5586,660,-89.0503,-338.0127,172.5464,95,1.3096,1.4057,21.0959,-39.0943,34,0.1511,8313,3.9776,64.9714
lg,1625137575392005128,0,0.7986,-1.0649,0.5559,661,-77.8198,-354.6143,91.9189,95,1.3066,1.4047,10.7301,-39.595,34,0.1501,8672,3.9776,76.9273
lg,1625137575392022919,0,1.0046,-1.3149,0.6355,662,-62.561,-145.6909,67.5049,95,1.3086,1.4067,6.5111,-41.9584,34,0.1481,8695,3.9776,82.7235
lg,1625137575392040710,0,0.6211,-1.2236,0.5688,663,-9.5215,22.2778,-6.1646,95,1.3096,1.4097,5.8365,-43.225,35,0.1491,9122,3.9776,81.8515
lg,1625137575392059372,0,0.321,-0.9309,0.4639,664,43.335,140.0757,-7.7515,95,1.3096,1.4127,8.8254,-42.7674,35,0.1501,13847,3.9776,77.6819
lg,1625137575392077942,0,-0.0188,-0.7791,0.4165,665,50.5371,198.9136,-23.6206,95,1.3106,1.4147,13.7097,-42.7162,35,0.1511,9085,3.9776,71.3508
lg,1625137575392095881,0,-0.4229,-0.7798,0.3877,666,44.3726,227.5391,-28.3203,95,1.3126,1.4167,20.0232,-43.844,34,0.1531,8791,3.9776,63.7906
lg,1625137575392113116,0,-0.7393,-0.781,0.4382,667,44.9219,191.7725,-17.5171,95,1.3156,1.4177,25.7459,-45.0754,34,0.1541,9145,3.9776,57.2184
lg,1625137575392130277,0,-0.7769,-0.6785,0.6133,668,48.8281,110.9619,-3.3569,95,1.3206,1.4177,29.3312,-44.8949,34,0.1561,9472,3.9776,53.5285
lg,1625137575392165210,0,-0.5667,-0.6335,0.6689,669,34.9121,9.0332,3.3569,95,1.3286,1.4167,29.7645,-43.5216,34,0.1551,10737,3.9776,53.3836
lg,1625137575392185244,0,-0.3169,-0.7849,0.5691,670,18.4937,-31.9824,1.3428,95,1.3327,1.4157,27.5357,-42.7767,34,0.1551,8875,3.9776,55.0613
lg,1625137575392202924,0,-0.2205,-0.9119,0.5513,671,1.709,-74.2188,-1.8921,95,1.3337,1.4137,24.7285,-42.425,34,0.1571,8487,3.9776,56.9269
lg,1625137575392221141,0,-0.1863,-1.0215,0.415,672,-19.3481,-61.4624,12.2681,95,1.3387,1.4167,22.7612,-43.3426,34,0.1611,8707,3.9776,58.716
lg,1625137575767414676,0,-0.4106,-0.626,0.5139,673,-10.498,-28.5645,80.5664,95,1.3276,1.4257,24.2905,-42.6623,34,0.1611,26161,3.9776,62.0303
lg,1625137575767480800,0,-0.3435,-0.7249,0.9822,674,-17.7002,-57.7393,80.3223,95,1.3256,1.4257,24.3921,-41.3166,35,0.1621,12960,3.9776,66.4551
lg,1625137575767510915,0,0.1624,-1,0.8264,675,-31.0669,-120.7275,20.5078,95,1.3266,1.4267,20.153,-41.3707,35,0.1631,12960,3.9776,70.4156
lg,1625137575767540085,0,0.3247,-0.9475,0.6553,676,-20.1416,-117.7979,-13.4888,95,1.3286,1.4287,15.7065,-42.4133,35,0.1621,7948,3.9776,70.8679
lg,1625137575767568532,0,0.2773,-1.0251,0.4888,677,-5.127,-7.4463,-59.3872,95,1.3317,1.4307,12.7917,-43.8508,35,0.1611,7870,3.9776,69.0747
lg,1625137575767596145,0,0.0691,-1.0779,0.5427,678,21.0571,80.3223,-86.3647,95,1.3357,1.4307,12.0611,-44.8117,35,0.1621,7990,3.9776,64.0816
lg,1625137575767622906,0,-0.0195,-1.0286,0.4724,679,41.3208,110.8398,-94.1772,95,1.3387,1.4277,12.378,-45.4147,34,0.1601,7983,3.9776,57.9418
lg,1625137575767649740,0,-0.2935,-0.8735,0.2358,680,57.4951,126.709,-98.3276,95,1.3397,1.4227,13.3801,-45.6604,34,0.1591,8655,3.9776,51.1765
lg,1625137575767679059,0,-0.4338,-0.688,0.4551,681,79.834,110.6567,-65.918,95,1.3387,1.4167,15.2067,-44.1264,34,0.1591,8556,3.9776,45.9468
lg,1625137575767706616,0,-0.5146,-0.4797,0.4707,682,75.2563,116.8213,-44.0063,95,1.3367,1.4117,18.4721,-43.0272,34,0.1621,7972,3.9776,42.0918
lg,1625137575767733673,0,-0.6399,-0.5334,0.5049,683,22.7051,89.1113,-10.6201,95,1.3397,1.4097,21.6342,-43.2282,34,0.1631,8004,3.9776,39.1295
lg,1625137575767761657,0,-0.8394,-0.9392,0.7896,684,-48.8892,32.8369,43.0908,95,1.3417,1.4157,24.2674,-45.2744,34,0.1691,8057,3.9776,39.3758
lg,1625137575767788325,0,-0.8667,-0.8086,0.4773,685,-41.0767,-98.3887,92.2852,95,1.3367,1.4237,24.8494,-44.8817,34,0.1691,13574,3.9776,45.1283
lg,1625137575767814345,0,-0.752,-0.6653,0.4434,686,-32.5928,-171.875,94.9707,95,1.3296,1.4267,23.3016,-43.1678,35,0.1671,8141,3.9776,53.2193
lg,1625137575767861824,0,-0.1924,-0.6121,0.5281,687,-56.4575,-252.8687,128.2349,95,1.3266,1.4267,18.941,-41.5694,35,0.1671,8136,3.9776,64.4629
lg,1625137575767891569,0,0.3645,-0.8679,0.2878,688,-78.7354,-270.874,84.3506,95,1.3256,1.4257,11.862,-43.0979,35,0.1651,8192,3.9776,74.2471
lg,1625137575767918052,0,0.5659,-1.1448,0.6155,689,-99.6094,-242.3706,62.5,95,1.3256,1.4247,5.4839,-46.4158,35,0.1631,8220,3.9776,82.8214
lg,1625137575767944923,0,0.6704,-1.3494,0.4712,690,-38.7573,-127.8687,17.9443,95,1.3276,1.4257,1.4363,-48.53,34,0.1641,8707,3.9776,87.0231
lg,1625137575767997852,0,0.447,-1.1868,0.5479,691,17.8223,29.2969,3.479,95,1.3256,1.4267,1.5262,-48.4468,34,0.1641,8891,3.9776,86.2174
lg,1625137575768025113,0,0.2051,-0.8789,0.488,692,39.3677,72.937,2.6245,95,1.3266,1.4287,3.6172,-47.2081,34,0.1661,8271,3.9776,83.0615
lg,1625137575768052485,0,0.0569,-0.8115,0.4658,693,46.0815,125,-11.2915,95,1.3266,1.4257,6.4183,-46.2152,34,0.1671,8260,3.9776,79.0575
lg,1625137575768079505,0,-0.188,-0.7771,0.4851,694,41.0156,141.1133,-16.7847,95,1.3296,1.4307,10.0449,-45.6826,34,0.1681,8300,3.9776,74.4337
lg,1625137575768107118,0,-0.3901,-0.7756,0.4753,695,40.5273,133.8501,-15.9912,95,1.3317,1.4307,13.8367,-45.4312,34,0.1681,8364,3.9776,69.9858
lg,1625137575768136863,0,-0.479,-0.7751,0.5383,696,42.9077,123.9014,-11.5356,95,1.3357,1.4287,17.4906,-45.1454,34,0.1701,8339,3.9776,65.9043
lg,1625137575768162067,0,-0.4294,-0.698,0.6641,697,43.396,80.9937,-6.897,95,1.3377,1.4267,19.8385,-44.2883,34,0.1681,8411,3.9776,63.2772
lg,1625137575768190143,0,-0.3904,-0.7356,0.6067,698,27.0386,34.79,-15.3198,95,1.3387,1.4217,20.5007,-43.9582,34,0.1651,8354,3.9776,61.696
lg,1625137575768217497,0,-0.3611,-0.7937,0.6594,699,21.2402,26.4893,-15.9912,95,1.3337,1.4147,20.4009,-43.7437,34,0.1611,8416,3.9776,60.4376
lg,1625137575768391386,0,-0.1772,-0.875,0.791,700,17.9443,14.5264,-21.9116,95,1.3296,1.4047,19.7458,-43.5685,34,0.1581,8476,3.9776,59.2769
lg,1625137575768428784,0,-0.0015,-0.9197,0.6511,701,11.0474,2.3804,-37.7808,95,1.3276,1.4027,18.0153,-43.9764,34,0.1561,8455,3.9776,57.9031
lg,1625137575768455211,0,-0.0286,-1,0.4333,702,9.2773,48.3398,-50.354,95,1.3276,1.4007,17.3674,-45.4021,35,0.1551,8504,3.9776,54.6965
lg,1625137575768482176,0,-0.1294,-0.9822,0.3835,703,5.8594,67.0776,-40.5273,95,1.3276,1.3967,17.8219,-46.8412,35,0.1591,8533,3.9776,51.2778
lg,1625137575768508047,0,-0.4558,-0.7961,0.4902,704,0.7935,82.6416,10.376,95,1.3317,1.4007,20.6781,-47.9846,35,0.1621,11766,3.9776,48.8576
lg,1625137576136665696,0,-0.9094,-0.7747,0.7502,705,-23.3154,-19.7754,77.9419,95,1.3337,1.4177,21.5158,-47.157,35,0.1661,25858,3.9776,54.2286
lg,1625137576136755870,0,-0.6899,-0.7083,0.582,706,-41.687,-167.3584,88.4399,95,1.3226,1.4207,20.1219,-46.1466,35,0.1611,8757,3.9776,62.0013
lg,1625137576136778237,0,0.1519,-0.7322,0.4314,707,-41.687,-245.1172,63.2324,95,1.3206,1.4177,14.0363,-45.6427,34,0.1611,13752,3.9776,71.0015
lg,1625137576136798270,0,0.2859,-0.9585,0.4316,708,-72.937,-166.2598,26.6113,95,1.3176,1.4167,9.2139,-48.1525,34,0.1581,10798,3.9776,76.5355
lg,1625137576136820304,0,0.1421,-1.1445,0.4343,709,-24.231,-45.8374,32.6538,95,1.3176,1.4177,8.3989,-49.5778,34,0.1581,7977,3.9776,78.678
lg,1625137576136839021,0,0.1201,-1.1052,0.5615,710,-5.0049,-2.7466,46.2036,95,1.3166,1.4187,9.0291,-49.857,34,0.1581,8082,3.9776,79.9275
lg,1625137576136857941,0,0.2908,-0.8777,0.6558,711,23.8037,13.1836,40.7715,95,1.3156,1.4197,9.6859,-48.9195,34,0.1581,9918,3.9776,80.5644
lg,1625137576136875972,0,0.1606,-0.8103,0.5376,712,11.4136,44.0674,10.9253,95,1.3166,1.4217,10.426,-48.9356,34,0.1591,9058,3.9776,79.4521
lg,1625137576136894041,0,-0.1321,-0.9011,0.4929,713,6.8359,82.7637,-6.3477,95,1.3176,1.4227,12.2616,-49.6816,34,0.1591,8626,3.9776,76.6311
lg,1625137576136912109,0,-0.302,-0.8552,0.4946,714,20.874,90.332,-3.1738,95,1.3196,1.4237,14.6727,-49.9167,34,0.1611,8074,3.9776,73.6209
lg,1625137576136931789,0,-0.2651,-0.8083,0.5391,715,27.2217,75.6226,-0.9766,95,1.3236,1.4217,16.6045,-49.7262,34,0.1611,8052,3.9776,71.1282
lg,1625137576136950080,0,-0.1838,-0.7356,0.6265,716,30.5176,52.6123,-4.0283,95,1.3296,1.4247,17.6093,-49.0152,34,0.1631,8032,3.9776,69.3466
lg,1625137576136968463,0,-0.1982,-0.8435,0.5286,717,28.0762,46.1426,-8.9111,95,1.3337,1.4227,17.8994,-49.07,34,0.1621,8143,3.9776,67.438
lg,1625137576136986716,0,-0.2261,-0.8916,0.4832,718,20.4468,32.8369,-21.4844,95,1.3347,1.4187,17.9038,-49.2491,34,0.1611,8106,3.9776,65.6496
lg,1625137576137004970,0,-0.2847,-0.8484,0.3877,719,11.1694,35.9497,-12.085,95,1.3367,1.4187,18.4466,-49.8919,34,0.1621,8155,3.9776,63.9717
lg,1625137576137024354,0,-0.4695,-0.8491,0.5955,720,-18.3716,32.7759,36.9263,95,1.3397,1.4197,20.6439,-50.8314,34,0.1661,8193,3.9776,63.835
lg,1625137576137042885,0,-0.5208,-0.8662,0.696,721,-17.9443,35.1562,67.9932,95,1.3397,1.4237,23.9484,-51.371,34,0.1701,8285,3.9776,64.4613
lg,1625137576137060268,0,-0.5808,-0.739,0.5066,722,-26.4282,-14.9536,81.4209,95,1.3337,1.4277,25.2191,-50.8801,34,0.1681,10203,3.9776,68.8838
lg,1625137576137079318,0,-0.4924,-0.7061,0.5303,723,-32.2876,-92.5293,88.1958,95,1.3296,1.4307,25.7367,-49.8044,34,0.1661,8262,3.9776,74.5047
lg,1625137576137096497,0,-0.1816,-0.8123,0.6157,724,-26.9165,-119.9951,77.2705,95,1.3286,1.4297,24.3321,-48.3562,34,0.1661,8455,3.9776,80.6824
lg,1625137576137113842,0,0.1499,-1.0813,0.7593,725,-51.2085,-151.4893,63.5376,95,1.3276,1.4287,21.0562,-48.0693,34,0.1641,8686,3.9776,87.2987
lg,1625137576137159040,0,0.3433,-1.0764,0.5867,726,-31.0059,-128.6621,42.0532,95,1.3276,1.4287,18.4364,-48.4554,34,0.1651,9111,3.9776,89.8888
lg,1625137576137181167,0,0.3208,-1.0557,0.6023,727,-5.7373,-14.0991,4.7607,95,1.3286,1.4317,16.978,-48.9699,34,0.1661,9114,3.9776,90.3218
lg,1625137576137199884,0,0.1125,-0.9795,0.4277,728,18.1885,61.4624,-10.6812,95,1.3317,1.4337,17.3858,-49.6048,34,0.1661,9105,3.9776,87.8729
lg,1625137576137218063,0,-0.1621,-0.885,0.447,729,35.2173,111.145,-31.25,95,1.3347,1.4357,18.9716,-50.1242,34,0.1671,9086,3.9776,83.2803
lg,1625137576137236187,0,-0.426,-0.7239,0.2285,730,50.0488,85.4492,-28.8696,95,1.3367,1.4327,20.6658,-49.5616,34,0.1691,12543,3.9776,79.638
lg,1625137576137254237,0,-0.4436,-0.5833,0.5601,731,49.6826,40.8936,-7.2632,95,1.3397,1.4307,22.5244,-48.7474,34,0.1711,10321,3.9776,78.67
lg,1625137576137271916,0,-0.571,-0.5903,0.4492,732,4.1504,22.2778,29.6631,95,1.3397,1.4297,24.5847,-48.6563,34,0.1731,9128,3.9776,78.7432
lg,1625137576137289391,0,-0.6833,-0.9587,0.9175,733,-30.0903,-8.728,76.2939,95,1.3377,1.4327,26.7432,-48.6539,34,0.1721,8434,3.9776,81.3101
lg,1625137576137325268,0,-0.3289,-0.7593,0.5811,734,-7.9956,-72.5708,64.0259,95,1.3347,1.4347,26.4002,-47.187,34,0.1701,9155,3.9776,85.5667
lg,1625137576137343781,0,-0.1433,-0.7725,0.6318,735,-38.147,-112.1216,41.5039,95,1.3337,1.4347,23.8612,-46.7783,34,0.1671,10229,3.9776,90.3777
lg,1625137576137361626,0,-0.0786,-1.0776,0.8499,736,-35.1562,-67.5659,35.4614,95,1.3327,1.4327,22.2647,-47.127,35,0.1671,8542,3.9776,93.4985
lg,1625137576501646210,0,-0.0693,-0.8516,0.5005,737,3.2349,38.6353,-6.3477,95,1.3337,1.4327,22.287,-48.3027,35,0.1701,26644,3.9776,91.2057
lg,1625137576501689759,0,-0.1997,-0.9148,0.4851,738,1.0986,59.5703,-38.9404,95,1.3377,1.4357,22.227,-49.9748,34,0.1691,13786,3.9776,87.9463
lg,1625137576501711181,0,-0.2146,-0.98,0.4995,739,5.9814,55.7861,-50.7812,95,1.3407,1.4347,21.062,-51.5063,34,0.1701,10688,3.9776,84.592
lg,1625137576501731658,0,-0.1929,-0.9939,0.5127,740,9.9487,32.8979,-69.519,95,1.3397,1.4307,19.2417,-52.5695,34,0.1671,8150,3.9776,81.5084
lg,1625137576501750838,0,-0.1289,-0.9504,0.3044,741,30.4565,7.2632,-74.2188,95,1.3337,1.4237,16.6308,-52.7971,34,0.1651,7996,3.9776,79.1197
lg,1625137576501783194,0,-0.1116,-0.9504,0.2703,742,34.1797,-0.4883,-78.9185,95,1.3286,1.4147,13.8021,-52.8537,34,0.1611,8090,3.9776,76.905
lg,1625137576501803468,0,-0.1021,-0.8171,0.2939,743,62.9272,-10.1929,-64.209,95,1.3246,1.4087,11.2738,-51.3009,34,0.1581,7933,3.9776,75.4569
lg,1625137576501822073,0,-0.1062,-0.5737,0.3904,744,63.4766,60.9131,6.897,95,1.3236,1.4107,12.9286,-49.2995,34,0.1581,8556,3.9776,73.6805
lg,1625137576501840456,0,-0.1636,-0.5205,0.405,745,43.0298,89.5996,35.5225,95,1.3236,1.4027,17.1323,-49.1826,35,0.1581,8300,3.9776,71.6424
lg,1625137576501857839,0,-0.4834,-0.884,0.8511,746,-11.4136,101.8677,46.5698,95,1.3246,1.3997,21.337,-50.1698,35,0.1651,8088,3.9776,69.6562
lg,1625137576501875536,0,-0.7156,-0.999,0.7261,747,-25.2686,22.7661,76.1108,95,1.3296,1.3997,24.5976,-50.7844,35,0.1681,8604,3.9776,70.9398
lg,1625137576501893530,0,-0.6006,-0.7332,0.5876,748,-20.9351,-79.7729,82.9468,95,1.3337,1.4067,25.42,-49.4851,35,0.1651,8648,3.9776,75.9908
lg,1625137576501910857,0,-0.606,-0.6453,0.5642,749,-28.5034,-97.229,83.8013,95,1.3337,1.4147,25.7496,-48.1371,34,0.1651,8701,3.9776,81.6984
lg,1625137576501927758,0,-0.5688,-0.7422,0.5925,750,-57.9224,-135.0708,114.3799,95,1.3306,1.4197,25.7118,-47.1441,34,0.1631,8680,3.9776,89.5027
lg,1625137576501945270,0,0.2,-0.8721,0.865,751,-50.6592,-223.5107,91.9189,95,1.3286,1.4227,20.9122,-45.2092,34,0.1641,12436,3.9776,99.2993
lg,1625137576501963135,0,0.3647,-0.9692,0.5745,752,-50.7812,-211.2427,56.4575,95,1.3286,1.4237,15.2011,-45.3022,34,0.1641,8725,3.9776,107.0771
lg,1625137576501980591,0,0.5969,-1.085,0.5723,753,-51.4526,-114.1968,12.3291,95,1.3286,1.4247,10.9392,-47.0976,34,0.1661,8861,3.9776,110.6771
lg,1625137576501997622,0,0.2661,-1.1497,0.4575,754,-11.2305,43.8843,-27.8931,95,1.3296,1.4267,10.4164,-48.7378,34,0.1671,8817,3.9776,108.4459
lg,1625137576502015227,0,-0.0605,-1.0005,0.3552,755,20.1416,112.854,-23.1934,95,1.3296,1.4277,12.3903,-49.5916,34,0.1691,9202,3.9776,104.186
lg,1625137576502032516,0,-0.3462,-0.8403,0.354,756,39.978,132.1411,-11.4746,86,1.3296,1.4277,15.7875,-49.732,34,0.1701,12142,3.9787,99.5809
lg,1625137576502049714,0,-0.5039,-0.6589,0.324,757,41.687,60.3638,8.9111,86,1.3306,1.4297,18.3578,-49.0252,34,0.1691,8838,3.9787,97.7803
lg,1625137576502067300,0,-0.5076,-0.6587,0.5579,758,17.9443,29.3579,31.6162,86,1.3306,1.4307,20.5471,-48.3385,34,0.1681,8319,3.9787,97.7252
lg,1625137576502085146,0,-0.5361,-0.7422,0.6477,759,5.0049,14.8926,41.626,86,1.3306,1.4297,22.4913,-47.8828,34,0.1671,8416,3.9787,98.4381
lg,1625137576502103066,0,-0.5225,-0.8816,0.6575,760,-15.2588,-47.9736,47.9736,86,1.3266,1.4297,22.7407,-47.5575,34,0.1661,8422,3.9787,101.3001
lg,1625137576502120745,0,-0.3191,-0.894,0.6016,761,-18.4937,-101.9897,47.3633,86,1.3286,1.4297,21.1356,-46.9046,34,0.1651,8458,3.9787,105.7868
lg,1625137576502149469,0,-0.1765,-0.9077,0.6272,762,-18.1274,-111.8164,48.584,86,1.3276,1.4297,18.9526,-46.2343,34,0.1661,8486,3.9787,110.2523
lg,1625137576502167796,0,0.0972,-0.9163,0.6511,763,-8.5449,-88.1348,39.1846,86,1.3286,1.4277,16.7295,-45.744,34,0.1661,8507,3.9787,113.9469
lg,1625137576502186050,0,0.3218,-0.9688,0.6978,764,-0.3662,-57.373,8.9111,86,1.3296,1.4327,14.1987,-45.5618,34,0.1671,8515,3.9787,115.8123
lg,1625137576502215163,0,0.3433,-0.9021,0.5322,765,8.7891,10.1318,-30.7007,86,1.3317,1.4327,12.3979,-46.0052,34,0.1681,8561,3.9787,114.5078
lg,1625137576502245313,0,0.2334,-0.9741,0.6145,766,13.6719,55.8472,-47.3633,86,1.3357,1.4327,12.6619,-46.7224,34,0.1701,8537,3.9787,109.912
lg,1625137576502264012,0,-0.0396,-0.9778,0.5803,767,25.0244,126.6479,-71.0449,86,1.3407,1.4297,13.5943,-47.5387,34,0.1701,8601,3.9787,104.0069
lg,1625137576502281709,0,-0.2258,-0.9089,0.3765,768,42.9077,142.0898,-91.6748,86,1.3407,1.4207,14.6624,-48.2777,34,0.1671,8623,3.9787,96.9453
lg,1625137576865502586,0,-0.4424,-0.5613,0.3706,769,34.2407,107.2998,9.1553,86,1.3347,1.3937,18.5042,-48.0649,34,0.1621,27168,3.9787,93.7896
lg,1625137576865536665,0,-0.6445,-0.9321,0.7373,770,-32.5317,37.4756,57.8003,86,1.3407,1.3977,21.6093,-49.3397,34,0.1721,15367,3.9787,94.1646
lg,1625137576865557310,0,-0.6978,-0.9297,0.6675,771,-31.7993,27.3438,86.5479,86,1.3427,1.4067,25.4591,-50.287,34,0.1731,7969,3.9787,95.5695
lg,1625137576865576786,0,-0.7227,-0.6902,0.5002,772,-29.2969,-64.209,97.4121,86,1.3357,1.4187,26.2771,-48.8719,34,0.1681,10520,3.9787,101.733
lg,1625137576865598338,0,-0.656,-0.6479,0.5188,773,-37.3535,-131.2866,109.0088,86,1.3317,1.4217,25.3098,-46.4065,34,0.1691,7996,3.9787,111.0016
lg,1625137576865618000,0,-0.0679,-0.6748,0.6416,774,-46.2036,-207.5195,105.835,86,1.3276,1.4197,21.7055,-44.3811,34,0.1671,8106,3.9787,120.6648
lg,1625137576865636420,0,0.3887,-1.1516,0.8191,775,-91.3696,-241.0278,66.1621,86,1.3256,1.4167,15.4378,-45.5064,34,0.1671,8050,3.9787,129.6685
lg,1625137576865655211,0,0.6414,-1.2461,0.678,776,-63.2935,-211.1206,50.0488,86,1.3256,1.4157,11.5827,-46.7639,34,0.1691,8081,3.9787,133.3846
lg,1625137576865673279,0,0.4822,-1.198,0.5664,777,-13.3667,3.9673,-1.6479,86,1.3256,1.4177,10.4694,-47.9873,34,0.1681,8111,3.9787,133.0963
lg,1625137576865691329,0,0.1287,-0.9548,0.4031,778,30.7617,104.9805,-16.2964,86,1.3266,1.4207,12.1066,-48.2141,34,0.1681,8274,3.9787,129.3239
lg,1625137576865709434,0,-0.1404,-0.8401,0.4297,779,43.5791,143.1274,-36.0718,86,1.3276,1.4217,14.6862,-48.2971,34,0.1711,8036,3.9787,123.8208
lg,1625137576865727187,0,-0.3003,-0.8484,0.4143,780,37.9028,149.1699,-43.335,86,1.3296,1.4197,17.4349,-49.0027,34,0.1711,8099,3.9787,117.8128
lg,1625137576865744904,0,-0.5405,-0.8235,0.3499,781,32.1655,111.2061,-44.1284,86,1.3327,1.4257,19.5297,-49.8579,34,0.1711,8130,3.9787,112.846
lg,1625137576865762101,0,-0.5637,-0.7136,0.4458,782,36.1328,67.0776,-37.1704,86,1.3347,1.4257,19.9651,-48.9332,34,0.1731,8096,3.9787,111.4276
lg,1625137576865779520,0,-0.4731,-0.6543,0.532,783,42.1753,-6.7749,-6.4697,86,1.3397,1.4237,19.9566,-47.2976,34,0.1741,8176,3.9787,111.4454
lg,1625137576865797496,0,-0.3218,-0.6567,0.5325,784,17.334,-40.7104,16.1743,86,1.3407,1.4257,19.3502,-46.1556,34,0.1751,8152,3.9787,113.1325
lg,1625137576865814582,0,-0.2483,-0.8823,0.6624,785,-3.0518,-55.0537,28.3813,86,1.3437,1.4257,18.3812,-45.7381,34,0.1751,8211,3.9787,115.5493
lg,1625137576865832279,0,-0.2161,-0.9727,0.7307,786,-4.6997,-52.9785,36.377,86,1.3457,1.4257,17.6186,-45.3914,34,0.1751,8166,3.9787,118.1195
lg,1625137576865850107,0,-0.0691,-0.9314,0.7139,787,-0.8545,-52.124,41.626,86,1.3467,1.4267,16.7791,-44.8883,34,0.1771,8234,3.9787,120.8066
lg,1625137576865867230,0,0.0491,-0.8987,0.7124,788,-2.6245,-33.1421,39.4897,86,1.3477,1.4277,16.2082,-44.6502,34,0.1761,8199,3.9787,122.8692
lg,1625137576865885150,0,0.123,-0.9004,0.7129,789,-2.9297,-15.564,38.147,86,1.3487,1.4277,15.908,-44.6345,34,0.1761,8942,3.9787,124.3645
lg,1625137576865925437,0,0.1565,-0.96,0.7361,790,3.6011,25.9399,19.8975,86,1.3497,1.4257,16.3061,-44.8494,34,0.1751,8228,3.9787,124.1031
lg,1625137576865944654,0,0.0027,-0.8945,0.5764,791,16.0522,66.7725,0.4883,86,1.3487,1.4237,17.5621,-45.2781,34,0.1721,9055,3.9787,121.996
lg,1625137576865962111,0,-0.168,-0.8555,0.5344,792,18.2495,98.8159,-10.9253,86,1.3437,1.4207,19.684,-46.1165,35,0.1691,10672,3.9787,118.5291
lg,1625137576865979883,0,-0.2998,-0.8997,0.4517,793,14.4043,108.0322,-0.7324,86,1.3437,1.4197,22.5044,-47.4457,35,0.1711,9117,3.9787,114.8943
lg,1625137576865997154,0,-0.3967,-0.8687,0.4805,794,6.6528,85.5103,3.2959,86,1.3467,1.4207,24.3833,-48.9588,35,0.1751,8302,3.9787,112.796
lg,1625137576866013962,0,-0.4336,-0.8005,0.4221,795,-11.7798,50.5981,21.4844,86,1.3507,1.4247,26.399,-50.4053,35,0.1771,8772,3.9787,111.4849
lg,1625137576866052118,0,-0.6206,-0.7083,0.5093,796,-21.7285,22.644,45.5933,86,1.3507,1.4297,28.7287,-51.1657,35,0.1761,9095,3.9787,111.9282
lg,1625137576866070705,0,-0.8142,-0.8091,0.6528,797,-24.9634,-25.8179,72.2046,86,1.3437,1.4337,30.681,-50.6454,35,0.1731,8771,3.9787,114.9549
lg,1625137576866087847,0,-0.4946,-0.7427,0.7629,798,-43.396,-143.5547,74.0356,86,1.3387,1.4337,29.0052,-48.483,35,0.1721,8836,3.9787,122.3516
lg,1625137576866107064,0,-0.1589,-0.6301,0.6921,799,-31.0059,-200.6226,48.2178,86,1.3367,1.4297,22.535,-47.6651,35,0.1711,8438,3.9787,129.86
lg,1625137576866124576,0,0.0994,-0.9055,0.5876,800,-81.604,-198.7305,16.1743,86,1.3347,1.4197,16.721,-49.0218,34,0.1701,8847,3.9787,136.4841
lg,1625137577242002212,0,-0.1038,-1.0127,0.5051,801,29.7241,38.5132,35.6445,86,1.3317,1.4157,18.3633,-48.4811,34,0.1701,26835,3.9787,136.0775
lg,1625137577242041219,0,-0.1545,-0.679,0.5007,802,26.2451,48.5229,33.3862,86,1.3296,1.4197,20.3265,-47.8285,34,0.1681,14988,3.9787,135.4169
lg,1625137577242061622,0,-0.2134,-0.8303,0.6335,803,6.2256,23.8647,24.5972,86,1.3296,1.4217,21.3426,-47.7865,34,0.1681,7966,3.9787,135.2964
lg,1625137577242081079,0,-0.189,-0.864,0.6416,804,3.2349,8.4229,19.104,86,1.3306,1.4237,21.6055,-47.8749,34,0.1691,7879,3.9787,135.4586
lg,1625137577242100203,0,-0.146,-0.8896,0.5886,805,6.2866,5.188,10.6812,86,1.3317,1.4257,21.5224,-47.9236,34,0.1711,7921,3.9787,135.4682
lg,1625137577242118696,0,-0.1821,-0.9009,0.5781,806,13.916,25.8179,7.2021,86,1.3337,1.4277,21.9619,-47.9793,34,0.1721,7970,3.9787,134.7054
lg,1625137577242137153,0,-0.1758,-0.8762,0.5471,807,16.8457,31.0669,7.019,86,1.3377,1.4277,22.524,-47.9291,34,0.1741,8639,3.9787,133.7858
lg,1625137577242155127,0,-0.1443,-0.8567,0.6506,808,21.6064,38.9404,2.9297,86,1.3427,1.4267,23.1043,-47.7705,34,0.1731,8542,3.9787,132.516
lg,1625137577242172694,0,-0.1553,-0.8284,0.5623,809,26.2451,47.5464,-6.5308,86,1.3457,1.4237,23.6246,-47.7397,34,0.1721,8916,3.9787,130.6546
lg,1625137577242217687,0,-0.2236,-0.9226,0.5769,810,18.4326,53.1616,-11.2305,86,1.3447,1.4207,24.2395,-48.2608,34,0.1691,8144,3.9787,128.4235
lg,1625137577242238645,0,-0.3469,-0.8867,0.3948,811,19.5923,54.3213,-10.9253,86,1.3437,1.4177,25.1239,-49.0557,34,0.1701,8044,3.9787,126.208
lg,1625137577242256990,0,-0.4045,-0.8394,0.415,812,8.8501,40.7715,2.3193,86,1.3457,1.4157,26.198,-49.8422,34,0.1721,8063,3.9787,124.651
lg,1625137577242274872,0,-0.4302,-0.7908,0.5676,813,-7.3853,24.0479,41.5649,86,1.3487,1.4177,27.9858,-50.1362,34,0.1771,8135,3.9787,124.9429
lg,1625137577242292958,0,-0.5261,-0.7903,0.5869,814,-14.9536,14.9536,54.6875,86,1.3517,1.4237,29.84,-50.2845,34,0.1771,8102,3.9787,126.8241
lg,1625137577242311452,0,-0.5271,-0.7688,0.4878,815,-30.4565,-35.3394,70.8008,86,1.3477,1.4257,31.1227,-50.0671,34,0.1741,8117,3.9787,130.0478
lg,1625137577242329204,0,-0.4355,-0.752,0.635,816,-27.832,-74.3408,71.7773,86,1.3427,1.4307,31.0823,-48.6608,34,0.1741,8155,3.9787,134.878
lg,1625137577242346308,0,-0.2371,-0.7983,0.4626,817,-29.7852,-111.145,40.1611,86,1.3387,1.4327,28.7052,-47.8082,34,0.1711,8205,3.9787,139.6876
lg,1625137577242364301,0,0.0286,-0.9958,0.6021,818,-41.1987,-129.6997,35.9497,86,1.3377,1.4297,25.174,-47.4853,34,0.1711,13232,3.9787,144.845
lg,1625137577242382443,0,0.0383,-1.05,0.5896,819,-18.7378,-45.9595,8.3008,86,1.3377,1.4307,23.1828,-48.0759,34,0.1691,8380,3.9787,146.3504
lg,1625137577242400640,0,-0.0532,-0.9756,0.4995,820,5.127,14.8926,14.8315,86,1.3387,1.4317,23.2505,-48.5125,34,0.1691,8286,3.9787,146.0487
lg,1625137577242418096,0,-0.0833,-0.897,0.4399,821,13.1836,31.4941,14.0991,86,1.3377,1.4327,23.9082,-48.9456,34,0.1721,8256,3.9787,145.1365
lg,1625137577242435885,0,-0.1553,-0.8064,0.4324,822,18.2495,43.9453,7.8125,86,1.3397,1.4347,24.8874,-49.1918,34,0.1731,10092,3.9787,143.7085
lg,1625137577242453823,0,-0.2859,-0.8203,0.4985,823,17.5171,47.7905,2.6245,86,1.3427,1.4347,25.8815,-49.5354,34,0.1731,9529,3.9787,142.01
lg,1625137577242473206,0,-0.2781,-0.8342,0.5132,824,14.4653,13.916,0.3052,86,1.3427,1.4357,25.8595,-49.522,34,0.1731,8683,3.9787,141.3866
lg,1625137577242490847,0,-0.1299,-0.8215,0.5627,825,19.104,-10.9863,7.5073,86,1.3487,1.4357,25.0847,-48.7612,34,0.1741,8295,3.9787,141.8557
lg,1625137577242604477,0,0.0181,-0.8381,0.5435,826,23.1934,-14.3433,6.5918,86,1.3527,1.4347,23.9115,-48.1559,34,0.1741,8775,3.9787,141.9134
lg,1625137577242626547,0,-0.0007,-0.8875,0.5583,827,19.2261,7.9346,-5.7373,86,1.3507,1.4327,23.0635,-48.0978,34,0.1731,8725,3.9787,141.2656
lg,1625137577242646097,0,-0.0886,-0.9185,0.4548,828,22.8882,39.6118,-13.0005,86,1.3517,1.4327,23.0431,-48.484,34,0.1751,8788,3.9787,139.3461
lg,1625137577242687402,0,-0.2915,-0.8579,0.5217,829,0.3662,66.2231,14.2822,86,1.3547,1.4337,24.9331,-49.6044,34,0.1771,10128,3.9787,137.3989
lg,1625137577242716143,0,-0.53,-0.7803,0.5461,830,-10.437,60.3638,47.7905,86,1.3537,1.4397,28.0954,-50.5297,34,0.1751,8750,3.9787,136.6065
lg,1625137577242757707,0,-0.7122,-0.7278,0.6689,831,-1.8921,33.1421,58.8379,86,1.3507,1.4417,31.0401,-50.2028,34,0.1761,9173,3.9787,137.2126
lg,1625137577242779777,0,-0.5312,-0.5454,0.4841,832,4.1504,-57.1289,33.02,86,1.3477,1.4417,30.7532,-48.3991,34,0.1771,8819,3.9787,140.2862
lg,1625137577610205912,0,-0.1357,-1.0203,0.5266,833,-41.626,-111.0229,7.4463,86,1.3467,1.4407,27.1657,-48.7287,34,0.1731,25797,3.9787,144.0053
lg,1625137577610246512,0,0.1516,-0.9854,0.5737,834,-1.5869,-33.3252,9.5825,86,1.3467,1.4417,25.3006,-48.6452,34,0.1751,12023,3.9787,145.1858
lg,1625137577610268378,0,0.1226,-0.887,0.4712,835,7.3242,26.5503,-3.1738,86,1.3477,1.4437,24.706,-49.3283,34,0.1771,13045,3.9787,143.9691
lg,1625137577610288039,0,-0.1301,-0.9067,0.5032,836,13.3057,74.1577,-11.7798,86,1.3487,1.4437,25.5693,-50.4946,34,0.1771,7972,3.9787,140.9201
lg,1625137577610307738,0,-0.2961,-0.8843,0.4851,837,17.0898,84.3506,-10.437,86,1.3497,1.4427,26.9933,-51.681,34,0.1761,7956,3.9787,137.5034
lg,1625137577610326602,0,-0.3459,-0.8582,0.4902,838,20.4468,62.1338,-6.2866,86,1.3527,1.4407,28.0129,-52.3146,34,0.1731,10812,3.9787,134.9567
lg,1625137577610345485,0,-0.324,-0.8359,0.5515,839,21.7285,43.2739,-2.8687,86,1.3547,1.4367,28.5696,-52.394,34,0.1741,7992,3.9787,133.2351
lg,1625137577610364089,0,-0.1943,-0.8091,0.5537,840,25.8179,13.7329,-5.7983,86,1.3537,1.4327,28.0412,-51.8054,34,0.1731,7964,3.9787,132.5124
lg,1625137577610381582,0,-0.126,-0.8926,0.5811,841,22.0947,15.8081,-8.9111,86,1.3507,1.4267,27.3251,-51.5173,34,0.1731,8010,3.9787,131.5954
lg,1625137577610399168,0,-0.1226,-0.9155,0.5798,842,24.231,26.9165,-13.6719,86,1.3457,1.4197,26.7547,-51.4144,34,0.1691,8027,3.9787,130.1434
lg,1625137577610416513,0,-0.1729,-0.918,0.4895,843,34.9121,47.2412,-10.6201,86,1.3427,1.4147,26.9284,-51.351,34,0.1671,9146,3.9787,127.983
lg,1625137577610434487,0,-0.2751,-0.8074,0.3943,844,26.4893,48.9502,11.4746,86,1.3447,1.4127,28.1247,-51.4664,34,0.1701,8782,3.9787,126.3346
lg,1625137577610467027,0,-0.5044,-0.8191,0.6306,845,-10.1929,46.1426,41.0767,86,1.3487,1.4157,30.4548,-52.1418,34,0.1761,8149,3.9787,125.8161
lg,1625137577610487763,0,-0.6377,-0.7544,0.5374,846,-13.5498,33.02,61.8286,86,1.3517,1.4207,33.1685,-51.8562,34,0.1751,8169,3.9787,127.7014
lg,1625137577610505960,0,-0.668,-0.6914,0.5142,847,-18.6768,-24.1699,80.1392,86,1.3487,1.4237,35.241,-50.7633,34,0.1741,8188,3.9787,131.0123
lg,1625137577610524417,0,-0.6934,-0.7019,0.6079,848,-28.9917,-79.834,91.1255,86,1.3447,1.4297,36.0083,-48.3948,34,0.1741,8174,3.9787,136.963
lg,1625137577610542132,0,-0.188,-0.6555,0.7195,849,-32.2876,-157.7148,83.1299,86,1.3427,1.4307,33.147,-44.6638,34,0.1721,8190,3.9787,145.4487
lg,1625137577610560792,0,-0.085,-0.8318,0.5203,850,-46.6309,-193.4814,56.5186,86,1.3407,1.4307,28.1279,-42.9826,34,0.1701,8232,3.9787,153.231
lg,1625137577610578971,0,0.3433,-1.0605,0.5476,851,-55.3589,-178.833,40.4053,86,1.3397,1.4307,22.5151,-43.1221,34,0.1681,8258,3.9787,159.558
lg,1625137577610596964,0,0.2903,-1.1213,0.4778,852,-25.6958,-49.3164,10.437,86,1.3387,1.4277,20.1203,-44.4349,34,0.1671,8315,3.9787,160.997
