name,time,activity,ax,ay,az,batch_val,gx,gy,gz,ibat,index,middle,pitch,roll,temp,thumb,ts,vbat,yaw
lg,1625188667565004076,0,0.4915,-0.2288,1.0015,1,-22.3999,39.3677,7.3242,65,1.5598,1.5568,-0.977,-22.2452,35,0.2061,20481,4.0106,73.022
lg,1625188667565049558,0,0.5198,-0.2422,1.0278,2,-22.7661,45.6543,6.6528,65,1.5598,1.5568,0.2147,-22.7918,35,0.2061,8984,4.0106,72.3911
lg,1625188667565070317,0,0.5244,-0.217,1.0198,3,-20.813,67.4438,5.0659,65,1.5598,1.5568,1.7405,-23.2524,35,0.2061,8429,4.0106,71.5233
lg,1625188667565089650,0,0.5217,-0.2114,1.0388,4,-22.8271,90.21,6.4087,65,1.5598,1.5568,4.085,-23.8184,35,0.2061,10953,4.0106,70.3278
lg,1625188667565107669,0,-0.1538,-0.9045,0.6641,5,-1.77,-6.7139,36.1328,122,1.4827,1.5037,4.6039,-24.8991,35,0.2261,11723,3.9666,71.6769
lg,1625188667565127150,0,-0.0261,-0.73,0.7141,6,2.8076,-33.6914,33.7524,122,1.4827,1.5037,3.8496,-25.4531,35,0.2261,9625,3.9666,73.4134
lg,1625188667565145761,0,0.0847,-0.843,0.7725,7,-5.0659,-49.1333,36.377,122,1.4837,1.5037,2.164,-26.5013,35,0.2261,9425,3.9666,75.6889
lg,1625188667565163502,0,0.1167,-0.8865,0.7195,8,-2.1362,-47.1802,33.2031,122,1.4837,1.5027,0.7828,-27.4618,35,0.2271,8303,3.9666,77.6974
lg,1625188667565180743,0,0.2556,-0.8154,0.8108,9,12.207,-19.6533,16.7236,122,1.4867,1.5027,-0.123,-27.6362,35,0.2251,7902,3.9666,78.6454
lg,1625188667565198669,0,0.3743,-0.7915,0.9189,10,13.3057,-17.2729,-4.0283,122,1.4967,1.5007,-1.7694,-27.5201,35,0.2241,8265,3.9666,77.9571
lg,1625188667565216521,0,0.4065,-0.8313,0.9504,11,20.3857,-10.3149,-53.894,122,1.5067,1.4957,-3.7525,-27.127,35,0.2221,8725,3.9666,76.2443
lg,1625188667565234391,0,0.3591,-1.0203,0.8611,12,28.6255,7.3853,-123.4741,122,1.5007,1.4797,-6.169,-26.4332,35,0.2191,8343,3.9666,71.7433
lg,1625188667565252132,0,0.27,-1.1765,0.3015,13,33.6914,49.5605,-173.8281,122,1.4937,1.4487,-7.7954,-25.9009,35,0.2141,8055,3.9666,64.7667
lg,1625188667565269335,0,0.062,-1.1309,0.0579,14,45.6543,77.3926,-182.0068,122,1.4917,1.4247,-8.1133,-24.9776,35,0.2121,8436,3.9666,57.0713
lg,1625188667565286261,0,-0.0085,-0.3918,0.4023,15,75.6836,144.165,-44.4336,122,1.4907,1.4177,-3.2322,-22.3139,35,0.2141,8837,3.9666,53.225
lg,1625188667565303743,0,-0.0059,-0.377,0.6133,16,15.564,174.0723,62.439,122,1.4927,1.4227,4.2677,-22.0556,35,0.2181,8857,3.9666,52.9207
lg,1625188667565321132,0,-0.5225,-0.907,0.8232,17,-24.1699,111.5723,56.7017,122,1.4927,1.4347,9.9841,-23.8822,35,0.2191,8505,3.9666,53.1838
lg,1625188667565339391,0,-0.613,-0.905,0.6958,18,-16.7236,75.4395,90.0879,122,1.4917,1.4477,14.9585,-24.9648,35,0.2181,8869,3.9666,55.1005
lg,1625188667565356743,0,-0.6165,-0.7358,0.7935,19,-22.8271,-15.3198,122.6807,122,1.4937,1.4557,17.0784,-25.1466,35,0.2181,8904,3.9666,59.8284
lg,1625188667565374521,0,-0.6619,-0.6709,0.627,20,-59.082,-118.7134,135.7422,122,1.4907,1.4707,15.9267,-26.1521,35,0.2161,9376,3.9666,66.8561
lg,1625188667565392447,0,-0.2576,-0.7375,0.593,21,-97.168,-260.6201,152.5269,122,1.4697,1.4807,9.5522,-28.6679,35,0.2141,8838,3.9666,77.0295
lg,1625188667565409780,0,0.8464,-0.6907,0.7874,22,-95.6421,-350.1587,85.5713,122,1.4697,1.4817,-2.3863,-32.2383,35,0.2131,8848,3.9666,87.0137
lg,1625188667565427261,0,0.9272,-1.4536,0.925,23,-109.1919,-308.1665,25.6348,122,1.4677,1.4777,-10.7439,-38.3106,35,0.2121,8890,3.9666,94.2131
lg,1625188667565444650,0,1.2036,-1.2856,0.7246,24,-52.9785,-208.9844,27.2217,122,1.4677,1.4737,-17.449,-42.679,35,0.2121,8993,3.9666,100.8268
lg,1625188667565461502,0,0.6458,-1.085,0.7073,25,17.7612,56.3354,-33.6304,122,1.4677,1.4737,-17.0609,-41.6949,35,0.2131,10169,3.9666,98.3472
lg,1625188667565478484,0,0.1753,-0.7585,0.425,26,64.6362,180.4199,-20.9961,122,1.4677,1.4767,-11.4589,-38.3504,35,0.2151,10365,3.9666,93.0832
lg,1625188667565496021,0,-0.1633,-0.6606,0.5154,27,65.7959,206.9092,-17.6392,122,1.4687,1.4777,-4.4531,-35.4801,35,0.2171,8998,3.9666,87.6251
lg,1625188667565513261,0,-0.3638,-0.646,0.5894,28,52.5513,171.6309,-5.7983,122,1.4677,1.4857,2.0609,-33.7293,35,0.2191,9006,3.9666,83.5846
lg,1625188667565542928,0,-0.3833,-0.6387,0.6582,29,33.3862,95.2148,-0.8545,122,1.4747,1.4897,6.0071,-32.9157,35,0.2201,9017,3.9666,81.4479
lg,1625188667565644021,0,-0.2639,-0.6584,0.6917,30,9.8877,5.9204,-1.709,122,1.4827,1.4927,6.542,-32.9411,35,0.2221,9004,3.9666,81.2188
lg,1625188667565666984,0,-0.0435,-0.7231,0.6897,31,2.1362,-30.2734,0.3052,122,1.4917,1.4927,4.6775,-33.4568,35,0.2251,9061,3.9666,82.3242
lg,1625188667565685687,0,0.0723,-0.7778,0.7598,32,-5.7983,-67.0166,-3.3569,122,1.5027,1.4887,2.0534,-34.0788,35,0.2251,9088,3.9666,83.6712
lg,1625188667969646391,0,0.3584,-1.0432,0.603,33,12.146,-42.6636,-96.1914,122,1.4997,1.4737,-2.2313,-34.5318,35,0.2201,26145,3.9666,81.4308
lg,1625188667969684317,0,0.2266,-1.0266,0.3425,34,44.0674,21.1792,-100.8911,122,1.4997,1.4687,-4.197,-33.893,35,0.2141,10325,3.9666,77.6654
lg,1625188667969704724,0,0.2622,-0.5945,0.3938,35,63.5986,46.1426,-22.522,122,1.5017,1.4677,-3.782,-32.0449,35,0.2121,8421,3.9666,75.9477
lg,1625188667969724280,0,0.2781,-0.4897,0.5649,36,13.1226,100.8911,48.7671,122,1.5047,1.4717,0.0085,-31.8259,35,0.2171,13221,3.9666,75.4794
lg,1625188667969748150,0,-0.3606,-0.9966,0.7339,37,-28.0762,109.375,69.5801,122,1.5077,1.4777,5.628,-33.6488,35,0.2191,11194,3.9666,76.2241
lg,1625188667969766687,0,-0.5081,-0.9009,0.6328,38,-21.4844,61.8896,96.1304,122,1.5087,1.4847,10.5809,-34.9995,35,0.2161,8500,3.9666,77.9302
lg,1625188667969785002,0,-0.624,-0.6047,0.8354,39,-26.3672,-12.6953,134.3384,141,1.5037,1.4917,14.0429,-35.0491,35,0.2141,8528,3.9501,82.7198
lg,1625188667969805706,0,-0.4336,-0.6279,0.865,40,-73.8525,-131.7749,165.5273,141,1.4767,1.4977,13.9282,-35.9193,35,0.2071,8563,3.9501,91.4054
lg,1625188667969823094,0,0.3696,-0.8162,0.9956,41,-114.8682,-246.3989,154.1138,141,1.4607,1.4957,8.7122,-38.4546,35,0.2011,8526,3.9501,102.4387
lg,1625188667969840243,0,0.6121,-1.1782,0.5435,42,-85.7544,-256.2866,19.104,141,1.4597,1.4897,0.2091,-42.2262,35,0.1981,9456,3.9501,109.5577
lg,1625188667969857632,0,0.8335,-1.3491,1.0117,43,-83.9233,-177.2461,32.2266,141,1.4597,1.4907,-4.9549,-46.1871,35,0.1991,8023,3.9501,115.4569
lg,1625188667969955594,0,0.6755,-0.9827,0.4148,44,-5.5542,-5.3711,-21.7285,141,1.4607,1.4937,-6.7846,-47.0389,35,0.2021,8120,3.9501,115.0803
lg,1625188667969982206,0,0.2566,-0.825,0.5312,45,35.0952,119.0796,-24.5361,141,1.4617,1.4987,-4.5379,-45.6079,35,0.2031,8121,3.9501,110.9739
lg,1625188667970005724,0,0.1194,-0.8076,0.6294,46,39.4897,149.6582,-19.165,141,1.4687,1.5037,-0.3933,-43.9618,35,0.2051,8718,3.9501,105.8118
lg,1625188667970024891,0,-0.0137,-0.7861,0.6787,47,38.3911,148.8037,-24.9023,141,1.4797,1.5077,3.2713,-42.7472,35,0.2101,8405,3.9501,100.9989
lg,1625188667970047891,0,-0.0364,-0.7966,0.6602,48,24.1699,115.6006,-46.0205,141,1.4957,1.5107,5.3633,-42.4126,35,0.2121,8198,3.9501,96.483
lg,1625188667970066261,0,-0.1555,-0.7927,0.498,49,17.0898,98.4497,-62.6221,141,1.5067,1.5107,5.3819,-42.9118,35,0.2151,8234,3.9501,92.0662
lg,1625188667970084243,0,-0.1885,-0.761,0.3743,50,10.9863,35.6445,-90.21,141,1.5117,1.5067,4.2396,-43.5612,35,0.2191,8219,3.9501,88.3776
lg,1625188667970101520,0,-0.1572,-0.772,0.428,51,7.9956,-5.0049,-63.4155,141,1.5127,1.5077,2.5807,-44.0046,35,0.2221,8269,3.9501,86.6368
lg,1625188667970120354,0,-0.0955,-0.7683,0.4458,52,-22.4609,4.0283,34.2407,141,1.5137,1.5107,3.8009,-45.4615,35,0.2281,8233,3.9501,87.4659
lg,1625188667970137817,0,-0.1177,-0.8247,0.5588,53,-37.4146,10.0098,79.834,141,1.5177,1.5167,6.4992,-47.1799,35,0.2321,8324,3.9501,89.3541
lg,1625188667970154965,0,-0.374,-0.8457,0.5825,54,-35.4614,12.6953,122.4976,141,1.5087,1.5187,10.9929,-48.4461,35,0.2281,8274,3.9501,92.2506
lg,1625188667970172206,0,-0.363,-0.6306,0.6265,55,-26.7334,-56.7017,132.1411,141,1.4937,1.5187,13.8779,-48.2289,35,0.2281,8341,3.9501,97.6003
lg,1625188667970192724,0,0.0435,-0.3884,1.0405,56,-24.1699,-104.0039,127.1973,141,1.4867,1.5147,13.8578,-47.1982,35,0.2271,8347,3.9501,104.3706
lg,1625188667970210354,0,0.2124,-0.9607,0.9514,57,-81.1157,-170.5322,78.2471,141,1.4817,1.5097,10.7661,-48.7835,35,0.2241,8460,3.9501,111.7261
lg,1625188667970228761,0,0.6099,-1.1064,0.5625,58,-52.6123,-165.2832,26.6113,141,1.4817,1.5097,5.9719,-50.5339,35,0.2251,8429,3.9501,117.438
lg,1625188667970245650,0,0.7095,-1.0325,0.6575,59,-12.6953,-46.7529,3.1128,141,1.4827,1.5117,3.5583,-51.1401,35,0.2261,8509,3.9501,118.954
lg,1625188667970266669,0,0.8047,-1.0178,0.7463,60,4.8828,-9.5215,3.2959,141,1.4867,1.5147,2.0864,-51.0041,35,0.2291,8452,3.9501,119.3239
lg,1625188667970284317,0,0.5054,-0.9404,0.6038,61,25.3906,90.6372,-42.7246,141,1.4937,1.5187,2.0392,-50.3473,35,0.2311,9737,3.9501,115.4164
lg,1625188667970301317,0,0.1401,-0.9158,0.6155,62,38.4521,158.9966,-70.9839,141,1.5047,1.5217,3.5794,-49.3565,35,0.2321,9190,3.9501,108.7081
lg,1625188667970319261,0,-0.0808,-0.8391,0.6431,63,42.6636,160.2783,-97.1069,141,1.5147,1.5207,4.8829,-48.3165,35,0.2331,8607,3.9501,101.3059
lg,1625188667970352946,0,-0.1147,-0.8301,0.3765,64,44.1895,114.4409,-118.103,141,1.5117,1.5107,4.5147,-47.7527,35,0.2241,9053,3.9501,94.6738
lg,1625188668307938983,0,-0.2036,-0.655,0.2559,65,41.3208,73.1812,-7.2632,141,1.5007,1.4917,8.8515,-47.6742,35,0.2251,26548,3.9501,94.043
lg,1625188668307973650,0,-0.2039,-0.6809,0.636,66,-8.7891,64.4531,101.6846,141,1.5047,1.4967,13.7143,-47.8198,35,0.2311,9376,3.9501,94.8793
lg,1625188668307994557,0,-0.448,-0.8262,0.5049,67,-31.189,23.3154,130.7983,141,1.5097,1.5037,18.6673,-48.6431,35,0.2381,9022,3.9501,97.6737
lg,1625188668308014946,0,-0.5525,-0.751,0.498,68,-34.2407,-66.3452,182.8003,141,1.5027,1.5097,22.856,-47.6781,35,0.2371,8272,3.9501,104.9027
lg,1625188668308034224,0,-0.2878,-0.6721,0.8582,69,-34.8511,-104.4922,197.937,141,1.4827,1.5117,23.9111,-45.0771,35,0.2331,8091,3.9501,115.6345
lg,1625188668308052650,0,0.4021,-0.4575,1.3569,70,-63.1104,-233.3984,155.6396,141,1.4757,1.5107,20.1143,-42.126,35,0.2271,8833,3.9501,127.8019
lg,1625188668308070576,0,0.6765,-1.4189,1.1599,71,-107.4829,-292.8467,66.7114,141,1.4727,1.5087,11.9638,-43.8771,35,0.2291,8386,3.9501,138.0125
lg,1625188668308088576,0,0.8738,-1.155,0.4482,72,-41.5039,-204.2847,15.625,141,1.4737,1.5107,8.9122,-44.7556,35,0.2311,9509,3.9501,139.2351
lg,1625188668308105928,0,0.3083,-0.9524,0.4377,73,44.4946,109.436,-29.6631,141,1.4747,1.5117,10.2289,-44.4093,35,0.2341,8811,3.9501,135.1332
lg,1625188668308123965,0,0.1243,-0.804,0.5046,74,66.7114,171.0815,-20.0195,141,1.4777,1.5147,15.2068,-42.8977,35,0.2351,8621,3.9501,129.0594
lg,1625188668308141742,0,-0.1394,-0.6326,0.6506,75,70.4956,195.6177,-14.3433,141,1.4837,1.5177,20.299,-41.9561,35,0.2361,8782,3.9501,123.0549
lg,1625188668308160057,0,-0.3472,-0.7063,0.6362,76,42.1753,145.0806,-29.2358,141,1.4917,1.5207,23.7746,-42.4319,35,0.2371,8686,3.9501,117.8282
lg,1625188668308177316,0,-0.387,-0.6875,0.5122,77,23.6816,52.9175,-36.2549,141,1.5017,1.5247,24.3658,-43.0237,35,0.2351,9274,3.9501,114.9159
lg,1625188668308194335,0,-0.1794,-0.6589,0.6379,78,15.3198,-19.7754,-21.9116,141,1.5087,1.5197,22.6683,-42.5717,35,0.2371,9184,3.9501,114.7539
lg,1625188668308211187,0,0.0496,-0.8225,0.6453,79,-5.5542,-52.124,-6.5308,141,1.5147,1.5157,20.001,-42.7,35,0.2371,8998,3.9501,115.9184
lg,1625188668308228520,0,0.1326,-1.0439,0.6584,80,-6.897,-43.0298,1.3428,141,1.5157,1.5127,17.8081,-43.1685,35,0.2391,8772,3.9501,116.9944
lg,1625188668308245668,0,0.1055,-1.0752,0.5759,81,-11.4136,-22.8271,9.5215,141,1.5177,1.5137,16.6147,-43.9155,35,0.2431,8847,3.9501,117.77
lg,1625188668308262928,0,0.1184,-0.9695,0.7505,82,-13.4888,-9.7656,44.4336,141,1.5217,1.5167,16.7205,-44.3208,35,0.2461,8849,3.9501,119.2893
lg,1625188668308279928,0,0.1143,-0.7461,0.5974,83,-11.9019,-5.8594,60.3638,141,1.5207,1.5237,17.3373,-44.4929,35,0.2461,8839,3.9501,121.1805
lg,1625188668308296891,0,-0.0378,-0.8882,0.6033,84,-24.4141,-12.146,62.6221,141,1.5167,1.5267,18.1684,-45.2445,35,0.2491,8857,3.9501,123.2663
lg,1625188668308313835,0,0.1118,-0.8315,0.5889,85,-24.292,-46.3257,70.0073,141,1.5077,1.5287,17.9327,-45.5205,35,0.2451,12347,3.9501,126.6016
lg,1625188668308330668,0,0.2522,-0.7007,0.207,86,-5.0659,-56.4575,20.3857,141,1.5047,1.5277,15.6615,-46.1043,35,0.2431,8906,3.9501,128.5691
lg,1625188668308347742,0,-0.1951,-0.9648,0.6841,87,0.1831,19.5923,36.8042,141,1.5027,1.5267,17.0158,-46.3001,35,0.2431,8911,3.9501,128.9457
lg,1625188668308365650,0,-0.0991,-0.6724,0.6021,88,26.1841,17.4561,26.4282,141,1.5047,1.5267,17.8295,-45.2475,35,0.2431,9809,3.9501,129.1664
lg,1625188668308382631,0,0.2173,-0.7891,0.8052,89,10.498,-26.062,10.9253,141,1.5107,1.5287,16.3083,-44.4658,35,0.2441,8999,3.9501,130.2643
lg,1625188668308400391,0,0.3845,-0.9424,0.7505,90,9.3994,-38.7573,-37.7808,141,1.5217,1.5277,12.8854,-44.3526,35,0.2411,10259,3.9501,130.1967
lg,1625188668308417372,0,0.3738,-0.9722,0.7832,91,21.7896,-23.9868,-63.0493,141,1.5267,1.5217,9.4115,-44.0673,35,0.2391,9009,3.9501,128.9568
lg,1625188668308433965,0,0.2454,-0.9565,0.2834,92,28.0151,2.1973,-97.0459,141,1.5227,1.5117,5.9184,-44.4162,35,0.2341,9023,3.9501,125.919
lg,1625188668308450835,0,0.0315,-0.7939,0.5215,93,37.3535,42.6025,-82.0923,141,1.5177,1.5077,4.5497,-43.7255,35,0.2361,9059,3.9501,122.3117
lg,1625188668308467761,0,-0.2634,-0.8726,0.7539,94,-5.3101,91.4917,44.1284,141,1.5217,1.5127,8.7181,-44.2866,35,0.2411,9098,3.9501,121.0049
lg,1625188668308484631,0,-0.437,-0.7256,0.7283,95,-11.4746,68.9087,113.8916,141,1.5227,1.5197,14.414,-44.4843,35,0.2421,9119,3.9501,122.3443
lg,1625188668308514131,0,-0.5718,-0.5366,0.7976,96,-19.4092,-14.2212,115.9058,141,1.5037,1.5257,17.8753,-43.7955,35,0.2371,9553,3.9501,126.3128
lg,1625188668660520039,0,0.4512,-1.167,0.6892,97,-97.5342,-207.4585,33.0811,141,1.4847,1.5097,11.6797,-46.4783,35,0.2301,26483,3.9501,133.1982
lg,1625188668660552279,0,0.2917,-1.1443,0.6035,98,-34.1187,-42.2974,-1.5259,141,1.4817,1.5077,9.5694,-48.204,35,0.2281,9378,3.9501,134.3143
lg,1625188668660573131,0,0.2178,-0.9739,0.4905,99,-2.5024,14.7095,3.6621,141,1.4807,1.5087,9.2672,-48.9372,35,0.2241,7929,3.9501,133.8706
lg,1625188668660592520,0,0.2637,-0.9207,0.5938,100,4.3945,62.439,16.9678,141,1.4827,1.5107,10.525,-49.3246,35,0.2301,15135,3.9501,132.349
lg,1625188668660611316,0,0.0933,-0.981,0.5186,101,12.4512,84.8999,2.9907,141,1.4867,1.5137,12.2104,-49.8333,35,0.2321,8679,3.9501,129.6942
lg,1625188668660629779,0,0.0408,-0.8821,0.573,102,20.2637,84.7168,-5.188,141,1.4907,1.5187,13.2358,-49.6854,35,0.2351,8293,3.9501,126.9467
lg,1625188668660647668,0,0.0701,-0.8472,0.5962,103,23.0713,64.6973,-19.4702,141,1.4987,1.5227,13.6402,-49.5562,35,0.2371,8515,3.9501,124.3498
lg,1625188668660665483,0,0.1184,-0.8911,0.5781,104,11.2305,52.063,-39.856,141,1.5107,1.5247,12.9843,-50.0186,35,0.2361,9740,3.9501,121.5898
lg,1625188668660682557,0,0.1311,-0.9285,0.4958,105,13.0005,43.0298,-55.603,141,1.5167,1.5227,11.5555,-50.794,35,0.2361,9421,3.9501,118.6295
lg,1625188668660699927,0,0.1565,-0.9387,0.2715,106,31.0059,18.0664,-88.7451,141,1.5087,1.5147,8.4926,-50.9335,35,0.2331,9228,3.9501,115.6137
lg,1625188668660717039,0,0.0547,-0.8193,0.2219,107,48.8281,20.5078,-78.3691,141,1.5017,1.5057,6.1406,-50.2378,35,0.2311,8593,3.9501,112.834
lg,1625188668660734909,0,0.1084,-0.6636,0.3982,108,43.1519,84.8389,43.7012,141,1.5007,1.5007,9.1022,-49.0465,35,0.2341,8629,3.9501,111.315
lg,1625188668660752501,0,-0.1289,-0.8127,0.8806,109,12.3901,101.0132,81.4209,141,1.5057,1.5047,14.4327,-49.0507,35,0.2411,8642,3.9501,111.0551
lg,1625188668660770779,0,-0.2749,-0.7791,0.6323,110,-2.5635,81.8481,105.4077,141,1.5127,1.5097,19.7725,-49.1278,35,0.2421,8716,3.9501,111.3244
lg,1625188668660788483,0,-0.4663,-0.603,0.6504,111,-5.5542,21.9727,120.4224,141,1.5077,1.5147,24.2683,-48.0751,35,0.2471,9035,3.9501,114.1248
lg,1625188668660805483,0,-0.5247,-0.646,0.8113,112,-39.856,-59.021,145.6909,141,1.4907,1.5177,27.0615,-46.5414,35,0.2441,9986,3.9501,120.5851
lg,1625188668660823131,0,0.0044,-0.6792,1.0552,113,-61.4014,-164.7339,142.334,141,1.4797,1.5137,25.4864,-44.098,35,0.2411,10658,3.9501,130.5196
lg,1625188668660840464,0,0.3833,-1.1113,0.7666,114,-72.998,-219.2993,72.4487,141,1.4747,1.5157,19.7572,-44.0552,35,0.2411,8828,3.9501,139.1733
lg,1625188668660857983,0,0.814,-1.0857,0.6885,115,-37.9639,-147.8882,38.208,141,1.4787,1.5167,14.8327,-44.3977,35,0.2431,8841,3.9501,144.4862
lg,1625188668660875205,0,0.4055,-1.0276,0.7371,116,7.6904,24.5361,-16.9678,141,1.4837,1.5197,13.834,-44.7648,35,0.2461,8859,3.9501,143.1797
lg,1625188668660891964,0,0.3259,-0.8877,0.6514,117,19.7144,47.7905,-32.3486,141,1.4947,1.5227,13.2121,-44.8834,35,0.2461,8888,3.9501,140.7605
lg,1625188668660909890,0,0.1689,-0.9045,0.6829,118,17.8223,78.4302,-69.8242,141,1.5077,1.5247,12.5952,-45.4464,35,0.2431,8877,3.9501,136.3887
lg,1625188668660927113,0,0.0471,-0.8169,0.2766,119,31.9214,70.0684,-102.2949,141,1.5157,1.5237,11.0358,-46.1903,35,0.2461,8862,3.9501,131.2099
lg,1625188668660944557,0,-0.2227,-0.7371,0.323,120,27.6489,68.1763,-107.4829,141,1.5187,1.5237,9.9858,-46.7602,35,0.2481,9045,3.9501,126.0473
lg,1625188668660961316,0,-0.6011,-0.854,0.5898,121,15.625,78.8574,-65.4297,141,1.5207,1.5267,12.8403,-47.6793,35,0.2511,8346,3.9501,123.7741
lg,1625188668660978001,0,-0.678,-0.8647,0.634,122,-16.8457,60.6689,54.3213,141,1.5177,1.5277,16.8181,-48.647,35,0.2551,8342,3.9501,123.345
lg,1625188668660994705,0,-0.7678,-0.6816,0.6575,123,-24.6582,-13.3667,103.0273,141,1.5077,1.5307,20.4051,-48.4793,35,0.2541,8445,3.9501,126.6682
lg,1625188668661011761,0,0.0059,-0.2766,0.6079,124,-34.6069,-194.8853,73.2422,141,1.5047,1.5277,16.5678,-46.3006,35,0.2511,8463,3.9501,135.1319
lg,1625188668661029039,0,0.1082,-0.6104,0.2512,125,-80.1392,-247.2534,39.917,141,1.5007,1.5227,9.9266,-47.9283,35,0.2491,8470,3.9501,143.5772
lg,1625188668661046113,0,0.5349,-1.1738,0.5862,126,-97.7173,-250.3662,43.8843,141,1.4987,1.5207,3.6272,-51.3406,35,0.2471,8480,3.9501,152.3186
lg,1625188668661062483,0,0.4556,-1.2729,0.5205,127,-40.7104,-61.8896,16.7236,141,1.4977,1.5197,1.81,-53.4389,35,0.2461,8509,3.9501,154.6674
lg,1625188668661082150,0,0.6479,-1.0044,0.6519,128,18.3716,20.5078,34.6069,141,1.4977,1.5207,2.2618,-52.8139,35,0.2471,8610,3.9501,154.8245
lg,1625188669034467390,0,0.3188,-0.9949,0.4822,129,24.5972,125.061,-26.5503,141,1.5087,1.5267,4.0058,-52.4478,35,0.2481,26826,3.9501,150.1776
lg,1625188669034500575,0,0.0488,-0.8557,0.5347,130,50.5981,125.2441,-77.0874,141,1.5127,1.5247,4.3995,-51.0664,35,0.2471,17492,3.9501,144.3039
lg,1625188669034520631,0,0.0476,-0.856,0.4404,131,47.2412,111.9995,-91.3696,141,1.5037,1.5187,3.4262,-50.8122,35,0.2421,7924,3.9501,138.5423
lg,1625188669034539649,0,-0.0618,-0.9194,0.0142,132,40.3442,75.4395,-107.9712,141,1.4977,1.5137,2.0206,-50.8419,35,0.2361,7912,3.9501,133.3927
lg,1625188669034557964,0,-0.0061,-0.8074,0.2522,133,60.3027,58.0444,-21.2402,141,1.4967,1.5097,2.791,-49.3667,35,0.2341,8280,3.9501,131.0323
lg,1625188669034575520,0,0.0698,-0.6526,0.4973,134,53.0396,87.6465,39.856,141,1.4977,1.5087,7.467,-48.218,35,0.2371,8698,3.9501,129.6741
lg,1625188669034593464,0,-0.145,-0.8059,0.7166,135,8.728,101.6846,79.0405,141,1.5027,1.5117,12.7691,-48.0767,35,0.2401,9223,3.9501,128.7225
lg,1625188669034612168,0,-0.3789,-0.8936,0.5764,136,-15.1367,30.0903,112.0605,141,1.5067,1.5177,17.1767,-48.4612,35,0.2371,8553,3.9501,130.7928
lg,1625188669034630427,0,-0.4814,-0.616,0.603,137,-14.4653,-32.959,124.6948,141,1.4997,1.5227,20.4661,-47.4464,35,0.2331,8010,3.9501,135.3863
lg,1625188669034648668,0,-0.5215,-0.5723,0.6543,138,-26.5503,-68.4814,128.6621,141,1.4767,1.5227,22.2607,-45.7768,35,0.2321,8057,3.9501,141.51
lg,1625188669034666742,0,0.2791,-0.3794,1.4099,139,-59.3262,-189.5752,120.3613,141,1.4717,1.5177,19.1591,-43.6179,35,0.2301,8077,3.9501,151.3003
lg,1625188669034684816,0,0.2166,-1.0889,0.9092,140,-88.0127,-201.1719,30.8228,141,1.4667,1.5147,13.2685,-45.481,35,0.2261,8147,3.9501,158.0197
lg,1625188669034702872,0,0.5642,-1.1797,1.0876,141,-65.4297,-210.4492,31.8604,141,1.4677,1.5127,7.9853,-46.0745,35,0.2261,8132,3.9501,161.7311
lg,1625188669034720353,0,0.2808,-1.1235,0.7134,142,-7.2632,-11.7798,-31.0669,141,1.4677,1.5147,5.9949,-46.8635,35,0.2271,8573,3.9501,161.1584
lg,1625188669034737631,0,0.1909,-0.8433,0.489,143,33.9966,49.0112,-20.2637,141,1.4687,1.5177,6.0868,-46.2114,35,0.2301,8170,3.9501,159.1077
lg,1625188669034755298,0,-0.0696,-0.741,0.5554,144,33.9355,108.7036,-20.2637,141,1.4707,1.5207,8.4422,-45.5923,35,0.2311,8888,3.9501,155.3584
lg,1625188669034772409,0,-0.2163,-0.7568,0.6101,145,31.1279,128.2959,-13.6108,141,1.4737,1.5227,11.7951,-45.2773,35,0.2341,8207,3.9501,151.222
lg,1625188669034789316,0,-0.3652,-0.7114,0.5886,146,21.2402,79.9561,-7.2021,141,1.4797,1.5257,14.2135,-45.1839,35,0.2361,8588,3.9501,148.6424
lg,1625188669034806761,0,-0.27,-0.7312,0.6042,147,0.3052,-8.3008,-11.7798,141,1.4867,1.5277,13.712,-45.3901,35,0.2381,8631,3.9501,148.4973
lg,1625188669034824205,0,0.0073,-0.835,0.4937,148,-19.5312,-76.7212,-3.8452,141,1.4977,1.5297,10.9348,-46.2624,35,0.2401,8612,3.9501,150.5168
lg,1625188669034841223,0,0.3167,-0.9316,0.5776,149,-20.6299,-102.2339,-3.7842,141,1.5097,1.5307,7.0113,-47.0775,35,0.2391,10438,3.9501,153.3477
lg,1625188669034860279,0,0.4436,-1.0015,0.4524,150,-5.188,-67.8711,-7.4463,141,1.5137,1.5287,4.6759,-47.5476,35,0.2401,14029,3.9501,154.1468
lg,1625188669034878890,0,0.3464,-1.0845,0.5322,151,12.5732,-10.1318,-9.0942,93,1.5157,1.5267,3.3413,-47.6461,35,0.2421,8752,3.982,154.1513
lg,1625188669034896520,0,0.2678,-0.9856,0.4761,152,32.2876,33.6914,-0.2441,93,1.5157,1.5247,3.5793,-47.0386,35,0.2431,8772,3.982,153.1079
lg,1625188669034914186,0,0.127,-0.9001,0.5706,153,19.5312,59.8755,26.7334,93,1.5187,1.5247,5.5784,-46.7462,35,0.2481,8704,3.982,152.0535
lg,1625188669034931686,0,0.0388,-0.8716,0.5854,154,-2.3804,45.2271,70.9839,93,1.5217,1.5297,8.575,-47.1256,35,0.2541,9351,3.982,152.6317
lg,1625188669034949668,0,-0.0381,-0.7761,0.5142,155,-3.9673,47.3633,78.5522,93,1.5137,1.5327,12.6966,-47.2663,35,0.2511,8672,3.982,153.4962
lg,1625188669034967427,0,-0.3274,-0.6819,0.5884,156,-6.3477,48.9502,103.8818,93,1.4967,1.5327,17.3466,-47.2109,35,0.2461,8853,3.982,154.903
lg,1625188669034984983,0,0.1182,-0.4255,1.2417,157,-10.9253,-31.9214,98.5718,93,1.4937,1.5317,18.5208,-45.3325,35,0.2421,8442,3.982,159.0577
lg,1625188669035001964,0,-0.0173,-1.0015,1.0234,158,-57.1289,-80.3833,44.1895,93,1.4897,1.5297,16.8657,-46.4287,35,0.2401,8543,3.982,162.7956
lg,1625188669035019446,0,0.3171,-0.9583,0.563,159,-24.231,-102.0508,9.7046,93,1.4897,1.5297,13.1524,-47.0288,35,0.2401,9391,3.982,166.0093
lg,1625188669035037261,0,0.228,-0.9727,0.6169,160,-13.0615,-33.7524,-11.8408,93,1.4907,1.5317,11.1255,-47.6107,35,0.2431,8951,3.982,166.6543
lg,1625188669417623223,0,0.2126,-0.8777,0.697,161,15.3809,54.0161,-40.8325,93,1.5047,1.5378,10.52,-47.6582,34,0.2421,26315,3.982,163.8781
lg,1625188669417672631,0,0.011,-0.9543,0.5371,162,8.9111,86.0596,-83.0078,93,1.5177,1.5368,9.9008,-48.6711,34,0.2421,14989,3.982,158.9342
lg,1625188669417703575,0,-0.0327,-0.9041,0.627,163,25.5127,74.646,-98.5718,93,1.5137,1.5307,8.5783,-48.6947,34,0.2401,10296,3.982,153.9857
lg,1625188669417733205,0,-0.053,-0.9062,0.3064,164,26.4893,41.687,-122.4365,93,1.5007,1.5167,5.7928,-49.0708,35,0.2371,8303,3.982,149.3534
lg,1625188669417761686,0,-0.0588,-0.7007,0.0015,165,42.1753,-5.0049,-95.6421,93,1.4927,1.5017,2.7917,-49.04,35,0.2341,9730,3.982,146.8499
lg,1625188669417843983,0,-0.0188,-0.5647,0.0596,166,41.3818,8.4229,-37.8418,93,1.4907,1.4957,1.8567,-48.7318,35,0.2361,7889,3.982,145.5386
lg,1625188669417874557,0,-0.1272,-0.5156,0.4563,167,-7.6904,83.9844,100.1587,93,1.4937,1.5007,7.4016,-49.0091,35,0.2411,9125,3.982,145.631
lg,1625188669417902538,0,-0.5281,-0.9326,0.5505,168,-65.7349,43.9453,170.0439,93,1.5017,1.5087,14.4536,-51.4232,35,0.2381,8504,3.982,148.6028
lg,1625188669417930020,0,-0.7808,-0.9824,0.3694,169,-72.7539,-15.4419,194.0918,93,1.5017,1.5167,20.3577,-52.1482,35,0.2401,8705,3.982,156.6442
lg,1625188669417957594,0,0.0498,-0.4246,1.5159,170,-25.2075,-193.6646,226.1963,93,1.4767,1.5147,21.5477,-47.2067,35,0.2361,12703,3.982,169.6677
lg,1625188669417984483,0,0.2771,-0.8735,0.6187,171,-122.9858,-302.2461,118.4692,93,1.4687,1.5127,15.648,-48.3247,35,0.2311,8118,3.982,-177.6829
lg,1625188669418011464,0,1.1309,-1.363,0.8276,172,-141.0522,-401.6724,96.6187,93,1.4697,1.5137,4.7186,-50.6278,35,0.2301,8824,3.982,-164.8179
lg,1625188669418038668,0,0.9968,-1.4534,0.6897,173,-87.6465,-240.1123,-3.1738,93,1.4717,1.5147,-2.529,-54.4159,35,0.2301,8163,3.982,-157.2847
lg,1625188669418065205,0,0.876,-1.2065,0.3706,174,15.625,-14.4043,1.2207,93,1.4737,1.5157,-4.0358,-54.3907,35,0.2311,9927,3.982,-156.7634
lg,1625188669418094131,0,0.605,-0.8438,0.488,175,64.0869,156.4331,-6.5918,93,1.4757,1.5177,-1.5726,-51.7547,35,0.2341,9213,3.982,-161.9489
lg,1625188669418121112,0,-0.0835,-0.8293,0.5024,176,74.5239,287.3535,-6.8359,93,1.4787,1.5197,5.7159,-49.3874,35,0.2351,9452,3.982,-170.9714
lg,1625188669418147538,0,-0.501,-0.7388,0.5078,177,67.8711,251.3428,-7.2632,93,1.4827,1.5217,12.9785,-48.1552,35,0.2371,8519,3.982,-178.8233
lg,1625188669418173594,0,-0.5566,-0.6702,0.4988,178,54.8706,196.0449,-7.3853,93,1.4867,1.5237,18.7675,-47.8401,35,0.2391,8195,3.982,-185.1208
lg,1625188669418198612,0,-0.5227,-0.6685,0.5068,179,24.8413,74.4019,-6.958,93,1.4947,1.5257,21.0567,-47.8789,35,0.2381,8952,3.982,-187.7249
lg,1625188669418224723,0,-0.2996,-0.7505,0.489,180,1.6479,-16.9678,2.9297,93,1.5007,1.5267,20.5946,-47.9416,35,0.2401,8433,3.982,-187.2276
lg,1625188669418250445,0,-0.0298,-0.8506,0.6172,181,-1.6479,-41.9312,8.3008,93,1.5077,1.5257,18.2902,-47.3456,35,0.2431,8234,3.982,-184.9948
lg,1625188669418275871,0,0.1245,-0.8394,0.6414,182,3.2959,-86.853,-3.418,93,1.5127,1.5207,14.8773,-46.6911,35,0.2441,9035,3.982,-182.5072
lg,1625188669418301760,0,0.1917,-0.981,0.5249,183,-3.479,-77.8198,-30.7617,93,1.5127,1.5157,10.937,-47.0911,35,0.2451,9079,3.982,-181.1829
lg,1625188669418328371,0,0.3425,-1.0613,0.4429,184,17.395,-59.6313,-14.8926,93,1.5127,1.5127,7.8611,-46.9294,35,0.2451,10865,3.982,-179.9695
lg,1625188669418353408,0,0.3938,-0.8638,0.446,185,24.1089,-8.2397,0.4883,93,1.5147,1.5137,6.528,-46.5031,35,0.2491,8375,3.982,-179.7988
lg,1625188669418378353,0,0.0811,-0.9631,0.7,186,-10.1929,62.1338,59.7534,93,1.5197,1.5207,9.5484,-47.222,35,0.2501,8697,3.982,-180.0198
lg,1625188669418403779,0,-0.2056,-0.7534,0.6306,187,-2.7466,76.0498,81.9702,93,1.5117,1.5247,14.3179,-46.88,35,0.2471,8742,3.982,-179.991
lg,1625188669418446279,0,-0.3362,-0.603,0.7883,188,14.6484,71.8994,84.4727,93,1.4947,1.5247,18.9069,-45.8393,35,0.2411,8412,3.982,-179.6445
lg,1625188669418550760,0,-0.2966,-0.5803,0.8311,189,-26.4282,-22.2168,90.1489,93,1.4807,1.5257,20.7659,-45.3023,35,0.2381,8496,3.982,-176.145
lg,1625188669418582353,0,0.0754,-0.793,0.4299,190,-39.856,-132.3242,30.8838,93,1.4757,1.5237,17.0186,-45.9568,35,0.2371,8466,3.982,-171.4609
lg,1625188669418610853,0,0.0781,-1.1138,0.7136,191,-58.4717,-105.957,26.5503,93,1.4727,1.5227,14.3592,-46.9982,35,0.2371,8930,3.982,-168.0821
lg,1625188669418639927,0,0.1677,-0.9536,0.582,192,-7.6294,-38.3911,10.9253,93,1.4717,1.5237,12.7675,-47.4128,35,0.2371,9318,3.982,-166.728
lg,1625188669793126538,0,0.2151,-1.0232,0.6169,193,14.1602,62.561,-9.7046,93,1.4887,1.5277,13.2795,-47.7825,35,0.2431,26768,3.982,-168.9958
lg,1625188669793222982,0,0.0901,-0.9392,0.5908,194,25.8179,94.7266,-33.6304,93,1.5017,1.5297,14.1114,-48.0537,35,0.2451,9036,3.982,-172.9132
lg,1625188669793245945,0,-0.0317,-0.8362,0.5977,195,27.8931,95.9473,-69.9463,93,1.5117,1.5297,14.0834,-48.3777,35,0.2481,10936,3.982,-177.8463
lg,1625188669793302519,0,-0.0925,-0.834,0.3289,196,24.292,59.5093,-95.6421,93,1.5097,1.5247,12.4717,-49.214,35,0.2481,9827,3.982,-182.462
lg,1625188669793324427,0,-0.1858,-0.7915,0.0986,197,11.4136,8.667,-93.689,93,1.5087,1.5247,9.9317,-50.5302,35,0.2501,7972,3.982,-185.457
lg,1625188669793343334,0,-0.24,-0.8159,0.2983,198,-10.9253,11.7798,-36.8652,93,1.5137,1.5297,9.1254,-51.4731,35,0.2561,7914,3.982,-186.8175
lg,1625188669793362334,0,-0.2939,-0.8462,0.5249,199,-33.6304,24.0479,114.502,93,1.5157,1.5337,13.6062,-52.6493,35,0.2521,7941,3.982,-184.7744
lg,1625188669793382538,0,-0.7546,-0.905,0.5889,200,-10.3149,6.1646,127.9297,93,1.5077,1.5347,18.6294,-52.3485,35,0.2501,8183,3.982,-181.7776
lg,1625188669793400297,0,-0.104,-0.1868,0.635,201,8.3008,-53.4668,118.7134,93,1.5007,1.5337,16.7633,-47.4691,35,0.2461,8559,3.982,-173.6484
lg,1625188669793418464,0,0.0835,-0.2366,0.3674,202,-36.9873,-224.7314,57.7393,93,1.4947,1.5307,11.0799,-46.8764,35,0.2411,8020,3.982,-165.2462
lg,1625188669793441538,0,0.4844,-1.0518,0.5813,203,-108.5815,-300.1099,28.9307,93,1.4917,1.5277,2.865,-50.5289,35,0.2401,8067,3.982,-155.4935
lg,1625188669793461760,0,0.3887,-1.4548,0.5881,204,-67.0166,-146.6675,10.8643,93,1.4917,1.5257,-1.0187,-53.7563,35,0.2381,8098,3.982,-150.6097
lg,1625188669793479334,0,0.4487,-1.2717,0.511,205,-12.3901,-82.2754,15.8081,93,1.4897,1.5257,-3.3145,-54.5486,35,0.2371,8184,3.982,-147.56
lg,1625188669793497130,0,0.4736,-0.7869,0.6172,206,35.0342,26.2451,19.3481,93,1.4887,1.5247,-2.9265,-53.0212,35,0.2381,8219,3.982,-147.9737
lg,1625188669793515964,0,0.1741,-0.8533,0.5054,207,25.8789,85.2661,20.2026,93,1.4907,1.5267,-0.5059,-52.1566,35,0.2411,8104,3.982,-150.1901
lg,1625188669793534427,0,0.0649,-0.9517,0.5798,208,24.6582,89.8438,19.3481,93,1.4927,1.5287,2.2499,-51.4498,35,0.2441,8151,3.982,-152.5409
lg,1625188669793553667,0,0.0623,-0.9219,0.5776,209,31.1279,76.9043,8.1787,93,1.4967,1.5297,4.2075,-50.5756,35,0.2461,8386,3.982,-154.7467
lg,1625188669793570464,0,0.1003,-0.8521,0.5627,210,29.2969,62.1338,-12.2681,93,1.5047,1.5327,5.0247,-49.811,35,0.2481,8241,3.982,-157.0004
lg,1625188669793588464,0,0.0396,-0.8848,0.5146,211,25.6348,57.0679,-27.3438,93,1.5127,1.5337,4.9471,-49.3642,35,0.2481,8254,3.982,-159.6055
lg,1625188669793605927,0,0.0916,-0.8623,0.5779,212,38.3911,38.6963,-41.2598,93,1.5157,1.5287,4.3259,-48.273,35,0.2521,8365,3.982,-161.8908
lg,1625188669793622723,0,0.1895,-0.855,0.5945,213,39.2456,28.0151,-69.3359,93,1.5087,1.5227,2.4534,-47.1255,35,0.2481,8328,3.982,-164.6135
lg,1625188669793722797,0,0.1304,-0.9075,0.3391,214,44.5557,42.9077,-71.8384,93,1.5007,1.5147,1.1425,-46.2954,35,0.2441,8281,3.982,-167.8717
lg,1625188669793746908,0,0.1501,-0.854,0.3447,215,49.4995,56.9458,-46.3867,93,1.4957,1.5067,0.9883,-45.195,35,0.2441,8299,3.982,-170.8197
lg,1625188669793766816,0,-0.2588,-0.7856,0.7219,216,4.3945,129.6387,63.5986,93,1.4997,1.5087,6.9154,-45.225,35,0.2491,12463,3.982,-172.7229
lg,1625188669793786260,0,-0.3682,-0.8533,0.8606,217,-5.249,108.5205,89.9048,93,1.5067,1.5147,12.5285,-45.6056,35,0.2481,8409,3.982,-172.1096
lg,1625188669793806501,0,-0.6025,-0.751,0.6174,218,-15.8691,30.5786,100.647,93,1.5057,1.5197,17.002,-45.8913,35,0.2461,8398,3.982,-170.1571
lg,1625188669793824853,0,-0.7358,-0.7051,0.5627,219,-37.3535,-57.373,130.3101,93,1.4847,1.5237,20.0029,-45.7803,35,0.2421,8457,3.982,-164.648
lg,1625188669793843964,0,0.1711,-0.3101,1.0659,220,-45.2271,-202.2095,115.4175,93,1.4767,1.5207,16.5204,-43.461,35,0.2371,9907,3.982,-154.8384
lg,1625188669793863038,0,0.323,-1.0889,0.9036,221,-117.1875,-259.1553,39.4287,93,1.4717,1.5197,9.2431,-46.4659,35,0.2321,8517,3.982,-146.2511
lg,1625188669793881816,0,0.5999,-1.1768,0.7559,222,-90.3931,-285.7056,17.9443,93,1.4727,1.5187,0.9845,-49.6523,35,0.2291,8541,3.982,-137.2965
lg,1625188669793925427,0,0.4844,-1.3118,0.7053,223,-39.856,-85.144,-19.8364,93,1.4737,1.5197,-2.51,-51.6955,35,0.2281,8526,3.982,-135.1554
lg,1625188669793947760,0,0.384,-0.9382,0.3743,224,22.644,32.5928,-17.8223,93,1.4737,1.5217,-2.9781,-51.317,35,0.2301,9454,3.982,-136.5998
lg,1625188670148885815,0,-0.0588,-0.8562,0.573,225,30.3345,97.1069,-8.2397,93,1.4837,1.5277,-0.5451,-50.1887,35,0.2351,27105,3.982,-139.8094
lg,1625188670148939760,0,-0.0491,-0.8464,0.4905,226,20.0806,55.2368,-30.3345,93,1.4907,1.5307,0.0739,-49.7484,35,0.2371,8520,3.982,-142.278
lg,1625188670148977927,0,-0.0437,-0.8752,0.5022,227,16.9067,38.5742,-38.5132,93,1.5007,1.5337,-0.0094,-49.4731,35,0.2381,7796,3.982,-144.4508
lg,1625188670148999686,0,0.0061,-0.9158,0.5361,228,16.1133,8.9111,-42.2363,93,1.5137,1.5317,-1.864,-48.7069,35,0.2421,8534,3.982,-145.3586
lg,1625188670149019889,0,0.2673,-0.8811,0.5442,229,37.9028,-28.8696,-57.0068,93,1.5107,1.5277,-4.8215,-47.5113,35,0.2421,7977,3.982,-146.011
lg,1625188670149039352,0,0.2832,-0.9009,0.5354,230,36.9873,-6.1646,-73.0591,93,1.5047,1.5227,-7.5289,-46.277,35,0.2391,7831,3.982,-147.8004
lg,1625188670149058797,0,0.2808,-0.8516,0.3855,231,44.9829,19.5312,-61.5234,93,1.4997,1.5187,-9.118,-44.8652,35,0.2391,7895,3.982,-150.0127
lg,1625188670149077945,0,0.0977,-0.6841,0.3752,232,27.2217,91.2476,-2.1362,93,1.5007,1.5187,-6.5226,-44.0498,35,0.2441,8519,3.982,-152.5584
lg,1625188670149095982,0,-0.137,-0.8071,0.865,233,-12.0239,127.2583,82.3364,93,1.5077,1.5237,-0.0911,-44.4092,35,0.2461,9976,3.982,-153.7696
lg,1625188670149114556,0,-0.4563,-0.8149,0.5732,234,-26.8555,76.7822,106.4453,93,1.5107,1.5297,6.0197,-45.8039,35,0.2441,8774,3.982,-152.9616
lg,1625188670149140704,0,-0.6409,-0.7432,0.6895,235,-27.2827,39.4287,119.873,93,1.4977,1.5317,11.2066,-46.1933,35,0.2401,8705,3.982,-149.4109
lg,1625188670149159704,0,-0.3667,-0.6035,1.1726,236,-23.5596,-31.4331,146.9116,93,1.4877,1.5287,14.2083,-44.9976,35,0.2371,8002,3.982,-144.095
lg,1625188670149177704,0,0.0808,-0.937,1.0784,237,-91.6138,-187.3169,63.0493,93,1.4867,1.5247,10.1662,-46.939,35,0.2361,14534,3.982,-136.7453
lg,1625188670149195278,0,0.3271,-1.1145,0.5413,238,-61.0352,-181.1523,5.7373,93,1.4867,1.5267,4.5906,-49.2942,35,0.2381,8135,3.982,-131.2487
lg,1625188670149213612,0,0.3325,-1.1316,0.5481,239,-13.1226,-53.5278,1.0376,93,1.4877,1.5287,2.4993,-50.2642,35,0.2391,8862,3.982,-129.621
lg,1625188670149231741,0,0.4309,-1.0146,0.5154,240,9.5215,-18.4937,8.606,93,1.4897,1.5317,1.401,-50.3178,35,0.2411,8088,3.982,-128.8532
lg,1625188670149249445,0,0.4209,-0.8528,0.5774,241,23.6206,57.7393,-3.8452,93,1.4947,1.5337,1.8489,-49.6222,35,0.2431,8628,3.982,-130.7374
lg,1625188670149266760,0,0.2302,-0.8765,0.5481,242,20.752,101.0132,-24.6582,93,1.5027,1.5368,3.146,-49.2677,35,0.2441,9716,3.982,-134.4687
lg,1625188670149285075,0,0.0369,-0.9302,0.5391,243,20.874,106.5063,-44.8608,93,1.5107,1.5378,4.3544,-49.1321,35,0.2461,8135,3.982,-138.9003
lg,1625188670149302389,0,-0.0615,-0.9016,0.4775,244,24.292,98.938,-54.2603,93,1.5167,1.5378,5.2594,-49.0331,35,0.2481,8163,3.982,-143.3664
lg,1625188670149319797,0,-0.0637,-0.6917,0.3604,245,45.9595,45.2271,-61.4624,93,1.5157,1.5347,4.5929,-47.9732,35,0.2501,8211,3.982,-146.4068
lg,1625188670149336852,0,-0.1038,-0.7185,0.4834,246,24.0479,31.6162,-48.2788,93,1.5167,1.5317,4.1003,-47.4908,35,0.2521,8946,3.982,-148.6704
lg,1625188670149353704,0,-0.2312,-0.7837,0.3977,247,16.2354,33.9966,-18.1274,93,1.5187,1.5327,6.1097,-47.9778,35,0.2561,8341,3.982,-149.0069
lg,1625188670149372167,0,-0.2993,-0.9297,0.7378,248,-17.0288,27.5269,66.2842,93,1.5227,1.5357,9.1307,-48.659,35,0.2581,8620,3.982,-148.0798
lg,1625188670149410612,0,-0.3513,-0.8948,0.6724,249,-21.0571,-17.8223,112.6099,93,1.5187,1.5388,12.376,-48.9918,35,0.2531,8324,3.982,-144.5505
lg,1625188670149431797,0,-0.272,-0.6479,0.5913,250,-25.2075,-86.4258,100.5249,93,1.5097,1.5388,13.3304,-48.7331,35,0.2511,9083,3.982,-139.1569
lg,1625188670149449260,0,-0.0222,-0.5518,0.5144,251,-25.6958,-111.5112,91.3696,93,1.5037,1.5398,10.9088,-48.5985,35,0.2491,8350,3.982,-132.4552
lg,1625188670149466241,0,0.0161,-0.8914,0.7439,252,-69.2139,-177.6123,72.3877,93,1.5007,1.5398,7.5968,-50.2806,35,0.2481,9178,3.982,-125.096
lg,1625188670149484297,0,0.5188,-1.1062,0.5752,253,-52.9785,-196.7773,47.1191,93,1.4987,1.5398,3.0321,-52.15,35,0.2481,8399,3.982,-117.7989
lg,1625188670149501797,0,0.6423,-1.0862,0.7498,254,-11.8408,-54.1992,19.3481,93,1.4997,1.5408,1.2297,-52.6404,35,0.2491,8461,3.982,-115.6099
lg,1625188670149518964,0,0.5803,-0.9531,0.6169,255,14.8926,40.7715,-10.8643,93,1.5037,1.5428,0.7979,-52.2197,35,0.2501,9442,3.982,-117.1794
lg,1625188670149660704,0,0.3022,-0.9575,0.6108,256,23.0713,104.9194,-53.5889,93,1.5117,1.5448,1.0717,-51.5633,35,0.2501,10234,3.982,-121.8128
lg,1625188702980914442,0,-0.1892,-0.7781,0.1792,257,38.147,85.8154,-108.1543,93,1.5217,1.5357,0.3166,-51.0453,35,0.2511,25655,3.982,-127.2036
lg,1625188702980964627,0,-0.5359,-0.6426,0.3774,258,19.9585,58.6548,-9.0332,93,1.5227,1.5337,2.8254,-50.5689,35,0.2551,13665,3.982,-129.246
lg,1625188702980986998,0,-0.5654,-0.8479,0.5859,259,-37.2925,0.1221,104.0649,93,1.5247,1.5378,7.0613,-51.9888,35,0.2571,8179,3.982,-126.6649
lg,1625188702981006739,0,-0.5466,-0.8704,0.658,260,-44.7388,-48.4009,131.5308,93,1.5187,1.5418,10.7067,-53.204,35,0.2531,8192,3.982,-121.9136
lg,1625188702981025831,0,-0.2883,-0.6829,0.4543,261,-34.729,-146.2402,135.9863,93,1.5087,1.5418,11.0518,-52.2397,35,0.2501,10162,3.982,-113.6845
lg,1625188702981043961,0,0.1226,-0.5579,0.3582,262,-50.1709,-235.4736,80.3223,93,1.5027,1.5398,7.0855,-52.9291,35,0.2461,8307,3.9842,-104.1847
lg,1625188702981062498,0,0.3804,-1.1064,0.6604,263,-98.7549,-252.8076,84.5947,91,1.4987,1.5347,3.1121,-56.189,35,0.2441,8648,3.9842,-93.9795
lg,1625188702981083183,0,0.7458,-1.2908,0.687,264,-55.3589,-187.3779,45.0439,91,1.4967,1.5327,-0.5309,-58.4181,35,0.2421,8340,3.9842,-86.6964
lg,1625188702981100368,0,0.863,-1.1707,0.5623,265,-32.4707,-119.1406,25.7568,91,1.4967,1.5327,-3.3023,-60.0495,35,0.2421,8336,3.9842,-82.0557
lg,1625188702981126090,0,0.8618,-1.1233,0.6501,266,16.1133,25.8179,20.874,91,1.4987,1.5378,-3.2095,-59.364,35,0.2441,9138,3.9842,-82.5418
lg,1625188702981212609,0,0.5283,-0.9465,0.3716,267,37.6587,129.4556,-19.104,91,1.5007,1.5357,-2.1231,-57.9459,35,0.2471,8711,3.9842,-87.3664
lg,1625188702981231165,0,0.0044,-0.9128,0.4692,268,55.8472,203.186,-42.1143,91,1.5047,1.5378,0.9478,-55.8208,35,0.2501,8404,3.9842,-95.0788
lg,1625188702981251350,0,-0.1465,-0.8752,0.5347,269,57.9224,204.7119,-47.0581,91,1.5117,1.5408,4.3679,-53.9669,35,0.2501,8366,3.9842,-102.8565
lg,1625188702981269590,0,-0.208,-0.8162,0.564,270,48.7671,152.2217,-64.3311,91,1.5167,1.5418,6.2136,-52.6527,35,0.2511,8753,3.9842,-109.299
lg,1625188702981290998,0,-0.0754,-0.8218,0.5161,271,42.7246,85.9985,-80.5664,91,1.5187,1.5388,5.699,-51.6319,35,0.2501,8051,3.9842,-114.0361
lg,1625188702981321868,0,-0.0632,-0.9397,0.1865,272,26.7334,52.1851,-93.3228,91,1.5077,1.5327,3.9999,-51.9272,35,0.2441,9906,3.9842,-118.0961
lg,1625188702981340183,0,-0.0747,-0.8076,0.3594,273,44.5557,56.6406,-52.7344,91,1.4987,1.5267,3.7939,-50.9001,35,0.2411,10502,3.9842,-121.2258
lg,1625188702981357165,0,-0.0583,-0.6863,0.3845,274,42.4194,84.1675,-1.5259,91,1.4967,1.5247,5.8999,-49.8068,35,0.2461,8164,3.9842,-123.8959
lg,1625188702981374572,0,-0.1084,-0.7563,0.5906,275,-3.1738,78.7354,78.186,91,1.4997,1.5277,10.3224,-50.0661,35,0.2501,8929,3.9842,-124.3166
lg,1625188702981391553,0,-0.3049,-0.8567,0.468,276,-16.7847,50.293,112.9761,91,1.5077,1.5317,15.3533,-50.857,35,0.2471,8972,3.9842,-123.0492
lg,1625188702981408979,0,-0.6345,-0.7996,0.5181,277,-14.0991,-10.376,119.4458,91,1.5097,1.5347,19.4959,-50.5694,35,0.2441,8213,3.9842,-119.6041
lg,1625188702981426646,0,-0.7373,-0.7314,0.5601,278,-12.8784,-49.9878,128.2349,91,1.4987,1.5368,21.7916,-48.7554,35,0.2391,8950,3.9842,-112.1392
lg,1625188702981443739,0,-0.1089,-0.3184,1.0154,279,-32.2876,-192.3828,142.9443,91,1.4937,1.5357,20.2278,-45.1216,35,0.2371,8259,3.9842,-101.4952
lg,1625188702981464220,0,0.1917,-0.9468,0.6418,280,-97.229,-286.1328,77.4536,91,1.4907,1.5347,13.3931,-46.3025,35,0.2341,8363,3.9842,-90.8521
lg,1625188702981482924,0,0.9929,-1.3167,0.6228,281,-74.0356,-303.4668,46.5088,91,1.4927,1.5368,6.7075,-47.8523,35,0.2351,14426,3.9842,-84.5403
lg,1625188702981500665,0,0.8125,-1.1135,0.5129,282,25.6958,10.2539,-12.3291,91,1.4937,1.5378,5.1598,-47.4481,35,0.2361,10633,3.9842,-85.2535
lg,1625188702981535442,0,0.6616,-0.957,0.4971,283,49.5605,80.3833,-15.9302,91,1.4957,1.5398,5.5325,-46.2298,35,0.2391,8464,3.9842,-88.1134
lg,1625188702981553535,0,0.2324,-0.7649,0.5532,284,65.0024,198.6084,-27.0386,91,1.4967,1.5408,9.5442,-44.7856,35,0.2411,8812,3.9842,-94.6343
lg,1625188702981584220,0,-0.1702,-0.7617,0.5911,285,58.4717,225.8301,-22.7661,91,1.5007,1.5418,15.3236,-44.2812,35,0.2431,8479,3.9842,-101.8298
lg,1625188702981612387,0,-0.4324,-0.6948,0.5476,286,47.0581,180.7251,-18.4937,91,1.5067,1.5428,20.3611,-44.4675,35,0.2441,9925,3.9842,-107.7704
lg,1625188702981630535,0,-0.4734,-0.6169,0.6499,287,28.1372,98.2056,-6.897,91,1.5107,1.5428,23.2424,-44.476,35,0.2481,8876,3.9842,-110.9362
lg,1625188702981647702,0,-0.4216,-0.6372,0.6326,288,15.1367,55.1758,0.7935,91,1.5147,1.5418,24.7355,-44.6354,35,0.2511,8912,3.9842,-112.6448
lg,1625188703458295646,0,-0.1199,-0.9067,0.5876,289,-35.0952,-100.647,54.3213,91,1.5177,1.5448,22.7134,-44.6299,35,0.2571,25234,3.9842,-108.0833
lg,1625188703458337090,0,0.2859,-0.6956,0.6372,290,-24.353,-118.1641,51.3916,91,1.5177,1.5448,19.3361,-43.8766,35,0.2581,8793,3.9842,-103.0246
lg,1625188703458358016,0,0.2129,-1.0852,0.7295,291,-43.8232,-77.6978,42.3584,91,1.5177,1.5448,17.2422,-44.9909,35,0.2581,7816,3.9842,-99.6115
lg,1625188703458378627,0,0.3677,-1.0186,0.5527,292,-7.9346,-45.7153,10.6812,91,1.5187,1.5458,14.9923,-45.475,35,0.2581,12114,3.9842,-98.1303
lg,1625188703458397942,0,0.2888,-0.9165,0.5327,293,3.2349,6.897,-15.7471,91,1.5197,1.5468,13.6033,-46.0588,35,0.2581,8636,3.9842,-98.9277
lg,1625188703458416238,0,0.1946,-0.8928,0.5867,294,8.7891,37.9028,-36.1938,91,1.5217,1.5458,12.6822,-46.6107,35,0.2561,10919,3.9842,-101.176
lg,1625188703458433868,0,0.1562,-0.9106,0.4114,295,9.0332,44.2505,-50.1709,91,1.5227,1.5448,11.6008,-47.5624,35,0.2561,7898,3.9842,-104.0576
lg,1625188703458451998,0,0.1042,-0.8965,0.2249,296,14.5264,42.2974,-60.4248,91,1.5237,1.5428,10.2738,-48.6207,35,0.2551,8090,3.9842,-107.1969
lg,1625188703458470238,0,-0.0037,-0.8486,0.3818,297,41.3208,44.7998,-34.3018,91,1.5237,1.5428,10.0537,-48.0463,35,0.2561,7892,3.9842,-109.6072
lg,1625188703458488016,0,-0.2146,-0.7539,0.511,298,16.8457,80.2002,17.7612,91,1.5257,1.5438,12.8398,-48.0572,35,0.2581,8329,3.9842,-111.6153
lg,1625188703458505905,0,-0.4915,-0.8167,0.6558,299,-11.2305,41.3818,70.1904,91,1.5237,1.5458,16.5066,-48.4456,35,0.2501,11573,3.9842,-110.9925
lg,1625188703458522942,0,-0.5044,-0.6223,0.6975,300,-13.916,-39.5508,96.0693,91,1.5167,1.5468,18.7725,-47.5495,35,0.2471,9406,3.9842,-106.9879
lg,1625188703458540868,0,-0.1548,-0.363,0.9849,301,-14.8926,-98.1445,92.5293,91,1.5127,1.5468,17.9382,-45.9523,35,0.2431,8132,3.9842,-101.1894
lg,1625188703458558294,0,0.3953,-1.071,0.7544,302,-92.1021,-211.1206,63.4155,91,1.5097,1.5458,12.7695,-47.7979,35,0.2411,11711,3.9842,-93.0992
lg,1625188703458575553,0,0.5811,-1.2095,0.6345,303,-74.2188,-196.9604,55.6641,91,1.5087,1.5438,7.9358,-49.8484,35,0.2401,8768,3.9842,-85.6693
lg,1625188703458594312,0,0.687,-1.2195,0.7017,304,-17.5171,-36.1938,39.856,91,1.5077,1.5428,6.9739,-50.6166,35,0.2391,8309,3.9842,-83.5636
lg,1625188703458612294,0,0.5564,-0.9573,0.6589,305,22.4609,69.9463,19.5923,91,1.5087,1.5438,8.129,-50.1049,35,0.2411,8573,3.9842,-85.2677
lg,1625188703458629738,0,0.1787,-0.8997,0.498,306,23.4985,130.8594,-8.4229,91,1.5097,1.5438,10.5016,-50.2816,35,0.2441,8500,3.9842,-89.6271
lg,1625188703458647646,0,0.0178,-0.9067,0.5137,307,22.4609,140.564,-17.0288,91,1.5127,1.5458,13.2528,-50.6754,35,0.2471,9088,3.9842,-94.559
lg,1625188703458664886,0,-0.1011,-0.8633,0.5505,308,23.1934,126.4648,-27.2217,91,1.5187,1.5478,14.6134,-51.2103,35,0.2481,10556,3.9842,-98.8218
lg,1625188703458682386,0,-0.1064,-0.8154,0.5393,309,14.8926,84.1064,-35.6445,91,1.5217,1.5478,15.2474,-51.7596,35,0.2471,8538,3.9842,-102.5184
lg,1625188703458699849,0,-0.0371,-0.8364,0.3655,310,9.2773,35.7056,-50.2319,91,1.5207,1.5458,14.0392,-52.5879,35,0.2421,8668,3.9842,-105.1077
lg,1625188703458747609,0,-0.1169,-0.8318,0.1589,311,7.2021,-11.1694,-68.2983,91,1.5187,1.5438,11.3999,-53.6117,35,0.2451,8992,3.9842,-106.6642
lg,1625188703458769886,0,-0.2102,-0.8201,0.2124,312,20.1416,15.0146,19.043,91,1.5197,1.5438,12.4949,-53.6428,35,0.2481,9088,3.9842,-106.8642
lg,1625188703458788627,0,-0.2805,-0.8911,0.7061,313,4.9438,20.6299,70.9229,91,1.5247,1.5458,15.8222,-53.2889,35,0.2581,9784,3.9842,-104.7277
lg,1625188703458806961,0,-0.3203,-0.8464,0.6702,314,-7.9346,-14.8315,107.0557,91,1.5217,1.5488,18.9025,-52.5698,35,0.2571,9016,3.9842,-101.5152
lg,1625188703458824924,0,-0.1802,-0.6624,0.6277,315,-19.6533,-83.313,116.9434,91,1.5127,1.5488,20.2256,-51.1323,35,0.2531,8367,3.9842,-95.594
lg,1625188703458843238,0,0.2151,-0.572,0.3879,316,-22.4609,-154.48,55.6641,91,1.5127,1.5498,16.6719,-50.1438,35,0.2511,8363,3.9842,-89.1475
lg,1625188703458992572,0,0.2275,-0.9077,0.8406,317,-68.1152,-138.4277,51.4526,91,1.5107,1.5478,13.0975,-51.2033,35,0.2501,8425,3.9842,-82.8601
lg,1625188703459083775,0,0.6079,-1.1904,0.6099,318,-45.5322,-127.9297,36.438,91,1.5107,1.5468,9.7248,-52.4377,35,0.2511,8822,3.9842,-77.9206
lg,1625188703459107386,0,0.4126,-1.1899,0.686,319,8.0566,29.7852,7.1411,91,1.5057,1.5478,9.6616,-52.5294,35,0.2521,8865,3.9842,-78.7552
lg,1625188703459132127,0,0.1462,-0.8474,0.5579,320,41.8091,123.5962,-0.3052,91,1.5097,1.5468,11.9669,-51.7618,35,0.2551,8488,3.9842,-82.7755
lg,1625188703709977942,0,-0.0759,-0.905,0.5645,321,16.6016,96.4966,-26.4282,91,1.5187,1.5498,12.5809,-52.3062,35,0.2561,26442,3.9842,-86.4224
lg,1625188703710018757,0,-0.0762,-0.9092,0.5823,322,10.376,75.9277,-41.9922,91,1.5247,1.5508,12.7568,-52.8424,35,0.2551,9203,3.9842,-89.9801
lg,1625188703710039072,0,-0.0632,-0.9294,0.541,323,14.9536,50.9644,-55.2979,91,1.5257,1.5488,11.8408,-53.1605,35,0.2551,8601,3.9842,-93.0667
lg,1625188703710057720,0,-0.1768,-0.8987,0.1233,324,19.6533,6.6528,-71.8384,91,1.5247,1.5448,9.7127,-53.8344,35,0.2531,10132,3.9842,-95.2438
lg,1625188703710076109,0,-0.1768,-0.7351,0.1877,325,38.7573,-30.3955,-29.48,91,1.5237,1.5408,8.208,-53.0651,35,0.2511,10278,3.9842,-95.0994
lg,1625188703710093683,0,-0.1321,-0.6597,0.4272,326,12.8784,3.54,51.4526,91,1.5257,1.5408,9.9815,-52.5156,35,0.2581,7981,3.9842,-93.9786
lg,1625188703710111516,0,-0.2595,-1.0662,0.6956,327,-26.001,-1.3428,84.2896,91,1.5277,1.5448,12.9842,-53.4891,35,0.2671,8468,3.9842,-90.5084
lg,1625188703710129683,0,-0.1897,-0.8909,0.5217,328,-21.7896,-76.9043,126.0986,91,1.5167,1.5478,15.1005,-53.221,35,0.2621,12193,3.9842,-84.9251
lg,1625188703710147683,0,-0.1545,-0.5938,0.6694,329,-21.3623,-95.3979,107.2998,91,1.5047,1.5478,16.0042,-52.0204,35,0.2531,7977,3.9842,-78.9557
lg,1625188703710165757,0,0.1802,-0.4497,0.8516,330,-33.4473,-145.5078,98.2056,91,1.4977,1.5458,14.4242,-51.9865,35,0.2491,8879,3.9842,-71.8554
lg,1625188703710184201,0,0.3044,-1.178,0.9041,331,-77.3315,-182.9834,69.5801,91,1.4937,1.5428,11.2331,-53.3711,35,0.2471,8718,3.9842,-64.1565
lg,1625188703710201868,0,0.7319,-1.1326,0.5898,332,-20.874,-133.2397,23.2544,91,1.4937,1.5428,7.3478,-53.7129,35,0.2471,8352,3.9842,-59.3112
lg,1625188703710219534,0,0.4985,-0.9775,0.6709,333,23.6816,25.8789,-13.2446,91,1.4947,1.5438,6.3968,-52.9636,35,0.2501,8653,3.9842,-60.4846
lg,1625188703710237849,0,0.3284,-0.905,0.6038,334,30.3955,59.8755,-27.5269,91,1.4977,1.5458,6.0747,-52.148,35,0.2561,8027,3.9842,-63.0938
lg,1625188703710326368,0,0.0247,-0.8865,0.6145,335,32.6538,111.8164,-51.4526,91,1.5067,1.5478,7.0891,-51.4742,35,0.2581,8467,3.9842,-67.9226
lg,1625188703710347053,0,-0.1458,-0.8577,0.5103,336,30.2124,117.4927,-54.5654,91,1.5147,1.5488,7.8442,-51.4015,35,0.2561,8797,3.9842,-72.9986
lg,1625188703710395220,0,-0.1978,-0.7617,0.3562,337,25.8789,84.2896,-73.4863,91,1.5197,1.5488,7.855,-51.4964,35,0.2561,8533,3.9842,-77.5767
lg,1625188703710415794,0,-0.3101,-0.686,0.4397,338,30.5786,27.5269,-62.0117,91,1.5217,1.5468,7.1215,-50.7997,35,0.2591,8881,3.9842,-80.0312
lg,1625188703710434868,0,-0.4128,-0.7644,0.4883,339,7.3853,7.4463,1.1597,91,1.5237,1.5458,8.0209,-50.7611,35,0.2621,8573,3.9842,-80.2616
lg,1625188703710453368,0,-0.4143,-0.9556,0.7002,340,-40.1611,-52.1851,72.8149,91,1.5247,1.5488,9.4385,-51.9361,35,0.2621,9438,3.9842,-76.7937
lg,1625188703710471572,0,-0.1233,-0.7976,0.6392,341,-38.208,-119.6289,116.272,91,1.5217,1.5508,10.0819,-52.2807,35,0.2581,9554,3.9842,-70.0667
lg,1625188703710489497,0,0.2332,-0.6133,0.8311,342,-27.71,-153.9917,94.4824,91,1.5217,1.5518,8.4145,-51.5933,35,0.2551,8281,3.9842,-62.6974
lg,1625188703710507590,0,0.2627,-0.8127,0.4973,343,-71.167,-161.499,34.0576,91,1.5167,1.5518,4.9033,-54.4666,35,0.2511,10957,3.9842,-56.4176
lg,1625188703710525979,0,0.6028,-1.0732,0.4272,344,-64.3921,-152.5269,42.9077,91,1.5157,1.5468,1.7056,-57.158,35,0.2501,8685,3.9842,-50.4159
lg,1625188703710542572,0,0.5352,-1.2207,0.5537,345,-21.8506,-20.4468,33.3862,91,1.5147,1.5478,1.4953,-58.2879,35,0.2501,8574,3.9842,-49.0154
lg,1625188703710560590,0,0.3657,-0.9861,0.5205,346,28.8696,73.9136,26.6113,91,1.5147,1.5468,3.193,-57.349,35,0.2501,11554,3.9842,-50.971
lg,1625188703710578905,0,0.1826,-0.8308,0.4417,347,31.8604,106.6284,7.6904,91,1.5147,1.5478,5.2038,-56.4967,35,0.2521,9146,3.9842,-54.4072
lg,1625188703710597683,0,0.0986,-0.8628,0.4385,348,17.4561,89.1113,-7.3242,91,1.5187,1.5498,6.4823,-56.368,35,0.2541,10146,3.9842,-57.5838
lg,1625188703710615368,0,0.0898,-0.9653,0.5535,349,16.8457,71.7773,-19.165,91,1.5217,1.5508,6.9898,-56.1672,35,0.2541,8452,3.9842,-60.4368
lg,1625188703710633849,0,0.1362,-0.9307,0.6028,350,18.1885,68.6035,-27.4658,91,1.5237,1.5518,6.562,-55.6845,35,0.2541,8478,3.9842,-63.624
lg,1625188703710652220,0,0.1643,-0.9446,0.5496,351,31.1279,67.0166,-55.2368,91,1.5197,1.5488,5.5942,-55.229,35,0.2531,9242,3.9842,-67.155
lg,1625188703710669572,0,0.1602,-0.9973,0.4731,352,40.1611,76.2939,-81.0547,91,1.5087,1.5418,4.1539,-54.355,35,0.2451,9033,3.9842,-71.5691
lg,1625188704056849331,0,0.0186,-0.5505,0.1907,353,75.9277,100.0366,-3.3569,91,1.4957,1.5257,6.4214,-51.0703,35,0.2431,29058,3.9842,-74.8116
lg,1625188704056914423,0,-0.1702,-0.5515,0.8987,354,11.4136,156.7993,109.0088,91,1.4987,1.5277,13.8504,-50.2177,35,0.2411,9248,3.9842,-76.8561
lg,1625188704056937053,0,-0.5632,-0.8296,0.5964,355,-22.4609,84.4727,122.1313,91,1.5067,1.5327,18.846,-50.8876,35,0.2421,8912,3.9842,-74.7871
lg,1625188704056960145,0,-0.8604,-0.7329,0.6616,356,-12.3291,-14.8926,107.4829,91,1.5057,1.5357,22.6335,-50.0587,35,0.2371,8517,3.9842,-71.3365
lg,1625188704056979868,0,-0.8267,-0.4629,0.7734,357,-24.9634,-121.8262,137.146,91,1.4947,1.5357,24.3495,-47.2671,35,0.2311,10033,3.9842,-63.1454
lg,1625188704056998627,0,0.1934,-0.3677,0.6409,358,-70.6177,-319.8853,112.1216,91,1.4917,1.5357,17.3535,-44.7087,35,0.2251,7908,3.9842,-49.7606
lg,1625188704057017219,0,0.5764,-1.4348,1.0693,359,-143.1885,-345.3979,62.6831,91,1.4917,1.5357,8.4059,-48.0585,35,0.2271,10242,3.9842,-37.8613
lg,1625188704057048497,0,1.1003,-1.416,0.5085,360,-67.4438,-204.1626,7.3242,91,1.4927,1.5368,1.7764,-50.8439,35,0.2291,7987,3.9842,-31.5142
lg,1625188704057068090,0,0.6494,-1.2,0.4773,361,22.8271,59.7534,-25.8179,91,1.4937,1.5378,1.401,-50.5939,35,0.2321,10058,3.9842,-34.0442
lg,1625188704057085886,0,0.4368,-0.9646,0.4443,362,44.8608,131.0425,-27.0386,91,1.4967,1.5408,4.4898,-49.3922,35,0.2341,9326,3.9842,-40.5119
lg,1625188704057103756,0,0.0286,-0.8032,0.4441,363,49.3164,207.3975,-36.3159,91,1.4997,1.5418,8.5503,-48.7039,35,0.2371,7972,3.9842,-47.8106
lg,1625188704057120979,0,-0.2307,-0.8489,0.4541,364,32.5317,179.8096,-36.9873,91,1.5047,1.5428,12.335,-49.0825,35,0.2381,7995,3.9842,-54.3848
lg,1625188704057138497,0,-0.322,-0.8738,0.4028,365,25.6958,149.0479,-37.4756,91,1.5097,1.5438,15.3546,-50.065,35,0.2401,8018,3.9842,-60.2042
lg,1625188704057155905,0,-0.3706,-0.8413,0.3613,366,24.6582,75.8667,-36.377,91,1.5157,1.5428,16.4418,-50.6298,35,0.2431,8772,3.9842,-63.7664
lg,1625188704057173127,0,-0.0732,-0.7632,0.5068,367,30.7617,-10.9863,-25.0244,91,1.5187,1.5418,14.1038,-49.7929,35,0.2421,12295,3.9842,-63.3018
lg,1625188704057190238,0,0.0239,-0.7598,0.5146,368,20.9961,-56.2134,-27.5879,91,1.5177,1.5388,11.2034,-48.9694,35,0.2451,8464,3.9842,-62.3468
lg,1625188704057207868,0,0.2483,-0.8418,0.5017,369,28.0762,-57.1289,-2.5635,91,1.5157,1.5357,8.6529,-47.9492,35,0.2451,9468,3.9842,-60.7625
lg,1625188704057225534,0,0.2791,-0.8984,0.5833,370,31.0669,-7.5073,-1.8311,91,1.5137,1.5327,7.5034,-47.0254,35,0.2451,8604,3.9842,-60.6493
lg,1625188704057242442,0,0.2183,-0.8381,0.6692,371,33.7524,48.7061,12.146,91,1.5117,1.5307,8.448,-45.9915,35,0.2451,8252,3.9842,-61.7728
lg,1625188704057260145,0,0.158,-0.8167,0.667,372,31.1279,68.1763,17.395,91,1.5117,1.5307,10.1783,-45.1687,35,0.2451,8641,3.9842,-63.2917
lg,1625188704057277331,0,-0.064,-0.8674,0.792,373,10.8032,80.0171,29.3579,91,1.5127,1.5307,12.9724,-45.1203,35,0.2531,8195,3.9842,-64.786
lg,1625188704057295923,0,-0.1646,-0.9055,0.6218,374,-17.395,31.9824,60.73,91,1.5197,1.5337,15.4229,-46.0223,35,0.2551,8244,3.9732,-64.0724
lg,1625188704057313108,0,-0.2839,-0.8398,0.5535,375,-29.6021,15.9912,61.2793,104,1.5217,1.5388,17.9359,-47.1043,35,0.2501,8270,3.9732,-62.8776
lg,1625188704057330516,0,-0.5369,-0.7432,0.5732,376,-38.3911,-9.3994,90.332,104,1.5077,1.5388,20.8059,-47.8596,35,0.2421,8309,3.9732,-60.0607
lg,1625188704057347794,0,-0.4124,-0.626,0.7361,377,-42.0532,-97.7783,115.8447,104,1.4977,1.5368,21.6722,-46.8911,35,0.2371,8709,3.9732,-53.5018
lg,1625188704057366053,0,0.1775,-0.5527,0.2703,378,-35.8887,-242.4927,40.1001,104,1.4957,1.5357,14.8688,-46.3052,35,0.2331,11568,3.9732,-45.1884
lg,1625188704057383590,0,0.3848,-1.1982,0.7817,379,-102.0508,-213.3789,26.6724,104,1.4957,1.5337,8.8403,-49.2927,35,0.2331,8552,3.9732,-38.0826
lg,1625188704057401219,0,0.3499,-1.325,0.5476,380,-36.2549,-92.9565,-16.0522,104,1.4977,1.5347,5.126,-51.115,35,0.2351,9213,3.9732,-35.7075
lg,1625188704057418794,0,0.3342,-1.0383,0.355,381,-3.1738,-24.0479,-19.5312,104,1.4967,1.5368,4.1766,-50.9915,35,0.2361,8890,3.9732,-36.2565
lg,1625188704057436312,0,0.3542,-0.8613,0.2651,382,34.1187,35.1562,-5.3711,104,1.4987,1.5398,3.9238,-50.4968,35,0.2361,8654,3.9732,-37.5503
lg,1625188704057453256,0,0.3037,-0.8391,0.5005,383,38.3911,89.4165,-5.3711,104,1.4987,1.5418,5.2238,-49.5135,35,0.2391,8934,3.9732,-40.4735
lg,1625188704057624497,0,0.1946,-0.9116,0.4976,384,28.7476,106.6895,-17.7002,104,1.5057,1.5438,6.8322,-49.2082,35,0.2401,9179,3.9732,-44.2423
lg,1625188704477175182,0,-0.0151,-0.6614,0.6086,385,52.6733,66.7725,-46.875,104,1.5217,1.5408,7.003,-47.4956,35,0.2431,27347,3.9732,-47.5104
lg,1625188704477214164,0,-0.0686,-0.781,0.6721,386,28.6865,59.2651,-46.0815,104,1.5167,1.5347,7.1282,-46.7821,35,0.2441,8852,3.9732,-50.5333
lg,1625188704477234775,0,-0.1428,-0.7947,0.5686,387,22.583,59.2651,-28.2593,104,1.5107,1.5287,7.9727,-46.5023,35,0.2431,7853,3.9732,-53.0925
lg,1625188704477254015,0,-0.208,-0.7395,0.6035,388,4.3945,53.9551,16.0522,104,1.5077,1.5237,10.0825,-46.6624,35,0.2471,10089,3.9732,-54.2594
lg,1625188704477272849,0,-0.3013,-0.7651,0.7134,389,-12.207,49.9878,45.5933,104,1.5117,1.5237,13.0039,-47.1957,35,0.2531,8310,3.9732,-54.4869
lg,1625188704477291071,0,-0.4646,-0.9778,0.7739,390,-50.2319,0.2441,106.3843,104,1.5187,1.5277,16.4535,-48.6107,35,0.2481,8311,3.9732,-51.594
lg,1625188704477308497,0,-0.4387,-0.7556,0.5388,391,-53.772,-95.2759,115.4785,104,1.5167,1.5327,17.7866,-49.1432,35,0.2481,8255,3.9732,-45.4793
lg,1625188704477326571,0,-0.4536,-0.6799,0.5044,392,-49.2554,-121.2769,114.1357,104,1.5047,1.5347,18.4861,-49.0716,35,0.2401,7966,3.9732,-38.526
lg,1625188704477344608,0,0.0713,-0.5132,1.0063,393,-63.1714,-207.5806,109.314,104,1.5017,1.5357,15.4854,-47.9137,35,0.2361,9055,3.9732,-28.7332
lg,1625188704477400145,0,0.3401,-0.9897,0.5137,394,-122.1924,-278.5034,45.6543,104,1.4987,1.5347,8.5099,-51.288,35,0.2331,10379,3.9732,-19.0005
lg,1625188704477422571,0,0.7017,-1.3252,0.4199,395,-86.4868,-250.1221,5.4932,104,1.4987,1.5337,1.4217,-54.7491,35,0.2321,10504,3.9732,-10.9369
lg,1625188704477440682,0,0.4531,-1.2898,0.3899,396,-13.5498,-39.0015,-23.5596,104,1.4987,1.5347,-1.0081,-55.944,35,0.2331,8466,3.9732,-10.1958
lg,1625188704477458738,0,0.2649,-0.8708,0.2817,397,36.6211,59.9365,-11.4746,104,1.4987,1.5357,-0.6318,-55.0448,35,0.2341,8128,3.9732,-12.4299
lg,1625188704477476793,0,0.2031,-0.771,0.3259,398,39.856,84.2285,-4.4556,104,1.4987,1.5368,0.6555,-53.903,35,0.2361,8056,3.9732,-15.2811
lg,1625188704477495127,0,0.1292,-0.8662,0.3767,399,27.2827,93.2617,2.4414,104,1.5017,1.5408,2.5972,-53.3768,35,0.2371,8066,3.9732,-18.2416
lg,1625188704477513682,0,0.1301,-0.9734,0.4775,400,26.062,84.7168,0.061,104,1.5057,1.5428,3.8436,-52.6263,35,0.2401,8133,3.9732,-20.7264
lg,1625188704477530627,0,0.1509,-0.9338,0.5183,401,38.7573,62.0728,-8.1787,104,1.5097,1.5408,4.634,-51.5557,35,0.2411,8146,3.9732,-22.9223
lg,1625188704477548034,0,0.2056,-0.8083,0.5906,402,48.4619,51.4526,-15.9912,104,1.5157,1.5438,4.7989,-49.8651,35,0.2431,8151,3.9732,-24.9462
lg,1625188704477566812,0,0.2456,-0.6841,0.603,403,46.2036,39.4287,-29.6631,104,1.5207,1.5418,4.1603,-48.1169,35,0.2461,8951,3.9732,-26.9297
lg,1625188704477584201,0,0.1907,-0.7026,0.575,404,32.8369,42.2363,-33.4473,104,1.5237,1.5408,3.679,-47.0441,35,0.2491,8230,3.9732,-29.0985
lg,1625188704477601534,0,-0.0596,-0.8594,0.627,405,9.2773,72.5098,1.8921,104,1.5217,1.5418,5.6789,-47.1037,35,0.2541,8269,3.9732,-31.199
lg,1625188704477619701,0,-0.1978,-0.8928,0.8318,406,-5.9814,76.1719,62.9883,104,1.5247,1.5438,9.7189,-47.3993,35,0.2571,8642,3.9732,-31.7393
lg,1625188704477640515,0,-0.1831,-0.7134,0.7427,407,-1.9531,42.7856,77.7588,104,1.5227,1.5458,13.1669,-47.1515,35,0.2561,9049,3.9732,-30.852
lg,1625188704477677571,0,-0.1838,-0.6775,0.7004,408,-8.4229,18.6768,73.1812,104,1.5197,1.5458,14.7616,-47.3437,35,0.2551,9084,3.9732,-28.8504
lg,1625188704477698960,0,-0.1348,-0.8008,0.7139,409,-28.1372,-30.5786,67.5049,104,1.5157,1.5468,15.6273,-47.7519,35,0.2541,9100,3.9732,-26.0363
lg,1625188704477716738,0,0.1003,-0.9104,0.5522,410,-26.4282,-55.7251,53.7109,104,1.5167,1.5468,14.937,-48.3961,35,0.2541,9116,3.9732,-22.9453
lg,1625188704477734867,0,0.085,-1.0132,0.637,411,-8.0566,-12.7563,32.5928,104,1.5177,1.5468,14.8438,-48.7593,35,0.2541,8409,3.9732,-21.7548
lg,1625188704477752460,0,0.1951,-0.8926,0.5681,412,2.5635,0.3662,6.4087,104,1.5217,1.5478,14.0794,-48.9571,35,0.2571,9013,3.9732,-21.6812
lg,1625188704477769423,0,0.238,-0.855,0.512,413,6.5918,-0.9155,-14.4653,104,1.5247,1.5468,12.0674,-49.2819,35,0.2571,9145,3.9732,-22.7786
lg,1625188704477786627,0,0.2224,-1.0603,0.5251,414,12.207,25.0244,-61.7065,104,1.5267,1.5438,9.9726,-49.8084,35,0.2541,10037,3.9732,-25.2972
lg,1625188704477820571,0,0.197,-1.1028,0.564,415,17.7002,41.0767,-68.2983,104,1.5217,1.5388,8.2034,-50.0886,35,0.2501,8551,3.9732,-28.4355
lg,1625188704477838701,0,0.1333,-1.019,0.0952,416,39.5508,58.7158,-82.7637,104,1.5147,1.5337,6.6002,-50.3003,35,0.2471,9310,3.9732,-32.5719
lg,1625188704826971978,0,-0.3645,-0.8738,0.7458,417,-10.1929,132.9956,98.5107,104,1.5207,1.5388,13.418,-50.9512,35,0.2511,25771,3.9732,-34.2204
lg,1625188704827004941,0,-0.8047,-0.8179,0.728,418,-7.0801,84.6558,96.3745,104,1.5187,1.5438,19.3999,-51.1971,35,0.2471,10115,3.9732,-34.4327
lg,1625188704827025608,0,-0.6973,-0.4441,0.8928,419,-18.3105,-81.2988,86.9141,104,1.5057,1.5438,20.6643,-49.358,35,0.2451,11807,3.9732,-29.1141
lg,1625188704827044941,0,-0.1086,-0.4458,0.1697,420,-61.2183,-265.564,14.7705,104,1.5017,1.5418,14.0252,-49.9346,35,0.2421,7867,3.9732,-20.5187
lg,1625188704827063775,0,0.0115,-0.8682,0.6533,421,-120.6055,-266.1743,20.813,104,1.4977,1.5388,6.814,-53.3038,35,0.2391,8507,3.9732,-10.9747
lg,1625188704827082812,0,0.469,-1.2998,0.5574,422,-64.6973,-178.2837,-0.1221,104,1.4947,1.5317,1.751,-55.9285,35,0.2371,12806,3.9732,-5.1883
lg,1625188704827101238,0,0.3396,-1.0535,0.5068,423,10.9253,-20.2637,0.1221,104,1.4937,1.5317,0.6043,-55.7803,35,0.2371,8370,3.9732,-4.5256
lg,1625188704827119441,0,0.2109,-0.8472,0.4253,424,27.5269,31.3721,3.0518,104,1.4937,1.5317,0.8964,-54.9736,35,0.2381,7900,3.9732,-5.4993
lg,1625188704827137108,0,0.0701,-0.7622,0.4463,425,27.9541,74.707,17.4561,104,1.4937,1.5337,2.9702,-54.0986,35,0.2401,8675,3.9732,-7.5399
lg,1625188704827154386,0,0.0542,-0.9204,0.4846,426,17.0288,58.8379,19.9585,104,1.4957,1.5357,4.7545,-53.8255,35,0.2431,8011,3.9732,-8.9993
lg,1625188704827171200,0,0.0208,-0.9424,0.4778,427,18.2495,54.1382,18.1885,104,1.4987,1.5388,6.3307,-53.3718,35,0.2461,9450,3.9732,-10.2798
lg,1625188704827188312,0,0.0251,-0.9016,0.4998,428,28.1372,47.1802,10.376,104,1.5047,1.5408,7.4843,-52.6932,35,0.2491,9036,3.9732,-11.5863
lg,1625188704827205349,0,0.1018,-0.8142,0.5498,429,26.3062,22.2778,0.8545,104,1.5117,1.5428,7.5263,-51.8522,35,0.2501,8439,3.9732,-12.2985
lg,1625188704827222071,0,0.2241,-0.8442,0.6299,430,24.292,1.5869,-15.3809,104,1.5177,1.5418,6.3243,-50.98,35,0.2561,9321,3.9732,-12.7475
lg,1625188704827239126,0,0.3079,-0.927,0.6313,431,31.3721,5.6152,-44.9829,104,1.5197,1.5368,4.2412,-50.022,35,0.2561,9978,3.9732,-14.0956
lg,1625188704827255941,0,0.261,-1.0146,0.6411,432,33.6914,50.354,-71.2891,104,1.5107,1.5317,2.7258,-49.1698,35,0.2501,8349,3.9732,-17.5081
lg,1625188704827272997,0,0.1118,-0.9465,0.3838,433,51.8799,89.5386,-55.542,104,1.5057,1.5187,3.0664,-48.0264,35,0.2481,12731,3.9732,-21.7076
lg,1625188704827289793,0,-0.002,-0.595,0.4211,434,49.6826,121.3379,-4.3945,104,1.5057,1.5137,6.092,-46.5931,35,0.2481,10083,3.9732,-25.4264
lg,1625188704827307126,0,-0.321,-0.7192,0.782,435,-3.9062,123.7183,57.4951,104,1.5087,1.5147,11.553,-46.9001,35,0.2521,8287,3.9732,-27.4721
lg,1625188704827324145,0,-0.4644,-0.8984,0.8557,436,-19.5312,88.1348,78.064,104,1.5147,1.5197,16.0053,-47.8501,35,0.2531,8360,3.9732,-26.438
lg,1625188704827340941,0,-0.616,-0.863,0.6892,437,-29.0527,-4.0283,101.9287,104,1.5137,1.5257,19.4373,-48.2159,35,0.2511,8402,3.9732,-23.4922
lg,1625188704827382238,0,-0.6389,-0.5974,0.6023,438,-32.0435,-83.4961,109.9854,104,1.5007,1.5297,21.1433,-47.3539,35,0.2461,8327,3.9732,-17.6586
lg,1625188704827403163,0,-0.4275,-0.5935,0.6238,439,-71.4111,-185.2417,120.7275,104,1.4847,1.5317,19.8684,-46.7905,35,0.2401,9548,3.9732,-8.3083
lg,1625188704827422330,0,0.4092,-0.7512,0.5388,440,-91.4917,-241.0278,117.0044,104,1.4807,1.5307,12.5158,-47.7179,35,0.2371,8390,3.9732,2.8449
lg,1625188704827441126,0,0.4805,-1.1724,0.5168,441,-110.5957,-279.7241,47.7295,104,1.4777,1.5257,5.5297,-51.2485,35,0.2341,8365,3.9732,12.5653
lg,1625188704827459182,0,0.9634,-1.3113,0.6587,442,-61.0352,-180.8472,36.6821,104,1.4777,1.5267,0.8939,-53.6862,35,0.2331,8803,3.9732,19.1889
lg,1625188704827477052,0,0.5117,-1.1555,0.6223,443,9.5825,63.1104,-6.2256,104,1.4767,1.5257,1.3211,-53.625,35,0.2341,8795,3.9732,16.9972
lg,1625188704827494812,0,0.2913,-0.8914,0.4475,444,34.729,117.7979,-5.4932,104,1.4797,1.5287,3.9476,-52.6069,35,0.2361,8483,3.9732,12.1287
lg,1625188704827511978,0,0.1633,-0.8674,0.4207,445,39.3066,161.7432,-18.4937,104,1.4857,1.5317,6.7618,-51.9984,35,0.2381,8838,3.9732,6.4953
lg,1625188704827541219,0,-0.1367,-0.9214,0.4443,446,37.5366,172.5464,-34.1797,104,1.4897,1.5337,9.9492,-51.8957,35,0.2411,8428,3.9732,0.0948
lg,1625188704827571552,0,-0.3098,-0.863,0.4612,447,34.4238,146.3623,-47.0581,104,1.5007,1.5378,12.3546,-52.0308,35,0.2421,8478,3.9732,-5.8514
lg,1625188704827590571,0,-0.3486,-0.8215,0.4963,448,29.4189,112.854,-53.833,104,1.5077,1.5378,12.6471,-52.0914,35,0.2461,8505,3.9732,-9.5618
lg,1625188705171550941,0,0.1208,-0.8137,0.3923,449,6.4697,-62.3169,-32.4707,104,1.5157,1.5357,9.3253,-52.0785,35,0.2551,26357,3.9732,-8.4712
lg,1625188705171584960,0,0.1064,-0.8347,0.2913,450,2.8687,-19.165,-14.0991,104,1.5177,1.5368,7.7979,-52.6442,35,0.2581,9307,3.9732,-8.3192
lg,1625188705171605219,0,-0.1562,-0.9514,0.7034,451,-20.874,35.0342,51.4526,104,1.5217,1.5388,10.2637,-53.4815,35,0.2601,8004,3.9732,-8.211
lg,1625188705171624848,0,-0.3918,-0.9431,0.5583,452,-23.6206,8.9111,104.8584,104,1.5107,1.5438,14.283,-53.8696,35,0.2511,13148,3.9732,-5.9606
lg,1625188705171642941,0,-0.0649,-0.4636,1.1707,453,0.7935,-54.6875,86.853,104,1.5057,1.5418,15.3659,-52.6,35,0.2441,8437,3.9732,-1.9519
lg,1625188705171660552,0,0.2424,-0.9165,0.8406,454,-61.4624,-148.1323,32.4097,104,1.5027,1.5378,10.8095,-54.1796,35,0.2391,10882,3.9732,5.6128
lg,1625188705171678256,0,0.3989,-1.0469,0.5698,455,-74.4629,-206.8481,15.1978,104,1.5017,1.5337,5.5253,-56.3867,35,0.2381,8292,3.9732,12.7943
lg,1625188705171695589,0,0.3315,-1.269,0.6431,456,-30.8228,-54.9316,-14.1602,104,1.5027,1.5337,3.139,-57.7417,35,0.2381,8351,3.9732,14.3216
lg,1625188705171712330,0,0.238,-0.9587,0.3872,457,28.9307,41.8091,-3.418,104,1.5027,1.5368,3.2893,-57.0538,35,0.2391,9976,3.9732,12.8078
lg,1625188705171751645,0,0.2026,-0.7932,0.543,458,40.2222,65.6128,-1.3428,104,1.5047,1.5388,4.4834,-55.5102,35,0.2411,7974,3.9732,9.7626
lg,1625188705171770941,0,0.1641,-0.7874,0.533,459,34.668,101.3184,-10.376,104,1.5097,1.5418,5.8542,-54.7794,35,0.2431,9847,3.9732,5.9814
lg,1625188705171789182,0,0.0503,-0.8979,0.5691,460,21.7896,101.4404,-26.3672,104,1.5147,1.5418,6.9887,-54.4528,35,0.2441,8560,3.9732,2.023
lg,1625188705171806960,0,-0.0654,-0.9644,0.5405,461,18.8599,89.7827,-38.5742,104,1.5187,1.5458,7.6659,-54.4294,35,0.2461,8069,3.9732,-1.8579
lg,1625188705171824904,0,-0.0532,-0.9114,0.5435,462,24.7803,47.2412,-38.0859,104,1.5217,1.5458,7.3397,-53.9378,35,0.2461,8475,3.9732,-4.3272
lg,1625188705171842052,0,0.0027,-0.8396,0.5967,463,32.5317,24.231,-35.3394,104,1.5197,1.5428,6.4831,-52.8503,35,0.2491,8470,3.9732,-5.9638
lg,1625188705171861460,0,0.1702,-0.7976,0.5562,464,37.7197,0.7324,-37.4146,104,1.5137,1.5388,4.6789,-51.5144,35,0.2481,8885,3.9732,-6.9237
lg,1625188705171879700,0,0.175,-0.8718,0.415,465,28.3203,14.7705,-48.4009,104,1.5037,1.5327,2.957,-50.9892,35,0.2461,8988,3.9732,-8.6414
lg,1625188705171896645,0,0.1345,-0.8296,0.3608,466,29.6631,49.4385,-15.0146,104,1.5007,1.5277,3.2897,-50.5007,35,0.2451,10277,3.9732,-10.5912
lg,1625188705171913645,0,0.011,-0.7554,0.4915,467,19.6533,95.7642,36.1938,104,1.4997,1.5267,6.6735,-50.1373,35,0.2471,10230,3.9732,-12.6459
lg,1625188705171930330,0,-0.1321,-0.9324,0.7886,468,-9.2773,85.2661,72.6318,104,1.5027,1.5287,11.0457,-50.6019,35,0.2491,8246,3.9732,-13.4371
lg,1625188705171947552,0,-0.2405,-0.9846,0.6716,469,-19.8364,59.5703,75.3784,104,1.5087,1.5317,14.8866,-51.5753,35,0.2471,8264,3.9732,-13.4439
lg,1625188705171964978,0,-0.3652,-0.8708,0.4905,470,-31.311,-1.8311,92.7734,104,1.5107,1.5357,17.9696,-52.4714,35,0.2431,8649,3.9732,-11.1006
lg,1625188705171981608,0,-0.4895,-0.7471,0.5303,471,-25.5127,-46.5088,112.3657,104,1.5077,1.5388,20.7847,-52.0692,35,0.2371,9046,3.9732,-6.6526
lg,1625188705171999015,0,-0.2566,-0.6301,0.6785,472,-40.9546,-142.6392,122.7417,104,1.5007,1.5388,20.8599,-50.4547,35,0.2361,9077,3.9732,1.5218
lg,1625188705172016460,0,0.1184,-0.521,0.7334,473,-41.4429,-205.6274,98.6328,104,1.4987,1.5398,15.2609,-50.2059,35,0.2311,8707,3.9732,10.6249
lg,1625188705172034219,0,0.2615,-1.0042,0.6614,474,-80.7495,-198.7915,58.7158,104,1.4967,1.5378,11.0706,-51.8724,35,0.2261,8416,3.9732,18.4296
lg,1625188705172051071,0,0.3931,-1.2163,0.6177,475,-31.311,-137.4512,24.6582,104,1.4977,1.5388,7.4792,-52.7234,35,0.2271,9189,3.9732,23.374
lg,1625188705172067811,0,0.2681,-1.0044,0.6418,476,13.6719,-11.3525,-1.5259,104,1.4977,1.5398,6.3744,-52.3103,35,0.2281,8486,3.9732,23.673
lg,1625188705172084774,0,0.178,-0.7976,0.3984,477,25.1465,30.3345,-5.3711,104,1.4997,1.5418,6.26,-51.8499,35,0.2311,9002,3.9732,22.5237
lg,1625188705172101663,0,0.1018,-0.8181,0.4707,478,23.6206,49.1943,-5.9204,104,1.5017,1.5428,6.8008,-51.4151,35,0.2331,8496,3.9732,20.7826
lg,1625188705172131404,0,0.0505,-0.8955,0.6467,479,26.2451,62.1948,4.7607,104,1.5077,1.5458,8.1289,-50.7039,35,0.2351,8895,3.9732,18.9324
lg,1625188705172149645,0,0.1189,-0.8464,0.6331,480,26.123,51.6968,1.2207,104,1.5117,1.5468,8.9055,-49.984,35,0.2361,8915,3.9732,17.3329
lg,1625188705550369070,0,-0.0713,-0.8999,0.5286,481,11.9019,63.8428,-20.752,104,1.5207,1.5458,9.7,-50.2887,35,0.2461,26384,3.9732,14.7472
lg,1625188705550411700,0,-0.4019,-0.948,0.5532,482,-14.8315,50.354,56.8237,104,1.5157,1.5488,13.1345,-51.2514,35,0.2451,14919,3.9732,14.5526
lg,1625188705550446033,0,-0.1741,-0.6196,0.8953,483,11.3525,1.5259,70.5566,104,1.5127,1.5488,15.2028,-49.6845,35,0.2461,9531,3.9732,16.502
lg,1625188705550466274,0,-0.1975,-0.575,0.4177,484,6.5918,-39.7949,31.9214,104,1.5077,1.5478,15.1434,-48.8089,35,0.2441,8672,3.9732,18.6311
lg,1625188705550486441,0,-0.1174,-0.8025,0.5903,485,-45.2881,-111.8774,27.5269,96,1.5057,1.5458,12.7446,-49.7781,35,0.2431,8268,3.9842,22.8232
lg,1625188705550504978,0,-0.1418,-1.0242,0.5747,486,-34.3018,-86.0596,13.0615,96,1.5047,1.5458,10.7392,-50.9504,35,0.2431,7915,3.9842,25.7826
lg,1625188705550522996,0,-0.0269,-0.9458,0.5432,487,-8.1177,-70.7397,23.2544,96,1.5057,1.5458,9.3293,-51.1373,35,0.2441,8596,3.9842,28.5462
lg,1625188705550540885,0,0.0901,-0.8831,0.6189,488,-4.0894,-67.0166,20.3247,96,1.5067,1.5468,7.7343,-51.0521,35,0.2461,8695,3.9842,31.1492
lg,1625188705550559682,0,0.3308,-0.915,0.5916,489,-10.1318,-60.1807,1.8311,96,1.5097,1.5478,5.3491,-51.4557,35,0.2481,8737,3.9842,33.0594
lg,1625188705550577478,0,0.3765,-1.0317,0.5876,490,-10.498,-19.043,-23.3765,96,1.5137,1.5488,3.2647,-52.1967,35,0.2481,8512,3.9842,33.0566
lg,1625188705550595330,0,0.2747,-1.0945,0.605,491,-2.0752,9.7656,-33.3862,96,1.5197,1.5498,2.1679,-52.39,35,0.2471,8065,3.9842,30.905
lg,1625188705550613107,0,0.2542,-1.0249,0.5603,492,15.564,54.0161,-52.124,96,1.5227,1.5488,1.2677,-52.192,35,0.2481,8099,3.9842,27.9055
lg,1625188705550630496,0,0.1252,-0.8101,0.2346,493,36.438,53.5889,-72.5098,96,1.5227,1.5468,-0.0771,-51.5918,35,0.2491,8120,3.9842,24.4113
lg,1625188705550648237,0,-0.0027,-0.8179,0.3562,494,38.3911,60.6689,-66.8335,96,1.5237,1.5448,1.0629,-50.4923,35,0.2501,8016,3.9842,20.678
lg,1625188705550665441,0,-0.3071,-0.8296,0.4131,495,33.6914,101.8677,-6.897,96,1.5247,1.5438,4.1197,-49.7724,35,0.2541,8112,3.9842,17.3634
lg,1625188705550695682,0,-0.4807,-0.8772,0.7805,496,-1.3428,55.8472,63.7207,96,1.5257,1.5458,8.2003,-49.7682,35,0.2571,8115,3.9842,17.3014
lg,1625188705550715015,0,-0.4341,-0.7776,0.6118,497,-18.1885,-24.1089,104.248,96,1.5207,1.5488,11.3709,-49.9662,35,0.2521,8901,3.9842,20.7595
lg,1625188705550732126,0,-0.0854,-0.479,0.8518,498,-13.5498,-104.6753,73.1812,96,1.5127,1.5498,10.6506,-48.6945,35,0.2511,12791,3.9842,26.0968
lg,1625188705550749219,0,0.0659,-0.7273,0.6091,499,-68.9697,-160.4004,41.2598,96,1.5097,1.5488,7.204,-50.553,35,0.2481,8646,3.9842,32.125
lg,1625188705550766941,0,0.2075,-1.0898,0.6223,500,-71.9604,-166.9312,41.687,96,1.5077,1.5478,3.86,-52.687,35,0.2461,8626,3.9842,37.2137
lg,1625188705550784070,0,0.1824,-1.1799,0.7429,501,-42.7246,-96.2524,18.1274,96,1.5067,1.5478,1.7258,-54.4092,35,0.2451,8944,3.9842,40.7408
lg,1625188705550801200,0,0.335,-0.9668,0.668,502,-6.1646,-38.3911,13.916,96,1.5067,1.5488,0.6062,-54.6477,35,0.2461,10218,3.9842,42.3146
lg,1625188705550818644,0,0.3831,-0.9329,0.5933,503,-5.3101,7.8125,3.54,96,1.5087,1.5498,0.1345,-54.9575,35,0.2481,9391,3.9842,42.1389
lg,1625188705550837496,0,0.2603,-1.0073,0.5583,504,-5.3711,44.9829,-9.6436,96,1.5077,1.5508,0.3327,-55.4001,35,0.2491,8638,3.9842,40.4397
lg,1625188705550855033,0,0.1289,-0.9978,0.5168,505,7.8125,82.3364,-17.5781,96,1.5137,1.5528,1.339,-55.4049,35,0.2511,9109,3.9842,37.3241
lg,1625188705550873607,0,0.0337,-0.9124,0.4897,506,16.0522,93.689,-29.7241,96,1.5187,1.5528,2.356,-55.125,35,0.2511,8585,3.9842,33.5569
lg,1625188705550891052,0,0.0137,-0.8865,0.4973,507,17.0898,87.3413,-36.1938,96,1.5227,1.5538,3.1041,-54.8532,35,0.2541,8796,3.9842,29.8498
lg,1625188705550907830,0,0.0122,-0.8821,0.4705,508,15.8691,59.3262,-51.1475,96,1.5257,1.5518,2.6453,-54.6441,35,0.2521,8439,3.9842,26.7135
lg,1625188705550925459,0,-0.0105,-0.9143,0.179,509,11.7188,20.3857,-70.3125,96,1.5227,1.5468,0.7421,-55.1681,35,0.2521,8509,3.9842,24.3912
lg,1625188705550943441,0,-0.0984,-0.8816,0.2051,510,21.4844,-4.2725,-57.1289,96,1.5197,1.5438,-1.0091,-55.1336,35,0.2511,9446,3.9842,23.2213
lg,1625188705550961385,0,-0.1575,-0.8325,0.2671,511,24.9634,16.4795,-15.2588,96,1.5227,1.5458,1.4344,-55.2383,35,0.2581,8882,3.9842,23.1333
lg,1625188705550978830,0,-0.1943,-0.8716,0.5781,512,-5.7373,21.4233,88.8672,96,1.5257,1.5498,5.1949,-55.4254,35,0.2581,8891,3.9842,24.442
lg,1625188705927651181,0,0.0686,-0.4229,0.9021,513,-5.9814,-104.4922,79.9561,96,1.5087,1.5498,5.0724,-54.0321,35,0.2511,27993,3.9842,29.8186
lg,1625188705927693274,0,0.2869,-1.0449,0.7146,514,-61.6455,-170.6543,43.2129,96,1.5047,1.5448,1.9153,-56.1417,35,0.2501,12850,3.9842,36.4198
lg,1625188705927714255,0,0.2639,-1.2195,0.7983,515,-25.4517,-68.9697,7.8735,96,1.5047,1.5448,0.193,-57.1228,35,0.2491,10362,3.9842,38.9026
lg,1625188705927733681,0,0.3789,-0.97,0.6682,516,11.3525,7.019,12.3901,96,1.5047,1.5458,0.0575,-56.5936,35,0.2501,8193,3.9842,38.9318
lg,1625188705927752404,0,0.3906,-0.8945,0.6497,517,15.9302,32.0435,9.5215,96,1.5057,1.5468,0.5183,-56.0218,35,0.2521,8937,3.9842,36.8398
lg,1625188705927770404,0,0.1951,-0.8877,0.5366,518,12.8174,90.6982,-16.1133,96,1.5107,1.5488,2.239,-55.7502,35,0.2541,9152,3.9842,32.5433
lg,1625188705927788348,0,-0.1714,-0.8955,0.4817,519,14.5264,108.2764,-28.5645,96,1.5147,1.5498,4.0094,-55.6221,35,0.2541,11405,3.9842,28.3063
lg,1625188705927806570,0,-0.1904,-0.8442,0.437,520,12.146,83.0078,-31.311,96,1.5197,1.5518,5.0345,-55.6659,35,0.2561,8626,3.9842,24.829
lg,1625188705927824311,0,-0.0933,-0.877,0.4143,521,3.418,27.9541,-34.1187,96,1.5247,1.5518,4.5494,-56.0157,35,0.2571,8270,3.9842,23.1026
lg,1625188705927842774,0,0.0498,-0.9233,0.3291,522,9.0942,-14.6484,-41.3208,96,1.5247,1.5508,2.5653,-56.2313,35,0.2581,9010,3.9842,22.6274
lg,1625188705927861774,0,0.1775,-0.9377,0.2058,523,10.9253,-39.1846,-49.4995,96,1.5207,1.5458,-0.4469,-56.594,35,0.2561,9395,3.9842,22.8088
lg,1625188705927879663,0,0.1021,-0.9204,0.2036,524,29.9072,2.5024,-5.3711,96,1.5197,1.5438,-0.7985,-56.1936,35,0.2581,9297,3.9842,22.6117
lg,1625188705927897255,0,-0.0227,-0.9949,0.6584,525,29.2969,34.5459,43.335,96,1.5217,1.5458,3.2554,-55.5039,35,0.2641,9080,3.9842,22.9115
lg,1625188705927915681,0,-0.0725,-0.9753,0.7717,526,11.1694,43.0908,109.314,96,1.5267,1.5478,7.8163,-54.7868,35,0.2641,8772,3.9842,23.9968
lg,1625188705927934311,0,-0.1174,-0.729,0.574,527,9.5825,4.6997,104.7363,96,1.5257,1.5508,11.2975,-53.8857,35,0.2611,9150,3.9842,26.3256
lg,1625188705927987885,0,-0.2405,-0.5835,0.6047,528,1.1597,-26.9775,83.8013,96,1.5167,1.5518,13.5314,-52.8094,35,0.2611,8806,3.9842,29.3353
lg,1625188705928010922,0,-0.1558,-0.7651,0.7593,529,-31.9214,-88.1958,101.0132,96,1.5097,1.5518,14.4036,-52.4553,35,0.2601,9180,3.9842,34.8194
lg,1625188705928030792,0,0.0813,-0.8623,1.0322,530,-38.5132,-125.9766,93.2007,96,1.5077,1.5508,12.2181,-52.4099,35,0.2591,8483,3.9842,41.1679
lg,1625188705928049459,0,0.4106,-1.0457,0.6768,531,-34.5459,-117.6147,52.7954,96,1.5067,1.5518,9.9136,-52.9727,35,0.2601,8970,3.9842,46.2511
lg,1625188705928067570,0,0.5464,-1.0496,0.7437,532,-7.019,-26.7334,23.2544,96,1.5047,1.5518,8.7812,-53.0726,35,0.2611,8913,3.9842,47.6723
lg,1625188705928085885,0,0.1951,-1.0042,0.6111,533,16.7236,72.8149,-0.9155,96,1.5107,1.5518,9.7818,-52.9996,35,0.2631,8929,3.9842,45.2527
lg,1625188705928104015,0,-0.0168,-0.8657,0.5767,534,20.2637,91.4917,-10.437,96,1.5147,1.5528,11.2692,-52.94,35,0.2651,8187,3.9842,41.6913
lg,1625188705928121829,0,-0.0879,-0.8228,0.5256,535,20.1416,87.7075,-21.8506,96,1.5197,1.5528,12.4268,-53.0034,35,0.2671,8958,3.9842,38.2548
lg,1625188705928140107,0,-0.1257,-0.7476,0.2715,536,6.0425,27.5269,-35.7056,96,1.5217,1.5528,11.8147,-53.7956,35,0.2701,8250,3.9842,36.3384
lg,1625188705928158200,0,-0.2834,-0.8608,0.5239,537,-24.0479,13.6719,6.8359,96,1.5217,1.5548,12.5055,-54.9954,35,0.2721,9798,3.9842,36.0069
lg,1625188705928176052,0,-0.45,-0.9126,0.4946,538,-31.6772,9.6436,73.7915,96,1.5177,1.5548,15.5819,-56.155,35,0.2701,8316,3.9842,37.3366
lg,1625188705928193311,0,-0.2717,-0.6809,0.4512,539,11.6577,-45.3491,36.499,96,1.5147,1.5538,15.8759,-55.0336,35,0.2631,9104,3.9842,39.7499
lg,1625188705928210774,0,-0.0491,-0.6851,0.4595,540,-31.9824,-55.1758,29.541,96,1.5117,1.5508,13.6566,-55.6241,35,0.2601,9097,3.9842,44.5523
lg,1625188705928228200,0,0.0713,-0.8403,0.397,541,-50.5371,-139.9536,22.7051,96,1.5107,1.5478,10.7679,-56.7849,35,0.2581,9458,3.9842,49.7726
lg,1625188705928246422,0,0.0623,-1.1584,0.4988,542,-45.7764,-96.6797,20.3857,96,1.5097,1.5468,8.8682,-58.3539,35,0.2591,9257,3.9842,53.4647
lg,1625188705928263885,0,0.3958,-1.0823,0.5474,543,-5.6763,-51.0864,25.8789,96,1.5117,1.5478,7.6577,-58.4201,35,0.2591,9569,3.9842,55.7428
lg,1625188705928299478,0,0.7021,-1.0146,0.5164,544,7.9956,-1.0986,10.0098,96,1.5147,1.5508,6.5365,-58.2167,35,0.2631,9691,3.9842,55.9651
lg,1625188706304637551,0,0.2466,-1.0728,0.5762,545,41.1377,197.7539,-77.5757,96,1.5227,1.5518,7.3712,-57.7253,35,0.2621,28549,3.9842,47.5429
lg,1625188706304674403,0,0.0059,-0.9377,0.0518,546,61.8286,198.9136,-129.2114,96,1.5097,1.5438,6.968,-57.5606,35,0.2591,13593,3.9842,37.8602
lg,1625188706304695107,0,-0.4309,-0.7454,-0.0591,547,81.665,165.2832,-106.8726,96,1.5047,1.5378,7.8911,-56.5088,35,0.2551,10317,3.9842,29.801
lg,1625188706304714996,0,-0.4875,-0.6299,0.3997,548,68.7866,177.4902,47.7905,96,1.5037,1.5357,14.4054,-54.7289,35,0.2591,8323,3.9842,24.9394
lg,1625188706304733348,0,-0.572,-0.5906,0.4905,549,32.1045,152.3438,83.252,96,1.5087,1.5368,21.4729,-54.2656,35,0.2601,7892,3.9842,21.7909
lg,1625188706304750829,0,-0.7549,-0.7136,0.6738,550,-26.1841,1.2817,99.1211,96,1.5137,1.5408,25.3378,-54.0451,35,0.2541,8974,3.9842,24.3683
lg,1625188706304769403,0,-0.6543,-0.6306,0.5359,551,-41.9922,-125.1831,128.1738,96,1.5097,1.5448,26.9503,-52.0683,35,0.2511,8319,3.9842,32.3337
lg,1625188706304787366,0,-0.5959,-0.5854,0.6511,552,-57.251,-196.8994,112.2437,96,1.5007,1.5408,25.7782,-49.5336,35,0.2501,8184,3.9842,42.4872
lg,1625188706304806626,0,0.0686,-0.6238,0.3687,553,-81.604,-343.0176,72.5098,96,1.4967,1.5458,17.8585,-48.3126,35,0.2461,11819,3.9842,55.4294
lg,1625188706304824922,0,0.6165,-1.2446,0.7429,554,-121.46,-344.0552,61.2793,96,1.4957,1.5448,9.368,-50.632,35,0.2441,7984,3.9842,67.6646
lg,1625188706304842811,0,0.8367,-1.3716,0.7039,555,-93.75,-292.9688,33.8135,96,1.4947,1.5438,1.9181,-53.7792,35,0.2431,8047,3.9842,77.7306
lg,1625188706304860737,0,0.7849,-1.2969,0.6589,556,-23.3154,-82.5806,-9.5215,96,1.4957,1.5448,-1.4446,-54.9915,35,0.2441,8217,3.9842,80.1974
lg,1625188706304878588,0,0.4622,-0.9341,0.323,557,25.8179,62.9272,-26.7334,96,1.4967,1.5448,-1.7847,-54.4403,35,0.2451,8098,3.9842,77.5301
lg,1625188706304896033,0,0.2358,-0.8689,0.4036,558,37.3535,121.2769,-27.8931,96,1.4977,1.5458,-0.3175,-53.2603,35,0.2471,8081,3.9842,72.9578
lg,1625188706304912700,0,-0.115,-0.8643,0.5032,559,39.3066,169.9829,-17.7612,96,1.5007,1.5468,3.4821,-52.0979,35,0.2501,8143,3.9842,67.1217
lg,1625188706304929848,0,-0.1753,-0.8359,0.4661,560,25.8179,117.5537,-26.8555,96,1.5057,1.5478,5.7905,-51.7502,35,0.2521,8861,3.9842,62.7223
lg,1625188706304947385,0,-0.2185,-0.8379,0.4355,561,20.2637,93.5669,-31.8604,96,1.5117,1.5498,6.8578,-51.9066,35,0.2531,8894,3.9842,59.6742
lg,1625188706304964903,0,-0.1233,-0.8606,0.4817,562,7.3242,13.0615,-29.541,96,1.5187,1.5488,6.017,-52.0672,35,0.2581,12914,3.9842,58.49
lg,1625188706304999126,0,0.0757,-0.9031,0.3923,563,6.897,-36.9263,-37.6587,96,1.5187,1.5458,3.5257,-52.3266,35,0.2601,8989,3.9842,58.6814
lg,1625188706305018533,0,0.1924,-1.0583,0.5059,564,7.5073,-36.7432,-46.0815,96,1.5117,1.5418,0.6751,-52.485,35,0.2561,8966,3.9842,58.6986
lg,1625188706305035681,0,0.2246,-1.0444,0.2722,565,35.1562,-19.043,-40.5884,96,1.5067,1.5388,-1.5565,-51.9342,35,0.2561,8236,3.9842,58.2966
lg,1625188706305053366,0,0.2322,-0.9207,0.2227,566,47.4854,-7.4463,-23.2544,96,1.5057,1.5368,-3.0272,-50.798,35,0.2551,8474,3.9842,57.9648
lg,1625188706305070477,0,0.1616,-0.6838,0.3186,567,52.9175,44.9829,25.0854,96,1.5067,1.5368,-1.4711,-49.1914,35,0.2581,8797,3.9842,57.2486
lg,1625188706305091292,0,-0.0571,-0.7341,0.7395,568,12.3901,79.6509,84.2896,96,1.5127,1.5408,3.3278,-48.5139,35,0.2601,8638,3.9842,57.053
lg,1625188706305109348,0,-0.304,-0.8396,0.5981,569,-15.0757,39.6118,104.4312,96,1.5157,1.5428,8.0173,-49.1795,35,0.2551,8719,3.9842,58.5899
lg,1625188706305126366,0,-0.5647,-0.8772,0.6711,570,-21.4233,21.4844,114.0747,96,1.5107,1.5458,13.0477,-49.3358,35,0.2501,8386,3.9842,61.8369
lg,1625188706305145107,0,-0.5928,-0.7832,0.7292,571,-12.7563,-14.4043,146.0571,96,1.4937,1.5448,17.3946,-48.1145,35,0.2431,9650,3.9842,66.3968
lg,1625188706305164533,0,0.0879,-0.3657,1.1047,572,-36.3159,-134.8877,127.5635,96,1.4867,1.5408,16.722,-46.1009,35,0.2381,9149,3.9842,74.4969
lg,1625188706305181533,0,0.2446,-1.2107,0.981,573,-99.7925,-212.8906,75.1343,96,1.4847,1.5398,12.1858,-48.1339,35,0.2351,9280,3.9842,82.9988
lg,1625188706305198718,0,0.7273,-1.2981,0.6499,574,-58.0444,-183.7769,17.5781,96,1.4847,1.5388,6.5241,-49.9834,35,0.2361,8518,3.9842,88.9967
lg,1625188706305215996,0,0.5081,-1.25,0.4756,575,-3.0518,6.5918,-8.7891,96,1.4877,1.5418,5.3889,-50.8368,35,0.2381,8547,3.9842,88.4934
lg,1625188706305234070,0,0.4507,-1.0776,0.3296,576,22.7051,58.1665,-16.5405,96,1.4907,1.5428,5.3113,-50.928,35,0.2391,8548,3.9842,86.1823
lg,1625188706675318403,0,-0.218,-0.9226,0.4409,577,41.5649,207.5806,-79.9561,96,1.5137,1.5488,8.62,-50.9543,35,0.2451,27424,3.9842,77.61
lg,1625188706675348885,0,-0.4626,-0.8032,0.2915,578,47.1802,90.0879,-91.5527,96,1.5197,1.5478,8.8372,-50.5005,35,0.2501,12659,3.9842,72.3541
lg,1625188706675385755,0,-0.3567,-0.6577,0.3254,579,34.5459,-23.3154,-72.3877,96,1.5197,1.5458,6.6973,-49.7356,35,0.2511,10599,3.9842,71.1456
lg,1625188706675406514,0,-0.1646,-0.6465,0.2898,580,14.8926,-56.5796,-10.7422,96,1.5197,1.5448,5.1757,-49.5971,35,0.2551,7891,3.9842,72.5347
lg,1625188706675425681,0,-0.1611,-0.7339,0.3403,581,-6.5918,-52.3071,22.9492,96,1.5217,1.5468,5.8801,-50.4825,35,0.2591,8241,3.9842,75.5737
lg,1625188706675444033,0,-0.189,-1.043,0.8318,582,-22.583,-50.5371,89.6606,96,1.5247,1.5478,7.4664,-50.9599,35,0.2611,7895,3.9842,79.4267
lg,1625188706675461625,0,-0.0928,-0.8491,0.6887,583,-8.4229,-85.3882,89.1724,96,1.5257,1.5498,7.9765,-50.6184,35,0.2631,10414,3.9842,84.3695
lg,1625188706675479348,0,0.083,-0.6536,0.5596,584,-21.7896,-125.9766,65.1855,96,1.5247,1.5508,6.2881,-50.7335,35,0.2621,8445,3.9842,89.9689
lg,1625188706675497181,0,0.2026,-0.8958,0.665,585,-35.5225,-126.2207,72.5098,96,1.5217,1.5508,5.1213,-51.9923,35,0.2621,8379,3.9842,95.7683
lg,1625188706675514551,0,0.2383,-1.0449,0.6199,586,-45.5322,-111.6943,77.3315,96,1.5207,1.5518,4.2676,-53.6362,35,0.2581,8390,3.9842,101.194
lg,1625188706675531773,0,0.3188,-1.0464,0.6401,587,-18.5547,-63.9648,62.6831,96,1.5197,1.5518,4.0653,-54.2951,35,0.2571,8842,3.9842,104.7338
lg,1625188706675548588,0,0.356,-0.866,0.6345,588,3.1128,-14.1602,31.311,96,1.5207,1.5518,3.8836,-54.0566,35,0.2571,8711,3.9842,105.9251
lg,1625188706675565922,0,0.2283,-1.0203,0.6223,589,-2.1362,22.0947,20.5078,96,1.5247,1.5518,4.4852,-54.3251,35,0.2621,10605,3.9842,105.6729
lg,1625188706675583051,0,0.0601,-1.0713,0.5415,590,3.8452,40.2832,8.667,96,1.5267,1.5528,5.4074,-54.6062,35,0.2641,9034,3.9842,104.5289
lg,1625188706675599922,0,0.0149,-1.0229,0.3833,591,9.4604,38.3911,6.958,96,1.5267,1.5538,6.3328,-54.9103,35,0.2651,8138,3.9842,103.3724
lg,1625188706675616440,0,-0.0103,-0.8833,0.4304,592,-8.0566,19.3481,29.6631,96,1.5217,1.5548,7.5189,-55.5766,35,0.2581,8916,3.9842,103.3712
lg,1625188706675633644,0,0.1511,-0.7566,0.7153,593,-5.188,6.6528,54.9316,96,1.5187,1.5548,8.8596,-55.269,35,0.2581,8201,3.9842,104.449
lg,1625188706675659848,0,-0.0957,-0.856,0.5713,594,-10.9253,8.1177,10.6812,96,1.5137,1.5538,9.2514,-55.7368,35,0.2541,8913,3.9842,104.4174
lg,1625188706675677977,0,-0.0923,-0.8557,0.5857,595,-15.0146,-11.4746,8.0566,96,1.5107,1.5528,9.0964,-56.2275,35,0.2511,8250,3.9842,104.9886
lg,1625188706675695162,0,-0.1331,-0.8418,0.4976,596,-8.3618,-32.4707,-18.9819,96,1.5087,1.5508,7.697,-56.577,35,0.2491,8617,3.9842,105.6433
lg,1625188706675712329,0,-0.0752,-0.8752,0.4985,597,-7.9956,-38.0249,-5.8594,82,1.5067,1.5498,6.5369,-56.89,35,0.2481,8628,3.9886,106.7798
lg,1625188706675728885,0,-0.0642,-0.9292,0.4641,598,0.9766,-20.752,-11.4136,82,1.5057,1.5488,5.5872,-57.0517,35,0.2481,9067,3.9886,107.2032
lg,1625188706675745514,0,-0.0857,-0.8887,0.4229,599,8.4839,-7.8125,-9.4604,82,1.5057,1.5488,5.5254,-56.843,35,0.2481,9053,3.9886,107.0496
lg,1625188706675764477,0,0.0039,-0.8442,0.4614,600,15.9912,7.3853,5.249,82,1.5077,1.5498,5.6337,-56.3836,35,0.2491,8348,3.9886,106.8992
lg,1625188706675781996,0,0.051,-0.8711,0.4731,601,16.6016,17.4561,8.4839,82,1.5087,1.5508,5.9622,-55.9511,35,0.2501,9105,3.9886,106.4832
lg,1625188706675799403,0,0.0842,-0.9197,0.5215,602,21.3013,20.5688,10.3149,82,1.5117,1.5528,6.3481,-55.3153,35,0.2521,8808,3.9886,106.0112
lg,1625188706675816588,0,0.1218,-0.8999,0.5498,603,23.9258,23.6206,8.2397,82,1.5137,1.5528,6.6175,-54.5381,35,0.2541,8395,3.9886,105.3257
lg,1625188706675833551,0,0.1211,-0.8752,0.5186,604,24.9634,26.4282,2.5635,82,1.5177,1.5538,6.7881,-53.8144,35,0.2561,8776,3.9886,104.4956
lg,1625188706675850144,0,0.1145,-0.8867,0.4692,605,28.3203,31.311,1.5259,82,1.5197,1.5548,7.057,-53.1184,35,0.2581,8451,3.9886,103.474
lg,1625188706675866459,0,0.105,-0.8535,0.5796,606,32.8369,35.0342,5.0659,82,1.5227,1.5538,7.5566,-52.0308,35,0.2581,8493,3.9886,102.4554
lg,1625188706675927736,0,0.1233,-0.822,0.5815,607,35.5835,40.8936,0.5493,82,1.5237,1.5528,8.0154,-50.8796,35,0.2601,9089,3.9886,101.1554
lg,1625188706675944681,0,0.0667,-0.9231,0.5771,608,32.2876,53.6499,-2.6245,82,1.5247,1.5518,8.8378,-50.119,35,0.2631,10108,3.9886,99.3681
lg,1625188707040275532,0,-0.031,-0.8992,0.55,609,38.6353,73.2422,9.6436,82,1.5177,1.5468,11.2716,-49.2342,35,0.2631,27810,3.9886,97.3485
lg,1625188707040315144,0,-0.0881,-0.8938,0.5703,610,36.3159,88.3179,29.1138,82,1.5187,1.5478,14.1994,-48.5347,35,0.2681,8687,3.9886,95.3316
lg,1625188707040335625,0,-0.1838,-0.7817,0.5286,611,19.6533,60.2417,42.4194,82,1.5247,1.5508,16.9313,-48.2248,35,0.2631,14764,3.9886,94.5523
lg,1625188707040355366,0,-0.303,-0.7568,0.5508,612,13.855,43.6401,55.603,82,1.5247,1.5518,19.7807,-47.824,35,0.2571,7888,3.9886,94.6815
lg,1625188707040373810,0,-0.3779,-0.7324,0.5322,613,9.4604,25.8789,60.6079,82,1.5187,1.5528,21.8942,-47.1025,35,0.2521,8652,3.9886,96.3787
lg,1625188707040392088,0,-0.1868,-0.5476,0.7585,614,11.8408,-26.8555,56.3965,82,1.5157,1.5528,22.371,-45.1986,35,0.2501,8665,3.9886,99.0736
lg,1625188707040409662,0,-0.2319,-0.7222,0.4373,615,-8.4229,-77.6367,15.625,82,1.5137,1.5528,20.3776,-45.0418,35,0.2481,10027,3.9886,101.7066
lg,1625188707040427107,0,-0.0085,-0.8481,0.5237,616,-9.5825,-121.582,10.9863,82,1.5127,1.5538,16.5097,-44.713,35,0.2471,9667,3.9886,105.4657
lg,1625188707040444829,0,0.0029,-0.946,0.5718,617,-4.3945,-84.1064,-5.6763,82,1.5117,1.5538,13.3421,-44.8628,35,0.2471,8377,3.9886,107.5955
lg,1625188707040463607,0,0.0703,-0.894,0.5784,618,10.9253,-60.3027,-1.8921,82,1.5097,1.5538,10.9258,-44.5549,35,0.2451,8760,3.9886,109.1651
lg,1625188707040481810,0,0.0645,-0.8992,0.5854,619,14.2212,-45.8984,-4.3945,82,1.5117,1.5528,8.9436,-44.2677,35,0.2451,8560,3.9886,110.2503
lg,1625188707040500107,0,0.0989,-0.9333,0.5598,620,22.3999,-23.9258,-9.0942,82,1.5107,1.5528,7.4625,-43.889,35,0.2441,8043,3.9886,110.5682
lg,1625188707040518366,0,0.0977,-0.9043,0.4954,621,35.4004,4.0283,-17.1509,82,1.5117,1.5538,6.6129,-43.2233,35,0.2451,8462,3.9886,109.8643
lg,1625188707040537329,0,0.0527,-0.897,0.48,622,42.1143,18.3105,-20.6909,82,1.5117,1.5528,6.5534,-42.1791,35,0.2441,8460,3.9886,108.2886
lg,1625188707040554995,0,-0.0288,-0.8457,0.4526,623,53.6499,35.3394,-25.0854,82,1.5117,1.5538,6.7628,-40.995,35,0.2451,8869,3.9886,106.4981
lg,1625188707040574884,0,-0.082,-0.8101,0.4326,624,60.8521,36.9873,-29.2358,82,1.5137,1.5528,7.1016,-39.5094,35,0.2451,10993,3.9886,104.5498
lg,1625188707040592495,0,-0.0969,-0.7974,0.4578,625,64.5752,25.0854,-38.4521,82,1.5147,1.5528,6.8933,-37.9508,35,0.2461,8540,3.9886,102.6099
lg,1625188707040610607,0,-0.0593,-0.7754,0.4666,626,65.2466,-0.7324,-46.2036,82,1.5167,1.5528,5.6487,-36.3172,35,0.2461,8204,3.9886,101.0484
lg,1625188707040682588,0,-0.009,-0.8069,0.4929,627,64.3311,-31.3721,-52.4292,82,1.5177,1.5528,3.1263,-34.635,35,0.2471,9062,3.9886,99.9856
lg,1625188707040707662,0,0.0771,-0.8235,0.5154,628,65.5518,-57.0679,-57.6172,82,1.5187,1.5538,-0.3338,-32.9231,35,0.2481,8336,3.9886,99.2915
lg,1625188707040728810,0,0.2056,-0.7749,0.4573,629,70.0073,-70.7397,-60.9131,82,1.5197,1.5528,-4.5047,-31.0885,35,0.2481,8295,3.9886,98.7286
lg,1625188707040748310,0,0.2849,-0.7542,0.4739,630,78.6743,-55.3589,-59.6313,82,1.5197,1.5538,-8.1413,-28.8157,35,0.2481,8647,3.9886,97.8329
lg,1625188707040766384,0,0.3179,-0.7192,0.4907,631,84.7168,-38.0859,-56.9458,82,1.5197,1.5538,-11.039,-26.1842,35,0.2481,8276,3.9886,96.6279
lg,1625188707040786125,0,0.2786,-0.74,0.5994,632,93.4448,2.1973,-47.9126,82,1.5197,1.5528,-12.0049,-23.0199,35,0.2481,9588,3.9886,94.9852
lg,1625188707040804699,0,0.2275,-0.6948,0.6658,633,102.2339,39.3677,-41.3208,82,1.5207,1.5528,-11.2317,-19.3915,35,0.2471,8880,3.9886,93.0123
lg,1625188707040825940,0,0.1648,-0.6587,0.7166,634,110.6567,67.688,-32.6538,82,1.5207,1.5518,-9.0254,-15.5025,35,0.2471,8753,3.9886,91.0968
lg,1625188707040843532,0,0.1333,-0.6331,0.7473,635,112.9761,72.998,-29.6631,82,1.5217,1.5518,-6.4547,-11.6706,35,0.2471,8417,3.9886,89.3634
lg,1625188707040861070,0,0.1387,-0.6011,0.7922,636,111.3892,66.7114,-28.4424,82,1.5217,1.5488,-4.1162,-8.0526,35,0.2461,8767,3.9886,87.8856
lg,1625188707040881255,0,0.0725,-0.6316,0.804,637,107.4219,53.0396,-30.7007,82,1.5227,1.5498,-2.1747,-4.8246,35,0.2471,8516,3.9886,86.5069
lg,1625188707040901051,0,0.0564,-0.6567,0.8501,638,103.9429,39.1846,-33.8135,82,1.5247,1.5518,-0.7422,-1.8734,35,0.2481,8833,3.9886,85.1108
lg,1625188707040919607,0,0.0439,-0.6477,0.8259,639,102.7222,31.9824,-32.959,82,1.5237,1.5498,0.1383,0.8744,35,0.2501,8858,3.9886,83.8223
lg,1625188707040937199,0,0.0579,-0.6321,0.8335,640,102.478,17.1509,-33.2642,82,1.5257,1.5508,0.8067,3.5787,35,0.2501,9224,3.9886,82.5149
lg,1625188707430435051,0,0.0015,-0.4773,0.8582,641,100.769,-24.8413,-36.8042,82,1.5277,1.5518,-0.9908,6.3122,35,0.2541,28747,3.9886,80.6063
lg,1625188707430473884,0,0.0239,-0.3901,0.8679,642,93.1396,-89.8438,-43.396,82,1.5277,1.5508,-4.3312,8.9741,35,0.2521,12915,3.9886,78.4253
lg,1625188707430494569,0,0.1309,-0.3618,0.9319,643,80.3223,-138.3667,-48.2788,82,1.5277,1.5518,-9.561,11.3878,35,0.2531,10296,3.9886,75.6097
lg,1625188707430513940,0,0.2593,-0.3796,1.0037,644,63.4766,-165.8936,-43.5181,82,1.5277,1.5518,-15.854,13.4216,35,0.2531,8406,3.9886,72.6041
lg,1625188707430532514,0,0.3433,-0.4114,1.0251,645,57.312,-170.166,-43.9453,82,1.5277,1.5518,-22.2689,15.5204,35,0.2531,7910,3.9886,69.3738
lg,1625188707430549995,0,0.4844,-0.5024,1.0361,646,50.0488,-156.7993,-40.5273,82,1.5287,1.5518,-28.0126,17.5564,35,0.2521,7946,3.9886,66.2616
lg,1625188707430566977,0,0.5977,-0.542,1.0166,647,54.0161,-116.2109,-38.208,82,1.5277,1.5518,-32.1734,19.7478,35,0.2511,8299,3.9886,63.6475
lg,1625188707430583810,0,0.6558,-0.5127,0.9719,648,65.2466,-57.6172,-39.5508,82,1.5287,1.5508,-34.0432,22.1327,35,0.2511,10164,3.9886,61.8127
lg,1625188707430601921,0,0.5425,-0.4429,0.9482,649,74.0967,0,-43.457,82,1.5287,1.5518,-33.4669,24.3715,35,0.2511,9370,3.9886,60.8963
lg,1625188707430619884,0,0.3657,-0.4189,0.9436,650,73.4863,24.1699,-43.5791,82,1.5287,1.5518,-31.7114,26.1395,35,0.2521,10189,3.9886,60.5791
lg,1625188707430637384,0,0.2542,-0.4077,0.9824,651,70.9229,13.3667,-33.9355,82,1.5287,1.5518,-30.3144,27.6049,35,0.2531,8372,3.9886,60.4844
lg,1625188707430655143,0,0.248,-0.3474,0.9976,652,65.4297,-29.2969,-29.2969,82,1.5287,1.5518,-30.4746,29.2671,35,0.2521,8756,3.9886,59.6006
lg,1625188707430672903,0,0.335,-0.3333,0.9438,653,59.082,-65.6738,-23.0103,82,1.5287,1.5518,-32.1808,31.008,35,0.2521,9852,3.9886,58.0931
lg,1625188707430689866,0,0.3879,-0.3579,0.9392,654,56.0913,-75.3174,-20.3247,82,1.5287,1.5528,-34.6904,32.7605,35,0.2531,9098,3.9886,56.2806
lg,1625188707430706329,0,0.4878,-0.3533,0.8865,655,52.6123,-90.0879,-18.8599,82,1.5297,1.5528,-37.4411,34.7316,35,0.2531,8834,3.9886,54.1875
lg,1625188707430723106,0,0.5725,-0.301,0.8003,656,52.8564,-93.5059,-16.7847,82,1.5307,1.5528,-40.4198,37.0533,35,0.2531,8123,3.9886,51.876
lg,1625188707430739792,0,0.647,-0.2314,0.8008,657,52.1851,-74.0356,-10.7422,82,1.5297,1.5528,-42.8401,39.1329,35,0.2531,8145,3.9886,50.2219
lg,1625188707430756421,0,0.6885,-0.218,0.8472,658,48.4619,-49.6216,-6.7749,82,1.5297,1.5518,-44.4623,40.4232,35,0.2521,8907,3.9886,49.575
lg,1625188707430773347,0,0.6379,-0.2993,0.9797,659,46.2036,20.9961,9.9487,82,1.5297,1.5528,-44.1884,39.1518,35,0.2521,10685,3.9886,52.3759
lg,1625188707430790680,0,0.6055,-0.3184,1.0066,660,48.0957,38.3911,7.8735,82,1.5307,1.5528,-42.9026,37.4552,35,0.2511,8586,3.9886,56.1084
lg,1625188707430807347,0,0.5322,-0.3025,1.0171,661,54.7485,54.7485,10.437,82,1.5297,1.5518,-41.3238,35.9218,35,0.2511,8634,3.9886,59.8627
lg,1625188707430824254,0,0.4949,-0.2668,1.0083,662,56.3965,60.9131,7.6904,82,1.5287,1.5518,-39.3849,34.6611,35,0.2511,8755,3.9886,63.4453
lg,1625188707430841403,0,0.4438,-0.2354,1.001,663,53.3447,61.0352,7.4463,82,1.5307,1.5518,-37.3381,33.5235,35,0.2511,8342,3.9886,66.7825
lg,1625188707431614643,0,0.3779,-0.2346,1.0171,664,53.1616,62.1338,5.6763,82,1.5297,1.5518,-35.0849,32.5273,35,0.2511,8725,3.9886,69.9164
lg,1625188707431644162,0,0.3271,-0.198,0.979,665,51.5747,61.8896,5.188,82,1.5307,1.5508,-32.7878,31.7635,35,0.2501,8774,3.9886,72.773
lg,1625188707431666384,0,0.2449,-0.1616,0.9741,666,46.7529,53.0396,5.6152,82,1.5307,1.5508,-30.6586,31.1118,35,0.2501,8354,3.9886,75.2379
lg,1625188707431686495,0,0.1768,-0.1458,1.019,667,39.2456,38.6963,13.1226,82,1.5287,1.5498,-29.0415,30.3245,35,0.2501,8749,3.9886,77.5127
lg,1625188707431705254,0,0.1704,-0.1919,1.0281,668,30.3955,10.2539,19.2871,82,1.5287,1.5498,-28.5588,29.3756,35,0.2501,9179,3.9886,79.329
lg,1625188707431725088,0,0.2329,-0.2346,1.0339,669,27.5879,-2.1973,20.2637,82,1.5297,1.5498,-29.0046,28.3551,35,0.2501,9193,3.9886,80.8328
lg,1625188707431744217,0,0.2644,-0.2334,1.0195,670,24.6582,-15.686,23.4375,82,1.5287,1.5488,-29.668,27.3655,35,0.2501,8840,3.9886,82.261
lg,1625188707431763495,0,0.3535,-0.2483,1.0413,671,22.2168,-23.0103,24.9023,82,1.5297,1.5498,-30.7339,26.3397,35,0.2501,9468,3.9886,83.6218
lg,1625188707431788347,0,0.4075,-0.2681,1.0212,672,20.5078,-22.9492,20.6299,82,1.5297,1.5508,-31.7897,25.3146,35,0.2491,8552,3.9886,84.863
lg,1625188707795172662,0,0.3962,-0.2375,1.0457,673,19.104,7.6294,14.0991,82,1.5287,1.5478,-31.5233,24.131,35,0.2491,27533,3.9886,86.438
lg,1625188707795207291,0,0.3625,-0.261,1.0596,674,17.8833,12.207,13.7939,82,1.5287,1.5488,-31.0069,22.8624,35,0.2491,8683,3.9886,88.0773
lg,1625188707795227958,0,0.376,-0.2578,1.0872,675,15.686,12.5122,14.4653,82,1.5297,1.5478,-30.5487,21.5065,35,0.2491,13820,3.9886,89.7147
lg,1625188707795247291,0,0.3669,-0.2529,1.1052,676,12.9395,11.9019,14.9536,82,1.5287,1.5478,-30.0023,20.1806,35,0.2481,8038,3.9886,91.2827
lg,1625188707795265551,0,0.3684,-0.2625,1.0918,677,11.2915,12.8784,12.7563,82,1.5297,1.5478,-29.3929,18.8771,35,0.2491,8025,3.9886,92.7299
lg,1625188707795283106,0,0.3691,-0.2437,1.092,678,9.5825,14.1602,11.5356,82,1.5297,1.5468,-28.7075,17.6271,35,0.2491,8049,3.9886,94.0715
lg,1625188707795301791,0,0.3633,-0.2205,1.0898,679,8.667,14.3433,10.0098,82,1.5297,1.5468,-27.9805,16.4812,35,0.2491,8602,3.9886,95.2751
lg,1625188707795319699,0,0.3669,-0.2129,1.0798,680,6.897,16.6016,8.728,82,1.5287,1.5458,-27.1696,15.3682,35,0.2481,10370,3.9886,96.3874
lg,1625188707795340143,0,0.323,-0.209,1.0442,681,5.4321,21.3013,6.5308,82,1.5277,1.5458,-26.1061,14.2543,35,0.2481,8593,3.9886,97.4166
lg,1625188707795358088,0,0.3105,-0.2009,1.0251,682,3.9062,25.8789,6.958,82,1.5287,1.5458,-24.8764,13.1296,35,0.2481,8641,3.9886,98.446
lg,1625188707795375791,0,0.2808,-0.1853,0.9929,683,2.8076,28.3813,7.8735,82,1.5287,1.5458,-23.5417,12.026,35,0.2481,8818,3.9886,99.463
lg,1625188707795393273,0,0.2644,-0.1953,1.0022,684,1.9531,28.3813,9.1553,82,1.5287,1.5448,-22.1665,10.9262,35,0.2491,8624,3.9886,100.4272
lg,1625188707795410291,0,0.2527,-0.2019,1.0039,685,1.2817,25.6348,10.0708,82,1.5277,1.5428,-20.9608,9.8468,35,0.2481,8702,3.9886,101.3938
lg,1625188707795427162,0,0.2661,-0.2095,0.9802,686,1.5869,19.2261,11.3525,82,1.5287,1.5448,-20.0869,8.8198,35,0.2491,8726,3.9886,102.3208
lg,1625188707795445051,0,0.2834,-0.2368,0.9929,687,2.6855,18.0054,8.728,82,1.5277,1.5458,-19.2958,7.885,35,0.2481,8749,3.9886,103.1038
lg,1625188707795462365,0,0.2734,-0.2375,0.9773,688,3.6011,18.0664,7.9346,82,1.5277,1.5448,-18.5189,7.1372,35,0.2481,8741,3.9886,103.6675
lg,1625188707795479717,0,0.2476,-0.2371,0.9778,689,6.3477,16.2964,1.4648,82,1.5277,1.5448,-17.735,6.5224,35,0.2481,8760,3.9886,104.074
lg,1625188707795497847,0,0.2063,-0.2258,0.9968,690,7.2632,10.0098,-1.2207,82,1.5277,1.5448,-17.116,6.0421,35,0.2481,8752,3.9886,104.3056
lg,1625188707795515365,0,0.1626,-0.1831,0.9836,691,6.5918,-5.188,-5.6152,82,1.5287,1.5438,-17.0103,5.7104,35,0.2481,8785,3.9886,104.2476
lg,1625188707795532421,0,0.1609,-0.1846,1.0034,692,4.0283,-27.6489,-4.6387,82,1.5297,1.5448,-17.7927,5.3085,35,0.2481,12703,3.9886,104.1344
lg,1625188707795549828,0,0.207,-0.1843,0.9956,693,1.709,-46.875,-2.2583,82,1.5297,1.5448,-19.4192,4.8232,35,0.2481,8914,3.9886,104.0605
lg,1625188707795568088,0,0.2683,-0.1748,1.0046,694,-1.8311,-56.4575,5.5542,82,1.5287,1.5438,-21.5117,4.1384,35,0.2481,10217,3.9886,104.3068
lg,1625188707795586199,0,0.3457,-0.2085,1.0186,695,-7.9956,-64.6362,7.0801,82,1.5287,1.5438,-23.9977,3.137,35,0.2481,8931,3.9886,104.6684
lg,1625188707795605902,0,0.4048,-0.2292,0.9827,696,-9.1553,-63.4766,8.0566,82,1.5297,1.5438,-26.4788,2.0212,35,0.2481,9017,3.9886,105.1654
lg,1625188707795625569,0,0.4387,-0.2334,0.9641,697,-7.5073,-52.7344,9.0942,82,1.5287,1.5438,-28.5086,0.9302,35,0.2471,10147,3.9886,105.7976
lg,1625188707795643476,0,0.4863,-0.2375,0.9746,698,-6.4697,-41.3208,9.8877,82,1.5287,1.5418,-30.0738,-0.1346,35,0.2461,8951,3.9886,106.5228
lg,1625188707795662014,0,0.4714,-0.2542,0.9817,699,-5.7983,-35.3394,11.0474,82,1.5287,1.5418,-31.336,-1.224,35,0.2461,9013,3.9886,107.3523
lg,1625188707795679921,0,0.4929,-0.2395,0.9485,700,-4.3945,-21.6064,7.6294,82,1.5287,1.5418,-32.0217,-2.136,35,0.2451,9019,3.9886,108.02
lg,1625188707795698495,0,0.479,-0.2463,0.9414,701,-1.8311,-11.2915,7.6904,82,1.5287,1.5418,-32.2429,-2.9351,35,0.2451,9071,3.9886,108.6846
lg,1625188707795716976,0,0.4443,-0.2412,0.9363,702,-0.7935,-4.4556,8.0566,82,1.5297,1.5408,-32.1152,-3.6603,35,0.2451,9085,3.9886,109.3371
lg,1625188707795734088,0,0.4297,-0.2305,0.9541,703,0.4272,-2.8076,10.9253,82,1.5297,1.5418,-31.8688,-4.341,35,0.2451,9077,3.9886,110.0852
lg,1625188707795751014,0,0.4104,-0.23,0.9568,704,0.4272,-3.6011,11.6577,82,1.5297,1.5408,-31.6146,-5.0094,35,0.2451,9123,3.9886,110.8528
lg,1625188708184839717,0,0.4739,-0.2322,0.9866,705,-0.061,8.728,14.2212,88,1.5307,1.5418,-30.9583,-5.6787,35,0.2451,28101,3.9875,111.6581
lg,1625188708184891698,0,0.4177,-0.2202,0.9683,706,1.8921,18.6157,12.8174,88,1.5307,1.5418,-29.6262,-6.0173,35,0.2461,14899,3.9875,112.1611
lg,1625188708184923180,0,0.3879,-0.2119,0.9751,707,4.0894,28.9917,9.5825,88,1.5307,1.5418,-28.1049,-6.2568,35,0.2461,8460,3.9875,112.584
lg,1625188708184953180,0,0.3223,-0.1807,0.9795,708,5.4932,36.5601,10.9253,88,1.5307,1.5418,-26.2043,-6.3538,35,0.2461,8424,3.9875,112.9745
lg,1625188708184980680,0,0.2661,-0.1836,0.9512,709,3.9673,30.2124,11.7798,88,1.5307,1.5408,-24.5256,-6.544,35,0.2461,8446,3.9875,113.4266
lg,1625188708185006976,0,0.238,-0.1765,0.9817,710,3.479,25.9399,11.9019,88,1.5307,1.5408,-23.2051,-6.7147,35,0.2471,8809,3.9875,113.9512
lg,1625188708185421180,0,0.2322,-0.1814,0.9775,711,0.5493,5.3711,14.0991,88,1.5307,1.5398,-22.5246,-7.0744,35,0.2461,8679,3.9875,114.5922
lg,1625188708185491458,0,0.2683,-0.1965,0.9734,712,-1.2817,-7.3853,14.2822,88,1.5307,1.5408,-22.4477,-7.5526,35,0.2461,13754,3.9875,115.314
lg,1625188708185527884,0,0.3118,-0.2151,0.9773,713,-2.1362,-15.9302,13.4888,88,1.5307,1.5408,-22.7964,-8.0929,35,0.2461,8676,3.9875,116.0626
lg,1625188708185562476,0,0.3503,-0.2153,0.9727,714,-1.8311,-17.8223,11.9019,88,1.5307,1.5408,-23.2905,-8.5859,35,0.2471,8561,3.9875,116.7558
lg,1625188708185594217,0,0.3748,-0.21,0.9778,715,-1.5259,-17.4561,11.1084,88,1.5307,1.5408,-23.7416,-8.9873,35,0.2471,8602,3.9875,117.2715
lg,1625188708185626754,0,0.397,-0.209,0.9744,716,-1.4038,-13.7329,10.1318,88,1.5317,1.5408,-24.1317,-9.3826,35,0.2461,8649,3.9875,117.8555
lg,1625188708185658865,0,0.3994,-0.22,0.9658,717,-1.2817,-11.1084,14.5874,88,1.5307,1.5418,-24.3793,-9.8624,35,0.2461,8970,3.9875,118.6245
lg,1625188708185686791,0,0.4199,-0.2195,0.9631,718,-0.6104,-5.6763,12.5122,88,1.5307,1.5398,-24.4555,-10.2447,35,0.2471,8696,3.9875,119.258
lg,1625188708185834921,0,0.4028,-0.2119,0.9546,719,-0.1831,-1.3428,12.8784,88,1.5307,1.5398,-24.3273,-10.5745,35,0.2471,8664,3.9875,119.862
lg,1625188708185865328,0,0.3887,-0.2297,0.9697,720,0.1831,1.6479,11.9019,88,1.5347,1.5398,-24.0712,-10.8924,35,0.2471,8695,3.9875,120.4115
lg,1625188708186109921,0,0.3801,-0.2126,0.9634,721,2.2583,3.6011,12.3901,88,1.5307,1.5398,-23.7111,-11.0655,35,0.2461,8760,3.9875,120.9382
lg,1625188708186148347,0,0.3611,-0.2192,0.9841,722,2.9297,5.3101,11.9019,88,1.5317,1.5388,-23.2471,-11.1913,35,0.2471,8810,3.9875,121.4261
lg,1625188708186177050,0,0.3528,-0.1987,0.9814,723,2.3804,4.5776,13.7939,88,1.5307,1.5398,-22.8025,-11.3184,35,0.2471,8812,3.9875,121.9781
lg,1625188708186204050,0,0.3491,-0.1982,0.9805,724,2.4414,5.9814,12.5732,88,1.5317,1.5398,-22.3002,-11.4802,35,0.2471,8827,3.9875,122.5939
lg,1625188708186231513,0,0.3662,-0.1897,0.9775,725,1.8311,5.9204,14.3433,88,1.5317,1.5388,-21.865,-11.5928,35,0.2481,8827,3.9875,123.1404
lg,1625188708186258606,0,0.344,-0.196,0.9846,726,1.5259,7.019,15.7471,88,1.5317,1.5398,-21.3412,-11.7371,35,0.2481,8847,3.9875,123.7365
lg,1625188708186286439,0,0.3313,-0.1814,0.97,727,1.0376,5.8594,15.2588,88,1.5317,1.5388,-20.8724,-11.8585,35,0.2481,8884,3.9875,124.3073
lg,1625188708186408291,0,0.3069,-0.1868,0.9629,728,0.9155,2.3193,13.916,88,1.5317,1.5388,-20.5232,-11.9816,35,0.2481,9353,3.9875,124.8551
lg,1625188708186442180,0,0.3086,-0.2073,0.979,729,0.3052,-0.7935,13.916,88,1.5307,1.5398,-20.2983,-12.1699,35,0.2481,10792,3.9875,125.4414
lg,1625188708186470847,0,0.3142,-0.1978,0.9761,730,-0.7324,-3.2349,11.7798,88,1.5317,1.5378,-20.2086,-12.3468,35,0.2481,8962,3.9875,125.9503
lg,1625188708186501717,0,0.3384,-0.2092,0.9971,731,-0.6714,-5.249,10.498,88,1.5317,1.5388,-20.3148,-12.5496,35,0.2481,8941,3.9875,126.5324
lg,1625188708186590921,0,0.3508,-0.1982,0.9927,732,-0.4883,-7.6294,10.9253,88,1.5317,1.5378,-20.4632,-12.6987,35,0.2481,8964,3.9875,127.04
lg,1625188708186626828,0,0.3772,-0.2156,0.9824,733,-0.1831,-7.5684,13.6108,88,1.5317,1.5378,-20.6348,-12.9139,35,0.2481,9011,3.9875,127.6733
lg,1625188708186654810,0,0.4092,-0.2114,0.9666,734,0.8545,-2.4414,13.4277,88,1.5297,1.5388,-20.676,-13.0593,35,0.2481,9025,3.9875,128.2471
lg,1625188708186683847,0,0.4067,-0.2173,0.9802,735,1.9531,3.418,12.6953,88,1.5327,1.5388,-20.4774,-13.1298,35,0.2481,9152,3.9875,128.7332
lg,1625188708186715050,0,0.3799,-0.1965,0.9817,736,3.6621,9.2773,11.1084,88,1.5327,1.5398,-20.0236,-13.0375,35,0.2481,9241,3.9875,129.0781
lg,1625188708585803902,0,0.3394,-0.1946,0.9624,737,3.0518,14.0991,9.4604,88,1.5327,1.5398,-19.318,-12.9314,35,0.2481,26694,3.9875,129.3013
lg,1625188708585836106,0,0.3281,-0.209,0.9846,738,2.9907,15.4419,8.7891,88,1.5327,1.5398,-18.5849,-12.8412,35,0.2491,13453,3.9875,129.5038
lg,1625188708585856624,0,0.3137,-0.1831,0.9678,739,3.7231,13.0615,8.3618,88,1.5327,1.5398,-17.9627,-12.6743,35,0.2501,10044,3.9875,129.6971
lg,1625188708585913328,0,0.2864,-0.186,0.9893,740,1.8921,11.9629,7.3853,88,1.5327,1.5398,-17.3462,-12.573,35,0.2501,7923,3.9875,129.8634
lg,1625188708585933476,0,0.2786,-0.179,0.9966,741,0.4883,9.4604,7.5684,88,1.5327,1.5388,-16.9684,-12.5923,35,0.2501,7914,3.9875,130.1934
lg,1625188708585953217,0,0.283,-0.1868,0.9861,742,-1.0376,2.8076,8.8501,88,1.5327,1.5388,-16.7293,-12.653,35,0.2511,8294,3.9875,130.5057
lg,1625188708585971920,0,0.2795,-0.1907,0.9749,743,-2.3193,-1.6479,11.6577,88,1.5327,1.5388,-16.6463,-12.8195,35,0.2501,7941,3.9875,130.9764
lg,1625188708585990680,0,0.3062,-0.2041,0.9873,744,-2.6245,-6.4087,13.5498,88,1.5327,1.5388,-16.7794,-13.0514,35,0.2511,8826,3.9875,131.5741
lg,1625188708586009087,0,0.3423,-0.2065,0.9946,745,-2.6855,-10.1318,15.9302,88,1.5337,1.5398,-17.0957,-13.3202,35,0.2511,11621,3.9875,132.3037
lg,1625188708586027198,0,0.3494,-0.2183,0.9846,746,-2.4414,-7.8125,13.1226,88,1.5337,1.5398,-17.3516,-13.5625,35,0.2521,8091,3.9875,132.904
lg,1625188708586044235,0,0.3438,-0.2375,1.0037,747,-1.77,-6.4697,12.4512,88,1.5337,1.5378,-17.5226,-13.7908,35,0.2521,8021,3.9875,133.4717
lg,1625188708586080754,0,0.3518,-0.2146,0.9675,748,-1.0376,-4.9438,12.9395,88,1.5327,1.5388,-17.6653,-13.9525,35,0.2521,8333,3.9875,134.0324
lg,1625188708586097957,0,0.3303,-0.2168,0.9912,749,-1.4038,-4.0283,10.6201,88,1.5347,1.5398,-17.7282,-14.0847,35,0.2511,8853,3.9875,134.4854
lg,1625188708586114698,0,0.3284,-0.2051,0.97,750,-1.1597,-4.7607,11.8408,88,1.5337,1.5398,-17.8159,-14.2044,35,0.2521,8088,3.9875,134.9896
lg,1625188708586131050,0,0.3342,-0.2129,0.9888,751,-1.2817,-5.6152,12.9395,88,1.5337,1.5398,-17.9194,-14.35,35,0.2511,8090,3.9875,135.5488
lg,1625188708586147495,0,0.3372,-0.2278,0.9834,752,-0.6104,-4.6387,13.0615,88,1.5347,1.5398,-17.9855,-14.4976,35,0.2521,8528,3.9875,136.1122
lg,1625188708586164087,0,0.3364,-0.1963,0.9822,753,-0.2441,-3.8452,13.5498,88,1.5347,1.5408,-18.0179,-14.5236,35,0.2521,8877,3.9875,136.6005
lg,1625188708586180291,0,0.3479,-0.1992,0.988,754,0.4272,-3.418,12.2681,88,1.5337,1.5388,-18.0634,-14.5455,35,0.2521,8485,3.9875,137.0967
lg,1625188708586198050,0,0.3479,-0.188,0.9785,755,0.3052,-3.418,12.9395,88,1.5337,1.5398,-18.1087,-14.5598,35,0.2521,8137,3.9875,137.6136
lg,1625188708586215624,0,0.3491,-0.1934,0.9802,756,0,-4.1504,12.0239,88,1.5337,1.5408,-18.1897,-14.5883,35,0.2511,8169,3.9875,138.1043
lg,1625188708586232587,0,0.3445,-0.2192,0.9949,757,-0.1221,-1.0986,15.9912,88,1.5337,1.5388,-18.0855,-14.7102,35,0.2521,13549,3.9875,138.7392
lg,1625188708586249587,0,0.3445,-0.2083,0.9839,758,0.061,1.6479,14.0991,88,1.5337,1.5388,-17.9072,-14.7668,35,0.2521,8830,3.9875,139.2596
lg,1625188708586267124,0,0.3411,-0.1909,0.9766,759,-0.9155,3.2959,15.3809,88,1.5337,1.5388,-17.6598,-14.8335,35,0.2521,8827,3.9875,139.8023
lg,1625188708586284495,0,0.3557,-0.2168,0.9905,760,0.5493,2.0752,17.395,88,1.5337,1.5388,-17.4635,-14.9161,35,0.2521,8851,3.9875,140.4542
lg,1625188708586302402,0,0.3523,-0.208,0.9907,761,1.0986,2.6245,17.2119,88,1.5337,1.5388,-17.2015,-14.8961,35,0.2521,9385,3.9875,141.0378
lg,1625188708586318754,0,0.3328,-0.1995,0.9719,762,1.2817,5.9814,15.2588,88,1.5337,1.5388,-16.8768,-14.8665,35,0.2521,9929,3.9875,141.5483
lg,1625188708586346217,0,0.3118,-0.1919,0.9856,763,2.3804,7.6904,13.5498,88,1.5337,1.5388,-16.4537,-14.749,35,0.2511,8408,3.9875,141.9671
lg,1625188708586364106,0,0.3223,-0.198,0.9907,764,1.6479,7.3242,17.2119,88,1.5337,1.5398,-16.0032,-14.7116,35,0.2531,8757,3.9875,142.5416
lg,1625188708586380735,0,0.3035,-0.2061,1.0068,765,1.77,6.1646,13.9771,88,1.5337,1.5357,-15.6383,-14.6484,35,0.2521,9147,3.9875,143.0029
lg,1625188708586396995,0,0.3127,-0.2041,0.9849,766,1.4038,6.0425,12.8174,88,1.5337,1.5388,-15.3373,-14.5937,35,0.2521,8524,3.9875,143.4216
lg,1625188708586413346,0,0.2998,-0.1953,0.9922,767,1.0376,5.0049,13.1836,88,1.5337,1.5388,-15.0553,-14.5373,35,0.2521,8828,3.9875,143.8606
lg,1625188708586429383,0,0.2866,-0.2078,1.001,768,0.7935,3.6621,11.9019,88,1.5327,1.5378,-14.8834,-14.5298,35,0.2521,8870,3.9875,144.3687
lg,1625188709009996198,0,0.3059,-0.2263,0.9734,769,1.4648,-0.6104,10.376,88,1.5337,1.5388,-14.8836,-14.5194,35,0.2531,26459,3.9875,144.775
lg,1625188709010038254,0,0.3022,-0.2209,0.9797,770,2.2583,-0.6104,10.7422,88,1.5337,1.5388,-14.8698,-14.4665,35,0.2531,8550,3.9875,145.1922
lg,1625188709010059179,0,0.3096,-0.1772,0.9714,771,3.418,-2.2583,12.146,88,1.5337,1.5388,-14.9342,-14.2963,35,0.2531,8340,3.9875,145.6595
lg,1625188709010081161,0,0.3154,-0.1873,0.9802,772,1.5869,-3.6011,13.6719,88,1.5337,1.5388,-15.0387,-14.2445,35,0.2541,9032,3.9875,146.2085
lg,1625188709010105661,0,0.3259,-0.1858,0.9937,773,0.9155,-3.7231,11.7798,88,1.5337,1.5388,-15.2273,-14.2306,35,0.2541,8039,3.9875,146.7993
lg,1625188709010124013,0,0.3208,-0.1936,0.9797,774,1.6479,-5.8594,16.0522,88,1.5337,1.5388,-15.3947,-14.2279,35,0.2541,10549,3.9875,147.4718
lg,1625188709010143272,0,0.3352,-0.1853,0.9746,775,1.77,-4.5776,15.2588,88,1.5337,1.5388,-15.5482,-14.195,35,0.2531,8687,3.9875,148.0952
lg,1625188709010160698,0,0.3254,-0.1848,1.0005,776,2.0142,-3.54,13.7329,88,1.5337,1.5388,-15.6014,-14.1356,35,0.2521,8327,3.9875,148.6453
lg,1625188709010254050,0,0.3157,-0.1858,1.0103,777,0.4883,-2.4414,14.1602,88,1.5337,1.5388,-15.6053,-14.1507,35,0.2531,8033,3.9875,149.263
lg,1625188709010277939,0,0.3171,-0.2,1.01,778,0.3052,-3.2349,15.7471,88,1.5337,1.5388,-15.6326,-14.1982,35,0.2531,7995,3.9875,149.8976
lg,1625188709010297420,0,0.3032,-0.2004,0.9902,779,0.3052,-3.2349,15.8691,88,1.5337,1.5388,-15.6407,-14.2548,35,0.2531,8757,3.9875,150.5391
lg,1625188709010314754,0,0.3281,-0.1814,0.9963,780,0.5493,-2.5635,15.7471,88,1.5337,1.5388,-15.6734,-14.2533,35,0.2531,8122,3.9875,151.1564
lg,1625188709010332587,0,0.3157,-0.1926,0.9893,781,0.6714,-1.6479,14.3433,88,1.5337,1.5388,-15.6715,-14.3036,35,0.2531,9725,3.9875,151.8542
lg,1625188709010350624,0,0.3003,-0.1936,0.9968,782,0.5493,-2.0142,15.7471,88,1.5347,1.5388,-15.6222,-14.3237,35,0.2531,9151,3.9875,152.4721
lg,1625188709010367939,0,0.302,-0.2007,0.9766,783,0.061,-3.6621,15.4419,88,1.5327,1.5398,-15.6557,-14.3884,35,0.2531,8601,3.9875,153.1013
lg,1625188709010385216,0,0.3152,-0.1995,0.9768,784,-0.3662,-5.0049,13.7939,88,1.5337,1.5378,-15.7828,-14.4519,35,0.2531,8854,3.9875,153.6769
lg,1625188709010403883,0,0.3323,-0.2007,0.9875,785,0.4883,-6.6528,17.2119,88,1.5337,1.5388,-15.9615,-14.521,35,0.2531,8517,3.9875,154.4064
lg,1625188709010422365,0,0.3289,-0.2146,0.9912,786,0.4883,-6.1035,15.8081,88,1.5347,1.5388,-16.1135,-14.6008,35,0.2531,8519,3.9875,155.0811
lg,1625188709010443031,0,0.3416,-0.1956,0.9932,787,1.0376,-5.249,15.9912,88,1.5347,1.5388,-16.2517,-14.6153,35,0.2531,8913,3.9875,155.7419
lg,1625188709010460216,0,0.3315,-0.1921,0.9834,788,1.0376,-3.6011,15.564,88,1.5347,1.5388,-16.3118,-14.6171,35,0.2541,8970,3.9875,156.3669
lg,1625188709010480161,0,0.3311,-0.1846,1.0073,789,1.1597,-3.2959,16.1743,88,1.5347,1.5388,-16.3366,-14.5938,35,0.2531,8980,3.9875,157.0058
lg,1625188709010497920,0,0.3284,-0.1902,0.9807,790,1.1597,-2.7466,13.2446,88,1.5337,1.5378,-16.3465,-14.5881,35,0.2541,8765,3.9875,157.5594
lg,1625188709010515698,0,0.3264,-0.1721,0.9861,791,0.8545,-2.0752,13.916,88,1.5347,1.5357,-16.3522,-14.5305,35,0.2531,8678,3.9875,158.0892
lg,1625188709010545939,0,0.3167,-0.1902,0.9836,792,1.2817,-2.6855,15.0757,88,1.5347,1.5388,-16.3485,-14.5135,35,0.2531,8677,3.9875,158.6845
lg,1625188709010563365,0,0.3032,-0.1895,0.9939,793,0.5493,-2.4414,12.8784,88,1.5347,1.5388,-16.3239,-14.4939,35,0.2541,8717,3.9875,159.1868
lg,1625188709010580476,0,0.3083,-0.1855,0.9854,794,0.061,-2.9907,13.7329,88,1.5337,1.5378,-16.3428,-14.5295,35,0.2541,8316,3.9875,159.7364
lg,1625188709010598791,0,0.3042,-0.2019,0.979,795,0.6104,-5.5542,16.5405,88,1.5347,1.5388,-16.4103,-14.5923,35,0.2541,9148,3.9875,160.4289
lg,1625188709010615402,0,0.3191,-0.1899,0.9927,796,1.4038,-4.3335,15.8081,88,1.5347,1.5388,-16.4592,-14.5778,35,0.2541,8709,3.9875,161.0692
lg,1625188709010633087,0,0.3064,-0.1919,0.9902,797,1.2207,-4.0894,12.9395,88,1.5357,1.5398,-16.501,-14.5429,35,0.2541,8470,3.9875,161.5928
lg,1625188709010652587,0,0.3147,-0.1858,1.0049,798,0.8545,-4.5166,12.7563,88,1.5347,1.5388,-16.543,-14.5189,35,0.2541,8802,3.9875,162.1512
lg,1625188709010672642,0,0.3008,-0.1897,1.0032,799,0.2441,-4.2114,13.3667,88,1.5347,1.5388,-16.5956,-14.5442,35,0.2541,9816,3.9875,162.7217
lg,1625188709010690531,0,0.3118,-0.1963,0.9973,800,0,-6.7749,13.7939,88,1.5357,1.5378,-16.7514,-14.5741,35,0.2541,10232,3.9875,163.3228
lg,1625188709290814939,0,0.3247,-0.1829,0.9854,801,0.1831,-8.4229,13.5498,88,1.5347,1.5388,-16.9845,-14.5878,35,0.2541,26248,3.9875,163.9122
lg,1625188709290850327,0,0.3293,-0.2048,0.9961,802,0.2441,-8.4839,13.5498,88,1.5347,1.5378,-17.2092,-14.6448,35,0.2541,9365,3.9875,164.5152
lg,1625188709290870735,0,0.3372,-0.1897,0.9717,803,0.3662,-9.4604,16.1743,88,1.5347,1.5378,-17.4699,-14.7103,35,0.2541,8177,3.9875,165.2283
lg,1625188709290889809,0,0.3438,-0.1965,0.9966,804,0.4883,-8.1787,13.7939,88,1.5347,1.5388,-17.6731,-14.8132,35,0.2541,8629,3.9875,166.0183
lg,1625188709290907976,0,0.3486,-0.2007,0.9905,805,0.3662,-7.2632,14.1602,88,1.5347,1.5388,-17.8581,-14.8617,35,0.2551,8782,3.9875,166.6299
lg,1625188709290925402,0,0.3237,-0.2039,1.0002,806,0.061,-4.3945,13.2446,88,1.5347,1.5388,-17.8774,-14.9023,35,0.2541,8242,3.9875,167.1732
lg,1625188709290962827,0,0.3552,-0.1965,0.9966,807,0.8545,-3.8452,16.2354,88,1.5347,1.5388,-17.9103,-14.9324,35,0.2541,8801,3.9875,167.8275
lg,1625188709290982309,0,0.3467,-0.1968,0.9902,808,0.8545,-1.1597,14.0991,88,1.5347,1.5388,-17.8547,-14.9418,35,0.2541,7934,3.9875,168.3704
lg,1625188709291000568,0,0.3547,-0.1899,0.9905,809,0.8545,2.5024,15.686,88,1.5347,1.5388,-17.654,-14.9293,35,0.2541,14635,3.9875,168.9289
lg,1625188709291019124,0,0.3096,-0.2041,0.9932,810,1.4648,3.9062,12.4512,88,1.5347,1.5388,-17.3453,-14.8742,35,0.2541,8255,3.9875,169.3498
lg,1625188709291036716,0,0.3069,-0.1787,0.9744,811,0.9155,3.54,10.9863,88,1.5347,1.5388,-17.0886,-14.7768,35,0.2541,8612,3.9875,169.7019
lg,1625188709291054161,0,0.3184,-0.2031,0.9839,812,0.1221,0.2441,15.1978,88,1.5347,1.5388,-16.94,-14.8241,35,0.2541,8547,3.9875,170.2763
lg,1625188709291071290,0,0.3079,-0.2048,1.0034,813,0.3052,-0.1831,13.916,88,1.5347,1.5388,-16.8111,-14.8314,35,0.2541,7948,3.9875,170.7981
lg,1625188709291088642,0,0.3193,-0.1931,0.9771,814,0.7324,-0.061,13.3057,88,1.5347,1.5378,-16.7125,-14.8096,35,0.2541,8791,3.9875,171.2929
lg,1625188709291105531,0,0.3184,-0.2029,1.0007,815,1.2817,-1.709,14.6484,88,1.5347,1.5388,-16.6492,-14.7973,35,0.2541,8435,3.9875,-188.137
lg,1625188709291122661,0,0.312,-0.1797,1.0002,816,0.9766,-1.709,16.5405,88,1.5317,1.5388,-16.5604,-14.7682,35,0.2551,9100,3.9875,-187.505
lg,1625188709291139346,0,0.3289,-0.2112,0.9819,817,0.5493,-1.77,15.3198,88,1.5347,1.5388,-16.5306,-14.8204,35,0.2551,9055,3.9831,-186.8989
lg,1625188709291156031,0,0.3267,-0.1973,0.9954,818,0.3052,-2.0142,16.4795,90,1.5357,1.5388,-16.4883,-14.8572,35,0.2541,8902,3.9831,-186.2546
lg,1625188709291172939,0,0.3337,-0.1995,0.9875,819,1.4038,-0.6714,15.9912,90,1.5357,1.5388,-16.3889,-14.8674,35,0.2541,8934,3.9831,-185.6846
lg,1625188709291189550,0,0.3228,-0.1973,0.9841,820,0.9766,-0.6104,15.4419,90,1.5368,1.5388,-16.3077,-14.8627,35,0.2541,8220,3.9831,-185.0966
lg,1625188709291205939,0,0.3223,-0.2031,0.9871,821,1.4648,-0.5493,13.6719,90,1.5347,1.5388,-16.2419,-14.8291,35,0.2551,8915,3.9831,-184.5772
lg,1625188709291244735,0,0.3159,-0.187,0.9998,822,0.9766,-1.0986,15.625,90,1.5347,1.5388,-16.2028,-14.812,35,0.2551,8822,3.9831,-183.9807
lg,1625188709291264161,0,0.3186,-0.1802,0.9783,823,0.7935,0,13.9771,90,1.5347,1.5388,-16.1192,-14.7613,35,0.2541,8314,3.9831,-183.4675
lg,1625188709291281587,0,0.3169,-0.196,0.9824,824,0.4883,-0.1831,14.7705,90,1.5347,1.5388,-16.0294,-14.7664,35,0.2551,8628,3.9831,-182.9104
lg,1625188709291298402,0,0.3086,-0.1973,0.9797,825,0.3662,-0.4883,14.7705,90,1.5347,1.5388,-15.9391,-14.7798,35,0.2541,8801,3.9831,-182.3492
lg,1625188709291315087,0,0.3218,-0.2014,0.9875,826,0.2441,-2.1362,16.9067,90,1.5347,1.5388,-15.9154,-14.8313,35,0.2551,10639,3.9831,-181.683
lg,1625188709291332716,0,0.3267,-0.1965,0.9773,827,0.6104,-2.1973,15.3809,90,1.5357,1.5388,-15.9512,-14.8584,35,0.2541,9232,3.9831,-181.0442
lg,1625188709291349902,0,0.3308,-0.1833,0.9998,828,-0.061,-2.9297,15.686,90,1.5347,1.5378,-15.9829,-14.864,35,0.2541,8763,3.9831,-180.4318
lg,1625188709291367531,0,0.3318,-0.1973,0.9861,829,0.2441,-2.2583,14.0991,90,1.5327,1.5388,-16.0123,-14.8743,35,0.2541,8466,3.9831,-179.8803
lg,1625188709291385235,0,0.3113,-0.1907,0.9985,830,0.9766,-2.3804,13.9771,90,1.5357,1.5388,-15.998,-14.8333,35,0.2541,8861,3.9831,-179.3384
lg,1625188709291402364,0,0.3286,-0.1897,0.9866,831,0.9155,-2.9907,17.1509,90,1.5357,1.5388,-16.0185,-14.8373,35,0.2551,8457,3.9831,-178.6607
lg,1625188709291419383,0,0.3311,-0.2087,0.9934,832,0.7324,-1.6479,14.4043,90,1.5357,1.5388,-16.0119,-14.8524,35,0.2551,8518,3.9831,-178.0972
lg,1625188709661890698,0,0.304,-0.1899,0.9792,833,1.77,1.9531,12.2681,90,1.5357,1.5388,-15.8454,-14.7549,35,0.2551,25121,3.9831,-177.6684
lg,1625188709661930920,0,0.323,-0.1978,0.9866,834,1.0376,0.7324,13.7939,90,1.5357,1.5388,-15.751,-14.7244,34,0.2541,14729,3.9831,-177.1597
lg,1625188709661951624,0,0.3091,-0.1973,0.9941,835,1.1597,-0.3662,12.5732,90,1.5357,1.5388,-15.6823,-14.6744,34,0.2561,8520,3.9831,-176.6894
lg,1625188709661972012,0,0.314,-0.1914,0.9778,836,1.1597,-0.3052,11.6577,90,1.5357,1.5388,-15.6717,-14.6225,34,0.2561,8521,3.9831,-176.1948
lg,1625188709662017142,0,0.321,-0.1941,0.9941,837,1.0376,-1.6479,13.7939,90,1.5357,1.5388,-15.6689,-14.5915,34,0.2561,8554,3.9831,-175.6624
lg,1625188709662039957,0,0.3186,-0.1868,1.0051,838,1.0376,-1.0376,14.2822,90,1.5347,1.5388,-15.6276,-14.5444,35,0.2561,8609,3.9831,-175.1219
lg,1625188709662059846,0,0.3125,-0.1902,0.9978,839,1.5869,1.0376,11.4136,90,1.5357,1.5388,-15.5287,-14.4501,35,0.2561,9976,3.9831,-174.7152
lg,1625188709662083049,0,0.3147,-0.1992,0.9817,840,1.709,1.0986,12.2681,90,1.5368,1.5388,-15.4365,-14.3899,35,0.2561,8267,3.9831,-174.2661
lg,1625188709662102827,0,0.3274,-0.1904,1.001,841,1.77,0.7324,13.1836,90,1.5357,1.5378,-15.3686,-14.3127,35,0.2561,7981,3.9831,-173.783
lg,1625188709662120679,0,0.2927,-0.1858,0.9976,842,1.6479,-1.4648,13.5498,90,1.5347,1.5378,-15.3174,-14.2428,35,0.2561,8307,3.9831,-173.2641
lg,1625188709662141827,0,0.3093,-0.1917,0.9954,843,0.1221,-1.5259,11.9019,90,1.5357,1.5388,-15.3216,-14.2332,35,0.2561,8819,3.9831,-172.8061
lg,1625188709662160605,0,0.3054,-0.1858,1.0095,844,-0.3662,-2.8687,13.1226,90,1.5357,1.5378,-15.35,-14.2415,35,0.2561,7948,3.9831,-172.2902
lg,1625188709662181068,0,0.2954,-0.2166,0.9951,845,0.3052,-2.6855,12.0239,90,1.5357,1.5388,-15.3642,-14.2833,35,0.2561,8385,3.9831,-171.801
lg,1625188709662198735,0,0.2964,-0.1917,0.9976,846,0.4883,-2.5024,12.146,90,1.5357,1.5388,-15.3737,-14.2618,35,0.2571,8351,3.9831,-171.3241
lg,1625188709662217105,0,0.322,-0.188,0.9741,847,0.2441,-3.1128,10.498,90,1.5357,1.5388,-15.441,-14.2456,35,0.2561,8499,3.9831,-170.904
lg,1625188709662235049,0,0.3267,-0.1946,1.0112,848,-0.061,-2.9297,11.8408,90,1.5357,1.5388,-15.52,-14.2479,35,0.2571,8579,3.9831,-170.4341
lg,1625188709662256105,0,0.3176,-0.1953,0.9985,849,-0.061,-3.6621,13.0005,90,1.5357,1.5388,-15.6021,-14.2721,35,0.2571,8161,3.9831,-169.9081
lg,1625188709662275346,0,0.3193,-0.1848,0.9941,850,0.2441,-3.0518,13.6108,90,1.5357,1.5388,-15.6338,-14.2575,35,0.2571,8490,3.9831,-169.3896
lg,1625188709662295642,0,0.3149,-0.196,0.9978,851,0.4272,-1.4038,14.6484,90,1.5357,1.5388,-15.6028,-14.2759,35,0.2571,8933,3.9831,-168.8202
lg,1625188709662341086,0,0.3225,-0.2014,0.9954,852,0.4883,-0.6714,12.207,90,1.5357,1.5388,-15.551,-14.2414,35,0.2561,10883,3.9831,-168.3284
lg,1625188709662362938,0,0.3013,-0.1975,0.9924,853,0.4272,-0.5493,11.8408,90,1.5357,1.5388,-15.4932,-14.2319,35,0.2561,8453,3.9831,-167.8792
lg,1625188709662379957,0,0.2937,-0.2012,1.0078,854,0.7324,-0.7935,12.5122,90,1.5357,1.5388,-15.4156,-14.2188,35,0.2571,8107,3.9831,-167.4002
lg,1625188709662397086,0,0.304,-0.1921,0.9712,855,0.9766,-1.5869,12.7563,90,1.5357,1.5388,-15.457,-14.1737,35,0.2571,8177,3.9831,-166.8384
lg,1625188709662418272,0,0.3037,-0.189,1.0012,856,0.5493,-2.8076,13.7939,90,1.5357,1.5368,-15.4726,-14.1664,35,0.2571,8600,3.9831,-166.2927
