name,time,activity,ax,ay,az,batch_val,gx,gy,gz,ibat,index,middle,pitch,roll,temp,thumb,ts,vbat,yaw
rg,1625188717028905730,1,0.0535,0.1025,1.0137,1,-7.3242,-60.3027,23.0103,94,1.1686,1.3827,-23.4138,-2.0885,32,1.0775,19300,4.0601,127.7305
rg,1625188717028947564,1,0.1174,0.1147,1.0007,2,-10.3149,-68.9697,24.1699,94,1.1686,1.3797,-25.8453,-2.8387,32,1.0725,8403,4.0601,128.8179
rg,1625188717028990712,1,0.2373,0.095,0.9697,3,-18.5547,-75.1343,25.3906,94,1.1676,1.3767,-28.3014,-3.8203,32,1.0675,7802,4.0601,129.9895
rg,1625188717029012230,1,0.3079,0.1069,1.0798,4,-26.9775,-68.2373,22.583,94,1.1686,1.3727,-30.4595,-5.1054,32,1.0645,7761,4.0601,131.0645
rg,1625188717029030860,1,0.4478,0.1562,1.1021,5,-26.4893,-75.1953,25.7568,94,1.1686,1.3657,-33.4024,-6.3566,32,1.0585,7852,4.0601,132.3283
rg,1625188717029048804,1,0.5012,0.0967,1.0239,6,-32.5928,-77.6978,13.0005,94,1.1666,1.3597,-36.1315,-7.7686,32,1.0535,10693,4.0601,133.1384
rg,1625188717029066712,1,0.5068,0.085,1.0325,7,-37.4146,-59.2651,12.3291,94,1.1676,1.3527,-37.0067,-9.3605,32,1.0495,8351,4.0601,133.7698
rg,1625188717029084619,1,0.4604,0.0952,0.9993,8,-42.1753,-14.4043,17.0898,94,1.1666,1.3477,-37.0012,-10.9561,31,1.0445,8438,4.0601,134.3303
rg,1625188717029102230,1,0.3843,0.0706,1.0828,9,-55.542,11.0474,15.1367,94,1.1666,1.3407,-35.8036,-12.8528,31,1.0405,8671,4.0601,134.5283
rg,1625188717029120601,1,0.3484,0.0552,1.2288,10,-57.8003,18.1885,25.0244,94,1.1666,1.3347,-34.1311,-14.9911,31,1.0345,8336,4.0601,135.0631
rg,1625188717029138989,1,0.3657,0.0645,1.2078,11,-51.5747,11.1694,27.2827,94,1.1666,1.3276,-32.7794,-16.8691,31,1.0305,8416,4.0601,135.6519
rg,1625188717029157619,1,0.3384,0.1201,1.1584,12,-59.2651,20.9961,28.1982,94,1.1676,1.3226,-31.0856,-18.7354,32,1.0255,8654,4.0601,136.0573
rg,1625188717029174915,1,0.2593,0.1489,1.1321,13,-77.8198,39.5508,30.3345,94,1.1666,1.3136,-28.6038,-21.043,32,1.0195,8597,4.0601,136.1459
rg,1625188717029192860,1,0.1194,0.0742,1.1389,14,-99.3042,40.4053,23.2544,94,1.1666,1.3066,-25.9969,-24.0437,32,1.0125,8435,4.0601,135.8731
rg,1625188717029210119,1,0.0146,-0.0366,1.2178,15,-110.6567,16.2354,19.2871,94,1.1656,1.2996,-24.1936,-27.6761,31,1.0045,9017,4.0601,135.8715
rg,1625188717029228601,1,-0.0127,-0.0833,1.2397,16,-109.1919,-7.5684,20.4468,94,1.1666,1.2916,-24.1895,-31.6289,31,0.9985,8454,4.0601,137.1012
rg,1625188717029248545,1,0.0459,-0.1406,1.228,17,-101.4404,-64.3921,23.5596,94,1.1656,1.2806,-25.0476,-35.6093,31,0.9915,8577,4.0601,139.0688
rg,1625188717029267897,1,0.2183,-1.0388,0.7166,18,-117.1265,-123.7793,18.3105,134,0.7514,0.5463,-28.0046,-43.0788,32,0.8214,10935,4.0337,143.5991
rg,1625188717029287415,1,0.4985,-1.3311,0.7175,19,-86.4868,-140.5029,55.0537,134,0.7514,0.4762,-29.8689,-50.3909,32,0.8174,8406,4.0337,150.3454
rg,1625188717029305767,1,0.6545,-1.3577,0.5796,20,40.8936,-81.0547,59.5703,134,0.7484,0.4522,-29.8356,-51.7347,32,0.8134,8307,4.0337,155.3156
rg,1625188717029323415,1,0.7563,-0.8962,0.2695,21,123.0469,-66.4062,42.1143,134,0.7494,0.4302,-30.6295,-49.3816,32,0.8104,8235,4.0337,159.2894
rg,1625188717029341564,1,0.3784,-0.2732,0.1519,22,144.5312,-4.8218,-30.5176,134,0.7494,0.4252,-32.424,-43.492,32,0.8064,8575,4.0337,158.5891
rg,1625188717029360212,1,0.23,-0.0513,0.1187,23,133.3618,13.855,-33.6914,134,0.7504,0.4292,-33.2415,-36.6427,32,0.8034,8426,4.0337,155.6391
rg,1625188717029379101,1,0.074,0.0471,-0.0085,24,64.5752,60.3638,2.9907,134,0.7524,0.4392,-33.2602,-32.1747,32,0.8034,8367,4.0337,153.4596
rg,1625188717029414712,1,0.1345,-0.1099,-0.0579,25,-69.2139,42.3584,44.1284,134,0.7554,0.4552,-32.1583,-37.1048,32,0.8044,8337,4.0337,155.1084
rg,1625188717029435323,1,0.5928,-0.6204,0.9395,26,-215.6982,8.8501,39.856,134,0.7564,0.4702,-30.6735,-46.1106,32,0.8084,8442,4.0337,156.1214
rg,1625188717029454045,1,0.793,-1.1921,1.6392,27,-227.7222,55.4199,37.8418,198,0.7574,0.4892,-26.3925,-52.1109,32,0.8144,8398,3.9996,153.937
rg,1625188717029472064,1,0.2654,-1.6929,0.6157,28,-97.7173,84.7168,19.7144,198,0.7614,0.5123,-23.1078,-55.6948,31,0.8224,8490,3.9996,151.7402
rg,1625188717029489915,1,-0.0037,-1.553,1.0398,29,11.1084,95.2148,-3.8452,198,0.7754,0.5353,-20.159,-53.9932,31,0.8324,8425,3.9996,148.3087
rg,1625188717029508082,1,-0.0481,-1.0161,0.8059,30,110.1074,52.3071,21.6675,198,0.7904,0.5653,-17.3288,-49.1266,31,0.8384,8492,3.9996,147.1439
rg,1625188717029526138,1,-0.0239,-0.7908,0.5552,31,122.9858,14.0991,18.2495,198,0.8024,0.5873,-16.6168,-45.429,32,0.8434,8500,3.9996,147.957
rg,1625188717029543952,1,0.0112,-0.5972,0.4619,32,78.2471,-28.9307,10.376,198,0.8104,0.6093,-16.5395,-42.9123,32,0.8484,8501,3.9996,149.2041
rg,1625188717387486100,1,0.2751,-0.9353,0.7034,33,-91.0034,-117.8589,2.0752,198,0.7704,0.6303,-19.6323,-48.0557,32,0.8424,26427,3.9996,152.9155
rg,1625188717387559823,1,0.4421,-1.2231,0.5918,34,-63.6597,-116.272,29.8462,198,0.7444,0.5062,-21.6035,-52.862,32,0.8194,13354,3.9996,157.7744
rg,1625188717387582674,1,0.6008,-1.1348,0.8203,35,2.5635,-78.7354,42.0532,198,0.7484,0.4602,-22.1693,-54.2187,32,0.8174,9890,3.9996,161.5983
rg,1625188717387603045,1,0.4849,-0.9553,0.3499,36,111.6943,-42.6636,48.7671,198,0.7454,0.4342,-21.802,-51.3719,32,0.8104,7884,3.9996,164.5516
rg,1625188717387623230,1,0.3613,-0.5706,0.2515,37,114.6851,-44.1895,-4.6387,198,0.7464,0.4092,-23.431,-47.8373,32,0.8064,7976,3.9996,166.0702
rg,1625188717387641656,1,0.2034,-0.4136,0.2146,38,117.7368,-34.3018,-31.8604,198,0.7464,0.3852,-25.3265,-43.754,32,0.8034,7832,3.9996,166.4069
rg,1625188717387659397,1,-0.0122,-0.1736,0.1133,39,100.2808,-16.2964,-24.9023,198,0.7494,0.3862,-25.4121,-40.1856,32,0.8034,7770,3.9996,166.3529
rg,1625188717387678989,1,0.002,-0.1069,0.0461,40,81.9092,-20.2637,-3.7231,198,0.7524,0.3972,-25.4323,-40.045,32,0.8044,7869,3.9996,168.7592
rg,1625188717387697119,1,0.1013,-0.1086,0.0505,41,9.6436,-76.2939,34.79,198,0.7554,0.4152,-27.444,-41.9942,32,0.8074,8344,3.9996,-187.4648
rg,1625188717387715119,1,0.5962,-0.3689,0.5178,42,-100.4639,-108.1543,57.7393,198,0.7574,0.4342,-29.4534,-48.3405,32,0.8134,8280,3.9996,-182.1869
rg,1625188717387733249,1,1.1096,-1.0947,1.0583,43,-133.5449,-10.9253,51.4526,198,0.7584,0.4522,-28.3775,-54.4721,32,0.8214,7939,3.9996,-180.369
rg,1625188717387751989,1,0.988,-1.3184,0.7964,44,-107.5439,52.124,33.1421,198,0.7664,0.4852,-26.2991,-58.3968,32,0.8294,8479,3.9996,-181.4293
rg,1625188717387769360,1,0.5405,-1.4707,0.8413,45,-39.6729,146.4233,-19.6533,198,0.7814,0.5153,-23.5415,-57.5376,32,0.8384,7993,3.9996,-187.3394
rg,1625188717387786693,1,0.002,-1.2449,0.9238,46,46.0205,236.8164,1.1597,198,0.7954,0.5443,-17.2284,-52.6568,32,0.8454,8080,3.9996,164.3749
rg,1625188717387804656,1,-0.2087,-1.0845,0.7825,47,80.8105,215.3931,13.855,198,0.8074,0.5733,-11.6687,-47.8391,32,0.8524,7772,3.9996,159.6891
rg,1625188717387837119,1,-0.3718,-0.7617,0.574,48,87.1582,86.731,-2.7466,198,0.8134,0.5923,-8.119,-44.1006,32,0.8564,7979,3.9996,157.1578
rg,1625188717387857804,1,-0.2949,-0.582,0.5342,49,27.8931,-29.6631,-9.2773,198,0.8164,0.6063,-8.1425,-43.184,32,0.8584,7766,3.9996,157.7442
rg,1625188717387875711,1,0.0068,-0.7129,0.7056,50,-75.1953,-113.0981,13.4888,198,0.8004,0.6173,-10.6314,-46.8486,32,0.8554,8208,3.9996,161.3793
rg,1625188717387893730,1,0.1318,-0.8477,0.6711,51,-111.6943,-152.2217,12.146,198,0.7744,0.5793,-14.0214,-52.5693,32,0.8504,7883,3.9996,166.4821
rg,1625188717387911323,1,0.2979,-1.1792,0.606,52,-112.3047,-187.1338,5.0659,198,0.7534,0.4912,-17.9591,-59.2609,32,0.8404,8034,3.9996,-186.8597
rg,1625188717387928860,1,0.5264,-1.2729,0.5645,53,-50.415,-174.0723,32.2266,198,0.7494,0.4242,-20.2176,-63.861,32,0.8344,7946,3.9996,-179.6489
rg,1625188717387945434,1,0.6582,-1.1355,0.7385,54,6.8359,-131.7139,39.856,198,0.7494,0.4012,-21.242,-65.3741,32,0.8344,8121,3.9996,-173.9211
rg,1625188717387975434,1,0.6584,-0.8562,0.2173,55,116.8823,-89.3555,51.6968,198,0.7494,0.3742,-21.5511,-62.6584,32,0.8284,7973,3.9996,-169.3949
rg,1625188717387994563,1,0.6201,-0.4158,0.1428,56,106.9946,-52.3682,2.1973,198,0.7484,0.3652,-23.7205,-59.3514,31,0.8284,8121,3.9996,-167.331
rg,1625188717388012749,1,0.468,-0.2668,0.0981,57,107.9102,-34.2407,-23.3765,198,0.7504,0.3672,-26.5429,-55.5559,31,0.8264,8525,3.9996,-166.5663
rg,1625188717388029878,1,0.342,-0.0735,-0.0227,58,63.9038,14.0991,-7.5684,198,0.7534,0.3842,-28.304,-53.088,31,0.8274,8157,3.9996,-167.136
rg,1625188717388160971,1,0.3469,-0.1003,-0.0129,59,-33.2642,68.1152,28.9307,198,0.7554,0.4022,-27.4671,-54.1191,31,0.8304,8020,3.9996,-168.6004
rg,1625188717388195711,1,0.491,-0.2505,0.2114,60,-91.5527,82.4585,39.6118,198,0.7574,0.4252,-24.7657,-56.4155,32,0.8334,8266,3.9996,-170.8356
rg,1625188717388226249,1,0.8271,-0.9915,1.1482,61,-174.7437,141.4185,37.7808,198,0.7594,0.4422,-20.7662,-61.0968,32,0.8384,8059,3.9996,-175.4787
rg,1625188717388248693,1,0.3223,-1.5979,0.8738,62,-112.7319,194.2139,16.3574,198,0.7654,0.4722,-16.1833,-63.3934,32,0.8454,8315,3.9996,-182.413
rg,1625188717388276415,1,0.1008,-1.7551,1.0437,63,-60.791,202.0264,9.4604,198,0.7794,0.4992,-11.1426,-61.4845,32,0.8544,8169,3.9996,170.3812
rg,1625188717388305841,1,-0.249,-1.489,1.0762,64,60.3638,167.5415,28.6865,198,0.7954,0.5253,-6.0731,-57.9816,32,0.8604,8400,3.9996,165.075
rg,1625188717783519341,1,0.0901,-0.5596,0.4683,65,53.5278,-26.001,18.1885,198,0.8174,0.5803,-6.0684,-55.6523,32,0.8694,24554,3.9996,166.3149
rg,1625188717783556452,1,0.0955,-0.6833,0.6506,66,-10.0098,-42.6025,11.5356,198,0.7904,0.5923,-7.5116,-58.1476,32,0.8614,9438,3.9996,168.6565
rg,1625188717783577193,1,0.0186,-0.9958,0.6204,67,-88.8062,-107.1777,-8.4839,198,0.7584,0.5453,-9.4805,-62.2209,32,0.8514,13347,3.9996,-186.5622
rg,1625188717783596933,1,0.2642,-1.251,0.6355,68,-70.6177,-148.6816,33.3252,198,0.7504,0.4702,-10.8926,-66.129,32,0.8424,8076,3.9996,-180.5311
rg,1625188717783615545,1,0.5103,-1.2678,0.9502,69,10.7422,-137.146,34.1797,198,0.7534,0.4442,-12.1156,-66.3262,32,0.8464,7782,3.9996,-174.9435
rg,1625188717783633804,1,0.3884,-1.2415,0.4338,70,90.1489,-101.0742,37.1704,198,0.7514,0.4212,-12.4508,-62.8093,32,0.8444,7909,3.9996,-169.9156
rg,1625188717783650915,1,0.5317,-0.8464,0.2751,71,126.2817,-84.5947,42.4194,198,0.7494,0.4022,-13.3246,-58.9364,32,0.8404,7789,3.9996,-166.0004
rg,1625188717783668285,1,0.25,-0.3171,0.1123,72,151.9165,-53.1006,-17.2729,198,0.7514,0.3942,-15.9702,-53.5921,32,0.8394,9040,3.9996,-164.5295
rg,1625188717783686063,1,0.0974,0.0146,0.0061,73,150.3296,-49.1943,-23.8647,198,0.7534,0.4022,-20.135,-47.5285,32,0.8374,8172,3.9996,-163.7853
rg,1625188717783704008,1,0.1077,0.0625,-0.0806,74,115.9668,-43.335,0.1221,198,0.7554,0.4162,-23.3477,-44.143,32,0.8394,8628,3.9996,-162.2426
rg,1625188717783721841,1,0.3066,0.0225,-0.1582,75,-15.3809,-50.5371,54.0771,198,0.7574,0.4422,-25.3916,-46.8001,32,0.8414,8577,3.9996,-158.6721
rg,1625188717783739896,1,0.9595,-0.386,0.7258,76,-223.0225,-33.3862,63.7817,198,0.7594,0.4592,-25.1876,-56.4333,32,0.8454,8141,3.9996,-155.9163
rg,1625188717783757396,1,0.8987,-1.4636,1.1045,77,-213.1958,181.4575,33.3252,198,0.7624,0.4812,-20.4388,-62.4506,31,0.8504,8486,3.9996,-162.016
rg,1625188717783781785,1,0.4727,-1.7119,0.5544,78,-146.1792,214.4775,18.4326,198,0.7714,0.4982,-15.54,-65.9326,31,0.8594,8298,3.9996,-169.7821
rg,1625188717783804045,1,-0.127,-1.7917,1.1692,79,-35.3394,264.8926,-15.564,198,0.7854,0.5092,-10.9848,-64.6325,31,0.8654,8213,3.9996,-180.0099
rg,1625188717783821952,1,-0.5237,-1.1892,0.9905,80,101.6846,178.5278,-0.9766,198,0.7964,0.5223,-6.5659,-59.046,31,0.8714,8032,3.9996,-186.4404
rg,1625188717783840045,1,-0.4976,-0.8564,0.6724,81,132.6904,89.3555,-2.6245,198,0.8024,0.5393,-5.229,-54.1044,32,0.8764,8165,3.9996,-187.2055
rg,1625188717783862248,1,-0.2634,-0.4231,0.4565,82,61.9507,-62.439,-16.8457,198,0.8024,0.5533,-7.2759,-54.6505,32,0.8774,10047,3.9996,-184.3137
rg,1625188717783879359,1,-0.1021,-0.5911,0.6316,83,-95.52,-124.8169,-1.709,198,0.7824,0.5613,-9.5142,-58.6017,32,0.8714,8265,3.9996,-180.2104
rg,1625188717783897952,1,0.0862,-1.0408,0.6519,84,-134.8877,-197.5098,-6.6528,198,0.7634,0.5353,-13.2065,-65.327,32,0.8604,8098,3.9996,-173.251
rg,1625188717783916526,1,0.3762,-1.4016,0.7874,85,-91.1255,-241.2109,4.7607,198,0.7594,0.4812,-16.5648,-71.1752,32,0.8604,8417,3.9996,-163.9648
rg,1625188717783934656,1,0.5388,-1.489,0.8682,86,-30.2734,-232.7881,11.2305,198,0.7574,0.4562,-18.8663,-74.8094,32,0.8594,8245,3.9996,-154.6208
rg,1625188717783951933,1,0.7429,-1.3684,0.3501,87,86.5479,-201.2939,26.8555,198,0.7554,0.4322,-20.2955,-74.235,32,0.8564,8744,3.9996,-146.0882
rg,1625188717783993767,1,0.5825,-0.7292,0.1069,88,154.1748,-101.1963,-0.8545,198,0.7554,0.4172,-22.2629,-69.7952,32,0.8514,8485,3.9996,-141.9188
rg,1625188717784012878,1,0.3044,-0.0745,0.0085,89,184.5093,-73.4253,-39.856,198,0.7554,0.4132,-26.7011,-63.4646,32,0.8504,8929,3.9996,-139.7131
rg,1625188717784032137,1,0.2119,0.1558,-0.1365,90,179.5044,-67.0166,-41.2598,198,0.7574,0.4302,-30.9686,-58.854,32,0.8494,8644,3.9996,-137.3807
rg,1625188717784050878,1,0.2214,0.1421,-0.2766,91,102.1118,-56.7627,3.6011,198,0.7594,0.4472,-33.9773,-57.1932,32,0.8514,8820,3.9996,-134.4393
rg,1625188717784069193,1,0.4226,0.0317,-0.2361,92,-79.7729,-26.062,71.9604,198,0.7604,0.4622,-34.0123,-63.0485,32,0.8534,8503,3.9996,-130.9285
rg,1625188717784087285,1,1.3855,-0.6548,1.4019,93,-285.4614,33.6914,97.9004,198,0.7634,0.4732,-30.4768,-73.3477,32,0.8574,8581,3.9996,-131.3514
rg,1625188717784105285,1,0.8025,-1.7759,0.739,94,-179.6265,271.4844,75.4395,198,0.7674,0.4902,-24.3978,-75.2561,32,0.8664,8597,3.9996,-142.3205
rg,1625188717784122730,1,0.3252,-2.0503,0.936,95,-28.2593,267.0288,22.9492,198,0.7874,0.5052,-19.9075,-71.8778,31,0.8734,10611,3.9996,-153.2415
rg,1625188717784139896,1,-0.1646,-1.2766,0.885,96,52.124,293.8232,13.0615,198,0.7994,0.5203,-14.0129,-62.897,31,0.8784,8688,3.9996,-163.7153
rg,1625188718189969637,1,-0.4272,-0.2869,0.427,97,114.1968,46.6309,-10.6201,198,0.8264,0.5583,-11.4663,-57.2744,32,0.8844,26784,3.9996,-165.6431
rg,1625188718190066489,1,-0.5947,-0.4473,0.4331,98,-68.9087,-64.5752,-9.8877,198,0.8004,0.5663,-11.2798,-60.0821,32,0.8774,8634,3.9996,-163.7064
rg,1625188718190088193,1,-0.2246,-0.78,0.7842,99,-170.6543,-213.0737,15.4419,198,0.7694,0.5703,-13.5625,-68.0256,32,0.8684,8768,3.9996,-155.7757
rg,1625188718190107896,1,0.2065,-1.2605,0.6868,100,-149.1089,-304.1382,33.6304,198,0.7474,0.5123,-15.7032,-76.8458,32,0.8564,8348,3.9996,-143.5015
rg,1625188718190127507,1,0.8325,-1.5325,0.8223,101,-124.3896,-326.2939,47.2412,198,0.7484,0.4432,-16.0821,-83.3184,32,0.8584,8723,3.9996,-130.4342
rg,1625188718190146100,1,1.0286,-1.1018,0.1575,102,107.1167,-191.8335,53.1006,198,0.7474,0.3842,-15.6919,-79.6577,32,0.8554,14233,3.9996,-123.7942
rg,1625188718190200100,1,0.5972,-0.4258,0.0859,103,157.7759,-44.5557,-26.001,198,0.7464,0.3602,-18.5008,-73.7528,32,0.8504,10450,3.9996,-122.3177
rg,1625188718190228915,1,0.3967,-0.1597,0.0776,104,158.6914,-29.4189,-48.1567,198,0.7464,0.3592,-22.3598,-67.383,32,0.8474,7906,3.9996,-121.9711
rg,1625188718190249693,1,0.1731,0.0435,-0.0696,105,107.5439,-4.8828,-24.7803,198,0.7484,0.3652,-25.5385,-63.5668,32,0.8474,7783,3.9996,-122.0733
rg,1625188718190268785,1,0.2634,0.0134,-0.1704,106,60.4858,8.2397,5.6152,198,0.7504,0.3762,-26.0279,-64.5393,32,0.8484,7976,3.9996,-121.659
rg,1625188718190288415,1,0.3477,-0.0806,-0.124,107,-70.1904,28.3203,49.6216,198,0.7534,0.3912,-25.5739,-68.2264,32,0.8504,7802,3.9996,-121.4464
rg,1625188718190314804,1,0.9631,-0.6997,1.03,108,-222.9004,80.9937,59.7534,198,0.7554,0.4042,-22.9465,-74.9783,32,0.8544,9046,3.9996,-124.4436
rg,1625188718190333118,1,0.5603,-1.5132,0.7136,109,-156.7383,219.4214,41.9312,198,0.7594,0.4212,-19.1297,-77.6851,32,0.8624,8346,3.9996,-133.3135
rg,1625188718190352322,1,0.0693,-1.7029,0.8433,110,-96.0083,213.1958,16.9067,198,0.7664,0.4402,-16.6556,-75.9328,32,0.8674,8761,3.9996,-142.7953
rg,1625188718190369989,1,-0.2087,-1.5178,1.0061,111,10.437,245.1172,0.2441,198,0.7754,0.4572,-12.9291,-72.0723,32,0.8734,9175,3.9996,-152.7602
rg,1625188718190391822,1,-0.3921,-1.0227,0.8633,112,101.9287,159.729,30.2124,198,0.7874,0.4772,-8.4688,-66.107,32,0.8784,8154,3.9996,-158.5237
rg,1625188718190410748,1,-0.2454,-0.7258,0.5515,113,101.0742,10.9253,19.3481,198,0.8054,0.4952,-6.6831,-61.5405,32,0.8834,8166,3.9996,-158.6161
rg,1625188718190428655,1,-0.0715,-0.7102,0.4304,114,79.7729,-37.9639,14.9536,198,0.8234,0.5173,-6.8787,-59.2163,32,0.8884,8151,3.9996,-156.1615
rg,1625188718190446600,1,-0.0286,-0.7334,0.3762,115,46.875,-70.8008,14.8926,198,0.8324,0.5303,-7.4881,-57.8211,32,0.8914,8062,3.9996,-153.3904
rg,1625188718190465767,1,0.0112,-0.8052,0.5383,116,-4.5776,-94.5435,2.0752,198,0.8274,0.5423,-9.1284,-58.4031,31,0.8914,8240,3.9996,-150.107
rg,1625188718190512600,1,0.1707,-0.8569,0.7224,117,-38.3911,-124.3896,-0.7935,198,0.8044,0.5473,-12.2785,-61.6163,31,0.8854,8124,3.9996,-144.9521
rg,1625188718190537433,1,0.2129,-0.9214,0.6631,118,-77.5757,-168.5791,-7.3242,198,0.7714,0.5503,-15.4317,-65.8681,31,0.8764,8282,3.9996,-138.9229
rg,1625188718190557285,1,0.4175,-1.197,0.562,119,-83.8013,-200.5005,9.2773,198,0.7444,0.4992,-18.0513,-71.4582,31,0.8634,8123,3.9996,-130.9972
rg,1625188718190599489,1,0.6733,-1.3638,0.7363,120,-52.3682,-171.875,22.583,198,0.7434,0.4252,-19.3384,-75.4808,32,0.8644,8376,3.9996,-123.8844
rg,1625188718190620174,1,0.6135,-1.3298,0.7327,121,32.6538,-108.7036,21.6675,198,0.7424,0.3972,-19.7086,-75.937,32,0.8624,8215,3.9996,-119.1238
rg,1625188718190641063,1,0.6877,-0.9661,0.1956,122,159.1797,-81.1768,55.603,198,0.7424,0.3612,-19.0876,-70.9711,32,0.8584,8410,3.9996,-115.1661
rg,1625188718190658526,1,0.4832,-0.2983,0.1035,123,177.3682,-39.7949,-18.9819,198,0.7424,0.3542,-21.7665,-64.2918,32,0.8544,8233,3.9996,-113.9965
rg,1625188718190677285,1,0.2688,0.1135,0.0461,124,181.1523,-34.2407,-44.4336,198,0.7434,0.3542,-25.7981,-56.7715,32,0.8524,8383,3.9996,-114.4478
rg,1625188718190695470,1,0.2388,0.1587,-0.0266,125,122.4365,3.7231,-20.752,198,0.7454,0.3672,-28.5606,-50.9392,32,0.8524,8278,3.9996,-115.5129
rg,1625188718190714915,1,0.2664,0.0693,-0.1218,126,-25.8179,51.7578,32.4707,198,0.7474,0.3832,-28.4974,-51.9768,32,0.8534,8468,3.9996,-116.2141
rg,1625188718190733267,1,0.5518,-0.3647,0.4746,127,-211.731,72.6929,52.9175,198,0.7494,0.4022,-25.7242,-59.341,32,0.8574,8299,3.9996,-117.7685
rg,1625188718190769655,1,0.7407,-1.6289,1.6948,128,-234.4971,207.0923,51.3916,198,0.7514,0.4222,-19.8468,-65.3773,32,0.8634,8593,3.9996,-124.9737
rg,1625188718467971637,1,-0.3088,-1.3574,0.9741,129,74.8901,141.7847,1.5869,198,0.7724,0.4662,-16.0809,-60.2943,32,0.8794,24684,3.9996,-130.3507
rg,1625188718468009600,1,-0.2351,-0.6655,0.6677,130,136.7798,35.8887,12.3291,198,0.7894,0.4862,-13.7729,-53.9862,32,0.8864,8729,3.9996,-131.4287
rg,1625188718468030007,1,-0.063,-0.5156,0.5063,131,79.1016,-72.2656,7.4463,198,0.8074,0.5052,-14.5534,-51.1042,32,0.8894,8740,3.9996,-128.9365
rg,1625188718468049748,1,0.02,-0.6106,0.5007,132,42.7246,-107.4829,5.3101,198,0.8244,0.5273,-16.5748,-50.3349,32,0.8944,8166,3.9996,-125.3391
rg,1625188718468068637,1,0.0854,-0.8655,0.4089,133,8.0566,-126.1597,0,198,0.8324,0.5433,-19.2839,-51.8625,32,0.8954,8167,3.9996,-121.0424
rg,1625188718468086952,1,0.2283,-0.9465,0.5154,134,-33.3862,-142.8223,7.6904,198,0.8204,0.5543,-22.1105,-55.3841,32,0.8944,8251,3.9996,-115.8047
rg,1625188718468105192,1,0.3811,-0.895,0.6179,135,-66.7114,-163.0859,5.188,198,0.7894,0.5613,-25.7629,-61.0318,32,0.8844,8404,3.9996,-109.7223
rg,1625188718468124026,1,0.3374,-0.9443,0.5583,136,-70.9229,-158.8135,-11.4746,198,0.7584,0.5112,-28.5993,-66.5989,32,0.8754,8356,3.9996,-103.5868
rg,1625188718468141859,1,0.4971,-1.1575,0.488,137,-66.7725,-145.2637,41.9312,198,0.7414,0.4162,-28.748,-72.5717,32,0.8644,8908,3.9996,-96.7247
rg,1625188718468158896,1,0.6213,-1.1135,0.2729,138,96.3745,-54.3213,56.7627,198,0.7424,0.3712,-27.2696,-70.3349,32,0.8644,13539,3.9996,-93.5167
rg,1625188718468175803,1,0.793,-0.688,0.21,139,121.7651,-56.9458,33.8135,198,0.7434,0.3462,-27.6257,-66.8877,32,0.8594,9964,3.9996,-90.5716
rg,1625188718468193266,1,0.3813,-0.2485,0.134,140,130.0049,-26.9775,-18.6768,140,0.7434,0.3412,-30.4922,-61.2164,32,0.8564,8144,4.0326,-91.2024
rg,1625188718468210026,1,0.2622,-0.0906,0.1057,141,111.9995,6.3477,-46.814,140,0.7464,0.3472,-33.1528,-55.5102,32,0.8554,8049,4.0326,-92.9135
rg,1625188718468226952,1,0.1194,-0.0093,0.0334,142,26.3672,64.3311,-0.4272,140,0.7494,0.3572,-33.2152,-52.5617,32,0.8554,8209,4.0326,-95.7482
rg,1625188718468245378,1,0.2039,-0.1941,0.1521,143,-95.459,76.1719,40.8325,140,0.7504,0.3762,-30.3679,-55.4019,32,0.8564,9761,4.0326,-97.5441
rg,1625188718468263174,1,0.6038,-0.9294,1.252,144,-198.8525,83.0078,41.5649,140,0.7534,0.3992,-26.9523,-61.463,32,0.8604,8884,4.0326,-100.2046
rg,1625188718468280303,1,0.2981,-1.6067,0.8174,145,-179.8706,99.6704,34.8511,140,0.7574,0.4172,-24.0567,-65.0189,32,0.8684,8531,4.0326,-103.3827
rg,1625188718468296915,1,0.157,-1.7258,0.8064,146,-67.1387,72.7539,2.7466,140,0.7694,0.4412,-22.0217,-66.5666,32,0.8764,8619,4.0326,-106.2391
rg,1625188718468314137,1,-0.02,-1.3369,0.9109,147,40.7715,82.1533,15.0757,140,0.7834,0.4602,-19.2352,-63.4492,32,0.8844,8625,4.0326,-109.3055
rg,1625188718468331933,1,-0.0007,-0.8257,0.6216,148,102.356,22.7661,14.8315,140,0.7994,0.4782,-17.5368,-58.7571,32,0.8904,8423,4.0326,-109.9604
rg,1625188718468348748,1,0.0642,-0.6409,0.4741,149,66.4673,-41.1987,3.7842,140,0.8194,0.5052,-17.7768,-56.3458,32,0.8964,10938,4.0326,-108.4709
rg,1625188718468369303,1,0.1541,-0.7446,0.4573,150,14.6484,-68.2983,4.2725,140,0.8274,0.5253,-18.82,-56.6198,32,0.9004,8219,4.0326,-105.9453
rg,1625188718468387303,1,0.1953,-0.8489,0.4849,151,-13.3057,-76.355,4.7607,140,0.8234,0.5353,-20.3872,-59.6606,32,0.8994,8436,4.0326,-102.5585
rg,1625188718468427878,1,0.3413,-0.9895,0.6919,152,-74.707,-110.8398,0.061,140,0.7974,0.5443,-22.2771,-63.9663,32,0.8894,8292,4.0326,-98.4342
rg,1625188718468448952,1,0.3555,-1.0884,0.5439,153,-75.8667,-121.7651,-3.479,140,0.7634,0.5173,-24.09,-68.8467,32,0.8784,8466,4.0326,-93.6576
rg,1625188718468467303,1,0.4934,-1.2231,0.4775,154,-52.3682,-109.7412,29.1138,140,0.7424,0.4322,-24.2661,-72.9525,32,0.8624,8769,4.0326,-88.7062
rg,1625188718468486192,1,0.6956,-1.1128,0.7971,155,39.3066,-58.8379,38.9404,140,0.7444,0.3952,-23.6295,-71.8678,32,0.8654,8887,4.0326,-86.0388
rg,1625188718468505063,1,0.5618,-0.8149,0.1965,156,112.915,-20.0195,38.6963,140,0.7424,0.3702,-22.8085,-67.2976,32,0.8614,8874,4.0326,-84.2238
rg,1625188718468522840,1,0.4927,-0.5161,0.1133,157,139.0381,-28.2593,11.4136,140,0.7434,0.3522,-23.877,-62.6547,32,0.8574,9105,4.0326,-82.7905
rg,1625188718468540526,1,0.1448,-0.0498,0.0266,158,164.7949,-9.1553,-54.8096,140,0.7454,0.3622,-27.5262,-55.6243,32,0.8554,8663,4.0326,-83.8034
rg,1625188718468558137,1,0.1003,0.145,-0.0295,159,92.4683,26.3062,-3.6621,140,0.7494,0.3832,-28.9302,-50.5636,31,0.8564,9178,4.0326,-85.3448
rg,1625188718468576711,1,0.2654,0.0117,0.0129,160,-88.6841,45.4712,60.9741,140,0.7504,0.4042,-27.886,-53.987,31,0.8594,8917,4.0326,-85.3159
rg,1625188718855113711,1,0.2483,-1.9817,0.678,161,-155.7007,167.2974,51.8188,140,0.7684,0.4592,-23.0176,-55.8636,32,0.8774,25333,4.0326,-89.09
rg,1625188718855154229,1,-0.0542,-1.3533,0.8965,162,68.1763,135.5591,1.0986,140,0.7924,0.4842,-18.8393,-51.5064,32,0.8894,12413,4.0326,-93.6991
rg,1625188718855175322,1,-0.0615,-0.6277,0.6082,163,140.8081,70.0684,10.6812,140,0.8064,0.5012,-15.7889,-45.1009,32,0.8954,10423,4.0326,-95.6219
rg,1625188718855194488,1,-0.0518,-0.3667,0.3779,164,65.4907,-5.127,8.0566,140,0.8114,0.5193,-14.8816,-42.5462,32,0.8984,7671,4.0326,-95.2263
rg,1625188718855213488,1,0.0078,-0.427,0.4387,165,-1.1597,-37.9639,10.437,140,0.8064,0.5283,-15.4312,-43.0742,32,0.8954,7806,4.0326,-93.8074
rg,1625188718855231488,1,0.1875,-0.8337,0.6882,166,-131.4697,-101.8066,13.1836,140,0.7834,0.5353,-17.6177,-49.5836,32,0.8874,7802,4.0326,-90.2884
rg,1625188718855250137,1,0.2544,-1.26,0.5723,167,-126.709,-144.3481,10.498,140,0.7584,0.4972,-20.4323,-56.9567,32,0.8744,7875,4.0326,-84.9503
rg,1625188718855267951,1,0.5027,-1.415,0.5356,168,-90.6372,-153.8696,26.001,140,0.7464,0.4342,-21.9886,-61.682,32,0.8674,8666,4.0326,-78.0293
rg,1625188718855286081,1,0.7605,-1.3074,0.749,169,3.2349,-140.0757,57.1289,140,0.7494,0.4132,-22.6789,-63.964,32,0.8694,8390,4.0326,-71.5358
rg,1625188718855324859,1,0.7593,-1.1375,0.2458,170,111.6333,-81.1768,54.5654,140,0.7484,0.3862,-22.6434,-61.6092,32,0.8664,10444,4.0326,-67.153
rg,1625188718855344544,1,0.5608,-0.7505,0.0952,171,126.5869,-23.3154,-0.7324,140,0.7474,0.3722,-23.7317,-57.5918,31,0.8634,8359,4.0326,-66.0437
rg,1625188718855363285,1,0.1658,-0.3247,0.0847,172,136.0474,13.7329,-51.8799,140,0.7484,0.3662,-25.2561,-52.082,31,0.8604,9188,4.0326,-67.5815
rg,1625188718855380914,1,-0.0691,-0.0779,0.0601,173,132.5684,42.3584,-48.8281,140,0.7504,0.3722,-22.4238,-46.5362,31,0.8594,7762,4.0326,-70.2753
rg,1625188718855398692,1,-0.0613,-0.0188,0.0618,174,79.9561,65.6738,9.2773,140,0.7544,0.3882,-18.297,-41.9234,31,0.8594,7891,4.0326,-72.1954
rg,1625188718855421803,1,0.0569,-0.0774,0.0625,175,-31.0669,32.5317,46.9971,140,0.7554,0.4062,-16.5258,-43.6394,32,0.8614,8493,4.0326,-71.5742
rg,1625188718855440303,1,0.4365,-0.5703,0.9458,176,-192.8101,-9.1553,41.5039,140,0.7564,0.4222,-15.7713,-51.2436,32,0.8634,7996,4.0326,-70.2551
rg,1625188718855457581,1,0.6182,-1.1482,1.6372,177,-211.9751,21.4844,35.6445,140,0.7584,0.4392,-13.9711,-59.8531,32,0.8704,8934,4.0326,-70.1329
rg,1625188718855474859,1,0.2488,-1.7256,0.6951,178,-94.6045,53.833,18.6157,140,0.7684,0.4582,-12.0544,-63.5821,32,0.8784,8297,4.0326,-71.6518
rg,1625188718855492433,1,0.0049,-1.5569,1.0662,179,15.5029,81.2988,-8.5449,140,0.7854,0.4752,-10.4186,-62.0215,32,0.8874,8583,4.0326,-74.8257
rg,1625188718855509729,1,0.0376,-0.9431,0.7551,180,106.2622,34.79,8.606,140,0.8004,0.4922,-9.0866,-57.165,32,0.8954,8533,4.0326,-75.9337
rg,1625188718855527396,1,0.0513,-0.7234,0.5142,181,107.5439,3.6621,3.0518,140,0.8124,0.5082,-8.6729,-52.7514,32,0.9004,8286,4.0326,-75.9934
rg,1625188718855544359,1,0.1084,-0.551,0.4167,182,54.5044,-30.7617,-5.3101,140,0.8204,0.5223,-9.6039,-50.7041,32,0.9024,8734,4.0326,-75.147
rg,1625188718855561618,1,0.1816,-0.637,0.4524,183,-28.6865,-48.7671,-1.77,140,0.8214,0.5333,-11.0017,-52.2604,31,0.9014,8025,4.0326,-73.6119
rg,1625188718855579100,1,0.2607,-0.8818,0.707,184,-109.5581,-82.5195,-7.019,140,0.7924,0.5403,-13.1988,-57.1242,31,0.8914,9480,4.0326,-71.0259
rg,1625188718855596525,1,0.2854,-1.0974,0.6064,185,-92.8345,-106.4453,7.5684,140,0.7674,0.5383,-15.0596,-61.9371,31,0.8854,9889,4.0326,-67.0484
rg,1625188718855612970,1,0.4346,-1.2,0.5173,186,-72.0215,-127.3193,26.9775,140,0.7474,0.4872,-16.5967,-66.5579,31,0.8754,8312,4.0326,-61.7013
rg,1625188718855629748,1,0.6924,-1.2686,0.5352,187,-38.6963,-130.9204,37.9639,140,0.7504,0.4362,-17.5093,-69.7819,31,0.8774,8116,4.0326,-56.0145
rg,1625188718855647025,1,0.6152,-1.1733,0.2971,188,88.562,-43.0908,33.3862,140,0.7494,0.4152,-17.2695,-67.1072,31,0.8754,8377,4.0326,-53.7705
rg,1625188718855663748,1,0.5798,-0.8049,0.2341,189,107.2998,-43.335,42.5415,140,0.7484,0.3892,-17.6826,-63.3621,31,0.8724,8206,4.0326,-52.5086
rg,1625188718855744285,1,0.3645,-0.5588,0.1438,190,124.4507,-5.3101,-15.9912,140,0.7484,0.3732,-18.9278,-58.7609,32,0.8694,8336,4.0326,-52.5363
rg,1625188718855773025,1,0.1025,-0.1174,0.0674,191,138.4888,-2.2583,-35.4614,140,0.7504,0.3762,-20.8529,-52.9961,32,0.8684,8211,4.0326,-53.3272
rg,1625188718855792118,1,0.0183,0.0356,-0.0022,192,82.2754,7.3242,6.2866,140,0.7524,0.3932,-22.026,-48.473,32,0.8704,8431,4.0326,-53.8982
rg,1625188719190582747,1,0.9109,-0.8652,1.2981,193,-222.5952,-23.3765,64.9414,140,0.7594,0.4342,-20.8756,-57.7143,32,0.8824,25776,4.0326,-51.6068
rg,1625188719190637914,1,0.5735,-1.6731,0.6194,194,-127.5024,79.895,41.8701,140,0.7674,0.4542,-17.7361,-62.5772,32,0.8894,8868,4.0326,-53.5066
rg,1625188719190658803,1,0.2661,-1.6118,0.8723,195,-11.2305,105.2856,-9.1553,140,0.7754,0.4662,-15.736,-61.7976,32,0.8944,8636,4.0326,-57.5923
rg,1625188719190678710,1,0.0005,-0.9998,0.8188,196,73.5474,118.5913,11.5967,140,0.7894,0.4812,-12.3508,-57.4362,31,0.9024,9184,4.0326,-61.6744
rg,1625188719190697784,1,-0.0459,-0.6479,0.4165,197,85.8154,43.7012,12.5122,140,0.8134,0.5032,-11.4873,-54.9686,31,0.9084,12395,4.0326,-61.4061
rg,1625188719190717210,1,0.0098,-0.6633,0.4094,198,37.4146,-28.9307,6.1646,140,0.8274,0.5163,-11.5307,-53.8198,31,0.9104,7891,4.0326,-60.2679
rg,1625188719190736192,1,0.0835,-0.8196,0.3909,199,0.4272,-45.4712,10.9863,140,0.8334,0.5253,-11.9872,-54.5802,31,0.9134,7828,4.0326,-58.4135
rg,1625188719190755766,1,0.2429,-0.9419,0.5706,200,-23.0713,-58.1665,14.0991,140,0.8214,0.5343,-13.1534,-57.3917,31,0.9124,7754,4.0326,-55.275
rg,1625188719190773433,1,0.3269,-0.9375,0.6221,201,-67.9932,-96.8628,15.686,140,0.7954,0.5393,-14.7016,-60.9622,31,0.9054,7790,4.0326,-51.5213
rg,1625188719190791025,1,0.3772,-0.999,0.5591,202,-71.2891,-97.6562,13.7329,140,0.7634,0.5343,-16.113,-64.8173,31,0.8974,9387,4.0326,-47.6536
rg,1625188719190812377,1,0.4753,-1.2231,0.4612,203,-51.6357,-77.5146,42.2363,140,0.7474,0.4772,-15.9445,-68.0546,32,0.8884,8251,4.0326,-43.9467
rg,1625188719190831025,1,0.4932,-1.2485,0.6924,204,28.9917,-20.1416,37.6587,140,0.7484,0.4332,-14.9849,-66.9733,32,0.8894,8870,4.0326,-42.6616
rg,1625188719190848655,1,0.447,-1.1921,0.3037,205,100.8911,-20.0195,44.0063,140,0.7464,0.3982,-13.9234,-63.6417,32,0.8844,8443,4.0326,-41.0789
rg,1625188719190866951,1,0.46,-0.761,0.2717,206,129.0894,-11.5356,11.5356,140,0.7464,0.3612,-14.357,-58.8659,32,0.8794,8466,4.0326,-40.408
rg,1625188719190930747,1,0.1125,-0.3174,0.1414,207,145.0195,10.0098,-44.8608,140,0.7464,0.3442,-15.7628,-52.9832,32,0.8774,8729,4.0326,-41.7295
rg,1625188719190957692,1,-0.0911,-0.0425,0.1023,208,126.6479,18.1274,-32.3486,140,0.7494,0.3542,-14.4775,-46.6582,32,0.8774,8814,4.0326,-43.3103
rg,1625188719190977914,1,-0.1033,0.0159,0.0535,209,100.5249,12.0239,-1.5259,140,0.7514,0.3712,-12.9967,-40.965,32,0.8794,8363,4.0326,-44.0409
rg,1625188719190997210,1,0.1194,-0.009,0.0112,210,-17.0288,-47.6074,57.6782,140,0.7544,0.3892,-15.0092,-42.3831,32,0.8814,8751,4.0326,-40.9411
rg,1625188719191015970,1,0.678,-0.4336,0.7329,211,-204.2236,-91.7358,60.8521,140,0.7584,0.4142,-16.6425,-51.3892,32,0.8874,8531,4.0326,-36.4653
rg,1625188719191035359,1,0.9236,-1.5859,1.2705,212,-194.6411,51.9409,39.6729,140,0.7694,0.4362,-14.4728,-58.9136,32,0.8964,10499,4.0326,-37.2835
rg,1625188719191054896,1,0.4626,-1.8774,0.7759,213,-60.73,105.2246,-5.4932,140,0.7804,0.4522,-12.5023,-60.7626,32,0.9044,8133,4.0326,-41.0611
rg,1625188719191072507,1,-0.0366,-1.2913,0.9458,214,-3.9673,151.123,-21.3623,140,0.7934,0.4702,-8.9137,-57.1421,32,0.9094,8344,4.0326,-47.2626
rg,1625188719191090896,1,-0.1113,-0.9814,0.7864,215,105.7129,136.8408,3.6621,140,0.8134,0.4872,-5.1055,-52.1432,32,0.9144,8219,4.0326,-51.6887
rg,1625188719191109118,1,-0.106,-0.4944,0.3162,216,61.0962,-13.4277,-2.0752,140,0.8264,0.5082,-4.9052,-49.9308,32,0.9174,12883,4.0326,-51.2902
rg,1625188719191126970,1,0.0898,-0.6509,0.459,217,18.7378,-44.6167,-0.061,140,0.8304,0.5203,-6.3795,-51.5326,32,0.9184,8683,4.0326,-48.9877
rg,1625188719191145340,1,0.2144,-0.803,0.5735,218,-78.9185,-92.8345,12.6343,140,0.8114,0.5303,-8.4039,-55.2114,32,0.9124,8634,4.0326,-45.6578
rg,1625188719191162451,1,0.354,-1.0894,0.616,219,-122.1924,-135.376,3.6011,140,0.7794,0.5343,-11.402,-61.1008,32,0.9004,8684,4.0326,-40.8688
rg,1625188719191180210,1,0.5193,-1.3274,0.4573,220,-81.604,-148.3154,18.2495,140,0.7514,0.4932,-13.7175,-65.9809,32,0.8864,9190,4.0326,-35.0093
rg,1625188719191197525,1,0.7261,-1.3289,0.6099,221,-19.8364,-96.9238,39.4287,140,0.7504,0.4322,-14.2715,-67.7821,32,0.8884,8752,4.0326,-30.6996
rg,1625188719191214673,1,0.604,-1.1709,0.2771,222,124.2065,-20.874,44.7388,140,0.7484,0.4122,-13.4787,-63.4997,32,0.8864,8983,4.0326,-29.1047
rg,1625188719191345340,1,0.5432,-0.7168,0.2078,223,135.1929,-29.4189,49.7437,140,0.7454,0.3912,-13.9778,-58.5309,32,0.8824,8848,4.0326,-28.2758
rg,1625188719191374118,1,0.3357,-0.4902,0.1069,224,153.4424,3.1738,-19.4092,140,0.7464,0.3812,-15.3428,-52.8862,32,0.8804,8975,4.0326,-28.724
rg,1625188719546064266,1,0.0625,0.0342,0.0774,225,5.7983,32.8979,47.6074,140,0.7534,0.4092,-14.2209,-50.8433,32,0.8804,25099,4.0326,-29.1013
rg,1625188719546129747,1,0.6621,-0.8674,1.4336,226,-217.5293,-2.4414,47.6685,140,0.7564,0.4342,-13.0518,-59.064,32,0.8854,16812,4.0326,-28.06
rg,1625188719546153858,1,0.3379,-1.6421,0.7214,227,-126.5869,52.7954,34.3628,140,0.7624,0.4462,-10.7556,-64.1308,32,0.8934,7740,4.0326,-29.2374
rg,1625188719546174469,1,0.2734,-1.7476,0.7266,228,-64.3921,36.0107,11.0474,140,0.7734,0.4652,-10.061,-64.0059,32,0.8994,8623,4.0326,-31.0002
rg,1625188719546194247,1,0.0618,-1.2634,0.9277,229,36.0718,53.1006,-4.0894,140,0.7834,0.4762,-8.9436,-61.8114,32,0.9054,7993,4.0326,-33.0631
rg,1625188719546213766,1,0.0676,-0.748,0.6191,230,86.3647,6.958,7.6904,140,0.7954,0.4892,-8.3468,-57.8843,32,0.9104,7785,4.0326,-33.2174
rg,1625188719546232729,1,0.1633,-0.6025,0.3921,231,74.7681,-22.7661,7.019,140,0.8094,0.5032,-9.3524,-56.0649,32,0.9144,8674,4.0326,-31.3294
rg,1625188719546251488,1,0.217,-0.6333,0.3562,232,28.6255,-59.3872,7.9956,140,0.8184,0.5173,-10.7012,-55.4652,32,0.9164,8071,4.0326,-29.125
rg,1625188719546270266,1,0.2629,-0.8228,0.355,233,-10.3149,-47.7905,7.8735,140,0.8234,0.5313,-11.7277,-56.6468,32,0.9184,8792,4.0326,-27.2464
rg,1625188719546288358,1,0.3262,-0.9902,0.5464,234,-50.415,-51.8188,16.1133,140,0.8114,0.5413,-12.4433,-59.2712,32,0.9154,8424,4.0326,-25.0621
rg,1625188719546310599,1,0.3645,-1.0217,0.5723,235,-68.1152,-63.3545,14.8926,140,0.7824,0.5413,-13.7249,-62.7815,32,0.9084,8270,4.0326,-22.0832
rg,1625188719546329284,1,0.3809,-1.1082,0.4736,236,-56.6406,-80.5054,12.085,140,0.7554,0.5042,-14.8163,-65.9826,32,0.8954,8231,4.0326,-18.8308
rg,1625188719546346266,1,0.4683,-1.1658,0.4795,237,-22.0337,-52.9175,33.6914,140,0.7494,0.4352,-14.6234,-67.5651,32,0.8864,10202,4.0326,-16.2562
rg,1625188719546363673,1,0.4841,-1.0933,0.4683,238,75.1953,3.8452,42.0532,140,0.7474,0.4132,-13.3218,-64.6521,32,0.8824,7963,4.0326,-15.724
rg,1625188719546381803,1,0.5173,-0.8677,0.3052,239,103.6377,-2.1973,27.9541,140,0.7474,0.3902,-12.9984,-60.8462,32,0.8774,8294,4.0326,-15.0986
rg,1625188719546399469,1,0.3542,-0.6792,0.2595,240,109.2529,13.6108,-10.437,140,0.7464,0.3662,-13.5873,-56.6075,32,0.8714,8076,4.0326,-15.7548
rg,1625188719546416155,1,0.0454,-0.3018,0.1516,241,121.0327,35.9497,-40.2832,140,0.7484,0.3562,-13.8212,-51.5242,32,0.8694,8197,4.0326,-17.8513
rg,1625188719546432821,1,-0.073,-0.0452,0.1323,242,88.9282,52.9175,-17.8833,140,0.7514,0.3632,-11.547,-46.4052,32,0.8684,9180,4.0326,-20.1699
rg,1625188719546450469,1,-0.002,-0.0366,0.1545,243,46.7529,50.5981,8.3618,140,0.7544,0.3802,-9.4641,-45.8491,32,0.8704,8045,4.0326,-20.4081
rg,1625188719546467303,1,0.0886,-0.1729,0.2505,244,-92.9565,-6.2256,38.9404,140,0.7564,0.3992,-8.7571,-49.3161,32,0.8734,7889,4.0326,-19.2262
rg,1625188719546485062,1,0.6021,-1.0332,1.4241,245,-200.0122,-42.8467,31.9214,140,0.7604,0.4172,-9.1656,-57.1186,32,0.8794,8057,4.0326,-17.1187
rg,1625188719546502358,1,0.5635,-1.4609,1.1748,246,-169.3726,-24.4751,20.1416,140,0.7674,0.4302,-9.4587,-61.9897,32,0.8874,7955,4.0326,-16.2529
rg,1625188719546533673,1,0.4109,-1.7354,0.7891,247,-48.4619,-5.9814,-8.3618,140,0.7834,0.4542,-9.8757,-63.8598,32,0.8954,9413,4.0326,-16.2024
rg,1625188719546554414,1,0.2197,-1.1899,0.7859,248,65.3687,41.9312,-2.9907,140,0.7984,0.4742,-9.1642,-60.6874,32,0.9024,8483,4.0326,-17.8169
rg,1625188719546572229,1,0.1406,-0.7068,0.4734,249,101.9287,15.1978,-6.8359,140,0.8134,0.4862,-9.089,-56.3212,32,0.9074,8438,4.0326,-18.5174
rg,1625188719546589155,1,0.1821,-0.5859,0.3618,250,57.7393,-32.4707,-2.4414,140,0.8294,0.5042,-10.128,-54.2516,32,0.9124,8674,4.0326,-17.4834
rg,1625188719546606618,1,0.2729,-0.634,0.4128,251,26.3672,-42.4805,0.6104,140,0.8374,0.5193,-11.4254,-55.019,32,0.9144,8933,4.0326,-15.9507
rg,1625188719546624247,1,0.3579,-0.8428,0.4866,252,-47.7905,-50.1709,9.4604,140,0.8204,0.5303,-12.5613,-57.5048,32,0.9094,8394,4.0326,-13.9857
rg,1625188719546641099,1,0.4595,-1.0063,0.593,253,-107.1777,-83.6792,8.8501,151,0.7894,0.5393,-14.2586,-62.5823,31,0.8984,8636,4.0172,-10.7926
rg,1625188719546658710,1,0.4661,-1.1716,0.4346,254,-72.0825,-85.3271,15.9912,151,0.7574,0.4912,-15.3744,-66.6098,31,0.8864,8786,4.0172,-7.2465
rg,1625188719546786655,1,0.5957,-1.1736,0.4575,255,-20.4468,-44.1284,52.9785,151,0.7464,0.4202,-14.4833,-68.1447,31,0.8744,8454,4.0172,-4.6996
rg,1625188719546824229,1,0.7363,-1.0759,0.7954,256,21.9727,-16.3574,58.8379,151,0.7484,0.3972,-13.0303,-67.392,31,0.8744,8866,4.0172,-3.2311
rg,1625188719905261840,1,0.1973,-0.6226,0.2666,257,108.7036,33.6914,-26.7334,151,0.7494,0.3372,-13.5578,-62.6179,32,0.8654,24820,4.0172,-4.9622
rg,1625188719905297840,1,-0.104,-0.0928,0.1313,258,107.5439,43.396,-6.5308,151,0.7534,0.3432,-11.5119,-56.1895,32,0.8664,15238,4.0172,-6.9676
rg,1625188719905318395,1,-0.011,0.0322,0.126,259,30.0293,-5.3101,33.3862,151,0.7564,0.3572,-10.1988,-52.9956,32,0.8694,7864,4.0172,-6.434
rg,1625188719905338136,1,0.2595,-0.2568,0.3809,260,-134.1553,-65.7349,49.1333,151,0.7574,0.3792,-10.8221,-58.2969,32,0.8724,7867,4.0172,-3.1865
rg,1625188719905357117,1,0.5969,-0.7251,1.1355,261,-212.4023,-66.9556,48.645,151,0.7594,0.3962,-10.8936,-66.4768,32,0.8774,7732,4.0172,0.0024
rg,1625188719905375043,1,0.5369,-1.675,0.8745,262,-159.9121,3.7842,32.7148,151,0.7654,0.4182,-9.8156,-72.7437,32,0.8854,7893,4.0172,0.295
rg,1625188719905393154,1,0.3042,-1.8003,0.897,263,-32.4097,38.147,-4.9438,151,0.7794,0.4372,-9.5221,-73.399,32,0.8924,7771,4.0172,-1.3105
rg,1625188719905411154,1,0.134,-1.4775,0.9226,264,30.7007,70.0073,-3.2959,151,0.7944,0.4562,-8.5507,-70.9663,32,0.9004,8688,4.0172,-4.1751
rg,1625188719905448821,1,0.0427,-0.8481,0.6323,265,114.7461,40.8325,8.4839,151,0.8114,0.4702,-7.4014,-65.4805,32,0.9054,8177,4.0172,-5.6752
rg,1625188719905468988,1,0.0801,-0.5916,0.3523,266,84.4727,-21.7285,8.9722,151,0.8324,0.4892,-7.4303,-61.9679,32,0.9094,8309,4.0172,-4.7623
rg,1625188719905488173,1,0.2046,-0.6653,0.3909,267,24.231,-45.3491,7.019,151,0.8494,0.5082,-8.332,-61.1332,32,0.9104,8505,4.0172,-3.0323
rg,1625188719905505636,1,0.2378,-0.7727,0.4194,268,-5.127,-47.4854,6.958,151,0.8474,0.5213,-9.2574,-61.6181,32,0.9114,8237,4.0172,-1.2078
rg,1625188719905522691,1,0.366,-0.9399,0.5867,269,-80.6885,-75.6836,11.4136,151,0.8154,0.5303,-10.5471,-65.1999,32,0.9024,8120,4.0172,1.7349
rg,1625188719905540154,1,0.3872,-1.0435,0.4387,270,-99.4873,-109.2529,0.2441,151,0.7784,0.5323,-12.5077,-70.0637,32,0.8914,8558,4.0172,5.889
rg,1625188719905560043,1,0.5071,-1.1626,0.3896,271,-69.8853,-104.7363,5.0049,151,0.7494,0.4922,-13.0533,-72.4803,32,0.8804,8387,4.0172,9.7578
rg,1625188719905578173,1,0.6228,-1.2151,0.4316,272,-22.2778,-68.4204,50.354,151,0.7504,0.4282,-12.4062,-74.0077,32,0.8844,8446,4.0172,13.0205
rg,1625188719905595543,1,0.6814,-1.2185,0.5188,273,77.4536,23.4375,60.4248,151,0.7474,0.4042,-10.4098,-70.6094,32,0.8834,8328,4.0172,12.7725
rg,1625188719905612654,1,0.7063,-0.9958,0.3127,274,132.5073,29.9072,49.8657,151,0.7464,0.3602,-9.0319,-65.3022,32,0.8794,8121,4.0172,12.3637
rg,1625188719905629858,1,0.2463,-0.5127,0.158,275,157.6538,62.6221,-35.2783,151,0.7474,0.3332,-9.7259,-58.7936,32,0.8774,10529,4.0172,9.4594
rg,1625188719905646895,1,-0.1057,-0.1143,0.116,276,159.8511,80.1392,-53.2837,151,0.7474,0.3282,-7.5361,-51.3389,32,0.8744,8095,4.0172,4.889
rg,1625188719905664080,1,-0.197,0.0022,0.1252,277,147.7661,110.6567,-23.3154,151,0.7504,0.3372,-3.2739,-44.1214,32,0.8734,8336,4.0172,0.9783
rg,1625188719905680914,1,-0.1321,0.1108,0.0469,278,82.3975,40.1001,50.0488,151,0.7524,0.3562,0.8888,-39.418,32,0.8734,8162,4.0172,1.3864
rg,1625188719905698358,1,0.1035,-0.0095,0.1116,279,-93.5059,-62.9883,64.6362,151,0.7544,0.3762,-0.8788,-42.1973,32,0.8734,8280,4.0172,5.0372
rg,1625188719905716543,1,0.2383,-0.1858,0.3552,280,-201.7212,-94.9097,59.2041,151,0.7544,0.3942,-2.9203,-49.8882,32,0.8764,8210,4.0172,9.4718
rg,1625188719905746117,1,0.8491,-1.4009,1.8835,281,-264.8926,-16.5405,49.6216,151,0.7544,0.4092,-2.3415,-60.0216,32,0.8824,8262,4.0172,11.1767
rg,1625188719905764766,1,0.3298,-1.8733,0.5305,282,-99.2432,41.2598,24.7192,151,0.7644,0.4272,-0.9957,-64.4801,32,0.8904,8506,4.0172,10.2048
rg,1625188719905782377,1,-0.0168,-1.468,1.075,283,-45.6543,59.3872,-8.4229,151,0.7774,0.4412,-0.073,-63.7875,32,0.8974,8359,4.0172,6.7382
rg,1625188719905800006,1,-0.1091,-1.1116,0.9714,284,56.0303,72.5098,-6.6528,151,0.7924,0.4602,1.1936,-60.9784,32,0.9054,8756,4.0172,4.0469
rg,1625188719905816803,1,-0.0898,-0.6714,0.4731,285,81.9092,-20.813,2.6245,151,0.8084,0.4752,1.0605,-57.4381,32,0.9124,8358,4.0172,4.8287
rg,1625188719905833562,1,0.1523,-0.6543,0.4141,286,24.8413,-91.4917,7.1411,151,0.8274,0.4912,-1.1602,-56.4455,32,0.9164,8495,4.0172,8.0497
rg,1625188719905941469,1,0.3049,-0.8186,0.3252,287,6.7139,-102.7832,8.9722,151,0.8424,0.5052,-3.7464,-57.2563,32,0.9184,8346,4.0172,11.5172
rg,1625188719905982191,1,0.3477,-0.9243,0.3096,288,-13.6719,-77.0874,9.5215,151,0.8454,0.5193,-5.6739,-58.5511,32,0.9194,8527,4.0172,14.3833
rg,1625188720397913006,1,0.4282,-1.011,0.4502,289,-68.7256,-36.6821,14.7095,151,0.7484,0.5243,-6.4941,-61.7274,32,0.8854,25948,4.0172,15.9991
rg,1625188720397989839,1,0.5781,-1.1711,0.5222,290,-19.8364,3.1128,54.1382,151,0.7454,0.4252,-5.2167,-62.7539,31,0.8774,14664,4.0172,16.9165
rg,1625188720398010321,1,0.4482,-1.1567,0.387,291,25.5127,35.6445,53.772,151,0.7434,0.3962,-2.7351,-59.5527,31,0.8744,7741,4.0172,15.8913
rg,1625188720398029599,1,0.5178,-1.0471,0.3687,292,109.0698,39.5508,58.3496,151,0.7424,0.3642,-0.7892,-55.5789,31,0.8694,7865,4.0172,15.7857
rg,1625188720398049821,1,0.238,-0.6755,0.2622,293,136.2305,48.1567,-17.1509,151,0.7424,0.3312,-0.8666,-50.5965,31,0.8654,7756,4.0172,13.8088
rg,1625188720398069154,1,0.0759,-0.4451,0.2371,294,136.2915,57.0679,-42.5415,151,0.7424,0.3252,-0.1047,-45.0597,32,0.8624,7697,4.0172,11.0021
rg,1625188720398086691,1,-0.1711,-0.0715,0.1963,295,135.8643,82.7026,-39.917,151,0.7444,0.3292,2.7074,-38.97,32,0.8614,8374,4.0172,7.6836
rg,1625188720398104932,1,-0.1814,0.0669,0.1953,296,59.6313,56.3965,26.4282,151,0.7484,0.3422,6.5822,-35.1754,32,0.8624,7960,4.0172,7.2818
rg,1625188720398123339,1,-0.0376,-0.1104,0.2744,297,-92.1631,-34.9121,43.457,151,0.7494,0.3632,6.5363,-38.0662,32,0.8644,8670,4.0172,9.5841
rg,1625188720398142062,1,0.1104,-0.384,0.6404,298,-179.0161,-82.9468,38.7573,151,0.7514,0.3882,4.5036,-44.5871,32,0.8694,8245,4.0172,13.016
rg,1625188720398159525,1,0.5159,-1.5181,1.5615,299,-204.895,-81.7871,35.4614,151,0.7564,0.4092,2.7234,-52.5117,32,0.8794,8297,4.0172,16.4552
rg,1625188720398176580,1,0.4375,-1.8977,0.7368,300,-59.8755,-64.4531,16.1743,151,0.7664,0.4272,1.1612,-55.4236,32,0.8884,8760,4.0172,18.9074
rg,1625188720398193969,1,0.3291,-1.2708,0.7544,301,3.2349,-32.5928,0.4883,151,0.7844,0.4492,0.3592,-53.1491,32,0.8974,8332,4.0172,18.9399
rg,1625188720398210710,1,0.2676,-0.9221,0.6709,302,101.7456,1.0986,-9.1553,151,0.8004,0.4642,-0.4298,-49.1087,32,0.9044,8348,4.0172,18.6563
rg,1625188720398228636,1,0.1531,-0.5364,0.2883,303,102.1729,-9.2773,-3.6011,151,0.8194,0.4772,-1.3216,-45.5052,32,0.9104,8163,4.0172,18.8174
rg,1625188720398246728,1,0.2983,-0.5947,0.3689,304,21.3013,-25.5737,4.7607,151,0.8334,0.4932,-2.7433,-45.1345,32,0.9144,8095,4.0172,19.6861
rg,1625188720398264136,1,0.2869,-0.9124,0.49,305,-63.6597,-40.1611,3.9062,151,0.8184,0.5102,-4.2265,-48.3705,32,0.9114,11626,4.0172,21.0104
rg,1625188720398282432,1,0.3618,-1.0803,0.4824,306,-113.2202,-71.0449,6.5918,151,0.7874,0.5183,-6.2986,-53.7543,32,0.8984,8165,4.0172,23.4684
rg,1625188720398299339,1,0.3203,-1.1118,0.4348,307,-90.0269,-72.3267,0.1221,151,0.7604,0.4802,-8.2472,-58.2114,32,0.8854,8216,4.0172,25.9652
rg,1625188720398315987,1,0.4509,-1.092,0.447,308,-7.9956,-46.9971,33.3862,151,0.7464,0.4162,-8.5756,-59.2146,32,0.8744,8062,4.0172,28.3421
rg,1625188720398332987,1,0.7654,-1.0049,0.8313,309,40.5273,-4.7607,67.8101,151,0.7464,0.3942,-7.2148,-57.4994,32,0.8784,8102,4.0172,29.8729
rg,1625188720398349932,1,0.6501,-1.0583,0.3994,310,87.1582,29.1138,60.0586,151,0.7434,0.3662,-5.46,-54.4543,32,0.8734,9260,4.0172,30.2703
rg,1625188720398371006,1,0.5762,-0.9673,0.3413,311,92.5293,38.269,26.3062,151,0.7434,0.3302,-4.3563,-51.3049,32,0.8714,8723,4.0172,29.7152
rg,1625188720398417062,1,0.1064,-0.4751,0.1809,312,134.3384,69.8242,-51.3306,151,0.7444,0.3222,-4.3772,-46.3535,32,0.8674,8658,4.0172,26.2917
rg,1625188720398438302,1,-0.1187,-0.0071,0.155,313,154.2969,91.1865,-47.5464,151,0.7464,0.3342,-1.5214,-38.7638,32,0.8664,8953,4.0172,22.4319
rg,1625188720398456654,1,-0.0999,0.1252,0.1743,314,49.9878,86.853,31.25,151,0.7494,0.3542,2.9634,-34.7954,32,0.8674,9138,4.0172,21.33
rg,1625188720398475080,1,0.0198,-0.1677,0.3296,315,-138.6719,9.0942,49.9878,151,0.7514,0.3752,4.2255,-39.9194,32,0.8704,8521,4.0172,22.7235
rg,1625188720398493080,1,0.427,-1.2537,1.8008,316,-226.3184,-30.5786,41.1377,151,0.7534,0.3962,3.6517,-49.4989,32,0.8764,9044,4.0172,24.6995
rg,1625188720398511228,1,0.2463,-1.6191,0.9856,317,-181.0303,-18.0054,26.8555,151,0.7604,0.4152,3.6902,-57.47,31,0.8844,9225,4.0172,25.8887
rg,1625188720398528747,1,0.25,-1.7539,0.854,318,-42.6025,-15.8081,-4.8218,151,0.7714,0.4312,2.7649,-59.3878,31,0.8924,8862,4.0172,26.3187
rg,1625188720398545876,1,0.0918,-1.1057,0.8989,319,44.5557,7.3853,-15.686,151,0.7844,0.4452,2.1309,-57.2852,31,0.9014,9134,4.0172,25.75
rg,1625188720398563636,1,0.0981,-0.7161,0.5403,320,72.3267,-36.9873,-9.2163,151,0.8014,0.4622,0.6694,-54.1904,32,0.9074,8749,4.0172,26.7652
rg,1625188720915043969,1,0.4231,-0.8657,0.3352,321,5.5542,-60.791,-2.1973,151,0.8454,0.5102,-1.7735,-54.499,32,0.9184,27698,4.0172,28.6872
rg,1625188720915078191,1,0.4578,-0.9448,0.5051,322,-26.8555,-38.269,3.2959,151,0.8314,0.5223,-3.3595,-55.8882,32,0.9164,8643,4.0172,30.0384
rg,1625188720915098876,1,0.4785,-0.9463,0.5,323,-56.6406,-40.8936,12.0239,151,0.7984,0.5263,-4.7384,-59.2731,32,0.9054,7779,4.0172,31.642
rg,1625188720915118061,1,0.3806,-1.0054,0.4663,324,-75.9888,-29.9072,3.7842,151,0.7654,0.5143,-5.7386,-62.6181,32,0.8954,7905,4.0172,32.7988
rg,1625188720915136543,1,0.4023,-1.1917,0.5281,325,-38.0249,-14.1602,34.4849,151,0.7444,0.4402,-5.2056,-64.3644,32,0.8844,7861,4.0172,33.9409
rg,1625188720915154228,1,0.4788,-1.2429,0.6589,326,-17.2729,-8.5449,53.1006,151,0.7454,0.3932,-3.5619,-62.789,32,0.8874,7963,4.0172,34.5338
rg,1625188720915171746,1,0.3613,-1.2271,0.4397,327,97.4731,21.5454,53.894,151,0.7424,0.3632,-1.7368,-59.1833,32,0.8844,7992,4.0172,34.8198
rg,1625188720915206580,1,0.3948,-0.9016,0.2959,328,137.8784,-13.2446,20.6299,151,0.7424,0.3202,-2.146,-54.1587,32,0.8824,7962,4.0172,35.6899
rg,1625188720915225765,1,0.1982,-0.6458,0.1858,329,158.8745,-4.1504,-18.5547,151,0.7424,0.3112,-3.7968,-47.3909,32,0.8784,7936,4.0172,34.761
rg,1625188720915244432,1,-0.0271,-0.1057,0.1907,330,180.1147,-2.0752,-39.856,151,0.7434,0.3102,-4.5258,-39.4171,32,0.8764,7945,4.0172,33.6446
rg,1625188720915262895,1,-0.053,0.1248,0.158,331,127.6855,4.5166,12.207,151,0.7454,0.3192,-3.4751,-32.2042,32,0.8764,7955,4.0172,33.8037
rg,1625188720915280728,1,0.0254,0.1362,0.1116,332,68.5425,-13.916,41.9922,151,0.7484,0.3322,-5.0951,-31.2645,32,0.8774,8039,4.0172,36.2494
rg,1625188720915298209,1,0.1863,-0.054,0.1296,333,-105.4077,-56.8848,49.8657,151,0.7504,0.3522,-7.5693,-35.5853,32,0.8794,7990,4.0172,39.2262
rg,1625188720915325098,1,0.7664,-0.8555,1.4543,334,-265.3198,-48.1567,37.1094,151,0.7514,0.3662,-8.6995,-46.3055,32,0.8884,8166,4.0172,41.66
rg,1625188720915342524,1,0.2808,-1.8613,0.6846,335,-100.5249,43.335,0.7324,151,0.7624,0.3992,-7.5339,-51.0175,32,0.8964,14862,4.0172,40.4995
rg,1625188720915359821,1,0.1389,-1.7581,0.9951,336,-41.9922,51.8799,-24.231,151,0.7734,0.4182,-6.883,-52.7749,32,0.9024,8021,4.0172,38.2961
rg,1625188720915376765,1,-0.0488,-1.0422,0.844,337,61.2793,39.856,-9.9487,151,0.7844,0.4342,-5.8516,-50.0804,32,0.9084,8064,4.0172,36.7903
rg,1625188720915393876,1,0.05,-0.6082,0.3965,338,77.6978,-36.0107,-0.8545,151,0.8024,0.4542,-6.7467,-47.3562,32,0.9154,8343,4.0172,37.8874
rg,1625188720915410728,1,0.1958,-0.5708,0.3528,339,54.7485,-73.7915,2.8076,151,0.8194,0.4672,-9.3957,-46.0327,32,0.9194,8043,4.0172,40.193
rg,1625188720915427450,1,0.3936,-0.6816,0.3013,340,4.5166,-83.8623,5.7983,151,0.8304,0.4812,-12.2544,-47.0432,32,0.9215,8807,4.0172,42.9577
rg,1625188720915443932,1,0.4751,-0.9529,0.3638,341,-47.2412,-41.687,11.9629,151,0.8274,0.4922,-13.5168,-50.0736,32,0.9204,8482,4.0172,44.7472
rg,1625188720915460358,1,0.4888,-1.0835,0.583,342,-79.834,-31.189,0.4272,151,0.8014,0.5042,-14.5903,-53.9379,32,0.9114,8480,4.0172,45.8845
rg,1625188720915476969,1,0.3831,-1.0837,0.4792,343,-70.4956,-22.9492,0.5493,151,0.7654,0.4962,-14.7624,-57.0497,32,0.8974,8530,4.0172,47.1507
rg,1625188720915493487,1,0.4031,-1.1106,0.4331,344,-43.2129,-23.5596,27.771,151,0.7474,0.4352,-14.4703,-59.5737,32,0.8824,8526,4.0172,48.6962
rg,1625188720915509765,1,0.571,-1.03,0.8496,345,17.5171,-12.6343,41.8091,151,0.7474,0.3962,-13.6391,-58.8432,32,0.8854,8250,4.0172,49.9304
rg,1625188720915526302,1,0.478,-0.9973,0.3086,346,100.2197,0.9155,58.5327,151,0.7444,0.3792,-12.1011,-55.6219,32,0.8814,8514,4.0172,51.2965
rg,1625188720915542950,1,0.3425,-0.8032,0.3132,347,89.1113,-1.4038,43.396,151,0.7444,0.3502,-11.8988,-52.1364,32,0.8784,8800,4.0172,50.8961
rg,1625188720915569080,1,0.1565,-0.5952,0.2593,348,116.2109,27.3438,-23.1323,151,0.7434,0.3402,-11.9877,-47.7426,32,0.8754,8438,4.0172,49.5428
rg,1625188720915586432,1,-0.0588,-0.1709,0.1191,349,135.8032,35.2173,-27.8931,151,0.7454,0.3482,-10.7353,-42.2546,32,0.8734,8839,4.0172,47.8354
rg,1625188720915603506,1,0.0361,0.0222,0.1812,350,66.1011,15.8081,13.2446,151,0.7504,0.3722,-10.2997,-40.7485,32,0.8754,12299,4.0172,48.616
rg,1625188720915620191,1,0.1177,-0.1274,0.2708,351,-79.0405,-34.4849,37.3535,151,0.7534,0.3922,-10.7655,-43.6969,32,0.8794,8434,4.0172,50.5892
rg,1625188720915636746,1,0.5383,-0.9758,1.3635,352,-194.3359,-40.5884,36.3159,151,0.7584,0.4122,-11.0642,-51.546,32,0.8854,8596,4.0172,52.7619
rg,1625188721089914728,1,0.1663,-1.5234,0.897,353,-1.3428,19.8364,-13.0615,151,0.7854,0.4502,-10.76,-51.7223,32,0.9044,22952,4.0172,51.8574
rg,1625188721089958487,1,0.105,-0.8987,0.6819,354,86.1816,-0.7935,-8.667,151,0.8034,0.4682,-10.8281,-48.2784,32,0.9124,8865,4.0172,51.6693
rg,1625188721089989302,1,0.2217,-0.5818,0.3806,355,78.6743,-51.7578,1.8311,151,0.8184,0.4822,-12.4505,-45.777,32,0.9174,7799,4.0172,53.3229
rg,1625188721090020209,1,0.3318,-0.5654,0.3523,356,50.7202,-64.27,4.7607,151,0.8334,0.4952,-14.6726,-44.6595,32,0.9215,8020,4.0172,55.4294
rg,1625188721090047617,1,0.4402,-0.7385,0.3235,357,-0.8545,-40.3442,7.2632,151,0.8394,0.5102,-16.1738,-45.8229,32,0.9235,7821,4.0172,57.0304
rg,1625188721090073802,1,0.4868,-0.949,0.5203,358,-75.4395,-33.2031,10.1318,151,0.8184,0.5193,-17.0887,-49.7758,32,0.9174,7904,4.0172,58.5124
rg,1625188721090100672,1,0.4856,-0.9863,0.5674,359,-102.1729,-36.3159,9.3994,151,0.7844,0.5223,-17.9136,-54.67,32,0.9034,7795,4.0172,60.0816
rg,1625188721090127117,1,0.3433,-1.0796,0.5005,360,-66.7114,-26.7944,8.2397,151,0.7584,0.4922,-18.1595,-58.0863,32,0.8914,7905,4.0172,61.3362
rg,1625188721090153191,1,0.5303,-1.1584,0.6235,361,-31.0059,-15.2588,34.0576,151,0.7504,0.4302,-16.4344,-59.1649,32,0.8874,7838,4.0172,62.9639
rg,1625188721090178172,1,0.6838,-1.1594,0.9683,362,20.6909,6.7139,67.8101,151,0.7484,0.4092,-14.2984,-58.312,32,0.8884,8048,4.0172,64.0748
rg,1625188721090204283,1,0.5781,-1.2332,0.4846,363,93.9941,1.2817,57.6782,151,0.7474,0.3802,-12.718,-55.2195,32,0.8844,8047,4.0172,65.4048
rg,1625188721090231320,1,0.2397,-0.9053,0.3125,364,109.8022,6.897,27.5269,151,0.7464,0.3482,-12.6042,-50.1911,32,0.8814,8066,4.0172,64.4226
rg,1625188721090256987,1,0.0618,-0.6252,0.2849,365,155.8838,35.2173,-35.4614,151,0.7474,0.3282,-12.4183,-44.1355,32,0.8774,8077,4.0172,62.5268
rg,1625188721090282506,1,-0.1299,-0.0979,0.1785,366,175.6592,37.4146,-31.0669,151,0.7484,0.3272,-10.4953,-36.25,32,0.8754,8072,4.0216,60.5785
rg,1625188721090308857,1,-0.1106,0.1418,0.1333,367,127.8687,-5.9204,17.4561,147,0.7524,0.3462,-9.1528,-29.3039,32,0.8764,9788,4.0216,61.0115
rg,1625188721090334469,1,0.0918,0.0884,0.0906,368,-26.4282,-75.5615,54.0771,147,0.7544,0.3702,-11.9519,-29.1909,32,0.8784,8342,4.0216,64.1436
rg,1625188721090360302,1,0.1863,-0.0703,0.1467,369,-132.019,-99.5483,54.8706,147,0.7554,0.3922,-14.8513,-35.3994,32,0.8834,8116,4.0216,68.2725
rg,1625188721090385450,1,0.8884,-1.0625,1.7922,370,-282.6538,-72.0215,44.4946,147,0.7584,0.4082,-16.151,-47.3702,32,0.8904,8200,4.0216,71.6072
rg,1625188721090434450,1,0.4258,-1.821,0.5688,371,-146.9727,23.0103,23.8037,147,0.7674,0.4262,-14.7328,-54.1561,32,0.8984,8116,4.0216,71.7556
rg,1625188721090463024,1,0.2048,-1.6677,1.0217,372,-84.4116,23.6816,-6.0425,147,0.7814,0.4422,-14.1007,-54.6723,32,0.9044,8250,4.0216,69.4115
rg,1625188721090490802,1,0.0725,-1.2607,0.9539,373,32.3486,58.6548,-19.8364,147,0.7954,0.4532,-12.9066,-52.7299,32,0.9114,8198,4.0216,66.97
rg,1625188721090517932,1,0.1191,-0.7122,0.5549,374,92.1021,4.4556,5.188,147,0.8144,0.4732,-12.4182,-49.0161,32,0.9164,8269,4.0216,66.9608
rg,1625188721090544450,1,0.2712,-0.5918,0.3164,375,49.2554,-43.2129,8.0566,147,0.8354,0.4862,-13.7039,-47.8694,32,0.9204,8173,4.0216,68.6072
rg,1625188721090584857,1,0.3386,-0.655,0.3145,376,22.0337,-43.2739,3.7842,147,0.8554,0.4982,-14.6707,-48.7231,32,0.9215,8385,4.0216,69.7736
rg,1625188721090611117,1,0.3579,-0.8616,0.3762,377,-12.2681,-16.4795,8.1787,147,0.8604,0.5102,-15.1125,-50.0594,32,0.9215,8645,4.0216,70.6824
rg,1625188721090637043,1,0.3796,-0.9651,0.5427,378,-48.584,-29.9072,9.3384,147,0.8314,0.5183,-15.7167,-52.7193,32,0.9154,8944,4.0216,72.003
rg,1625188721090662691,1,0.3887,-0.9155,0.4814,379,-71.5332,-47.6074,16.4185,147,0.7934,0.5223,-16.4707,-56.489,32,0.9014,8223,4.0216,74.1188
rg,1625188721090687839,1,0.3806,-0.957,0.4368,380,-50.8423,-47.2412,33.0811,147,0.7584,0.5173,-16.4796,-59.5373,32,0.8914,8682,4.0216,76.6198
rg,1625188721090712969,1,0.4741,-1.0291,0.4482,381,-25.9399,-47.3022,45.5933,147,0.7434,0.4612,-16.1466,-61.5583,32,0.8794,8638,4.0216,79.3419
rg,1625188721090737691,1,0.4739,-1.1367,0.6155,382,55.9082,18.6768,48.8892,147,0.7444,0.3942,-14.2813,-59.7229,32,0.8804,16178,4.0216,79.7382
rg,1625188721090763135,1,0.4636,-1.0076,0.4395,383,99.8535,-12.2681,35.5225,147,0.7444,0.3682,-13.6777,-56.2652,32,0.8774,8360,4.0216,80.9875
rg,1625188721090788487,1,0.1284,-0.6614,0.323,384,129.6997,6.4087,-24.6582,147,0.7454,0.3452,-14.1759,-51.1926,32,0.8744,8559,4.0216,80.2534
rg,1625188721439676542,1,-0.0393,0.0388,0.1812,385,91.6138,-12.5122,16.4185,147,0.7514,0.3582,-13.2928,-45.6993,32,0.8734,23742,4.0216,80.6183
rg,1625188721439720228,1,0.1272,-0.0273,0.2056,386,-44.3115,-63.9648,36.8652,147,0.7544,0.3802,-14.7887,-46.9482,32,0.8754,8519,4.0216,83.2971
rg,1625188721439740876,1,0.5569,-0.6885,1.0657,387,-189.4531,-75.1343,35.6445,147,0.7574,0.3962,-15.9373,-54.8611,32,0.8794,7908,4.0216,86.532
rg,1625188721439760876,1,0.6353,-1.1804,1.2783,388,-193.9087,-36.7432,30.4565,147,0.7604,0.4172,-15.8351,-62.6535,32,0.8854,7855,4.0216,88.3707
rg,1625188721439780524,1,0.3982,-1.6516,0.7405,389,-104.0039,-1.709,2.3193,147,0.7714,0.4332,-15.6405,-66.9454,32,0.8944,7967,4.0216,88.5022
rg,1625188721439799894,1,0.2209,-1.3784,0.9197,390,-4.8218,21.2402,-17.2729,147,0.7884,0.4502,-15.6305,-66.3957,32,0.9044,8328,4.0216,87.2898
rg,1625188721439818116,1,0.2078,-0.8838,0.6184,391,67.688,-3.2349,-4.7607,147,0.8044,0.4622,-15.6756,-63.2317,32,0.9124,9242,4.0216,87.2056
rg,1625188721439836450,1,0.2361,-0.728,0.4387,392,67.5659,-18.1885,0.3662,147,0.8224,0.4772,-15.9938,-60.5331,32,0.9184,8242,4.0216,87.8306
rg,1625188721439854487,1,0.3464,-0.6711,0.2988,393,34.1797,-29.9683,1.6479,147,0.8414,0.4922,-16.8931,-59.675,32,0.9215,7988,4.0216,88.9993
rg,1625188721439872783,1,0.3857,-0.7817,0.3457,394,-2.2583,-9.7656,-0.3662,147,0.8494,0.5052,-17.3923,-60.0985,32,0.9245,8499,4.0216,89.4139
rg,1625188721439889802,1,0.3691,-0.9429,0.5657,395,-27.1606,0.1831,4.6387,147,0.8314,0.5133,-17.1736,-62.5628,32,0.9194,8352,4.0216,89.8557
rg,1625188721439908005,1,0.405,-0.9768,0.5867,396,-81.0547,-24.353,13.916,147,0.7964,0.5193,-17.1857,-65.9934,32,0.9054,8294,4.0216,90.984
rg,1625188721439937561,1,0.4219,-1.1284,0.4009,397,-46.6919,-37.0483,25.3906,147,0.7494,0.4622,-16.9024,-68.5588,32,0.8844,14386,4.0216,92.8721
rg,1625188721439956894,1,0.6506,-1.1243,0.9346,398,4.5166,-2.3193,54.9927,147,0.7504,0.4062,-15.2053,-67.945,32,0.8884,7979,4.0216,93.5979
rg,1625188721439983450,1,0.4551,-1.1414,0.6592,399,69.1528,29.7241,56.7627,147,0.7484,0.3802,-13.0553,-64.0134,32,0.8854,8172,4.0216,94.5208
rg,1625188721440029913,1,0.5139,-1.0347,0.3972,400,111.084,-9.9487,46.814,147,0.7464,0.3452,-12.0557,-60.0198,32,0.8834,7995,4.0216,95.7961
rg,1625188721440053783,1,0.1675,-0.6873,0.2971,401,137.207,21.0571,-18.3105,147,0.7464,0.3212,-12.2439,-54.5544,32,0.8774,8167,4.0216,94.7186
rg,1625188721440074894,1,-0.0403,-0.1709,0.1658,402,159.0576,21.1792,-20.1416,147,0.7474,0.3162,-11.4994,-47.6224,32,0.8754,9213,4.0216,93.5084
rg,1625188721440096320,1,-0.0032,0.1179,0.1409,403,154.1138,4.8218,-6.2866,147,0.7514,0.3272,-11.754,-40.4048,32,0.8754,9036,4.0216,94.1937
rg,1625188721440115820,1,0.0913,0.1628,0.115,404,75.4395,-57.251,33.1421,147,0.7534,0.3432,-13.6724,-35.835,32,0.8784,8421,4.0216,96.2377
rg,1625188721440135246,1,0.322,-0.043,0.1599,405,-100.4639,-99.9146,54.9316,147,0.7544,0.3672,-17.1649,-40.6314,32,0.8804,8550,4.0216,100.5726
rg,1625188721440152876,1,1.0723,-1.0344,1.5776,406,-249.5117,-36.1328,48.0957,147,0.7564,0.3892,-17.2857,-51.0462,32,0.8874,8379,4.0216,103.0161
rg,1625188721440174005,1,0.5518,-1.7827,0.6257,407,-141.0522,86.5479,26.5503,147,0.7614,0.4142,-14.3903,-56.7961,32,0.8954,8723,4.0216,100.9768
rg,1625188721440226042,1,0.1692,-1.6453,0.9297,408,-17.8833,117.5537,-15.0757,147,0.7744,0.4312,-11.9662,-56.6476,32,0.9014,8799,4.0216,96.6317
rg,1625188721440249339,1,-0.03,-0.9397,0.8035,409,37.1094,122.0703,-6.3477,147,0.7904,0.4462,-9.2282,-52.5696,32,0.9084,9206,4.0216,93.5703
rg,1625188721440267913,1,-0.0471,-0.687,0.5681,410,101.3184,49.3774,4.3335,147,0.8084,0.4582,-7.3617,-48.2258,32,0.9144,8591,4.0216,92.1455
rg,1625188721440285913,1,0.0986,-0.5466,0.3799,411,56.4575,-41.3208,7.3242,147,0.8284,0.4742,-8.3029,-46.4316,32,0.9174,8898,4.0216,93.6079
rg,1625188721440303672,1,0.2256,-0.7473,0.3647,412,4.7607,-60.73,7.6294,147,0.8464,0.4932,-10.016,-47.2205,32,0.9194,8619,4.0216,95.7144
rg,1625188721440322228,1,0.304,-0.9363,0.3958,413,-10.1929,-60.2417,6.7139,147,0.8484,0.5062,-11.6997,-48.7491,32,0.9204,8502,4.0216,97.8572
rg,1625188721440340765,1,0.4285,-0.9534,0.5776,414,-52.1851,-60.73,12.9395,147,0.8234,0.5173,-13.2155,-51.6867,32,0.9104,8360,4.0216,100.1945
rg,1625188721440359505,1,0.395,-0.896,0.4697,415,-72.3877,-60.3638,13.9771,147,0.7834,0.5213,-14.4912,-55.8218,32,0.8934,8505,4.0216,102.6254
rg,1625188721440377487,1,0.3911,-0.9529,0.4548,416,-72.998,-54.2603,21.3013,147,0.7554,0.4702,-15.1514,-59.6638,32,0.8794,8410,4.0216,105.0829
rg,1625188721702182227,1,0.5796,-1.1289,0.3257,417,76.8433,1.8311,46.875,147,0.7464,0.3452,-13.9862,-57.2166,32,0.8804,28476,4.0216,106.1166
rg,1625188721702213135,1,0.3149,-0.8276,0.3442,418,106.6284,36.6821,-19.7144,147,0.7464,0.3222,-14.0187,-52.9248,32,0.8764,8708,4.0216,104.4946
rg,1625188721702233746,1,-0.0244,-0.436,0.3364,419,135.9863,69.0918,-29.8462,147,0.7464,0.3152,-12.5126,-46.7943,32,0.8734,8613,4.0216,101.5634
rg,1625188721702253005,1,-0.1282,-0.1282,0.2075,420,108.5205,47.4243,1.3428,147,0.7484,0.3182,-9.6702,-41.6856,32,0.8704,8694,4.0216,100.2035
rg,1625188721702271339,1,-0.0879,-0.0627,0.1763,421,79.834,12.6953,15.3198,147,0.7514,0.3322,-9.3466,-39.7155,32,0.8734,7987,4.0216,101.3864
rg,1625188721702288950,1,0.0728,-0.1177,0.3037,422,-40.8325,-56.8237,25.4517,147,0.7534,0.3442,-10.5567,-41.0152,32,0.8754,8257,4.0216,103.5535
rg,1625188721702306339,1,0.4248,-0.699,0.9907,423,-145.874,-73.1201,27.9541,147,0.7544,0.3662,-12.2119,-47.1747,32,0.8804,8066,4.0216,106.4236
rg,1625188721702323653,1,0.4993,-1.3552,0.8604,424,-116.0889,-29.9683,26.9165,147,0.7584,0.3842,-12.3582,-52.5476,32,0.8874,8343,4.0216,108.1626
rg,1625188721702340283,1,0.4722,-1.4963,0.7822,425,-78.0029,-11.2305,15.9912,147,0.7684,0.4042,-12.2297,-56.1936,32,0.8924,8278,4.0216,109.0006
rg,1625188721702356950,1,0.3035,-1.2905,0.8877,426,-3.418,25.2075,-2.5024,147,0.7814,0.4222,-11.7028,-56.099,32,0.9024,8357,4.0216,108.0775
rg,1625188721702373690,1,0.1484,-0.7546,0.5259,427,53.772,-5.249,-3.7231,147,0.8004,0.4442,-11.8411,-53.9192,32,0.9124,12288,4.0216,108.1583
rg,1625188721702390357,1,0.1902,-0.6912,0.45,428,49.6216,-24.5361,0.2441,147,0.8144,0.4592,-12.4623,-52.2153,32,0.9174,8058,4.0216,108.9897
rg,1625188721702406690,1,0.2734,-0.7065,0.3457,429,18.8599,-45.2271,2.3193,147,0.8224,0.4712,-13.7608,-52.2444,32,0.9215,8022,4.0216,110.6133
rg,1625188721702423042,1,0.3347,-0.8628,0.4421,430,-31.7383,-36.7432,9.2773,147,0.8164,0.4842,-14.5497,-54.2618,32,0.9204,9569,4.0216,112.1568
rg,1625188721702439764,1,0.4736,-0.9976,0.5605,431,-89.8438,-67.3218,10.8643,147,0.7884,0.4922,-15.9717,-58.7593,32,0.9084,8167,4.0216,114.8054
rg,1625188721702456079,1,0.4419,-1.0527,0.5007,432,-91.6138,-73.5474,2.3193,147,0.7634,0.4462,-17.3907,-63.5236,32,0.8904,8809,4.0216,117.6372
rg,1625188721702472524,1,0.4792,-1.0364,0.6663,433,-30.7617,-44.8608,20.4468,147,0.7624,0.3992,-17.5793,-65.1188,32,0.8954,8830,4.0216,119.6295
rg,1625188721702509246,1,0.5942,-1.1067,0.3525,434,69.8242,-19.3481,69.7021,147,0.7584,0.3812,-15.7882,-63.1539,32,0.8924,8154,4.0216,121.6871
rg,1625188721702528616,1,0.6843,-0.9873,0.2659,435,78.6133,-18.6768,20.752,147,0.7564,0.3572,-16.1164,-60.6991,32,0.8934,8309,4.0216,122.8659
rg,1625188721702546487,1,0.4353,-0.8013,0.2375,436,102.9053,17.5781,-22.3389,147,0.7554,0.3532,-16.9791,-56.7226,32,0.8904,8125,4.0216,121.8649
rg,1625188721702564227,1,0.0596,-0.2585,0.1055,437,136.2305,47.6074,-39.4897,147,0.7554,0.3562,-16.9567,-50.9707,32,0.8884,8311,4.0216,119.4233
rg,1625188721702582005,1,0.0159,0.0544,0.1138,438,101.2573,36.9263,-2.3193,147,0.7584,0.3682,-16.1188,-44.3014,32,0.8884,8235,4.0216,117.54
rg,1625188721702610913,1,0.1465,-0.0044,0.1582,439,-47.6074,15.0146,41.8091,147,0.7594,0.3862,-15.6601,-45.2382,32,0.8884,12243,4.0216,118.0066
rg,1625188721702631042,1,0.5645,-0.8479,1.3867,440,-216.1255,1.4038,41.0156,147,0.7614,0.3992,-14.545,-53.5918,32,0.8914,8251,4.0216,118.9267
rg,1625188721702648339,1,0.2654,-1.6484,0.6423,441,-204.7729,24.6582,31.4941,147,0.7654,0.4142,-13.1595,-59.7031,32,0.8964,8451,4.0216,118.7475
rg,1625188721702665653,1,0.1951,-1.7158,0.6313,442,-76.5991,11.0474,-0.6104,147,0.7724,0.4232,-12.6944,-63.0613,32,0.8984,8321,4.0216,118.4197
rg,1625188721702683190,1,0.0486,-1.1418,0.8174,443,28.4424,19.8975,-14.2822,147,0.7794,0.4382,-12.4113,-61.3459,32,0.9044,8468,4.0216,117.3529
rg,1625188721702700302,1,0.1165,-0.6719,0.6504,444,61.9507,-32.4097,-7.2021,147,0.7964,0.4532,-13.106,-58.4667,32,0.9104,8380,4.0216,118.227
rg,1625188721702717135,1,0.3147,-0.6936,0.4873,445,46.5088,-64.209,-2.9297,147,0.8114,0.4632,-15.1904,-57.962,32,0.9154,8496,4.0216,121.4458
rg,1625188721702733616,1,0.4126,-0.832,0.4009,446,21.4844,-95.2148,10.7422,147,0.8324,0.4782,-17.1689,-58.3351,32,0.9194,8342,4.0216,125.1143
rg,1625188721702750135,1,0.563,-0.9661,0.2229,447,28.8086,-74.8901,10.376,147,0.8514,0.4972,-18.88,-58.7425,32,0.9194,8566,4.0216,128.2278
rg,1625188721702767024,1,0.4966,-0.802,0.1936,448,41.3818,-7.9346,-3.1128,147,0.8604,0.5112,-19.6561,-57.7743,32,0.9204,8511,4.0216,128.6394
rg,1625188722055424931,1,0.3208,-0.9067,0.5295,449,-75.0732,-0.4883,34.729,147,0.7654,0.5303,-18.3626,-61.0836,32,0.8844,28863,4.0216,129.4193
rg,1625188722055460227,1,0.5654,-1.2209,0.5234,450,-25.0244,-4.6387,64.6362,147,0.7434,0.4422,-16.3577,-62.7207,32,0.8714,13630,4.0216,130.9265
rg,1625188722055501079,1,0.6394,-1.2,0.7141,451,-1.6479,14.1602,68.9697,147,0.7474,0.3922,-13.9766,-62.8486,32,0.8774,7800,4.0216,131.6618
rg,1625188722055522449,1,0.3818,-1.0581,0.4858,452,113.7695,54.0771,51.2085,147,0.7464,0.3692,-11.3079,-58.1918,32,0.8764,7892,4.0216,130.7697
rg,1625188722055541635,1,0.3328,-0.8208,0.4585,453,116.1499,24.7803,12.3901,147,0.7464,0.3452,-10.6682,-53.5359,32,0.8754,7760,4.0216,130.2176
rg,1625188722055559783,1,0.106,-0.6917,0.4136,454,119.3848,41.4429,-19.104,147,0.7454,0.3212,-9.6607,-47.9808,32,0.8734,9235,4.0216,127.9082
rg,1625188722055577024,1,-0.1855,-0.3594,0.3728,455,130.188,48.8892,-18.2495,147,0.7464,0.3172,-7.6947,-42.3456,32,0.8714,7838,4.0216,126.0161
rg,1625188722055595116,1,-0.2009,-0.092,0.2532,456,100.8911,-7.6294,16.7847,147,0.7494,0.3202,-5.9251,-37.7115,32,0.8714,7946,4.0216,126.7032
rg,1625188722055612486,1,0.0537,-0.0032,0.2502,457,4.0283,-111.2061,35.4614,147,0.7524,0.3372,-8.881,-36.6934,32,0.8734,7812,4.0216,130.4135
rg,1625188722055630190,1,0.2129,-0.105,0.3914,458,-67.0776,-145.2637,37.9028,147,0.7544,0.3562,-13.2468,-39.5429,32,0.8764,7885,4.0216,135.1839
rg,1625188722055647746,1,0.6931,-0.8132,1.0735,459,-178.772,-123.7793,36.377,147,0.7574,0.3732,-16.3458,-47.7651,32,0.8824,8400,4.0216,139.8195
rg,1625188722055665820,1,0.6831,-1.4717,0.7024,460,-135.376,-27.832,24.1699,147,0.7624,0.3912,-16.5528,-54.2151,32,0.8914,8567,4.0216,141.5444
rg,1625188722055683598,1,0.5818,-1.5588,0.6865,461,-97.4731,8.1787,2.5024,147,0.7714,0.4072,-16.3862,-58.4962,32,0.8984,7887,4.0216,141.4515
rg,1625188722055700690,1,0.2517,-1.249,0.8826,462,-23.5596,67.8711,-18.0054,147,0.7794,0.4232,-15.313,-58.5058,32,0.9034,8050,4.0216,138.6052
rg,1625188722055718209,1,0.0686,-0.8838,0.626,463,27.4048,36.3159,-6.7749,147,0.7914,0.4372,-14.3093,-56.8803,32,0.9104,7908,4.0216,137.1465
rg,1625188722055738264,1,0.0566,-0.7854,0.5081,464,30.6396,3.0518,-4.7607,147,0.8064,0.4532,-13.9699,-55.602,32,0.9154,8114,4.0216,136.9381
rg,1625188722055755616,1,0.2456,-0.7402,0.3735,465,22.1558,-54.8096,3.9673,147,0.8194,0.4662,-15.1715,-55.4972,32,0.9194,7938,4.0216,138.9714
rg,1625188722055773746,1,0.415,-0.8088,0.301,466,0.061,-61.0962,4.6387,147,0.8234,0.4782,-16.7968,-56.6135,32,0.9225,8533,4.0216,141.3284
rg,1625188722055792246,1,0.5508,-0.9373,0.4436,467,-32.8369,-35.6445,8.667,147,0.8204,0.4882,-17.702,-58.6408,32,0.9194,8002,4.0216,142.8744
rg,1625188722055809968,1,0.5825,-0.9712,0.5042,468,-53.2837,-24.0479,12.0239,147,0.7974,0.4942,-18.0888,-61.2935,32,0.9084,8005,4.0216,144.0638
rg,1625188722055827820,1,0.4431,-0.9592,0.4329,469,-53.9551,4.0894,10.9863,147,0.7724,0.4812,-17.8102,-63.6238,32,0.8944,8148,4.0216,144.1755
rg,1625188722055845320,1,0.4236,-0.981,0.4805,470,-11.5356,23.6816,29.9683,147,0.7604,0.4282,-16.4536,-63.982,32,0.8884,8075,4.0216,143.8338
rg,1625188722055862931,1,0.4932,-0.9629,0.6558,471,14.7095,22.522,37.7808,147,0.7574,0.4092,-14.8521,-61.6351,32,0.8894,8206,4.0216,143.4476
rg,1625188722055928986,1,0.4199,-0.9656,0.4351,472,71.167,15.7471,34.4238,147,0.7534,0.3912,-13.6165,-58.9692,32,0.8864,8082,4.0216,143.6118
rg,1625188722055949579,1,0.2712,-0.8723,0.4624,473,77.2095,20.9961,1.5259,147,0.7524,0.3772,-13.1842,-55.8343,32,0.8844,8261,4.0216,142.9404
rg,1625188722055968061,1,0,-0.4602,0.2239,474,98.3276,35.2173,-11.1084,147,0.7524,0.3682,-12.2639,-51.1292,32,0.8814,8155,4.0216,141.4491
rg,1625188722055986412,1,-0.0459,-0.2446,0.1841,475,122.0703,30.3345,-11.4136,147,0.7534,0.3762,-11.0042,-46.0829,32,0.8794,8414,4.0216,140.2637
rg,1625188722056004209,1,0.0095,-0.0015,0.2769,476,52.7344,-17.7612,12.8174,147,0.7564,0.3922,-10.9161,-42.4825,32,0.8794,8207,4.0216,140.8303
rg,1625188722056036227,1,0.2725,-0.2957,0.5823,477,-75.5005,-81.1768,29.541,147,0.7584,0.4092,-12.8929,-45.5676,32,0.8824,8381,4.0216,143.9076
rg,1625188722056055135,1,0.4744,-0.6672,0.8989,478,-126.3428,-92.2241,35.6445,147,0.7604,0.4232,-14.6299,-51.5104,32,0.8864,8214,4.0216,147.7422
rg,1625188722056073394,1,0.6614,-1.4199,0.9519,479,-116.0889,-54.5654,32.3486,147,0.7674,0.4382,-15.101,-56.982,32,0.8924,8391,4.0216,150.4097
rg,1625188722056091079,1,0.5173,-1.5039,0.7842,480,-23.7427,5.5542,8.0566,121,0.7824,0.4512,-14.7839,-58.1283,32,0.9004,8303,4.0348,150.4469
rg,1625188722416629357,1,0.1531,-0.5579,0.283,481,65.6738,-2.4414,2.8687,121,0.8244,0.4992,-14.731,-56.7493,32,0.9144,29294,4.0348,150.9222
rg,1625188722416679931,1,0.261,-0.7756,0.5781,482,-110.8398,-70.9839,20.2637,121,0.7814,0.5092,-15.4873,-61.7945,32,0.8984,12773,4.0348,153.8418
rg,1625188722416701634,1,0.3547,-0.9658,0.5347,483,-113.2202,-106.7505,23.8037,121,0.7564,0.4862,-16.5271,-67.4968,32,0.8814,8546,4.0348,158.2718
rg,1625188722416721912,1,0.5022,-1.0737,0.5408,484,-75.9277,-106.0791,45.5933,121,0.7554,0.4312,-16.8018,-71.4579,32,0.8844,7845,4.0348,162.9694
rg,1625188722416740968,1,0.8989,-1.2729,0.7166,485,19.104,-53.4058,83.374,121,0.7534,0.4152,-14.9132,-71.1815,32,0.8864,7835,4.0348,166.057
rg,1625188722416760097,1,0.9907,-1.2478,0.3828,486,70.1904,1.4038,67.8711,121,0.7534,0.3962,-13.2097,-68.6375,32,0.8874,7957,4.0348,166.9441
rg,1625188722416780431,1,0.7356,-1.1182,0.335,487,92.1631,60.6079,27.71,121,0.7554,0.3702,-11.6573,-64.4135,32,0.8864,8367,4.0348,165.0629
rg,1625188722416832227,1,0.1885,-0.7852,0.49,488,112.2437,138.4277,-18.5547,121,0.7534,0.3592,-9.6889,-58.6839,32,0.8844,8627,4.0348,159.6976
rg,1625188722416854968,1,-0.2981,-0.4937,0.3105,489,135.1929,136.7798,-24.1699,121,0.7554,0.3522,-6.0671,-52.5609,32,0.8844,7892,4.0348,154.6631
rg,1625188722416875523,1,-0.384,-0.3567,0.2571,490,135.8032,88.623,-13.855,121,0.7574,0.3532,-3.531,-47.3169,32,0.8844,7958,4.0348,154.1641
rg,1625188722416894746,1,-0.2285,-0.0483,0.1831,491,93.1396,-46.5698,18.0054,121,0.7594,0.3712,-2.5095,-42.9168,32,0.8854,7945,4.0348,156.0211
rg,1625188722416913579,1,0.0779,-0.0278,0.2336,492,-28.6865,-143.3716,36.6821,121,0.7624,0.3842,-6.311,-43.1651,32,0.8864,7944,4.0348,160.9675
rg,1625188722416931653,1,0.2678,-0.1873,0.4539,493,-115.1733,-166.3818,41.2598,121,0.7654,0.4012,-10.2017,-50.7972,32,0.8894,7929,4.0348,166.784
rg,1625188722416951468,1,0.7322,-1.0479,1.2092,494,-191.9556,-110.2295,37.5977,121,0.7644,0.4142,-12.0583,-58.9626,32,0.8924,7980,4.0348,171.3071
rg,1625188722417002709,1,0.5569,-1.5674,0.5605,495,-107.0557,-10.6201,19.4092,121,0.7704,0.4282,-11.8355,-63.811,32,0.8984,7898,4.0348,-187.8345
rg,1625188722417028505,1,0.4387,-1.519,0.7021,496,-68.1763,26.6724,-6.2256,121,0.7814,0.4402,-11.5419,-64.1341,32,0.9044,8010,4.0348,169.5533
rg,1625188722417047227,1,0.1357,-1.0872,0.8503,497,9.7656,66.4673,-19.6533,121,0.7904,0.4522,-10.838,-62.7033,32,0.9094,7955,4.0348,166.6725
rg,1625188722417065542,1,0.0383,-0.7844,0.575,498,40.7104,17.5171,-5.3711,121,0.8044,0.4622,-10.3605,-60.5714,32,0.9154,8040,4.0348,165.8779
rg,1625188722417084764,1,0.1353,-0.7542,0.5344,499,35.4614,-21.1792,-0.6714,121,0.8234,0.4732,-11.0807,-59.2548,32,0.9194,7958,4.0348,166.6009
rg,1625188722417102746,1,0.4006,-0.7986,0.3098,500,37.2925,-76.8433,10.0708,121,0.8464,0.4902,-12.8587,-58.7047,32,0.9215,8044,4.0348,169.5697
rg,1625188722417120209,1,0.5208,-0.7817,0.1243,501,42.7246,-49.3164,1.2817,121,0.8684,0.5082,-14.6631,-58.1462,31,0.9245,8026,4.0348,171.4875
rg,1625188722417137764,1,0.5425,-0.7288,0.1411,502,41.1987,-7.7515,2.6855,121,0.8804,0.5183,-14.7382,-57.1124,31,0.9245,8160,4.0348,170.685
rg,1625188722417158468,1,0.5073,-0.6702,0.3459,503,2.2583,53.772,10.0708,121,0.8604,0.5293,-13.5774,-58.1083,31,0.9194,8421,4.0348,169.1098
rg,1625188722417177764,1,0.4421,-0.8069,0.5884,504,-67.4438,39.1846,21.6675,121,0.8164,0.5353,-12.4457,-60.4235,31,0.9054,8180,4.0348,168.1443
rg,1625188722417195949,1,0.4595,-1.0027,0.5066,505,-80.3223,5.3711,37.1704,121,0.7754,0.5343,-11.4184,-63.8301,32,0.8954,8055,4.0348,168.6863
rg,1625188722417214968,1,0.5835,-1.2058,0.5154,506,-65.918,1.1597,44.9219,121,0.7454,0.4592,-9.9733,-65.6479,32,0.8794,8326,4.0348,169.3725
rg,1625188722417233505,1,0.6533,-1.1526,1.074,507,35.2783,56.3354,55.4199,121,0.7474,0.4142,-7.5254,-63.3788,32,0.8824,8968,4.0348,168.1382
rg,1625188722417251949,1,0.3738,-1.1216,0.5771,508,123.7183,44.8608,55.4199,121,0.7464,0.3822,-5.0814,-58.3485,32,0.8784,8291,4.0348,167.6178
rg,1625188722417270116,1,0.0911,-0.8894,0.4631,509,123.7183,23.8037,27.0996,121,0.7464,0.3552,-4.9892,-52.9292,32,0.8754,8116,4.0348,166.6996
rg,1625188722417287709,1,-0.0872,-0.6785,0.428,510,161.8042,22.2168,-32.0435,121,0.7454,0.3532,-4.9564,-46.5271,32,0.8724,8308,4.0348,165.2323
rg,1625188722417307060,1,-0.2605,-0.2202,0.3457,511,176.6968,19.4702,-7.4463,121,0.7474,0.3532,-3.2215,-38.9687,32,0.8704,8131,4.0348,164.5372
rg,1625188722417325912,1,-0.1426,0.0962,0.2778,512,121.3989,-57.373,29.2358,121,0.7514,0.3572,-3.3399,-32.5268,32,0.8714,9528,4.0348,166.7922
rg,1625188722776196968,1,0.7515,-0.8606,1.3198,513,-226.8066,-138.916,43.2129,121,0.7634,0.4122,-7.5322,-42.0354,32,0.8874,28125,4.0348,-188.3889
rg,1625188722776239153,1,0.5615,-1.7358,0.7937,514,-153.1372,-35.3394,24.8413,121,0.7744,0.4322,-8.3595,-47.1127,32,0.8964,8556,4.0348,-187.9323
rg,1625188722776260190,1,0.3884,-1.6086,0.9812,515,-56.8848,22.583,-26.7334,121,0.7864,0.4452,-8.6945,-49.6124,32,0.9034,7712,4.0348,170.7342
rg,1625188722776279856,1,0.1562,-1.0498,0.7778,516,39.3677,38.6353,-15.564,121,0.8024,0.4622,-8.0753,-47.9507,32,0.9114,7862,4.0348,169.1661
rg,1625188722776299264,1,0.1445,-0.8242,0.5527,517,64.6973,13.0005,-6.5308,121,0.8224,0.4742,-8.1996,-45.7786,32,0.9164,7901,4.0348,168.6651
rg,1625188722776318171,1,0.2888,-0.6021,0.2866,518,48.7671,-37.2314,0.7324,121,0.8484,0.4912,-9.8319,-44.6715,32,0.9215,7854,4.0348,169.8475
rg,1625188722776339060,1,0.3965,-0.6206,0.2002,519,14.0991,-30.1514,-0.7935,121,0.8694,0.5052,-11.5673,-45.1671,32,0.9245,7858,4.0348,170.8503
rg,1625188722776357412,1,0.4893,-0.7766,0.2871,520,-20.3857,23.2544,13.2446,121,0.8764,0.5273,-11.3133,-46.7405,32,0.9245,11022,4.0348,170.7159
rg,1625188722776377227,1,0.4458,-0.9124,0.4641,521,-74.0967,29.6631,12.146,121,0.8474,0.5343,-10.6593,-50.1745,32,0.9184,7711,4.0348,170.2663
rg,1625188722776394542,1,0.4036,-0.9683,0.5476,522,-93.9331,23.2544,12.9395,121,0.8034,0.5383,-10.0524,-54.2259,32,0.9044,7904,4.0348,169.9219
rg,1625188722776414171,1,0.3936,-1.052,0.46,523,-88.0737,-6.2866,26.9775,121,0.7664,0.5303,-9.6479,-58.3306,32,0.8954,7779,4.0348,170.8302
rg,1625188722776496042,1,0.4526,-1.0991,0.3962,524,-59.2041,-11.6577,33.6914,121,0.7454,0.4732,-8.7713,-60.0523,32,0.8824,7969,4.0348,-188.1016
rg,1625188722776539542,1,0.5325,-1.0496,0.6763,525,-8.3008,6.6528,51.3306,121,0.7464,0.4232,-7.422,-60.3785,32,0.8834,7863,4.0348,-187.3286
rg,1625188722776562449,1,0.3252,-1.0537,0.53,526,91.2476,28.6255,49.2554,121,0.7444,0.4012,-5.4671,-56.8394,32,0.8814,7982,4.0348,-187.284
rg,1625188722776582023,1,0.4209,-1.0686,0.5854,527,94.9097,-16.4795,45.8374,121,0.7454,0.3772,-5.668,-53.2155,32,0.8784,7865,4.0348,-186.0539
rg,1625188722776609393,1,0.2109,-0.9507,0.5308,528,115.9058,-9.5215,1.5259,121,0.7454,0.3602,-5.8984,-47.8084,32,0.8734,7998,4.0348,-186.2161
rg,1625188722776632690,1,-0.0771,-0.3379,0.3208,529,154.9072,2.9907,0.9766,121,0.7464,0.3582,-5.1878,-41.5678,32,0.8724,7863,4.0348,-186.2449
rg,1625188722776651764,1,-0.0925,-0.1646,0.2827,530,135.1929,-15.0146,8.667,121,0.7494,0.3622,-4.7988,-35.1553,32,0.8734,8634,4.0348,-185.6596
rg,1625188722776671856,1,-0.0007,-0.009,0.2744,531,62.5,-95.3979,18.2495,121,0.7514,0.3752,-7.3964,-31.6938,32,0.8744,7889,4.0348,-183.0311
rg,1625188722776691282,1,0.2629,-0.1882,0.4873,532,-53.5278,-153.1372,31.9214,121,0.7544,0.3932,-12.568,-34.2223,31,0.8784,8040,4.0348,-178.5923
rg,1625188722776710393,1,0.4858,-0.4438,0.7524,533,-111.3892,-150.7568,38.208,121,0.7564,0.4072,-16.1227,-41.0494,31,0.8834,7878,4.0348,-174.1802
rg,1625188722776728597,1,0.7605,-1.1104,0.9839,534,-135.3149,-82.3975,33.0811,121,0.7614,0.4222,-17.9657,-47.7079,31,0.8904,8246,4.0348,-170.6819
rg,1625188722776747449,1,0.6147,-1.3938,0.7632,535,-80.3223,-6.2866,3.1738,121,0.7724,0.4382,-18.1656,-51.5149,31,0.8994,7988,4.0348,-170.2302
rg,1625188722776765634,1,0.3232,-1.1768,0.8774,536,-23.2544,48.645,-17.334,121,0.7864,0.4522,-17.2807,-51.8761,32,0.9074,8365,4.0348,-172.2682
rg,1625188722776783190,1,0.2004,-1.0061,0.7646,537,5.7983,51.5137,-14.7705,121,0.7994,0.4682,-16.1382,-51.0739,32,0.9134,8092,4.0348,-174.3279
rg,1625188722776800468,1,0.136,-0.7668,0.4915,538,31.5552,2.8687,-7.8125,121,0.8164,0.4822,-16.0052,-49.976,32,0.9184,8283,4.0348,-174.5544
rg,1625188722776818042,1,0.2856,-0.6587,0.3171,539,22.7661,-39.3677,-0.9766,121,0.8404,0.4962,-17.2661,-49.9545,32,0.9235,8096,4.0348,-173.1714
rg,1625188722776837079,1,0.3689,-0.679,0.2544,540,0.8545,-25.6348,-0.8545,121,0.8574,0.5133,-18.3519,-50.8669,32,0.9265,8855,4.0348,-172.1508
rg,1625188722776854486,1,0.3799,-0.6921,0.2686,541,-11.0474,-8.667,1.77,121,0.8644,0.5273,-18.8802,-52.0604,32,0.9275,8154,4.0348,-171.6097
rg,1625188722776871986,1,0.3528,-0.7839,0.3645,542,-36.1328,14.0991,11.9629,121,0.8524,0.5373,-18.3038,-53.936,32,0.9255,8108,4.0348,-171.6222
rg,1625188722776889745,1,0.4453,-0.9155,0.5681,543,-89.4775,-13.9771,25.0854,121,0.8114,0.5393,-17.9446,-57.9949,32,0.9154,8343,4.0348,-170.4923
rg,1625188722776909912,1,0.4851,-0.9556,0.4932,544,-108.0322,-38.9404,27.2827,121,0.7694,0.5323,-18.0617,-63.268,31,0.9034,8182,4.0348,-168.3838
rg,1625188723130771412,1,0.4065,-1.0398,0.595,545,7.5684,71.106,45.8984,121,0.7434,0.4052,-15.1117,-60.9562,32,0.8804,28216,4.0348,-170.6479
rg,1625188723130817134,1,0.3025,-1.1375,0.6541,546,61.4624,29.9072,12.5122,121,0.7434,0.3882,-14.4203,-57.3991,32,0.8774,11891,4.0348,-171.8144
rg,1625188723130838708,1,0.0242,-0.9685,0.5078,547,110.7178,29.7852,-16.0522,121,0.7444,0.3842,-13.7548,-52.8371,32,0.8744,9284,4.0348,-173.1304
rg,1625188723130859041,1,-0.1406,-0.51,0.342,548,137.8784,20.0806,-18.4937,121,0.7464,0.3862,-12.793,-47.2128,32,0.8744,7836,4.0348,-174.1669
rg,1625188723130878523,1,-0.136,-0.1055,0.2322,549,128.418,-37.6587,-11.4746,121,0.7484,0.3972,-12.7259,-41.4706,32,0.8754,7740,4.0348,-173.522
rg,1625188723130909838,1,-0.0156,0.0137,0.1755,550,57.7393,-121.7651,10.7422,121,0.7524,0.4182,-15.6106,-38.3617,32,0.8794,10443,4.0348,-170.3112
rg,1625188723130932227,1,0.1165,-0.0669,0.2158,551,-2.8076,-163.0249,26.9165,121,0.7554,0.4342,-20.4783,-39.3079,32,0.8854,7735,4.0348,-165.3305
rg,1625188723130951134,1,0.8374,-0.7903,1.2068,552,-142.1509,-184.3872,47.8516,121,0.7604,0.4492,-24.8741,-47.4554,32,0.8924,7836,4.0348,-158.3917
rg,1625188723130969708,1,0.9341,-1.6562,0.8743,553,-144.7144,-131.5918,46.2036,121,0.7754,0.4632,-25.737,-53.281,32,0.9024,7821,4.0348,-154.5126
rg,1625188723130987708,1,0.8525,-1.7234,0.6184,554,-25.5127,-39.4287,17.7002,121,0.7924,0.4732,-26.0656,-55.7802,32,0.9104,7959,4.0348,-152.3388
rg,1625188723131005819,1,0.572,-1.1536,0.6282,555,78.0029,54.8096,-20.4468,121,0.8134,0.4902,-25.3412,-51.7973,32,0.9154,9009,4.0348,-154.7424
rg,1625188723131024393,1,0.231,-0.5688,0.4482,556,116.4551,100.4639,-23.9258,121,0.8354,0.5062,-23.1171,-45.5023,32,0.9184,8361,4.0348,-158.7342
rg,1625188723131044375,1,-0.0293,-0.3765,0.3479,557,52.7954,89.4775,-14.0991,121,0.8454,0.5263,-19.9355,-42.3308,32,0.9215,9966,4.0348,-161.7871
rg,1625188723131062560,1,-0.124,-0.4302,0.3669,558,1.4038,54.9927,-10.437,121,0.8354,0.5363,-17.2598,-42.0104,32,0.9194,7848,4.0348,-163.553
rg,1625188723131108060,1,-0.1514,-0.6772,0.5635,559,-119.9951,-72.3877,-4.3335,121,0.7964,0.5423,-18.3891,-47.7226,32,0.9054,8029,4.0348,-161.4866
rg,1625188723131131115,1,0.1367,-0.8752,0.583,560,-159.8511,-197.6318,3.7842,121,0.7674,0.5383,-22.6323,-56.8143,32,0.8954,7848,4.0348,-154.6434
rg,1625188723131150541,1,0.3315,-0.9363,0.5444,561,-126.5869,-229.3091,12.3901,121,0.7524,0.5082,-26.3343,-65.748,32,0.8854,8045,4.0348,-145.5274
rg,1625188723131171134,1,0.9087,-1.0361,0.5874,562,-50.293,-218.5669,51.5747,121,0.7564,0.4682,-27.9503,-72.1379,32,0.8904,7876,4.0348,-135.5961
rg,1625188723131191301,1,1.2329,-1.1689,0.3455,563,21.6064,-109.6191,62.0117,121,0.7554,0.4512,-27.5148,-73.894,32,0.8914,8331,4.0348,-130.0184
rg,1625188723131209745,1,1.269,-1.1023,0.2976,564,38.9404,-60.73,43.5181,121,0.7554,0.4352,-27.25,-73.8727,32,0.8894,8001,4.0348,-126.8171
rg,1625188723131229430,1,0.8044,-0.8596,0.2705,565,66.5894,86.1206,-18.5547,121,0.7544,0.4292,-27.4434,-69.3233,32,0.8874,8264,4.0348,-130.8185
rg,1625188723131247653,1,0.3025,-0.7144,0.3828,566,63.9648,155.4565,-35.1562,121,0.7554,0.4242,-25.9808,-63.2916,32,0.8864,7997,4.0348,-137.9622
rg,1625188723131267949,1,0.0745,-0.7058,0.3831,567,63.9038,162.5366,-31.5552,121,0.7554,0.4172,-22.6628,-58.0311,32,0.8844,8316,4.0348,-143.7906
rg,1625188723131287004,1,-0.1902,-0.6897,0.3542,568,76.7822,97.9614,-7.1411,121,0.7564,0.4132,-19.38,-53.8597,32,0.8834,8051,4.0348,-147.3163
rg,1625188723131304523,1,-0.1487,-0.5552,0.3589,569,74.4629,-26.001,2.8687,121,0.7584,0.4092,-18.7108,-51.3297,32,0.8804,8216,4.0348,-146.2947
rg,1625188723131322615,1,0.1426,-0.5459,0.4551,570,60.73,-83.4351,6.897,121,0.7614,0.4072,-21.0419,-50.9977,32,0.8814,8082,4.0348,-141.9472
rg,1625188723131341041,1,0.2998,-0.6182,0.4919,571,28.7476,-140.9912,16.6626,121,0.7614,0.4052,-23.9959,-51.8608,32,0.8804,8273,4.0348,-136.7143
rg,1625188723131359653,1,0.5393,-0.8108,0.4985,572,17.8223,-130.9204,10.0098,121,0.7644,0.4052,-27.0449,-53.4962,32,0.8804,8127,4.0348,-131.7212
rg,1625188723131376430,1,0.5901,-0.822,0.4666,573,29.6021,-72.6318,-4.1504,121,0.7664,0.4042,-29.0814,-53.7623,32,0.8794,8381,4.0348,-129.059
rg,1625188723131416115,1,0.532,-0.7466,0.4563,574,32.7759,-44.6167,-10.8643,121,0.7674,0.4052,-30.5662,-53.3038,32,0.8794,8169,4.0348,-127.6116
rg,1625188723131440245,1,0.3772,-0.6809,0.4819,575,23.1934,-20.0806,-26.4282,121,0.7684,0.4042,-31.6347,-52.4259,32,0.8784,9078,4.0348,-127.5784
rg,1625188723131458023,1,0.2837,-0.7327,0.5073,576,10.2539,-20.813,-28.9917,121,0.7704,0.4052,-32.5012,-52.0999,32,0.8784,8268,4.0348,-127.5705
rg,1625188723507987782,1,0.4102,-0.8083,0.5039,577,21.7285,-55.3589,-30.1514,121,0.7774,0.4112,-34.5059,-51.8658,31,0.8814,28235,4.0348,-126.2748
rg,1625188723508119541,1,0.5227,-0.6975,0.3984,578,37.1094,-39.1846,-26.7944,121,0.7794,0.4122,-36.2559,-51.1104,31,0.8834,8608,4.0348,-125.3937
rg,1625188723508152152,1,0.5352,-0.623,0.3464,579,39.7339,-24.9023,-25.7568,121,0.7814,0.4132,-37.2224,-49.7785,31,0.8834,7712,4.0348,-125.5099
rg,1625188723508182893,1,0.5352,-0.6033,0.3457,580,35.4004,8.3008,-20.5688,121,0.7824,0.4142,-37.6509,-48.1552,31,0.8844,7977,4.0348,-126.265
rg,1625188723508212226,1,0.5044,-0.6123,0.345,581,31.189,34.2407,-19.8364,121,0.7844,0.4142,-37.2511,-46.2143,32,0.8854,7726,4.0348,-127.9133
rg,1625188723508241541,1,0.4739,-0.6643,0.4172,582,30.7007,45.9595,-23.0713,121,0.7864,0.4162,-36.3942,-44.0053,32,0.8864,9106,4.0348,-130.0631
rg,1625188723508338615,1,0.446,-0.6807,0.4485,583,33.8745,49.1333,-23.4375,121,0.7874,0.4172,-35.1677,-41.4323,32,0.8874,8452,4.0348,-132.3146
rg,1625188723508372152,1,0.3904,-0.7246,0.5322,584,44.4336,49.3774,-24.9023,121,0.7884,0.4192,-33.8738,-38.7914,32,0.8874,7864,4.0348,-134.4717
rg,1625188723508400189,1,0.3389,-0.74,0.5952,585,58.1665,37.4146,-24.7192,121,0.7904,0.4212,-32.7596,-35.9049,32,0.8884,7835,4.0348,-136.1833
rg,1625188723508427282,1,0.3201,-0.7329,0.6089,586,64.5142,26.6113,-25.1465,121,0.7924,0.4222,-31.8992,-33.0163,32,0.8894,7959,4.0348,-137.5454
rg,1625188723508454578,1,0.3013,-0.679,0.6067,587,74.3408,-2.5635,-26.7944,121,0.7914,0.4212,-32.0534,-30.181,32,0.8884,7880,4.0348,-138.1921
rg,1625188723508480726,1,0.3545,-0.6045,0.5813,588,84.8999,-24.9634,-25.0854,121,0.7934,0.4202,-33.0869,-27.2203,32,0.8884,7917,4.0348,-138.2939
rg,1625188723508508263,1,0.3821,-0.5627,0.5715,589,87.4023,-29.6631,-22.2168,121,0.7944,0.4192,-34.3768,-24.2144,32,0.8884,7869,4.0348,-138.2631
rg,1625188723508626467,1,0.4412,-0.5,0.5527,590,87.4023,-35.8887,-18.2495,121,0.7924,0.4172,-35.8785,-21.3795,32,0.8874,7981,4.0348,-137.9849
rg,1625188723508676949,1,0.4927,-0.4604,0.5325,591,86.9751,-43.457,-15.9302,121,0.7964,0.4162,-37.7448,-18.68,32,0.8884,7920,4.0348,-137.532
rg,1625188723508710115,1,0.5234,-0.4355,0.4973,592,86.3647,-47.1191,-14.6484,121,0.7974,0.4172,-39.9647,-16.0443,32,0.8884,7989,4.0348,-137.0339
rg,1625188723508741560,1,0.6536,-0.406,0.4966,593,81.665,-54.3213,-13.9771,90,0.7944,0.4192,-42.4934,-13.6306,32,0.8884,7899,4.0513,-136.4794
rg,1625188723508770726,1,0.7693,-0.3999,0.5234,594,70.1294,-30.2124,-19.043,90,0.7974,0.4212,-44.1825,-11.1872,32,0.8884,9375,4.0513,-136.6003
rg,1625188723508800300,1,0.7717,-0.4182,0.5608,595,52.1851,24.9023,-24.9023,90,0.7994,0.4242,-43.6248,-8.9014,32,0.8884,10010,4.0513,-137.5747
rg,1625188723508830708,1,0.6392,-0.4885,0.6428,596,37.4756,70.0073,-31.189,90,0.7994,0.4262,-40.3082,-7.1173,32,0.8884,8048,4.0513,-139.2026
rg,1625188723508859486,1,0.4634,-0.5557,0.7532,597,35.6445,84.4727,-36.3159,90,0.7994,0.4282,-36.7492,-5.5255,32,0.8884,8002,4.0513,-140.6917
rg,1625188723508886337,1,0.3093,-0.5559,0.7773,598,49.9878,48.0347,-40.9546,90,0.8004,0.4282,-34.4197,-3.5894,32,0.8894,8118,4.0513,-142.0772
rg,1625188723508912300,1,0.2998,-0.4861,0.7476,599,59.5703,12.8784,-41.3818,90,0.8004,0.4292,-34.9948,-1.0168,32,0.8894,8055,4.0513,-143.3387
rg,1625188723508954004,1,0.3706,-0.4392,0.7566,600,71.9604,-56.6406,-39.3066,90,0.8004,0.4292,-36.9228,1.7391,32,0.8884,8147,4.0513,-144.564
rg,1625188723508984856,1,0.5295,-0.3633,0.718,601,75.6836,-87.9517,-31.6772,90,0.8004,0.4272,-40.3444,4.7638,32,0.8894,8138,4.0513,-145.7381
rg,1625188723509011726,1,0.6587,-0.3186,0.7148,602,74.7681,-86.9141,-23.6206,90,0.8014,0.4262,-43.8059,7.8079,32,0.8894,8301,4.0513,-146.7883
rg,1625188723509039597,1,0.7083,-0.3022,0.7285,603,74.2188,-75.0122,-20.0195,90,0.8024,0.4272,-46.3349,10.504,32,0.8894,8174,4.0513,-147.3362
rg,1625188723509068356,1,0.8154,-0.3042,0.7881,604,71.2891,-57.373,-9.1553,90,0.8044,0.4262,-48.5732,12.9722,32,0.8894,8454,4.0513,-147.6372
rg,1625188723509095152,1,0.9111,-0.3391,0.8254,605,61.7676,-49.1333,-10.0708,90,0.8044,0.4272,-50.4674,15.0287,32,0.8904,8219,4.0513,-147.9066
rg,1625188723509123800,1,0.9795,-0.3892,0.8533,606,59.2651,-29.8462,-12.2681,90,0.8054,0.4282,-51.58,16.7801,32,0.8904,8320,4.0513,-147.9417
rg,1625188723509152282,1,0.9827,-0.3972,0.8503,607,60.1196,-14.8926,-14.5874,90,0.8074,0.4282,-52.0702,18.4102,32,0.8904,8250,4.0513,-147.7938
rg,1625188723509178875,1,0.9294,-0.3826,0.8579,608,65.1245,17.2729,-16.9678,90,0.8074,0.4302,-51.2424,19.7617,32,0.8904,8351,4.0513,-147.0564
rg,1625188723855990837,1,0.6667,-0.3335,0.9175,609,70.8618,47.3022,-7.5073,90,0.8084,0.4312,-49.0503,20.2589,32,0.8914,25333,4.0513,-144.9931
rg,1625188723856053856,1,0.6101,-0.3442,0.967,610,71.7163,42.9688,3.9673,90,0.8094,0.4312,-47.0885,20.3881,31,0.8904,9256,4.0513,-142.4238
rg,1625188723856075504,1,0.6187,-0.3174,1.0193,611,71.5942,30.2734,19.7144,90,0.8094,0.4292,-45.8625,20.2617,31,0.8914,11586,4.0513,-139.4351
rg,1625188723856096467,1,0.6616,-0.312,1.0159,612,65.4297,21.1792,22.3999,90,0.8104,0.4302,-45.1067,20.0369,31,0.8914,7847,4.0513,-136.5986
rg,1625188723856116059,1,0.6707,-0.3086,0.9912,613,59.6313,21.6064,19.8975,90,0.8094,0.4292,-44.3545,19.741,32,0.8924,7752,4.0513,-133.9555
rg,1625188723856134597,1,0.6594,-0.3274,0.9553,614,45.8984,24.9023,12.8784,90,0.8104,0.4302,-43.4293,19.1259,32,0.8914,7754,4.0513,-131.6483
rg,1625188723856152430,1,0.5891,-0.3511,0.9341,615,33.6914,26.9165,4.6997,90,0.8094,0.4302,-42.2663,18.2702,32,0.8914,7936,4.0513,-129.7436
rg,1625188723856171430,1,0.512,-0.3708,0.9395,616,23.9258,24.1089,-2.4414,90,0.8114,0.4312,-41.0226,17.3026,32,0.8924,10058,4.0513,-128.2906
rg,1625188723856188522,1,0.4785,-0.3809,0.9419,617,21.8506,19.4092,-5.249,90,0.8104,0.4302,-39.8965,16.4362,32,0.8904,8001,4.0513,-127.1214
rg,1625188723856205671,1,0.4172,-0.3845,0.8901,618,18.6768,-21.3623,-8.5449,90,0.8114,0.4312,-40.2669,15.9068,32,0.8914,11688,4.0513,-126.7315
rg,1625188723856224319,1,0.4368,-0.3623,0.8616,619,17.2119,-39.1846,-7.6904,90,0.8114,0.4302,-41.3691,15.5102,32,0.8914,8019,4.0513,-126.5756
rg,1625188723856241819,1,0.5029,-0.3291,0.7942,620,13.1836,-62.1948,-7.2632,90,0.8114,0.4292,-43.5049,15.2561,32,0.8914,7934,4.0513,-126.7618
rg,1625188723856259504,1,0.5496,-0.2981,0.7349,621,9.3994,-76.355,-7.5073,90,0.8124,0.4282,-46.2588,15.1152,32,0.8914,8900,4.0513,-127.195
rg,1625188723856277097,1,0.5737,-0.2949,0.7188,622,6.8359,-78.064,-8.8501,90,0.8124,0.4292,-49.0542,15.0194,32,0.8924,7963,4.0513,-127.7247
rg,1625188723856294078,1,0.6353,-0.3206,0.7659,623,1.2207,-76.7212,-8.2397,90,0.8114,0.4292,-51.724,14.6662,32,0.8914,8839,4.0513,-128.1431
rg,1625188723856310930,1,0.6929,-0.3604,0.7959,624,0.1831,-72.5708,-9.0332,90,0.8114,0.4302,-54.1921,14.2307,32,0.8904,8597,4.0513,-128.458
rg,1625188723856328022,1,0.731,-0.3796,0.8049,625,3.7231,-63.1104,-8.4839,90,0.8124,0.4292,-56.2632,13.7695,32,0.8924,8253,4.0513,-128.5092
rg,1625188723856359819,1,0.7412,-0.365,0.8042,626,6.7749,-54.1992,-7.6294,90,0.8134,0.4302,-57.9367,13.2986,32,0.8924,8065,4.0513,-128.3338
rg,1625188723856379411,1,0.7375,-0.3452,0.8037,627,12.146,-31.5552,-6.1646,90,0.8134,0.4302,-58.6749,12.6527,32,0.8914,8278,4.0513,-127.6447
rg,1625188723856398689,1,0.7134,-0.3103,0.7852,628,15.9912,-11.5356,-3.0518,90,0.8134,0.4312,-58.6132,11.7595,32,0.8914,8106,4.0513,-126.4374
rg,1625188723856419097,1,0.6677,-0.2661,0.7468,629,17.395,3.418,0.9155,90,0.8144,0.4312,-57.9645,10.6214,32,0.8924,8315,4.0513,-124.8274
rg,1625188723856436874,1,0.6594,-0.2544,0.7505,630,17.2119,9.8877,3.6011,90,0.8134,0.4312,-56.8169,9.2447,32,0.8924,9270,4.0513,-122.9311
rg,1625188723856459152,1,0.6387,-0.2378,0.7512,631,15.1978,21.3013,4.8218,90,0.8134,0.4302,-55.4582,7.9439,32,0.8924,8914,4.0513,-121.1485
rg,1625188723856480171,1,0.6006,-0.2314,0.7446,632,12.146,24.6582,5.127,90,0.8094,0.4302,-53.9426,6.6365,32,0.8914,8393,4.0513,-119.4752
rg,1625188723856498411,1,0.5569,-0.2141,0.7593,633,10.9253,21.1182,3.6011,90,0.8134,0.4312,-52.4945,5.5803,32,0.8924,8241,4.0513,-118.1233
rg,1625188723856516134,1,0.5327,-0.2229,0.7957,634,9.7656,16.0522,3.2959,90,0.8124,0.4302,-51.5047,4.6629,32,0.8914,8518,4.0513,-117.0534
rg,1625188723856539171,1,0.5295,-0.2312,0.8157,635,7.6904,-2.5635,1.8921,90,0.8124,0.4282,-50.9349,3.8102,32,0.8914,8293,4.0513,-116.0979
rg,1625188723856558078,1,0.585,-0.2417,0.8132,636,6.7749,-28.3203,0.9766,90,0.8114,0.4282,-51.4955,3.0774,32,0.8914,8483,4.0513,-115.3321
rg,1625188723856575356,1,0.6396,-0.2483,0.8108,637,7.0801,-46.9971,-0.5493,90,0.8124,0.4282,-52.8597,2.4875,32,0.8914,8332,4.0513,-114.7148
rg,1625188723856596022,1,0.6648,-0.251,0.8167,638,7.8735,-49.8047,-0.6104,90,0.8124,0.4272,-54.3757,1.8639,32,0.8914,8338,4.0513,-114.0021
rg,1625188723856613541,1,0.7168,-0.2583,0.8291,639,8.2397,-50.5371,2.9297,90,0.8124,0.4232,-55.8603,1.0919,32,0.8914,8353,4.0513,-113.0632
rg,1625188723856630856,1,0.7681,-0.2341,0.8433,640,11.2305,-48.2178,10.7422,90,0.8124,0.4242,-57.2422,0.0309,32,0.8914,8455,4.0513,-111.5764
rg,1625188724221947059,1,0.8464,-0.1685,0.7415,641,6.4087,-6.6528,17.7002,90,0.8124,0.4212,-57.1474,-1.4421,32,0.8914,27184,4.0513,-109.7291
rg,1625188724221989096,1,0.6758,-0.2209,0.7686,642,-7.5073,29.1748,16.3574,90,0.8124,0.4222,-55.3326,-3.4223,32,0.8914,14954,4.0513,-107.9832
rg,1625188724222010263,1,0.6201,-0.2505,0.7937,643,-7.9956,32.3486,15.8081,90,0.8124,0.4242,-53.3094,-5.2319,32,0.8904,7716,4.0513,-106.4504
rg,1625188724222036041,1,0.5295,-0.2937,0.7913,644,-0.7935,25.6348,17.6392,90,0.8134,0.4242,-51.4418,-6.8444,32,0.8904,7852,4.0513,-104.8253
rg,1625188724222063633,1,0.5071,-0.2754,0.7712,645,10.2539,-0.3052,17.6392,90,0.8124,0.4242,-50.6228,-7.9763,32,0.8904,7694,4.0513,-103.1797
rg,1625188724222090393,1,0.5232,-0.2527,0.7747,646,12.3901,-14.5264,17.9443,90,0.8124,0.4242,-50.399,-8.9686,32,0.8904,7752,4.0513,-101.522
rg,1625188724222118504,1,0.6147,-0.2415,0.7373,647,14.2212,-28.0151,21.8506,90,0.8124,0.4252,-50.957,-10.1422,32,0.8904,8952,4.0513,-99.5061
rg,1625188724222146522,1,0.7046,-0.2659,0.7556,648,14.0991,-23.0103,24.5972,90,0.8124,0.4252,-51.2916,-11.4268,32,0.8894,9588,4.0513,-97.3477
rg,1625188724222172985,1,0.7473,-0.2556,0.7388,649,18.2495,-3.1738,25.8179,90,0.8134,0.4242,-50.8993,-12.3314,32,0.8904,7965,4.0513,-95.4204
rg,1625188724222199152,1,0.7378,-0.2178,0.7539,650,18.6157,25.0854,27.5269,90,0.8134,0.4232,-49.3753,-12.7838,32,0.8904,7841,4.0513,-93.952
rg,1625188724222225726,1,0.7246,-0.209,0.769,651,16.9678,35.0952,30.1514,90,0.8134,0.4222,-47.4551,-13.1809,32,0.8904,8078,4.0513,-92.5773
rg,1625188724222251670,1,0.6887,-0.2271,0.7979,652,12.146,49.7437,27.4658,90,0.8114,0.4212,-44.9631,-13.4496,32,0.8904,7949,4.0513,-91.6112
rg,1625188724222288874,1,0.636,-0.2627,0.8096,653,9.5825,56.2744,26.6724,90,0.8124,0.4202,-42.2082,-13.7452,32,0.8894,8061,4.0513,-90.7748
rg,1625188724222316652,1,0.5991,-0.2605,0.8269,654,9.7656,58.4717,25.5737,90,0.8134,0.4212,-39.4002,-13.8882,32,0.8914,7825,4.0513,-90.097
rg,1625188724222343300,1,0.541,-0.2556,0.8416,655,10.6201,57.4951,23.9258,90,0.8124,0.4212,-36.6347,-13.8846,32,0.8904,7987,4.0513,-89.541
rg,1625188724222401541,1,0.5071,-0.2539,0.8433,656,11.4746,47.4243,25.3296,90,0.8144,0.4212,-34.2874,-13.9202,32,0.8914,7876,4.0513,-88.8244
rg,1625188724222431578,1,0.5044,-0.2542,0.8516,657,10.9253,41.3208,25.5127,90,0.8144,0.4212,-32.2517,-13.9803,32,0.8904,8057,4.0513,-88.057
rg,1625188724222459115,1,0.5015,-0.2563,0.8416,658,12.085,30.4565,23.6206,90,0.8134,0.4212,-30.7383,-13.9954,32,0.8904,7876,4.0513,-87.2658
rg,1625188724222485670,1,0.5095,-0.2466,0.8574,659,13.4277,22.583,23.2544,90,0.8134,0.4212,-29.594,-13.9358,32,0.8904,8127,4.0513,-86.4343
rg,1625188724222511207,1,0.5178,-0.2402,0.8574,660,13.7939,18.4326,23.1323,90,0.8144,0.4202,-28.6751,-13.8514,32,0.8904,7887,4.0513,-85.5774
rg,1625188724222536930,1,0.5391,-0.2166,0.8557,661,12.9395,15.625,21.0571,90,0.8144,0.4202,-27.9709,-13.7058,32,0.8904,8104,4.0513,-84.8131
rg,1625188724222563652,1,0.5449,-0.2129,0.8606,662,10.5591,17.7612,20.874,90,0.8134,0.4212,-27.2216,-13.6246,32,0.8904,7935,4.0513,-84.086
rg,1625188724222590152,1,0.5422,-0.2119,0.8743,663,8.9722,20.4468,19.7144,90,0.8144,0.4212,-26.3902,-13.5533,32,0.8904,8166,4.0513,-83.445
rg,1625188724222618948,1,0.4797,-0.2402,0.8884,664,4.3335,21.9116,14.8315,90,0.8144,0.4222,-25.441,-13.6185,32,0.8904,13242,4.0513,-83.0076
rg,1625188724222646596,1,0.4524,-0.2461,0.8889,665,5.8594,15.9912,13.6719,90,0.8154,0.4222,-24.714,-13.6321,32,0.8904,8159,4.0513,-82.5577
rg,1625188724222672967,1,0.4556,-0.24,0.8889,666,6.7749,9.3994,13.7939,90,0.8154,0.4232,-24.2776,-13.6197,32,0.8904,8055,4.0513,-82.0433
rg,1625188724222699189,1,0.4597,-0.2297,0.8779,667,8.3008,-2.6245,13.916,90,0.8154,0.4232,-24.3443,-13.5811,32,0.8904,8366,4.0513,-81.4071
rg,1625188724222724874,1,0.4995,-0.2231,0.8655,668,8.5449,-8.1177,15.7471,90,0.8154,0.4242,-24.696,-13.5841,32,0.8914,9553,4.0513,-80.6375
rg,1625188724222750430,1,0.5222,-0.2209,0.8582,669,6.7139,-8.1177,14.4653,90,0.8164,0.4252,-25.0972,-13.6413,32,0.8914,8721,4.0513,-79.9208
rg,1625188724222776115,1,0.5195,-0.2153,0.8542,670,6.958,-9.0942,14.7095,90,0.8164,0.4262,-25.5429,-13.6695,32,0.8884,8826,4.0513,-79.2523
rg,1625188724222823448,1,0.52,-0.2175,0.8694,671,4.6387,-9.1553,13.3667,90,0.8164,0.4272,-25.9445,-13.7876,32,0.8914,8330,4.0513,-78.5738
rg,1625188724222859078,1,0.51,-0.2329,0.8716,672,2.6245,-11.4746,11.7798,90,0.8174,0.4292,-26.4079,-14.0033,32,0.8874,8191,4.0513,-77.9222
rg,1625188724602679337,1,0.5305,-0.2332,0.854,673,4.2725,-17.4561,12.3291,90,0.8174,0.4312,-27.159,-14.2099,32,0.8924,25812,4.0513,-77.1307
rg,1625188724602709355,1,0.5386,-0.2407,0.856,674,5.4932,-15.7471,14.2822,90,0.8174,0.4332,-27.7783,-14.4131,32,0.8934,11237,4.0513,-76.3055
rg,1625188724602729744,1,0.5398,-0.2351,0.8577,675,6.2866,-10.8643,14.1602,90,0.8174,0.4342,-28.1857,-14.5427,32,0.8934,9529,4.0513,-75.5458
rg,1625188724602748929,1,0.5352,-0.2317,0.8582,676,6.2866,-7.9346,14.5264,90,0.8174,0.4352,-28.4508,-14.656,32,0.8934,7746,4.0513,-74.807
rg,1625188724602767503,1,0.5232,-0.2188,0.8555,677,5.6763,-7.7515,15.625,90,0.8184,0.4362,-28.6697,-14.7855,32,0.8934,7879,4.0513,-74.036
rg,1625188724602785429,1,0.5281,-0.2119,0.8684,678,4.1504,-7.8125,16.1743,90,0.8174,0.4372,-28.8721,-14.9616,32,0.8934,7979,4.0513,-73.2525
rg,1625188724602802318,1,0.5271,-0.2317,0.8689,679,2.8076,-6.0425,14.7705,90,0.8184,0.4362,-29.0025,-15.1944,32,0.8944,9182,4.0513,-72.5307
rg,1625188724602819078,1,0.5139,-0.2373,0.8655,680,2.4414,-5.3711,14.5874,90,0.8184,0.4362,-29.0783,-15.4422,32,0.8944,8239,4.0513,-71.8208
rg,1625188724602838392,1,0.5046,-0.2332,0.8665,681,3.479,-5.249,15.1367,90,0.8184,0.4362,-29.1003,-15.6106,32,0.8944,7909,4.0513,-71.1315
rg,1625188724602855911,1,0.4919,-0.2227,0.8716,682,3.479,-5.9814,15.0146,90,0.8164,0.4362,-29.1428,-15.7746,32,0.8944,7819,4.0513,-70.4221
rg,1625188724602872763,1,0.4963,-0.2263,0.8767,683,1.8921,-8.9722,15.0757,90,0.8184,0.4372,-29.2973,-16.0223,32,0.8954,7956,4.0513,-69.6717
rg,1625188724602889189,1,0.4966,-0.2288,0.8801,684,1.3428,-11.2915,15.1978,90,0.8184,0.4362,-29.5263,-16.3062,32,0.8944,7881,4.0513,-68.8871
rg,1625188724602924559,1,0.5012,-0.2305,0.8752,685,1.1597,-13.0005,13.9771,90,0.8184,0.4372,-29.8501,-16.5656,32,0.8944,10098,4.0513,-68.1412
rg,1625188724602943337,1,0.5161,-0.2222,0.8716,686,0.9155,-13.0615,11.2915,90,0.8194,0.4382,-30.2114,-16.7711,32,0.8944,11532,4.0513,-67.5148
rg,1625188724602961466,1,0.5095,-0.231,0.8787,687,0.4883,-12.8174,11.1694,90,0.8184,0.4372,-30.5259,-17.0026,32,0.8954,8088,4.0513,-66.8898
rg,1625188724602978874,1,0.5024,-0.2419,0.8704,688,0.9155,-13.0615,10.5591,90,0.8184,0.4382,-30.8336,-17.2327,32,0.8944,7918,4.0513,-66.2735
rg,1625188724602996133,1,0.5071,-0.2385,0.874,689,2.6855,-14.8315,10.498,90,0.8194,0.4382,-31.2015,-17.3883,32,0.8954,7950,4.0513,-65.6422
rg,1625188724603013022,1,0.5066,-0.2307,0.8674,690,2.9907,-15.9302,10.0098,90,0.8184,0.4382,-31.6093,-17.5131,32,0.8944,8016,4.0513,-65.0249
rg,1625188724603029355,1,0.5166,-0.2219,0.8599,691,3.1738,-16.1743,9.5215,90,0.8184,0.4382,-32.045,-17.6054,32,0.8954,9055,4.0513,-64.434
rg,1625188724603046226,1,0.5229,-0.2136,0.8628,692,2.8687,-16.6016,9.8877,90,0.8194,0.4392,-32.4861,-17.7016,32,0.8944,8527,4.0513,-63.8315
rg,1625188724603063041,1,0.5337,-0.1931,0.8486,693,2.6245,-18.7378,11.4746,90,0.8194,0.4392,-33.0132,-17.8243,32,0.8954,8212,4.0513,-63.1472
rg,1625188724603079596,1,0.5449,-0.188,0.856,694,2.3193,-18.3716,11.4746,90,0.8194,0.4392,-33.519,-17.9426,32,0.8954,8077,4.0513,-62.4763
rg,1625188724603096133,1,0.5603,-0.2117,0.8674,695,-1.9531,-15.5029,11.7798,90,0.8184,0.4392,-33.8973,-18.2718,32,0.8954,8261,4.0513,-61.803
rg,1625188724603113355,1,0.5505,-0.2456,0.8613,696,-2.5024,-12.146,10.8032,90,0.8214,0.4392,-34.1192,-18.6502,32,0.8954,8116,4.0513,-61.1791
rg,1625188724603130448,1,0.5298,-0.2495,0.8665,697,-0.4272,-10.6812,10.5591,90,0.8224,0.4392,-34.1866,-18.8701,32,0.8964,8366,4.0513,-60.5327
rg,1625188724603147226,1,0.5286,-0.2341,0.8611,698,2.5635,-10.5591,12.085,90,0.8224,0.4392,-34.2801,-19.0158,32,0.8954,8189,4.0513,-59.9015
rg,1625188724603163689,1,0.5515,-0.2273,0.8552,699,4.2114,-12.8174,14.6484,90,0.8234,0.4402,-34.4715,-19.1676,32,0.8944,8219,4.0513,-59.1249
rg,1625188724603189541,1,0.5652,-0.2319,0.8523,700,4.8218,-9.0332,14.8315,90,0.8234,0.4412,-34.5356,-19.2768,32,0.8974,8422,4.0513,-58.3941
rg,1625188724603206744,1,0.5671,-0.2253,0.854,701,4.6997,-7.5073,14.8926,90,0.8234,0.4412,-34.5423,-19.3572,32,0.8974,8248,4.0513,-57.6973
rg,1625188724603223207,1,0.5564,-0.22,0.854,702,5.4321,-2.1973,14.0381,90,0.8234,0.4422,-34.3431,-19.3188,32,0.8964,8412,4.0513,-57.1364
rg,1625188724603239744,1,0.5364,-0.2173,0.8606,703,5.0659,-0.6104,15.9302,90,0.8244,0.4432,-34.0243,-19.3143,32,0.8974,8319,4.0513,-56.5224
rg,1625188724603256022,1,0.5317,-0.2231,0.8662,704,5.6152,0.4272,15.686,90,0.8234,0.4432,-33.6657,-19.2786,32,0.8974,8710,4.0513,-55.9316
rg,1625188724941464614,1,0.5317,-0.2288,0.8567,705,7.2021,2.9297,17.1509,91,0.8244,0.4432,-33.2164,-19.2121,32,0.8984,25204,4.0502,-55.3031
rg,1625188724941501300,1,0.5312,-0.2195,0.8621,706,7.2632,4.1504,17.5171,91,0.8234,0.4432,-32.732,-19.1114,32,0.8974,8576,4.0502,-54.6923
rg,1625188724941521522,1,0.522,-0.2214,0.866,707,8.1787,6.897,16.3574,91,0.8244,0.4442,-32.1575,-18.9229,32,0.8974,8024,4.0502,-54.1742
rg,1625188724941540503,1,0.52,-0.2312,0.8831,708,7.9956,5.7983,17.5781,91,0.8234,0.4442,-31.6102,-18.8064,32,0.8974,8527,4.0502,-53.5825
rg,1625188724941558522,1,0.5088,-0.2322,0.8787,709,8.728,5.8594,16.6016,91,0.8244,0.4462,-31.0768,-18.6284,32,0.8984,12915,4.0502,-53.0226
rg,1625188724941575670,1,0.5049,-0.2271,0.8806,710,9.7046,5.7373,17.0898,91,0.8234,0.4472,-30.5569,-18.4114,32,0.8984,9938,4.0502,-52.4429
rg,1625188724941592651,1,0.5112,-0.2231,0.8833,711,10.1318,6.0425,17.0288,91,0.8234,0.4472,-30.0597,-18.1667,32,0.8974,7757,4.0502,-51.8712
rg,1625188724941610892,1,0.5071,-0.2124,0.8901,712,10.8643,6.4697,16.2354,91,0.8234,0.4482,-29.5453,-17.893,32,0.8984,7895,4.0502,-51.3555
rg,1625188724941628485,1,0.5037,-0.2087,0.8923,713,9.5825,6.7749,17.1509,91,0.8244,0.4472,-29.0449,-17.6381,32,0.8984,7688,4.0502,-50.7973
rg,1625188724941646300,1,0.5059,-0.2126,0.8838,714,8.3008,6.7139,15.8081,91,0.8244,0.4502,-28.5963,-17.4271,32,0.8984,7976,4.0502,-50.2836
rg,1625188724941676244,1,0.4878,-0.2131,0.8831,715,8.8501,8.2397,12.6953,91,0.8244,0.4492,-28.1124,-17.1253,32,0.8984,8493,4.0502,-49.9204
rg,1625188724941694948,1,0.4792,-0.1995,0.8762,716,8.9722,7.2632,14.0991,91,0.8244,0.4512,-27.6646,-16.8334,32,0.8984,8454,4.0502,-49.4895
rg,1625188724941711966,1,0.4734,-0.1797,0.8752,717,8.3618,5.5542,16.2354,91,0.8254,0.4522,-27.2725,-16.5795,32,0.8984,7777,4.0502,-48.9593
rg,1625188724941728633,1,0.4792,-0.1921,0.887,718,5.127,4.6997,18.6157,91,0.8254,0.4522,-26.8988,-16.5368,32,0.8994,8010,4.0502,-48.2992
rg,1625188724941745318,1,0.4839,-0.207,0.8921,719,3.6621,4.4556,18.3105,91,0.8264,0.4512,-26.5523,-16.578,32,0.8994,7862,4.0502,-47.6343
rg,1625188724941762114,1,0.4788,-0.2166,0.8926,720,5.188,2.9907,18.8599,91,0.8264,0.4532,-26.2558,-16.5933,32,0.8994,8071,4.0502,-46.9193
rg,1625188724941778744,1,0.4648,-0.1982,0.8767,721,6.2256,2.3804,18.1274,91,0.8254,0.4542,-25.9966,-16.5173,32,0.8984,7908,4.0502,-46.2447
rg,1625188724941795040,1,0.4775,-0.1948,0.8928,722,3.8452,1.5259,19.043,91,0.8274,0.4542,-25.7803,-16.5413,32,0.8994,10972,4.0502,-45.5268
rg,1625188724941812133,1,0.4788,-0.2058,0.8989,723,2.2583,2.1362,18.7378,91,0.8264,0.4552,-25.5163,-16.6634,32,0.8994,7902,4.0502,-44.8102
rg,1625188724941828429,1,0.4678,-0.2319,0.9116,724,1.709,2.0142,18.2495,91,0.8234,0.4552,-25.2599,-16.8175,32,0.8994,8081,4.0502,-44.1048
rg,1625188724941844633,1,0.4553,-0.229,0.9089,725,4.3335,1.9531,18.4937,91,0.8284,0.4582,-24.9912,-16.8562,32,0.8994,7942,4.0502,-43.395
rg,1625188724941860763,1,0.4624,-0.2188,0.905,726,5.3711,1.6479,18.3716,91,0.8284,0.4582,-24.7596,-16.8035,32,0.9004,8163,4.0502,-42.7072
rg,1625188724941877318,1,0.4561,-0.2078,0.9136,727,5.127,0.4272,17.4561,91,0.8284,0.4592,-24.5847,-16.7429,32,0.8994,8159,4.0502,-42.0449
rg,1625188724941894392,1,0.4585,-0.218,0.9089,728,4.6997,-1.9531,16.5405,91,0.8284,0.4602,-24.5247,-16.7234,32,0.9004,8180,4.0502,-41.3788
rg,1625188724941911188,1,0.4565,-0.2158,0.9041,729,4.5166,-2.0142,16.7847,91,0.8284,0.4592,-24.4893,-16.7291,32,0.9004,8052,4.0502,-40.7196
rg,1625188724941939707,1,0.4541,-0.2092,0.9072,730,4.3335,-2.6855,16.1743,91,0.8284,0.4592,-24.4608,-16.7015,32,0.9004,8232,4.0502,-40.0678
rg,1625188724941957207,1,0.4507,-0.2097,0.9055,731,4.5166,-3.54,15.1367,91,0.8284,0.4592,-24.473,-16.6559,32,0.9004,8089,4.0502,-39.4475
rg,1625188724941973800,1,0.4548,-0.2061,0.9082,732,4.7607,-4.2114,14.6484,91,0.8294,0.4612,-24.5265,-16.6361,32,0.9004,8279,4.0502,-38.8554
rg,1625188724942069818,1,0.4541,-0.2117,0.9116,733,2.0142,-4.6387,12.5122,91,0.8294,0.4612,-24.6091,-16.655,32,0.9004,8157,4.0502,-38.3298
rg,1625188724942092670,1,0.4431,-0.2175,0.9082,734,1.3428,-6.1035,13.3057,91,0.8294,0.4612,-24.7145,-16.7376,32,0.9004,8319,4.0502,-37.7459
rg,1625188724942112226,1,0.4375,-0.2183,0.9185,735,2.1973,-7.019,12.6953,91,0.8294,0.4612,-24.8367,-16.7738,32,0.9004,8192,4.0502,-37.179
rg,1625188724942130726,1,0.4438,-0.2095,0.9141,736,2.6245,-8.606,13.2446,91,0.8294,0.4612,-25.0268,-16.7939,32,0.9004,8356,4.0502,-36.5762
rg,1625188725291658485,1,0.4531,-0.2014,0.8975,737,2.7466,-7.9956,13.3667,91,0.8304,0.4602,-25.2203,-16.8005,32,0.9014,26367,4.0502,-35.9796
rg,1625188725291700133,1,0.45,-0.2119,0.9124,738,2.0752,-8.3008,13.1836,91,0.8294,0.4612,-25.3967,-16.8502,32,0.9014,8407,4.0502,-35.3796
rg,1625188725291721022,1,0.4473,-0.2141,0.9094,739,2.8076,-9.3994,13.0615,91,0.8294,0.4612,-25.6057,-16.8815,32,0.9014,12835,4.0502,-34.7679
rg,1625188725291740744,1,0.45,-0.2002,0.9014,740,3.7842,-10.376,13.6719,91,0.8304,0.4622,-25.853,-16.864,32,0.9014,11683,4.0502,-34.1297
rg,1625188725291760281,1,0.4678,-0.2019,0.9143,741,2.2583,-9.7656,13.855,91,0.8294,0.4622,-26.0874,-16.909,32,0.9024,7694,4.0502,-33.4916
rg,1625188725291779003,1,0.4636,-0.2146,0.908,742,0.8545,-8.9722,13.7329,91,0.8304,0.4622,-26.2771,-17.0373,32,0.9014,7896,4.0502,-32.8541
rg,1625188725291796707,1,0.4614,-0.2227,0.9119,743,1.0986,-8.8501,14.0381,91,0.8304,0.4632,-26.4395,-17.1747,32,0.9024,7759,4.0502,-32.1992
rg,1625188725291813818,1,0.4495,-0.2139,0.9094,744,2.8076,-8.606,14.7095,91,0.8304,0.4632,-26.5585,-17.2318,32,0.9024,7710,4.0502,-31.5295
rg,1625188725291831799,1,0.4485,-0.207,0.9019,745,2.7466,-9.0332,13.5498,91,0.8314,0.4642,-26.7094,-17.2593,32,0.9024,8433,4.0502,-30.9095
rg,1625188725291878818,1,0.4451,-0.208,0.9089,746,2.0752,-8.9111,12.8784,91,0.8304,0.4642,-26.8663,-17.2971,32,0.9014,7776,4.0502,-30.3214
rg,1625188725291899818,1,0.458,-0.209,0.9124,747,1.5869,-10.0708,13.916,91,0.8294,0.4642,-27.0476,-17.3849,32,0.9024,7968,4.0502,-29.6721
rg,1625188725291919596,1,0.4602,-0.2153,0.9136,748,1.5259,-10.3149,13.7939,91,0.8314,0.4642,-27.2327,-17.4876,32,0.9024,7805,4.0502,-29.0187
rg,1625188725291938466,1,0.4561,-0.2178,0.9138,749,1.1597,-9.5825,13.1226,91,0.8314,0.4632,-27.3807,-17.5907,32,0.9024,8006,4.0502,-28.4026
rg,1625188725291957096,1,0.4524,-0.2095,0.9065,750,2.2583,-9.5825,13.7939,91,0.8314,0.4642,-27.5159,-17.6454,32,0.9024,7927,4.0502,-27.7661
rg,1625188725291975373,1,0.4502,-0.2085,0.9089,751,1.709,-9.6436,13.2446,91,0.8314,0.4642,-27.6478,-17.7071,32,0.9024,8139,4.0502,-27.1547
rg,1625188725291993688,1,0.4517,-0.2109,0.9177,752,1.1597,-10.0708,13.7329,91,0.8304,0.4642,-27.7783,-17.8031,32,0.9024,7905,4.0502,-26.5165
rg,1625188725292012688,1,0.45,-0.2158,0.9089,753,1.6479,-10.9253,13.2446,91,0.8324,0.4652,-27.9441,-17.8903,32,0.9034,8086,4.0502,-25.8805
rg,1625188725292031040,1,0.449,-0.2112,0.9131,754,1.77,-10.8032,12.8174,91,0.8294,0.4652,-28.099,-17.9482,32,0.9034,7928,4.0502,-25.2719
rg,1625188725292049725,1,0.4482,-0.2104,0.9121,755,2.0752,-11.2915,12.8784,91,0.8314,0.4652,-28.2646,-17.9968,32,0.9034,13256,4.0502,-24.6548
rg,1625188725292067781,1,0.4443,-0.2129,0.9097,756,1.77,-11.5967,12.9395,91,0.8314,0.4652,-28.4277,-18.0681,32,0.9034,8020,4.0502,-24.0277
rg,1625188725292085151,1,0.4482,-0.1997,0.9045,757,1.2817,-12.4512,12.6953,91,0.8314,0.4652,-28.6286,-18.1198,32,0.9034,8143,4.0502,-23.4003
rg,1625188725292103318,1,0.449,-0.2009,0.9065,758,1.4648,-13.1226,13.6719,91,0.8314,0.4652,-28.8402,-18.2025,32,0.9034,8049,4.0502,-22.733
rg,1625188725292121003,1,0.4609,-0.207,0.9114,759,1.4038,-13.7329,13.6719,91,0.8314,0.4642,-29.0827,-18.3047,32,0.9034,8529,4.0502,-22.051
rg,1625188725292139022,1,0.4648,-0.217,0.9114,760,1.0376,-12.5122,13.9771,91,0.8314,0.4652,-29.2688,-18.443,32,0.9034,11524,4.0502,-21.3621
rg,1625188725292174818,1,0.4617,-0.2139,0.9041,761,2.0752,-10.498,13.0005,91,0.8324,0.4662,-29.3844,-18.4981,32,0.9034,8274,4.0502,-20.7484
rg,1625188725292193410,1,0.4575,-0.2083,0.9053,762,2.3193,-11.0474,13.6719,91,0.8324,0.4652,-29.4881,-18.5581,32,0.9044,8119,4.0502,-20.1009
rg,1625188725292211373,1,0.458,-0.2087,0.9114,763,2.0142,-10.5591,13.1836,91,0.8314,0.4652,-29.5817,-18.6009,32,0.9034,8482,4.0502,-19.4882
rg,1625188725292230040,1,0.4634,-0.2124,0.9114,764,2.5024,-10.376,14.2212,91,0.8324,0.4652,-29.6603,-18.654,32,0.9034,8132,4.0502,-18.8288
rg,1625188725292325522,1,0.4792,-0.2083,0.9146,765,2.0142,-10.0708,14.1602,91,0.8324,0.4662,-29.7535,-18.7117,32,0.9044,8380,4.0502,-18.1823
rg,1625188725292362670,1,0.4734,-0.2021,0.9092,766,2.3193,-8.606,13.1226,91,0.8324,0.4662,-29.7724,-18.7196,32,0.9044,8243,4.0502,-17.6052
rg,1625188725292385188,1,0.4487,-0.2046,0.9092,767,1.0376,-6.5918,12.085,91,0.8314,0.4662,-29.7031,-18.7349,32,0.9044,8395,4.0502,-17.1067
rg,1625188725292410836,1,0.4338,-0.2068,0.9084,768,1.4648,-7.7515,12.3291,91,0.8324,0.4652,-29.6476,-18.7501,32,0.9044,8277,4.0502,-16.5784
rg,1625188725642125466,1,0.4504,-0.2131,0.9045,769,1.709,-11.3525,13.7939,91,0.8314,0.4662,-29.7506,-18.8823,32,0.9034,25320,4.0502,-15.8817
rg,1625188725642178836,1,0.4514,-0.2146,0.9092,770,1.0986,-10.6812,13.1836,91,0.8314,0.4662,-29.828,-18.966,32,0.9034,8798,4.0502,-15.2829
rg,1625188725642199540,1,0.4558,-0.2131,0.9082,771,1.5259,-10.9863,13.3057,91,0.8314,0.4662,-29.9159,-19.0348,32,0.9034,9867,4.0502,-14.6579
rg,1625188725642219558,1,0.4526,-0.2129,0.9084,772,2.8076,-11.9019,14.1602,91,0.8314,0.4662,-30.0168,-19.0755,32,0.9034,7676,4.0502,-13.983
rg,1625188725642251373,1,0.4492,-0.21,0.9143,773,2.3804,-10.9253,12.6953,91,0.8324,0.4662,-30.0849,-19.0822,32,0.9034,7852,4.0502,-13.3931
rg,1625188725642272873,1,0.4592,-0.2141,0.9075,774,2.6855,-11.2915,12.8784,91,0.8314,0.4672,-30.1858,-19.0997,32,0.9034,7729,4.0502,-12.7817
rg,1625188725642322781,1,0.457,-0.2185,0.9075,775,2.7466,-12.4512,13.5498,91,0.8314,0.4672,-30.3116,-19.14,32,0.9034,7890,4.0502,-12.1178
rg,1625188725642343892,1,0.4617,-0.217,0.9023,776,3.0518,-11.7798,14.0991,91,0.8324,0.4662,-30.4185,-19.1629,32,0.9034,8102,4.0502,-11.4515
rg,1625188725642362744,1,0.4688,-0.209,0.905,777,2.8076,-10.0098,13.9771,91,0.8314,0.4662,-30.4654,-19.1807,32,0.9034,15103,4.0502,-10.8172
rg,1625188725642380281,1,0.4629,-0.2112,0.9011,778,2.2583,-8.4839,13.6719,91,0.8324,0.4652,-30.4483,-19.2086,32,0.9034,8032,4.0502,-10.2164
rg,1625188725642400114,1,0.4551,-0.2114,0.9004,779,2.8076,-8.0566,14.5874,91,0.8324,0.4662,-30.389,-19.2302,32,0.9034,8028,4.0502,-9.5826
rg,1625188725642419540,1,0.457,-0.21,0.9084,780,2.9297,-8.8501,16.1743,91,0.8324,0.4662,-30.3374,-19.2782,32,0.9034,7891,4.0502,-8.872
rg,1625188725642438707,1,0.4514,-0.2053,0.9011,781,3.1128,-8.728,14.7705,91,0.8324,0.4662,-30.2989,-19.277,32,0.9034,8024,4.0502,-8.2294
rg,1625188725642456781,1,0.4602,-0.1931,0.9031,782,2.6245,-8.1177,13.7329,91,0.8324,0.4662,-30.2724,-19.2371,32,0.9034,8812,4.0502,-7.6571
rg,1625188725642474003,1,0.4629,-0.1948,0.9106,783,2.0752,-9.0942,15.686,91,0.8334,0.4682,-30.2065,-19.2845,32,0.9044,8074,4.0502,-7.0651
rg,1625188725642493077,1,0.4551,-0.21,0.9121,784,0.7935,-7.3242,13.7939,91,0.8314,0.4672,-30.1286,-19.3462,32,0.9024,7936,4.0502,-6.4849
rg,1625188725642509595,1,0.4451,-0.2212,0.9194,785,1.5869,-7.6904,14.4653,91,0.8334,0.4682,-30.0284,-19.4118,32,0.9044,8101,4.0502,-5.8602
rg,1625188725642528170,1,0.4436,-0.2202,0.9214,786,2.2583,-7.7515,14.1602,91,0.8334,0.4692,-29.972,-19.4177,32,0.9044,8002,4.0502,-5.2423
rg,1625188725642605281,1,0.4421,-0.2129,0.9214,787,2.7466,-9.6436,13.7939,91,0.8324,0.4682,-29.9551,-19.4116,32,0.9034,8152,4.0502,-4.629
rg,1625188725642623688,1,0.4487,-0.2053,0.9141,788,2.8687,-10.1318,14.6484,91,0.8334,0.4682,-29.9678,-19.41,32,0.9044,7992,4.0502,-3.9775
rg,1625188725642643021,1,0.4565,-0.2058,0.9065,789,2.9907,-11.0474,15.686,91,0.8334,0.4692,-30.0195,-19.4409,32,0.9044,8178,4.0502,-3.3301
rg,1625188725642679244,1,0.4534,-0.2112,0.9121,790,1.77,-9.8877,13.2446,91,0.8334,0.4662,-30.0476,-19.4664,32,0.9034,8058,4.0502,-2.7357
rg,1625188725642698410,1,0.4497,-0.2173,0.9111,791,2.4414,-10.1929,14.4653,91,0.8334,0.4692,-30.0611,-19.5083,32,0.9044,8230,4.0502,-2.0763
rg,1625188725642715984,1,0.4451,-0.2139,0.9102,792,3.1738,-11.2305,14.6484,91,0.8334,0.4692,-30.1032,-19.5237,32,0.9044,8091,4.0502,-1.3974
rg,1625188725642734095,1,0.4478,-0.2144,0.915,793,2.1362,-11.1694,13.9771,91,0.8334,0.4692,-30.1508,-19.5637,32,0.9044,8344,4.0502,-0.7497
rg,1625188725642751003,1,0.459,-0.2095,0.9165,794,2.8076,-12.207,14.4043,91,0.8304,0.4692,-30.2516,-19.5823,32,0.9044,8198,4.0502,-0.0734
rg,1625188725642767670,1,0.4587,-0.209,0.9072,795,2.2583,-10.8032,13.5498,91,0.8334,0.4692,-30.3151,-19.5979,32,0.9044,8352,4.0502,0.5458
rg,1625188725642784429,1,0.4504,-0.2046,0.908,796,3.2959,-10.437,13.3667,91,0.8344,0.4702,-30.3496,-19.5531,32,0.9054,10159,4.0502,1.1449
rg,1625188725642802540,1,0.4521,-0.2058,0.9055,797,2.7466,-11.4136,14.7705,91,0.8344,0.4702,-30.4058,-19.5759,32,0.9044,8443,4.0502,1.8238
rg,1625188725642819799,1,0.4561,-0.2031,0.9128,798,2.4414,-10.6812,14.0991,91,0.8344,0.4702,-30.4431,-19.5793,32,0.9044,8263,4.0502,2.4563
rg,1625188725642836521,1,0.4619,-0.2141,0.9089,799,2.3804,-10.5591,13.7329,91,0.8314,0.4702,-30.4903,-19.6064,32,0.9044,8497,4.0502,3.0862
rg,1625188725642855799,1,0.4485,-0.2107,0.9099,800,2.9297,-10.0098,15.1978,91,0.8344,0.4702,-30.4692,-19.6284,32,0.9054,8300,4.0502,3.7656
rg,1625188726003789021,1,0.4539,-0.217,0.9062,801,4.2114,-10.3149,15.3809,91,0.8344,0.4702,-30.477,-19.6052,32,0.9044,27425,4.0502,4.4577
rg,1625188726003830021,1,0.4546,-0.2083,0.9146,802,3.7231,-9.9487,14.4043,91,0.8344,0.4712,-30.4737,-19.5694,32,0.9044,8771,4.0502,5.0973
rg,1625188726003850669,1,0.4578,-0.2004,0.9121,803,3.54,-9.1553,14.2212,91,0.8344,0.4712,-30.4547,-19.5146,32,0.9044,9718,4.0502,5.7083
rg,1625188726003871003,1,0.46,-0.2007,0.9075,804,3.7231,-8.3618,14.7095,91,0.8344,0.4702,-30.4091,-19.4625,32,0.9044,7799,4.0502,6.3311
rg,1625188726003919836,1,0.4587,-0.209,0.9111,805,2.5024,-9.0942,15.2588,91,0.8344,0.4702,-30.377,-19.4965,32,0.9044,7748,4.0502,6.9993
rg,1625188726003940966,1,0.4485,-0.209,0.9131,806,2.8687,-7.6294,15.1367,91,0.8344,0.4702,-30.2709,-19.497,32,0.9054,8590,4.0502,7.6373
rg,1625188726003959947,1,0.4468,-0.2036,0.9175,807,2.6245,-7.3242,14.2822,91,0.8334,0.4702,-30.1593,-19.4786,32,0.9044,8354,4.0502,8.2298
rg,1625188726003979429,1,0.4419,-0.2039,0.9172,808,3.3569,-8.4839,14.5264,91,0.8304,0.4702,-30.0875,-19.4353,32,0.9044,7860,4.0502,8.8464
rg,1625188726003997688,1,0.4414,-0.207,0.9131,809,2.9907,-10.0708,14.7095,91,0.8344,0.4702,-30.0775,-19.4343,32,0.9054,7817,4.0502,9.5015
rg,1625188726004014966,1,0.448,-0.2046,0.9128,810,2.9297,-10.498,14.5264,91,0.8344,0.4712,-30.1003,-19.4301,32,0.9044,7939,4.0502,10.1527
rg,1625188726004035410,1,0.4487,-0.2073,0.9172,811,3.2349,-10.9253,14.7705,91,0.8344,0.4712,-30.1318,-19.4269,32,0.9044,7837,4.0502,10.8234
rg,1625188726004055095,1,0.4465,-0.2073,0.9189,812,2.6245,-10.376,12.9395,91,0.8344,0.4712,-30.16,-19.4028,32,0.9034,7995,4.0502,11.4051
rg,1625188726004075243,1,0.4514,-0.2048,0.9119,813,3.418,-11.8408,14.8315,91,0.8354,0.4722,-30.2338,-19.4005,32,0.9054,11010,4.0502,12.0921
rg,1625188726004096021,1,0.4551,-0.1987,0.9106,814,2.1362,-11.0474,14.0381,91,0.8354,0.4712,-30.3114,-19.4156,32,0.9054,7971,4.0502,12.7499
rg,1625188726004116595,1,0.4517,-0.2078,0.9153,815,1.8311,-11.0474,14.8926,91,0.8344,0.4712,-30.3445,-19.4781,32,0.9054,7921,4.0502,13.4299
rg,1625188726004135521,1,0.4497,-0.2139,0.917,816,1.709,-10.376,14.5874,91,0.8354,0.4712,-30.3472,-19.5448,32,0.9054,7975,4.0502,14.0921
rg,1625188726004153095,1,0.4551,-0.2156,0.907,817,2.3193,-10.437,13.1836,91,0.8354,0.4722,-30.3682,-19.5475,32,0.9054,7935,4.0502,14.7898
rg,1625188726004172429,1,0.4514,-0.2048,0.9136,818,2.8687,-9.9487,14.4653,91,0.8344,0.4722,-30.3646,-19.5398,32,0.9054,8048,4.0502,15.4288
rg,1625188726004189892,1,0.4556,-0.2068,0.9087,819,2.1362,-9.8877,14.4653,91,0.8354,0.4722,-30.3707,-19.5694,32,0.9054,7967,4.0502,16.0711
rg,1625188726004232632,1,0.4504,-0.207,0.908,820,2.0142,-9.3994,15.3809,94,0.8344,0.4722,-30.3524,-19.5921,32,0.9044,8046,4.0502,16.7011
rg,1625188726004252984,1,0.4495,-0.2058,0.9146,821,1.8921,-9.9487,14.5874,94,0.8344,0.4712,-30.3422,-19.6256,32,0.9044,7979,4.0502,17.3454
rg,1625188726004270373,1,0.4487,-0.2017,0.9092,822,1.6479,-9.8267,14.3433,94,0.8344,0.4732,-30.3356,-19.6541,32,0.9054,8071,4.0502,17.9729
rg,1625188726004288410,1,0.446,-0.2056,0.9104,823,1.9531,-9.7656,14.4653,94,0.8344,0.4742,-30.3173,-19.6798,32,0.9054,12722,4.0502,18.6086
rg,1625188726004307558,1,0.4514,-0.2009,0.9153,824,2.1973,-9.3384,14.2822,94,0.8354,0.4742,-30.2939,-19.6735,32,0.9054,8182,4.0502,19.2221
rg,1625188726004324466,1,0.4512,-0.2075,0.9128,825,1.8921,-9.2163,13.3057,94,0.8354,0.4752,-30.2795,-19.6744,32,0.9054,8109,4.0502,19.8001
rg,1625188726004343299,1,0.4575,-0.2061,0.9121,826,2.0752,-8.7891,13.1836,94,0.8344,0.4752,-30.237,-19.6784,32,0.9044,8160,4.0502,20.3939
rg,1625188726004361614,1,0.4517,-0.2041,0.917,827,2.3804,-8.2397,14.0991,94,0.8354,0.4762,-30.176,-19.6576,32,0.9054,8132,4.0502,20.9855
rg,1625188726004378725,1,0.4478,-0.2065,0.9204,828,2.3193,-7.9346,13.6108,94,0.8354,0.4762,-30.1013,-19.6297,32,0.9044,8896,4.0502,21.5529
rg,1625188726004396855,1,0.4431,-0.2058,0.9121,829,2.4414,-8.4229,13.9771,94,0.8354,0.4762,-30.0416,-19.6117,32,0.9054,8671,4.0502,22.1458
rg,1625188726004414429,1,0.4458,-0.2095,0.918,830,1.8311,-8.606,13.6719,94,0.8354,0.4762,-29.9768,-19.6078,32,0.9054,8265,4.0502,22.7186
rg,1625188726004431762,1,0.4377,-0.2051,0.9211,831,2.5024,-9.0332,14.4653,94,0.8354,0.4762,-29.9203,-19.5943,32,0.9054,8187,4.0502,23.3385
rg,1625188726004448540,1,0.4404,-0.2092,0.9106,832,2.5024,-10.7422,14.2822,94,0.8354,0.4772,-29.9457,-19.6072,32,0.9054,9773,4.0502,23.9858
rg,1625188726359972317,1,0.446,-0.2107,0.9146,833,2.4414,-11.7798,13.7329,94,0.8354,0.4772,-30.0397,-19.6115,32,0.9054,28188,4.0502,24.6218
rg,1625188726360031077,1,0.4519,-0.2007,0.9209,834,2.0752,-11.0474,14.1602,94,0.8344,0.4772,-30.0896,-19.6165,32,0.9054,10118,4.0502,25.2556
rg,1625188726360092132,1,0.4534,-0.2061,0.9089,835,1.9531,-10.376,15.0757,94,0.8354,0.4772,-30.1115,-19.6619,32,0.9054,7795,4.0502,25.9292
rg,1625188726360113502,1,0.4451,-0.2056,0.9199,836,1.5259,-8.9722,13.6719,94,0.8354,0.4772,-30.0728,-19.6719,32,0.9054,7744,4.0502,26.5143
rg,1625188726360132428,1,0.438,-0.2063,0.9177,837,1.709,-9.4604,15.0146,94,0.8354,0.4782,-30.0233,-19.709,32,0.9054,7868,4.0502,27.1663
rg,1625188726360150651,1,0.4429,-0.2068,0.9102,838,2.1973,-10.8032,14.7095,94,0.8364,0.4782,-30.046,-19.7353,32,0.9064,7784,4.0502,27.8288
rg,1625188726360168632,1,0.4482,-0.2043,0.9131,839,2.1973,-11.4746,14.6484,94,0.8364,0.4782,-30.0813,-19.7951,32,0.9064,8098,4.0502,28.5128
rg,1625188726360187039,1,0.4475,-0.2083,0.9165,840,1.9531,-11.2915,15.686,94,0.8354,0.4792,-30.1087,-19.8538,32,0.9054,7826,4.0502,29.2243
rg,1625188726360203965,1,0.4465,-0.2087,0.9126,841,1.77,-10.8032,15.625,94,0.8364,0.4792,-30.1183,-19.9162,32,0.9064,7900,4.0502,29.9262
rg,1625188726360220484,1,0.4434,-0.207,0.917,842,1.6479,-10.9253,14.7705,94,0.8364,0.4792,-30.1356,-19.9615,32,0.9064,7868,4.0502,30.5909
rg,1625188726360237262,1,0.4441,-0.2073,0.9236,843,2.3193,-9.9487,12.8784,94,0.8364,0.4792,-30.1352,-19.9207,32,0.9054,7906,4.0502,31.1526
rg,1625188726360254151,1,0.4458,-0.2075,0.9243,844,2.5024,-11.5967,14.8926,94,0.8364,0.4792,-30.1717,-19.9318,32,0.9064,7841,4.0502,31.8291
rg,1625188726360271169,1,0.4502,-0.2031,0.9119,845,2.3804,-12.0239,14.7705,94,0.8364,0.4792,-30.2454,-19.9463,32,0.9054,8147,4.0502,32.5058
rg,1625188726360287706,1,0.4485,-0.2078,0.9114,846,1.6479,-10.8032,13.4277,94,0.8364,0.4792,-30.2841,-19.9623,32,0.9064,7837,4.0502,33.1102
rg,1625188726360304132,1,0.4451,-0.2129,0.9148,847,1.4038,-9.7046,12.6953,94,0.8364,0.4792,-30.2786,-19.9728,32,0.9054,7990,4.0502,33.6699
rg,1625188726360321021,1,0.4412,-0.2053,0.9163,848,1.77,-9.3384,13.3057,94,0.8364,0.4792,-30.2449,-19.9587,32,0.9054,7933,4.0502,34.2401
