name,time,activity,ax,ay,az,batch_val,gx,gy,gz,ibat,index,middle,pitch,roll,temp,thumb,ts,vbat,yaw
rg,1625137585793246303,1,0.0308,-0.4067,0.9106,1,-65.7959,-12.3901,13.9771,81,1.1115,1.0535,-27.2976,-47.9964,31,0.7304,19930,4.0568,146.3812
rg,1625137585793276240,1,0.0022,-0.437,0.9231,2,-73.0591,-18.2495,18.3105,81,1.1085,1.0515,-26.2668,-50.4304,31,0.7304,8575,4.0568,147.0573
rg,1625137585793296174,1,0.0256,-0.4917,0.925,3,-75.5005,-23.1934,18.1274,81,1.1065,1.0485,-25.5808,-53.1803,31,0.7294,7974,4.0568,148.1715
rg,1625137585793314996,1,0.0391,-0.4932,0.9224,4,-75.7446,-37.7808,17.5781,81,1.1045,1.0465,-25.0745,-55.8944,31,0.7304,7989,4.0568,149.4987
rg,1625137585793332874,1,0.0447,-0.5081,0.9319,5,-73.3032,-47.6074,14.1602,81,1.1035,1.0435,-24.8608,-58.5397,31,0.7304,8010,4.0568,151.0921
rg,1625137585793361792,1,0.0483,-0.5713,0.9312,6,-71.4111,-52.9175,12.146,81,1.1025,1.0425,-24.9679,-61.139,31,0.7314,7994,4.0568,153.0829
rg,1625137585793380189,1,0.0581,-0.5862,0.9185,7,-64.9414,-68.7256,7.6904,81,1.1025,1.0415,-25.2318,-63.7208,31,0.7314,8004,4.0568,155.4038
rg,1625137585793397769,1,0.1257,-0.5928,0.8921,8,-55.7251,-78.2471,7.1411,81,1.1015,1.0415,-25.7017,-66.0808,31,0.7314,8046,4.0568,158.1261
rg,1625137585793414943,1,0.2017,-0.5796,0.8467,9,-51.6968,-80.8105,9.0332,81,1.1015,1.0425,-26.1281,-68.2963,31,0.7314,8059,4.0568,161.1058
rg,1625137585793431801,1,0.0959,-0.4558,0.7297,10,-69.7632,-35.0952,32.1045,81,1.0795,1.0435,-24.7572,-70.463,31,0.7284,33395,4.0568,162.4025
rg,1625137585793449994,1,0.0776,-0.5684,0.7815,11,-101.2573,-43.457,46.5088,81,1.0515,1.0295,-22.9121,-74.0687,31,0.7244,8207,4.0568,164.2124
rg,1625137585793468019,1,0.2136,-0.71,0.7925,12,-125.061,-59.3262,61.8896,81,0.9875,1.0035,-20.754,-78.9212,31,0.7194,8116,4.0568,166.7918
rg,1625137585793485507,1,0.439,-1.2097,0.7751,13,57.373,103.8818,5.249,178,0.7604,0.2481,-19.1363,-72.4749,31,0.6823,14075,4.0007,161.0601
rg,1625137585793502625,1,0.1348,-0.7883,0.5454,14,101.0742,143.5547,11.1694,178,0.7824,0.2561,-16.2957,-66.0687,31,0.6853,8013,4.0007,155.3793
rg,1625137585793519799,1,-0.1003,-0.6831,0.4009,15,69.7021,148.6816,24.231,178,0.8024,0.2641,-11.9356,-61.7793,31,0.6873,7877,4.0007,150.2667
rg,1625137585793546791,1,-0.22,-0.7104,0.4558,16,49.4385,142.6392,23.3154,178,0.8134,0.2671,-7.6565,-59.7599,31,0.6893,7770,4.0007,146.3554
rg,1625137585793565020,1,-0.4463,-0.8096,0.564,17,4.2114,74.8901,18.6157,178,0.8164,0.2711,-4.3037,-59.1821,31,0.6903,7934,4.0007,144.1217
rg,1625137585793582675,1,-0.2725,-0.8933,0.6101,18,-72.4487,-65.0024,18.1885,178,0.8024,0.2751,-4.2153,-62.1207,31,0.6923,7819,4.0007,146.7249
rg,1625137585793599515,1,-0.0427,-0.9622,0.6965,19,-103.0273,-114.8682,17.5171,178,0.7664,0.2811,-5.6254,-66.3626,31,0.6923,7980,4.0007,151.1666
rg,1625137585793616633,1,0.2112,-1.176,0.6028,20,-115.9058,-142.334,13.0005,178,0.7324,0.2791,-7.3013,-71.4647,31,0.6883,7884,4.0007,156.6879
rg,1625137585793633621,1,0.4041,-1.3896,0.4592,21,-81.604,-112.3047,36.9873,178,0.7143,0.2681,-7.4716,-75.3339,31,0.6783,8020,4.0007,161.4596
rg,1625137585793650442,1,0.4429,-1.3674,0.553,22,-53.7109,-73.1812,36.6211,178,0.7133,0.2441,-7.0912,-77.594,31,0.6823,7949,4.0007,164.6382
rg,1625137585793667375,1,0.1926,-1.2024,0.3867,23,68.4204,-12.146,36.1328,178,0.7083,0.2361,-5.8683,-74.7238,31,0.6793,8064,4.0007,165.4261
rg,1625137585793683992,1,0.2339,-0.7803,0.2571,24,103.0884,-43.0908,19.9585,178,0.7083,0.2291,-6.0074,-70.6726,31,0.6763,8081,4.0007,167.2886
rg,1625137585793700629,1,0.0745,-0.5242,0.0447,25,132.3242,-24.5361,-11.4746,178,0.7083,0.2251,-6.3569,-66.3072,31,0.6733,8117,4.0007,168.1457
rg,1625137585793717098,1,-0.1069,-0.0984,-0.0286,26,135.8643,18.4326,-27.1606,178,0.7103,0.2281,-5.255,-61.7822,31,0.6723,8040,4.0007,167.1922
rg,1625137585793734586,1,-0.2434,-0.0183,-0.0134,27,34.668,74.646,9.2163,178,0.7123,0.2371,-1.2475,-60.4515,31,0.6723,8161,4.0007,164.7993
rg,1625137585793751352,1,-0.2278,-0.1438,0.0437,28,-43.7012,52.7344,30.5176,178,0.7153,0.2371,0.829,-64.8492,31,0.6743,8155,4.0007,165.02
rg,1625137585793767859,1,0.1194,-0.8716,1.0955,29,-182.5562,-24.1699,32.4097,178,0.7224,0.2501,1.3075,-71.3139,31,0.6763,10318,4.0007,166.1849
rg,1625137585793784458,1,0.2371,-1.7349,0.813,30,-107.666,2.3193,27.4048,178,0.7284,0.2551,2.0513,-75.341,31,0.6803,8115,4.0007,166.4237
rg,1625137585793801038,1,0.3538,-1.6672,0.7759,31,28.8696,40.5884,14.4653,178,0.7454,0.2561,2.5243,-73.8295,31,0.6823,8154,4.0007,165.0148
rg,1625137585793817637,1,0.1418,-1.0693,0.8281,32,113.4033,85.7544,-2.9907,178,0.7704,0.2611,3.1696,-68.6183,31,0.6833,8460,4.0007,161.7473
rg,1625137586182693494,1,-0.3044,-0.5996,0.4041,33,90.7593,82.9468,12.085,178,0.8254,0.2791,5.9418,-64.7288,31,0.6863,26081,4.0007,158.9465
rg,1625137586182737010,1,-0.4941,-0.6028,0.4526,34,33.5083,12.8784,5.4321,178,0.8314,0.2861,7.4058,-63.0332,31,0.6883,8743,4.0007,158.6362
rg,1625137586182758092,1,-0.2905,-0.7554,0.54,35,-77.6367,-134.5215,11.7188,178,0.8154,0.2911,5.8967,-65.2048,31,0.6903,8619,4.0007,163.7548
rg,1625137586182778803,1,0.1619,-0.9863,0.6895,36,-132.019,-213.4399,7.9956,178,0.7774,0.2941,2.4152,-69.4905,31,0.6913,8453,4.0007,-188.1761
rg,1625137586182799478,1,0.27,-1.1399,0.6301,37,-125.7935,-209.3506,3.9062,178,0.7414,0.2961,-0.1816,-73.3811,31,0.6893,8213,4.0007,-180.3748
rg,1625137586182818410,1,0.5286,-1.3689,0.541,38,-81.3599,-179.8706,36.0107,178,0.7194,0.2871,-1.3933,-76.5312,31,0.6833,8498,4.0007,-173.0455
rg,1625137586182838084,1,0.6553,-1.2236,0.615,39,-26.001,-90.0879,39.917,178,0.7153,0.2581,-1.5792,-77.1844,31,0.6893,8604,4.0007,-169.1854
rg,1625137586182857925,1,0.4341,-0.8933,0.4019,40,80.0781,-29.0527,36.9263,178,0.7143,0.2341,-1.3061,-73.5963,31,0.6873,16807,4.0007,-167.7342
rg,1625137586182878766,1,0.1021,-0.5425,0.0862,41,111.6333,3.6621,-22.0947,178,0.7143,0.2301,-2.46,-69.3966,31,0.6853,7857,4.0007,-168.1593
rg,1625137586182899033,1,-0.1108,-0.2026,-0.0071,42,115.9058,10.8032,-31.25,178,0.7163,0.2271,-1.8822,-65.9527,31,0.6843,7920,4.0007,-169.6334
rg,1625137586182918077,1,-0.1719,-0.125,0.0073,43,76.2329,55.4199,-17.395,178,0.7194,0.2361,0.3038,-63.3427,31,0.6843,7785,4.0007,-171.8705
rg,1625137586182941641,1,-0.1587,-0.1914,0.1663,44,-38.7573,39.856,23.9258,178,0.7234,0.2371,3.0505,-64.4322,31,0.6853,7909,4.0007,-172.8907
rg,1625137586182966039,1,0.2371,-0.9402,1.0879,45,-155.3345,-10.0708,35.0952,178,0.7274,0.2501,3.7083,-69.6647,31,0.6863,8848,4.0007,-171.9061
rg,1625137586182985953,1,0.3772,-1.4448,1.3081,46,-155.3345,5.4932,35.2173,178,0.7354,0.2591,4.5507,-75.0046,31,0.6903,8275,4.0007,-171.6126
rg,1625137586183005294,1,0.3936,-1.8274,0.7124,47,-20.4468,37.2314,26.8555,178,0.7504,0.2611,5.337,-75.6629,31,0.6903,8559,4.0007,-172.7681
rg,1625137586183117502,1,0.2009,-1.2717,0.7451,48,82.9468,98.8159,8.1177,178,0.7744,0.2701,6.2202,-72.0865,31,0.6923,8660,4.0007,-176.4529
rg,1625137586183155071,1,-0.0386,-0.6848,0.4807,49,135.6201,119.0796,15.3198,178,0.7964,0.2761,8.3175,-66.5286,31,0.6943,8306,4.0007,-180.6573
rg,1625137586183306200,1,-0.1589,-0.5139,0.3635,50,120.3003,127.8687,21.9727,178,0.8124,0.2801,11.5368,-61.9938,31,0.6963,8695,4.0007,-184.8701
rg,1625137586183342251,1,-0.4187,-0.4734,0.4648,51,42.7856,108.0933,20.5078,178,0.8184,0.2871,15.128,-60.5148,31,0.6983,8039,4.0007,-188.2383
rg,1625137586183361128,1,-0.47,-0.7676,0.5227,52,-77.5757,-30.9448,21.1182,178,0.8124,0.2921,15.7516,-63.0139,31,0.7003,8161,4.0007,-186.6527
rg,1625137586183379727,1,-0.0098,-1.0544,0.7944,53,-154.9072,-162.4146,12.2681,178,0.7754,0.2951,12.907,-67.2162,31,0.6993,10328,4.0007,-180.2286
rg,1625137586183403106,1,0.1655,-1.2146,0.7869,54,-148.8037,-175.5371,7.9346,178,0.7424,0.3001,10.2639,-70.6344,31,0.6923,8248,4.0007,-173.5536
rg,1625137586183421280,1,0.4258,-1.4607,0.5698,55,-90.4541,-155.9448,36.5601,178,0.7314,0.2821,8.757,-73.0808,31,0.6923,8106,4.0007,-167.0554
rg,1625137586183439379,1,0.5312,-1.3916,0.6682,56,-0.3662,-54.1992,37.6587,178,0.7244,0.2671,8.5021,-72.3682,31,0.6963,8295,4.0007,-164.4694
rg,1625137586183457978,1,0.4998,-1.1646,0.4619,57,70.9229,-32.7759,49.8047,178,0.7204,0.2491,8.8061,-69.0889,31,0.6943,8368,4.0007,-162.5707
rg,1625137586183476559,1,0.3938,-0.978,0.3755,58,88.6841,-11.7188,22.9492,178,0.7174,0.2331,7.8423,-64.7837,31,0.6913,8980,4.0007,-163.1174
rg,1625137586183494918,1,0.0134,-0.5063,0.0952,59,131.6528,26.6113,-27.4658,178,0.7194,0.2291,6.9995,-60.2831,31,0.6883,8929,4.0007,-164.6708
rg,1625137586183517111,1,-0.2368,-0.1628,-0.0581,60,138.5498,66.7114,-28.9917,178,0.7214,0.2311,9.123,-56.1736,31,0.6853,8358,4.0007,-167.6345
rg,1625137586183537266,1,-0.2739,0.0076,-0.0408,61,52.3682,65.3687,9.9487,178,0.7224,0.2351,13.1753,-54.7049,31,0.6833,8507,4.0007,-169.6067
rg,1625137586183555106,1,-0.2322,-0.0371,0.0122,62,-24.9634,39.4897,24.8413,178,0.7254,0.2421,14.944,-59.2319,31,0.6833,8274,4.0007,-169.3388
rg,1625137586183574910,1,-0.0073,-0.6377,0.7087,63,-194.6411,-19.2871,24.5972,178,0.7294,0.2541,14.9314,-65.9742,31,0.6843,8451,4.0007,-167.9493
rg,1625137586183598437,1,0.2207,-1.8052,1.261,64,-175.415,34.2407,33.1421,178,0.7344,0.2631,15.8586,-72.7265,31,0.6853,8311,3.9941,-168.6336
rg,1625137586553777668,1,0.0752,-0.8489,0.6064,65,125.3662,84.7168,-1.2817,197,0.7884,0.2791,16.3527,-66.5468,31,0.6893,25452,3.9941,-171.3455
rg,1625137586553837375,1,0.0027,-0.6523,0.365,66,153.7476,73.3643,13.6719,197,0.8154,0.2841,17.4769,-60.8952,31,0.6883,8831,3.9941,-173.8087
rg,1625137586553859642,1,-0.1824,-0.5171,0.345,67,83.4961,77.5757,13.6108,197,0.8354,0.2931,19.4563,-58.1659,31,0.6873,8283,3.9941,-176.2843
rg,1625137586553902676,1,-0.3896,-0.657,0.4502,68,18.2495,23.4985,8.0566,197,0.8514,0.3031,20.4825,-57.5523,31,0.6883,8456,3.9941,-176.9117
rg,1625137586553924610,1,-0.4124,-0.739,0.4751,69,-8.606,-33.2031,7.8125,197,0.8554,0.3092,18.8702,-57.7627,31,0.6893,8038,3.9941,-173.2832
rg,1625137586553944043,1,-0.1255,-0.8416,0.5269,70,-63.7817,-139.1602,22.3389,197,0.8344,0.3112,16.259,-58.6523,31,0.6903,8286,3.9941,-167.82
rg,1625137586553962161,1,0.2747,-1.0142,0.7034,71,-112.854,-191.5894,20.874,197,0.7804,0.3142,12.0876,-61.2277,31,0.6923,8296,3.9941,-160.4918
rg,1625137586553982298,1,0.3801,-1.2397,0.5586,72,-112.2437,-169.6777,18.0054,197,0.7224,0.3162,8.6163,-64.6986,31,0.6893,8500,3.9941,-154.0251
rg,1625137586554001083,1,0.4993,-1.3167,0.3516,73,-51.3916,-65.979,52.1851,197,0.7003,0.2701,8.3475,-66.6316,31,0.6763,14983,3.9941,-150.7693
rg,1625137586554038800,1,0.2908,-1.0867,0.7444,74,33.5083,21.3013,19.8975,197,0.6993,0.2421,8.6155,-64.9191,31,0.6723,9869,3.9941,-151.1779
rg,1625137586554060623,1,0.1221,-0.9629,0.449,75,79.4067,2.9907,45.5322,197,0.6993,0.2301,9.6958,-61.6259,31,0.6693,11037,3.9941,-150.4796
rg,1625137586554081446,1,-0.124,-0.6084,0.0195,76,119.751,-9.5825,-22.2778,197,0.6983,0.2181,8.8511,-57.8601,31,0.6653,8472,3.9941,-150.7609
rg,1625137586554100008,1,-0.189,-0.3784,0.0122,77,131.7749,-14.9536,-42.9077,197,0.6993,0.2141,7.8357,-53.6921,31,0.6633,7749,3.9941,-151.361
rg,1625137586554118218,1,-0.321,-0.0291,0.075,78,100.5249,30.9448,-39.7949,197,0.7003,0.2171,9.4629,-49.664,31,0.6613,8615,3.9941,-153.2157
rg,1625137586554136132,1,-0.3721,-0.0994,0.1455,79,-34.3018,0.6714,12.3901,197,0.7023,0.2201,11.7267,-50.7126,31,0.6623,8980,3.9941,-152.8834
rg,1625137586554155658,1,-0.0813,-0.8469,1.0059,80,-182.312,-113.5254,26.3672,197,0.7063,0.2211,9.6008,-56.7397,31,0.6643,8676,3.9941,-148.4228
rg,1625137586554182186,1,0.3018,-1.4636,1.6177,81,-198.8525,-139.4043,31.25,197,0.7113,0.2241,7.2575,-63.2742,31,0.6683,8015,3.9941,-142.7856
rg,1625137586554201341,1,0.5603,-1.9036,0.6599,82,-18.3105,-68.6035,54.9316,197,0.7224,0.2321,7.1297,-63.8429,31,0.6753,8825,3.9941,-139.3597
rg,1625137586554220367,1,0.6953,-1.2891,0.6611,83,96.2524,37.7808,37.6587,197,0.7444,0.2381,7.9319,-60.041,31,0.6803,9786,3.9941,-140.0351
rg,1625137586554243097,1,0.4036,-0.7009,0.5022,84,137.8174,92.7124,-1.8921,197,0.7724,0.2451,8.6117,-54.795,31,0.6823,8532,3.9941,-143.266
rg,1625137586554261067,1,0.0688,-0.4817,0.196,85,85.2661,163.8184,15.564,197,0.7994,0.2521,12.329,-52.8108,31,0.6833,8699,3.9941,-148.3641
rg,1625137586554278796,1,-0.0635,-0.5256,0.3943,86,41.8091,195.1904,28.6865,197,0.8154,0.2611,17.6611,-52.6248,31,0.6843,8566,3.9941,-154.0834
rg,1625137586554296413,1,-0.4663,-0.8032,0.6216,87,-20.6909,154.7241,26.8555,197,0.8154,0.2661,22.4212,-55.0168,31,0.6863,8751,3.9941,-158.7331
rg,1625137586554313975,1,-0.5237,-0.9631,0.561,88,-92.3462,-30.5176,10.8032,197,0.7854,0.2721,22.2216,-58.3574,31,0.6863,8854,3.9941,-157.4415
rg,1625137586554332037,1,-0.0159,-1.0581,0.7644,89,-118.6523,-156.4941,15.1367,197,0.7454,0.2741,18.7721,-60.7638,31,0.6863,9680,3.9941,-151.2639
rg,1625137586554352378,1,0.3445,-1.2703,0.5388,90,-102.478,-170.7764,38.0249,197,0.7163,0.2711,15.6933,-62.9942,31,0.6803,9578,3.9941,-144.2682
rg,1625137586554370774,1,0.5217,-1.3447,0.408,91,-44.3115,-110.1685,41.748,197,0.7083,0.2621,13.9009,-63.8917,31,0.6813,9077,3.9941,-139.5155
rg,1625137586554388910,1,0.3662,-1.1829,0.4231,92,38.208,-1.77,26.5503,197,0.7043,0.2511,13.677,-62.4757,31,0.6813,9151,3.9941,-139.0357
rg,1625137586554406676,1,0.2214,-0.9297,0.3391,93,55.542,4.3335,33.1421,197,0.7043,0.2411,13.4125,-60.0313,31,0.6783,9117,3.9941,-139.203
rg,1625137586554423664,1,0.033,-0.7532,0.1589,94,99.1211,19.2261,-15.564,197,0.7053,0.2321,12.5008,-56.4773,31,0.6763,9213,3.9941,-140.9619
rg,1625137586554441077,1,-0.1909,-0.302,-0.002,95,131.5918,28.5034,-47.1802,197,0.7073,0.2341,12.4639,-52.7557,31,0.6743,8827,3.9941,-143.2359
rg,1625137586554459214,1,-0.397,-0.1111,0.0303,96,84.7778,83.313,-28.5034,197,0.7093,0.2381,15.6248,-50.4318,31,0.6743,8831,3.9941,-146.6631
rg,1625137586836112850,1,0.1475,-1.4771,1.2563,97,-149.231,-111.3892,27.6489,197,0.7224,0.2471,13.0611,-55.2535,31,0.6793,25492,3.9941,-142.267
rg,1625137586836197270,1,0.4941,-1.7412,0.7307,98,-70.8618,-92.8345,38.5742,197,0.7364,0.2521,12.4711,-54.5506,31,0.6853,8920,3.9941,-139.5784
rg,1625137586836221242,1,0.6042,-1.5183,0.7231,99,72.5708,4.4556,43.457,197,0.7644,0.2591,12.7622,-51.8288,31,0.6873,9052,3.9941,-138.7747
rg,1625137586836242268,1,0.4023,-0.9124,0.5198,100,138.7939,66.8945,-2.5635,197,0.7914,0.2661,13.1571,-47.1003,31,0.6883,8548,3.9941,-141.0582
rg,1625137586836262164,1,0.0544,-0.5173,0.2659,101,111.3892,130.0049,-1.5259,197,0.8114,0.2701,16.0217,-44.2634,31,0.6893,8082,3.9941,-145.1143
rg,1625137586836282449,1,-0.2869,-0.5156,0.5374,102,74.8901,166.9312,8.667,197,0.8244,0.2771,21.5276,-44.3065,31,0.6903,8477,3.9941,-149.7918
rg,1625137586836302642,1,-0.5068,-0.6248,0.5747,103,-1.5259,131.958,9.8267,197,0.8274,0.2811,25.8634,-45.9944,31,0.6913,8416,3.9941,-153.629
rg,1625137586836321834,1,-0.5466,-0.8638,0.5415,104,-85.022,-57.7393,0.8545,197,0.8064,0.2851,24.4406,-49.0206,31,0.6943,8179,3.9941,-151.9158
rg,1625137586836339841,1,0.0317,-1.0796,0.8562,105,-151.4282,-198.6084,10.0098,197,0.7634,0.2901,18.7923,-52.6134,31,0.6943,8544,3.9941,-145.0368
rg,1625137586836358088,1,0.4211,-1.397,0.5933,106,-122.9248,-211.4258,26.9165,197,0.7123,0.2871,13.3956,-56.0972,31,0.6823,10510,3.9941,-137.4499
rg,1625137586836376391,1,0.6619,-1.2217,0.6658,107,-10.437,-66.8335,28.7476,197,0.7093,0.2441,11.4413,-56.0565,31,0.6883,12204,3.9941,-134.5675
rg,1625137586836396936,1,0.4075,-1.051,0.4924,108,80.2612,4.1504,40.3442,197,0.7073,0.2331,11.6931,-53.0206,31,0.6863,9151,3.9941,-133.8537
rg,1625137586836417888,1,0.3596,-0.9055,0.4495,109,80.8716,3.7231,30.8228,197,0.7073,0.2281,10.9989,-50.0283,31,0.6853,8472,3.9941,-134.827
rg,1625137586836461033,1,-0.0156,-0.5447,0.0698,110,123.4131,24.5361,-43.0908,197,0.7083,0.2271,10.0639,-46.6933,31,0.6833,7958,3.9941,-136.9827
rg,1625137586836483764,1,-0.2708,-0.1624,0.0513,111,115.6616,83.0688,-56.8848,197,0.7083,0.2271,12.4875,-43.3881,31,0.6813,8167,3.9941,-141.0556
rg,1625137586836504475,1,-0.4744,-0.0659,0.1318,112,24.0479,95.8862,-4.0283,197,0.7123,0.2281,17.1283,-42.9451,31,0.6823,8231,3.9941,-143.8382
rg,1625137586836523112,1,-0.3464,-0.4495,0.4368,113,-120.0562,-32.4097,24.5972,197,0.7163,0.2341,17.3755,-47.3306,31,0.6843,8618,3.9941,-142.1952
rg,1625137586836542082,1,-0.1328,-0.8604,0.9927,114,-180.542,-95.3369,25.2075,197,0.7224,0.2361,15.2832,-53.2019,31,0.6853,8245,3.9941,-138.365
rg,1625137586836560107,1,0.4041,-1.7197,0.9946,115,-120.5444,-88.4399,47.8516,197,0.7284,0.2441,13.8267,-57.2188,31,0.6883,8244,3.9941,-134.2729
rg,1625137586836593545,1,0.6287,-1.678,0.5518,116,40.2222,14.1602,63.2324,197,0.7454,0.2511,15.008,-55.9265,31,0.6913,8535,3.9941,-133.4789
rg,1625137586836614071,1,0.46,-1.0044,0.5854,117,81.9092,53.5889,36.1938,197,0.7724,0.2561,15.6594,-52.1912,31,0.6933,8311,3.9941,-136.3685
rg,1625137586836632207,1,0.2249,-0.7551,0.4421,118,132.5684,111.5723,-13.916,197,0.7954,0.2601,16.9319,-48.3096,31,0.6953,8543,3.9941,-140.4377
rg,1625137586836652289,1,-0.3684,-0.5283,0.4011,119,64.0259,179.6875,18.8599,197,0.8194,0.2731,22.74,-47.6561,31,0.6963,14014,3.9941,-145.6252
rg,1625137586836671222,1,-0.675,-0.6301,0.3972,120,6.4087,52.002,11.7188,197,0.8234,0.2751,25.228,-48.26,31,0.6983,7858,3.9941,-147.1026
rg,1625137586836689802,1,-0.6575,-0.7078,0.3154,121,-43.8843,-59.8755,2.1973,197,0.8044,0.2821,21.6871,-50.9905,31,0.7003,8599,3.9941,-142.1236
rg,1625137586836708031,1,-0.1528,-0.9407,0.7563,122,-158.6304,-223.2056,13.2446,197,0.7644,0.2881,16.2041,-54.7641,31,0.6993,8896,3.9941,-134.2533
rg,1625137586836726779,1,0.3706,-1.3855,0.6772,123,-151.6113,-270.0806,21.0571,197,0.7284,0.2871,9.9385,-58.9536,31,0.6923,8438,3.9941,-124.5887
rg,1625137586836746471,1,0.7141,-1.6018,0.3157,124,-52.8564,-206.7871,56.2744,197,0.7174,0.2641,6.5068,-60.5579,31,0.6913,9156,3.9941,-116.3451
rg,1625137586836764237,1,0.6321,-1.2021,0.4998,125,61.7676,-42.7856,28.4424,197,0.7133,0.2411,5.4012,-58.1074,31,0.6943,9110,3.9941,-114.339
rg,1625137586836782855,1,0.553,-0.821,0.4407,126,93.6279,-6.5918,29.1748,197,0.7123,0.2301,4.8873,-54.4114,31,0.6923,8827,3.9941,-113.5291
rg,1625137586836801473,1,0.0908,-0.509,0.0691,127,94.2993,30.1514,-5.6152,197,0.7113,0.2301,4.5353,-51.3731,31,0.6923,8776,3.9941,-116.7607
rg,1625137586836827260,1,-0.0896,-0.3508,-0.01,128,108.0322,91.98,-57.373,197,0.7133,0.2281,5.5483,-48.8598,31,0.6893,8738,3.9941,-121.1726
rg,1625137587212482393,1,-0.4741,-0.5083,0.5281,129,-107.8491,23.2544,14.5264,197,0.7204,0.2381,7.6219,-53.0321,31,0.6903,25419,3.9941,-121.5523
rg,1625137587212531317,1,-0.0684,-1.2927,1.1409,130,-167.6636,-99.7314,19.043,197,0.7314,0.2521,5.903,-57.6526,31,0.6943,12188,3.9941,-117.2973
rg,1625137587212552010,1,0.5786,-1.6621,0.6731,131,24.231,-6.7749,60.8521,197,0.7434,0.2461,6.8886,-56.8903,31,0.6953,8473,3.9941,-115.7971
rg,1625137587212571553,1,0.6279,-1.3855,0.6685,132,68.4204,35.8276,45.7764,197,0.7674,0.2561,8.0988,-54.4424,31,0.6963,7909,3.9941,-116.014
rg,1625137587212590245,1,0.2988,-0.8674,0.4785,133,121.521,83.374,-15.8691,197,0.7924,0.2641,8.6654,-50.29,31,0.6973,7597,3.9941,-119.1489
rg,1625137587212608696,1,-0.0813,-0.6284,0.3359,134,101.3794,133.606,-2.5635,197,0.8124,0.2751,11.9997,-47.4411,31,0.6983,8151,3.9941,-123.3831
rg,1625137587212626202,1,-0.271,-0.5972,0.3689,135,79.7119,151.5503,9.0332,197,0.8254,0.2791,16.8503,-46.2789,31,0.6973,9224,3.9941,-127.1052
rg,1625137587212645912,1,-0.5771,-0.6389,0.4417,136,29.7241,79.0405,14.8926,197,0.8264,0.2801,20.2241,-46.0111,31,0.6983,8123,3.9941,-129.1629
rg,1625137587212663530,1,-0.5283,-0.7976,0.4531,137,-89.4165,-106.8115,7.019,197,0.7944,0.2831,17.9586,-48.9312,31,0.6983,8528,3.9941,-125.8115
rg,1625137587212680758,1,-0.0139,-1.0378,0.7085,138,-155.1514,-244.3848,17.4561,197,0.7514,0.2931,11.7457,-53.2572,31,0.6943,8849,3.9941,-117.5665
rg,1625137587212734258,1,0.26,-1.2261,0.7051,139,-144.043,-263.855,31.311,197,0.7234,0.2931,6.5963,-56.4403,31,0.6863,8321,3.9941,-108.0655
rg,1625137587212754487,1,0.8015,-1.3652,0.3862,140,-18.9819,-148.1934,67.5049,197,0.7093,0.2741,4.3028,-57.1649,31,0.6843,11051,3.9941,-101.6669
rg,1625137587212773160,1,0.802,-1.1982,0.5586,141,28.7476,-61.5845,49.0723,197,0.7043,0.2571,3.3251,-56.1942,31,0.6823,8528,3.9941,-98.5686
rg,1625137587212791518,1,0.5896,-0.8523,0.4011,142,73.3643,26.3062,37.2314,197,0.7033,0.2451,3.8287,-53.5467,31,0.6793,8021,3.9941,-98.6279
rg,1625137587212867840,1,0.1653,-0.5229,0.0996,143,75.5005,100.4028,-26.7944,197,0.7023,0.2381,4.5951,-51.7504,31,0.6753,8395,3.9941,-102.5608
rg,1625137587212888107,1,-0.2202,-0.2634,0.0708,144,76.2939,134.5215,-52.7954,197,0.7033,0.2311,8.3538,-50.6348,31,0.6723,8023,3.9941,-109.4885
rg,1625137587212905891,1,-0.4387,-0.2378,0.1846,145,38.6353,208.1299,-48.9502,197,0.7043,0.2441,13.7507,-50.6252,31,0.6693,8912,3.9941,-117.3011
rg,1625137587212922841,1,-0.7517,-0.4983,0.4541,146,-53.7109,109.4971,-3.9673,197,0.7063,0.2551,17.5685,-53.6775,31,0.6693,8132,3.9941,-121.0092
rg,1625137587212939550,1,-0.5024,-1.0066,0.6965,147,-111.6333,-100.3418,5.8594,197,0.7093,0.2581,15.6861,-57.1556,31,0.6703,8790,3.9941,-117.4392
rg,1625137587212956945,1,0.1924,-1.5081,0.9934,148,-82.1533,-171.814,37.4146,197,0.7143,0.2551,12.4925,-58.7376,31,0.6723,8778,3.9941,-110.5999
rg,1625137587212973821,1,0.6177,-1.4946,0.6326,149,-17.5781,-141.8457,50.354,197,0.7264,0.2561,10.686,-56.3666,31,0.6793,8729,3.9941,-106.104
rg,1625137587212994458,1,0.6262,-1.2769,0.5359,150,92.5293,-50.0488,26.5503,197,0.7494,0.2531,9.1028,-52.6744,31,0.6853,8904,3.9941,-103.9419
rg,1625137587213013465,1,0.3718,-0.7671,0.3367,151,127.1973,20.5688,-8.728,197,0.7744,0.2581,8.1282,-48.2225,31,0.6863,8622,3.9941,-104.9375
rg,1625137587213032212,1,0.0347,-0.5481,0.2966,152,88.501,95.52,1.9531,197,0.7994,0.2671,10.3406,-45.6579,31,0.6853,8387,3.9941,-107.8017
rg,1625137587213049347,1,-0.2212,-0.6724,0.5022,153,21.2402,93.689,22.1558,197,0.8114,0.2761,13.7544,-45.5351,31,0.6863,8825,3.9941,-109.9637
rg,1625137587213067039,1,-0.397,-0.894,0.4829,154,-56.8237,-33.2031,12.5732,197,0.7934,0.2801,13.5303,-48.0782,31,0.6893,8670,3.9941,-108.7605
rg,1625137587213084174,1,0.0149,-1.0667,0.6174,155,-117.5537,-154.7241,20.2637,197,0.7554,0.2861,9.6624,-52.1493,31,0.6913,8831,3.9941,-103.4751
rg,1625137587213101495,1,0.1877,-1.1531,0.6074,156,-116.2109,-173.645,23.6206,197,0.7274,0.2891,5.5086,-56.4834,31,0.6873,8728,3.9941,-97.2912
rg,1625137587213118945,1,0.4768,-1.3103,0.4578,157,-48.0347,-147.0947,46.7529,197,0.7073,0.2741,3.0083,-58.4693,31,0.6783,8576,3.9941,-91.3481
rg,1625137587213136711,1,0.6575,-1.1497,0.5405,158,-3.6621,-55.2979,55.603,197,0.7053,0.2541,2.6107,-58.6777,31,0.6783,8781,3.9941,-88.3126
rg,1625137587213226927,1,0.4216,-1.0334,0.4607,159,69.7632,46.0815,37.4146,197,0.7023,0.2491,3.9662,-56.1958,31,0.6743,8939,3.9941,-89.1019
rg,1625137587213278074,1,0.1265,-0.8152,0.2979,160,68.6035,81.7871,-3.54,197,0.7033,0.2351,5.2253,-54.2043,31,0.6733,8856,3.9941,-91.9279
rg,1625137587652027167,1,-0.7017,-0.1934,0.313,161,1.4648,120.8496,-24.1699,197,0.7063,0.2301,9.1549,-54.2995,31,0.6693,27616,3.9941,-96.411
rg,1625137587652108269,1,-0.6116,-0.6704,0.5454,162,-62.3169,29.9683,-10.6201,197,0.7123,0.2381,8.4099,-58.5372,31,0.6713,8891,3.9941,-94.3885
rg,1625137587652131092,1,0.0061,-1.4082,1.189,163,-162.2925,-191.5894,18.6768,197,0.7244,0.2351,5.073,-63.8237,31,0.6793,14153,3.9941,-87.2104
rg,1625137587652151450,1,0.6648,-1.771,0.7092,164,-15.9912,-140.564,45.5322,197,0.7424,0.2421,3.3301,-64.1731,31,0.6853,8168,3.9941,-81.3592
rg,1625137587652170957,1,0.73,-1.2981,0.4346,165,104.0039,-30.5176,0.061,197,0.7674,0.2581,1.5885,-60.2204,31,0.6883,7923,3.9941,-80.3353
rg,1625137587652189908,1,0.5403,-0.959,0.3345,166,127.2583,21.4233,-21.4233,197,0.7924,0.2621,0.3557,-55.455,31,0.6883,8138,3.9941,-81.5663
rg,1625137587652207822,1,0.1426,-0.5132,0.2654,167,106.7505,105.2856,-12.085,197,0.8104,0.2721,1.8974,-51.5322,31,0.6883,8128,3.9941,-85.264
rg,1625137587652226717,1,-0.1794,-0.5171,0.4282,168,27.6489,133.9722,14.2822,197,0.8164,0.2741,6.1956,-50.6418,31,0.6893,8246,3.9941,-89.083
rg,1625137587652244408,1,-0.3579,-0.655,0.4661,169,-26.7944,93.3228,19.104,197,0.7884,0.2791,7.7924,-54.5808,31,0.6913,7912,3.9941,-88.9318
rg,1625137587652261951,1,-0.3457,-0.9822,0.5627,170,-140.3809,-86.0596,18.2495,197,0.7494,0.2841,6.9207,-59.9596,31,0.6903,8501,3.9941,-85.6591
rg,1625137587652280217,1,0.0818,-1.2598,0.6848,171,-137.8174,-184.6313,29.9072,197,0.7214,0.2871,4.1885,-64.8216,31,0.6863,7863,3.9941,-78.5289
rg,1625137587652298538,1,0.3374,-1.3748,0.6328,172,-86.1206,-185.9131,55.542,197,0.7053,0.2671,3.5558,-66.1643,31,0.6813,7612,3.9941,-71.3923
rg,1625137587652316359,1,0.7527,-1.3408,0.6719,173,-15.9912,-112.4268,87.1582,197,0.7043,0.2521,3.8052,-66.3342,31,0.6863,7798,3.9941,-65.864
rg,1625137587652335347,1,0.625,-1.1953,0.4026,174,85.2051,-11.7798,58.5327,146,0.7013,0.2421,4.5762,-62.9977,31,0.6843,7663,4.0117,-64.4872
rg,1625137587652363634,1,0.5479,-1.0359,0.4277,175,94.8486,0.6714,39.5508,146,0.7013,0.2321,4.8168,-59.3047,31,0.6823,7820,4.0117,-63.8026
rg,1625137587652385438,1,0.114,-0.554,0.0029,176,130.6763,58.6548,-36.9263,146,0.7023,0.2181,4.2155,-55.4297,31,0.6803,7723,4.0117,-66.6987
rg,1625137587652403111,1,-0.2273,-0.113,0.0046,177,144.7144,83.374,-65.2466,146,0.7023,0.2151,6.887,-50.7918,31,0.6793,7885,4.0117,-72.6696
rg,1625137587652420432,1,-0.4478,-0.0327,0.0583,178,113.5864,180.7861,-60.0586,146,0.7043,0.2231,11.9704,-47.2942,31,0.6793,7727,4.0117,-79.6993
rg,1625137587652438345,1,-0.6768,-0.1223,0.2192,179,-36.1938,95.3979,13.0005,146,0.7063,0.2241,16.805,-49.1202,31,0.6793,7925,4.0117,-82.2574
rg,1625137587652455499,1,-0.6382,-0.4038,0.407,180,-107.2998,-4.3945,22.2168,146,0.7093,0.2251,15.2494,-54.6279,31,0.6823,7763,4.0117,-78.316
rg,1625137587652473061,1,-0.2139,-1.2197,1.1846,181,-196.3501,-184.4482,27.5269,146,0.7143,0.2281,11.9483,-60.4476,31,0.6843,7960,4.0117,-71.2071
rg,1625137587652490326,1,0.54,-1.822,0.7771,182,-67.1997,-165.8325,62.6221,146,0.7204,0.2341,9.9347,-61.9999,31,0.6873,7810,4.0117,-64.1037
rg,1625137587652508332,1,0.6875,-1.7332,0.5176,183,22.8882,-98.3887,61.0352,146,0.7304,0.2371,8.8957,-60.6608,31,0.6873,8023,4.0117,-59.4982
rg,1625137587652526727,1,0.6284,-1.0181,0.5508,184,90.3931,16.5405,11.7798,146,0.7484,0.2361,8.2592,-57.1298,31,0.6883,7882,4.0117,-59.8775
rg,1625137587652543863,1,0.2671,-0.6379,0.4475,185,94.3604,79.1016,-25.5127,146,0.7724,0.2411,8.1646,-53.7343,31,0.6903,8076,4.0117,-63.1158
rg,1625137587652561888,1,-0.0212,-0.6968,0.4023,186,54.3823,137.085,5.9204,146,0.7984,0.2461,11.3566,-52.534,31,0.6913,9797,4.0117,-67.4665
rg,1625137587652579560,1,-0.3384,-0.8826,0.4956,187,33.3252,143.1885,17.9443,146,0.8164,0.2611,15.0288,-52.5388,31,0.6913,8938,4.0117,-70.9138
rg,1625137587652619519,1,-0.4548,-0.9211,0.4658,188,30.9448,64.209,10.5591,146,0.8284,0.2641,17.2707,-52.2061,31,0.6923,9009,4.0117,-72.8678
rg,1625137587652640970,1,-0.384,-0.8398,0.394,189,10.0098,-70.3125,12.3901,146,0.8264,0.2671,16.1537,-51.5169,31,0.6953,8199,4.0117,-70.3724
rg,1625137587652658347,1,0.1277,-0.8018,0.6438,190,-87.2803,-156.0669,40.1001,146,0.7854,0.2781,12.7536,-53.4451,31,0.6963,8063,4.0117,-64.2328
rg,1625137587652676446,1,0.3757,-1.1106,0.6082,191,-133.5449,-164.7949,17.9443,146,0.7434,0.2771,8.5571,-57.9588,31,0.6913,9932,4.0117,-58.3099
rg,1625137587652696415,1,0.4282,-1.2847,0.5596,192,-118.3472,-140.4419,25.1465,146,0.7153,0.2821,5.5618,-62.4493,31,0.6843,8164,4.0117,-52.925
rg,1625137587992017288,1,0.3428,-1.2197,0.5852,193,68.0542,60.8521,52.8564,146,0.7013,0.2391,7.8031,-59.923,31,0.6843,25947,4.0117,-54.0802
rg,1625137587992067453,1,0.0249,-1.0222,0.3777,194,101.5625,54.8706,0.4272,146,0.7013,0.2241,8.6084,-56.5168,31,0.6813,8872,4.0117,-56.022
rg,1625137587992106337,1,-0.259,-0.54,0.0225,195,149.0479,59.6924,-43.8232,146,0.7013,0.2111,9.2802,-52.0927,31,0.6783,8454,4.0117,-59.147
rg,1625137587992128548,1,-0.3215,-0.2749,0.0625,196,155.7617,61.5234,-50.1099,146,0.7023,0.2071,11.3824,-46.241,31,0.6773,8358,4.0117,-62.2225
rg,1625137587992147147,1,-0.5247,0.0383,0.123,197,111.3892,60.6689,-28.9307,146,0.7033,0.2071,14.4171,-41.8549,31,0.6763,8280,4.0117,-64.618
rg,1625137587992165561,1,-0.4287,-0.0063,0.0542,198,-25.0244,-38.8184,27.832,146,0.7063,0.2171,16.1342,-42.1698,31,0.6773,8363,4.0117,-62.6398
rg,1625137587992183197,1,-0.24,-0.5476,0.4722,199,-188.6597,-136.5356,37.7808,146,0.7093,0.2201,13.4914,-48.6497,31,0.6783,8195,4.0117,-57.6059
rg,1625137587992201462,1,0.1375,-1.106,1.4731,200,-239.2578,-172.7295,45.105,146,0.7133,0.2191,10.0792,-56.3279,31,0.6813,8007,4.0117,-50.7507
rg,1625137587992219283,1,0.5879,-1.9058,0.7756,201,-103.7598,-103.9429,65.7349,146,0.7224,0.2281,9.1394,-60.0475,31,0.6863,8368,4.0117,-45.814
rg,1625137587992236789,1,0.7617,-1.634,0.6821,202,37.4756,8.667,36.8652,146,0.7374,0.2291,9.3667,-58.7364,31,0.6923,8138,4.0117,-45.4187
rg,1625137587992257760,1,0.4246,-0.9465,0.6958,203,77.2705,67.5049,7.6294,146,0.7634,0.2341,10.2939,-54.8039,31,0.6973,8416,4.0117,-49.0639
rg,1625137587992277452,1,0.0261,-0.6655,0.3154,204,94.7266,145.9961,4.2725,146,0.8054,0.2411,13.8638,-52.345,31,0.6963,14690,4.0117,-53.8301
rg,1625137587992296180,1,-0.2847,-0.6709,0.446,205,43.1519,156.8604,13.916,146,0.8164,0.2521,18.3358,-52.1014,31,0.6973,8105,4.0117,-58.6778
rg,1625137587992314872,1,-0.5874,-0.7817,0.3572,206,-12.4512,49.8047,-5.9814,146,0.8104,0.2571,19.9748,-53.6512,31,0.6973,8506,4.0117,-60.6648
rg,1625137587992333545,1,-0.4856,-0.8516,0.4705,207,-119.6899,-105.7129,6.7749,146,0.7584,0.2621,18.084,-57.4375,31,0.6973,10964,4.0117,-56.9112
rg,1625137587992351588,1,-0.0098,-1.0422,0.6333,208,-151.6724,-210.2051,18.7378,146,0.7274,0.2641,13.8043,-61.3557,31,0.6893,8388,4.0117,-48.9922
rg,1625137587992369761,1,0.5173,-1.3801,0.5354,209,-96.7407,-227.1118,53.4058,146,0.7083,0.2571,10.2958,-63.5533,31,0.6813,8826,4.0117,-39.811
rg,1625137587992412887,1,0.7812,-1.4563,0.5823,210,-56.4575,-187.6831,65.8569,146,0.7043,0.2471,8.0529,-64.6774,31,0.6863,8246,4.0117,-31.8351
rg,1625137587992434746,1,0.7292,-1.4309,0.3748,211,49.8047,-34.4238,58.4717,146,0.7003,0.2361,8.2663,-62.7295,31,0.6843,8100,4.0117,-29.624
rg,1625137587992452567,1,0.4683,-1.0569,0.3647,212,94.3604,41.5039,21.4233,146,0.7003,0.2151,8.6453,-59.4139,31,0.6813,8924,4.0117,-30.7581
rg,1625137587992470221,1,-0.0396,-0.4255,-0.022,213,147.0337,84.8999,-46.875,146,0.7013,0.2081,8.8117,-55.3952,31,0.6773,8942,4.0117,-34.8633
rg,1625137587992487968,1,-0.3459,-0.0454,0.0051,214,160.1562,136.8408,-63.7207,146,0.7023,0.2111,12.2472,-50.2323,31,0.6753,8917,4.0117,-40.7681
rg,1625137587992506419,1,-0.5098,0.0481,0.0474,215,106.1401,144.7144,-31.9824,146,0.7033,0.2181,17.2771,-49.9986,31,0.6753,8625,4.0117,-43.5655
rg,1625137587992526000,1,-0.5073,-0.1787,0.1965,216,-78.125,28.4424,31.25,146,0.7053,0.2241,20.5632,-53.0105,31,0.6763,8533,4.0117,-43.6829
rg,1625137587992543524,1,-0.2715,-1.0449,1.219,217,-220.0928,-124.4507,28.8696,146,0.7103,0.2281,18.3849,-59.571,31,0.6793,9174,4.0117,-38.412
rg,1625137587992561234,1,0.3267,-1.8738,0.7502,218,-105.5908,-140.9302,50.6592,146,0.7163,0.2391,16.3867,-62.2582,31,0.6823,8902,4.0117,-32.3082
rg,1625137587992579074,1,0.5674,-1.5828,0.5073,219,58.7158,-25.0244,38.9404,146,0.7284,0.2411,15.9643,-59.8226,31,0.6843,8419,4.0117,-30.7532
rg,1625137587992596932,1,0.3796,-0.8308,0.6553,220,112.6709,39.1235,-8.4229,146,0.7504,0.2431,15.1875,-55.4361,31,0.6883,8861,4.0117,-32.28
rg,1625137587992614308,1,0.2214,-0.6675,0.5068,221,121.3989,49.1943,-18.5547,146,0.7784,0.2481,14.6269,-51.0269,31,0.6893,8424,4.0117,-34.3887
rg,1625137587992631425,1,-0.0103,-0.6575,0.2942,222,81.4819,79.4678,4.3335,146,0.8044,0.2581,16.2639,-49.0145,31,0.6893,8547,4.0117,-36.9675
rg,1625137587992649339,1,-0.2231,-0.7805,0.3867,223,44.3115,93.3228,21.7896,146,0.8234,0.2631,19.3026,-48.5359,31,0.6883,9648,4.0117,-39.4829
rg,1625137587992731997,1,-0.4099,-0.8347,0.3853,224,27.6489,27.3438,16.6626,146,0.8294,0.2741,20.7333,-48.1914,31,0.6913,8772,4.0117,-40.0915
rg,1625137588336794535,1,0.1653,-0.947,0.6404,225,-128.7231,-139.3433,20.5078,146,0.7384,0.2891,16.8103,-52.5149,31,0.6873,25000,4.0117,-35.4717
rg,1625137588336833825,1,0.342,-1.27,0.5168,226,-116.0889,-121.8872,34.8511,146,0.7073,0.2811,13.9838,-56.4117,31,0.6813,8886,4.0117,-30.6545
rg,1625137588336854888,1,0.626,-1.3394,0.4932,227,-61.4624,-55.9692,57.312,146,0.7023,0.2631,13.3433,-58.5824,31,0.6863,8130,4.0117,-27.5418
rg,1625137588336874950,1,0.3694,-1.302,0.592,228,42.8467,69.3359,36.1938,146,0.6983,0.2471,14.9668,-57.539,31,0.6843,7867,4.0117,-29.2615
rg,1625137588336893937,1,0.3406,-1.2737,0.5886,229,60.9741,61.8286,39.0625,146,0.6983,0.2391,16.5343,-55.745,31,0.6813,8335,4.0117,-30.6203
rg,1625137588336911443,1,-0.0615,-0.9763,0.2473,230,119.873,65.2466,-36.0718,146,0.6993,0.2311,16.4108,-52.6402,31,0.6783,8257,4.0117,-33.9504
rg,1625137588336930412,1,-0.3413,-0.3853,0.0425,231,174.6216,90.0269,-74.5239,146,0.7003,0.2171,17.4352,-47.9992,31,0.6773,8082,4.0117,-39.0406
rg,1625137588336950122,1,-0.4521,-0.1406,0.1304,232,169.8608,106.0791,-66.7725,146,0.6993,0.2131,20.4726,-42.4765,31,0.6773,8105,4.0117,-43.9781
rg,1625137588337044819,1,-0.656,-0.071,0.0891,233,-7.5684,-22.522,10.1318,146,0.7043,0.2311,21.4323,-42.8586,31,0.6783,15732,4.0117,-43.1585
rg,1625137588337071680,1,-0.3772,-0.5493,0.425,234,-156.1279,-196.3501,22.9492,146,0.7083,0.2321,16.8599,-47.2725,31,0.6813,9449,4.0117,-36.7267
rg,1625137588337097447,1,0.4875,-1.4551,1.4297,235,-182.9224,-257.2632,56.7627,146,0.7123,0.2341,10.8519,-52.1873,31,0.6843,7943,4.0117,-27.0957
rg,1625137588337120028,1,0.8491,-1.7021,0.4792,236,3.6011,-126.3428,69.6411,146,0.7184,0.2401,8.6256,-51.8178,31,0.6873,7887,4.0117,-21.4713
rg,1625137588337138238,1,0.8433,-1.396,0.437,237,49.8657,-52.3071,41.9312,146,0.7284,0.2391,7.2235,-50.1535,31,0.6903,8079,4.0117,-18.8941
rg,1625137588337155725,1,0.5579,-0.7156,0.6206,238,62.1338,60.9131,-13.916,146,0.7464,0.2371,7.0005,-47.9059,31,0.6923,8482,4.0117,-21.1434
rg,1625137588337199813,1,0.2241,-0.6177,0.4795,239,25.4517,142.5781,-9.3994,146,0.7704,0.2421,9.6422,-47.6997,31,0.6943,8398,4.0117,-25.6972
rg,1625137588337223043,1,-0.0532,-0.9182,0.511,240,0.3052,166.8091,2.1362,146,0.7924,0.2491,14.2408,-49.9267,31,0.6953,8684,4.0117,-30.7689
rg,1625137588337241086,1,-0.2454,-1.0383,0.4893,241,-14.0381,160.6445,12.146,146,0.8114,0.2571,18.5412,-52.4526,31,0.6963,8387,4.0117,-35.8209
rg,1625137588337258443,1,-0.45,-1.0234,0.4392,242,19.6533,59.5703,5.4321,146,0.8184,0.2671,20.3013,-52.8311,31,0.6973,8153,4.0117,-37.8678
rg,1625137588337275190,1,-0.3188,-0.8313,0.3792,243,-6.4697,-54.0771,8.9111,146,0.8134,0.2701,19.2598,-52.8771,31,0.7013,8977,4.0117,-35.9731
rg,1625137588337292843,1,0.1123,-0.8799,0.6196,244,-46.4478,-90.8203,25.7568,146,0.7754,0.2741,16.387,-54.9403,31,0.7033,8260,4.0117,-30.9564
rg,1625137588337310479,1,0.2258,-1.0195,0.5618,245,-123.3521,-142.395,27.2827,146,0.7354,0.2801,13.1661,-58.678,31,0.6983,8444,4.0117,-25.4476
rg,1625137588337327484,1,0.345,-1.3127,0.4468,246,-106.3843,-123.6572,33.6304,146,0.7133,0.2771,10.8927,-62.3327,31,0.6913,8848,4.0117,-20.4508
rg,1625137588337344805,1,0.5867,-1.3062,0.7078,247,-9.0942,-41.748,55.2979,146,0.7103,0.2601,10.8572,-62.1715,31,0.6963,8956,4.0117,-17.8984
rg,1625137588337363292,1,0.4663,-1.241,0.4492,248,69.458,3.9673,72.876,146,0.7063,0.2521,12.3303,-59.4304,31,0.6953,8506,4.0117,-16.6829
rg,1625137588337380501,1,0.2461,-0.9795,0.2563,249,91.3086,3.418,54.8706,146,0.7053,0.2411,12.322,-55.1542,31,0.6923,8563,4.0117,-16.941
rg,1625137588337398563,1,0.0591,-0.7739,0.1943,250,137.2681,31.7993,-14.6484,146,0.7043,0.2371,12.0049,-50.787,31,0.6893,8171,4.0117,-18.5401
rg,1625137588337416031,1,-0.238,-0.2812,0.0442,251,153.9917,78.7964,-43.5181,146,0.7063,0.2341,13.8863,-46.3354,31,0.6863,8383,4.0117,-22.2833
rg,1625137588337433667,1,-0.4048,0.1162,0.0723,252,64.7583,80.8105,14.1602,146,0.7083,0.2341,18.6793,-43.5522,31,0.6873,13609,4.0117,-24.0126
rg,1625137588337450765,1,-0.4019,0.0681,0.0798,253,-18.5547,37.8418,23.3154,146,0.7103,0.2411,21.6935,-44.3187,31,0.6883,8757,4.0117,-24.3897
rg,1625137588337467715,1,-0.3245,-0.5542,0.7056,254,-206.0547,-75.0122,21.0571,146,0.7133,0.2441,20.252,-51.2061,31,0.6913,8273,4.0117,-21.307
rg,1625137588337484553,1,0.219,-1.7046,1.3916,255,-221.3135,-123.1689,37.2925,146,0.7204,0.2521,17.6617,-58.3037,31,0.6953,8496,4.0117,-16.082
rg,1625137588337502263,1,0.5703,-1.9856,0.605,256,-20.874,-45.0439,53.4058,146,0.7294,0.2611,17.3254,-58.8628,31,0.6983,8333,4.0117,-13.4771
rg,1625137588682794218,1,0.1421,-0.6968,0.4973,257,108.2153,93.6279,0.6104,146,0.7834,0.2741,18.3375,-55.3709,31,0.7023,25257,4.0117,-16.7491
rg,1625137588682845939,1,-0.0764,-0.6995,0.3083,258,60.5469,98.6938,12.3291,146,0.8054,0.2791,20.5053,-54.4343,31,0.7023,8604,4.0117,-20.0254
rg,1625137588682878005,1,-0.2654,-0.7883,0.3682,259,32.1655,85.9375,11.3525,146,0.8194,0.2861,22.7216,-54.5713,31,0.7023,8248,4.0117,-22.9064
rg,1625137588682908440,1,-0.3792,-0.8672,0.3843,260,25.8789,50.7812,-0.3662,146,0.8274,0.2871,24.0061,-54.6753,31,0.7033,8466,4.0117,-24.8863
rg,1625137588682936876,1,-0.4539,-0.8926,0.4614,261,-37.5366,-38.208,6.4087,146,0.8194,0.2901,23.3664,-55.8585,31,0.7053,8278,4.0117,-23.4759
rg,1625137588682965255,1,-0.03,-0.9822,0.5549,262,-110.7788,-139.8926,16.8457,146,0.7814,0.3001,20.0778,-58.4386,31,0.7033,8249,4.0117,-18.0769
rg,1625137588682993116,1,0.1213,-1.1553,0.4419,263,-113.7695,-157.2266,0.2441,146,0.7274,0.3031,15.8134,-61.6596,31,0.6933,8593,4.0117,-12.4716
rg,1625137588683020866,1,0.3972,-1.2305,0.3494,264,-43.2739,-128.54,42.1143,146,0.7174,0.2821,13.6823,-62.4488,31,0.6943,8513,4.0117,-7.0845
rg,1625137588683081607,1,0.4749,-1.127,0.6367,265,11.2915,-35.8887,37.8418,146,0.7123,0.2711,13.0806,-61.4442,31,0.6983,7629,4.0117,-5.0473
rg,1625137588683112803,1,0.4778,-1.1755,0.4578,266,57.8613,-30.0293,42.2363,146,0.7103,0.2611,12.6922,-58.9739,31,0.6983,8491,4.0117,-3.2117
rg,1625137588683168821,1,0.386,-1.0974,0.3528,267,67.627,-10.0098,11.5356,146,0.7093,0.2511,11.7075,-56.6452,31,0.6983,7987,4.0117,-2.7506
rg,1625137588683197515,1,-0.0469,-0.6018,0.1743,268,119.2627,52.124,-49.7437,146,0.7093,0.2461,11.0017,-53.1312,31,0.6963,9069,4.0117,-5.8004
rg,1625137588683223542,1,-0.3157,-0.1804,0.1836,269,125.7324,124.4507,-44.4336,146,0.7103,0.2461,14.1756,-48.9913,31,0.6953,7817,4.0117,-10.8057
rg,1625137588683250662,1,-0.4888,-0.1082,0.2358,270,19.3481,94.7266,1.2207,146,0.7133,0.2491,18.3944,-48.5734,31,0.6963,9081,4.0117,-13.6212
rg,1625137588683284839,1,-0.4697,-0.2715,0.2568,271,-42.7856,23.6206,12.2681,146,0.7163,0.2551,19.7694,-50.4108,31,0.6983,7927,4.0117,-14.0494
rg,1625137588683313867,1,-0.178,-0.9177,0.9827,272,-157.1655,-117.5537,22.0947,146,0.7214,0.2581,17.1717,-54.9297,31,0.7003,8731,4.0117,-9.4172
rg,1625137588683341821,1,0.4138,-1.7166,0.9326,273,-102.356,-122.0093,52.6123,146,0.7264,0.2631,15.1326,-57.7411,31,0.7023,8240,4.0117,-4.0272
rg,1625137588683369904,1,0.6558,-1.6172,0.5308,274,45.5933,-40.8936,45.7764,146,0.7374,0.2601,14.4472,-55.8232,31,0.7013,9570,4.0117,-1.7407
rg,1625137588683400840,1,0.4224,-0.9309,0.5535,275,84.2896,8.9722,17.5171,146,0.7594,0.2621,13.9709,-52.2775,31,0.7003,8206,4.0117,-3.2996
rg,1625137588683430220,1,0.2754,-0.7253,0.5039,276,106.5674,64.8804,-11.1694,146,0.7834,0.2621,14.0861,-48.7108,31,0.7033,8775,4.0117,-5.725
rg,1625137588683457654,1,-0.0225,-0.626,0.3679,277,82.4585,112.7319,3.479,146,0.8074,0.2721,16.7254,-46.7494,31,0.7043,8292,4.0117,-9.211
rg,1625137588683486756,1,-0.3708,-0.7473,0.3945,278,47.4854,130.0659,20.0806,146,0.8234,0.2771,21.1479,-46.538,31,0.7063,8717,4.0117,-12.8014
rg,1625137588683513543,1,-0.6323,-0.8376,0.3928,279,29.2358,37.7808,20.4468,146,0.8294,0.2811,23.3228,-46.2147,31,0.7073,9350,4.0117,-13.6037
rg,1625137588683543108,1,-0.428,-0.7585,0.3296,280,-44.3115,-110.5347,24.231,146,0.8164,0.2891,21.2155,-47.1372,31,0.7113,9969,4.0117,-9.702
rg,1625137588683571376,1,-0.1699,-0.7769,0.5217,281,-100.5249,-169.3726,26.001,146,0.7704,0.3001,16.5281,-49.4133,31,0.7073,8159,4.0117,-3.6951
rg,1625137588683597996,1,0.259,-1.0457,0.6379,282,-157.7148,-218.9331,18.1885,146,0.7344,0.2971,10.6628,-54.2811,31,0.6973,8400,4.0117,3.7773
rg,1625137588683852559,1,0.6189,-1.3323,0.4148,283,-87.8296,-182.6172,53.772,146,0.7254,0.2961,7.0894,-57.2953,31,0.7023,8303,4.0117,11.0134
rg,1625137588683999829,1,0.7832,-1.3694,0.4487,284,9.7046,-17.334,54.5654,146,0.7133,0.2751,7.2341,-57.1757,31,0.7023,10016,4.0117,12.7208
rg,1625137588684048548,1,0.6448,-1.1467,0.4905,285,52.3682,75.7446,40.5273,146,0.7103,0.2631,8.9594,-55.6515,31,0.7013,8654,4.0117,11.0058
rg,1625137588684085116,1,0.4077,-1.033,0.4182,286,78.125,122.1924,8.2397,146,0.7093,0.2521,11.3483,-53.5364,31,0.6983,8721,4.0117,4.992
rg,1625137588684112699,1,-0.2046,-0.6211,0.2021,287,113.2202,189.209,-46.6919,180,0.7093,0.2501,14.7091,-51.3671,31,0.6953,8920,4.0051,-2.4596
rg,1625137588684146024,1,-0.5889,-0.3108,0.1746,288,134.0332,193.9697,-37.9639,180,0.7103,0.2511,20.0928,-48.3691,31,0.6933,9000,4.0051,-9.6922
rg,1625137589029108265,1,-0.3984,-0.6472,0.6479,289,-145.1416,-152.4658,15.0757,180,0.7184,0.2601,16.8267,-52.3159,31,0.6953,25782,4.0051,-4.293
rg,1625137589029150722,1,0.2783,-1.4514,1.1448,290,-158.9966,-199.8291,41.626,180,0.7254,0.2641,12.6041,-56.6569,31,0.6983,8660,4.0051,3.4632
rg,1625137589029171395,1,0.4963,-1.6948,0.7485,291,-84.5947,-156.0669,49.9878,180,0.7324,0.2651,9.9526,-59.1116,31,0.6993,8153,4.0051,9.8741
rg,1625137589029191364,1,0.6355,-1.446,0.5359,292,29.9683,-48.4619,18.0664,180,0.7464,0.2621,8.3549,-57.9652,31,0.6983,7860,4.0051,11.8503
rg,1625137589029210463,1,0.3296,-0.8943,0.5923,293,71.8994,31.4331,-22.522,180,0.7814,0.2621,7.314,-55.2426,31,0.7013,9567,4.0051,10.2746
rg,1625137589029228505,1,-0.0662,-0.7693,0.3306,294,74.646,73.8525,-10.1318,180,0.8114,0.2661,9.1766,-53.2383,31,0.7023,14051,4.0051,7.6319
rg,1625137589029274148,1,-0.2878,-0.8218,0.3047,295,49.4995,75.8667,9.9487,180,0.8334,0.2681,11.6842,-52.2719,31,0.7023,11171,4.0051,5.3215
rg,1625137589029294247,1,-0.3789,-0.824,0.3386,296,44.8608,48.7061,8.728,180,0.8464,0.2731,13.7043,-51.3095,31,0.7043,7890,4.0051,3.8672
rg,1625137589029312364,1,-0.3435,-0.7297,0.2842,297,9.9487,-44.6777,17.5781,180,0.8454,0.2811,13.5523,-51.0962,31,0.7053,8033,4.0051,5.6072
rg,1625137589029330462,1,0.0688,-0.718,0.5332,298,-81.3599,-113.7085,32.4097,180,0.8194,0.2831,11.1116,-53.46,31,0.7073,7974,4.0051,10.0962
rg,1625137589029348708,1,0.188,-0.8564,0.6096,299,-122.0093,-121.3989,18.7378,180,0.7784,0.2891,8.1794,-57.6027,31,0.7033,7715,4.0051,14.608
rg,1625137589029377476,1,0.3003,-1.1909,0.4993,300,-134.3384,-121.2769,15.7471,180,0.7394,0.2921,5.5158,-62.7778,31,0.6923,8917,4.0051,19.1427
rg,1625137589029395907,1,0.6287,-1.3389,0.4099,301,-58.4717,-85.5713,63.7817,180,0.7204,0.2911,5.1899,-65.0715,31,0.6863,8084,4.0051,23.3365
rg,1625137589029413968,1,0.6462,-1.1602,0.6829,302,-30.7617,-28.3203,63.1104,180,0.7174,0.2771,6.39,-64.8177,31,0.6913,8260,4.0051,22.1749
rg,1625137589029431900,1,0.3838,-1.1812,0.5203,303,41.748,102.6001,31.9824,180,0.7123,0.2631,8.421,-63.6014,31,0.6923,8052,4.0051,18.9854
rg,1625137589029450091,1,0.116,-1.1846,0.4905,304,53.4668,102.0508,8.9722,180,0.7103,0.2551,10.0486,-62.1752,31,0.6913,8502,4.0051,15.4355
rg,1625137589029467022,1,-0.3457,-0.7832,0.1445,305,134.3384,101.5625,-50.354,180,0.7103,0.2461,10.8474,-58.2659,31,0.6893,8491,4.0051,10.7496
rg,1625137589029484101,1,-0.4441,-0.179,0.1594,306,162.4146,96.7407,-51.3306,180,0.7123,0.2451,13.6561,-52.6362,31,0.6883,8500,4.0051,6.4477
rg,1625137589029502088,1,-0.5056,0.0081,0.1992,307,126.2817,104.187,-20.5688,180,0.7143,0.2461,17.5944,-47.9061,31,0.6883,8466,4.0051,2.833
rg,1625137589029519500,1,-0.5581,-0.0107,0.1375,308,-7.9346,16.8457,11.5356,180,0.7174,0.2511,20.3628,-47.8838,31,0.6883,8742,4.0051,2.7565
rg,1625137589029536839,1,-0.4429,-0.6021,0.5068,309,-164.4287,-119.0796,18.5547,180,0.7234,0.2571,18.2789,-53.056,31,0.6913,8148,4.0051,7.1113
rg,1625137589029553844,1,0.2476,-1.6318,1.4094,310,-213.7451,-181.1523,28.3203,180,0.7284,0.2611,14.1608,-58.3161,31,0.6943,8429,4.0051,15.2118
rg,1625137589029574925,1,0.4595,-1.9214,0.7898,311,-96.0693,-175.2319,54.6875,180,0.7354,0.2631,11.5081,-60.8636,31,0.6953,8075,4.0051,22.4699
rg,1625137589029594153,1,0.7412,-1.6833,0.5793,312,59.6313,-73.4253,30.0293,180,0.7564,0.2651,9.7995,-58.2559,31,0.6973,8286,4.0051,25.5596
rg,1625137589029612528,1,0.3906,-0.9524,0.5061,313,142.8223,27.9541,-19.7754,180,0.7814,0.2691,8.6522,-52.9197,31,0.7003,8123,4.0051,24.095
rg,1625137589029630627,1,0.2161,-0.7075,0.3206,314,154.1138,56.5186,-14.0991,180,0.8064,0.2711,8.7363,-47.5766,31,0.7023,8332,4.0051,21.8538
rg,1625137589029648002,1,-0.0813,-0.51,0.2227,315,105.0415,125.061,10.437,180,0.8224,0.2711,12.4801,-44.7355,31,0.7033,8296,4.0051,18.3605
rg,1625137589029665748,1,-0.408,-0.6499,0.3945,316,47.8516,121.3379,19.5312,180,0.8304,0.2841,17.0959,-44.0652,31,0.7053,8439,4.0051,15.3165
rg,1625137589029683291,1,-0.5752,-0.7532,0.3455,317,-25.6348,5.3711,18.0664,180,0.8234,0.2881,18.475,-45.6769,31,0.7083,8498,4.0051,15.4765
rg,1625137589029728878,1,-0.4419,-0.7886,0.4812,318,-82.5806,-71.2891,16.6626,180,0.7834,0.2931,17.3251,-48.6216,31,0.7073,8481,4.0051,17.9952
rg,1625137589029750922,1,-0.0618,-0.9971,0.6731,319,-148.1934,-173.8892,6.8359,180,0.7434,0.2961,12.6339,-53.3285,31,0.6983,8374,4.0051,23.6985
rg,1625137589029769187,1,0.436,-1.3269,0.6028,320,-100.0977,-194.458,45.2881,180,0.7214,0.2901,8.5682,-56.3896,31,0.6893,8524,4.0051,31.1453
rg,1625137589376225730,1,0.699,-1.1423,0.4568,321,66.2231,7.1411,41.1377,180,0.7083,0.2541,8.6801,-54.0362,31,0.6943,24515,4.0051,31.7605
rg,1625137589376286303,1,0.2646,-0.7219,0.2969,322,85.6323,93.75,-26.4893,180,0.7083,0.2491,9.0495,-51.6899,31,0.6913,8726,4.0051,27.9852
rg,1625137589376307680,1,-0.1958,-0.2888,0.1138,323,107.2388,155.4565,-54.8096,180,0.7093,0.2481,12.2036,-49.1264,31,0.6883,8520,4.0051,21.6285
rg,1625137589376328557,1,-0.5652,-0.1736,0.301,324,43.1519,184.021,-23.7427,180,0.7113,0.2471,17.9421,-48.6561,31,0.6883,8581,4.0051,15.3391
rg,1625137589376347896,1,-0.5698,-0.7422,0.5696,325,-123.291,-83.7402,7.6904,180,0.7163,0.2541,16.5968,-52.8322,31,0.6903,16853,4.0051,18.2042
rg,1625137589376366161,1,-0.3496,-1.0735,0.9089,326,-160.4614,-161.1938,14.7705,180,0.7224,0.2561,12.7665,-57.6845,31,0.6923,7708,4.0051,24.0714
rg,1625137589376384203,1,0.356,-1.6812,0.8906,327,-95.2759,-185.73,48.1567,180,0.7274,0.2661,9.7116,-60.1817,31,0.6943,7849,4.0051,31.5444
rg,1625137589376407655,1,0.6406,-1.5417,0.5051,328,39.1846,-96.4966,34.6069,180,0.7354,0.2681,7.7729,-58.416,31,0.6933,7759,4.0051,35.5244
rg,1625137589376426512,1,0.5698,-1.2317,0.5237,329,73.8525,-47.8516,5.5542,180,0.7564,0.2641,5.7643,-55.5681,31,0.6933,7932,4.0051,37.1907
rg,1625137589376444851,1,0.2515,-0.7051,0.4258,330,101.1963,18.6768,-16.5405,180,0.7794,0.2691,4.7951,-51.7386,31,0.6953,9343,4.0051,36.1499
rg,1625137589376462616,1,-0.0142,-0.595,0.3215,331,82.7637,74.707,9.7046,180,0.8014,0.2761,6.846,-49.0254,31,0.6983,8457,4.0051,34.0445
rg,1625137589376480288,1,-0.2668,-0.731,0.396,332,43.396,91.98,28.0762,180,0.8174,0.2841,10.5415,-48.0644,31,0.7023,8145,4.0051,31.9491
rg,1625137589376497738,1,-0.4182,-0.8169,0.4136,333,32.8369,69.519,24.8413,180,0.8254,0.2851,13.8153,-47.6927,31,0.7043,8556,4.0051,30.4008
rg,1625137589376514947,1,-0.4773,-0.8611,0.3586,334,2.2583,-37.2314,19.8364,180,0.8244,0.2961,13.9545,-47.8898,31,0.7073,8577,4.0051,31.9214
rg,1625137589376532804,1,-0.053,-0.8503,0.5654,335,-91.4307,-135.9863,31.25,180,0.7914,0.3021,10.9509,-50.7748,31,0.7093,8194,4.0051,36.9105
rg,1625137589376550828,1,0.3186,-1.1016,0.5769,336,-128.418,-170.8374,21.4844,180,0.7514,0.3051,6.6035,-55.409,31,0.7033,8486,4.0051,42.9083
rg,1625137589376599861,1,0.4639,-1.2405,0.5049,337,-114.0747,-153.5034,33.1421,180,0.7264,0.3041,3.4823,-59.8885,31,0.6973,8639,4.0051,48.8043
rg,1625137589376620738,1,0.8496,-1.2429,0.7078,338,-57.4341,-49.9878,57.1289,180,0.7204,0.2881,3.2379,-62.0127,31,0.7033,8266,4.0051,51.6826
rg,1625137589376638669,1,0.605,-1.2461,0.4324,339,28.2593,81.2378,48.584,180,0.7143,0.2761,5.4121,-61.3388,31,0.6993,8639,4.0051,49.7025
rg,1625137589376655822,1,0.2441,-1.0793,0.4272,340,30.8228,108.1543,33.5693,180,0.7123,0.2721,7.6634,-60.1956,31,0.6973,8222,4.0051,44.3665
rg,1625137589376673031,1,-0.3464,-0.752,0.2327,341,108.2764,194.1528,-41.748,180,0.7123,0.2701,10.8523,-57.5508,31,0.6933,13624,4.0051,36.723
rg,1625137589376691000,1,-0.6472,-0.4167,0.1677,342,135.6201,159.9731,-33.9966,180,0.7133,0.2661,14.8994,-53.7446,31,0.6923,8621,4.0051,30.5388
rg,1625137589376708172,1,-0.6838,-0.1873,0.1172,343,71.228,15.3198,-8.1177,180,0.7163,0.2641,16.9178,-51.1254,31,0.6923,8801,4.0051,29.8658
rg,1625137589376725732,1,-0.4551,-0.321,0.2583,344,-38.5742,-134.7656,7.5684,180,0.7194,0.2681,14.9667,-51.3995,31,0.6933,9928,4.0051,34.4454
rg,1625137589376742608,1,-0.28,-0.5476,0.5815,345,-93.9941,-187.6221,22.8882,180,0.7234,0.2681,10.2531,-54.4773,31,0.6953,8046,4.0051,42.6508
rg,1625137589376759261,1,0.332,-1.3171,1.0767,346,-115.3564,-210.5713,49.9268,180,0.7274,0.2681,6.4239,-57.7294,31,0.6963,9395,4.0051,50.8767
rg,1625137589376776470,1,0.6599,-1.5803,0.5366,347,17.8223,-114.8682,51.4526,180,0.7334,0.2681,4.6338,-57.0121,31,0.6953,8688,4.0051,55.8136
rg,1625137589376804701,1,0.5376,-1.0437,0.5813,348,75.8057,-3.9673,0.7324,180,0.7514,0.2591,3.4743,-54.1069,31,0.6943,8740,4.0051,55.92
rg,1625137589376824466,1,0.252,-0.708,0.5295,349,83.9233,61.2183,-14.3433,180,0.7764,0.2601,3.7465,-50.8577,31,0.6963,8601,4.0051,53.6015
rg,1625137589376841804,1,0.0352,-0.7588,0.5164,350,75.6226,90.0269,-3.2349,180,0.8034,0.2651,6.6379,-48.6936,31,0.6983,8656,4.0051,50.3211
rg,1625137589376859310,1,-0.1343,-0.8196,0.4482,351,57.1899,124.4507,13.6108,180,0.8244,0.2651,10.7689,-47.5335,31,0.6983,8943,4.0051,46.8676
rg,1625137589376876963,1,-0.4248,-0.8616,0.4314,352,59.9365,97.168,14.0381,180,0.8414,0.2681,14.3411,-46.2592,31,0.6983,8895,4.0051,44.2467
rg,1625137589886862709,1,-0.05,-0.613,0.5427,353,-67.5049,-138.3057,46.0205,180,0.8254,0.2811,11.5114,-47.8115,31,0.7023,26717,4.0051,49.6731
rg,1625137589886905574,1,0.4983,-1.1897,0.5808,354,-177.3682,-185.3638,13.6719,180,0.7434,0.2911,6.1375,-54.522,31,0.6933,13574,4.0051,55.7999
rg,1625137589886926765,1,0.6624,-1.2642,0.387,355,-80.8716,-98.0835,49.9878,180,0.7194,0.2891,4.4129,-57.9661,31,0.6833,10088,4.0051,60.1534
rg,1625137589886948605,1,0.7056,-1.1204,0.2708,356,-47.3022,-30.0903,63.2324,180,0.7133,0.2791,4.5433,-59.5413,31,0.6883,7699,4.0051,62.5219
rg,1625137589886968426,1,0.4873,-0.98,0.8396,357,-25.0854,131.2256,31.25,180,0.7083,0.2661,7.2563,-60.5602,31,0.6883,7840,4.0051,58.6053
rg,1625137589886986598,1,0.1362,-1.3289,0.7371,358,-22.7661,152.8931,51.4526,180,0.7063,0.2591,11.473,-62.1958,31,0.6863,7681,4.0051,54.1593
rg,1625137589887004641,1,-0.1316,-1.5156,0.6272,359,7.6904,144.2871,26.1841,180,0.7053,0.2531,14.7514,-63.1749,31,0.6843,7849,4.0051,49.3411
rg,1625137589887023313,1,-0.5525,-1.1433,0.3174,360,120.4224,76.0498,-32.8979,180,0.7063,0.2491,15.4517,-59.6616,31,0.6843,7981,4.0051,45.8346
rg,1625137589887041282,1,-0.5071,-0.3022,0.1284,361,196.5942,37.4146,-34.668,180,0.7093,0.2441,16.636,-52.5338,31,0.6833,8258,4.0051,43.8036
rg,1625137589887058657,1,-0.4822,-0.0039,0.1294,362,166.0767,19.2871,-17.6392,180,0.7133,0.2421,18.1202,-47.0091,31,0.6843,7891,4.0051,44.7814
rg,1625137589887075736,1,-0.3767,0.1174,0.0835,363,33.0811,-68.3594,8.1177,180,0.7163,0.2491,17.1334,-48.285,31,0.6873,8348,4.0051,48.7509
rg,1625137589887093260,1,-0.2107,-0.3733,0.2239,364,-150.5127,-160.4004,20.4468,180,0.7224,0.2551,14.0824,-53.1479,31,0.6903,8005,4.0051,54.3126
rg,1625137589887110710,1,0.5278,-1.5,1.5852,365,-222.8394,-197.3877,44.4336,180,0.7284,0.2601,10.2187,-60.0074,31,0.6943,7974,4.0051,62.1839
rg,1625137589887128623,1,0.5657,-1.863,0.7739,366,-127.1362,-133.728,53.9551,180,0.7374,0.2591,9.1317,-60.7281,31,0.6953,8062,4.0051,66.5278
rg,1625137589887146888,1,0.7351,-1.7141,0.4551,367,45.5933,-48.7061,29.3579,180,0.7604,0.2591,7.9968,-59.0843,31,0.6973,8214,4.0051,68.7242
rg,1625137589887165097,1,0.4338,-0.9607,0.5894,368,126.77,66.2231,-11.8408,180,0.7864,0.2601,7.9414,-54.3445,31,0.7013,8047,4.0051,66.1808
rg,1625137589887183195,1,0.061,-0.5691,0.229,369,125.3662,137.3291,12.207,180,0.8084,0.2621,11.1246,-50.56,31,0.7033,8290,4.0051,61.9691
rg,1625137589887201052,1,-0.1025,-0.5403,0.2524,370,87.2192,171.875,22.3389,180,0.8274,0.2651,16.6696,-48.5096,31,0.7043,8228,4.0051,57.1289
rg,1625137589887247548,1,-0.4861,-0.6809,0.4768,371,35.6445,161.8042,23.5596,180,0.8364,0.2651,22.1522,-48.8036,31,0.7053,7952,4.0051,52.5637
rg,1625137589887269425,1,-0.7163,-0.8506,0.2893,372,-5.188,21.6064,9.2773,180,0.8334,0.2691,23.6757,-49.9127,31,0.7073,7841,4.0051,51.8302
rg,1625137589887286689,1,-0.5979,-0.8613,0.4358,373,-62.0728,-47.3633,21.6064,180,0.7984,0.2751,21.5792,-52.9587,31,0.7083,7961,4.0051,56.4564
rg,1625137589887316476,1,-0.1167,-0.9963,0.6777,374,-147.1558,-159.3018,20.874,180,0.7574,0.2811,18.0043,-56.8812,31,0.7033,7822,4.0051,62.4868
rg,1625137589887335463,1,0.2393,-1.2537,0.6208,375,-112.6099,-174.0723,24.5361,180,0.7274,0.2841,14.1595,-59.7718,31,0.6953,8509,4.0051,69.1277
rg,1625137589887353376,1,0.6567,-1.2717,0.5239,376,-68.3594,-157.1045,48.8281,180,0.7214,0.2851,12.4018,-59.9083,31,0.6973,8234,4.0051,74.2139
rg,1625137589887371511,1,0.6387,-1.2168,0.6748,377,10.498,-30.0903,38.208,180,0.7153,0.2781,11.7421,-59.132,31,0.6983,8928,4.0051,76.0457
rg,1625137589887389368,1,0.3887,-1.136,0.5549,378,44.0063,38.8184,23.1323,180,0.7113,0.2631,12.2409,-57.7317,31,0.6973,8605,4.0051,75.1308
rg,1625137589887406799,1,-0.0391,-0.8994,0.2188,379,90.0269,72.3877,-27.4048,180,0.7113,0.2591,12.5444,-55.5342,31,0.6953,8390,4.0051,71.8729
rg,1625137589887424027,1,-0.2937,-0.3811,0.0647,380,136.2915,79.3457,-51.0864,180,0.7133,0.2561,13.7536,-51.7382,31,0.6943,8881,4.0051,67.8758
rg,1625137589887441569,1,-0.387,-0.1848,0.1482,381,132.6904,91.3696,-44.6167,180,0.7153,0.2591,16.5284,-46.9065,31,0.6923,8483,4.0051,64.0259
rg,1625137589887458908,1,-0.4968,-0.0837,0.2681,382,27.0996,40.2222,-0.3662,180,0.7184,0.2661,19.2357,-45.609,31,0.6923,8299,4.0051,62.9824
rg,1625137589887476561,1,-0.3025,-0.552,0.5349,383,-111.3892,-95.9473,17.4561,180,0.7224,0.2771,17.2477,-48.9657,31,0.6933,8823,4.0051,66.4509
rg,1625137589887494548,1,0.2168,-1.3496,1.082,384,-145.2026,-145.5688,34.0576,180,0.7284,0.2731,13.7467,-53.3399,31,0.6973,8698,4.0051,72.0486
rg,1625137591224105322,1,0.2869,-0.8284,0.5251,385,96.8628,69.5801,-3.3569,180,0.7814,0.2741,14.2136,-50.2008,31,0.7083,28367,4.0051,69.6338
rg,1625137591224139202,1,-0.031,-0.626,0.3708,386,77.0874,114.9902,13.4888,180,0.7964,0.2721,17.1428,-48.3709,31,0.7113,11648,4.0051,66.2721
rg,1625137591224159874,1,-0.332,-0.7561,0.4148,387,10.8643,118.7134,25.3906,180,0.7974,0.2811,21.1706,-49.4394,31,0.7133,8549,4.0051,63.0343
rg,1625137591224179416,1,-0.4387,-0.9072,0.5042,388,-90.6982,-5.9204,15.4419,180,0.7664,0.2861,21.5794,-53.2711,31,0.7133,9685,4.0051,63.4848
rg,1625137591224198069,1,-0.2576,-1.0479,0.6692,389,-104.9805,-114.9292,-4.5166,180,0.7404,0.2891,18.4117,-56.2843,31,0.7063,7884,4.0051,67.3267
rg,1625137591224216593,1,-0.0369,-1.0969,0.6089,390,-97.0459,-147.522,20.1416,180,0.7244,0.2891,15.29,-57.7919,31,0.6983,8793,4.0051,74.2742
rg,1625137591224234357,1,0.5237,-1.1575,0.7048,391,-51.2695,-153.8696,56.6406,180,0.7194,0.2901,12.6255,-58.2591,31,0.7033,8084,4.0051,80.8823
rg,1625137591224252362,1,0.7087,-1.2871,0.4985,392,15.564,-78.0029,55.7861,180,0.7133,0.2761,11.41,-57.1916,31,0.7033,9144,4.0051,84.697
rg,1625137591224270181,1,0.5278,-1.1001,0.3601,393,42.3584,32.7759,15.564,180,0.7123,0.2651,11.3251,-56.179,31,0.7023,8108,4.0051,83.8046
rg,1625137591224288390,1,0.2771,-0.8726,0.2808,394,58.4106,86.731,-13.916,180,0.7123,0.2551,12.3372,-55.2268,31,0.6993,8048,4.0051,80.4064
rg,1625137591224306191,1,-0.2002,-0.4133,0.1462,395,83.313,157.2266,-46.7529,180,0.7133,0.2531,14.9246,-53.9575,31,0.6983,8257,4.0051,73.9085
rg,1625137591224323973,1,-0.5635,-0.2654,0.283,396,49.6216,171.5698,-31.9214,180,0.7143,0.2561,19.3941,-53.6608,31,0.6973,7927,4.0051,67.3999
rg,1625137591224342052,1,-0.7131,-0.5181,0.3799,397,-57.251,30.5176,-8.8501,180,0.7174,0.2611,20.8788,-56.3851,31,0.6983,8660,4.0051,66.095
rg,1625137591224359501,1,-0.6296,-0.7478,0.4878,398,-97.4121,-63.2324,-6.1646,180,0.7224,0.2661,19.2571,-59.4378,31,0.7003,8477,4.0051,68.2786
rg,1625137591224376450,1,-0.0603,-1.2747,0.9497,399,-124.3896,-184.8145,25.3906,163,0.7274,0.2711,15.8963,-61.9349,31,0.7013,8238,3.9963,75.657
rg,1625137591224424611,1,0.7122,-1.4883,0.5117,400,-3.9062,-151.123,52.7344,163,0.7544,0.2591,13.9249,-58.7934,31,0.7043,8922,3.9963,80.3087
rg,1625137591224445042,1,0.5156,-0.938,0.4011,401,129.5166,13.6719,3.0518,163,0.7794,0.2511,12.8521,-54.015,31,0.7063,11950,3.9963,79.773
rg,1625137591224510578,1,0.1692,-0.6133,0.301,402,126.5259,118.5913,22.2168,163,0.8024,0.2651,15.4292,-50.1596,31,0.7063,8484,3.9963,76.3475
rg,1625137591224530232,1,-0.2468,-0.5728,0.3821,403,72.3877,189.7583,37.5977,163,0.8154,0.2711,21.6198,-49.1165,31,0.7063,8784,3.9963,71.2086
rg,1625137591224548551,1,-0.5032,-0.6731,0.48,404,50.8423,180.2979,34.9121,163,0.8184,0.2731,27.9753,-49.448,31,0.7083,8165,3.9963,66.0862
rg,1625137591224566111,1,-0.7388,-0.7876,0.4329,405,-31.7383,15.564,29.1138,163,0.7974,0.2791,29.3432,-51.0511,31,0.7073,9933,3.9963,66.1548
rg,1625137591224583190,1,-0.3018,-0.8887,0.5347,406,-119.3237,-168.457,16.2964,163,0.7634,0.2821,25.2446,-53.1809,31,0.7043,8463,3.9963,72.4422
rg,1625137591224608030,1,0.2029,-1.1475,0.6323,407,-124.4507,-215.0879,27.0386,163,0.7274,0.2881,19.8748,-55.3024,31,0.6923,10644,3.9963,80.5586
rg,1625137591224627239,1,0.5889,-1.2629,0.3972,408,-57.7393,-148.9258,40.9546,163,0.7214,0.2861,16.357,-56.3157,31,0.6913,8592,3.9963,86.5026
rg,1625137591224645040,1,0.4607,-1.1301,0.6023,409,9.3384,5.0049,13.1836,163,0.7153,0.2711,15.5659,-56.1134,31,0.6953,8346,3.9963,86.5681
rg,1625137591224663434,1,0.1992,-1.0942,0.5168,410,23.4375,44.0063,5.3711,163,0.7123,0.2611,15.7683,-55.8911,31,0.6953,8650,3.9963,85.078
rg,1625137591224681179,1,-0.2385,-0.8223,0.1995,411,44.3726,61.5845,-23.2544,163,0.7113,0.2551,15.8778,-54.5143,31,0.6953,8872,3.9963,81.3906
rg,1625137591224701925,1,-0.3503,-0.5618,0.1665,412,105.896,72.0825,-54.8096,163,0.7123,0.2451,16.4522,-51.9841,31,0.6953,8244,3.9963,77.4589
rg,1625137591224719986,1,-0.5581,-0.2224,0.3081,413,83.9233,76.5381,-35.1562,163,0.7153,0.2471,18.7392,-49.2764,31,0.6943,9127,3.9963,74.1886
rg,1625137591224738361,1,-0.4607,-0.3035,0.2556,414,-28.3813,-52.6733,2.5635,163,0.7194,0.2521,18.6084,-49.8522,31,0.6953,8551,3.9963,75.9503
rg,1625137591224756051,1,-0.0469,-0.8438,0.8076,415,-143.7988,-178.5889,18.9819,163,0.7234,0.2611,14.1833,-53.6382,31,0.6973,8944,3.9963,82.3542
rg,1625137591224773463,1,0.5142,-1.5845,0.7756,416,-94.7266,-140.8081,38.0249,163,0.7294,0.2681,11.0844,-56.5638,31,0.6993,9609,3.9963,87.9081
rg,1625137591460781575,1,0.2947,-0.7454,0.4492,417,139.7705,37.1094,-22.8271,163,0.7964,0.2771,10.9238,-46.0058,31,0.7174,20408,3.9963,145.9764
rg,1625137591460945285,1,0.0093,-0.4961,0.2087,418,111.7554,88.6841,9.0332,163,0.8174,0.2881,13.2553,-42.8567,31,0.7184,8264,3.9963,143.5235
rg,1625137591460969199,1,-0.2673,-0.6208,0.3643,419,41.4429,116.272,26.2451,163,0.8274,0.2911,17.6622,-42.4871,31,0.7204,7812,3.9963,140.9023
rg,1625137591460988815,1,-0.4128,-0.759,0.4592,420,7.0801,84.4727,28.7476,163,0.8304,0.2971,21.2101,-43.3237,31,0.7224,7606,3.9963,139.1616
rg,1625137591461008154,1,-0.4458,-0.8901,0.4719,421,-63.6597,-55.603,16.9678,86,0.8174,0.2991,20.246,-45.7932,31,0.7244,7791,4.0414,141.0907
rg,1625137591461026788,1,-0.2739,-0.8984,0.4712,422,-80.4443,-112.854,12.9395,86,0.7854,0.3031,16.9321,-48.3197,31,0.7204,7681,4.0414,144.7737
rg,1625137591461045775,1,0.135,-0.9653,0.6006,423,-103.2104,-158.9355,27.2217,86,0.7524,0.3132,12.7862,-51.3437,31,0.7113,7811,4.0414,150.434
rg,1625137591461064335,1,0.4949,-1.0864,0.5239,424,-72.2046,-142.5781,42.6025,86,0.7384,0.3132,9.3908,-53.5954,31,0.7063,7709,4.0414,156.0165
rg,1625137591461082432,1,0.7009,-1.1047,0.6274,425,-44.9219,-107.4219,43.8843,86,0.7344,0.3061,6.9178,-54.9657,31,0.7103,7921,4.0414,160.551
rg,1625137591461099882,1,0.6489,-1.197,0.4734,426,-6.2866,26.7334,39.6118,86,0.7304,0.2871,7.5688,-55.6793,31,0.7113,7710,4.0414,160.5158
rg,1625137591461117294,1,0.3164,-1.1277,0.4773,427,10.0098,129.6997,4.4556,86,0.7264,0.2751,9.7459,-56.3468,31,0.7103,7891,4.0414,156.2049
rg,1625137591461135095,1,0.0068,-1.0122,0.415,428,31.3721,172.4243,-19.9585,86,0.7264,0.2671,12.4587,-56.7559,31,0.7083,7797,4.0414,149.8149
rg,1625137591461152914,1,-0.7056,-0.5095,0.2815,429,105.1636,173.584,-40.0391,86,0.7304,0.2661,16.4323,-54.3689,31,0.7073,16654,4.0414,142.9848
rg,1625137591461170660,1,-0.748,-0.3545,0.2456,430,30.7617,27.2217,-4.5776,86,0.7324,0.2721,18.4817,-53.4527,31,0.7073,9946,4.0414,141.962
rg,1625137591461188461,1,-0.4966,-0.6631,0.4663,431,-78.5522,-136.8408,8.3008,86,0.7374,0.2821,16.0908,-55.182,31,0.7073,8006,4.0414,146.8071
rg,1625137591461206225,1,0.1135,-1.2051,0.9521,432,-113.4033,-226.5625,31.0059,86,0.7404,0.2851,11.3605,-57.5476,31,0.7083,8057,4.0414,155.3244
rg,1625137591461223248,1,0.4067,-1.4448,0.7563,433,-61.1572,-208.1299,42.3584,86,0.7454,0.2871,7.4721,-58.837,31,0.7093,8064,4.0414,163.3643
rg,1625137591461240104,1,0.6558,-1.353,0.4209,434,47.8516,-108.9478,27.5269,86,0.7614,0.2961,4.8997,-56.9443,31,0.7093,8306,4.0414,167.5796
rg,1625137591461257590,1,0.4102,-0.8228,0.4673,435,88.0127,0.4883,-13.4888,86,0.7854,0.3092,3.3912,-53.5723,31,0.7133,11587,4.0414,167.2117
rg,1625137591461274798,1,0.1311,-0.6252,0.377,436,83.7402,72.5708,8.4229,86,0.8044,0.3172,4.8957,-50.5793,31,0.7163,8090,4.0414,165.0919
rg,1625137591461292062,1,-0.1172,-0.7119,0.3977,437,41.8091,104.4922,27.0996,86,0.8184,0.3252,8.5209,-49.596,31,0.7184,8126,4.0414,162.5246
rg,1625137591461309678,1,-0.2571,-0.8096,0.4358,438,26.5503,94.1162,26.8555,86,0.8224,0.3282,12.0506,-49.3843,31,0.7204,8161,4.0414,160.2506
rg,1625137591461326775,1,-0.4016,-0.9153,0.3931,439,-15.8081,9.1553,28.1982,86,0.8144,0.3352,13.5536,-50.5496,31,0.7234,8138,4.0414,160.5674
rg,1625137591461343817,1,-0.0562,-0.9062,0.5833,440,-79.5898,-91.8579,21.4233,86,0.7854,0.3382,11.5583,-53.2195,31,0.7214,8188,4.0414,164.0207
rg,1625137591461361025,1,0.1062,-0.9553,0.6411,441,-87.8906,-115.4175,17.5171,86,0.7514,0.3462,8.5912,-56.054,31,0.7123,8393,4.0414,168.6229
rg,1625137591461378863,1,0.4028,-1.114,0.4565,442,-76.355,-112.0605,36.8042,86,0.7284,0.3282,6.4124,-58.9234,31,0.7013,8289,4.0414,-186.8092
rg,1625137591461396238,1,0.6284,-1.0576,0.6958,443,-31.7383,-30.7617,38.8184,86,0.7234,0.3061,5.8941,-59.898,31,0.7013,8263,4.0414,-184.934
rg,1625137591461414020,1,0.5566,-1.1628,0.5623,444,19.8364,60.791,48.2788,86,0.7174,0.2941,7.6671,-59.3862,31,0.7043,8387,4.0414,-186.0959
rg,1625137591461431340,1,0.4302,-1.1812,0.5437,445,15.4419,93.689,31.311,86,0.7133,0.2841,9.6412,-59.3765,31,0.7013,8282,4.0414,171.2474
rg,1625137591461448511,1,-0.1511,-1.1636,0.5559,446,55.603,164.856,-22.583,86,0.7123,0.2771,12.1233,-58.5249,31,0.6983,8349,4.0414,164.9865
rg,1625137591461466331,1,-0.5618,-0.5972,0.2229,447,141.8457,170.5933,-47.8516,86,0.7123,0.2771,15.3582,-54.8388,31,0.6983,8385,4.0414,158.0164
rg,1625137591461484891,1,-0.6814,-0.3418,0.2458,448,154.2358,161.9873,-43.5181,86,0.7143,0.2781,19.3999,-51.2434,31,0.6953,8435,4.0414,153.2706
rg,1625137591820343188,1,-0.5127,-0.6541,0.4197,449,-162.7197,-213.8672,13.1226,86,0.7254,0.2871,13.3527,-56.2575,31,0.6993,27567,4.0414,163.4915
rg,1625137591820373011,1,0.7881,-1.7383,0.4275,450,-5.9814,-187.1338,56.9458,86,0.7324,0.2801,9.7306,-55.6637,31,0.7013,12598,4.0414,170.9406
rg,1625137591820393590,1,0.8135,-1.4736,0.417,451,49.1333,-121.6431,32.6538,86,0.7464,0.2741,6.5443,-53.3589,31,0.7053,7805,4.0414,-184.381
rg,1625137591820433490,1,0.5374,-0.811,0.5168,452,90.5151,-2.0752,-11.8408,86,0.7644,0.2701,4.797,-49.9076,31,0.7083,8903,4.0414,-184.669
rg,1625137591820453051,1,0.2954,-0.6875,0.3655,453,72.4487,65.4907,2.1362,86,0.7894,0.2811,5.6016,-47.6289,31,0.7083,7738,4.0414,-186.6535
rg,1625137591820471833,1,0.2131,-0.771,0.3438,454,49.0112,90.9424,13.4888,86,0.8124,0.2881,8.7401,-47.499,31,0.7073,7745,4.0414,170.3997
rg,1625137591820489857,1,-0.1079,-0.9529,0.3865,455,31.0669,121.9482,17.8833,86,0.8364,0.2911,12.7576,-47.6424,31,0.7063,9698,4.0414,167.0979
rg,1625137591820507936,1,-0.394,-0.9836,0.4341,456,48.3398,76.6602,18.3716,86,0.8504,0.2971,15.6777,-46.8465,31,0.7043,7680,4.0414,165.1331
rg,1625137591820525181,1,-0.4229,-0.8586,0.4097,457,43.5791,-33.7524,24.5361,86,0.8524,0.3021,15.8046,-45.283,31,0.7063,7744,4.0414,166.6822
rg,1625137591820542223,1,-0.2285,-0.7585,0.4272,458,13.3667,-90.3931,38.147,86,0.8304,0.3071,14.3051,-44.3627,31,0.7083,7674,4.0414,170.2832
rg,1625137591820558968,1,0.1929,-0.8123,0.5178,459,-80.0171,-142.6392,44.9219,86,0.7774,0.3182,10.6529,-46.8768,31,0.7113,7872,4.0414,-184.3613
rg,1625137591820576250,1,0.2937,-0.917,0.4597,460,-114.8071,-137.6953,34.79,86,0.7404,0.3252,7.4096,-51.8162,31,0.7063,7717,4.0414,-180.1186
rg,1625137591820593366,1,0.397,-1.063,0.4221,461,-96.6797,-92.6514,32.8979,86,0.7153,0.3122,5.294,-55.8511,31,0.6953,7837,4.0414,-176.3736
rg,1625137591820610259,1,0.533,-0.9055,0.4036,462,-51.3916,3.9062,44.9219,86,0.7063,0.2861,5.6289,-58.1628,31,0.6923,7809,4.0414,-175.5369
rg,1625137591820627708,1,0.571,-0.8555,0.8313,463,-38.147,72.876,40.0391,86,0.7023,0.2761,7.3228,-59.4218,31,0.6913,7972,4.0414,-177.1649
rg,1625137591820647380,1,0.2563,-1.2178,0.7717,464,-25.0244,138.3667,51.7578,86,0.7003,0.2681,11.162,-60.9509,31,0.6883,7814,4.0414,-180.9797
rg,1625137591820664774,1,-0.2373,-1.5347,0.6404,465,16.0522,126.5869,-16.1133,86,0.7003,0.2601,12.8903,-61.5663,31,0.6873,7956,4.0414,-185.886
rg,1625137591820682167,1,-0.5464,-1.4705,0.6912,466,56.8848,115.1733,-51.8188,86,0.6993,0.2551,13.5109,-60.5895,31,0.6843,7873,4.0414,168.9221
rg,1625137591820699357,1,-0.7468,-0.7798,0.2793,467,164.856,71.4111,-58.1665,86,0.7003,0.2511,14.1388,-55.1839,31,0.6843,7980,4.0414,165.1545
rg,1625137591820716213,1,-0.5908,-0.0884,0.0771,468,162.7808,-17.4561,-16.0522,86,0.7023,0.2421,15.2492,-48.5653,31,0.6833,7940,4.0414,165.4567
rg,1625137591820733236,1,-0.4944,0.0979,0.0435,469,114.502,-82.2144,-7.9346,86,0.7043,0.2411,14.9245,-42.9403,31,0.6843,8047,4.0414,167.9093
rg,1625137591820749981,1,-0.2493,0.0007,-0.0276,470,-41.4429,-217.5293,3.2349,86,0.7073,0.2361,10.9291,-43.3759,31,0.6843,7970,4.0414,-185.9285
rg,1625137591820766782,1,0.1265,-0.5896,0.6775,471,-230.1636,-289.856,36.6211,86,0.7113,0.2451,3.4896,-51.2582,31,0.6883,8092,4.0414,-176.3242
rg,1625137591820783546,1,0.8335,-1.8936,0.8738,472,-169.1895,-184.2041,69.3359,86,0.7174,0.2511,0.5624,-58.2196,31,0.6933,10972,4.0414,-168.6999
rg,1625137591820810849,1,0.9089,-2.0698,0.1416,473,-43.7622,-120.2393,72.1436,86,0.7264,0.2561,-0.4261,-60.7883,31,0.6963,8124,4.0414,-163.0848
rg,1625137591820829039,1,0.6726,-1.2886,0.4453,474,68.7256,43.9453,-6.4087,86,0.7394,0.2551,-0.7531,-58.3748,31,0.6983,8154,4.0414,-164.7533
rg,1625137591820846285,1,0.2397,-0.6038,0.5518,475,98.0225,137.7563,-8.1177,86,0.7614,0.2531,1.4066,-54.0697,31,0.7013,8542,4.0414,-169.5452
rg,1625137591820863326,1,-0.074,-0.675,0.3582,476,54.0161,156.25,13.9771,86,0.7854,0.2521,5.7248,-52.5068,31,0.7033,8088,4.0414,-174.24
rg,1625137591820880535,1,-0.1975,-0.8413,0.4097,477,26.7944,137.085,21.7896,86,0.8094,0.2641,9.9792,-52.4006,31,0.7043,8318,4.0414,-178.1426
rg,1625137591820907745,1,-0.4094,-0.9993,0.3499,478,34.3018,73.6694,21.7285,86,0.8264,0.2761,12.9129,-52.0634,31,0.7043,8153,4.0414,-180.0966
rg,1625137591820925157,1,-0.4858,-0.9119,0.3176,479,51.3916,-3.54,11.7188,86,0.8394,0.2811,13.7548,-50.574,31,0.7053,8362,4.0414,-179.822
rg,1625137591820941773,1,-0.4658,-0.811,0.3335,480,40.8936,-29.2969,26.001,86,0.8444,0.2841,13.801,-49.5264,31,0.7073,8360,4.0414,-176.5539
rg,1625137592192464611,1,0.3899,-1.1147,0.4939,481,-140.0757,-133.5449,19.6533,86,0.7364,0.2991,9.9993,-54.735,31,0.7033,26087,4.0414,-171.8526
rg,1625137592192495285,1,0.5479,-1.144,0.2578,482,-30.0293,-24.4141,61.5234,86,0.7123,0.2921,10.1965,-56.3271,31,0.6973,13197,4.0414,-169.7485
rg,1625137592192515772,1,0.6125,-0.9487,0.7434,483,3.7231,104.126,53.2227,86,0.7073,0.2661,12.8825,-56.4774,31,0.6963,11203,4.0414,-172.0701
rg,1625137592192535017,1,0.4473,-1.2268,0.6294,484,1.5869,153.4424,65.3687,86,0.7053,0.2601,17.2166,-57.6522,31,0.6943,7782,4.0414,-175.9897
rg,1625137592192553281,1,-0.0442,-1.4761,0.5918,485,18.9209,171.0205,36.9873,86,0.7043,0.2541,20.3706,-58.1126,31,0.6923,8344,4.0414,-182.7076
rg,1625137592192571656,1,-0.3987,-1.2666,0.458,486,100.769,182.0679,-40.2832,86,0.7053,0.2521,22.7256,-57.3442,31,0.6913,7542,4.0414,169.5819
rg,1625137592192589345,1,-0.7251,-0.5793,0.2183,487,206.4819,150.8179,-69.1528,86,0.7063,0.2391,24.9499,-52.307,31,0.6903,8023,4.0414,162.3927
rg,1625137592192606331,1,-0.8499,-0.0078,0.1436,488,163.3301,79.5288,-27.2217,86,0.7083,0.2411,28.07,-46.9779,31,0.6893,8443,4.0414,159.14
rg,1625137592192623298,1,-0.8,0.05,0.083,489,17.8223,-67.8711,5.3101,86,0.7113,0.2441,28.2967,-44.8086,31,0.6903,10899,4.0414,161.719
rg,1625137592192640247,1,-0.4587,-0.4565,0.2737,490,-149.0479,-219.9097,36.377,86,0.7143,0.2481,23.8166,-47.6274,31,0.6933,8234,4.0414,169.6698
rg,1625137592192657344,1,-0.1853,-0.8279,0.8337,491,-209.8999,-280.0903,52.2461,86,0.7174,0.2461,17.6796,-52.1169,31,0.6953,8447,4.0414,-179.702
rg,1625137592192674811,1,0.696,-1.905,1.0676,492,-131.2866,-244.812,76.5381,86,0.7214,0.2481,13.0507,-54.9995,31,0.6973,8311,4.0414,-169.7465
rg,1625137592192692186,1,0.7981,-1.7468,0.3413,493,70.4956,-114.0137,45.4102,86,0.7304,0.2421,10.4837,-52.0365,31,0.7003,7835,4.0414,-165.1298
rg,1625137592192709431,1,0.6392,-1.2549,0.4438,494,110.4126,-39.917,4.0894,86,0.7484,0.2401,9.0734,-47.2028,31,0.7043,8375,4.0414,-166.244
rg,1625137592192726565,1,0.3176,-0.5583,0.5103,495,128.8452,57.4341,-17.8833,86,0.7724,0.2511,8.9932,-42.4152,31,0.7053,8591,4.0414,-168.4523
rg,1625137592192743754,1,0.0039,-0.675,0.3816,496,25.6348,127.8687,17.5781,86,0.8094,0.2661,12.8633,-42.6685,31,0.7053,12505,4.0414,-171.5664
rg,1625137592192760796,1,-0.1428,-0.8337,0.4941,497,5.188,134.2163,17.8833,86,0.8304,0.2691,17.4264,-44.1161,31,0.7043,8236,4.0414,-175.0377
rg,1625137592192777744,1,-0.4758,-0.9883,0.4043,498,15.0146,82.0312,9.4604,86,0.8454,0.2791,20.3191,-45.083,31,0.7043,8075,4.0414,-177.4589
rg,1625137592192794285,1,-0.449,-0.887,0.3606,499,23.0713,-40.2832,8.1787,86,0.8524,0.2831,19.6552,-44.502,31,0.7063,8829,4.0414,-176.2923
rg,1625137592192810975,1,0.0037,-0.7566,0.4875,500,-25.2075,-117.9199,30.9448,86,0.8404,0.2881,16.4264,-44.655,31,0.7083,8091,4.0414,-172.054
rg,1625137592192828090,1,0.4119,-0.9253,0.5181,501,-122.7417,-138.6719,20.6299,86,0.7854,0.2971,11.8917,-48.9736,31,0.7063,9724,4.0414,-167.4222
rg,1625137592192856153,1,0.2732,-1.1594,0.3611,502,-143.8599,-63.1714,-10.3149,86,0.7424,0.2991,9.1143,-55.2712,31,0.7043,8531,4.0414,-165.7866
rg,1625137592192873861,1,0.2869,-1.177,0.3745,503,-103.6987,-33.5083,11.1694,86,0.7153,0.2861,7.9314,-59.8424,31,0.6943,8363,4.0414,-164.4717
rg,1625137592192890587,1,0.4182,-1.0312,0.468,504,-70.9229,49.7437,46.7529,86,0.7083,0.2611,9.4404,-63.0044,31,0.6953,7888,4.0414,-165.3434
rg,1625137592192907110,1,0.1628,-1.2993,0.96,505,-7.019,137.6953,44.3115,86,0.7043,0.2531,12.8758,-63.7076,31,0.6943,8160,4.0414,-169.494
rg,1625137592192923892,1,0.0261,-1.626,0.5435,506,15.1367,107.7881,72.3877,86,0.7033,0.2481,15.725,-62.7224,31,0.6933,8668,4.0414,-171.4012
rg,1625137592192940525,1,-0.1282,-1.5386,0.4097,507,97.3511,58.7158,10.5591,86,0.7023,0.2461,16.7883,-59.8733,31,0.6893,8149,4.0414,-173.4864
rg,1625137592192956993,1,-0.3613,-0.6511,0.1135,508,220.0317,38.9404,-42.6025,86,0.7023,0.2431,16.7471,-52.4803,31,0.6873,10054,4.0414,-175.9912
rg,1625137592192973737,1,-0.406,0.0095,0.1968,509,207.5806,47.4243,-30.5176,86,0.7033,0.2411,18.857,-44.0266,31,0.6863,9004,4.0414,-177.9326
rg,1625137592192990649,1,-0.4993,0.1436,0.1165,510,70.1904,-1.2817,12.6953,86,0.7063,0.2401,21.1816,-40.206,31,0.6863,8351,4.0414,-177.1459
rg,1625137592193036346,1,-0.4028,-0.2856,0.1477,511,-110.0464,-104.4312,30.2124,86,0.7083,0.2451,20.0736,-43.7859,31,0.6883,8917,4.0414,-173.4414
rg,1625137592193055017,1,-0.0405,-1.0459,1.3081,512,-186.1572,-156.25,35.8276,86,0.7113,0.2481,15.1658,-50.648,31,0.6903,8817,4.0414,-165.983
rg,1625137592555208404,1,0.5415,-1.4697,0.5591,513,30.6396,-67.627,26.5503,86,0.7274,0.2681,13.19,-48.8598,31,0.6973,27392,4.0414,-165.3704
rg,1625137592555251266,1,0.1033,-0.6743,0.5237,514,46.6309,17.2119,-19.7144,86,0.7504,0.2741,12.2798,-47.3586,31,0.7023,13444,4.0414,-166.4759
rg,1625137592555272494,1,0.0229,-0.7441,0.4109,515,12.6343,34.79,-4.6997,86,0.7784,0.2741,12.3912,-47.6508,31,0.7033,9650,4.0414,-167.775
rg,1625137592555389671,1,0.104,-1.0488,0.5122,516,3.2349,43.396,11.1084,86,0.8074,0.2861,13.2088,-48.3882,31,0.7053,7896,4.0414,-168.9334
rg,1625137592555412344,1,-0.0601,-1.0618,0.3013,517,34.4238,44.7388,1.2207,86,0.8254,0.2901,14.0769,-48.337,31,0.7063,11180,4.0414,-170.5123
rg,1625137592555432108,1,-0.1982,-0.8308,0.3254,518,52.4902,54.9316,4.8828,86,0.8374,0.2941,15.6554,-47.4253,31,0.7073,7714,4.0414,-172.26
rg,1625137592555451520,1,-0.2642,-0.7395,0.3342,519,50.293,54.9316,12.3901,86,0.8444,0.2961,17.5575,-46.7862,31,0.7083,7811,4.0414,-173.0917
rg,1625137592555470228,1,-0.2974,-0.5894,0.2249,520,17.0898,4.2725,21.4844,86,0.8434,0.3001,18.6446,-46.7634,31,0.7083,7683,4.0414,-172.8512
rg,1625137592555488807,1,-0.0972,-0.6348,0.3835,521,-85.3882,-62.7441,25.5127,86,0.8134,0.3082,17.3154,-49.8212,31,0.7123,7845,4.0414,-170.311
rg,1625137592555507497,1,0.0991,-0.9106,0.4456,522,-163.5132,-115.2344,9.5215,86,0.7614,0.3102,13.9871,-55.7996,31,0.7103,9235,4.0414,-166.3839
rg,1625137592555526316,1,0.1479,-1.0166,0.3923,523,-163.6353,-118.042,12.2681,86,0.7304,0.3041,11.1536,-61.8698,31,0.7043,7875,4.0414,-162.0703
rg,1625137592555545062,1,0.395,-1.0955,0.4143,524,-96.9849,-82.7637,48.2178,86,0.7133,0.3011,10.2901,-65.276,31,0.6953,8961,4.0414,-158.2055
rg,1625137592555563678,1,0.6135,-1.1638,0.8848,525,-51.6357,4.6387,51.6968,86,0.7083,0.2711,11.0209,-66.7351,31,0.6953,9915,4.0414,-157.4311
rg,1625137592555581386,1,0.4102,-1.4236,0.6177,526,8.9722,60.1196,67.688,86,0.7073,0.2631,13.4529,-66.6035,31,0.6943,7791,4.0414,-158.6046
rg,1625137592555600020,1,0.2993,-1.4683,0.5117,527,29.9072,87.2803,58.1055,86,0.7063,0.2581,16.0242,-66.1628,31,0.6913,8004,4.0414,-161.0035
rg,1625137592555621636,1,-0.0974,-1.3572,0.5698,528,82.1533,119.0186,11.8408,86,0.7073,0.2561,17.9462,-64.1757,31,0.6883,7838,4.0414,-165.337
rg,1625137592555640641,1,-0.5371,-0.9729,0.5154,529,140.3809,89.3555,-14.8315,86,0.7073,0.2531,19.4028,-59.6385,31,0.6873,8036,4.0414,-168.9168
rg,1625137592555658886,1,-0.6252,-0.7712,0.374,530,161.6821,52.4292,-10.7422,86,0.7083,0.2501,20.8309,-54.0479,31,0.6853,7877,4.0414,-171.0477
rg,1625137592555704972,1,-0.5764,-0.4058,0.1528,531,144.3481,-19.165,8.1787,86,0.7103,0.2481,21.8351,-48.3299,31,0.6833,8048,4.0414,-170.252
rg,1625137592555726718,1,-0.4119,-0.1833,0.1653,532,71.8994,-89.4165,21.1792,86,0.7113,0.2401,21.3561,-44.1684,31,0.6843,7917,4.0414,-166.7748
rg,1625137592555746075,1,-0.2983,-0.1748,0.166,533,25.0244,-131.8359,18.6768,86,0.7123,0.2371,19.146,-41.6837,31,0.6833,8094,4.0414,-162.3461
rg,1625137592555763357,1,-0.0952,-0.356,0.2856,534,-67.3218,-178.9551,4.6997,86,0.7153,0.2341,13.7436,-43.2759,31,0.6853,7998,4.0414,-157.2779
rg,1625137592555782288,1,0.1709,-0.7764,0.6912,535,-116.7603,-145.0195,6.5308,86,0.7194,0.2361,8.985,-47.2524,31,0.6893,8150,4.0447,-152.9029
rg,1625137592555800514,1,0.2798,-1.0376,0.7209,536,-107.5439,-102.0508,10.6812,86,0.7234,0.2411,5.8378,-51.3949,31,0.6923,8028,4.0447,-149.5175
rg,1625137592555818148,1,0.4092,-1.3787,0.6877,537,-62.2559,-32.0435,7.9346,86,0.7314,0.2441,4.5222,-54.2183,31,0.6973,8246,4.0447,-148.3271
rg,1625137592555836671,1,0.2715,-1.345,0.6934,538,-8.667,12.085,-17.2119,86,0.7414,0.2511,3.6655,-54.9407,31,0.7023,8091,4.0447,-149.1446
rg,1625137592555854491,1,0.1638,-1.2354,0.6667,539,16.7847,30.5176,-17.6392,86,0.7584,0.2531,3.4564,-54.543,31,0.7073,8250,4.0447,-150.5657
rg,1625137592555884757,1,0.0925,-1.021,0.5613,540,57.5562,46.5698,0.3662,86,0.7754,0.2601,4.2511,-52.5974,31,0.7113,8125,4.0447,-152.0834
rg,1625137592555906707,1,-0.0107,-0.8342,0.3369,541,63.5376,45.9595,-1.5869,86,0.7954,0.2701,5.1976,-50.7787,31,0.7163,8311,4.0447,-153.6198
rg,1625137592555924786,1,-0.0786,-0.7837,0.3406,542,52.9785,46.3867,-2.7466,86,0.8064,0.2741,6.4397,-49.7689,31,0.7184,8173,4.0447,-155.0261
rg,1625137592555960480,1,-0.1843,-0.76,0.4321,543,19.8975,30.8838,1.1597,86,0.8064,0.2821,7.4892,-49.4872,31,0.7204,8341,4.0447,-155.9903
rg,1625137592555981485,1,-0.1909,-0.8284,0.4961,544,-56.3354,-39.4287,3.54,86,0.7824,0.2961,6.7542,-51.9343,31,0.7234,8148,4.0447,-154.7183
rg,1625137592911200091,1,0.3262,-1.0862,0.4583,545,-36.9873,-75.9888,19.104,86,0.7334,0.2741,4.6868,-53.6855,31,0.7133,27902,4.0447,-151.8747
rg,1625137592911240731,1,0.4438,-1.0249,0.3728,546,46.9971,-35.7056,39.5508,86,0.7274,0.2481,4.0757,-52.2328,31,0.7143,13510,4.0447,-149.8408
rg,1625137592911261940,1,0.2893,-1.0459,0.3853,547,62.1948,19.3481,6.5308,86,0.7274,0.2351,4.0418,-50.4366,31,0.7143,10735,4.0447,-150.3449
rg,1625137592911281963,1,-0.0361,-0.9807,0.4409,548,72.937,59.4482,-10.0098,86,0.7264,0.2291,5.1985,-48.2853,31,0.7143,7631,4.0447,-152.4631
rg,1625137592911301838,1,-0.2231,-0.9297,0.429,549,85.5713,65.5518,-16.3574,86,0.7264,0.2241,6.7856,-45.7585,31,0.7123,7831,4.0447,-154.8938
rg,1625137592911321399,1,-0.4268,-0.7471,0.3711,550,105.7739,23.1934,-10.0098,86,0.7274,0.2231,7.9701,-42.2713,31,0.7123,7650,4.0447,-155.8811
rg,1625137592911340681,1,-0.429,-0.6228,0.3181,551,105.0415,-11.2915,-4.5776,86,0.7294,0.2221,8.4848,-38.6863,31,0.7103,7802,4.0447,-155.7797
rg,1625137592911359705,1,-0.2915,-0.4316,0.2881,552,72.3267,-74.8901,9.0942,86,0.7304,0.2141,7.1581,-36.1042,31,0.7093,9113,4.0447,-153.7159
rg,1625137592911378765,1,-0.0618,-0.5237,0.4402,553,10.0098,-119.9341,14.8315,86,0.7324,0.2101,3.5737,-35.9289,31,0.7073,7868,4.0447,-150.4633
rg,1625137592911397307,1,0.1836,-0.7937,0.5251,554,-16.0522,-127.6245,14.6484,86,0.7344,0.2121,-0.637,-37.8075,31,0.7103,7721,4.0447,-146.9696
rg,1625137592911416071,1,0.2905,-0.9185,0.5286,555,-28.7476,-108.4595,13.855,86,0.7364,0.2121,-4.2262,-39.9109,31,0.7103,7843,4.0447,-143.7909
rg,1625137592911434205,1,0.3779,-0.9485,0.4751,556,-8.3618,-38.0249,7.6294,86,0.7394,0.2151,-5.7907,-41.1994,31,0.7113,7733,4.0447,-142.495
rg,1625137592911452839,1,0.3281,-0.8735,0.4585,557,-1.0376,-0.4272,1.8921,86,0.7414,0.2141,-6.1164,-41.9264,31,0.7113,7976,4.0447,-142.3562
rg,1625137592911470417,1,0.1572,-0.7751,0.5176,558,-9.1553,40.8325,-7.5684,86,0.7404,0.2121,-5.2614,-42.7074,31,0.7103,7798,4.0447,-143.6289
rg,1625137592911488033,1,-0.0168,-0.8328,0.5078,559,-24.5361,51.5137,-8.1787,86,0.7444,0.2131,-3.7576,-44.1695,31,0.7123,8006,4.0447,-145.2367
rg,1625137592911506630,1,-0.0779,-0.8899,0.5146,560,-29.3579,46.7529,-8.1787,86,0.7454,0.2101,-2.3594,-45.8644,31,0.7113,7828,4.0447,-146.759
rg,1625137592911553938,1,-0.1165,-0.9868,0.5676,561,-25.3296,15.5029,-7.4463,86,0.7474,0.2101,-1.8307,-47.3964,31,0.7113,8007,4.0447,-147.3962
rg,1625137592911574351,1,-0.031,-0.9875,0.5376,562,-12.6343,-23.5596,-5.7983,86,0.7484,0.2111,-2.4967,-48.4618,31,0.7133,8819,4.0447,-146.8332
rg,1625137592911592281,1,0.1448,-0.928,0.4998,563,12.085,-45.2271,-7.3242,86,0.7494,0.2121,-4.1196,-48.5519,31,0.7123,15928,4.0447,-145.645
rg,1625137592911611656,1,0.2261,-0.9014,0.4915,564,17.0898,-44.6777,-7.1411,86,0.7504,0.2131,-5.708,-48.3402,31,0.7133,8207,4.0447,-144.6049
rg,1625137592911631717,1,0.2488,-0.9041,0.4961,565,21.7896,-30.5786,-4.5166,86,0.7504,0.2131,-6.9675,-48.0439,31,0.7143,7963,4.0447,-143.7593
rg,1625137592911650351,1,0.2385,-0.9153,0.4917,566,27.6489,-2.2583,-2.1362,86,0.7514,0.2121,-7.3332,-47.4597,31,0.7143,7831,4.0447,-143.688
rg,1625137592911672523,1,0.137,-0.8884,0.4939,567,30.5786,10.1929,-0.7935,86,0.7514,0.2171,-6.9132,-46.5596,31,0.7153,7979,4.0447,-144.0545
rg,1625137592911691917,1,0.0916,-0.8567,0.4829,568,38.0859,15.9302,0.7935,86,0.7524,0.2131,-6.3947,-45.5295,31,0.7163,7873,4.0447,-144.429
rg,1625137592911738577,1,0.03,-0.7971,0.479,569,40.0391,10.437,4.6997,86,0.7524,0.2131,-5.7944,-44.4361,31,0.7153,9181,4.0447,-144.5325
rg,1625137592911760397,1,0.0166,-0.8064,0.5146,570,32.4097,-4.5166,6.8359,86,0.7534,0.2111,-5.5485,-43.6784,31,0.7174,8280,4.0447,-144.156
rg,1625137592911780383,1,0.0503,-0.863,0.5356,571,29.1748,-23.8037,6.3477,86,0.7544,0.2131,-5.9603,-43.1591,31,0.7174,8870,4.0447,-143.2563
rg,1625137592911799518,1,0.0881,-0.8748,0.5327,572,29.9683,-31.5552,7.2632,86,0.7554,0.2131,-6.7206,-42.6693,31,0.7174,8700,4.0447,-142.1147
rg,1625137592911820004,1,0.1558,-0.8682,0.5439,573,35.0952,-39.7339,5.7983,86,0.7554,0.2131,-7.817,-42.0133,31,0.7174,8521,4.0447,-140.792
rg,1625137592911837712,1,0.2004,-0.8391,0.5435,574,37.9639,-38.4521,6.4087,86,0.7574,0.2121,-8.9383,-41.2519,31,0.7163,8359,4.0447,-139.4858
rg,1625137592911856050,1,0.2305,-0.8206,0.541,575,37.1704,-28.0762,8.1787,86,0.7584,0.2131,-9.7478,-40.5134,31,0.7194,8168,4.0447,-138.399
rg,1625137592911874833,1,0.2229,-0.8164,0.55,576,35.8887,-19.7754,10.3149,86,0.7594,0.2131,-10.1868,-39.7956,31,0.7194,8852,4.0447,-137.4639
rg,1625137593257545345,1,0.1558,-0.8438,0.5747,577,31.311,8.9722,11.7798,86,0.7594,0.2141,-9.5653,-39.1865,31,0.7194,26379,4.0447,-137.2174
rg,1625137593257583428,1,0.0344,-0.813,0.5999,578,29.541,8.4839,6.1035,86,0.7594,0.2141,-8.8589,-38.5662,31,0.7194,13563,4.0447,-137.1452
rg,1625137593257605100,1,-0.0107,-0.8235,0.5957,579,26.9775,-13.2446,-1.3428,86,0.7594,0.2131,-8.9435,-38.1418,31,0.7204,8691,4.0447,-136.7577
rg,1625137593257625901,1,0.0554,-0.8335,0.5708,580,27.2827,-38.4521,-7.5073,86,0.7604,0.2121,-10.1189,-37.8529,31,0.7204,7729,4.0447,-135.9269
rg,1625137593257645183,1,0.0945,-0.8218,0.5588,581,29.8462,-47.6685,-7.3853,86,0.7604,0.2121,-11.7496,-37.5324,31,0.7204,7885,4.0447,-134.8515
rg,1625137593257663095,1,0.1777,-0.7932,0.5598,582,34.3018,-51.6968,-6.8359,86,0.7604,0.2121,-13.515,-37.0654,31,0.7204,7712,4.0447,-133.6487
rg,1625137593257680617,1,0.2307,-0.7639,0.5464,583,37.9028,-36.1328,-0.6104,86,0.7614,0.2121,-14.7138,-36.4348,31,0.7204,9047,4.0447,-132.6172
rg,1625137593257697881,1,0.2515,-0.7537,0.551,584,38.3301,-26.3672,4.3945,86,0.7624,0.2111,-15.0709,-35.7755,31,0.7204,8362,4.0447,-131.7672
rg,1625137593257715329,1,0.2195,-0.7478,0.5598,585,37.4146,7.8735,12.2681,86,0.7624,0.2111,-14.4818,-35.0152,31,0.7204,12215,4.0447,-131.3658
rg,1625137593257733148,1,0.1643,-0.7671,0.5894,586,36.6211,17.0898,15.1367,86,0.7624,0.2091,-13.1544,-34.2926,31,0.7204,7739,4.0447,-131.1947
rg,1625137593257750819,1,0.1289,-0.7759,0.6086,587,35.2173,26.4282,17.1509,86,0.7624,0.2101,-11.6951,-33.5712,31,0.7204,7574,4.0447,-131.059
rg,1625137593257768101,1,0.0659,-0.8022,0.6394,588,36.1938,24.231,12.6953,86,0.7634,0.2101,-10.3138,-32.8075,31,0.7204,7799,4.0447,-131.0229
rg,1625137593257806517,1,0.0349,-0.8079,0.6646,589,40.3442,10.0708,8.667,86,0.7644,0.2111,-9.4758,-31.9067,31,0.7214,9108,4.0447,-130.817
rg,1625137593257825670,1,0.0298,-0.7998,0.6709,590,42.9077,-0.4272,5.5542,86,0.7644,0.2111,-9.5628,-30.8478,31,0.7214,9385,4.0447,-130.4463
rg,1625137593257842970,1,0.0627,-0.7964,0.6809,591,46.0205,-20.6299,-2.5024,86,0.7624,0.2091,-10.0982,-29.797,31,0.7204,7656,4.0447,-129.9854
rg,1625137593257860178,1,0.1338,-0.793,0.6731,592,46.6309,-32.4097,-5.6763,86,0.7654,0.2141,-11.2472,-28.7915,31,0.7214,7947,4.0447,-129.4018
rg,1625137593257876848,1,0.1672,-0.7891,0.6697,593,49.1333,-32.8369,-6.1035,86,0.7654,0.2111,-12.4598,-27.7271,31,0.7204,7686,4.0447,-128.824
rg,1625137593257893241,1,0.2017,-0.7673,0.6638,594,54.2603,-23.9868,-3.9673,86,0.7664,0.2121,-13.366,-26.4581,31,0.7204,7897,4.0447,-128.3388
rg,1625137593257909782,1,0.1672,-0.7166,0.6428,595,55.9692,-17.8223,-2.5635,86,0.7664,0.2131,-13.7087,-25.0475,31,0.7204,7736,4.0447,-128.0493
rg,1625137593257926619,1,0.1304,-0.6929,0.6497,596,56.1523,-6.0425,-1.6479,86,0.7654,0.2101,-13.7593,-23.6715,31,0.7204,7889,4.0447,-127.8014
rg,1625137593257943642,1,0.083,-0.6777,0.6707,597,54.2603,-4.5166,3.9673,86,0.7684,0.2081,-13.5531,-22.4127,31,0.7214,7793,4.0447,-127.3698
rg,1625137593257960609,1,0.0891,-0.6841,0.6877,598,51.5747,-7.3853,5.4321,86,0.7674,0.2061,-13.6481,-21.4676,31,0.7214,8011,4.0447,-126.7248
rg,1625137593257978039,1,0.1357,-0.7051,0.7043,599,47.1802,-11.5967,6.7749,86,0.7664,0.2061,-13.8394,-20.6142,31,0.7214,8485,4.0447,-126.0709
rg,1625137593257997414,1,0.178,-0.7297,0.7168,600,45.8984,-11.0474,7.3853,86,0.7674,0.2061,-14.0408,-19.8559,31,0.7204,8021,4.0447,-125.3935
rg,1625137593258014529,1,0.1973,-0.7305,0.7163,601,46.0205,-8.728,1.2817,86,0.7684,0.2051,-14.2794,-19.0546,31,0.7214,7890,4.0447,-124.9797
rg,1625137593258031347,1,0.198,-0.7256,0.7112,602,46.0815,-7.0801,1.0376,86,0.7684,0.2061,-14.4605,-18.2727,31,0.7214,8098,4.0447,-124.5902
rg,1625137593258048111,1,0.1917,-0.718,0.7227,603,46.0205,-3.6011,-3.1738,86,0.7694,0.2071,-14.5422,-17.4431,31,0.7214,7927,4.0447,-124.41
rg,1625137593258065096,1,0.1602,-0.7217,0.7217,604,46.2036,0.6104,-7.7515,86,0.7694,0.2071,-14.4496,-16.5896,31,0.7214,8103,4.0447,-124.4517
rg,1625137593258081785,1,0.1428,-0.717,0.7236,605,47.8516,0.3052,-9.3994,86,0.7694,0.2061,-14.3517,-15.6788,31,0.7214,7999,4.0447,-124.5516
rg,1625137593258111014,1,0.1255,-0.7146,0.7395,606,50.4761,-3.7231,-10.0098,86,0.7704,0.2071,-14.3734,-14.6779,31,0.7214,8159,4.0447,-124.6325
rg,1625137593258128870,1,0.1277,-0.7217,0.7664,607,53.5889,-5.4321,-11.9019,86,0.7704,0.2081,-14.4723,-13.5471,31,0.7214,8053,4.0447,-124.7735
rg,1625137593258190051,1,0.1072,-0.7139,0.7661,608,55.1147,-6.2256,-11.8408,86,0.7704,0.2061,-14.5521,-12.3883,31,0.7214,8263,4.0447,-124.9008
rg,1625137593627196702,1,0.1594,-0.6211,0.7671,609,57.6782,-27.832,-14.8926,86,0.7704,0.2051,-15.6055,-11.0278,31,0.7204,27184,4.0447,-125.0056
rg,1625137593627237322,1,0.2705,-0.6028,0.7444,610,56.1523,-29.7241,-13.1226,86,0.7714,0.2011,-16.9392,-9.7638,31,0.7214,15859,4.0447,-125.0313
rg,1625137593627258383,1,0.3174,-0.5942,0.7463,611,52.8564,-20.4468,-14.5874,86,0.7724,0.2021,-17.9705,-8.5986,31,0.7214,8146,4.0447,-125.1809
rg,1625137593627278443,1,0.3088,-0.6038,0.7605,612,52.5513,-6.2866,-12.2681,86,0.7724,0.2011,-18.3614,-7.4856,31,0.7214,8292,4.0447,-125.304
rg,1625137593627297781,1,0.3018,-0.6147,0.783,613,52.9175,1.77,-9.7656,86,0.7724,0.2031,-18.3088,-6.4116,31,0.7214,7779,4.0447,-125.3501
rg,1625137593627316896,1,0.2356,-0.6448,0.842,614,55.9082,11.4136,-7.7515,86,0.7724,0.1991,-17.7581,-5.2677,31,0.7214,7978,4.0447,-125.3416
rg,1625137593627347904,1,0.1584,-0.6558,0.8918,615,62.3779,13.6108,-5.9814,86,0.7734,0.1951,-16.9561,-3.9072,31,0.7214,9279,4.0447,-125.26
rg,1625137593627367501,1,0.1138,-0.6187,0.9272,616,69.1528,0.061,-4.2725,86,0.7734,0.1931,-16.613,-2.2718,31,0.7214,8070,4.0447,-125.0881
rg,1625137593627385579,1,0.1328,-0.5664,0.9429,617,70.1904,-9.9487,-5.127,86,0.7744,0.1921,-17.2761,-0.6444,31,0.7214,7539,4.0447,-124.9863
rg,1625137593627403139,1,0.1877,-0.552,0.9626,618,65.0635,-36.0107,-9.7046,86,0.7734,0.1931,-18.4919,0.9281,31,0.7204,8355,4.0447,-125.051
rg,1625137593627420828,1,0.2935,-0.5383,0.9399,619,61.3403,-51.1475,-8.1177,86,0.7744,0.1871,-20.4853,2.3209,31,0.7194,7934,4.0447,-125.0763
rg,1625137593627438240,1,0.3948,-0.542,0.9299,620,57.4341,-56.7017,-8.667,86,0.7744,0.1871,-22.8264,3.5604,31,0.7204,8416,4.0447,-125.1396
rg,1625137593627456133,1,0.4258,-0.5505,0.936,621,56.5186,-52.1851,-7.2632,86,0.7744,0.1851,-25.0042,4.7488,31,0.7204,8302,4.0447,-125.1304
rg,1625137593627473192,1,0.4844,-0.5249,0.9436,622,58.7769,-36.499,-2.4414,86,0.7734,0.1841,-26.5564,5.9233,31,0.7194,8446,4.0447,-124.8443
rg,1625137593627490492,1,0.4939,-0.5266,0.9404,623,55.481,-11.2305,-0.4883,86,0.7744,0.1821,-27.0885,6.837,31,0.7194,8308,4.0447,-124.3212
rg,1625137593627508756,1,0.3726,-0.5654,1.0149,624,50.9033,21.7896,3.6621,86,0.7744,0.1811,-26.0628,7.3192,31,0.7204,8539,4.0447,-123.3841
rg,1625137593627527853,1,0.3059,-0.5818,1.0425,625,52.1851,29.8462,9.0942,86,0.7734,0.1801,-24.6583,7.7066,31,0.7194,8390,4.0447,-122.1683
rg,1625137593627562620,1,0.24,-0.5625,1.0232,626,57.7393,25.4517,18.3716,86,0.7744,0.1801,-23.4232,8.1707,31,0.7194,8425,4.0447,-120.6044
rg,1625137593627581829,1,0.2559,-0.5098,0.9871,627,57.1899,20.1416,20.874,86,0.7754,0.1801,-22.5006,8.6535,31,0.7174,8460,4.0447,-119.0169
rg,1625137593627600259,1,0.238,-0.4705,0.9482,628,55.7251,20.1416,21.2402,86,0.7744,0.1811,-21.5049,9.0226,31,0.7204,8440,4.0447,-117.5011
rg,1625137593627617689,1,0.2156,-0.4377,0.9248,629,49.1333,23.4375,17.8833,86,0.7754,0.1871,-20.457,9.3084,31,0.7204,8747,4.0447,-116.0857
rg,1625137593627652049,1,0.2183,-0.3887,0.9014,630,41.8701,19.165,18.7378,86,0.7764,0.1831,-19.631,9.3896,31,0.7204,7782,4.0447,-114.716
rg,1625137593627671627,1,0.2915,-0.4255,0.8865,631,33.0811,21.4844,21.8506,86,0.7764,0.1831,-18.9831,8.9883,31,0.7204,12370,4.0447,-113.1906
rg,1625137593627689002,1,0.3262,-0.479,0.905,632,31.0059,31.0059,25.0244,86,0.7764,0.1821,-17.9964,8.4596,31,0.7204,8559,4.0447,-111.4973
rg,1625137593627706172,1,0.2773,-0.5059,0.9807,633,34.8511,46.1426,25.8789,86,0.7764,0.1801,-16.2952,8.1037,31,0.7204,8392,4.0447,-109.7257
rg,1625137593627723751,1,0.1855,-0.4954,1.0339,634,38.3911,49.9878,26.6113,86,0.7764,0.1791,-14.2931,7.9798,31,0.7204,8638,4.0447,-107.9769
rg,1625137593627741051,1,0.1594,-0.4856,1.0364,635,39.856,46.3257,28.6865,86,0.7764,0.1801,-12.4384,7.9861,31,0.7204,8255,4.0447,-106.2316
rg,1625137593627758518,1,0.1455,-0.4631,1.0288,636,40.9546,34.5459,29.7241,86,0.7764,0.1791,-11.3532,8.1212,31,0.7204,10258,4.0447,-104.6244
rg,1625137593627775189,1,0.1602,-0.4426,1.0232,637,40.0391,24.1089,27.3438,86,0.7754,0.1791,-10.4955,8.2845,31,0.7194,8874,4.0447,-103.1431
rg,1625137593627792452,1,0.1611,-0.4282,0.9978,638,37.1094,15.8691,23.8647,86,0.7754,0.1851,-9.9849,8.3826,31,0.7204,8986,4.0447,-101.8699
rg,1625137593627810030,1,0.1233,-0.3918,0.9712,639,34.3628,10.0708,18.0664,86,0.7764,0.1841,-9.6157,8.4613,31,0.7174,8017,4.0447,-100.8816
rg,1625137593627827219,1,0.0747,-0.3997,0.9768,640,29.1748,1.2207,13.1226,86,0.7754,0.1831,-9.475,8.3617,31,0.7204,8544,4.0447,-100.1499
rg,1625137593973548215,1,0.155,-0.4133,0.9624,641,23.8037,-30.6396,7.9346,86,0.7754,0.1831,-10.7098,8.0942,31,0.7204,26477,4.0447,-99.855
rg,1625137593973596893,1,0.1265,-0.4224,0.991,642,23.7427,-27.4658,3.2959,86,0.7764,0.1831,-11.711,7.8538,31,0.7204,13273,4.0447,-99.6544
rg,1625137593973618361,1,0.1216,-0.4045,0.9829,643,23.9258,-28.9307,6.0425,86,0.7754,0.1841,-12.7402,7.6265,31,0.7204,8322,4.0447,-99.3313
rg,1625137593973638032,1,0.1731,-0.3948,0.9858,644,23.1934,-31.1279,8.3008,86,0.7764,0.1841,-13.8612,7.3553,31,0.7204,7802,4.0447,-98.9562
rg,1625137593973688155,1,0.1875,-0.3887,0.9807,645,20.2026,-26.8555,6.7139,86,0.7754,0.1841,-14.87,7.0078,31,0.7204,7778,4.0447,-98.5497
rg,1625137593973710271,1,0.2043,-0.3938,0.9924,646,18.6157,-17.0898,5.249,86,0.7754,0.1831,-15.4771,6.6064,31,0.7194,7770,4.0447,-98.1308
rg,1625137593973728257,1,0.2019,-0.3918,0.9712,647,17.4561,-5.249,5.3711,86,0.7764,0.1821,-15.596,6.1415,31,0.7204,8609,4.0458,-97.6353
rg,1625137593973748521,1,0.1975,-0.385,0.9773,648,17.1509,1.2207,7.019,89,0.7754,0.1811,-15.4446,5.6709,31,0.7194,8320,4.0458,-97.0487
rg,1625137593973769007,1,0.1614,-0.3547,0.949,649,17.0288,12.9395,11.1694,89,0.7774,0.1801,-14.7774,5.1922,31,0.7204,7534,4.0458,-96.2624
rg,1625137593973786918,1,0.1311,-0.3252,0.9387,650,16.0522,16.4795,13.916,89,0.7764,0.1791,-13.7375,4.6143,31,0.7204,7684,4.0458,-95.2837
rg,1625137593973805312,1,0.1118,-0.334,0.9707,651,11.1084,20.1416,18.1274,89,0.7754,0.1801,-12.7345,3.9449,31,0.7194,7702,4.0458,-94.2577
rg,1625137593973822316,1,0.1484,-0.3789,0.9724,652,10.9253,14.1602,19.2871,89,0.7774,0.1781,-12.0788,3.222,31,0.7194,7774,4.0458,-93.2153
rg,1625137593973925747,1,0.1384,-0.3892,0.9771,653,12.6953,15.3809,17.4561,89,0.7774,0.1791,-11.3608,2.6076,31,0.7194,13518,4.0458,-92.2669
rg,1625137593973947178,1,0.0872,-0.3743,0.9656,654,15.9302,13.3057,15.8081,89,0.7774,0.1801,-10.6331,2.1861,31,0.7204,7868,4.0458,-91.4164
rg,1625137593973965905,1,0.0842,-0.3604,0.9558,655,17.7612,10.437,15.5029,89,0.7784,0.1771,-10.2269,1.9719,31,0.7204,7771,4.0458,-90.6417
rg,1625137593973984687,1,0.0876,-0.3491,0.9412,656,20.752,0.7935,14.8926,89,0.7784,0.1781,-10.0355,1.8211,31,0.7204,7861,4.0458,-89.8798
rg,1625137593974003488,1,0.0889,-0.3098,0.9126,657,21.9116,-4.5776,12.2681,89,0.7784,0.1771,-10.0677,1.8033,31,0.7204,7771,4.0458,-89.2458
rg,1625137593974021269,1,0.0745,-0.3093,0.9209,658,20.5688,-6.5308,11.1084,89,0.7784,0.1771,-10.3183,1.6608,31,0.7194,7964,4.0458,-88.7271
rg,1625137593974039144,1,0.0608,-0.3311,0.9536,659,17.4561,-19.4092,7.6294,89,0.7774,0.1781,-10.8526,1.4859,31,0.7194,7956,4.0458,-88.291
rg,1625137593974094805,1,0.1006,-0.3608,1.0051,660,17.5171,-36.8652,6.0425,89,0.7784,0.1781,-12.137,1.3072,31,0.7204,7973,4.0458,-87.9226
rg,1625137593974119515,1,0.1509,-0.3604,1.0078,661,18.9209,-44.1284,4.1504,89,0.7784,0.1761,-13.8672,1.2294,31,0.7194,7867,4.0458,-87.6221
rg,1625137593974137482,1,0.2434,-0.3513,1.0222,662,18.3105,-46.6309,2.5024,89,0.7754,0.1751,-15.7096,1.1525,31,0.7194,7892,4.0458,-87.3674
rg,1625137593974155727,1,0.2722,-0.3542,1.0425,663,16.7236,-31.189,4.2114,89,0.7794,0.1741,-16.9147,0.9945,31,0.7194,7899,4.0458,-87.0024
rg,1625137593974173935,1,0.271,-0.3596,1.0557,664,16.1743,-22.7661,8.2397,89,0.7794,0.1761,-17.7313,0.7582,31,0.7194,7915,4.0458,-86.442
rg,1625137593974195421,1,0.2288,-0.375,1.0708,665,15.1367,-6.3477,12.5122,89,0.7794,0.1771,-17.7751,0.4014,31,0.7194,8080,4.0458,-85.6733
rg,1625137593974214018,1,0.1968,-0.3516,1.0542,666,15.1978,3.418,18.0054,89,0.7804,0.1781,-17.3677,0.0222,31,0.7194,7935,4.0458,-84.6846
rg,1625137593974233023,1,0.1797,-0.3374,1.0527,667,14.2822,6.958,19.2261,89,0.7794,0.1781,-16.794,-0.3603,31,0.7194,8153,4.0458,-83.6658
rg,1625137593974250156,1,0.1479,-0.3218,1.0381,668,10.1929,11.2915,20.6299,89,0.7794,0.1781,-16.0014,-0.8748,31,0.7194,8008,4.0458,-82.6138
rg,1625137593974268864,1,0.1055,-0.3276,1.0359,669,5.249,7.8125,18.6768,89,0.7794,0.1781,-15.2837,-1.5451,31,0.7194,8188,4.0458,-81.6598
rg,1625137593974286831,1,0.0815,-0.3325,1.0278,670,3.7231,4.5166,16.4795,89,0.7794,0.1771,-14.654,-2.2573,31,0.7194,8045,4.0458,-80.8038
rg,1625137593974304947,1,0.0662,-0.3457,1.0076,671,2.0752,-5.127,10.437,89,0.7764,0.1771,-14.4218,-2.9554,31,0.7194,8072,4.0458,-80.1944
rg,1625137593974323673,1,0.0925,-0.3528,1.0032,672,2.5635,-18.1274,7.4463,89,0.7804,0.1761,-14.772,-3.6005,31,0.7204,8082,4.0458,-79.6801
rg,1625137594335306157,1,0.1057,-0.292,0.9424,673,7.2632,-26.5503,4.0283,89,0.7814,0.1771,-15.4624,-3.9516,31,0.7204,26515,4.0458,-79.315
rg,1625137594335401511,1,0.1589,-0.3142,0.9714,674,4.8828,-29.2358,6.7139,89,0.7804,0.1751,-16.4362,-4.4444,31,0.7204,14266,4.0458,-78.75
rg,1625137594335434648,1,0.2192,-0.3118,0.9827,675,4.9438,-33.9355,7.6904,89,0.7814,0.1751,-17.5677,-4.8927,31,0.7204,9954,4.0458,-78.1529
rg,1625137594335464748,1,0.2397,-0.2983,0.9807,676,4.5776,-29.541,6.897,89,0.7814,0.1731,-18.5509,-5.3169,31,0.7204,8262,4.0458,-77.6061
rg,1625137594335493143,1,0.2136,-0.2966,0.9875,677,2.6855,-16.4795,6.7749,89,0.7814,0.1721,-18.9164,-5.7849,31,0.7204,7806,4.0458,-77.1061
rg,1625137594335543987,1,0.1418,-0.3169,1.0112,678,2.0142,-7.5684,7.0801,89,0.7814,0.1721,-18.7517,-6.2879,31,0.7204,8297,4.0458,-76.6203
rg,1625137594335572308,1,0.1155,-0.325,1.0151,679,2.5635,-7.5073,9.0942,89,0.7814,0.1711,-18.5228,-6.7899,31,0.7204,8245,4.0458,-76.0516
rg,1625137594335599240,1,0.1111,-0.3242,1.0088,680,4.3335,-10.5591,11.5356,89,0.7814,0.1721,-18.3995,-7.24,31,0.7194,8333,4.0458,-75.3704
rg,1625137594335629321,1,0.1345,-0.3267,0.9951,681,5.4932,-15.9912,12.3901,89,0.7814,0.1701,-18.5388,-7.6605,31,0.7204,10559,4.0458,-74.623
rg,1625137594335656901,1,0.1631,-0.3274,0.9824,682,5.7373,-17.1509,10.9253,89,0.7824,0.1711,-18.7855,-8.0494,31,0.7204,7957,4.0458,-73.9264
rg,1625137594335682980,1,0.1711,-0.3301,0.9915,683,6.2256,-16.6626,9.2773,89,0.7814,0.1701,-19.0498,-8.3305,31,0.7204,8077,4.0458,-73.4121
rg,1625137594335708764,1,0.1743,-0.3308,0.9968,684,7.5073,-17.6392,5.4321,89,0.7824,0.1701,-19.3397,-8.5525,31,0.7204,7929,4.0458,-72.9396
rg,1625137594335734344,1,0.1597,-0.3032,0.9756,685,8.2397,-18.3105,4.3945,89,0.7834,0.1701,-19.6265,-8.6821,31,0.7214,8484,4.0458,-72.519
rg,1625137594335759386,1,0.1584,-0.2922,0.9785,686,7.2632,-18.7378,6.5918,89,0.7834,0.1711,-19.8937,-8.9975,31,0.7214,7615,4.0458,-71.8619
rg,1625137594335784354,1,0.179,-0.3022,0.9946,687,2.1362,-18.4326,12.3291,89,0.7824,0.1701,-20.1424,-9.4571,31,0.7204,8150,4.0458,-71.1071
rg,1625137594335810193,1,0.2104,-0.3325,0.9832,688,1.5869,-17.4561,13.855,89,0.7834,0.1691,-20.3958,-10.0163,31,0.7214,7988,4.0458,-70.2685
rg,1625137594335855203,1,0.2092,-0.3398,0.9753,689,1.3428,-17.0288,14.2822,89,0.7844,0.1691,-20.5319,-10.5698,31,0.7224,8202,4.0458,-69.4413
rg,1625137594335883024,1,0.1924,-0.3337,0.9763,690,3.1128,-11.7188,12.2681,89,0.7844,0.1691,-20.4691,-10.9903,31,0.7214,9127,4.0458,-68.7164
rg,1625137594335908826,1,0.1648,-0.3184,0.9824,691,3.7842,-10.2539,12.7563,89,0.7844,0.1681,-20.3487,-11.3717,31,0.7214,10278,4.0458,-67.9449
rg,1625137594335934461,1,0.1716,-0.3125,0.9883,692,3.2959,-11.5967,15.1367,89,0.7834,0.1691,-20.2483,-11.7473,31,0.7214,8631,4.0458,-67.1249
rg,1625137594335959245,1,0.1797,-0.3154,0.9844,693,2.1973,-12.8174,14.8315,89,0.7844,0.1691,-20.2147,-12.1589,31,0.7214,8650,4.0458,-66.3077
rg,1625137594335983935,1,0.1733,-0.3049,0.9873,694,1.6479,-12.146,13.6719,89,0.7844,0.1691,-20.1472,-12.532,31,0.7224,8119,4.0458,-65.557
rg,1625137594336009700,1,0.166,-0.3013,0.9902,695,0.6714,-11.4746,12.5732,89,0.7844,0.1701,-20.0464,-12.9138,31,0.7224,7970,4.0458,-64.8607
rg,1625137594336048227,1,0.1746,-0.314,0.9902,696,0.9766,-13.3667,12.3901,89,0.7844,0.1711,-20.0362,-13.2855,31,0.7224,8185,4.0458,-64.1524
rg,1625137594336074029,1,0.1968,-0.3181,0.9814,697,1.1597,-11.5356,13.0005,89,0.7844,0.1701,-19.995,-13.6519,31,0.7224,8326,4.0458,-63.4346
rg,1625137594336099294,1,0.1807,-0.3215,0.9719,698,0.9766,-7.5073,11.7188,89,0.7854,0.1721,-19.7773,-13.9922,31,0.7224,8632,4.0458,-62.8096
rg,1625137594336126244,1,0.1868,-0.3206,0.9863,699,1.77,-7.5684,10.9253,89,0.7844,0.1711,-19.7453,-14.2308,31,0.7224,9144,4.0458,-62.179
rg,1625137594336152935,1,0.1863,-0.3125,0.9663,700,2.3804,-12.3291,9.3994,89,0.7844,0.1701,-19.7559,-14.459,31,0.7224,8673,4.0458,-61.6114
rg,1625137594336179533,1,0.166,-0.2966,0.9707,701,2.7466,-8.606,11.0474,89,0.7854,0.1711,-19.5604,-14.6341,31,0.7234,8143,4.0458,-61.0308
rg,1625137594336206669,1,0.1716,-0.3203,0.9841,702,0.9155,-8.606,16.6016,89,0.7854,0.1721,-19.3187,-14.9914,31,0.7234,7988,4.0458,-60.2111
rg,1625137594336234768,1,0.1711,-0.3274,0.9917,703,1.0986,-8.2397,17.9443,89,0.7844,0.1711,-19.0494,-15.3498,31,0.7224,8133,4.0458,-59.3429
rg,1625137594336290632,1,0.1641,-0.3196,0.9851,704,2.6245,-8.5449,16.6626,89,0.7844,0.1691,-18.7997,-15.6007,31,0.7224,8757,4.0458,-58.5333
rg,1625137594678898943,1,0.1511,-0.3201,0.9951,705,2.1362,-11.1084,14.8315,89,0.7854,0.1701,-18.6444,-15.8376,31,0.7234,25750,4.0458,-57.7746
rg,1625137594678939285,1,0.1675,-0.3191,0.9802,706,2.5024,-13.3667,14.5264,89,0.7854,0.1711,-18.6213,-16.0618,31,0.7234,13450,4.0458,-57.002
rg,1625137594678959957,1,0.1672,-0.323,0.9878,707,2.2583,-14.0991,14.0381,89,0.7854,0.1701,-18.6263,-16.2862,31,0.7234,8032,4.0458,-56.2411
rg,1625137594679016173,1,0.1792,-0.3186,0.9822,708,1.8311,-14.3433,13.6719,89,0.7854,0.1691,-18.6693,-16.5097,31,0.7234,9421,4.0458,-55.4952
rg,1625137594679038492,1,0.1792,-0.3159,0.9741,709,1.709,-14.0381,13.3667,89,0.7854,0.1691,-18.7029,-16.7245,31,0.7234,7682,4.0458,-54.7667
rg,1625137594679057552,1,0.1853,-0.313,0.9822,710,0.9155,-14.2822,13.4277,89,0.7854,0.1691,-18.7282,-16.9608,31,0.7234,7787,4.0458,-54.0351
rg,1625137594679075686,1,0.179,-0.3196,0.9893,711,0.8545,-13.4277,13.7939,89,0.7854,0.1701,-18.7194,-17.193,31,0.7234,8195,4.0458,-53.3003
rg,1625137594679093449,1,0.1848,-0.3262,0.988,712,0.9766,-13.7329,14.5264,89,0.7854,0.1701,-18.7229,-17.4368,31,0.7234,8209,4.0458,-52.529
rg,1625137594679111193,1,0.1882,-0.3193,0.9802,713,1.709,-13.2446,14.1602,89,0.7864,0.1691,-18.7202,-17.6259,31,0.7244,7563,4.0458,-51.7833
rg,1625137594679128179,1,0.1772,-0.3186,0.9929,714,2.4414,-11.5967,14.5264,89,0.7864,0.1701,-18.6212,-17.7651,31,0.7234,7643,4.0458,-51.0491
rg,1625137594679145330,1,0.1663,-0.3206,0.9954,715,2.6855,-12.207,15.1367,89,0.7854,0.1711,-18.5346,-17.9152,31,0.7234,7775,4.0458,-50.2606
rg,1625137594679163038,1,0.1716,-0.3174,0.9954,716,2.2583,-12.7563,14.5264,89,0.7844,0.1711,-18.471,-18.0484,31,0.7234,7596,4.0458,-49.5158
rg,1625137594679180431,1,0.1667,-0.3103,0.9863,717,2.5635,-13.4277,14.2212,89,0.7864,0.1711,-18.4311,-18.1531,31,0.7234,7847,4.0458,-48.7785
rg,1625137594679197305,1,0.1772,-0.3062,0.9822,718,2.8687,-12.9395,13.9771,89,0.7864,0.1701,-18.4002,-18.2299,31,0.7224,7637,4.0458,-48.0603
rg,1625137594679228404,1,0.1689,-0.3083,1.0061,719,2.3193,-14.3433,13.855,89,0.7844,0.1701,-18.3987,-18.3182,31,0.7224,7959,4.0458,-47.3326
rg,1625137594679247001,1,0.1873,-0.3235,0.9878,720,2.0142,-21.3623,9.8267,89,0.7854,0.1701,-18.7546,-18.4411,31,0.7234,8379,4.0458,-46.6579
rg,1625137594679264727,1,0.1897,-0.3203,0.9968,721,2.3193,-18.4326,10.437,89,0.7854,0.1701,-18.9057,-18.4567,31,0.7244,8401,4.0458,-45.9337
rg,1625137594679281582,1,0.197,-0.312,0.9868,722,3.3569,-16.9678,12.4512,89,0.7864,0.1701,-19.0633,-18.5169,31,0.7234,8174,4.0458,-45.2196
rg,1625137594679298753,1,0.1997,-0.3179,0.98,723,2.7466,-14.7705,13.9771,89,0.7864,0.1711,-19.1188,-18.6283,31,0.7244,7767,4.0458,-44.468
rg,1625137594679315349,1,0.1924,-0.3181,0.9929,724,3.0518,-13.2446,13.7939,89,0.7864,0.1701,-19.0955,-18.7058,31,0.7244,7941,4.0458,-43.748
rg,1625137594679332649,1,0.1897,-0.3218,0.9907,725,3.6621,-12.6953,14.1602,89,0.7864,0.1711,-19.0416,-18.767,31,0.7244,7809,4.0458,-43.0185
rg,1625137594679350375,1,0.197,-0.3188,0.9871,726,3.7231,-14.0381,13.3057,89,0.7864,0.1721,-19.0678,-18.8144,31,0.7244,7976,4.0458,-42.3067
rg,1625137594679367805,1,0.1843,-0.3005,0.9734,727,4.3335,-13.3667,11.9629,89,0.7854,0.1731,-19.0657,-18.7844,31,0.7254,9061,4.0458,-41.6682
rg,1625137594679384809,1,0.1968,-0.3064,0.9785,728,3.1128,-15.0146,14.8315,89,0.7844,0.1731,-19.1122,-18.859,31,0.7244,8838,4.0458,-40.8888
rg,1625137594679402146,1,0.1973,-0.3127,0.9727,729,1.6479,-12.3901,14.0991,89,0.7864,0.1731,-19.0685,-18.9857,31,0.7244,7879,4.0458,-40.1694
rg,1625137594679418705,1,0.187,-0.3147,0.9863,730,1.8921,-10.376,12.8174,89,0.7844,0.1731,-18.9393,-19.0654,31,0.7244,8084,4.0458,-39.5323
rg,1625137594679436079,1,0.167,-0.313,0.9824,731,2.6855,-11.1084,13.3667,89,0.7864,0.1731,-18.7943,-19.1178,31,0.7244,7960,4.0458,-38.8646
rg,1625137594679453435,1,0.1755,-0.312,0.9836,732,2.5635,-12.207,14.6484,89,0.7864,0.1731,-18.6966,-19.19,31,0.7254,8123,4.0458,-38.1323
rg,1625137594679470476,1,0.1738,-0.3149,0.9824,733,2.6245,-11.3525,14.4653,89,0.7854,0.1731,-18.5685,-19.2564,31,0.7244,7976,4.0458,-37.4178
rg,1625137594679510503,1,0.1802,-0.3206,0.9832,734,1.2207,-11.1694,16.0522,89,0.7864,0.1761,-18.4288,-19.4053,31,0.7244,8117,4.0458,-36.6401
rg,1625137594679529952,1,0.1707,-0.3206,0.99,735,2.5635,-8.7891,15.4419,89,0.7854,0.1751,-18.1896,-19.4689,31,0.7254,7996,4.0458,-35.9237
rg,1625137594679547993,1,0.1589,-0.3181,0.9917,736,2.7466,-9.1553,14.6484,89,0.7854,0.1761,-17.9587,-19.505,31,0.7254,8218,4.0458,-35.237
rg,1625137595031020293,1,0.1809,-0.3174,0.9805,737,3.2349,-14.7705,14.5874,89,0.7864,0.1751,-17.9934,-19.5549,32,0.7254,26983,4.0458,-34.5054
rg,1625137595031055986,1,0.1794,-0.3171,0.9841,738,2.7466,-15.8081,14.5874,89,0.7854,0.1761,-18.0653,-19.6185,32,0.7254,11597,4.0458,-33.7268
rg,1625137595031076805,1,0.1838,-0.3147,0.9849,739,3.1738,-15.686,13.1836,89,0.7864,0.1761,-18.1574,-19.6402,32,0.7254,7554,4.0458,-33.0074
rg,1625137595031096402,1,0.1975,-0.313,0.9856,740,3.418,-15.8691,13.4277,89,0.7864,0.1751,-18.278,-19.6525,32,0.7254,7760,4.0458,-32.2769
rg,1625137595031114831,1,0.1997,-0.3103,0.9895,741,3.9673,-15.564,13.4277,89,0.7864,0.1751,-18.3859,-19.6341,31,0.7254,7669,4.0458,-31.5532
rg,1625137595031132576,1,0.1973,-0.2993,0.9707,742,4.3945,-17.2729,11.4136,89,0.7864,0.1751,-18.6221,-19.6034,31,0.7254,8120,4.0458,-30.8685
rg,1625137595031150005,1,0.2046,-0.2935,0.9756,743,3.8452,-17.2119,12.7563,89,0.7874,0.1761,-18.8063,-19.5686,31,0.7264,8858,4.0458,-30.1556
rg,1625137595031169231,1,0.2188,-0.3071,0.9751,744,1.3428,-13.0005,15.1978,89,0.7854,0.1751,-18.8198,-19.6789,31,0.7254,12851,4.0458,-29.3951
rg,1625137595031187031,1,0.2046,-0.3184,0.9856,745,1.5869,-10.7422,15.625,89,0.7864,0.1751,-18.7063,-19.7564,31,0.7264,8227,4.0458,-28.6479
rg,1625137595031204127,1,0.2056,-0.3184,0.9792,746,2.9907,-10.9863,15.0146,89,0.7864,0.1751,-18.6177,-19.8012,31,0.7264,7793,4.0458,-27.9187
rg,1625137595031220909,1,0.2058,-0.3018,0.9758,747,3.9673,-10.5591,16.5405,89,0.7874,0.1761,-18.5001,-19.7876,31,0.7264,7734,4.0458,-27.1466
rg,1625137595031239153,1,0.2148,-0.3135,0.9766,748,3.54,-9.0332,16.6626,89,0.7864,0.1761,-18.3452,-19.8094,31,0.7264,7900,4.0458,-26.3838
rg,1625137595031322670,1,0.2041,-0.3076,0.9841,749,3.9062,-7.2632,17.0288,89,0.7864,0.1761,-18.0687,-19.7968,31,0.7264,9218,4.0458,-25.6366
rg,1625137595031346490,1,0.1812,-0.3118,0.9973,750,3.479,-7.019,16.4795,89,0.7874,0.1781,-17.7798,-19.7842,31,0.7264,8064,4.0458,-24.9171
rg,1625137595031367142,1,0.1855,-0.3115,0.9836,751,4.3945,-8.4839,16.3574,89,0.7874,0.1781,-17.5732,-19.746,31,0.7274,7732,4.0458,-24.1792
rg,1625137595031387165,1,0.1865,-0.3076,0.9878,752,3.8452,-8.9111,14.8926,89,0.7874,0.1781,-17.4121,-19.702,31,0.7274,7974,4.0458,-23.4965
rg,1625137595031406113,1,0.1873,-0.3108,0.9875,753,3.8452,-11.0474,15.625,89,0.7874,0.1791,-17.3292,-19.6829,31,0.7264,7833,4.0458,-22.7522
rg,1625137595031425840,1,0.1816,-0.3154,0.9885,754,4.2114,-10.0098,14.8315,89,0.7874,0.1801,-17.2089,-19.6442,31,0.7274,8028,4.0458,-22.0512
rg,1625137595031444158,1,0.1775,-0.3081,0.9812,755,4.7607,-9.1553,13.7939,89,0.7874,0.1801,-17.0706,-19.557,31,0.7274,7908,4.0458,-21.4064
rg,1625137595031465070,1,0.1755,-0.3064,0.9832,756,4.3335,-8.9722,14.2822,89,0.7884,0.1791,-16.9207,-19.4886,31,0.7274,8032,4.0458,-20.7458
rg,1625137595031481425,1,0.1719,-0.2949,0.9778,757,4.2725,-10.6201,16.2354,89,0.7884,0.1831,-16.8089,-19.4312,31,0.7284,7866,4.0458,-19.9912
rg,1625137595031501744,1,0.1731,-0.2825,0.9741,758,4.0894,-9.9487,14.5264,89,0.7864,0.1861,-16.7055,-19.335,31,0.7274,8051,4.0458,-19.3202
rg,1625137595031518692,1,0.1887,-0.2937,0.9868,759,0.7935,-11.6577,17.8223,89,0.7874,0.1881,-16.6538,-19.4338,31,0.7254,7905,4.0458,-18.4902
rg,1625137595031535732,1,0.1841,-0.3245,0.9932,760,-0.9155,-10.1929,16.2354,89,0.7874,0.1881,-16.5522,-19.6334,31,0.7274,8077,4.0458,-17.7264
rg,1625137595031553884,1,0.1687,-0.3208,0.9915,761,-0.1831,-8.3008,14.7705,89,0.7874,0.1861,-16.37,-19.7633,31,0.7274,7958,4.0458,-17.0509
rg,1625137595031571351,1,0.1516,-0.3181,0.989,762,1.2207,-9.8267,13.6719,89,0.7884,0.1881,-16.231,-19.8197,31,0.7254,8021,4.0458,-16.3995
rg,1625137595031588614,1,0.1821,-0.3132,0.9851,763,1.3428,-12.7563,14.8315,89,0.7884,0.1881,-16.3137,-19.8425,31,0.7284,8059,4.0458,-15.6613
rg,1625137595031621972,1,0.1978,-0.3071,0.9861,764,1.9531,-15.0757,14.4043,89,0.7884,0.1881,-16.4629,-19.8758,31,0.7284,8262,4.048,-14.9128
rg,1625137595031641717,1,0.2034,-0.3105,0.9832,765,2.0142,-13.4888,14.8926,83,0.7884,0.1881,-16.5521,-19.9155,31,0.7274,9249,4.048,-14.1651
rg,1625137595031660073,1,0.1946,-0.3135,0.9858,766,2.1973,-11.1694,13.916,83,0.7874,0.1881,-16.5439,-19.9308,31,0.7274,9997,4.048,-13.4878
rg,1625137595031681077,1,0.187,-0.3149,0.9805,767,2.5635,-11.9019,14.4653,83,0.7884,0.1901,-16.5415,-19.9467,31,0.7284,8143,4.048,-12.7766
rg,1625137595031700840,1,0.1873,-0.3098,0.9844,768,3.2959,-12.6953,15.5029,83,0.7894,0.1921,-16.5546,-19.934,31,0.7284,8528,4.048,-12.0175
rg,1625137595394674812,1,0.1951,-0.3057,0.9785,769,2.1362,-12.146,15.3198,83,0.7894,0.1921,-16.5827,-19.9688,31,0.7294,26925,4.048,-11.2864
rg,1625137595394713320,1,0.1902,-0.3079,0.9797,770,1.709,-11.2305,14.2822,83,0.7894,0.1911,-16.5637,-19.9981,31,0.7294,8342,4.048,-10.5965
rg,1625137595394734139,1,0.1892,-0.3059,0.9756,771,1.2817,-11.4136,13.855,83,0.7894,0.1911,-16.5574,-20.0378,31,0.7294,7676,4.048,-9.9214
rg,1625137595394753773,1,0.1926,-0.3047,0.9858,772,2.0752,-11.2915,13.7939,83,0.7894,0.1921,-16.5511,-20.0335,31,0.7294,7622,4.048,-9.2535
rg,1625137595394774944,1,0.1919,-0.3057,0.9854,773,1.709,-10.9863,14.5874,83,0.7894,0.1941,-16.5212,-20.0537,31,0.7294,9315,4.048,-8.5581
rg,1625137595394793910,1,0.1965,-0.311,0.9832,774,0.8545,-10.437,15.1367,83,0.7904,0.1921,-16.4736,-20.1237,31,0.7304,8895,4.048,-7.8457
rg,1625137595394811877,1,0.1875,-0.3096,0.9868,775,1.0376,-9.3994,15.625,83,0.7904,0.1921,-16.3615,-20.178,31,0.7294,8269,4.048,-7.1315
rg,1625137595394830659,1,0.1873,-0.301,0.978,776,2.1973,-8.667,15.1367,83,0.7894,0.1941,-16.2368,-20.1616,31,0.7294,7604,4.048,-6.4512
rg,1625137595394849181,1,0.1938,-0.3013,0.9878,777,2.0752,-8.5449,15.2588,83,0.7904,0.1941,-16.1213,-20.1441,31,0.7264,7730,4.048,-5.7695
rg,1625137595394867388,1,0.1882,-0.3064,0.9844,778,1.8921,-9.2773,16.8457,83,0.7894,0.1931,-15.9828,-20.1633,31,0.7294,7600,4.048,-4.9962
rg,1625137595394885466,1,0.1794,-0.3091,0.9956,779,2.1973,-8.9111,16.7236,83,0.7904,0.1951,-15.8366,-20.166,31,0.7294,7825,4.048,-4.2493
rg,1625137595394903322,1,0.1785,-0.3071,0.9893,780,2.5635,-10.6201,16.6016,83,0.7904,0.1951,-15.7621,-20.1578,31,0.7304,7619,4.048,-3.4827
rg,1625137595394921548,1,0.178,-0.3037,0.9878,781,2.9297,-9.7656,15.1978,83,0.7904,0.1921,-15.6783,-20.1098,31,0.7304,7864,4.048,-2.785
rg,1625137595394939774,1,0.1748,-0.3057,0.9858,782,2.6855,-11.6577,15.564,83,0.7904,0.1941,-15.6576,-20.0894,31,0.7304,7725,4.048,-2.0439
rg,1625137595394957740,1,0.1846,-0.3018,0.9832,783,1.4648,-12.8784,15.9912,83,0.7904,0.1911,-15.6996,-20.1214,31,0.7274,8290,4.048,-1.2703
rg,1625137595394976485,1,0.1812,-0.3115,0.9878,784,0.8545,-13.4277,15.3198,83,0.7904,0.1901,-15.7319,-20.1857,31,0.7304,9191,4.048,-0.5071
rg,1625137595394994025,1,0.1765,-0.3113,0.9944,785,0.9155,-12.2681,14.4043,83,0.7904,0.1891,-15.7465,-20.2302,31,0.7304,7868,4.048,0.1988
rg,1625137595395011085,1,0.178,-0.3127,0.9934,786,1.8311,-13.4888,14.2212,83,0.7914,0.1901,-15.8116,-20.2436,31,0.7304,7759,4.048,0.9161
rg,1625137595395028570,1,0.1865,-0.301,0.9822,787,2.1362,-13.916,14.7705,83,0.7904,0.1891,-15.9175,-20.2464,31,0.7304,7917,4.048,1.6592
rg,1625137595395045555,1,0.2041,-0.3044,0.9875,788,1.9531,-13.4888,15.3198,83,0.7904,0.1891,-16.0188,-20.2552,31,0.7304,7808,4.048,2.4158
rg,1625137595395063225,1,0.1997,-0.3142,0.9893,789,1.8311,-10.8032,14.1602,83,0.7904,0.1891,-16.0202,-20.2657,31,0.7314,8050,4.048,3.0938
rg,1625137595395080062,1,0.1914,-0.3079,0.9941,790,1.709,-10.0708,14.5264,83,0.7904,0.1901,-15.9707,-20.2644,31,0.7304,7834,4.048,3.7705
rg,1625137595395097769,1,0.1863,-0.3037,0.9758,791,1.8921,-10.8643,15.1367,83,0.7904,0.1901,-15.948,-20.2199,31,0.7304,11378,4.048,4.413
rg,1625137595395115347,1,0.1899,-0.3088,0.9912,792,2.3193,-11.2305,15.0146,83,0.7904,0.1911,-15.9365,-20.2092,31,0.7304,8662,4.048,5.1271
rg,1625137595395133110,1,0.1919,-0.3027,0.9873,793,2.3804,-10.5591,15.4419,83,0.7904,0.1921,-15.901,-20.1878,31,0.7304,8126,4.048,5.8452
rg,1625137595395181175,1,0.1829,-0.3079,0.9834,794,2.6245,-10.3149,15.4419,83,0.7914,0.1921,-15.8396,-20.1694,31,0.7314,8043,4.048,6.5637
rg,1625137595395201976,1,0.179,-0.2952,0.991,795,2.9297,-10.437,14.5874,83,0.7904,0.1901,-15.9048,-20.057,31,0.7314,8207,4.048,7.2946
rg,1625137595395219627,1,0.1919,-0.2861,0.9761,796,2.3804,-16.2354,13.4277,83,0.7914,0.1911,-16.1193,-20.0149,31,0.7314,8467,4.048,8.0089
rg,1625137595395237075,1,0.2153,-0.2932,0.9788,797,0.7935,-9.7656,17.7612,83,0.7894,0.1891,-16.0714,-20.0745,31,0.7304,8784,4.048,8.8041
rg,1625137595395255246,1,0.1987,-0.321,0.9873,798,0.5493,-9.0332,16.5405,83,0.7914,0.1891,-15.9709,-20.1778,31,0.7314,8101,4.048,9.5553
rg,1625137595395273435,1,0.178,-0.3145,0.9885,799,1.77,-6.4087,17.0288,83,0.7914,0.1891,-15.7004,-20.1888,31,0.7314,8143,4.048,10.2776
rg,1625137595395291216,1,0.1675,-0.2983,0.9905,800,1.8921,-9.5825,16.9067,83,0.7914,0.1881,-15.5655,-20.1836,31,0.7314,8148,4.048,11.0352
rg,1625137595764452475,1,0.1914,-0.3184,0.9761,801,0.9155,-8.1177,15.564,83,0.7914,0.1891,-15.4256,-20.2408,31,0.7324,27516,4.048,11.7314
rg,1625137595764495002,1,0.177,-0.3157,0.9937,802,1.0986,-7.9346,14.9536,83,0.7914,0.1861,-15.2829,-20.2698,31,0.7324,12105,4.048,12.3978
rg,1625137595764515803,1,0.188,-0.3015,0.9912,803,0.9766,-8.2397,14.4653,83,0.7914,0.1881,-15.1899,-20.2691,31,0.7314,7637,4.048,13.0417
rg,1625137595764535381,1,0.1826,-0.3015,0.9875,804,1.0376,-8.7891,14.2212,83,0.7924,0.1881,-15.1073,-20.2667,31,0.7314,7863,4.048,13.7264
rg,1625137595764554348,1,0.1873,-0.2932,0.9934,805,0.7935,-7.5684,14.4653,83,0.7924,0.1901,-14.9951,-20.2496,31,0.7324,7780,4.048,14.3555
rg,1625137595764572185,1,0.1682,-0.3064,0.9917,806,0.9766,-7.2021,13.7329,83,0.7924,0.1901,-14.8424,-20.2445,31,0.7324,8299,4.048,14.9586
rg,1625137595764589670,1,0.1626,-0.3135,0.9912,807,0.9766,-9.2773,14.4043,83,0.7934,0.1881,-14.7513,-20.2679,31,0.7324,9396,4.048,15.6215
rg,1625137595764608488,1,0.1682,-0.3071,0.9849,808,1.0376,-10.6812,13.5498,83,0.7944,0.1901,-14.7426,-20.2747,31,0.7324,8024,4.048,16.2689
rg,1625137595764657943,1,0.1755,-0.3054,0.99,809,0.9766,-11.1694,12.085,83,0.7944,0.1881,-14.787,-20.2643,31,0.7324,7937,4.048,16.8647
rg,1625137595764678262,1,0.1848,-0.3127,0.9849,810,2.0142,-10.6201,14.0381,83,0.7944,0.1881,-14.8026,-20.2499,31,0.7324,8018,4.048,17.5334
rg,1625137595764696821,1,0.187,-0.3071,0.9783,811,2.1362,-10.1318,15.1367,83,0.7944,0.1881,-14.7921,-20.2328,31,0.7324,7920,4.048,18.2359
rg,1625137595764714732,1,0.176,-0.3022,0.9966,812,3.6621,-8.5449,16.6016,83,0.7954,0.1871,-14.6741,-20.1406,31,0.7324,7737,4.048,18.9666
rg,1625137595764732180,1,0.1738,-0.2917,0.9819,813,2.9297,-8.3618,16.9678,83,0.7954,0.1861,-14.5517,-20.0697,31,0.7334,11363,4.048,19.7062
rg,1625137595764749814,1,0.1799,-0.2966,0.9888,814,0.9155,-8.4839,17.8833,83,0.7964,0.1901,-14.4363,-20.0959,31,0.7334,8599,4.048,20.4851
rg,1625137595764766836,1,0.1826,-0.3164,0.9866,815,0.7324,-9.2773,16.3574,83,0.7964,0.1921,-14.3794,-20.1587,31,0.7334,8010,4.048,21.2268
rg,1625137595764784562,1,0.1785,-0.3162,0.9841,816,-0.3662,-9.0332,16.1133,83,0.7974,0.1921,-14.31,-20.2599,31,0.7334,8030,4.048,21.9552
rg,1625137595764802269,1,0.1685,-0.3206,1.0024,817,0,-9.1553,14.0991,83,0.7984,0.1931,-14.2472,-20.3194,31,0.7334,8409,4.048,22.6057
rg,1625137595764820328,1,0.1582,-0.3218,0.9805,818,0,-11.0474,13.4277,83,0.7984,0.1951,-14.2512,-20.394,31,0.7344,8580,4.048,23.2615
rg,1625137595764839054,1,0.1687,-0.3145,0.9875,819,1.1597,-12.8784,13.0615,83,0.7994,0.1931,-14.349,-20.4027,31,0.7344,8621,4.048,23.9241
rg,1625137595764855761,1,0.1821,-0.3027,0.9875,820,0.9766,-12.8784,13.2446,83,0.8004,0.1941,-14.4705,-20.3968,31,0.7344,11489,4.048,24.5877
rg,1625137595764873839,1,0.1758,-0.3066,0.9883,821,1.0376,-12.146,13.2446,83,0.8024,0.1951,-14.5456,-20.3949,31,0.7354,8247,4.048,25.2427
rg,1625137595764891269,1,0.1677,-0.3044,0.9949,822,0.7935,-12.207,13.1226,83,0.8014,0.1931,-14.6028,-20.3935,31,0.7344,7806,4.048,25.8916
rg,1625137595764908031,1,0.1726,-0.3125,0.9878,823,1.0376,-13.2446,12.6343,83,0.8024,0.1971,-14.7148,-20.4043,31,0.7324,7997,4.048,26.5422
rg,1625137595764953615,1,0.1748,-0.3169,0.9822,824,0.9155,-13.9771,13.6719,83,0.8034,0.1951,-14.8409,-20.4471,31,0.7344,7891,4.048,27.2472
rg,1625137595764976268,1,0.1785,-0.3162,0.9863,825,1.0376,-13.7939,13.9771,83,0.8034,0.1981,-14.9511,-20.4812,31,0.7344,8770,4.048,27.9598
rg,1625137595764993586,1,0.1731,-0.3203,0.9893,826,1.9531,-14.1602,15.625,83,0.8024,0.1991,-15.0401,-20.5051,31,0.7344,8634,4.048,28.7437
rg,1625137595765012108,1,0.1738,-0.3137,0.9841,827,2.6245,-13.4888,15.5029,83,0.8034,0.2011,-15.1063,-20.4881,31,0.7344,8498,4.048,29.5104
rg,1625137595765029464,1,0.1765,-0.3113,0.9866,828,3.3569,-13.3667,16.0522,83,0.8044,0.2041,-15.1632,-20.4417,31,0.7354,8727,4.048,30.295
rg,1625137595765047171,1,0.179,-0.303,0.9849,829,3.7842,-12.9395,16.1133,83,0.8044,0.2051,-15.2131,-20.3701,31,0.7354,8510,4.048,31.1109
rg,1625137595765064341,1,0.1746,-0.2969,0.9939,830,2.9907,-12.5122,16.7847,83,0.8044,0.2051,-15.2208,-20.3128,31,0.7354,7986,4.048,31.9029
rg,1625137595765081141,1,0.1809,-0.2935,0.9905,831,2.5635,-12.146,16.6016,83,0.8064,0.2061,-15.2327,-20.2666,31,0.7354,8905,4.048,32.6815
rg,1625137595765098737,1,0.1855,-0.3027,0.9919,832,1.0986,-12.146,16.1743,83,0.8064,0.2091,-15.2582,-20.2956,31,0.7354,8070,4.048,33.449
rg,1625137596110395691,1,0.1772,-0.3066,0.981,833,1.0986,-13.0615,16.0522,83,0.8084,0.2101,-15.3038,-20.3416,31,0.7364,27333,4.048,34.2289
rg,1625137596110427068,1,0.1848,-0.3076,0.9934,834,1.1597,-13.2446,16.2354,83,0.8084,0.2081,-15.3357,-20.393,31,0.7354,9476,4.048,35.0201
rg,1625137596110447590,1,0.1655,-0.3162,0.9976,835,1.8311,-12.7563,14.1602,83,0.8084,0.2101,-15.3607,-20.3952,31,0.7364,10257,4.048,35.7239
rg,1625137596110466964,1,0.1633,-0.3074,0.9919,836,2.3193,-13.7939,13.916,83,0.8094,0.2111,-15.4252,-20.3649,31,0.7364,7646,4.048,36.4294
rg,1625137596110484894,1,0.1665,-0.3086,0.99,837,2.3804,-16.0522,14.0381,83,0.8104,0.2101,-15.5773,-20.3487,31,0.7364,9973,4.048,37.1738
rg,1625137596110502101,1,0.1736,-0.3057,0.9849,838,2.6855,-17.7612,14.1602,83,0.8094,0.2101,-15.8028,-20.3287,31,0.7364,7650,4.048,37.9474
rg,1625137596110542275,1,0.177,-0.3042,0.9868,839,1.77,-18.0054,13.7939,83,0.8104,0.2101,-16.06,-20.3501,31,0.7364,7778,4.048,38.7118
rg,1625137596110560445,1,0.1863,-0.3066,0.9812,840,1.709,-17.2729,13.7939,83,0.8094,0.2101,-16.2811,-20.3747,31,0.7364,8939,4.048,39.4662
rg,1625137596110577504,1,0.1848,-0.3074,0.9751,841,0.9766,-17.0898,13.4888,83,0.8104,0.2121,-16.4893,-20.4321,31,0.7364,7721,4.048,40.208
rg,1625137596110594415,1,0.2,-0.3103,0.9758,842,0.7935,-17.0288,13.0615,83,0.8104,0.2111,-16.728,-20.4905,31,0.7364,7531,4.048,40.9222
rg,1625137596110611122,1,0.2061,-0.3118,0.9763,843,0.9766,-16.2354,12.207,83,0.8104,0.2131,-16.9472,-20.5405,31,0.7364,7571,4.048,41.6043
rg,1625137596110627421,1,0.2039,-0.3184,0.981,844,1.0986,-15.0757,13.0615,83,0.8114,0.2121,-17.0943,-20.6017,31,0.7374,7612,4.048,42.306
rg,1625137596110644128,1,0.2002,-0.3081,0.9797,845,1.0986,-13.6719,12.3901,83,0.8114,0.2131,-17.1866,-20.6269,31,0.7364,7622,4.048,42.9542
rg,1625137596110660557,1,0.1934,-0.3069,0.9822,846,0.9766,-12.9395,12.4512,83,0.8124,0.2141,-17.2316,-20.6498,31,0.7354,7782,4.048,43.5924
rg,1625137596110676931,1,0.2083,-0.3074,0.9868,847,1.0376,-13.9771,13.3667,83,0.8124,0.2111,-17.3099,-20.6902,31,0.7364,7688,4.048,44.2789
rg,1625137596110693730,1,0.21,-0.3032,0.991,848,0.9766,-12.5122,13.5498,83,0.8124,0.2111,-17.35,-20.7096,31,0.7364,7712,4.048,44.9495
rg,1625137596110710696,1,0.1912,-0.3088,0.9814,849,0.7935,-9.8267,13.4277,83,0.8144,0.2111,-17.2532,-20.74,31,0.7374,7844,4.048,45.5806
rg,1625137596110728404,1,0.1812,-0.3052,0.9844,850,0.9766,-10.437,13.9771,83,0.8144,0.2081,-17.1418,-20.7667,31,0.7364,7739,4.048,46.2409
rg,1625137596110745296,1,0.1797,-0.3093,0.9849,851,0.9766,-12.0239,13.855,83,0.8154,0.2081,-17.1028,-20.7984,31,0.7364,7745,4.048,46.9203
rg,1625137596110761836,1,0.196,-0.3188,0.9878,852,0.8545,-12.6953,15.5029,83,0.8154,0.2091,-17.0982,-20.8741,31,0.7374,7742,4.048,47.6794
