name,time,activity,ax,ay,az,batch_val,gx,gy,gz,ibat,index,middle,pitch,roll,temp,thumb,ts,vbat,yaw
lg,1625112494704097027,0,0.604,-0.032,0.791,1,-1.0376,-37.2925,-14.5874,63,1.2886,1.0285,-40.5393,5.0274,28,0.044,19170,3.9501,153.5339
lg,1625112494704142657,0,0.5835,0.0278,0.7578,2,-2.9297,-44.8608,-18.3105,63,1.2886,1.0295,-42.121,5.5745,28,0.044,8337,3.9501,152.4203
lg,1625112494704163527,0,0.5518,0.0037,0.7681,3,-9.3994,-53.1616,-18.4937,63,1.2886,1.0285,-43.8901,5.8498,28,0.044,7770,3.9501,151.2797
lg,1625112494704182898,0,0.5969,0.0288,0.77,4,-11.6577,-59.021,-17.6392,63,1.2886,1.0285,-45.8973,6.1661,28,0.044,7761,3.9501,150.0518
lg,1625112494704202638,0,0.6821,-0.0073,0.7559,5,-19.2261,-66.2231,-18.3716,63,1.2896,1.0285,-48.276,6.2036,28,0.044,7814,3.9501,148.7646
lg,1625112494704221546,0,0.7012,-0.0188,0.7581,6,-22.3999,-67.3218,-19.2871,63,1.2886,1.0285,-50.555,6.1418,28,0.044,7852,3.9501,147.3015
lg,1625112494704240231,0,0.696,-0.0408,0.7661,7,-26.6113,-67.3828,-22.0337,63,1.2906,1.0285,-52.7912,6.124,28,0.044,7837,3.9501,145.753
lg,1625112494704258842,0,0.6694,-0.0867,0.7686,8,-28.9307,-68.0542,-22.7661,63,1.2896,1.0275,-54.9268,5.9757,28,0.045,7873,3.9501,144.2287
lg,1625112494704276379,0,0.688,-0.1177,0.7483,9,-28.9917,-68.0542,-21.7896,63,1.2916,1.0295,-57.0509,5.75,28,0.044,8834,3.9501,142.8075
lg,1625112494704293675,0,0.21,-0.5103,0.5847,10,-9.5825,-16.7847,10.3149,165,1.2776,1.0065,-56.7596,1.9106,28,0.04,13894,3.8555,145.922
lg,1625112494704311361,0,0.2871,-0.7095,0.7412,11,-26.123,-6.3477,20.752,165,1.2776,1.0075,-55.9976,-3.1611,28,0.041,8368,3.8555,149.7605
lg,1625112494704336731,0,0.1987,-0.7898,0.7715,12,-18.3716,4.8828,26.4893,165,1.2786,1.0085,-54.5073,-7.981,28,0.04,8158,3.8555,153.7324
lg,1625112494704355286,0,0.252,-0.7839,0.8071,13,-15.3198,5.3101,27.2827,165,1.2786,1.0095,-52.8993,-12.1647,28,0.038,8179,3.8555,157.2436
lg,1625112494704372324,0,0.4309,-0.8787,0.8718,14,-2.5635,4.1504,26.2451,165,1.2806,1.0125,-51.4745,-15.4064,28,0.039,9234,3.8555,160.3415
lg,1625112494704389249,0,0.5215,-0.8635,0.9009,15,22.583,32.4707,16.8457,165,1.2816,1.0135,-49.1403,-16.4088,28,0.036,9843,3.8555,162.0162
lg,1625112494704406064,0,0.1287,-0.9202,0.865,16,55.481,64.9414,-5.0049,165,1.2826,1.0155,-45.3981,-14.928,28,0.038,8200,3.8555,161.9978
lg,1625112494704423064,0,-0.0967,-0.7275,0.7891,17,75.2563,54.5654,-10.437,165,1.2846,1.0125,-41.8372,-12.5349,28,0.039,8238,3.8555,161.8071
lg,1625112494704442120,0,-0.1191,-0.7002,0.7515,18,70.0073,42.4194,-5.0659,165,1.2856,1.0025,-38.7444,-10.8029,28,0.033,8262,3.8555,162.1322
lg,1625112494704459898,0,-0.0317,-0.6907,0.7693,19,53.4668,8.1787,4.1504,165,1.2876,0.9925,-37.1235,-10.2442,28,0.034,8316,3.8555,163.2107
lg,1625112494704477398,0,0.1917,-0.6899,0.7473,20,35.2173,-16.6626,9.6436,165,1.2876,0.9855,-36.8948,-10.7148,28,0.036,8082,3.8555,164.7487
lg,1625112494704494564,0,0.324,-0.6201,0.7224,21,25.1465,-18.9209,11.0474,165,1.2886,0.9815,-36.8687,-11.8773,28,0.033,8294,3.8555,166.1786
lg,1625112494704511879,0,0.3503,-0.6929,0.7844,22,8.1177,2.6245,7.9346,165,1.2886,0.9795,-36.1364,-13.0824,28,0.032,8178,3.8555,167.3292
lg,1625112494704529398,0,0.1433,-0.6482,0.7781,23,1.4648,16.9067,5.9204,165,1.2886,0.9825,-34.4872,-14.3016,28,0.036,8302,3.8555,168.138
lg,1625112494704547361,0,0.074,-0.6753,0.7209,24,-13.1836,6.2866,2.8076,165,1.2876,0.9905,-33.2186,-16.1542,28,0.038,8183,3.8555,168.9187
lg,1625112494704565101,0,0.094,-0.6189,0.6306,25,-20.3857,-7.5073,0.2441,165,1.2876,1.0015,-32.5961,-18.2908,28,0.041,8363,3.8555,169.7202
lg,1625112494704589157,0,0.1133,-0.6577,0.6592,26,-43.2129,-19.5312,-0.5493,165,1.2876,1.0115,-32.4598,-21.3483,28,0.039,8397,3.8555,170.6341
lg,1625112494704608805,0,0.1123,-0.7715,0.6921,27,-59.2041,-31.311,-5.127,165,1.2856,1.0185,-32.786,-25.0855,28,0.04,8643,3.8555,-188.3838
lg,1625112494704625972,0,0.1919,-0.8994,0.9592,28,-59.2651,-41.8091,-7.019,165,1.2836,1.0185,-33.4982,-28.5841,28,0.042,8473,3.8555,-187.3582
lg,1625112494704643361,0,0.0979,-1.2971,1.1604,29,-29.1138,-50.9033,-29.0527,165,1.2826,1.0175,-34.9683,-31.1663,28,0.041,8496,3.8555,-186.5703
lg,1625112494704660861,0,0.1548,-0.5532,0.5525,30,31.3721,-46.2646,-43.396,165,1.2816,1.0155,-36.5526,-30.1747,28,0.041,8610,3.8555,-186.8556
lg,1625112494704677786,0,0.1934,-0.4602,0.4111,31,20.752,-30.1514,-27.4658,165,1.2806,1.0145,-37.451,-29.9189,28,0.037,8551,3.8555,-186.7842
lg,1625112494704695064,0,0.124,-0.3669,0.4719,32,-0.9766,1.8921,-0.4272,165,1.2796,1.0145,-36.4149,-30.2918,28,0.036,8583,3.8555,-186.6229
lg,1625112495065875860,0,0.301,-0.7622,0.7957,33,-25.5127,-10.5591,29.9683,165,1.2806,1.0185,-35.349,-32.8182,28,0.037,24929,3.8555,-184.7361
lg,1625112495065914101,0,0.6633,-0.9258,0.9221,34,-10.8032,-17.5171,17.395,165,1.2816,1.0215,-34.9276,-33.5929,28,0.035,9026,3.8555,-183.848
lg,1625112495065935101,0,0.4277,-0.8674,0.8657,35,30.8838,51.8188,-6.2256,165,1.2816,1.0235,-32.7374,-31.9766,28,0.037,10355,3.8555,-185.1561
lg,1625112495065955083,0,0.032,-0.7791,0.8455,36,44.7388,69.2139,-12.9395,165,1.2836,1.0245,-29.3092,-29.0871,28,0.036,8046,3.8555,-187.2278
lg,1625112495065974527,0,-0.0586,-0.8423,0.8765,37,59.4482,69.0308,-13.6719,165,1.2846,1.0225,-25.9685,-26.4489,28,0.038,8067,3.8555,171.1196
lg,1625112495065993360,0,-0.1648,-0.8052,0.8169,38,72.3267,37.3535,-13.9771,165,1.2856,1.0145,-23.6384,-23.816,28,0.039,8011,3.8555,170.2312
lg,1625112495066011397,0,-0.0371,-0.6982,0.7375,39,74.646,20.752,-7.9956,165,1.2866,1.0035,-22.6352,-21.7216,28,0.038,8035,3.8555,170.3745
lg,1625112495066030157,0,0.0879,-0.6785,0.741,40,65.4907,-14.5264,0.4272,165,1.2876,0.9905,-22.794,-20.0352,28,0.035,9013,3.8555,170.9456
lg,1625112495066048546,0,0.353,-0.5264,0.6621,41,50.5981,-29.0527,4.2114,165,1.2876,0.9795,-23.8607,-18.9709,28,0.035,8385,3.8555,-188.1773
lg,1625112495066066212,0,0.5642,-0.5039,0.7422,42,6.7749,-14.2822,2.6855,165,1.2866,0.9785,-24.7103,-19.3796,28,0.035,7901,3.8555,-187.6344
lg,1625112495066084083,0,0.418,-0.7502,0.8237,43,-6.0425,11.5356,1.0986,165,1.2866,0.9835,-23.8835,-20.4838,28,0.037,8091,3.8555,-187.3788
lg,1625112495066101508,0,0.1333,-0.6528,0.7183,44,-8.2397,26.2451,-2.9297,165,1.2866,0.9925,-22.3791,-21.5036,28,0.041,7942,3.8555,-187.545
lg,1625112495066118434,0,-0.054,-0.583,0.6531,45,-26.4282,2.8687,-8.4839,165,1.2886,1.0085,-21.4556,-23.2474,28,0.041,8136,3.8555,-187.6222
lg,1625112495066135564,0,-0.054,-0.6646,0.6523,46,-46.0205,-38.208,-7.6294,165,1.2866,1.0185,-22.0636,-26.1369,28,0.04,8902,3.8555,-186.9145
lg,1625112495066153157,0,0.1428,-0.8088,0.7124,47,-62.1338,-67.3828,-1.9531,165,1.2856,1.0225,-23.9448,-30.0446,28,0.044,8231,3.8555,-185.2725
lg,1625112495066172027,0,0.2278,-0.886,0.7722,48,-65.3687,-67.5049,1.2817,165,1.2816,1.0205,-25.7771,-33.7944,28,0.038,8227,3.8555,-183.4687
lg,1625112495066189138,0,0.1211,-1.3865,1.1975,49,-13.7939,-60.4858,-27.4048,165,1.2806,1.0175,-27.5556,-35.2393,28,0.037,8277,3.8555,-182.6574
lg,1625112495066206657,0,0.1069,-0.2935,0.6096,50,38.9404,-54.8096,-32.6538,165,1.2796,1.0155,-29.3743,-33.3459,28,0.045,8383,3.8555,-182.6605
lg,1625112495066224046,0,0.3921,-0.561,0.4714,51,18.1274,-58.7769,-20.5688,165,1.2786,1.0145,-31.7603,-33.6397,28,0.046,8939,3.8555,-181.6196
lg,1625112495066241323,0,0.3721,-0.5105,0.5769,52,4.1504,-5.9814,-5.7373,165,1.2786,1.0145,-31.8509,-33.7574,28,0.04,10430,3.8555,-181.5176
lg,1625112495066258379,0,0.1396,-0.6428,0.636,53,-3.2349,12.5732,1.9531,165,1.2786,1.0145,-30.1053,-34.2604,28,0.039,8395,3.8555,-181.2924
lg,1625112495066274953,0,0.1711,-0.5703,0.6694,54,-0.1831,17.395,19.043,165,1.2786,1.0165,-28.3614,-34.6629,28,0.035,8437,3.8555,-180.8939
lg,1625112495066292527,0,0.3357,-0.6738,0.7285,55,-6.7139,16.1133,26.2451,165,1.2786,1.0175,-26.8552,-35.5176,28,0.035,8390,3.8555,-180.1882
lg,1625112495066310268,0,0.5649,-0.7832,0.8691,56,-3.0518,22.644,24.1089,165,1.2786,1.0195,-25.5175,-36.012,28,0.034,8483,3.8555,-179.7962
lg,1625112495066327434,0,0.4016,-0.9014,0.9055,57,3.1128,40.1001,19.043,165,1.2786,1.0215,-22.9682,-35.3608,28,0.028,8481,3.8555,-180.7466
lg,1625112495066344508,0,0.2593,-0.8809,0.9497,58,27.5269,70.1904,5.9204,165,1.2816,1.0235,-20.0832,-34.0134,28,0.028,8480,3.8555,-182.135
lg,1625112495066361342,0,-0.1113,-0.9167,0.874,59,57.0679,72.937,-5.0049,165,1.2826,1.0255,-16.8093,-31.6612,28,0.033,8463,3.8555,-183.7885
lg,1625112495066378675,0,-0.2324,-0.7817,0.7913,60,78.9795,31.6772,-4.0894,165,1.2846,1.0255,-14.7329,-28.8114,28,0.033,8517,3.8555,-184.4211
lg,1625112495066395379,0,-0.1497,-0.6853,0.7217,61,79.9561,8.606,4.0283,165,1.2856,1.0235,-14.3311,-26.4414,28,0.03,8507,3.8555,-183.6542
lg,1625112495066412083,0,0.1221,-0.667,0.7839,62,65.6738,-28.6865,16.4185,165,1.2866,1.0215,-14.7948,-24.6613,28,0.03,8579,3.8555,-182.386
lg,1625112495066428953,0,0.4858,-0.3901,0.6584,63,36.438,-33.02,26.1841,165,1.2866,1.0195,-16.2498,-23.8242,28,0.032,8581,3.8555,-180.785
lg,1625112495066445712,0,0.5337,-0.6245,0.8391,64,-1.1597,4.8828,20.6909,165,1.2876,1.0235,-16.1668,-24.5288,28,0.034,8600,3.8555,-179.95
lg,1625112495430789249,0,0.0125,-0.6963,0.791,65,-25.0854,48.7671,1.9531,165,1.2886,1.0375,-13.7922,-25.997,28,0.034,24607,3.8555,-180.559
lg,1625112495430837471,0,-0.0168,-0.635,0.7114,66,-37.8418,-14.7705,-10.3149,165,1.2876,1.0385,-13.9385,-28.1067,28,0.035,12532,3.8555,-180.5184
lg,1625112495430867527,0,0.1711,-0.8442,0.9104,67,-38.8184,-12.4512,-3.479,165,1.2866,1.0355,-14.2103,-30.2656,28,0.035,10744,3.8555,-180.2551
lg,1625112495430896027,0,-0.1411,-0.9819,0.8442,68,-10.376,7.5684,-15.3198,165,1.2856,1.0335,-12.3237,-30.191,28,0.037,8029,3.8555,-181.0942
lg,1625112495430924230,0,-0.5554,-0.3799,0.5505,69,20.9351,22.583,-11.9019,165,1.2856,1.0345,-9.9912,-29.3208,28,0.036,8719,3.8555,-181.928
lg,1625112495430951082,0,-0.4355,-0.3386,0.5061,70,-10.3149,-80.9326,12.0239,165,1.2856,1.0345,-10.9299,-30.2446,28,0.036,8023,3.8555,-179.85
lg,1625112495430978860,0,0.3494,-0.6304,0.7458,71,-44.6777,-153.0762,40.4663,165,1.2866,1.0345,-15.595,-33.4868,28,0.036,7998,3.8555,-175.0341
lg,1625112495431006064,0,0.7947,-0.7754,0.8792,72,-47.7295,-150.2075,46.936,165,1.2856,1.0355,-20.0995,-37.276,28,0.034,8619,3.8555,-169.6741
lg,1625112495431031842,0,1.2056,-1.0544,1.0151,73,-25.2686,-45.4102,38.9404,165,1.2856,1.0355,-21.3026,-39.4549,28,0.034,8808,3.8555,-167.0512
lg,1625112495431058934,0,0.6316,-0.8708,0.8862,74,7.2021,79.895,23.6206,165,1.2856,1.0375,-18.4643,-38.8806,28,0.034,8229,3.8555,-168.3623
lg,1625112495431084953,0,0.0464,-0.8691,0.8647,75,16.7236,117.2485,21.2402,165,1.2866,1.0395,-13.1517,-37.3032,28,0.036,8126,3.8555,-171.0879
lg,1625112495431111138,0,-0.1372,-0.8687,0.8389,76,38.8184,129.2725,18.8599,165,1.2876,1.0395,-7.8126,-35.6374,28,0.036,8203,3.8555,-173.5132
lg,1625112495431136675,0,-0.3091,-0.8137,0.7334,77,65.5518,77.6978,12.4512,165,1.2886,1.0405,-4.0824,-33.3452,28,0.039,8172,3.8555,-174.7913
lg,1625112495431162508,0,-0.1897,-0.7539,0.7241,78,72.7539,23.4985,14.2822,165,1.2896,1.0385,-2.4275,-30.9316,28,0.038,8671,3.8555,-174.7616
lg,1625112495431188268,0,-0.1248,-0.7388,0.7383,79,72.6929,-0.2441,16.1743,165,1.2906,1.0315,-2.0813,-28.5573,28,0.035,8221,3.8555,-174.173
lg,1625112495431213879,0,0.1899,-0.688,0.718,80,61.2793,-29.0527,22.644,165,1.2916,1.0245,-3.0327,-26.7516,28,0.042,8205,3.8555,-172.8142
lg,1625112495431239379,0,0.3894,-0.6321,0.8186,81,46.9971,-22.522,23.3154,165,1.2916,1.0195,-4.1168,-25.3508,28,0.041,8219,3.8555,-171.5662
lg,1625112495431264860,0,0.449,-0.5129,0.7566,82,40.0391,-12.146,21.3623,165,1.2916,1.0205,-4.7503,-24.5633,28,0.042,8261,3.8555,-170.8826
lg,1625112495431290342,0,0.3652,-0.6282,0.8389,83,8.606,16.2354,14.4653,165,1.2916,1.0265,-4.4908,-24.6916,28,0.043,8325,3.8555,-170.59
lg,1625112495431316508,0,0.2065,-0.5627,0.6711,84,-7.3853,36.6821,12.9395,165,1.2916,1.0335,-3.2991,-25.5534,28,0.044,8290,3.8555,-170.6991
lg,1625112495431342268,0,-0.0127,-0.6108,0.6941,85,-28.9917,44.7388,6.6528,165,1.2916,1.0395,-1.427,-27.2982,28,0.044,8324,3.8555,-171.2268
lg,1625112495431368156,0,-0.1545,-0.6851,0.7336,86,-32.6538,42.4194,4.4556,165,1.2916,1.0415,0.5444,-29.1966,28,0.044,8373,3.8555,-171.8661
lg,1625112495431393638,0,-0.3477,-0.6589,0.6602,87,-26.4893,24.5361,4.5166,165,1.2906,1.0415,2.2522,-30.8313,28,0.045,8317,3.8555,-172.2175
lg,1625112495431419582,0,-0.5049,-0.541,0.6399,88,-25.0854,-8.4229,6.7749,165,1.2906,1.0425,3.2001,-32.123,28,0.04,8553,3.8555,-171.8326
lg,1625112495431444990,0,-0.3269,-0.4893,0.6475,89,-35.6445,-75.3784,20.3857,165,1.2876,1.0415,1.85,-33.6168,28,0.042,10208,3.8555,-169.5239
lg,1625112495431473527,0,0.1042,-0.6436,0.7649,90,-50.0488,-114.9292,33.1421,165,1.2856,1.0415,-1.4618,-35.8454,28,0.043,8453,3.8555,-165.8155
lg,1625112495431499490,0,0.4324,-0.824,0.8816,91,-45.4712,-106.4453,35.1562,165,1.2876,1.0415,-4.7091,-38.1186,28,0.044,11097,3.8555,-162.1042
lg,1625112495431524564,0,0.4172,-0.9226,0.8811,92,-25.5737,-59.5703,28.0762,123,1.2876,1.0425,-6.3752,-39.6696,28,0.044,10948,3.9039,-159.6902
lg,1625112495431628342,0,0.1814,-0.9263,0.8931,93,-11.0474,-29.3579,24.4751,123,1.2866,1.0425,-6.7038,-40.5245,28,0.044,8607,3.9039,-158.1471
lg,1625112495431661916,0,0.1672,-0.8945,0.8291,94,-2.6855,-26.001,24.7803,123,1.2876,1.0425,-6.8106,-40.794,28,0.042,8616,3.9039,-156.7085
lg,1625112495431691323,0,0.2031,-0.897,0.8223,95,9.4604,-21.4233,24.9023,123,1.2876,1.0425,-6.9109,-40.8275,28,0.043,8662,3.9039,-155.355
lg,1625112495431720675,0,0.2507,-0.7881,0.7295,96,24.1699,-9.1553,23.9258,123,1.2866,1.0435,-6.813,-40.2171,28,0.041,8707,3.9039,-154.3564
lg,1625112495788463490,0,0.228,-0.5662,0.6174,97,24.4141,30.8228,29.2969,123,1.2866,1.0445,-5.452,-39.3335,28,0.041,25195,3.9039,-154.2415
lg,1625112495788634249,0,0.3284,-0.6094,0.6838,98,16.4795,45.3491,25.3906,123,1.2876,1.0455,-3.9687,-38.7259,28,0.04,11267,3.9039,-154.597
lg,1625112495788656286,0,0.1731,-0.748,0.8264,99,22.0337,60.3638,7.3853,123,1.2886,1.0475,-2.0926,-37.9044,28,0.041,9932,3.9039,-155.8612
lg,1625112495788678045,0,-0.1323,-0.8936,0.8728,100,45.8374,66.4062,-8.8501,123,1.2896,1.0475,0.1215,-36.3391,28,0.045,8155,3.9039,-157.734
lg,1625112495788698915,0,-0.3159,-0.7058,0.7927,101,68.2983,36.2549,-20.9961,123,1.2896,1.0445,1.4626,-33.8299,28,0.044,7975,3.9039,-159.2407
lg,1625112495788718471,0,-0.2017,-0.6287,0.7842,102,67.0166,15.8691,-15.1978,123,1.2906,1.0365,2.0566,-31.3645,28,0.044,7865,3.9039,-160.0909
lg,1625112495788738786,0,-0.0369,-0.6401,0.7725,103,57.5562,-2.5024,-8.606,123,1.2906,1.0255,1.799,-29.3962,28,0.042,7886,3.9039,-160.3484
lg,1625112495788760138,0,0.1421,-0.6279,0.7988,104,49.0723,0.3662,-0.3662,123,1.2916,1.0115,1.421,-27.7755,28,0.043,8063,3.9039,-160.385
lg,1625112495788779656,0,0.1646,-0.6306,0.7734,105,47.1802,10.437,0.3662,123,1.2906,0.9985,1.3747,-26.3346,28,0.044,8249,3.9039,-160.5795
lg,1625112495788797730,0,-0.0107,-0.6306,0.7632,106,39.6729,28.6865,-5.6152,123,1.2916,0.9815,2.277,-25.2873,28,0.041,9828,3.9039,-161.2957
lg,1625112495788816027,0,-0.0796,-0.5249,0.7407,107,22.1558,17.1509,-4.2114,123,1.2916,0.9735,2.9338,-24.8119,28,0.039,7743,3.9039,-161.7549
lg,1625112495788837638,0,-0.0688,-0.6165,0.7583,108,0.1831,0,-1.77,123,1.2906,0.9725,2.9498,-25.3607,28,0.04,7962,3.9039,-161.8478
lg,1625112495788857230,0,-0.0571,-0.6187,0.7512,109,-6.7139,-9.8877,-3.1738,123,1.2916,0.9765,2.5586,-26.1715,28,0.041,7855,3.9039,-161.818
lg,1625112495788875545,0,-0.0742,-0.592,0.7932,110,-15.2588,-32.0435,-10.1929,123,1.2916,0.9865,1.3044,-27.1808,28,0.042,8026,3.9039,-161.6237
lg,1625112495788894323,0,0.0054,-0.5051,0.6826,111,-23.8037,-45.0439,-13.6719,123,1.2896,0.9975,-0.8681,-29.1847,28,0.044,7856,3.9039,-161.2227
lg,1625112495788913545,0,-0.0325,-0.5806,0.7529,112,-57.373,-56.8237,-20.0195,123,1.2896,1.0095,-3.1116,-31.8145,28,0.043,8043,3.9039,-160.7524
lg,1625112495788932897,0,0.0671,-0.5537,0.7393,113,-82.0312,-77.8198,-27.5269,123,1.2886,1.0215,-6.34,-35.3425,28,0.042,10423,3.9039,-159.9284
lg,1625112495788950138,0,0.1597,-1.1584,1.2332,114,-94.9097,-85.4492,-35.6445,123,1.2876,1.0255,-9.8647,-39.5647,28,0.042,8729,3.9039,-158.9332
lg,1625112495788969341,0,-0.0217,-1.165,0.6265,115,30.0903,-85.3271,-77.9419,123,1.2866,1.0265,-14.0649,-39.1783,28,0.042,8619,3.9039,-159.0214
lg,1625112495788987175,0,-0.0647,-0.6887,0.6755,116,44.4946,-80.1392,-78.9795,123,1.2856,1.0265,-17.8264,-37.5184,28,0.04,8976,3.9039,-159.4457
lg,1625112495789004360,0,0.3564,-0.3088,0.4595,117,46.6919,-72.6318,-60.3027,123,1.2856,1.0265,-21.0243,-35.8906,28,0.035,8224,3.9039,-159.5523
lg,1625112495789021193,0,0.3855,-0.2776,0.4941,118,18.0664,-20.813,-26.9165,123,1.2856,1.0275,-20.3388,-35.6644,28,0.036,8640,3.9039,-160.4668
lg,1625112495789038286,0,-0.0195,-0.554,0.6782,119,-6.8359,38.8184,-1.3428,123,1.2856,1.0275,-18.2773,-35.745,28,0.037,8739,3.9039,-161.4258
lg,1625112495789059082,0,0.0417,-0.6006,0.7656,120,-20.3247,27.832,18.3716,123,1.2846,1.0295,-16.3285,-36.6231,28,0.034,8282,3.9039,-161.4717
lg,1625112495789076656,0,0.3708,-0.7888,0.8867,121,-21.4233,10.2539,18.7378,123,1.2846,1.0315,-15.5891,-37.7657,28,0.034,9063,3.9039,-161.0565
lg,1625112495789094693,0,0.4836,-0.8516,0.9053,122,-6.8359,28.1372,2.3193,123,1.2846,1.0335,-14.8717,-38.0698,28,0.034,9101,3.9039,-161.6454
lg,1625112495789111897,0,0.4146,-0.8386,0.8765,123,1.4648,44.2505,-7.6904,123,1.2846,1.0345,-13.5475,-37.8459,28,0.032,8799,3.9039,-162.9765
lg,1625112495789129730,0,0.1104,-0.803,0.8723,124,16.9067,63.7817,-18.0054,123,1.2866,1.0365,-11.6413,-36.8815,28,0.035,8357,3.9039,-165.1059
lg,1625112495789147212,0,-0.1689,-0.8044,0.8625,125,30.7007,59.9365,-18.1885,123,1.2866,1.0345,-9.7267,-35.4119,28,0.035,10919,3.9039,-166.5979
lg,1625112495789165767,0,-0.2725,-0.8489,0.7539,126,46.936,27.71,-18.0664,123,1.2876,1.0245,-8.3436,-33.8407,28,0.033,8772,3.9039,-167.7403
lg,1625112495789184434,0,-0.0391,-0.7222,0.7451,127,52.063,-9.7656,-1.1597,123,1.2886,1.0115,-8.2855,-32.1907,28,0.037,9231,3.9039,-167.4985
lg,1625112495789209823,0,0.1643,-0.5911,0.6958,128,36.6821,-26.2451,6.6528,123,1.2886,1.0015,-9.1126,-31.1593,28,0.036,8450,3.9039,-166.6658
lg,1625112496154762689,0,0.374,-0.5735,0.7312,129,-7.8125,4.2114,7.1411,123,1.2906,1.0035,-9.323,-31.7466,28,0.04,24794,3.9039,-166.4668
lg,1625112496154827726,0,0.1921,-0.6028,0.752,130,-29.6631,13.1836,0.7935,123,1.2906,1.0165,-8.94,-33.1537,28,0.041,9773,3.9039,-166.6829
lg,1625112496154849429,0,-0.1494,-0.7134,0.7104,131,-47.2412,9.8267,-9.1553,123,1.2906,1.0305,-8.1498,-35.4194,28,0.04,14151,3.9039,-167.1528
lg,1625112496154869966,0,-0.2795,-0.7288,0.7822,132,-54.8706,-22.583,-5.6763,123,1.2886,1.0345,-8.1266,-37.9399,28,0.035,8968,3.9039,-166.7673
lg,1625112496154914466,0,-0.1396,-1.0574,1.1714,133,-56.7627,-44.4946,-4.8218,123,1.2876,1.0325,-9.8663,-40.1427,28,0.034,8093,3.9039,-165.2936
lg,1625112496154945411,0,-0.2361,-1.083,0.8044,134,3.3569,-85.6323,-29.7241,123,1.2866,1.0295,-12.9956,-39.8674,28,0.032,9609,3.9039,-163.5612
lg,1625112496154966392,0,0.1775,-0.5425,0.7336,135,21.2402,-104.5532,-25.3906,123,1.2856,1.0285,-16.764,-39.3749,28,0.032,8625,3.9039,-161.6357
lg,1625112496154986022,0,0.4812,-0.4753,0.5405,136,17.0288,-68.6035,-13.0615,123,1.2856,1.0275,-19.8653,-39.1949,28,0.029,8108,3.9039,-160.2112
lg,1625112496155003652,0,0.1956,-0.551,0.6843,137,-0.4272,-7.0801,-1.8921,123,1.2856,1.0285,-19.8376,-39.2306,28,0.027,8195,3.9039,-160.0905
lg,1625112496155022985,0,0.0967,-0.6479,0.7114,138,-6.897,3.2349,4.5776,123,1.2856,1.0285,-19.0662,-39.6453,28,0.026,8102,3.9039,-159.9885
lg,1625112496155041707,0,0.303,-0.7034,0.7473,139,-8.667,0.7935,15.9912,123,1.2866,1.0305,-18.5244,-40.2859,28,0.024,8170,3.9039,-159.449
lg,1625112496155059244,0,0.4302,-0.7449,0.8284,140,-6.5918,19.4092,15.564,123,1.2866,1.0315,-17.6318,-40.5939,28,0.022,8998,3.9039,-159.4651
lg,1625112496155078429,0,0.3535,-0.7869,0.8042,141,7.1411,49.5605,10.6812,123,1.2856,1.0335,-15.8435,-40.1592,28,0.022,9774,3.9039,-160.4283
lg,1625112496155097522,0,0.1626,-0.7949,0.8308,142,20.1416,66.8335,5.6152,123,1.2866,1.0355,-13.3429,-39.0919,28,0.023,10036,3.9039,-161.9755
lg,1625112496155115096,0,0.0535,-0.8313,0.8472,143,29.7852,72.0825,3.2959,123,1.2876,1.0375,-10.4542,-37.2511,28,0.026,8324,3.9039,-163.7003
lg,1625112496155134411,0,-0.2332,-0.865,0.8013,144,56.7627,59.8145,-5.127,123,1.2886,1.0375,-7.8233,-35.1159,28,0.025,8490,3.9039,-165.2147
lg,1625112496155151966,0,-0.1926,-0.7498,0.7378,145,69.2139,18.0664,3.6011,123,1.2896,1.0365,-6.4419,-32.7178,28,0.032,8331,3.9039,-165.4312
lg,1625112496155169781,0,0.0344,-0.6365,0.7212,146,59.8145,-19.4702,12.6953,123,1.2896,1.0325,-6.6625,-30.7667,28,0.031,8371,3.9039,-164.542
lg,1625112496155189114,0,0.2249,-0.5405,0.7278,147,47.3022,-29.8462,18.1274,123,1.2906,1.0305,-8.213,-29.0849,28,0.032,8365,3.9039,-163.3159
lg,1625112496155207485,0,0.5537,-0.4331,0.761,148,11.1694,-24.5972,17.5781,123,1.2906,1.0335,-9.6541,-28.8229,28,0.037,8421,3.9039,-162.212
lg,1625112496155271022,0,0.3647,-0.5679,0.6443,149,-8.3008,11.9019,8.9111,123,1.2906,1.0395,-9.5961,-29.622,28,0.037,8387,3.9039,-162.0535
lg,1625112496155300485,0,0.1484,-0.519,0.6738,150,-31.4941,27.5269,-4.3945,123,1.2896,1.0445,-8.7515,-31.0704,28,0.038,8426,3.9039,-162.7203
lg,1625112496155318577,0,-0.0103,-0.6348,0.7192,151,-41.9922,28.4424,-10.437,123,1.2886,1.0465,-7.6466,-33.0104,28,0.033,8478,3.9039,-163.6325
lg,1625112496155337670,0,-0.3716,-0.8042,0.9119,152,-43.5791,18.7988,-10.7422,123,1.2866,1.0445,-6.3223,-34.9627,28,0.032,8515,3.9039,-164.3883
lg,1625112496155355170,0,-0.5159,-1.0808,0.7393,153,25.5737,-55.6641,-44.2505,123,1.2876,1.0435,-8.1058,-34.6642,28,0.03,8527,3.9039,-164.4787
lg,1625112496155372410,0,-0.0632,-0.4751,0.6606,154,42.2974,-82.8247,-39.4897,123,1.2866,1.0415,-11.7738,-33.4382,28,0.026,8571,3.9039,-163.3299
lg,1625112496155389910,0,0.2048,-0.4514,0.4924,155,28.9307,-110.9619,-28.0762,123,1.2876,1.0415,-16.2926,-33.0012,28,0.028,8562,3.9039,-161.7148
lg,1625112496155407373,0,0.4558,-0.4761,0.6348,156,7.9956,-64.7583,-15.5029,123,1.2876,1.0405,-19.3204,-33.1006,28,0.028,8553,3.9039,-160.7351
lg,1625112496155425596,0,0.0808,-0.5488,0.7363,157,-6.1035,-7.2632,-3.8452,123,1.2876,1.0415,-19.0828,-33.496,28,0.029,8618,3.9039,-160.6555
lg,1625112496155442836,0,0.085,-0.5593,0.7402,158,-16.8457,-7.4463,14.0381,123,1.2876,1.0425,-18.4678,-34.5216,28,0.028,8695,3.9039,-159.9457
lg,1625112496155460244,0,0.2229,-0.6492,0.7964,159,-23.9258,-8.4229,20.813,123,1.2866,1.0425,-18.1959,-36.0272,28,0.026,8651,3.9039,-158.9421
lg,1625112496155478207,0,0.4407,-0.8586,0.9241,160,-23.6206,0.061,21.3623,123,1.2886,1.0445,-17.7244,-37.4511,28,0.027,8685,3.9039,-158.1423
lg,1625112496534806024,0,0.0317,-0.8909,0.8833,161,19.7754,75.3174,-2.3193,123,1.2896,1.0495,-14.7532,-36.4254,28,0.028,26255,3.9039,-160.0076
lg,1625112496534939820,0,-0.2466,-0.8804,0.8066,162,47.5464,56.7627,-7.9346,123,1.2916,1.0505,-12.0994,-34.5866,28,0.024,8790,3.9039,-161.503
lg,1625112496534964227,0,-0.0571,-0.7261,0.7092,163,57.4951,15.8081,5.0659,123,1.2916,1.0475,-11.3481,-32.8737,28,0.022,10709,3.9039,-161.0268
lg,1625112496534983709,0,0.0559,-0.6997,0.7725,164,48.3398,-15.7471,14.7095,123,1.2916,1.0455,-11.2428,-31.4784,28,0.025,7970,3.9039,-160.0993
lg,1625112496535003116,0,0.4468,-0.426,0.7065,165,21.2402,-29.6021,20.3857,123,1.2916,1.0445,-12.4972,-30.8844,28,0.03,8221,3.9039,-158.7679
lg,1625112496535021949,0,0.3945,-0.6528,0.7498,166,2.7466,-15.9912,17.395,123,1.2916,1.0475,-12.4247,-31.6599,28,0.033,7932,3.9039,-158.3372
lg,1625112496535040561,0,0.3088,-0.6084,0.7595,167,-11.9629,12.2681,7.2632,123,1.2916,1.0515,-12.0615,-32.3972,28,0.033,7946,3.9039,-158.2944
lg,1625112496535059338,0,0.042,-0.5088,0.6553,168,-28.8696,21.1792,-7.9346,123,1.2906,1.0555,-11.1649,-33.6087,28,0.032,8864,3.9039,-158.9972
lg,1625112496535077172,0,-0.2231,-0.7041,0.7737,169,-44.1284,5.249,-12.0239,123,1.2876,1.0545,-10.373,-35.6015,28,0.028,10294,3.9039,-159.4704
lg,1625112496535095598,0,-0.2896,-0.9216,1.1326,170,-39.4897,-28.6255,-13.9771,123,1.2866,1.0515,-10.7849,-37.3487,28,0.024,8321,3.9039,-159.2202
lg,1625112496535113709,0,-0.4048,-1.0103,0.8789,171,-0.6714,-55.9692,-31.9824,123,1.2866,1.0495,-12.7863,-37.1417,28,0.022,8130,3.9039,-158.2635
lg,1625112496535132042,0,-0.1389,-0.4456,0.6851,172,16.5405,-82.0923,-23.9258,123,1.2866,1.0495,-15.1064,-36.6088,28,0.027,8160,3.9039,-157.0481
lg,1625112496535150320,0,0.1584,-0.3613,0.594,173,-2.9297,-83.8013,-5.249,123,1.2866,1.0495,-17.81,-37.0473,28,0.027,8138,3.9039,-155.1808
lg,1625112496535167801,0,0.2803,-0.6665,0.8176,174,-17.0288,-71.5942,4.8828,123,1.2866,1.0495,-19.1304,-38.7585,28,0.025,8209,3.9039,-153.2766
lg,1625112496535189246,0,0.3479,-0.7686,0.8701,175,-25.6958,-42.4194,18.4326,123,1.2866,1.0505,-19.8593,-40.4659,28,0.024,8189,3.9039,-151.4928
lg,1625112496535208783,0,0.5044,-0.8308,0.8909,176,-16.2354,-15.3809,18.2495,123,1.2866,1.0515,-19.9421,-41.5479,28,0.024,8231,3.9039,-150.4463
lg,1625112496535227357,0,0.5376,-0.9575,0.9224,177,-2.1362,27.9541,12.146,123,1.2866,1.0525,-18.8682,-41.6648,28,0.025,8216,3.9039,-150.7946
lg,1625112496535245079,0,0.447,-0.8657,0.8333,178,10.5591,52.3682,9.0332,123,1.2876,1.0535,-16.4976,-40.5353,28,0.025,9067,3.9039,-152.534
lg,1625112496535263264,0,0.1909,-0.7651,0.7695,179,21.3013,85.2051,4.7607,123,1.2896,1.0555,-13.2291,-39.3458,28,0.027,8309,3.9039,-154.5878
lg,1625112496535280931,0,-0.2334,-0.8091,0.7095,180,50.7812,80.7495,-3.2349,123,1.2906,1.0575,-9.8184,-37.2559,28,0.027,9230,3.9039,-156.6352
lg,1625112496535298579,0,-0.3052,-0.7234,0.6658,181,63.5986,36.438,2.3804,123,1.2916,1.0565,-7.5643,-34.9797,28,0.026,8526,3.9039,-157.341
lg,1625112496535315912,0,-0.2349,-0.7185,0.6953,182,62.0117,12.0239,8.9722,123,1.2926,1.0525,-6.4469,-32.9427,28,0.023,8396,3.9039,-157.2453
lg,1625112496535333023,0,0.0364,-0.7312,0.7126,183,55.6641,-29.7241,16.6626,123,1.2926,1.0465,-6.9256,-31.3608,28,0.026,8337,3.9039,-155.98
lg,1625112496535351023,0,0.2935,-0.6831,0.7227,184,46.1426,-39.978,18.3716,123,1.2926,1.0405,-8.2973,-30.1636,28,0.032,8411,3.9039,-154.4662
lg,1625112496535368171,0,0.396,-0.51,0.7229,185,40.2222,-21.9727,16.2354,123,1.2926,1.0385,-9.3556,-28.89,28,0.035,8517,3.9039,-153.4376
lg,1625112496535385264,0,0.4299,-0.4866,0.802,186,29.9683,-11.3525,15.686,123,1.2926,1.0415,-9.8632,-28.0849,28,0.036,8465,3.9039,-152.6193
lg,1625112496535402227,0,0.2957,-0.6123,0.7688,187,12.3291,11.4136,7.9956,123,1.2926,1.0465,-9.587,-27.9975,28,0.036,8470,3.9039,-152.4843
lg,1625112496535419764,0,0.1499,-0.4519,0.7217,188,-4.2114,33.7524,4.9438,123,1.2926,1.0515,-8.3224,-28.2453,28,0.039,8503,3.9039,-152.9284
lg,1625112496535436782,0,-0.1504,-0.5833,0.7769,189,-21.9116,32.5317,-2.0142,123,1.2916,1.0535,-6.5602,-29.36,28,0.04,8511,3.9039,-153.5904
lg,1625112496535454634,0,-0.2319,-0.6218,0.8364,190,-27.4048,17.6392,-4.2114,123,1.2906,1.0535,-5.1923,-30.6774,28,0.037,8543,3.9039,-154.0693
lg,1625112496535471801,0,-0.2307,-0.6567,0.8596,191,-32.6538,-37.3535,-13.3667,123,1.2876,1.0505,-6.0673,-32.2637,28,0.039,8541,3.9039,-153.7261
lg,1625112496535489634,0,0.1392,-0.6543,0.8152,192,-32.6538,-87.7075,-23.3765,123,1.2836,1.0455,-9.5608,-33.9701,28,0.033,8622,3.9039,-152.5487
lg,1625112496865965582,0,0.2637,-0.6357,0.6951,193,-4.6387,17.7002,-44.3726,123,1.2796,1.0385,-10.2118,-34.1478,28,0.032,24033,3.9039,-154.3897
lg,1625112496866002156,0,-0.7202,-0.5403,0.6069,194,6.5308,92.2852,-34.3018,123,1.2796,1.0395,-5.8683,-33.9302,28,0.03,9609,3.9039,-157.069
lg,1625112496866022748,0,-0.6609,-0.6079,0.7681,195,-6.7139,49.8657,-0.7324,123,1.2806,1.0405,-4.8165,-34.8809,27,0.029,9213,3.9039,-156.1571
lg,1625112496866042767,0,0.1467,-0.8264,0.8625,196,-24.0479,-81.2378,23.4985,123,1.2806,1.0415,-7.7339,-36.6027,27,0.031,9858,3.9039,-152.4066
lg,1625112496866061693,0,0.7166,-0.9624,0.9614,197,-17.6392,-110.4736,34.79,123,1.2826,1.0425,-10.174,-37.4947,27,0.03,10114,3.9039,-149.4332
lg,1625112496866079878,0,0.6951,-0.9014,0.9187,198,10.9253,-29.7241,25.1465,123,1.2836,1.0435,-11.2081,-37.5839,28,0.03,8045,3.9039,-147.8421
lg,1625112496866098656,0,0.4495,-0.8521,0.8931,199,32.1655,29.3579,11.9019,123,1.2846,1.0455,-10.3357,-36.458,28,0.031,8014,3.9039,-148.1386
lg,1625112496866116952,0,0.3354,-0.8147,0.8281,200,42.9077,42.9077,8.3618,123,1.2866,1.0475,-8.7181,-34.4428,28,0.03,8043,3.9039,-149.1104
lg,1625112496866135156,0,0.2854,-0.8252,0.803,201,59.8145,63.9038,7.2021,123,1.2886,1.0485,-6.0625,-32.1866,28,0.034,9485,3.9182,-150.4621
lg,1625112496866152619,0,0.0969,-0.8191,0.7615,202,66.9556,87.1582,9.7656,92,1.2896,1.0495,-2.8535,-29.9774,28,0.041,8158,3.9182,-151.8745
lg,1625112496866172174,0,-0.1233,-0.6816,0.7349,203,59.3872,89.5996,16.1133,92,1.2906,1.0495,0.9633,-28.0835,28,0.042,8100,3.9182,-153.0232
lg,1625112496866190841,0,-0.2146,-0.6243,0.8108,204,53.4668,78.125,21.1792,92,1.2916,1.0485,3.9382,-26.5133,28,0.044,8105,3.9182,-153.1949
lg,1625112496866208656,0,-0.168,-0.48,0.7126,205,42.2363,33.0811,28.1982,92,1.2916,1.0485,4.7703,-25.43,28,0.044,9684,3.9182,-152.3642
lg,1625112496866225896,0,0.0237,-0.4883,0.7991,206,11.9629,-2.8687,28.3203,92,1.2916,1.0505,4.9043,-25.0935,28,0.043,9201,3.9182,-151.308
lg,1625112496866243526,0,0.1172,-0.3679,0.6653,207,-13.7939,-21.7896,17.5171,92,1.2916,1.0525,3.8844,-25.7104,28,0.045,8826,3.9182,-150.3079
lg,1625112496866261285,0,0.0127,-0.5391,0.8074,208,-44.3726,-25.3906,2.5024,92,1.2906,1.0545,2.8435,-27.7575,28,0.044,8229,3.9182,-149.7776
lg,1625112496866278470,0,-0.2126,-0.7139,0.8982,209,-50.5371,-23.1934,-2.3193,92,1.2906,1.0555,1.9751,-30.2587,28,0.045,8270,3.9182,-149.4459
lg,1625112496866295637,0,-0.2441,-0.7861,0.9983,210,-49.1943,-45.105,-13.0615,92,1.2916,1.0565,0.5208,-32.5108,28,0.045,8354,3.9182,-148.966
lg,1625112496866313137,0,-0.2549,-0.8523,0.7966,211,-7.5684,-84.6558,-31.9214,92,1.2906,1.0555,-2.5369,-33.3702,28,0.046,8287,3.9182,-148.1975
lg,1625112496866330452,0,-0.2285,-0.6196,0.7415,212,0.7935,-97.4121,-30.0293,92,1.2916,1.0545,-5.8138,-33.6653,28,0.047,8295,3.9182,-147.027
lg,1625112496866347878,0,-0.0535,-0.5625,0.6323,213,0.061,-105.1025,-18.7378,92,1.2906,1.0545,-9.3317,-34.2011,28,0.047,8304,3.9182,-145.2497
lg,1625112496866364896,0,0.2673,-0.5403,0.7173,214,-10.1318,-96.3745,0.9155,92,1.2926,1.0555,-12.7491,-35.1387,28,0.047,8358,3.9182,-142.9615
lg,1625112496866382211,0,0.3735,-0.6765,0.824,215,-19.4092,-52.063,13.916,92,1.2916,1.0555,-14.361,-36.4708,28,0.045,9047,3.9182,-141.204
lg,1625112496866399674,0,0.5442,-0.8792,0.8848,216,-12.8784,-9.3994,26.5503,92,1.2916,1.0555,-14.385,-37.5635,28,0.046,8363,3.9182,-140.017
lg,1625112496866417026,0,0.4316,-0.7578,0.8093,217,2.3193,54.0771,26.7334,92,1.2916,1.0575,-12.2989,-37.56,28,0.045,8429,3.9182,-140.4564
lg,1625112496866434359,0,0.2798,-0.7517,0.854,218,6.0425,71.7163,22.8271,92,1.2926,1.0585,-9.5363,-37.2615,28,0.042,8476,3.9182,-141.4689
lg,1625112496866451341,0,0.1304,-0.8293,0.8584,219,19.8364,79.6509,16.6626,92,1.2936,1.0585,-6.4718,-36.5345,28,0.041,8508,3.9182,-142.8237
lg,1625112496866467933,0,0.1094,-0.865,0.8516,220,41.687,76.416,6.2256,92,1.2926,1.0595,-3.8095,-35.0713,28,0.043,8518,3.9182,-144.3812
lg,1625112496866484378,0,-0.2375,-0.7859,0.7388,221,63.5376,77.6978,-8.1787,92,1.2936,1.0555,-0.7968,-32.8984,28,0.045,8486,3.9182,-146.3517
lg,1625112496866502100,0,-0.3083,-0.7109,0.7305,222,64.6362,62.1948,-4.6997,92,1.2946,1.0465,1.8941,-30.7534,28,0.047,8505,3.9182,-147.8062
lg,1625112496866518841,0,-0.25,-0.6914,0.7815,223,55.481,19.5923,6.2866,92,1.2956,1.0375,3.1523,-28.9527,28,0.045,8589,3.9182,-147.9852
lg,1625112496866606489,0,0.0503,-0.3523,0.5667,224,41.8091,-20.0195,10.498,92,1.2946,1.0295,2.3525,-27.3575,28,0.047,8585,3.9182,-147.2461
lg,1625112497241054543,0,0.1819,-0.4878,0.7395,225,-21.3013,-19.7144,-3.479,92,1.2966,1.0435,1.2502,-28.4967,28,0.048,25268,3.9182,-147.0079
lg,1625112497241100561,0,-0.1003,-0.6567,0.8303,226,-42.7856,-16.9678,-17.7612,92,1.2956,1.0505,0.4773,-30.5865,28,0.043,12500,3.9182,-147.3009
lg,1625112497241121321,0,-0.1943,-0.708,0.8784,227,-41.4429,-35.3394,-25.3296,92,1.2956,1.0515,-0.8851,-32.5534,28,0.044,8121,3.9182,-147.4293
lg,1625112497241141617,0,-0.019,-0.905,1.1077,228,-34.9121,-62.1338,-35.2173,92,1.2946,1.0495,-3.6594,-34.21,28,0.042,7987,3.9182,-147.2295
lg,1625112497241160413,0,-0.0076,-1.0254,0.9702,229,-6.6528,-65.5518,-48.8281,92,1.2936,1.0475,-6.7603,-34.9442,28,0.04,8147,3.9182,-147.3135
lg,1625112497241179191,0,-0.0776,-0.5173,0.6941,230,18.6157,-36.9873,-44.0063,92,1.2926,1.0455,-8.5021,-34.1815,28,0.039,8064,3.9182,-147.9135
lg,1625112497241197710,0,-0.1665,-0.4409,0.4919,231,14.2822,-22.7661,-18.7378,92,1.2936,1.0445,-8.8002,-33.885,28,0.036,8978,3.9182,-147.9768
lg,1625112497241215969,0,-0.0212,-0.4778,0.594,232,-7.3853,-33.5083,6.1035,92,1.2916,1.0455,-9.3561,-34.5206,28,0.035,10702,3.9182,-146.9798
lg,1625112497241234672,0,0.2639,-0.7019,0.8296,233,-17.8223,-37.1094,14.4653,92,1.2916,1.0455,-10.1592,-35.9284,28,0.032,8080,3.9182,-145.4466
lg,1625112497241253172,0,0.3845,-0.8088,0.9336,234,-20.4468,-23.2544,23.9868,92,1.2926,1.0465,-10.6117,-37.1694,28,0.034,8132,3.9182,-144.0645
lg,1625112497241281913,0,0.3889,-0.9124,0.9324,235,1.2207,9.7656,12.3291,92,1.2926,1.0485,-10.241,-37.4177,28,0.033,8134,3.9182,-143.8576
lg,1625112497241302654,0,0.1838,-0.7744,0.8372,236,23.4985,27.2827,-0.3052,92,1.2936,1.0495,-9.3376,-36.5681,28,0.034,8099,3.9182,-144.4989
lg,1625112497241320895,0,0.0925,-0.7722,0.8286,237,29.4189,28.3813,-3.1738,92,1.2946,1.0515,-8.3146,-35.5218,28,0.032,8166,3.9182,-145.2381
lg,1625112497241339098,0,-0.0063,-0.8137,0.8083,238,43.457,21.9727,-7.5684,92,1.2946,1.0525,-7.4318,-34.0613,28,0.037,8168,3.9182,-145.9365
lg,1625112497241357265,0,0.0315,-0.7583,0.7659,239,54.5654,16.4795,-1.77,92,1.2956,1.0545,-6.6976,-32.2479,28,0.037,8208,3.9182,-146.3023
lg,1625112497241375209,0,0.0383,-0.7874,0.751,240,55.2368,13.6108,0.7935,92,1.2956,1.0545,-5.9994,-30.4065,28,0.038,8244,3.9182,-146.5108
lg,1625112497241393802,0,0.0942,-0.6008,0.6919,241,54.8096,6.5918,6.3477,92,1.2966,1.0555,-5.644,-28.6386,28,0.038,8240,3.9182,-146.3768
lg,1625112497241412209,0,0.1794,-0.4773,0.7129,242,19.165,4.8218,10.2539,92,1.2966,1.0565,-5.5235,-28.094,28,0.04,8261,3.9182,-146.0892
lg,1625112497241431543,0,0.0669,-0.4922,0.5947,243,9.2163,3.6621,7.5073,92,1.2966,1.0585,-5.4301,-28.3833,28,0.041,8314,3.9182,-145.7738
lg,1625112497241449413,0,0.0713,-0.3369,0.5776,244,-6.958,-6.5918,4.8218,92,1.2966,1.0585,-5.5931,-28.7559,28,0.041,8259,3.9182,-145.4704
lg,1625112497241466580,0,-0.1042,-0.6099,0.7097,245,-41.0156,-20.6909,-8.8501,92,1.2956,1.0605,-6.0167,-30.8623,28,0.039,8291,3.9182,-145.3266
lg,1625112497241485117,0,-0.2305,-0.6311,0.822,246,-46.5088,-44.9829,-8.9722,92,1.2956,1.0605,-7.0037,-33.0404,28,0.04,8337,3.9182,-144.6579
lg,1625112497241503691,0,-0.0911,-1.0149,1.072,247,-17.2119,-94.1162,-32.1655,92,1.2966,1.0595,-10.4215,-34.2869,28,0.033,10430,3.9182,-143.5771
lg,1625112497241522839,0,0.0706,-0.8457,0.7825,248,8.606,-98.8159,-36.8652,92,1.2966,1.0595,-14.1378,-33.9896,28,0.034,8475,3.9182,-142.8677
lg,1625112497241541432,0,0.1428,-0.5701,0.7004,249,17.2729,-86.3647,-35.5225,92,1.2956,1.0585,-17.5774,-33.7129,28,0.031,8415,3.9182,-142.0363
lg,1625112497241559950,0,0.3389,-0.488,0.7273,250,4.2114,-55.603,-13.6719,92,1.2966,1.0585,-19.8575,-33.8068,28,0.031,8446,3.9182,-141.2078
lg,1625112497241578357,0,0.2332,-0.5601,0.7708,251,-7.9346,2.5024,7.3242,92,1.2966,1.0595,-19.3657,-34.2702,28,0.031,8459,3.9182,-140.983
lg,1625112497241596931,0,0.0542,-0.7051,0.8567,252,-15.1978,28.0762,25.5127,92,1.2966,1.0605,-17.2176,-35.1478,28,0.028,9759,3.9182,-140.711
lg,1625112497241614857,0,0.0615,-0.761,0.876,253,-16.9678,30.4565,34.4849,92,1.2946,1.0615,-15.0711,-36.1782,28,0.028,8694,3.9182,-139.964
lg,1625112497241631950,0,0.312,-0.7068,0.8396,254,-14.5264,28.5645,42.1143,92,1.2946,1.0615,-13.1838,-37.0709,28,0.027,8537,3.9182,-139.2388
lg,1625112497241649857,0,0.3965,-0.8333,0.9021,255,-5.0049,39.4287,26.8555,92,1.2946,1.0625,-11.4703,-37.4572,28,0.026,8620,3.9182,-139.297
lg,1625112497241668468,0,0.0596,-0.9634,0.9197,256,24.1089,56.0913,4.6997,92,1.2956,1.0625,-9.2275,-36.6224,28,0.031,9016,3.9182,-140.4495
lg,1625112497589649086,0,-0.1672,-0.6877,0.7407,257,58.3496,4.3945,6.1035,92,1.2976,1.0555,-8.2199,-34.55,28,0.024,24726,3.9182,-140.2994
lg,1625112497589703827,0,0.0144,-0.7371,0.7671,258,49.6216,-22.1558,14.3433,92,1.2976,1.0495,-8.3425,-33.0751,28,0.032,9866,3.9182,-139.2619
lg,1625112497589724790,0,0.3904,-0.4719,0.74,259,19.9585,-22.0337,13.2446,92,1.2986,1.0485,-9.403,-32.3943,28,0.035,11441,3.9182,-138.3366
lg,1625112497589744734,0,0.2424,-0.635,0.7605,260,7.0801,-1.5869,2.5024,92,1.2976,1.0525,-9.5753,-32.4139,28,0.036,10776,3.9182,-138.1702
lg,1625112497589763549,0,0.0911,-0.4448,0.6833,261,-8.1177,7.4463,-10.9863,92,1.2976,1.0575,-9.4327,-32.6662,28,0.039,8001,3.9182,-138.7055
lg,1625112497589782141,0,-0.0486,-0.4355,0.6592,262,-20.2637,4.8218,-17.5781,92,1.2976,1.0595,-9.1446,-33.3836,28,0.035,8006,3.9182,-139.4074
lg,1625112497589800419,0,-0.2134,-0.6426,0.8181,263,-43.2129,-21.6064,-22.2168,92,1.2966,1.0605,-9.5507,-35.2435,28,0.032,8137,3.9182,-139.6383
lg,1625112497589819419,0,-0.1802,-0.8396,1.0681,264,-42.0532,-49.8657,-25.8179,92,1.2956,1.0585,-11.0926,-37.0895,28,0.034,8063,3.9182,-139.2764
lg,1625112497589837252,0,-0.3389,-0.7825,0.5884,265,21.4844,-70.4346,-45.3491,92,1.2956,1.0565,-13.2946,-36.8824,28,0.031,9782,3.9182,-138.8975
lg,1625112497589855086,0,-0.3103,-0.4226,0.6572,266,24.1699,-79.4678,-41.0156,92,1.2946,1.0555,-15.5123,-35.9016,28,0.033,8104,3.9182,-138.3305
lg,1625112497589872660,0,-0.0381,-0.3354,0.5291,267,2.8076,-99.3652,-12.6953,92,1.2946,1.0565,-18.2671,-36.2209,28,0.032,8139,3.9182,-136.3493
lg,1625112497589890845,0,0.3662,-0.6106,0.7764,268,-25.3906,-104.6753,8.5449,92,1.2946,1.0585,-21.4509,-38.3169,28,0.029,8166,3.9182,-133.3348
lg,1625112497589908252,0,0.6663,-0.8433,0.9573,269,-21.1792,-59.7534,12.9395,92,1.2966,1.0595,-22.3312,-39.2342,28,0.03,14366,3.9182,-132.3228
lg,1625112497589925252,0,0.5432,-0.8489,0.908,270,0.3052,11.9629,1.2817,92,1.2966,1.0605,-21.977,-39.2548,28,0.028,8227,3.9182,-132.5544
lg,1625112497589944919,0,0.3035,-0.7539,0.8201,271,13.3667,50.7202,-0.1221,92,1.2966,1.0615,-20.1384,-38.3573,28,0.028,8145,3.9182,-133.8747
lg,1625112497589963937,0,0.0801,-0.7273,0.8066,272,18.4937,62.6221,1.5259,92,1.2976,1.0625,-17.2313,-36.9795,28,0.028,8282,3.9182,-135.6129
lg,1625112497589981067,0,-0.0601,-0.7646,0.8135,273,30.3345,71.167,0.3052,92,1.2986,1.0625,-14.1546,-35.549,28,0.026,8250,3.9182,-137.2707
lg,1625112497589998289,0,-0.2485,-0.8147,0.7722,274,49.7437,34.6069,-2.7466,92,1.2986,1.0625,-12.0757,-33.7896,28,0.027,8882,3.9182,-138.0512
lg,1625112497590016141,0,-0.0759,-0.6973,0.7366,275,56.1523,-4.8828,12.146,92,1.2976,1.0595,-11.3416,-32.0375,28,0.025,8742,3.9182,-137.4355
lg,1625112497590033141,0,0.0374,-0.6304,0.7583,276,49.4995,-34.729,18.0054,92,1.2986,1.0525,-11.7889,-30.6399,28,0.026,8276,3.9182,-136.0036
lg,1625112497590050049,0,0.2588,-0.3972,0.5933,277,39.3677,-52.002,20.4468,92,1.2986,1.0485,-13.4885,-29.5748,28,0.029,8297,3.9182,-134.1873
lg,1625112497590067123,0,0.574,-0.5127,0.7544,278,-5.7373,-50.7812,17.9443,92,1.2976,1.0465,-15.6064,-30.3825,28,0.035,8336,3.9182,-132.4538
lg,1625112497590084474,0,0.3904,-0.5623,0.8179,279,-19.2261,-2.1362,9.0942,92,1.2976,1.0485,-15.7218,-31.3996,28,0.035,8580,3.9182,-132.0417
lg,1625112497590102400,0,0.1941,-0.6289,0.8394,280,-25.7568,9.9487,-0.1831,92,1.2976,1.0535,-14.6212,-32.7299,28,0.036,8401,3.9182,-132.5501
lg,1625112497590119789,0,-0.1858,-0.6758,0.8284,281,-27.2827,11.5356,-8.9111,92,1.2986,1.0565,-13.4925,-33.9299,28,0.036,8335,3.9182,-133.0632
lg,1625112497590138308,0,-0.2844,-0.5083,0.7036,282,-33.1421,-33.5083,-8.4229,92,1.2966,1.0605,-13.5876,-35.4316,28,0.035,8444,3.9182,-132.5593
lg,1625112497590156067,0,-0.0256,-0.6782,0.8589,283,-48.7671,-75.3784,-3.6621,92,1.2956,1.0605,-15.4925,-37.9185,28,0.029,8464,3.9182,-130.8016
lg,1625112497590172808,0,0.0637,-0.916,1.0688,284,-37.4146,-83.1909,-9.7656,92,1.2956,1.0605,-17.9441,-40.455,28,0.034,8502,3.9182,-128.7875
lg,1625112497590189919,0,0.1057,-0.5913,0.6821,285,0.3052,-66.4673,-17.9443,92,1.2956,1.0605,-19.9688,-40.8598,28,0.029,8539,3.9182,-127.5233
lg,1625112497590206771,0,-0.0676,-0.4697,0.5635,286,-3.2959,-59.4482,-9.6436,92,1.2956,1.0615,-21.0316,-41.4126,28,0.033,8510,3.9182,-126.1793
lg,1625112497590260845,0,0.1228,-0.6179,0.7161,287,-22.4609,-69.2139,8.8501,92,1.2956,1.0615,-22.291,-43.1131,28,0.03,8588,3.9182,-123.9095
lg,1625112497590335011,0,0.436,-0.7532,0.8489,288,-26.001,-69.7632,18.4937,92,1.2956,1.0625,-23.7121,-45.1284,28,0.03,10679,3.9182,-121.2458
lg,1625112497955250616,0,0.3811,-0.8208,0.8054,289,12.8174,21.9116,3.7231,92,1.2966,1.0655,-22.669,-44.3236,28,0.03,24838,3.9182,-121.8315
lg,1625112497955315079,0,0.1187,-0.7256,0.7866,290,27.2217,52.3682,1.4648,92,1.2986,1.0665,-20.4745,-42.6074,28,0.03,12611,3.9182,-123.3594
lg,1625112497955707023,0,-0.114,-0.8137,0.7502,291,45.7153,44.6167,-3.3569,92,1.2986,1.0645,-18.2284,-40.5257,28,0.028,8099,3.9182,-124.6366
lg,1625112497955745060,0,-0.0955,-0.7029,0.7012,292,52.4292,26.3672,-1.5259,92,1.2996,1.0575,-16.9523,-38.4857,28,0.027,7983,3.9182,-124.6528
lg,1625112497955776394,0,-0.0564,-0.6748,0.6968,293,53.6499,-6.2866,8.728,92,1.2996,1.0455,-16.1527,-36.6985,28,0.028,8018,3.9182,-124.1247
lg,1625112497955806523,0,0.0728,-0.6001,0.7148,294,41.3208,-40.2832,12.3901,92,1.2996,1.0345,-16.6926,-35.5773,28,0.03,8079,3.9182,-122.6731
lg,1625112497956088486,0,0.4214,-0.4695,0.7595,295,8.4839,-64.5142,10.9253,92,1.2996,1.0285,-18.8597,-35.6812,28,0.036,9121,3.9182,-120.7622
lg,1625112497956124208,0,0.5181,-0.5249,0.6782,296,-6.7139,-45.6543,2.3193,92,1.2986,1.0325,-20.7509,-36.4293,28,0.036,10641,3.9182,-119.513
lg,1625112497956153505,0,0.3367,-0.6213,0.8374,297,-18.5547,-32.3486,-4.7607,92,1.2986,1.0405,-21.8231,-37.6041,28,0.037,8096,3.9182,-119.3558
lg,1625112497956182856,0,0.2124,-0.7439,0.8599,298,-30.1514,-16.6016,-20.5078,92,1.2976,1.0475,-22.4021,-38.8368,28,0.031,8272,3.9182,-119.5624
lg,1625112497956211912,0,-0.0103,-0.7366,0.9846,299,-25.8789,-4.8218,-23.0103,92,1.2976,1.0515,-22.2463,-39.5268,28,0.03,8188,3.9182,-120.2419
lg,1625112497956274393,0,-0.1277,-1.0039,0.6914,300,36.3159,-41.5649,-51.9409,92,1.2976,1.0545,-23.7947,-38.5046,28,0.031,8144,3.9182,-120.5868
lg,1625112497956305782,0,-0.1543,-0.7148,0.7717,301,47.0581,-46.9971,-51.7578,92,1.2966,1.0545,-25.3281,-36.5871,28,0.032,8241,3.9182,-121.029
lg,1625112497956332838,0,0.1387,-0.3879,0.4407,302,43.7622,-58.5327,-33.8745,92,1.2966,1.0555,-27.5321,-35.1769,28,0.03,8213,3.9182,-120.6241
lg,1625112497956363356,0,0.1631,-0.3853,0.5388,303,19.2261,-35.2173,-22.4609,92,1.2976,1.0555,-28.6507,-34.4549,28,0.033,8275,3.9182,-120.5363
lg,1625112497956390875,0,0.0542,-0.3894,0.5945,304,10.0708,-23.2544,-14.0381,92,1.2976,1.0565,-28.8554,-34.0177,28,0.028,8272,3.9182,-120.495
lg,1625112497956418208,0,0.2039,-0.4893,0.7117,305,-12.6343,-27.4048,3.1128,92,1.2966,1.0575,-29.1618,-35.4838,28,0.027,8739,3.9182,-119.3957
lg,1625112497956447208,0,0.3518,-0.6858,0.8325,306,-21.1182,-30.1514,5.5542,92,1.2976,1.0585,-29.5553,-36.9878,28,0.027,8297,3.9182,-118.295
lg,1625112497956474301,0,0.4551,-0.7654,0.9111,307,-13.6719,-11.5356,2.8687,92,1.2976,1.0595,-29.5038,-37.8612,28,0.027,8329,3.9182,-117.8102
lg,1625112497956501541,0,0.3528,-0.74,0.8525,308,1.8311,17.2729,-1.9531,92,1.2976,1.0605,-28.526,-37.6428,28,0.027,8426,3.9182,-118.3034
lg,1625112497956528467,0,0.2637,-0.7075,0.8635,309,5.6152,26.7944,-2.9907,92,1.2976,1.0615,-27.1496,-37.0895,28,0.026,8318,3.9182,-119.1145
lg,1625112497956554690,0,0.0867,-0.8093,0.9299,310,19.043,30.2124,-2.8687,92,1.2986,1.0615,-25.3603,-36.0967,28,0.023,8396,3.9182,-119.9378
lg,1625112497956592615,0,0.0383,-0.8613,0.8582,311,42.7246,13.4277,-6.4087,92,1.2986,1.0595,-24.1751,-34.5408,28,0.026,8423,3.9182,-120.331
lg,1625112497956625745,0,0.0859,-0.7009,0.7556,312,53.772,5.7983,-2.3804,92,1.2986,1.0525,-23.3543,-32.5804,28,0.025,8433,3.9182,-120.1422
lg,1625112497956793171,0,0.0659,-0.6646,0.7915,313,54.9316,-6.7749,4.8218,92,1.2996,1.0445,-22.7214,-30.8359,28,0.022,8470,3.9182,-119.6707
lg,1625112497956836874,0,0.5469,-0.3882,0.7493,314,11.2305,-44.3726,14.0381,87,1.3006,1.0395,-24.3475,-30.8616,28,0.026,12405,3.9248,-118.2013
lg,1625112497956871930,0,0.6104,-0.6885,0.8008,315,-6.5918,-10.8643,5.3711,87,1.3006,1.0445,-24.8343,-31.6729,28,0.031,10088,3.9248,-117.5991
lg,1625112497956901911,0,0.5044,-0.5303,0.7485,316,-7.7515,5.5542,-3.8452,87,1.3006,1.0515,-24.3635,-32.0376,28,0.031,8526,3.9248,-118.4899
lg,1625112497956936911,0,0.1099,-0.6072,0.76,317,-31.7993,36.6211,-16.1743,87,1.2996,1.0565,-22.7847,-32.9944,28,0.027,8648,3.9248,-119.8383
lg,1625112497957449115,0,-0.1987,-0.7163,0.8142,318,-35.6445,18.4937,-14.8926,87,1.2986,1.0575,-21.2641,-34.3852,28,0.029,8614,3.9248,-120.6972
lg,1625112497957483855,0,-0.3567,-1.1133,0.9697,319,10.5591,-35.8887,-39.1846,87,1.2976,1.0565,-22.053,-34.3614,28,0.026,9592,3.9248,-120.9948
lg,1625112497957511985,0,-0.0686,-0.4158,0.7307,320,35.5835,-64.4531,-32.5928,87,1.2966,1.0565,-23.8877,-32.8826,28,0.028,8830,3.9248,-120.6806
lg,1625112498321541976,0,0.3787,-0.5835,0.7368,321,-14.5874,-39.7949,-0.7324,87,1.2976,1.0585,-24.8504,-34.1148,28,0.023,24781,3.9248,-119.635
lg,1625112498321620420,0,0.47,-0.7544,0.8455,322,-13.6108,-15.0146,10.5591,87,1.2986,1.0605,-24.9246,-35.2133,28,0.025,16493,3.9248,-118.8772
lg,1625112498321643142,0,0.5859,-0.7979,0.8572,323,-10.5591,-1.5869,9.8267,87,1.2976,1.0615,-24.8131,-36.0913,28,0.022,8071,3.9248,-118.3602
lg,1625112498321664568,0,0.5469,-0.7253,0.8135,324,3.1128,41.1377,3.8452,87,1.2976,1.0625,-23.4687,-35.7978,28,0.022,8147,3.9248,-119.1983
lg,1625112498321683327,0,0.2258,-0.7273,0.8225,325,5.0049,61.1572,1.2207,87,1.2976,1.0635,-20.5243,-35.1436,28,0.021,8085,3.9248,-120.9007
lg,1625112498321701864,0,0.0784,-0.7322,0.8118,326,10.8032,77.8198,2.9907,87,1.2986,1.0645,-17.2732,-34.4182,28,0.021,8090,3.9248,-122.5751
lg,1625112498321721290,0,-0.0969,-0.8218,0.8164,327,25.9399,48.645,1.8311,87,1.2986,1.0645,-14.784,-33.522,28,0.023,8511,3.9248,-123.5089
lg,1625112498321756994,0,-0.0034,-0.7544,0.738,328,46.0205,7.8735,4.0894,87,1.2986,1.0625,-13.8566,-32.1631,28,0.019,8454,3.9248,-123.4114
lg,1625112498321778364,0,0.0642,-0.7107,0.7461,329,49.6826,-7.1411,8.9722,87,1.2996,1.0585,-13.6527,-30.7327,28,0.018,8076,3.9248,-122.8329
lg,1625112498321797253,0,0.2712,-0.5933,0.7083,330,42.2974,-29.1748,14.8926,87,1.2996,1.0555,-14.468,-29.6731,28,0.018,8101,3.9248,-121.6131
lg,1625112498321815809,0,0.6318,-0.4578,0.7683,331,13.5498,-32.7759,17.5171,87,1.2986,1.0555,-16.0584,-29.5055,28,0.021,8118,3.9248,-120.3038
lg,1625112498321834198,0,0.6509,-0.6243,0.7571,332,1.3428,-10.8643,13.7939,87,1.2986,1.0575,-16.4405,-30.0671,28,0.023,8115,3.9248,-119.4638
lg,1625112498321853142,0,0.2861,-0.5813,0.7588,333,-1.4648,24.292,-0.1221,87,1.2986,1.0615,-15.6164,-30.2666,28,0.023,8108,3.9248,-119.8971
lg,1625112498321872642,0,-0.0742,-0.4705,0.6821,334,-17.5781,25.0244,-9.8877,87,1.2976,1.0635,-14.1555,-30.9091,28,0.02,8139,3.9248,-120.7353
lg,1625112498321890901,0,-0.1499,-0.6023,0.7478,335,-28.6865,4.0894,-8.9722,87,1.2966,1.0665,-14.3302,-32.6883,28,0.031,8320,3.9248,-120.409
lg,1625112498321910457,0,0.021,-1.0388,1.3101,336,-33.8135,-60.6689,-12.9395,87,1.2966,1.0645,-16.0927,-34.5087,28,0.028,8203,3.9248,-119.411
lg,1625112498321931420,0,-0.0803,-1.1277,0.8604,337,13.0005,-76.4771,-36.499,87,1.2966,1.0645,-18.945,-34.573,28,0.032,8639,3.9248,-118.7295
lg,1625112498321949272,0,0.1111,-0.4199,0.7422,338,36.6821,-80.6885,-34.1797,87,1.2956,1.0645,-21.9161,-33.138,28,0.023,8297,3.9248,-118.0806
lg,1625112498321986383,0,0.3506,-0.2986,0.6399,339,13.6108,-69.8853,-13.7329,87,1.2956,1.0645,-24.7268,-32.7302,28,0.024,8348,3.9248,-117.0437
lg,1625112498322004994,0,0.3442,-0.676,0.8152,340,-2.0752,-52.124,-5.188,87,1.2956,1.0645,-25.4849,-33.7113,28,0.025,8308,3.9248,-116.1126
lg,1625112498322023197,0,0.3696,-0.6606,0.8364,341,-6.2866,-16.9067,7.5073,87,1.2956,1.0655,-25.6186,-34.4427,28,0.029,8644,3.9248,-115.3382
lg,1625112498322042123,0,0.4836,-0.6836,0.8257,342,-5.8594,-0.3052,11.4136,87,1.2946,1.0675,-25.3125,-35.0557,28,0.027,10455,3.9248,-114.8295
lg,1625112498322059771,0,0.6074,-0.7349,0.856,343,-0.5493,29.2358,10.7422,87,1.2956,1.0675,-24.2298,-35.1342,28,0.023,9162,3.9248,-115.0976
lg,1625112498322078642,0,0.365,-0.6807,0.7905,344,6.1646,71.6553,3.3569,87,1.2946,1.0685,-21.6157,-34.4605,28,0.022,8393,3.9248,-116.6682
lg,1625112498322097401,0,0.0457,-0.7449,0.8035,345,12.9395,81.3599,1.6479,87,1.2946,1.0685,-18.1545,-33.649,28,0.023,8383,3.9248,-118.4196
lg,1625112498322116308,0,-0.0437,-0.7053,0.8203,346,17.0898,69.1528,0.9766,87,1.2946,1.0675,-14.9877,-32.8108,28,0.025,8460,3.9248,-119.8745
lg,1625112498322135123,0,-0.092,-0.802,0.8052,347,34.1797,30.7007,0.1221,87,1.2956,1.0635,-13.2008,-31.7658,28,0.019,8470,3.9248,-120.4149
lg,1625112498322154716,0,0.0322,-0.77,0.7908,348,51.5137,-5.3101,1.3428,87,1.2956,1.0535,-12.9113,-30.2443,28,0.025,8432,3.9248,-120.1341
lg,1625112498322173605,0,0.2532,-0.5469,0.7161,349,50.5371,-22.3389,9.3384,87,1.2956,1.0405,-13.6135,-28.6797,28,0.02,8560,3.9248,-119.288
lg,1625112498322191345,0,0.4045,-0.4199,0.6763,350,37.1704,-25.3296,13.3667,87,1.2956,1.0335,-15.0364,-27.4749,28,0.017,8502,3.9248,-118.3088
lg,1625112498322208827,0,0.6477,-0.5691,0.8401,351,3.0518,-11.4136,12.3901,87,1.2956,1.0365,-15.8911,-27.7562,28,0.019,8602,3.9248,-117.5742
lg,1625112498322226864,0,0.3831,-0.5691,0.7627,352,-2.7466,23.2544,-2.9297,87,1.2956,1.0445,-15.3686,-28.0486,28,0.02,8593,3.9248,-118.0426
lg,1625112498700085569,0,-0.2607,-0.6694,0.8076,353,-30.7007,-2.0142,-17.4561,87,1.2936,1.0575,-14.8803,-29.5326,28,0.02,24845,3.9248,-118.5347
lg,1625112498700124384,0,-0.2134,-1.0752,1.0671,354,5.0049,-61.4014,-35.2173,87,1.2946,1.0575,-17.1082,-30.1906,28,0.02,9840,3.9248,-118.3084
lg,1625112498700144773,0,0.2476,-0.3206,0.4846,355,37.2314,-80.0781,-23.6206,87,1.2956,1.0605,-20.577,-29.084,28,0.022,13814,3.9248,-117.4641
lg,1625112498700167088,0,0.2671,-0.3872,0.635,356,5.6152,-47.7295,-8.667,87,1.2956,1.0605,-22.3678,-29.1905,28,0.032,8048,3.9248,-116.7572
lg,1625112498700187329,0,0.2913,-0.6038,0.792,357,-7.3242,-29.541,9.0942,87,1.2956,1.0615,-22.9711,-30.1844,28,0.031,9120,3.9248,-115.655
lg,1625112498700206273,0,0.415,-0.5938,0.7681,358,-7.2021,-27.71,12.3291,87,1.2956,1.0625,-23.675,-31.188,28,0.03,8097,3.9248,-114.4611
lg,1625112498700224569,0,0.6172,-0.7869,0.9309,359,-9.5825,-9.2163,13.4277,87,1.2956,1.0645,-23.8336,-32.1955,28,0.029,10262,3.9248,-113.6115
lg,1625112498700242310,0,0.6472,-0.78,0.8772,360,10.9863,37.1704,4.7607,87,1.2956,1.0655,-22.6827,-31.8339,28,0.028,8166,3.9248,-114.1567
lg,1625112498700260143,0,0.2666,-0.6946,0.8621,361,20.3247,79.2847,-3.0518,87,1.2956,1.0655,-19.6896,-30.6275,28,0.028,8021,3.9248,-115.9237
lg,1625112498700277643,0,0.0718,-0.731,0.8513,362,27.6489,83.8623,-3.418,87,1.2966,1.0655,-16.2491,-29.3512,28,0.026,8132,3.9248,-117.6694
lg,1625112498700294903,0,-0.1248,-0.7769,0.8313,363,41.8091,52.3682,-4.4556,87,1.2966,1.0615,-13.6526,-27.9232,28,0.023,8094,3.9248,-118.7066
lg,1625112498700312810,0,-0.0193,-0.6882,0.7808,364,57.8613,9.8267,2.8076,87,1.2976,1.0535,-12.6902,-26.1358,28,0.022,9222,3.9248,-118.6503
lg,1625112498700330643,0,0.2307,-0.4563,0.6926,365,49.6216,-21.4844,9.5825,87,1.2966,1.0445,-13.4134,-24.5985,28,0.02,8682,3.9248,-117.8565
lg,1625112498700347958,0,0.4812,-0.3455,0.7798,366,32.5928,-32.6538,14.6484,87,1.2966,1.0445,-14.9836,-23.5363,28,0.021,8183,3.9248,-116.7679
lg,1625112498700365125,0,0.761,-0.5811,0.8342,367,-1.2207,-8.2397,5.6763,87,1.2956,1.0495,-16.0398,-24.0445,28,0.022,8196,3.9248,-116.3161
lg,1625112498700382606,0,0.3223,-0.4182,0.6626,368,-7.2021,50.293,-10.6201,87,1.2956,1.0545,-14.6372,-24.3037,28,0.023,8145,3.9248,-117.4897
lg,1625112498700399440,0,0.022,-0.4094,0.689,369,-17.6392,67.1387,-17.1509,87,1.2966,1.0595,-11.9784,-24.8483,28,0.031,8250,3.9248,-119.2185
lg,1625112498700416699,0,-0.3787,-0.6389,0.8518,370,-36.6211,24.9634,-20.5688,87,1.2936,1.0605,-10.2578,-26.5227,28,0.025,8270,3.9248,-120.338
lg,1625112498700433940,0,-0.2522,-1.0059,1.1394,371,-4.0894,-60.5469,-36.438,87,1.2946,1.0605,-12.3143,-27.2245,28,0.025,8268,3.9248,-120.4421
lg,1625112498700451736,0,0.0164,-0.8271,0.7732,372,23.0103,-87.3413,-41.687,87,1.2936,1.0595,-16.1562,-26.4696,28,0.021,8345,3.9248,-120.3511
lg,1625112498700469069,0,0.3105,-0.5005,0.6272,373,33.6304,-86.731,-38.6963,87,1.2946,1.0585,-20.1439,-25.6319,28,0.02,8289,3.9248,-120.0776
lg,1625112498700486588,0,0.3232,-0.448,0.6545,374,19.7144,-43.8232,-34.2407,87,1.2946,1.0585,-22.3901,-24.9916,28,0.021,8294,3.9248,-120.4823
lg,1625112498700503551,0,0.011,-0.5737,0.7134,375,12.8784,-9.8267,-14.2212,87,1.2946,1.0585,-22.1653,-24.9148,28,0.023,8376,3.9248,-120.6351
lg,1625112498700521088,0,0.1682,-0.4932,0.7312,376,10.1318,-17.0898,-2.8076,87,1.2956,1.0595,-22.3873,-24.9609,28,0.022,8428,3.9248,-120.2897
lg,1625112498700538606,0,0.5674,-0.6587,0.7871,377,-0.3662,-27.4048,5.127,87,1.2956,1.0605,-23.5618,-25.8045,28,0.021,8363,3.9248,-119.3627
lg,1625112498700555754,0,0.7778,-0.6953,0.8757,378,9.4604,18.3105,1.0986,87,1.2956,1.0635,-23.3408,-25.7437,28,0.021,9554,3.9248,-119.4924
lg,1625112498700573625,0,0.4053,-0.7048,0.8799,379,20.2637,72.5098,-11.4746,87,1.2956,1.0645,-20.8019,-24.7749,28,0.021,10003,3.9248,-121.0754
lg,1625112498700590847,0,0.061,-0.6538,0.8491,380,33.4473,81.2378,-12.8174,87,1.2956,1.0655,-17.3911,-23.3489,28,0.019,8514,3.9248,-122.7787
lg,1625112498700607569,0,-0.0503,-0.6948,0.8818,381,39.2456,64.8804,-11.9629,87,1.2966,1.0665,-14.4105,-22.1043,28,0.022,8540,3.9248,-124.0531
lg,1625112498700709550,0,-0.053,-0.7603,0.895,382,52.9785,17.5781,-11.7798,87,1.2976,1.0655,-13.2942,-20.548,28,0.021,8505,3.9248,-124.5773
lg,1625112498700731958,0,0.1448,-0.481,0.7439,383,63.2324,-17.5781,-0.6714,87,1.2966,1.0635,-13.8145,-18.5653,28,0.024,8511,3.9248,-124.2446
lg,1625112498700750143,0,0.5684,-0.3196,0.7893,384,17.7612,-37.2314,10.3149,87,1.2976,1.0655,-15.8612,-18.1983,28,0.019,8534,3.9248,-123.3281
lg,1625112499052160720,0,0.3406,-0.4121,0.7559,385,-24.0479,42.8467,-10.9863,87,1.2966,1.0705,-14.6165,-19.2842,28,0.019,24674,3.9248,-124.2223
lg,1625112499052197220,0,-0.2334,-1.1306,1.3093,386,-1.2207,37.8418,-39.978,87,1.2926,1.0665,-12.9035,-19.6838,28,0.022,9916,3.9248,-126.0821
lg,1625112499052218313,0,-0.3323,-0.6553,1.0024,387,52.4902,-21.4844,-47.7295,87,1.2966,1.0675,-13.2614,-17.7577,28,0.022,8784,3.9248,-127.5171
lg,1625112499052237868,0,0.2578,-0.3069,0.613,388,48.9502,-80.8716,-36.2549,87,1.2966,1.0645,-17.494,-16.0217,28,0.023,11080,3.9248,-127.9107
lg,1625112499052256646,0,0.4338,-0.3706,0.634,389,30.6396,-38.5132,-32.1655,87,1.2966,1.0645,-19.1856,-14.9604,28,0.022,10051,3.9248,-128.6486
lg,1625112499052274498,0,0.0212,-0.3008,0.6589,390,18.3716,13.3667,-18.9819,87,1.2976,1.0645,-18.1865,-14.3293,28,0.024,8111,3.9248,-129.4321
lg,1625112499052292424,0,-0.0261,-0.5237,0.844,391,-4.4556,-13.5498,-1.2207,87,1.2976,1.0645,-17.9842,-15.2474,28,0.024,8110,3.9248,-129.1167
lg,1625112499052310239,0,0.1873,-0.6084,0.8552,392,-5.6152,-36.1938,5.0659,87,1.2976,1.0655,-20.0731,-16.3358,28,0.026,8170,3.9248,-128.1255
lg,1625112499052329202,0,0.657,-0.6455,0.9495,393,-1.709,-40.8936,2.6855,87,1.2976,1.0665,-22.0087,-17.2694,28,0.027,8121,3.9248,-127.2807
lg,1625112499052347294,0,0.6721,-0.7041,0.9426,394,14.3433,15.1367,-6.7749,87,1.2976,1.0665,-21.8545,-17.2248,28,0.027,9196,3.9248,-127.4882
lg,1625112499052364942,0,0.3386,-0.5691,0.8311,395,25.2075,61.6455,-11.9629,87,1.2966,1.0685,-19.5451,-16.4516,28,0.025,9529,3.9248,-128.4898
lg,1625112499052383683,0,0.1455,-0.5566,0.8406,396,26.6724,59.8145,-9.0942,87,1.2966,1.0685,-16.9408,-15.7441,28,0.024,10470,3.9248,-129.3228
lg,1625112499052402109,0,0.1672,-0.564,0.8647,397,30.5786,42.6025,-5.4932,87,1.2966,1.0695,-15.0838,-15.0265,28,0.022,8232,3.9248,-129.8097
lg,1625112499052420294,0,0.1069,-0.6394,0.9084,398,36.1938,37.4146,-6.2866,87,1.2966,1.0705,-13.5131,-13.8525,28,0.02,8234,3.9248,-130.2786
lg,1625112499052439572,0,-0.0627,-0.7188,0.8733,399,61.5845,20.3247,-12.5732,87,1.2986,1.0695,-12.2384,-12.2464,28,0.018,8259,3.9248,-130.7247
lg,1625112499052457424,0,-0.0217,-0.5632,0.8577,400,75.3784,-14.7095,-1.2207,87,1.2986,1.0685,-12.3279,-10.0884,28,0.017,8497,3.9248,-130.469
lg,1625112499052477535,0,0.218,-0.3384,0.7266,401,65.4907,-52.6123,10.3149,87,1.2986,1.0665,-14.4602,-8.2287,28,0.017,8324,3.9248,-129.5832
lg,1625112499052497276,0,0.4399,-0.1743,0.7285,402,48.5229,-64.209,15.1978,87,1.2996,1.0675,-17.5392,-6.7442,28,0.017,8315,3.9248,-128.5697
lg,1625112499052515072,0,0.5894,-0.355,0.8267,403,3.3569,-16.6626,9.8267,87,1.2996,1.0695,-18.7816,-7.3318,28,0.017,12122,3.9248,-127.8974
lg,1625112499052533164,0,0.4236,-0.2786,0.8191,404,-6.2256,-0.6104,1.2817,87,1.2996,1.0715,-18.0473,-8.6432,28,0.018,8413,3.9248,-127.9166
lg,1625112499052551350,0,0.0291,-0.3438,0.7751,405,-29.8462,11.4136,-4.1504,87,1.2986,1.0725,-17.0161,-10.3777,28,0.019,9089,3.9248,-127.9821
lg,1625112499052569479,0,-0.0903,-0.4294,0.9993,406,-53.1006,-28.9307,-3.9673,87,1.2986,1.0725,-17.3451,-13.0376,28,0.019,8591,3.9248,-127.7628
lg,1625112499052594239,0,-0.1687,-1.0642,1.0076,407,5.188,-79.2847,-23.9258,87,1.2986,1.0705,-19.8256,-14.0753,28,0.022,8504,3.9248,-127.57
lg,1625112499052619553,0,-0.0229,-0.5186,0.9819,408,40.3442,-107.7271,-24.1089,87,1.2966,1.0685,-23.4275,-13.0763,28,0.021,10357,3.9248,-127.2806
lg,1625112499052637850,0,0.6597,-0.2458,0.7139,409,32.1045,-126.1597,-7.2632,87,1.2976,1.0655,-29.0741,-12.3965,28,0.021,8536,3.9248,-126.2795
lg,1625112499052656868,0,0.762,-0.2903,0.7361,410,21.6675,-89.6606,-5.9204,87,1.2966,1.0635,-33.1937,-12.1527,28,0.026,8564,3.9248,-125.51
lg,1625112499052674331,0,0.3425,-0.418,0.8386,411,16.2354,-1.1597,-4.2114,87,1.2976,1.0635,-32.7884,-12.0309,28,0.025,8660,3.9248,-125.3484
lg,1625112499052691553,0,0.137,-0.4346,0.854,412,8.606,12.4512,9.5825,87,1.2966,1.0645,-31.3102,-12.5332,28,0.027,8596,3.9248,-124.6644
lg,1625112499052708313,0,0.4866,-0.5515,0.9167,413,6.0425,1.1597,14.4653,87,1.2966,1.0635,-30.9095,-13.3876,28,0.028,8611,3.9248,-123.6192
lg,1625112499052727738,0,0.6133,-0.6023,0.959,414,15.8081,26.4282,5.6763,87,1.2966,1.0655,-29.7815,-13.4817,28,0.037,9135,3.9248,-123.2659
lg,1625112499052746683,0,0.4216,-0.5564,0.9277,415,26.6724,66.04,-4.5166,87,1.2966,1.0665,-26.9698,-12.7186,28,0.036,8667,3.9248,-123.7872
lg,1625112499052768664,0,0.2837,-0.541,0.9124,416,28.5645,78.6743,-7.0801,87,1.2966,1.0675,-23.2699,-11.9799,28,0.022,8699,3.9248,-124.4473
lg,1625112499402553256,0,0.0007,-0.5938,0.9299,417,43.8232,28.1982,-2.1362,87,1.2986,1.0705,-21.346,-10.9692,28,0.02,24734,3.9248,-124.4299
lg,1625112499402599200,0,0.0066,-0.7043,0.9126,418,63.6597,-1.3428,-7.6294,87,1.2996,1.0705,-21.3923,-8.9413,28,0.017,10342,3.9248,-124.2102
lg,1625112499402620515,0,0.1599,-0.5386,0.8569,419,79.5288,-24.4141,-0.3052,87,1.3006,1.0695,-21.937,-6.771,28,0.018,8087,3.9248,-123.721
lg,1625112499402640052,0,0.2942,-0.5288,0.8225,420,75.8057,-32.5317,4.2725,87,1.3006,1.0665,-23.0858,-4.9037,28,0.016,10032,3.9248,-123.0031
lg,1625112499402659459,0,0.3755,-0.4905,0.8345,421,74.4629,-33.2031,6.897,87,1.3016,1.0635,-24.3921,-3.0933,28,0.015,8049,3.9248,-122.2067
lg,1625112499402678219,0,0.3574,-0.448,0.8313,422,72.8149,-24.5972,6.5918,87,1.3026,1.0595,-25.2994,-1.3269,28,0.018,8830,3.9248,-121.458
lg,1625112499402696422,0,0.3079,-0.4329,0.8279,423,70.9229,-21.1182,6.2866,91,1.3026,1.0575,-25.9546,0.3171,28,0.017,7973,3.9204,-120.7115
lg,1625112499402715978,0,0.21,-0.4038,0.8201,424,63.2935,-20.9961,10.0708,91,1.3026,1.0535,-26.3869,1.5445,28,0.02,10093,3.9204,-119.7859
lg,1625112499402733515,0,0.2083,-0.3596,0.8269,425,51.7578,-33.3862,14.0381,91,1.3036,1.0525,-27.2985,2.2939,28,0.02,8063,3.9204,-118.7322
lg,1625112499402750867,0,0.2654,-0.3394,0.8333,426,39.978,-44.4336,18.9209,91,1.3046,1.0515,-28.7544,2.5018,28,0.028,8075,3.9204,-117.4854
lg,1625112499402769311,0,0.2771,-0.345,0.874,427,34.9731,-49.1943,19.043,91,1.3036,1.0525,-30.345,2.4933,28,0.025,8121,3.9204,-116.2138
lg,1625112499402787478,0,0.3186,-0.3442,0.8933,428,27.0386,-52.8564,18.2495,91,1.3046,1.0535,-32.0908,2.1743,28,0.024,8163,3.9204,-114.9486
lg,1625112499402805144,0,0.2671,-0.3618,0.8889,429,21.9116,-56.0303,14.0991,91,1.3046,1.0555,-33.7874,1.6592,28,0.027,8923,3.9204,-113.7931
lg,1625112499402823330,0,0.2708,-0.3757,0.9124,430,20.874,-63.6597,10.9253,91,1.3036,1.0565,-35.7094,1.1468,28,0.027,8398,3.9204,-112.7303
lg,1625112499402841441,0,0.3027,-0.4324,0.9558,431,21.1182,-71.9604,8.0566,91,1.3046,1.0605,-37.9288,0.608,28,0.031,9788,3.9204,-111.6941
lg,1625112499402860533,0,0.3462,-0.4641,0.9734,432,26.3062,-75.5005,2.8076,91,1.3036,1.0625,-40.2777,0.3595,28,0.032,9967,3.9204,-110.8222
lg,1625112499402878274,0,0.3633,-0.4402,1.0002,433,30.0903,-75.3174,-0.4272,91,1.3036,1.0645,-42.5396,0.4158,28,0.032,8211,3.9204,-110.1046
lg,1625112499402895700,0,0.3669,-0.4863,0.9897,434,39.0625,-73.1812,-7.2021,91,1.3026,1.0655,-44.6652,0.9426,28,0.031,8255,3.9204,-109.6361
lg,1625112499402913644,0,0.3906,-0.4377,0.9661,435,52.3071,-73.3032,-15.3809,91,1.3036,1.0665,-46.762,2.4266,28,0.035,8280,3.9204,-109.7002
lg,1625112499402931978,0,0.436,-0.4109,0.9434,436,56.3965,-71.5332,-19.2871,91,1.3026,1.0665,-48.7461,4.6882,28,0.032,8332,3.9204,-110.3885
lg,1625112499402950274,0,0.499,-0.3826,0.9075,437,61.6455,-62.5,-29.0527,91,1.3016,1.0655,-50.4246,7.3412,28,0.035,8362,3.9204,-111.4599
lg,1625112499402969033,0,0.5125,-0.3735,0.9031,438,66.1621,-44.3726,-40.2222,91,1.3006,1.0645,-51.2522,10.657,28,0.033,8370,3.9204,-113.1613
lg,1625112499402988181,0,0.4836,-0.3367,0.8708,439,72.2656,-25.7568,-51.5137,91,1.2996,1.0635,-51.1375,14.5874,28,0.033,8418,3.9204,-115.3665
lg,1625112499403008052,0,0.4253,-0.3091,0.8645,440,74.4629,-18.1885,-58.5327,91,1.2976,1.0615,-50.1256,19.0403,28,0.03,8488,3.9204,-118.0865
lg,1625112499403027107,0,0.3252,-0.2139,0.8181,441,75.3174,-10.376,-69.6411,91,1.2986,1.0605,-48.7023,23.3983,28,0.03,8416,3.9204,-120.866
lg,1625112499403044663,0,0.2422,-0.2,0.8127,442,71.4722,-15.4419,-80.5054,91,1.2966,1.0605,-47.015,27.744,28,0.027,8490,3.9204,-124.057
lg,1625112499403062570,0,0.1829,-0.1587,0.8105,443,67.5659,-28.4424,-90.1489,91,1.2956,1.0595,-45.3042,32.2354,28,0.031,8472,3.9204,-127.8599
lg,1625112499403080496,0,0.1777,-0.1318,0.8088,444,65.918,-38.6963,-93.5669,91,1.2936,1.0585,-43.9785,36.9459,28,0.027,8549,3.9204,-132.4453
lg,1625112499403098089,0,0.2307,-0.1155,0.8171,445,58.6548,-59.6924,-99.6094,91,1.2936,1.0575,-42.7069,41.4718,28,0.028,8562,3.9204,-137.2482
lg,1625112499403115589,0,0.2886,-0.134,0.8496,446,56.5186,-71.8384,-104.5532,91,1.2916,1.0565,-41.5238,45.9984,28,0.028,8614,3.9204,-142.4512
lg,1625112499403133385,0,0.2642,-0.1118,0.8833,447,53.5278,-80.3833,-108.7646,91,1.2916,1.0565,-40.075,50.3867,28,0.027,8597,3.9204,-147.8902
lg,1625112499403151274,0,0.2524,-0.115,0.8689,448,53.0396,-93.689,-109.1919,91,1.2916,1.0565,-38.6522,54.7194,28,0.028,8728,3.9204,-153.6073
lg,1625112499763321525,0,0.489,-0.0774,0.8684,449,49.8657,-136.3525,-106.9946,91,1.2906,1.0555,-38.3515,60.1707,28,0.028,24511,3.9204,-161.2505
lg,1625112499763363395,0,0.5798,-0.0637,0.8364,450,50.8423,-137.0239,-104.8584,91,1.2896,1.0545,-37.6683,65.389,28,0.029,11596,3.9204,-168.561
lg,1625112499763383969,0,0.5974,-0.0339,0.8242,451,47.8516,-125.4883,-101.1963,91,1.2896,1.0545,-36.4887,69.8568,28,0.028,8172,3.9204,-175.0203
lg,1625112499763403340,0,0.5835,-0.0266,0.8174,452,46.875,-119.751,-98.6938,91,1.2886,1.0545,-35.0507,73.6623,28,0.028,8026,3.9204,-180.6912
lg,1625112499763422710,0,0.5654,-0.0066,0.7949,453,47.3022,-115.6006,-92.3462,91,1.2876,1.0545,-33.4508,77.0943,28,0.029,8160,3.9204,-186.003
lg,1625112499763441006,0,0.6025,0.0208,0.7832,454,44.7998,-114.8071,-85.6323,91,1.2866,1.0535,-31.923,80.1481,28,0.029,8116,3.9204,168.9795
lg,1625112499763459803,0,0.6477,0.0286,0.7627,455,42.0532,-116.0889,-78.125,91,1.2866,1.0535,-30.5849,82.9264,28,0.029,8813,3.9204,164.1077
lg,1625112499763478081,0,0.6831,0.0388,0.7896,456,42.3584,-117.4316,-76.0498,91,1.2856,1.0535,-29.2122,85.5852,28,0.029,8957,3.9204,159.3451
lg,1625112499763495729,0,0.6907,0.0242,0.7915,457,44.9219,-118.8354,-74.2798,91,1.2856,1.0525,-27.7335,88.1162,28,0.031,8048,3.9204,154.6979
lg,1625112499763512655,0,0.7078,0.0427,0.7708,458,46.875,-124.2065,-74.3408,91,1.2846,1.0535,-26.1159,90.668,28,0.03,8038,3.9204,149.9528
lg,1625112499763529155,0,0.7527,0.0837,0.7368,459,49.6216,-130.249,-71.5332,91,1.2846,1.0525,-24.4691,93.3209,28,0.03,8060,3.9204,145.0653
lg,1625112499763545877,0,0.7896,0.116,0.7168,460,49.5605,-132.9346,-69.7021,91,1.2836,1.0525,-22.7327,95.86,28,0.031,8083,3.9204,140.2057
lg,1625112499763562062,0,0.8777,0.1448,0.6965,461,45.8374,-127.9297,-67.8711,91,1.2836,1.0515,-20.998,98.0724,28,0.03,8100,3.9204,135.6716
lg,1625112499763578432,0,0.9099,0.1443,0.6687,462,41.8701,-114.0747,-64.0259,91,1.2826,1.0515,-19.4279,99.8119,28,0.03,8116,3.9204,131.8086
lg,1625112499763594636,0,0.9055,0.1404,0.6714,463,40.4663,-104.6143,-61.8896,91,1.2826,1.0515,-17.931,101.2213,28,0.031,8173,3.9204,128.4241
lg,1625112499763614136,0,0.8823,0.1274,0.6606,464,37.4146,-90.5762,-57.1899,91,1.2806,1.0515,-16.6847,102.2321,28,0.031,8136,3.9204,125.6443
lg,1625112499763632414,0,0.8179,0.1514,0.665,465,36.3159,-78.6133,-53.7109,91,1.2806,1.0515,-15.579,102.9158,28,0.031,8191,3.9204,123.3803
lg,1625112499763650451,0,0.7502,0.178,0.6558,466,35.0342,-76.7822,-52.3682,91,1.2796,1.0505,-14.4521,103.407,28,0.032,8191,3.9204,121.2129
lg,1625112499763667136,0,0.5703,0.249,0.7627,467,29.6021,-81.8481,-51.7578,91,1.2796,1.0505,-12.9205,103.3409,28,0.03,8247,3.9204,118.9201
lg,1625112499763684062,0,0.3655,0.2056,0.9001,468,17.395,-94.7876,-47.4854,91,1.2796,1.0505,-11.0364,102.5609,28,0.027,9385,3.9204,116.0828
lg,1625112499763701266,0,0.647,0.147,0.9307,469,13.855,-130.9814,-39.856,91,1.2806,1.0495,-9.7362,102.2253,28,0.029,13275,3.9204,111.4469
lg,1625112499763718488,0,0.7451,0.2139,0.8662,470,17.334,-134.3384,-36.6211,91,1.2806,1.0495,-8.601,101.9422,28,0.028,8824,3.9204,106.7559
lg,1625112499763750710,0,0.9575,0.231,0.6897,471,13.3667,-131.0425,-34.3628,91,1.2806,1.0495,-7.9381,101.7942,28,0.029,8269,3.9204,102.085
lg,1625112499763769728,0,1.2024,0.2395,0.5703,472,7.019,-112.915,-34.9731,91,1.2796,1.0485,-7.6232,101.6038,28,0.03,8353,3.9204,98.0701
lg,1625112499763787914,0,1.291,0.2102,0.5364,473,2.8076,-94.7266,-38.147,91,1.2796,1.0485,-7.3466,100.9338,28,0.032,8372,3.9204,95.7718
lg,1625112499763805766,0,1.2207,0.1487,0.5488,474,-4.2114,-41.8701,-46.6919,91,1.2796,1.0485,-7.2447,99.9592,28,0.033,8379,3.9204,94.6087
lg,1625112499763898191,0,1.04,0.123,0.5723,475,-1.2817,-4.8828,-47.8516,91,1.2776,1.0495,-7.2917,98.7595,28,0.033,8996,3.9204,94.9048
lg,1625112499763930488,0,0.9043,0.105,0.5598,476,2.8687,14.7705,-43.6401,91,1.2786,1.0485,-7.5608,97.5326,28,0.031,8603,3.9204,95.9331
lg,1625112499763949932,0,0.8279,0.0811,0.575,477,6.1646,19.7144,-41.0156,91,1.2776,1.0475,-7.9762,96.4481,28,0.03,8436,3.9204,97.1905
lg,1625112499763968728,0,0.8059,0.0942,0.5979,478,14.4043,21.5454,-36.8042,91,1.2786,1.0485,-8.401,95.4905,28,0.031,8424,3.9204,98.4298
lg,1625112499763989636,0,0.7659,0.104,0.5991,479,24.1089,16.9067,-34.9121,91,1.2786,1.0475,-8.8236,94.8987,28,0.032,8478,3.9204,99.4684
lg,1625112499764007876,0,0.7456,0.1484,0.592,480,34.1797,7.3853,-35.8276,91,1.2786,1.0485,-9.13,94.752,28,0.032,8495,3.9204,100.1239
lg,1625112500128356871,0,0.7087,0.23,0.5593,481,49.9268,-23.6206,-37.2925,91,1.2806,1.0485,-9.2037,95.4451,28,0.031,24573,3.9204,99.5343
lg,1625112500128402260,0,0.8008,0.261,0.5632,482,56.1523,-44.6777,-33.02,91,1.2806,1.0485,-9.4047,96.6222,28,0.029,12514,3.9204,98.0823
lg,1625112500128423167,0,0.8259,0.3193,0.5273,483,57.8613,-44.7388,-31.3721,91,1.2806,1.0485,-9.6419,97.947,28,0.03,10191,3.9204,96.6417
lg,1625112500128443056,0,0.8362,0.3535,0.5283,484,56.1523,-42.1753,-30.2734,91,1.2806,1.0485,-9.9625,99.0694,28,0.031,7922,3.9204,95.4138
lg,1625112500128462686,0,0.8567,0.3516,0.5332,485,48.0957,-37.9028,-26.6113,91,1.2806,1.0485,-10.3653,99.963,28,0.032,8203,3.9204,94.2903
lg,1625112500128481723,0,0.9194,0.3735,0.509,486,40.6494,-30.3955,-23.5596,91,1.2806,1.0485,-10.9667,100.5992,28,0.033,9572,3.9204,93.4577
lg,1625112500128500519,0,0.9517,0.3857,0.5007,487,33.0811,-18.1274,-22.3999,91,1.2816,1.0485,-11.7067,100.8783,28,0.033,9111,3.9204,93.1264
lg,1625112500128518871,0,0.9895,0.3484,0.5554,488,24.6582,-4.6387,-21.1792,91,1.2796,1.0475,-12.6075,100.6604,28,0.033,8541,3.9204,93.3599
lg,1625112500128536741,0,0.9807,0.3289,0.5447,489,23.1934,4.0894,-22.1558,91,1.2806,1.0475,-13.538,100.31,28,0.034,8061,3.9204,93.9677
lg,1625112500128555667,0,0.9265,0.3396,0.5552,490,20.752,19.7144,-24.231,91,1.2806,1.0475,-14.4254,99.6324,28,0.034,8035,3.9204,95.2576
lg,1625112500128574889,0,0.8887,0.3206,0.5591,491,18.1885,30.3955,-25.6958,91,1.2816,1.0485,-15.2798,98.6834,28,0.033,10679,3.9204,97.0183
lg,1625112500128592852,0,0.8376,0.3269,0.533,492,18.3105,36.9263,-26.3062,91,1.2806,1.0485,-16.0742,97.6419,28,0.033,8181,3.9204,99.0632
lg,1625112500128611297,0,0.8167,0.3218,0.5364,493,18.0664,40.1001,-27.3438,91,1.2816,1.0485,-16.7699,96.5028,28,0.034,8218,3.9204,101.3678
lg,1625112500128629945,0,0.8147,0.3152,0.5356,494,18.8599,44.7998,-28.1982,91,1.2816,1.0485,-17.4093,95.3341,28,0.034,8437,3.9204,103.765
lg,1625112500128648852,0,0.7812,0.3027,0.5146,495,20.752,52.002,-30.2124,91,1.2816,1.0485,-17.9319,94.1395,28,0.033,9510,3.9204,106.4686
lg,1625112500128666741,0,0.7173,0.343,0.5286,496,22.2168,56.6406,-33.5693,91,1.2816,1.0485,-18.1408,92.86,28,0.033,9228,3.9204,109.3901
lg,1625112500128684482,0,0.667,0.3455,0.5251,497,23.6816,55.2368,-32.5928,91,1.2796,1.0485,-18.2601,91.6259,28,0.032,8471,3.9204,112.2388
lg,1625112500128701926,0,0.6499,0.3767,0.519,498,22.7661,52.7954,-31.4331,91,1.2796,1.0485,-18.304,90.419,28,0.033,8505,3.9204,114.9507
lg,1625112500128718945,0,0.6191,0.3811,0.5476,499,21.8506,50.415,-31.1279,91,1.2806,1.0485,-18.2319,89.1572,28,0.033,8385,3.9204,117.5533
lg,1625112500128736945,0,0.5857,0.365,0.5857,500,19.4702,38.8794,-30.1514,91,1.2796,1.0485,-18.0955,87.8794,28,0.033,8335,3.9204,119.665
lg,1625112500128787371,0,0.6772,0.353,0.644,501,20.752,27.1606,-26.9775,91,1.2806,1.0475,-18.1691,86.8417,28,0.033,8443,3.9204,121.2493
lg,1625112500128810259,0,0.7732,0.3647,0.6479,502,23.7427,25.5127,-26.6724,91,1.2806,1.0485,-18.2981,86.172,28,0.033,8488,3.9204,122.7794
lg,1625112500128828500,0,0.8008,0.384,0.6318,503,30.0293,29.6021,-28.1982,91,1.2806,1.0485,-18.4033,85.6596,28,0.033,8458,3.9204,124.3781
lg,1625112500128847315,0,0.7666,0.4436,0.5725,504,30.0903,36.7432,-33.6304,91,1.2826,1.0495,-18.1913,85.1746,28,0.033,8464,3.9204,126.2147
lg,1625112500128865759,0,0.7412,0.4709,0.5715,505,23.8037,40.3442,-37.5977,91,1.2816,1.0485,-17.7335,84.4206,28,0.034,10254,3.9204,128.163
lg,1625112500128883408,0,0.7637,0.4604,0.6047,506,18.7378,44.3726,-39.917,91,1.2816,1.0485,-17.1694,83.4148,28,0.034,8474,3.9204,130.2392
lg,1625112500128900741,0,0.7876,0.4624,0.626,507,16.4185,50.6592,-42.7246,91,1.2816,1.0485,-16.4547,82.2869,28,0.034,8567,3.9204,132.5074
lg,1625112500128918426,0,0.8003,0.4485,0.6282,508,15.8081,55.481,-44.5557,91,1.2826,1.0485,-15.5811,81.0816,28,0.035,8724,3.9204,135.0972
lg,1625112500128936130,0,0.7991,0.4553,0.6423,509,14.1602,65.0024,-48.584,91,1.2826,1.0495,-14.5072,79.8413,28,0.034,8592,3.9204,137.7687
lg,1625112500128954463,0,0.752,0.4182,0.6594,510,10.8643,74.1577,-53.3447,91,1.2826,1.0495,-13.1155,78.3959,28,0.035,8585,3.9204,140.6991
lg,1625112500128972648,0,0.7283,0.2827,0.7246,511,9.8267,78.6743,-56.9458,91,1.2816,1.0495,-11.538,76.7795,28,0.038,8588,3.9204,143.7046
lg,1625112500128991889,0,0.7847,0.0996,0.7849,512,10.0098,77.2705,-58.1665,91,1.2816,1.0485,-9.9453,75.2139,28,0.038,8660,3.9204,146.2827
lg,1625112500491031135,0,0.552,0.5042,0.5645,513,63.5986,100.4639,-46.936,91,1.2836,1.0505,-8.2101,76.1681,28,0.038,24747,3.9204,149.9388
lg,1625112500491079024,0,0.4636,0.7544,0.4131,514,58.3496,115.4175,-34.2407,91,1.2826,1.0505,-6.6347,77.4226,28,0.037,10752,3.9204,154.2315
lg,1625112500491109005,0,0.3706,0.7673,0.426,515,22.9492,93.2007,-37.0483,91,1.2836,1.0505,-5.0397,77.3883,28,0.036,9948,3.9204,157.6436
lg,1625112500491163931,0,0.4346,0.5186,0.6558,516,0,69.397,-36.2549,91,1.2836,1.0505,-3.9079,75.9127,28,0.036,7938,3.9204,160.1516
lg,1625112500491193635,0,0.4731,0.4438,0.7717,517,8.8501,50.0488,-37.7197,91,1.2846,1.0515,-2.9201,74.7141,28,0.034,7881,3.9204,161.8279
lg,1625112500491221820,0,0.4792,0.4849,0.7461,518,16.7236,43.5791,-37.4756,91,1.2846,1.0505,-2.0161,73.9823,28,0.036,7966,3.9204,163.1879
lg,1625112500491249357,0,0.502,0.5259,0.699,519,22.3999,33.8135,-37.5366,91,1.2846,1.0515,-1.2804,73.6519,28,0.035,8038,3.9204,164.1236
lg,1625112500491276450,0,0.5249,0.5383,0.7085,520,20.1416,30.6396,-36.5601,91,1.2846,1.0515,-0.6572,73.2681,28,0.035,9755,3.9204,164.9218
lg,1625112500491302376,0,0.4836,0.5686,0.7063,521,21.9116,33.1421,-35.7666,91,1.2836,1.0505,0.0375,72.9917,28,0.035,8591,3.9204,165.8001
lg,1625112500491328616,0,0.4285,0.6384,0.6812,522,26.001,32.959,-32.0435,91,1.2836,1.0515,0.6914,72.9945,28,0.035,10893,3.9204,166.6935
lg,1625112500491354450,0,0.4412,0.6428,0.6865,523,24.4141,30.7617,-31.1279,91,1.2836,1.0505,1.2087,72.8918,28,0.034,8056,3.9204,167.5007
lg,1625112500491380005,0,0.4639,0.5889,0.7139,524,22.4609,27.2827,-31.4941,91,1.2866,1.0515,1.6734,72.6746,28,0.034,8104,3.9204,168.1568
lg,1625112500491404987,0,0.426,0.6072,0.709,525,26.2451,26.001,-32.4707,91,1.2846,1.0515,2.2217,72.6311,28,0.034,8200,3.9204,168.7386
lg,1625112500491589301,0,0.4045,0.625,0.7136,526,26.9165,24.8413,-32.2266,91,1.2846,1.0515,2.6673,72.5922,28,0.034,8111,3.9204,169.2571
lg,1625112500491626135,0,0.4302,0.6252,0.6965,527,23.0713,23.8037,-29.541,91,1.2856,1.0525,3.0428,72.4732,28,0.034,8155,3.9204,169.7703
lg,1625112500491667246,0,0.4238,0.614,0.6917,528,16.7847,26.7334,-26.062,91,1.2856,1.0525,3.3148,72.108,28,0.033,8187,3.9204,170.4265
lg,1625112500491700912,0,0.3569,0.6113,0.7046,529,12.5732,28.6255,-27.4048,91,1.2856,1.0525,3.77,71.3956,28,0.035,8244,3.9204,171.0531
lg,1625112500491729005,0,0.3369,0.6089,0.7034,530,5.4932,24.7803,-26.062,91,1.2866,1.0535,4.1792,70.5568,28,0.034,8238,3.9204,-188.4073
lg,1625112500491822320,0,0.3101,0.5603,0.7373,531,1.8921,13.6719,-26.1841,91,1.2856,1.0535,4.495,69.4452,28,0.034,8258,3.9204,-188.3243
lg,1625112500491854949,0,0.3037,0.5715,0.7485,532,3.2959,1.8311,-27.4048,91,1.2856,1.0535,4.7025,68.3863,28,0.035,8250,3.9204,171.2706
lg,1625112500491884968,0,0.3025,0.5581,0.7478,533,4.2114,-4.0894,-28.3813,91,1.2866,1.0535,4.8416,67.3562,28,0.034,8266,3.9204,170.6081
lg,1625112500491912653,0,0.3215,0.5671,0.7522,534,4.9438,-13.7939,-28.3203,91,1.2866,1.0535,4.7785,66.3717,28,0.035,8337,3.9204,169.5717
lg,1625112500491938727,0,0.3884,0.5642,0.7515,535,7.019,-21.0571,-28.8086,91,1.2866,1.0535,4.471,65.5033,28,0.035,8379,3.9204,168.254
lg,1625112500491967949,0,0.4314,0.5801,0.7463,536,8.4839,-22.1558,-28.6865,84,1.2866,1.0545,4.0886,64.8541,28,0.035,8334,3.9281,166.8962
lg,1625112500492048449,0,0.4485,0.6035,0.7256,537,12.146,-19.6533,-29.6631,84,1.2876,1.0545,3.7187,64.3708,28,0.034,11705,3.9281,165.6213
lg,1625112500492077542,0,0.4741,0.5928,0.6941,538,11.8408,-17.395,-29.2358,84,1.2876,1.0545,3.3517,63.9508,28,0.035,8465,3.9281,164.5111
lg,1625112500492104912,0,0.4509,0.6182,0.6924,539,11.9019,-13.1836,-30.3955,84,1.2876,1.0555,3.1072,63.5835,28,0.035,8498,3.9281,163.4624
lg,1625112500492131171,0,0.4597,0.6082,0.7043,540,10.3149,-9.0332,-31.0669,84,1.2886,1.0555,2.9484,63.1469,28,0.035,8694,3.9281,162.5478
lg,1625112500492157301,0,0.4365,0.5759,0.7107,541,10.3149,-5.4321,-32.4097,84,1.2886,1.0555,2.9291,62.6676,28,0.036,8671,3.9281,161.7299
lg,1625112500492182986,0,0.4307,0.5732,0.7021,542,11.9019,-5.6763,-32.7148,84,1.2876,1.0555,2.9143,62.2729,28,0.037,11039,3.9281,160.8901
lg,1625112500492208486,0,0.407,0.5842,0.7085,543,15.3198,-7.2632,-32.4707,84,1.2876,1.0555,2.91,62.0243,28,0.038,9062,3.9281,159.9919
lg,1625112500492233782,0,0.4126,0.5947,0.6738,544,18.6157,-8.1787,-32.2876,84,1.2866,1.0545,2.8524,61.9839,28,0.037,8606,3.9281,159.0644
lg,1625112500838623445,0,0.4055,0.5859,0.6753,545,25.5127,-10.376,-31.5552,84,1.2886,1.0555,2.7409,62.2006,28,0.036,25020,3.9281,158.0718
lg,1625112500838680056,0,0.4397,0.585,0.6892,546,29.48,-11.1084,-31.6772,84,1.2886,1.0555,2.5751,62.5583,28,0.035,9236,3.9281,157.055
lg,1625112500838701056,0,0.4548,0.5981,0.6907,547,38.269,-10.8643,-33.6914,84,1.2886,1.0555,2.4809,63.2785,28,0.035,13170,3.9281,156.0184
lg,1625112500838719816,0,0.4558,0.5952,0.6855,548,41.687,-9.1553,-33.8745,84,1.2886,1.0565,2.4278,64.1404,28,0.034,8012,3.9281,155.0541
lg,1625112500838738741,0,0.4578,0.593,0.6851,549,46.9971,-6.897,-34.9121,84,1.2886,1.0565,2.4687,65.1671,28,0.035,8775,3.9281,154.1685
lg,1625112500838757038,0,0.4458,0.6165,0.6711,550,52.4902,-1.8921,-35.6445,84,1.2886,1.0565,2.658,66.4364,28,0.035,8024,3.9281,153.4751
lg,1625112500838775908,0,0.4456,0.6287,0.6497,551,53.9551,0.3662,-35.6445,84,1.2886,1.0565,2.9149,67.8506,28,0.034,8065,3.9281,152.9822
lg,1625112500838794371,0,0.4268,0.635,0.6379,552,58.1055,5.3101,-36.0718,84,1.2876,1.0555,3.2834,69.3818,28,0.034,9809,3.9281,152.6766
lg,1625112500838812260,0,0.4219,0.6514,0.6238,553,61.0962,8.606,-35.2173,84,1.2876,1.0555,3.6529,70.9895,28,0.033,8069,3.9281,152.4682
lg,1625112500838829667,0,0.3972,0.6655,0.6335,554,64.8193,9.6436,-34.5459,84,1.2866,1.0555,4.0622,72.6915,28,0.034,8108,3.9281,152.3401
lg,1625112500838846853,0,0.3801,0.6902,0.6077,555,66.8335,9.2163,-33.5693,84,1.2876,1.0555,4.4306,74.5226,28,0.033,8212,3.9281,152.2575
lg,1625112500838864130,0,0.3916,0.6931,0.6072,556,68.6035,9.0332,-31.25,84,1.2876,1.0545,4.6967,76.3411,28,0.033,8156,3.9281,152.2123
lg,1625112500838881204,0,0.3694,0.7131,0.6189,557,68.4814,8.3618,-29.2358,84,1.2866,1.0555,4.9289,78.0944,28,0.034,8146,3.9281,152.1908
lg,1625112500838898315,0,0.3833,0.7214,0.6123,558,68.4814,7.8735,-27.0386,84,1.2886,1.0565,5.0383,79.8185,28,0.033,8225,3.9281,152.1968
lg,1625112500838915427,0,0.3879,0.7441,0.6001,559,68.2373,7.9346,-23.0103,84,1.2886,1.0565,4.9813,81.529,28,0.034,12497,3.9281,152.2619
lg,1625112500838932464,0,0.3838,0.7583,0.6067,560,68.5425,7.5684,-18.7988,84,1.2886,1.0555,4.773,83.2026,28,0.034,8268,3.9281,152.3598
lg,1625112500838964649,0,0.3689,0.7854,0.5791,561,66.2842,7.0801,-14.9536,84,1.2886,1.0555,4.4402,84.7998,28,0.034,8259,3.9281,152.4821
lg,1625112500838984241,0,0.3774,0.801,0.5708,562,64.8804,6.897,-12.5732,84,1.2896,1.0555,4.0066,86.3216,28,0.033,8289,3.9281,152.6265
lg,1625112500839001352,0,0.3618,0.7886,0.5598,563,59.9976,6.2256,-8.4839,84,1.2886,1.0555,3.4358,87.5983,28,0.034,8272,3.9281,152.7719
lg,1625112500839019167,0,0.3674,0.8008,0.562,564,54.2603,4.9438,-3.8452,84,1.2876,1.0565,2.6893,88.6115,28,0.034,9090,3.9281,152.8901
lg,1625112500839036575,0,0.3577,0.8098,0.5586,565,49.4385,3.2349,-0.3052,84,1.2876,1.0555,1.843,89.4058,28,0.034,8636,3.9281,152.9604
lg,1625112500839054001,0,0.3489,0.8049,0.5576,566,47.3633,2.7466,1.5869,84,1.2876,1.0545,0.9673,90.0839,28,0.034,8330,3.9281,153.0289
lg,1625112500839072315,0,0.3682,0.8386,0.5745,567,41.9312,1.5869,5.5542,84,1.2886,1.0545,-0.0594,90.5334,28,0.034,8327,3.9281,153.0692
lg,1625112500839090686,0,0.3455,0.8408,0.5667,568,36.1328,1.4038,8.667,84,1.2886,1.0555,-1.138,90.7411,28,0.035,8409,3.9281,153.1228
lg,1625112500839109334,0,0.3401,0.8171,0.5598,569,33.3862,0.8545,10.3149,84,1.2876,1.0545,-2.3041,90.7278,28,0.035,8394,3.9281,153.1403
lg,1625112500839127260,0,0.3499,0.8315,0.551,570,28.5645,-0.9766,12.8174,84,1.2886,1.0555,-3.4956,90.6457,28,0.035,8544,3.9281,153.1456
lg,1625112500839145871,0,0.3572,0.8057,0.552,571,23.0103,-1.9531,14.8926,84,1.2876,1.0555,-4.7614,90.3247,28,0.035,8473,3.9281,153.1407
lg,1625112500839163575,0,0.356,0.821,0.5591,572,18.6157,-2.6855,16.6626,84,1.2876,1.0545,-6.0431,89.8414,28,0.035,8519,3.9281,153.1373
lg,1625112500839181630,0,0.3455,0.8098,0.541,573,16.2964,-2.8076,17.2119,84,1.2876,1.0555,-7.3236,89.214,28,0.036,8541,3.9281,153.2
lg,1625112500839199556,0,0.3391,0.7969,0.5654,574,12.6343,-2.0142,17.7002,84,1.2886,1.0555,-8.5433,88.48,28,0.036,8550,3.9281,153.2954
lg,1625112500839218334,0,0.3457,0.7964,0.5601,575,9.9487,-2.3193,18.4937,84,1.2886,1.0545,-9.7687,87.6698,28,0.036,8588,3.9281,153.4108
lg,1625112500839260426,0,0.3269,0.7908,0.5593,576,9.0942,-2.5024,19.4092,84,1.2886,1.0555,-10.9538,86.8363,28,0.036,8650,3.9281,153.5544
lg,1625112501207972102,0,0.3455,0.7888,0.5408,577,9.7046,-5.127,20.813,84,1.2896,1.0565,-12.2028,86.1052,27,0.036,24756,3.9281,153.6182
lg,1625112501208012769,0,0.3286,0.7688,0.5269,578,10.9253,-6.1646,21.6675,84,1.2896,1.0565,-13.4277,85.4497,27,0.037,15140,3.9281,153.6719
lg,1625112501208033491,0,0.3357,0.7756,0.533,579,12.146,-7.1411,22.0947,84,1.2886,1.0565,-14.638,84.8693,27,0.036,7956,3.9281,153.7155
lg,1625112501208052824,0,0.3423,0.7744,0.5308,580,12.9395,-8.2397,22.3389,84,1.2896,1.0565,-15.8346,84.3531,27,0.036,9652,3.9281,153.7403
lg,1625112501208071417,0,0.3413,0.7678,0.5339,581,14.7705,-10.1318,22.522,84,1.2896,1.0565,-17.0061,83.9334,27,0.036,8174,3.9281,153.7159
lg,1625112501208090398,0,0.3489,0.7834,0.5366,582,16.5405,-10.498,22.0337,84,1.2896,1.0565,-18.1214,83.6166,27,0.037,8015,3.9281,153.6932
lg,1625112501208109398,0,0.3533,0.7795,0.5312,583,17.6392,-11.4136,22.0947,84,1.2896,1.0565,-19.2167,83.3728,27,0.036,8154,3.9281,153.6512
lg,1625112501208128231,0,0.3547,0.7729,0.5457,584,20.2637,-12.7563,22.0947,84,1.2896,1.0565,-20.2854,83.2281,27,0.037,8216,3.9281,153.5828
lg,1625112501208146065,0,0.3596,0.7859,0.5466,585,20.874,-13.1836,21.6675,84,1.2896,1.0565,-21.3003,83.1341,27,0.038,8100,3.9281,153.5085
lg,1625112501208163324,0,0.3716,0.7803,0.5388,586,23.1934,-12.9395,20.5078,84,1.2886,1.0565,-22.2898,83.1731,27,0.037,10418,3.9281,153.4462
lg,1625112501208181620,0,0.3818,0.7866,0.5159,587,23.6206,-11.9629,20.752,84,1.2896,1.0565,-23.2398,83.2409,28,0.037,8066,3.9281,153.4281
lg,1625112501208199435,0,0.3882,0.7791,0.5259,588,23.7427,-10.1929,19.8364,84,1.2886,1.0565,-24.1296,83.2575,28,0.037,8103,3.9281,153.5084
lg,1625112501208216954,0,0.4065,0.8013,0.5151,589,23.4375,-9.7046,19.4702,84,1.2886,1.0565,-24.9823,83.2784,28,0.037,8109,3.9281,153.6086
lg,1625112501208235972,0,0.394,0.7893,0.53,590,23.0713,-8.667,18.9819,84,1.2886,1.0555,-25.7704,83.2416,28,0.037,8122,3.9281,153.781
lg,1625112501208282268,0,0.4099,0.8098,0.5283,591,22.7051,-7.9346,17.5171,84,1.2886,1.0555,-26.4811,83.2085,28,0.037,8195,3.9281,153.9795
lg,1625112501208303120,0,0.4011,0.793,0.5305,592,22.4609,-7.8125,17.0288,84,1.2876,1.0555,-27.1289,83.1021,28,0.037,8177,3.9281,154.2339
lg,1625112501208320472,0,0.4102,0.7942,0.5261,593,20.9961,-6.1035,16.0522,84,1.2886,1.0555,-27.7384,82.9526,28,0.037,8244,3.9281,154.5376
lg,1625112501208336935,0,0.4014,0.792,0.5112,594,20.4468,-4.6997,15.0146,84,1.2886,1.0555,-28.2633,82.779,28,0.037,8244,3.9281,154.8988
lg,1625112501208353454,0,0.3904,0.7769,0.5137,595,19.4702,-3.6621,14.2212,84,1.2886,1.0575,-28.7237,82.5223,28,0.036,9002,3.9281,155.3242
lg,1625112501208370268,0,0.4031,0.8013,0.5247,596,18.4937,-3.8452,13.4888,84,1.2886,1.0565,-29.1387,82.2464,28,0.036,9391,3.9281,155.7403
lg,1625112501208387139,0,0.3918,0.7981,0.5242,597,18.1274,-3.9673,12.4512,84,1.2886,1.0555,-29.4774,81.961,28,0.036,8337,3.9281,156.1538
lg,1625112501208404824,0,0.3962,0.7861,0.5227,598,16.7236,-3.6011,11.7798,84,1.2896,1.0565,-29.7935,81.6112,28,0.036,8331,3.9281,156.5887
lg,1625112501208422898,0,0.396,0.7922,0.5283,599,15.0146,-2.8687,10.5591,84,1.2886,1.0565,-30.0365,81.185,28,0.036,8343,3.9281,157.0543
lg,1625112501208445361,0,0.4011,0.8015,0.5166,600,14.4653,-3.6011,10.1929,84,1.2896,1.0565,-30.2424,80.805,28,0.036,8393,3.9281,157.4686
lg,1625112501208465639,0,0.3997,0.8049,0.5256,601,14.1602,-2.9297,8.8501,84,1.2896,1.0575,-30.3922,80.3976,28,0.036,8473,3.9281,157.9084
lg,1625112501208485157,0,0.395,0.8181,0.53,602,12.5732,-1.3428,8.2397,84,1.2896,1.0565,-30.4775,79.9101,28,0.036,8475,3.9281,158.4116
lg,1625112501208504879,0,0.4143,0.8013,0.5183,603,11.4136,-1.4038,7.4463,84,1.2886,1.0565,-30.5796,79.409,28,0.036,8494,3.9281,158.8953
lg,1625112501208523268,0,0.4011,0.8108,0.5044,604,11.2305,-0.7324,5.8594,84,1.2896,1.0565,-30.574,78.9451,28,0.036,8530,3.9281,159.3725
lg,1625112501208541120,0,0.3965,0.8135,0.5027,605,10.8643,-0.2441,5.7373,84,1.2896,1.0565,-30.5454,78.4786,28,0.036,8536,3.9281,159.8607
lg,1625112501208574342,0,0.3992,0.8035,0.5134,606,8.3618,0.2441,5.4932,84,1.2896,1.0565,-30.5139,77.8865,28,0.037,8497,3.9281,160.3781
lg,1625112501208595250,0,0.3936,0.8086,0.5261,607,7.5073,0.3052,4.5776,84,1.2886,1.0565,-30.4256,77.2644,28,0.036,8561,3.9281,160.8901
lg,1625112501208613120,0,0.3943,0.8081,0.5022,608,5.9204,0.3662,3.7231,84,1.2886,1.0565,-30.3072,76.6568,28,0.036,8580,3.9281,161.3586
lg,1625112501561638940,0,0.397,0.8064,0.4961,609,4.5776,0.2441,3.3569,84,1.2906,1.0575,-30.1838,76.0369,28,0.036,25370,3.9281,161.799
lg,1625112501561696477,0,0.3813,0.8062,0.4983,610,3.0518,-0.1831,3.7842,84,1.2906,1.0575,-30.1022,75.3859,28,0.037,10602,3.9281,162.1951
lg,1625112501561717311,0,0.3779,0.8008,0.5037,611,2.5024,-0.9155,3.9062,84,1.2906,1.0575,-30.0152,74.7739,28,0.037,10032,3.9281,162.5131
lg,1625112501561736681,0,0.3909,0.7922,0.501,612,2.8687,-2.9297,4.3335,84,1.2906,1.0575,-29.9615,74.1977,28,0.036,8137,3.9281,162.8004
lg,1625112501561754959,0,0.4016,0.8044,0.5027,613,3.418,-4.3945,3.9673,84,1.2906,1.0575,-29.92,73.7145,28,0.036,8825,3.9281,163.0011
lg,1625112501561772903,0,0.407,0.7808,0.5161,614,3.54,-5.0659,4.0894,84,1.2906,1.0575,-29.9201,73.2127,28,0.036,7979,3.9281,163.1936
lg,1625112501561790348,0,0.4211,0.7979,0.5046,615,3.7842,-4.4556,4.2114,84,1.2906,1.0575,-29.9442,72.7764,28,0.036,7993,3.9281,163.3814
lg,1625112501561808348,0,0.4045,0.8035,0.5144,616,3.6011,-2.8687,4.8218,84,1.2896,1.0575,-29.918,72.2906,28,0.036,9207,3.9281,163.6505
lg,1625112501561825311,0,0.3872,0.7891,0.5061,617,2.1362,-2.8076,6.2256,84,1.2886,1.0565,-29.9228,71.7499,28,0.036,8486,3.9281,163.9357
lg,1625112501561842459,0,0.4165,0.7976,0.4912,618,1.709,-4.5776,7.8125,84,1.2886,1.0565,-30.0625,71.2888,28,0.036,7987,3.9281,164.1339
lg,1625112501561858848,0,0.4197,0.7712,0.5098,619,1.9531,-5.3101,8.5449,84,1.2896,1.0575,-30.2578,70.7921,28,0.036,8063,3.9281,164.343
lg,1625112501561918736,0,0.4185,0.7974,0.498,620,1.9531,-6.4087,9.3384,84,1.2886,1.0575,-30.4655,70.3892,28,0.037,8116,3.9281,164.4822
lg,1625112501561938755,0,0.4229,0.7729,0.5029,621,2.0142,-6.6528,9.1553,84,1.2886,1.0565,-30.6903,69.9692,28,0.036,8107,3.9281,164.6258
lg,1625112501561956033,0,0.4204,0.7747,0.5049,622,1.9531,-6.7749,9.4604,84,1.2896,1.0575,-30.9267,69.5817,28,0.036,8199,3.9281,164.7558
lg,1625112501561973366,0,0.4351,0.7788,0.5027,623,1.77,-5.4932,10.0708,84,1.2896,1.0575,-31.1689,69.1567,28,0.037,8184,3.9281,164.9544
lg,1625112501561994310,0,0.439,0.7693,0.5181,624,2.7466,-5.7373,10.6812,84,1.2896,1.0575,-31.4385,68.7402,28,0.037,8205,3.9281,165.1733
lg,1625112501562012736,0,0.4446,0.7778,0.4949,625,2.7466,-4.3945,10.6812,84,1.2886,1.0575,-31.69,68.3851,28,0.037,8203,3.9281,165.4476
lg,1625112501562030162,0,0.4326,0.7778,0.4915,626,2.9907,-2.6245,11.1694,84,1.2906,1.0575,-31.8974,67.9966,28,0.037,12420,3.9281,165.7711
lg,1625112501562048588,0,0.4163,0.7629,0.4978,627,3.3569,-2.7466,11.8408,84,1.2916,1.0575,-32.1002,67.5952,28,0.037,8320,3.9281,166.1178
lg,1625112501562067199,0,0.4114,0.7581,0.4929,628,3.7842,-2.8076,12.3901,84,1.2906,1.0585,-32.347,67.2259,28,0.038,8359,3.9281,166.422
lg,1625112501562083496,0,0.4343,0.7781,0.5073,629,4.5166,-4.8828,12.207,84,1.2916,1.0575,-32.5943,66.9448,28,0.038,8448,3.9281,166.6756
lg,1625112501562100551,0,0.4294,0.7776,0.5044,630,5.9204,-6.0425,12.8174,84,1.2906,1.0585,-32.8632,66.7551,28,0.038,8374,3.9281,166.8857
lg,1625112501562118421,0,0.4534,0.7993,0.5051,631,7.3242,-6.2866,12.3901,84,1.2906,1.0575,-33.1366,66.6684,28,0.038,8895,3.9281,167.0603
lg,1625112501562137403,0,0.45,0.7876,0.5044,632,6.897,-5.3101,13.0615,84,1.2896,1.0575,-33.4123,66.5217,28,0.039,10792,3.9281,167.2996
lg,1625112501562154347,0,0.4565,0.7839,0.4976,633,6.897,-3.418,13.9771,84,1.2896,1.0575,-33.6987,66.3345,28,0.038,8462,3.9281,167.6344
lg,1625112501562173162,0,0.4397,0.7932,0.4863,634,6.7139,-2.7466,14.2212,84,1.2906,1.0575,-33.9259,66.1161,28,0.039,8502,3.9281,168.0281
lg,1625112501562215921,0,0.4258,0.7771,0.5122,635,6.958,-2.1362,15.0146,84,1.2896,1.0575,-34.1481,65.8521,28,0.038,8502,3.9281,168.4662
lg,1625112501562237773,0,0.425,0.7854,0.4858,636,6.3477,-2.8687,15.686,84,1.2886,1.0575,-34.3967,65.6537,28,0.038,8680,3.9281,168.8439
lg,1625112501562257829,0,0.4246,0.7832,0.4724,637,5.8594,-3.9062,16.2964,84,1.2896,1.0575,-34.6794,65.4884,28,0.038,8563,3.9281,169.1716
lg,1625112501562275829,0,0.4285,0.7837,0.4656,638,5.3101,-4.6997,16.3574,84,1.2896,1.0575,-34.9754,65.342,28,0.039,8740,3.9281,169.4559
lg,1625112501562293755,0,0.438,0.7881,0.4868,639,5.0049,-5.249,16.4795,84,1.2896,1.0575,-35.2373,65.1479,28,0.037,8639,3.9281,169.7485
lg,1625112501562312570,0,0.3699,0.7676,0.4919,640,4.2725,-5.7373,17.4561,84,1.2906,1.0575,-35.4524,64.8896,28,0.038,8609,3.9281,170.0632
lg,1625112501932694287,0,0.3853,0.7703,0.4924,641,7.5073,-21.7896,23.2544,84,1.2906,1.0575,-36.1658,65.1224,28,0.038,24806,3.9281,169.7741
lg,1625112501932736436,0,0.4062,0.7493,0.4849,642,6.6528,-25.1465,24.1699,84,1.2906,1.0585,-37.0526,65.4057,28,0.038,14201,3.9281,169.2942
lg,1625112501932757398,0,0.4329,0.7568,0.5029,643,7.5073,-28.6865,24.4751,84,1.2916,1.0585,-37.9626,65.7742,28,0.039,8324,3.9281,168.7366
lg,1625112501932776880,0,0.4314,0.7559,0.5171,644,8.8501,-31.0059,24.353,84,1.2916,1.0585,-38.8605,66.2314,28,0.038,8062,3.9281,168.087
lg,1625112501932795695,0,0.47,0.7642,0.4995,645,9.2163,-32.4097,22.3999,84,1.2916,1.0585,-39.7421,66.8355,28,0.039,8063,3.9281,167.2861
lg,1625112501932815324,0,0.4778,0.7715,0.5085,646,8.9111,-31.7383,22.3389,94,1.2916,1.0585,-40.5756,67.397,28,0.038,8094,3.9226,166.5179
lg,1625112501932833176,0,0.491,0.7532,0.5027,647,8.7891,-31.0059,20.6299,94,1.2906,1.0585,-41.3423,67.9424,28,0.038,8983,3.9226,165.754
lg,1625112501932851139,0,0.5029,0.7461,0.4998,648,9.5215,-29.6021,18.6157,94,1.2916,1.0585,-42.0096,68.4949,28,0.038,8581,3.9226,165.0185
lg,1625112501932869380,0,0.5125,0.7417,0.4988,649,8.3008,-27.771,15.686,94,1.2916,1.0585,-42.5341,68.9679,28,0.038,8564,3.9226,164.3207
lg,1625112501932886935,0,0.5115,0.7317,0.4973,650,7.6904,-25.0244,12.2681,94,1.2916,1.0585,-42.8788,69.3474,28,0.039,8115,3.9226,163.7089
lg,1625112501932927713,0,0.512,0.7224,0.5178,651,6.5308,-24.4141,9.9487,94,1.2916,1.0585,-43.1179,69.6153,28,0.039,8174,3.9226,163.1346
lg,1625112501932948509,0,0.5308,0.718,0.5171,652,5.7983,-20.752,5.3101,94,1.2906,1.0585,-43.1625,69.7792,28,0.039,8197,3.9226,162.666
lg,1625112501932967121,0,0.5464,0.6992,0.5217,653,5.249,-17.5171,0.5493,94,1.2916,1.0585,-43.0315,69.8276,28,0.038,9035,3.9226,162.3029
lg,1625112501932984287,0,0.5366,0.6995,0.5242,654,3.7842,-12.7563,-3.7842,94,1.2906,1.0575,-42.6604,69.6936,28,0.038,8676,3.9226,162.1111
lg,1625112501933001769,0,0.5391,0.71,0.5457,655,4.1504,-11.3525,-6.1035,94,1.2896,1.0575,-42.0838,69.4694,28,0.038,8236,3.9226,162.019
lg,1625112501933018621,0,0.5112,0.6997,0.5427,656,4.0283,-8.7891,-9.5215,94,1.2906,1.0575,-41.4283,69.2414,28,0.039,8286,3.9226,161.9389
lg,1625112501933035435,0,0.4954,0.7031,0.5352,657,4.5166,-9.0942,-11.9019,94,1.2896,1.0575,-40.6823,69.0992,28,0.039,8290,3.9226,161.7741
lg,1625112501933065398,0,0.4634,0.7119,0.5295,658,4.2114,-9.8877,-12.8784,94,1.2906,1.0575,-39.8711,69.0021,28,0.039,8321,3.9226,161.5308
lg,1625112501933083972,0,0.4673,0.7263,0.5317,659,4.5776,-10.8032,-12.4512,94,1.2896,1.0575,-39.1238,68.9387,28,0.039,8311,3.9226,161.2452
lg,1625112501933101343,0,0.4778,0.7158,0.521,660,3.9062,-13.1226,-12.6953,94,1.2896,1.0575,-38.4504,68.9537,28,0.039,8390,3.9226,160.8158
lg,1625112501933118750,0,0.4739,0.7351,0.4924,661,1.8921,-14.8315,-12.4512,94,1.2896,1.0575,-37.8168,69.0238,28,0.04,8449,3.9226,160.2482
lg,1625112501933135861,0,0.4614,0.7427,0.4878,662,-0.5493,-17.6392,-11.2915,94,1.2896,1.0575,-37.2592,69.0726,28,0.039,8431,3.9226,159.5587
lg,1625112501933154083,0,0.4753,0.7393,0.4934,663,-2.2583,-18.8599,-11.3525,94,1.2906,1.0575,-36.778,69.0798,28,0.039,8354,3.9226,158.8116
lg,1625112501933173380,0,0.4595,0.7217,0.4995,664,-4.9438,-20.4468,-10.2539,94,1.2906,1.0575,-36.353,68.9449,28,0.039,8487,3.9226,158.0461
lg,1625112501933191195,0,0.4902,0.7393,0.4915,665,-6.4697,-22.644,-9.3994,94,1.2906,1.0575,-36.0527,68.8516,28,0.04,8439,3.9226,157.1595
lg,1625112501933227509,0,0.4824,0.7256,0.4814,666,-8.1177,-24.1089,-8.8501,94,1.2896,1.0575,-35.8097,68.728,28,0.039,8503,3.9226,156.2116
lg,1625112501933247769,0,0.4875,0.7271,0.4907,667,-9.4604,-24.9634,-8.7891,94,1.2906,1.0585,-35.6134,68.5504,28,0.039,8507,3.9226,155.237
lg,1625112501933264991,0,0.5166,0.7229,0.5137,668,-9.8877,-24.9023,-8.728,94,1.2916,1.0585,-35.5244,68.2687,28,0.039,9754,3.9226,154.3146
lg,1625112501933282565,0,0.5583,0.6936,0.5215,669,-9.1553,-25.3296,-9.8877,94,1.2906,1.0585,-35.4595,67.9793,28,0.039,10139,3.9226,153.4052
lg,1625112501933299528,0,0.5996,0.6431,0.5469,670,-7.9956,-24.1699,-12.5122,94,1.2906,1.0585,-35.4023,67.6982,28,0.039,8570,3.9226,152.5025
lg,1625112501933317287,0,0.6069,0.6384,0.5251,671,-2.1973,-17.9443,-12.207,94,1.2906,1.0575,-35.2976,67.5341,28,0.039,9275,3.9226,151.8571
lg,1625112501933335861,0,0.532,0.7432,0.4028,672,2.1973,-9.0942,-10.9253,94,1.2906,1.0575,-34.9079,67.7129,28,0.039,8662,3.9226,151.396
lg,1625112502307163921,0,0.4937,0.7288,0.4167,673,-14.8926,-8.8501,-8.7891,94,1.2916,1.0585,-34.4661,66.9712,28,0.039,24982,3.9226,151.1016
lg,1625112502307202643,0,0.4683,0.7031,0.4575,674,-13.2446,-15.3198,-9.5825,94,1.2916,1.0585,-34.2025,66.638,28,0.039,9858,3.9226,150.3762
lg,1625112502307223439,0,0.5132,0.7114,0.4683,675,-8.7891,-21.7896,-9.4604,94,1.2916,1.0585,-34.0846,66.5078,28,0.038,14089,3.9226,149.4669
lg,1625112502307243217,0,0.5107,0.7122,0.47,676,-6.5308,-21.9727,-8.3008,94,1.2906,1.0585,-34.0115,66.4596,28,0.038,8857,3.9226,148.571
lg,1625112502307262143,0,0.5542,0.7302,0.4648,677,-2.5024,-20.5688,-7.2021,94,1.2916,1.0585,-34.0238,66.5715,28,0.039,7999,3.9226,147.7322
lg,1625112502307280810,0,0.5632,0.739,0.4683,678,-0.6714,-18.8599,-6.5918,94,1.2916,1.0585,-34.035,66.7086,28,0.038,8076,3.9226,146.9804
lg,1625112502307298328,0,0.563,0.7449,0.4634,679,1.2817,-15.2588,-6.5918,94,1.2906,1.0585,-33.9836,66.8468,28,0.038,8012,3.9226,146.3815
lg,1625112502307316865,0,0.5513,0.7346,0.4624,680,3.3569,-11.5967,-6.2866,94,1.2906,1.0575,-33.8779,66.9542,28,0.038,8500,3.9226,145.962
lg,1625112502307367847,0,0.5305,0.7422,0.4421,681,4.1504,-9.5215,-6.5918,94,1.2896,1.0575,-33.6944,67.0929,28,0.038,8109,3.9226,145.6018
lg,1625112502307389439,0,0.5156,0.752,0.458,682,5.249,-8.2397,-6.4087,94,1.2906,1.0585,-33.4589,67.2077,28,0.039,8143,3.9226,145.3202
lg,1625112502307408810,0,0.5071,0.7363,0.4592,683,5.8594,-8.0566,-6.0425,94,1.2896,1.0575,-33.2425,67.3079,28,0.039,8180,3.9226,145.0695
lg,1625112502307426921,0,0.4927,0.7388,0.4514,684,5.4321,-7.5073,-5.188,94,1.2896,1.0575,-33.0301,67.3829,28,0.038,8351,3.9226,144.8499
lg,1625112502307444347,0,0.5212,0.7312,0.4587,685,5.8594,-8.1787,-4.2725,94,1.2896,1.0585,-32.93,67.4563,28,0.039,9563,3.9226,144.6304
lg,1625112502307461273,0,0.5239,0.7417,0.4741,686,5.6763,-6.7749,-3.7231,94,1.2896,1.0575,-32.82,67.4587,28,0.039,9970,3.9226,144.4955
lg,1625112502307478476,0,0.5142,0.7373,0.458,687,5.9204,-7.019,-2.5635,94,1.2896,1.0575,-32.7561,67.4357,28,0.039,8251,3.9226,144.4276
lg,1625112502307495680,0,0.5127,0.7424,0.4658,688,6.3477,-6.0425,-1.5869,94,1.2916,1.0585,-32.7018,67.4445,28,0.039,8373,3.9226,144.3527
lg,1625112502307513439,0,0.499,0.7366,0.4619,689,7.2021,-5.4321,0.061,94,1.2906,1.0585,-32.6826,67.4551,28,0.039,8290,3.9226,144.3349
lg,1625112502307531717,0,0.4988,0.73,0.4622,690,7.8735,-6.3477,0.3662,94,1.2906,1.0575,-32.6956,67.5015,28,0.039,8267,3.9226,144.2876
lg,1625112502307548958,0,0.5081,0.7314,0.4719,691,8.728,-5.9814,0.7935,94,1.2906,1.0575,-32.72,67.5794,28,0.038,8299,3.9226,144.2585
lg,1625112502307566569,0,0.5081,0.7476,0.468,692,8.606,-5.4932,1.709,94,1.2916,1.0585,-32.765,67.6279,28,0.039,11596,3.9226,144.2695
lg,1625112502307583550,0,0.4937,0.7634,0.4792,693,9.0942,-6.1646,1.6479,94,1.2916,1.0585,-32.7831,67.7104,28,0.039,8490,3.9226,144.2511
lg,1625112502307600143,0,0.4878,0.7637,0.478,694,9.7046,-5.4321,2.4414,94,1.2916,1.0585,-32.7922,67.7832,28,0.038,8404,3.9226,144.2838
lg,1625112502307617902,0,0.4978,0.7505,0.4714,695,9.3994,-5.9814,3.54,94,1.2906,1.0585,-32.8851,67.8432,28,0.037,9068,3.9226,144.3135
lg,1625112502307653254,0,0.4932,0.7544,0.4717,696,9.6436,-5.6763,2.9297,94,1.2916,1.0585,-32.9342,67.9128,28,0.038,8433,3.9226,144.3454
lg,1625112502307672884,0,0.4856,0.759,0.4639,697,9.5825,-5.188,2.9907,94,1.2916,1.0585,-32.9387,67.9744,28,0.038,8489,3.9226,144.4137
lg,1625112502307690180,0,0.4951,0.7515,0.4875,698,8.9722,-4.3945,2.2583,94,1.2896,1.0585,-32.9421,67.8994,28,0.038,9518,3.9226,144.5555
lg,1625112502307707384,0,0.4871,0.7446,0.499,699,7.9956,-2.9907,2.3193,94,1.2906,1.0585,-32.914,67.7663,28,0.038,8472,3.9226,144.7384
lg,1625112502307724569,0,0.4849,0.7559,0.4775,700,7.8125,-3.1738,1.77,94,1.2896,1.0585,-32.8618,67.7041,28,0.038,8541,3.9226,144.8662
lg,1625112502307741513,0,0.4919,0.7378,0.4766,701,8.3008,-3.7842,1.9531,94,1.2906,1.0585,-32.8602,67.6566,28,0.039,8573,3.9226,144.9797
lg,1625112502307758235,0,0.4854,0.7375,0.4851,702,7.9346,-3.479,1.1597,94,1.2906,1.0575,-32.8087,67.5757,28,0.039,8564,3.9226,145.1029
lg,1625112502307775402,0,0.4832,0.7449,0.4829,703,8.5449,-4.0894,0.9766,94,1.2896,1.0585,-32.7614,67.5815,28,0.038,8591,3.9226,145.1707
lg,1625112502307792124,0,0.4849,0.75,0.4739,704,8.667,-4.0283,0.9766,94,1.2896,1.0585,-32.7327,67.5895,28,0.039,8946,3.9226,145.2417
lg,1625112502680232484,0,0.5117,0.7488,0.468,705,8.4229,-3.0518,0.2441,94,1.2896,1.0595,-32.6922,67.5887,28,0.038,24287,3.9226,145.3331
lg,1625112502680301669,0,0.5151,0.759,0.4714,706,7.5684,-2.5024,-0.1221,94,1.2916,1.0595,-32.6125,67.5108,28,0.038,12516,3.9226,145.4423
lg,1625112502680323465,0,0.5068,0.7549,0.4761,707,7.3853,-2.7466,0.1831,94,1.2916,1.0585,-32.5246,67.4502,28,0.038,8130,3.9226,145.5516
lg,1625112502680342391,0,0.5046,0.7505,0.4939,708,7.1411,-2.5635,0.1831,94,1.2916,1.0585,-32.4565,67.336,28,0.038,8167,3.9226,145.6898
lg,1625112502680360595,0,0.501,0.7412,0.4692,709,5.7373,-2.5635,-0.061,94,1.2916,1.0595,-32.3945,67.2155,28,0.038,7969,3.9226,145.7977
lg,1625112502680442761,0,0.501,0.7461,0.4932,710,6.0425,-2.6855,0.4883,94,1.2916,1.0585,-32.3418,67.0621,28,0.037,8122,3.9226,145.9328
lg,1625112502680466484,0,0.5156,0.7571,0.4648,711,6.1646,-2.8076,0.5493,94,1.2916,1.0585,-32.3236,67.0025,28,0.038,8009,3.9226,146.017
lg,1625112502680484465,0,0.4993,0.748,0.4744,712,5.6763,-2.1973,0.6714,94,1.2916,1.0595,-32.275,66.8744,28,0.038,10081,3.9226,146.1479
lg,1625112502680501447,0,0.5078,0.7576,0.4802,713,4.8828,-2.4414,0.8545,94,1.2916,1.0585,-32.2428,66.7243,28,0.038,12693,3.9226,146.2683
lg,1625112502680519409,0,0.5125,0.7461,0.4888,714,5.0049,-2.5635,0.9155,94,1.2916,1.0595,-32.2326,66.5541,28,0.038,9083,3.9226,146.3991
lg,1625112502680535984,0,0.5129,0.7561,0.4878,715,4.8828,-2.1362,1.0376,94,1.2916,1.0595,-32.2031,66.3327,28,0.038,8273,3.9226,146.5679
lg,1625112502680553058,0,0.5347,0.7563,0.5,716,4.2114,-2.4414,0.6714,94,1.2916,1.0595,-32.2092,66.1389,28,0.038,8300,3.9226,146.6952
lg,1625112502680569743,0,0.5144,0.7524,0.4895,717,4.0283,-2.4414,0.6714,94,1.2916,1.0595,-32.1854,65.9598,28,0.038,8302,3.9226,146.8108
lg,1625112502680586872,0,0.5376,0.7612,0.4856,718,2.8687,-1.1597,0.9766,94,1.2916,1.0595,-32.1888,65.7325,28,0.038,8294,3.9226,146.9713
lg,1625112502680603984,0,0.5417,0.7693,0.4741,719,1.4038,-0.6714,1.2817,94,1.2916,1.0595,-32.1707,65.3689,28,0.038,8977,3.9226,147.1918
lg,1625112502680621558,0,0.522,0.7583,0.491,720,-1.0986,1.4038,1.6479,94,1.2916,1.0585,-32.1262,64.923,28,0.038,8850,3.9226,147.4731
lg,1625112502680640169,0,0.5085,0.7439,0.4922,721,-2.8076,1.2207,2.6855,94,1.2906,1.0585,-32.1258,64.3837,28,0.038,10293,3.9226,147.7771
lg,1625112502680657854,0,0.5151,0.7559,0.4973,722,-1.8311,-0.1221,3.7842,94,1.2906,1.0575,-32.1688,63.9412,28,0.038,8431,3.9226,148.0257
lg,1625112502680674965,0,0.5303,0.7588,0.5105,723,-1.8311,-0.6104,4.0894,94,1.2906,1.0585,-32.2473,63.5008,28,0.037,8445,3.9226,148.2642
lg,1625112502680691983,0,0.5305,0.7395,0.509,724,-2.1973,0,4.3945,94,1.2906,1.0585,-32.3413,63.022,28,0.038,8449,3.9226,148.5399
lg,1625112502680728983,0,0.5146,0.7439,0.51,725,-2.6245,0.3052,4.5776,94,1.2906,1.0585,-32.443,62.5641,28,0.038,8467,3.9226,148.8432
lg,1625112502680746854,0,0.5344,0.7351,0.5,726,-1.9531,0.4883,5.3101,94,1.2906,1.0585,-32.5654,62.1224,28,0.039,8480,3.9226,149.1362
lg,1625112502680763817,0,0.5322,0.7288,0.4993,727,-2.1973,2.9907,6.0425,94,1.2896,1.0585,-32.6628,61.614,28,0.038,8545,3.9226,149.5477
lg,1625112502680781169,0,0.5195,0.7312,0.4785,728,-2.1973,3.1128,6.3477,94,1.2906,1.0585,-32.7465,61.1665,28,0.039,8570,3.9226,149.9361
lg,1625112502680798058,0,0.5171,0.7266,0.489,729,-2.2583,3.54,6.7139,94,1.2906,1.0585,-32.8231,60.6886,28,0.038,8577,3.9226,150.3595
lg,1625112502680815761,0,0.5134,0.7368,0.4924,730,-2.1973,2.6245,7.019,94,1.2906,1.0585,-32.9034,60.2545,28,0.037,8665,3.9226,150.7398
lg,1625112502680832539,0,0.498,0.7488,0.4866,731,-4.6387,2.3193,7.3853,94,1.2916,1.0585,-32.9589,59.7705,28,0.038,8639,3.9226,151.0926
lg,1625112502680850224,0,0.4849,0.7273,0.4941,732,-7.019,0.7324,8.4839,94,1.2906,1.0585,-33.0696,59.182,28,0.038,8664,3.9226,151.4248
lg,1625112502680866391,0,0.4934,0.729,0.5029,733,-9.0332,-1.709,9.8267,94,1.2906,1.0585,-33.2791,58.5546,28,0.038,8696,3.9226,151.6898
lg,1625112502680884039,0,0.511,0.7288,0.4985,734,-9.7046,-2.1362,10.376,94,1.2906,1.0585,-33.5422,57.9349,28,0.038,8759,3.9226,151.9374
lg,1625112502680903298,0,0.5105,0.7229,0.5098,735,-10.8032,-1.2207,10.8643,94,1.2906,1.0595,-33.7831,57.2333,28,0.037,8795,3.9226,152.2447
lg,1625112502680921520,0,0.5171,0.7295,0.521,736,-10.498,-1.709,11.2305,94,1.2916,1.0585,-34.0385,56.5578,28,0.037,8781,3.9226,152.5416
lg,1625112503036240019,0,0.5183,0.7202,0.5291,737,-8.0566,0.8545,11.7798,94,1.2926,1.0595,-34.2487,55.9053,28,0.038,25133,3.9226,152.9657
lg,1625112503036278556,0,0.5081,0.7271,0.5222,738,-8.728,1.8921,11.3525,94,1.2916,1.0595,-34.388,55.2572,28,0.037,9758,3.9226,153.3962
lg,1625112503036299705,0,0.5178,0.7236,0.5193,739,-10.3149,1.5259,11.9629,94,1.2916,1.0595,-34.5695,54.5688,28,0.038,8225,3.9226,153.8187
lg,1625112503036319353,0,0.4878,0.7334,0.5173,740,-11.0474,2.5024,12.207,94,1.2916,1.0595,-34.6034,53.899,28,0.037,10290,3.9226,154.2475
lg,1625112503036360631,0,0.4839,0.7449,0.5254,741,-13.916,-0.7324,12.6343,94,1.2926,1.0595,-34.7561,53.1764,28,0.037,8001,3.9226,154.5669
lg,1625112503036379908,0,0.5271,0.7563,0.5183,742,-17.4561,-3.7842,14.7095,94,1.2926,1.0595,-35.1151,52.4021,28,0.037,8031,3.9226,154.8008
lg,1625112503036398445,0,0.5146,0.7705,0.4941,743,-18.9819,-4.1504,15.1978,94,1.2926,1.0605,-35.3824,51.6496,28,0.038,8072,3.9226,154.992
lg,1625112503036416019,0,0.459,0.7949,0.4939,744,-27.0996,-3.9673,18.1885,94,1.2926,1.0605,-35.6815,50.6021,28,0.038,8080,3.9226,155.2373
lg,1625112503036432742,0,0.4294,0.7974,0.4983,745,-38.6353,-11.6577,23.5596,94,1.2916,1.0595,-36.2636,49.1977,28,0.038,8293,3.9226,155.3507
lg,1625112503036450279,0,0.4446,0.7668,0.5417,746,-50.415,-25.0854,30.7007,94,1.2916,1.0595,-37.4087,47.3759,28,0.038,8113,3.9226,155.2804
lg,1625112503036468112,0,0.5193,0.7651,0.5364,747,-56.6406,-30.3955,34.4849,94,1.2926,1.0595,-38.9106,45.3859,28,0.039,8151,3.9226,155.1603
lg,1625112503036485353,0,0.5637,0.759,0.5654,748,-67.9321,-33.6304,39.5508,94,1.2926,1.0595,-40.6506,42.8544,28,0.039,8195,3.9226,155.1887
lg,1625112503036502130,0,0.5828,0.6985,0.6018,749,-78.6743,-28.6255,49.0723,94,1.2926,1.0595,-42.4645,39.3553,28,0.039,8239,3.9226,155.9598
lg,1625112503036518686,0,0.5764,0.6831,0.6206,750,-81.4209,-24.1089,53.7109,94,1.2926,1.0595,-44.1549,35.0637,28,0.039,8217,3.9226,157.5948
lg,1625112503036534927,0,0.5103,0.6335,0.6343,751,-84.1064,-19.3481,64.0869,94,1.2936,1.0595,-45.6346,30.4699,28,0.04,8183,3.9226,159.6851
lg,1625112503036551649,0,0.3975,0.6702,0.5774,752,-85.8154,-28.8696,73.7915,94,1.2926,1.0595,-47.2929,25.8739,28,0.039,8256,3.9226,161.9362
lg,1625112503036568242,0,0.3408,0.6792,0.5581,753,-93.2617,-58.4106,83.8623,94,1.2926,1.0595,-49.9111,21.0957,28,0.04,8304,3.9226,164.138
lg,1625112503036584556,0,0.4126,0.6084,0.5859,754,-99.7925,-76.9043,89.9658,94,1.2926,1.0605,-53.1779,15.458,28,0.04,8314,3.9226,166.9583
lg,1625112503036601075,0,0.6172,0.5366,0.5859,755,-106.5674,-104.3091,101.0742,94,1.2926,1.0605,-57.625,8.1772,28,0.041,8296,3.9226,171.2359
lg,1625112503036618890,0,0.7612,0.4829,0.5876,756,-108.4595,-112.915,107.4219,94,1.2936,1.0605,-62.072,-1.3954,28,0.042,8347,3.9226,-182.1573
lg,1625112503036636019,0,0.8484,0.4534,0.6069,757,-107.7881,-102.9663,110.0464,90,1.2926,1.0615,-65.3397,-13.5064,28,0.041,9554,3.927,-172.9018
lg,1625112503036653445,0,0.9368,0.4312,0.595,758,-107.5439,-91.2476,110.9009,90,1.2946,1.0615,-67.1801,-27.7935,28,0.041,13631,3.927,-161.4525
lg,1625112503036769649,0,1.0117,0.3943,0.5801,759,-105.2856,-70.0073,108.7646,90,1.2946,1.0615,-67.2564,-41.5355,28,0.041,8431,3.927,-150.5739
lg,1625112503036794056,0,0.9976,0.3354,0.6238,760,-100.2808,-39.856,102.7222,90,1.2956,1.0615,-65.7576,-51.7287,28,0.041,8647,3.927,-143.3065
lg,1625112503036838649,0,0.8972,0.3096,0.6013,761,-93.8721,-16.0522,97.1069,90,1.2956,1.0615,-63.5389,-58.2227,28,0.041,8566,3.927,-139.6891
lg,1625112503036858445,0,0.8411,0.2917,0.5901,762,-89.9048,-7.1411,95.1538,90,1.2956,1.0625,-61.0189,-62.2819,28,0.041,8569,3.927,-138.352
lg,1625112503036896445,0,0.8044,0.2603,0.6072,763,-82.3364,4.3945,93.3838,90,1.2956,1.0625,-58.4012,-65.2813,28,0.041,8818,3.927,-137.916
lg,1625112503036915556,0,0.7727,0.2317,0.5649,764,-73.3643,10.1318,92.1021,90,1.2956,1.0615,-55.7937,-67.3332,28,0.041,8726,3.927,-138.1169
lg,1625112503036934075,0,0.729,0.2256,0.5549,765,-66.2231,15.8081,90.7593,90,1.2946,1.0615,-53.2046,-68.5683,28,0.041,8646,3.927,-138.8807
lg,1625112503036951538,0,0.6853,0.1987,0.5564,766,-61.6455,20.6299,91.6748,90,1.2946,1.0615,-50.5125,-69.3061,28,0.04,8653,3.927,-139.9684
lg,1625112503036969223,0,0.6462,0.1855,0.5532,767,-58.7158,21.9116,91.7969,90,1.2946,1.0615,-47.8663,-69.8279,28,0.041,8685,3.927,-140.9522
lg,1625112503037017964,0,0.6082,0.1714,0.5737,768,-52.7344,13.4277,92.4072,90,1.2956,1.0625,-45.2459,-70.4003,28,0.041,8715,3.927,-141.6149
lg,1625112503392133751,0,0.7556,0.0969,0.6089,769,-30.6396,-4.9438,83.5571,90,1.2966,1.0625,-43.2242,-70.9027,28,0.041,24256,3.927,-141.2392
lg,1625112503392167288,0,0.7454,0.1084,0.6289,770,-18.6157,-3.1738,74.646,90,1.2966,1.0625,-41.5461,-70.6615,28,0.041,9673,3.927,-141.1356
lg,1625112503392187418,0,0.7458,0.0923,0.6252,771,-7.5684,-2.8687,68.4814,90,1.2976,1.0625,-40.1184,-69.9286,28,0.041,13625,3.927,-141.077
lg,1625112503392206529,0,0.7659,0.0999,0.6321,772,1.709,0.4883,61.5234,90,1.2976,1.0625,-38.9572,-68.6847,28,0.041,8121,3.927,-141.213
lg,1625112503392226955,0,0.7627,0.1096,0.6182,773,8.1177,5.6152,54.5654,90,1.2976,1.0625,-38.0294,-67.0121,28,0.04,8094,3.927,-141.6147
lg,1625112503392245566,0,0.7939,0.0867,0.6501,774,13.5498,11.5356,47.6685,90,1.2976,1.0625,-37.2329,-64.9505,28,0.04,10051,3.927,-142.3058
lg,1625112503392263529,0,0.782,0.0774,0.6448,775,17.5781,15.3809,43.457,90,1.2976,1.0625,-36.5453,-62.3215,28,0.04,8354,3.927,-143.45
lg,1625112503392281251,0,0.7834,0.053,0.6633,776,26.123,23.4985,33.9966,90,1.2976,1.0625,-35.906,-59.4413,28,0.04,8625,3.927,-144.7085
lg,1625112503392297992,0,0.7854,0.0435,0.6865,777,38.8184,31.8604,23.4985,90,1.2976,1.0625,-35.3963,-55.7998,28,0.04,8224,3.927,-146.4399
lg,1625112503392314992,0,0.7698,0.0491,0.6838,778,52.6123,40.1611,12.2681,90,1.2976,1.0625,-34.9667,-51.3542,28,0.04,8265,3.927,-148.6592
lg,1625112503392355029,0,0.76,0.0791,0.6538,779,60.0586,43.7012,6.7749,90,1.2986,1.0625,-34.6001,-46.177,28,0.04,8232,3.927,-151.3158
lg,1625112503392373732,0,0.7505,0.1265,0.6611,780,73.7915,54.9316,-5.188,90,1.2986,1.0625,-34.0361,-40.5202,28,0.041,8731,3.927,-154.2742
lg,1625112503392390603,0,0.7119,0.1814,0.6628,781,77.3926,60.73,-10.0098,90,1.2996,1.0625,-33.1805,-34.6356,28,0.041,8391,3.927,-157.3823
lg,1625112503392408177,0,0.7207,0.1958,0.698,782,75.8667,62.9883,-10.1929,90,1.2996,1.0625,-32.0045,-29.0382,28,0.041,8342,3.927,-160.2384
lg,1625112503392425695,0,0.6089,0.3677,0.8484,783,67.3218,75.3784,-8.728,90,1.2986,1.0625,-29.8754,-23.5942,28,0.039,8255,3.927,-163.1331
lg,1625112503392443307,0,0.3379,0.5325,0.8457,784,52.4292,82.1533,-27.1606,90,1.2996,1.0615,-27.1939,-18.2858,28,0.038,10368,3.927,-166.6494
lg,1625112503392460455,0,-0.0232,0.4832,0.8301,785,10.0098,72.3267,-15.8081,90,1.2996,1.0615,-23.8631,-15.3237,28,0.04,8253,3.927,-169.0975
lg,1625112503392478677,0,0.1897,0.2124,0.9407,786,-24.292,-23.1323,-0.5493,90,1.2986,1.0615,-24.3587,-15.2422,28,0.041,8473,3.927,-169.3215
lg,1625112503392496547,0,0.417,0.1455,0.9631,787,-25.5737,-47.7295,9.8877,90,1.2986,1.0615,-26.1069,-15.7452,28,0.04,8296,3.927,-168.7239
lg,1625112503392513418,0,0.7288,0.1106,0.8408,788,-9.8267,-49.4995,19.5923,90,1.2996,1.0625,-28.4141,-16.0372,28,0.039,8318,3.927,-167.6033
lg,1625112503392530214,0,0.707,0.2241,0.6465,789,-1.4648,-8.2397,29.1138,90,1.2996,1.0625,-29.2223,-15.7201,28,0.039,8405,3.927,-166.7238
lg,1625112503392546936,0,0.5508,0.2566,0.6113,790,-8.4839,2.1362,30.0293,90,1.2996,1.0625,-28.9475,-15.7481,28,0.04,8340,3.927,-165.9669
lg,1625112503392564492,0,0.3232,0.2236,0.6108,791,-24.292,-5.0049,40.3442,90,1.2996,1.0625,-28.7775,-16.2387,28,0.04,8363,3.927,-164.7973
lg,1625112503392581844,0,0.5266,0.1318,0.6299,792,-32.959,-60.3638,49.0112,90,1.2996,1.0635,-31.0072,-18.0876,28,0.041,8428,3.927,-162.266
lg,1625112503392599029,0,0.8381,0.1252,0.6301,793,-35.5835,-95.459,48.3398,90,1.2996,1.0625,-34.8705,-20.7133,28,0.04,11405,3.927,-158.9716
lg,1625112503392616066,0,1.0657,0.1099,0.645,794,-38.147,-90.7593,44.5557,90,1.2996,1.0635,-38.5361,-23.7552,28,0.041,8454,3.927,-155.5936
lg,1625112503392632825,0,1.1057,0.0317,0.6858,795,-34.668,-46.2646,45.8374,90,1.2996,1.0625,-40.2606,-26.4682,28,0.04,8595,3.927,-152.8329
lg,1625112503392649325,0,0.9175,0.0596,0.6721,796,-29.7852,-24.1089,44.5557,90,1.2996,1.0625,-40.6621,-28.0629,28,0.042,8607,3.927,-151.0424
lg,1625112503392665992,0,0.7019,0.0989,0.6616,797,-28.5034,-19.2261,49.4385,90,1.2996,1.0635,-40.802,-29.7777,28,0.041,8610,3.927,-149.0692
lg,1625112503392682380,0,0.7898,0.0532,0.688,798,-33.3252,-40.2222,60.0586,90,1.2996,1.0635,-41.4191,-32.5154,28,0.042,8606,3.927,-145.9534
lg,1625112503392699177,0,0.9282,0.0107,0.7239,799,-33.02,-38.3911,71.8384,90,1.2986,1.0635,-41.6482,-35.6843,28,0.042,8613,3.927,-142.2868
lg,1625112503392716047,0,1.021,0.0015,0.6843,800,-30.3955,-21.9727,79.0405,90,1.3006,1.0645,-41.168,-38.6109,28,0.042,8681,3.927,-138.858
lg,1625112503760754921,0,1.0244,0.009,0.6777,801,-37.0483,26.7944,65.7349,90,1.3016,1.0655,-39.4665,-40.1917,28,0.043,24836,3.927,-137.7774
lg,1625112503760884439,0,0.8091,-0.0854,0.7251,802,-31.9824,56.7627,61.7676,90,1.3016,1.0655,-36.6422,-40.7085,28,0.041,14754,3.927,-137.961
lg,1625112503760922236,0,0.6689,-0.0576,0.698,803,-21.3623,68.1763,65.7959,90,1.3006,1.0655,-33.3349,-40.5271,28,0.04,7970,3.927,-138.4186
lg,1625112503760953421,0,0.6895,-0.012,0.6438,804,-18.4937,68.1152,68.7866,90,1.2996,1.0655,-30.3269,-40.439,28,0.038,8004,3.927,-138.3708
lg,1625112503760981847,0,0.7063,-0.0227,0.6631,805,-21.7285,58.0444,67.749,90,1.2986,1.0665,-27.6237,-40.4986,28,0.038,7964,3.927,-138.3149
lg,1625112503761010736,0,0.71,-0.0942,0.7375,806,-21.2402,61.0352,63.6597,90,1.2976,1.0665,-24.8746,-40.5058,28,0.038,7954,3.927,-138.4084
lg,1625112503761038736,0,0.6311,-0.1367,0.7339,807,-12.6343,63.2324,54.6875,90,1.2956,1.0655,-22.2353,-40.0697,28,0.038,9250,3.927,-138.7895
lg,1625112503761065643,0,0.5588,-0.1821,0.6814,808,-10.2539,65.979,50.6592,90,1.2976,1.0665,-19.2602,-39.641,28,0.039,7998,3.927,-139.2448
lg,1625112503761093199,0,0.3896,-0.311,0.801,809,-9.0332,60.5469,45.8374,90,1.2986,1.0665,-16.4704,-39.2648,28,0.039,7972,3.927,-139.6145
lg,1625112503761121106,0,0.3843,-0.3179,0.8276,810,28.9307,16.4185,49.3164,90,1.2986,1.0665,-15.031,-37.7431,28,0.04,8646,3.927,-138.6405
lg,1625112503761151143,0,0.7205,-0.1538,0.6729,811,68.9697,-14.5264,55.9692,90,1.2996,1.0665,-15.3762,-34.8772,28,0.04,7984,3.927,-136.6316
lg,1625112503761178476,0,0.8572,-0.041,0.6147,812,75.5005,-21.6675,47.4854,90,1.3006,1.0665,-16.5222,-31.7277,28,0.041,8026,3.927,-134.724
lg,1625112503761204661,0,1.0518,0.0203,0.6001,813,59.2041,11.9629,33.4473,90,1.2996,1.0665,-17.0494,-28.9744,28,0.041,8090,3.927,-134.0046
lg,1625112503761232513,0,0.6985,0.0059,0.7058,814,39.3066,59.9976,11.0474,90,1.3006,1.0665,-15.8323,-26.3542,28,0.042,8139,3.927,-135.0368
lg,1625112503761260439,0,0.3247,0.0361,0.7788,815,32.7148,77.9419,-1.5869,90,1.3006,1.0665,-12.84,-23.5801,28,0.042,8115,3.927,-136.7612
lg,1625112503761288050,0,0.0315,0.0264,0.8738,816,23.9868,31.25,5.9814,90,1.2996,1.0675,-11.2169,-21.5737,28,0.041,8116,3.927,-137.2439
lg,1625112503761352235,0,0.4038,-0.0527,0.9651,817,15.2588,-58.7769,12.3291,90,1.3006,1.0675,-13.692,-20.569,28,0.042,8124,3.927,-136.0437
lg,1625112503761379754,0,0.5852,-0.0459,0.9702,818,16.9678,-76.1108,12.6953,90,1.3006,1.0675,-17.302,-19.6704,28,0.041,8135,3.927,-134.6216
lg,1625112503761405884,0,0.7961,0.0107,0.9053,819,17.0288,-62.3779,11.4136,90,1.3016,1.0685,-20.4458,-18.7872,28,0.043,8234,3.927,-133.4931
lg,1625112503761433235,0,0.8433,0.0596,0.8257,820,5.7983,-24.4751,9.8267,90,1.3006,1.0675,-22.2447,-18.1521,28,0.044,8245,3.927,-133.0014
lg,1625112503761459717,0,0.6433,0.0464,0.7944,821,-2.2583,-7.7515,7.019,90,1.3016,1.0685,-22.9286,-17.9396,28,0.045,8264,3.927,-133.1423
lg,1625112503761485847,0,0.5767,-0.0078,0.7881,822,-17.0898,-0.6714,3.1738,90,1.3016,1.0665,-23.4615,-18.0773,28,0.045,8268,3.927,-133.2373
lg,1625112503761512680,0,0.5801,-0.0776,0.7617,823,-20.6299,-7.5684,3.1738,90,1.3016,1.0675,-24.255,-18.5714,28,0.045,8254,3.927,-133.1696
lg,1625112503761540828,0,0.6025,-0.1155,0.7354,824,-18.9209,-15.686,1.0986,90,1.3016,1.0675,-25.4128,-19.1092,28,0.046,8310,3.927,-133.0342
lg,1625112503761568680,0,0.6345,-0.137,0.71,825,-15.625,-21.9727,-1.5869,90,1.3026,1.0685,-26.8795,-19.5709,28,0.046,11000,3.927,-132.8926
lg,1625112503761594791,0,0.6428,-0.1626,0.7212,826,-10.6201,-26.8555,-4.0283,90,1.3026,1.0685,-28.4917,-19.869,28,0.045,8972,3.927,-132.7597
lg,1625112503761622384,0,0.6492,-0.168,0.7095,827,-7.6294,-30.0903,-3.7842,90,1.3026,1.0685,-30.1836,-20.0975,28,0.045,8408,3.927,-132.5577
lg,1625112503761671680,0,0.6472,-0.137,0.6985,828,-1.2817,-33.02,-3.1128,90,1.3026,1.0685,-31.9375,-20.0385,28,0.045,8479,3.927,-132.3221
lg,1625112503761701254,0,0.6614,-0.1226,0.7136,829,0.7324,-38.7573,-2.3193,90,1.3036,1.0695,-33.8355,-19.933,28,0.046,8462,3.927,-131.9862
lg,1625112503761726643,0,0.7375,-0.155,0.751,830,3.2959,-46.3257,-0.6104,90,1.3026,1.0685,-35.9721,-19.9334,28,0.046,9202,3.927,-131.4051
lg,1625112503761755513,0,0.8174,-0.1296,0.7615,831,4.5166,-50.1099,-1.5869,90,1.3016,1.0695,-38.1281,-19.7988,28,0.046,8835,3.927,-130.859
lg,1625112503761782402,0,0.8472,-0.1179,0.7595,832,5.7983,-40.9546,-1.4648,90,1.3026,1.0685,-40.0672,-19.5905,28,0.047,8671,3.927,-130.4532
lg,1625112504131290112,0,0.7915,-0.0964,0.7874,833,1.5869,-5.3711,-0.8545,90,1.3026,1.0695,-40.4856,-19.0923,28,0.045,24414,3.927,-130.7067
lg,1625112504131327279,0,0.7351,-0.1077,0.771,834,-0.1831,2.5024,-0.061,90,1.3016,1.0695,-40.5142,-18.6427,28,0.045,9466,3.927,-131.0332
lg,1625112504131348020,0,0.6892,-0.1228,0.7632,835,0.2441,3.2959,0.4272,90,1.3026,1.0695,-40.4357,-18.2363,28,0.046,13501,3.927,-131.3131
lg,1625112504131368538,0,0.6941,-0.1272,0.7275,836,1.2817,0.4272,-0.2441,90,1.3026,1.0695,-40.5323,-17.8512,28,0.045,8046,3.927,-131.5433
lg,1625112504131387871,0,0.679,-0.1187,0.7136,837,3.418,0.061,-1.2207,90,1.3026,1.0695,-40.6491,-17.349,28,0.046,8006,3.927,-131.8198
lg,1625112504131406520,0,0.6709,-0.0996,0.7065,838,2.8687,-0.3662,-1.8921,90,1.3026,1.0695,-40.7896,-16.816,28,0.048,9650,3.927,-132.1471
lg,1625112504131459446,0,0.6743,-0.0938,0.7109,839,2.8687,-1.2207,-3.54,90,1.3026,1.0695,-40.9751,-16.2361,28,0.046,8104,3.927,-132.5465
lg,1625112504131478853,0,0.6804,-0.1108,0.7593,840,2.9907,0.7935,-4.2114,90,1.3026,1.0695,-41.0129,-15.6517,28,0.047,9586,3.927,-132.9831
lg,1625112504131496575,0,0.679,-0.1077,0.7664,841,4.9438,5.5542,-4.3945,90,1.3016,1.0685,-40.8538,-14.9499,28,0.047,8677,3.927,-133.4896
lg,1625112504131513779,0,0.6421,-0.0913,0.7786,842,7.1411,10.498,-5.6152,90,1.3016,1.0685,-40.4447,-14.0504,28,0.047,8407,3.927,-134.139
lg,1625112504131530816,0,0.6033,-0.0896,0.7737,843,7.4463,11.6577,-6.1035,90,1.3016,1.0685,-39.9346,-13.1325,27,0.046,8186,3.927,-134.8187
lg,1625112504131547742,0,0.5906,-0.1035,0.7751,844,7.8125,9.2163,-7.9956,90,1.3016,1.0685,-39.5273,-12.2636,27,0.044,8179,3.927,-135.4802
lg,1625112504131564723,0,0.5916,-0.1013,0.7617,845,8.0566,0.7324,-8.5449,90,1.3016,1.0685,-39.4847,-11.4674,27,0.04,8254,3.927,-136.0469
lg,1625112504131581205,0,0.6648,-0.0776,0.7607,846,8.606,-7.2021,-11.7798,90,1.3026,1.0685,-39.909,-10.5626,28,0.042,8235,3.927,-136.721
lg,1625112504131598445,0,0.7275,-0.0664,0.7373,847,6.1035,-9.6436,-16.3574,90,1.3026,1.0695,-40.575,-9.6255,28,0.041,13300,3.927,-137.6119
lg,1625112504131615575,0,0.7271,-0.0515,0.7393,848,2.3804,-8.2397,-22.0947,90,1.3026,1.0695,-41.1842,-8.6041,28,0.042,8389,3.927,-138.8419
lg,1625112504131632427,0,0.6528,-0.0457,0.7383,849,-0.6714,-5.4932,-27.5269,90,1.3016,1.0695,-41.5559,-7.493,28,0.043,8371,3.927,-140.3923
lg,1625112504131650649,0,0.6726,-0.0486,0.7297,850,-2.3193,-6.6528,-27.5879,90,1.3026,1.0695,-42.0948,-6.5604,28,0.043,8366,3.927,-141.9253
lg,1625112504131667816,0,0.6692,-0.0586,0.7263,851,-6.7749,-10.3149,-30.2124,90,1.3026,1.0695,-42.6381,-5.6933,28,0.044,8518,3.927,-143.5499
lg,1625112504131686112,0,0.6531,-0.0862,0.7625,852,-8.7891,-13.6108,-31.7993,90,1.3036,1.0695,-43.1942,-4.9403,28,0.044,9002,3.927,-145.194
lg,1625112504131703594,0,0.6558,-0.0908,0.7632,853,-6.6528,-18.3716,-32.5317,90,1.3016,1.0685,-43.9055,-4.1007,28,0.044,8969,3.927,-146.8555
lg,1625112504131721408,0,0.6423,-0.092,0.7734,854,-5.4932,-22.3999,-31.0059,90,1.3026,1.0685,-44.6893,-3.2804,28,0.044,8469,3.927,-148.4278
lg,1625112504131738427,0,0.6807,-0.0906,0.7734,855,-4.3335,-24.5972,-28.8086,90,1.3026,1.0695,-45.6578,-2.521,28,0.044,8575,3.927,-149.8022
lg,1625112504131755723,0,0.6765,-0.0901,0.7803,856,-1.77,-27.71,-24.5972,90,1.3026,1.0705,-46.591,-1.7867,28,0.044,8528,3.927,-151.0366
lg,1625112504131772519,0,0.7302,-0.0889,0.7336,857,-0.9766,-26.001,-19.3481,90,1.3026,1.0695,-47.5586,-1.2332,28,0.044,8561,3.927,-151.9806
lg,1625112504131789001,0,0.7488,-0.0903,0.741,858,-0.6714,-22.1558,-14.0991,90,1.3016,1.0705,-48.3432,-0.8904,28,0.043,8616,3.927,-152.6228
lg,1625112504131845538,0,0.7708,-0.095,0.7322,859,-0.8545,-17.5171,-9.4604,90,1.3026,1.0695,-48.9539,-0.7746,28,0.044,8564,3.927,-152.9788
lg,1625112504131916482,0,0.7856,-0.1021,0.7397,860,0.061,-14.0381,-8.9722,90,1.3026,1.0695,-49.2096,-0.6689,28,0.044,8575,3.927,-153.2032
lg,1625112504131935723,0,0.7725,-0.105,0.7383,861,3.7231,-8.1787,-7.2021,90,1.3026,1.0705,-49.4064,-0.5022,28,0.044,8611,3.927,-153.4019
lg,1625112504131984501,0,0.7722,-0.0974,0.7251,862,7.2632,-4.8828,-5.6152,90,1.3016,1.0705,-49.4836,-0.2514,28,0.044,8655,3.927,-153.5166
