name,time,activity,ax,ay,az,batch_val,gx,gy,gz,ibat,index,middle,pitch,roll,temp,thumb,ts,vbat,yaw
lg,1625145763631213042,0,0.4912,-0.2217,0.8967,1,-26.6724,41.5039,30.6396,84,1.1235,0.8864,-13.1335,-18.3998,26,0.003,19128,3.9721,170.5268
lg,1625145763631261261,0,0.4253,-0.189,0.8379,2,-24.8413,43.9453,29.2358,84,1.1225,0.8854,-11.616,-19.2983,26,0.004,8503,3.9721,171.0314
lg,1625145763631282492,0,0.4084,-0.1716,0.8113,3,-26.123,41.748,29.8462,84,1.1235,0.8834,-10.2639,-20.1717,26,0.005,7708,3.9721,-188.453
lg,1625145763631301817,0,0.3855,-0.1724,0.8,4,-29.6021,38.5742,30.7617,84,1.1235,0.8824,-8.9789,-21.1603,25,0.003,7870,3.9721,-187.8886
lg,1625145763631320734,0,0.3975,-0.2258,0.834,5,-34.4238,27.71,27.832,84,1.1235,0.8824,-8.1552,-22.4041,25,0.002,7818,3.9721,-187.2901
lg,1625145763631339800,0,0.3767,-0.2517,0.8423,6,-34.6069,22.1558,25.9399,84,1.1235,0.8814,-7.5252,-23.6516,25,0.002,7908,3.9721,-186.7031
lg,1625145763631357310,0,0.3691,-0.2825,0.8701,7,-33.5693,9.9487,23.0103,84,1.1235,0.8804,-7.3509,-24.8639,25,0.001,7765,3.9721,-186.0459
lg,1625145763631376709,0,0.3899,-0.2622,0.8303,8,-31.9824,-4.2725,22.2778,84,1.1235,0.8804,-7.7771,-25.9838,26,0.001,7953,3.9721,-185.19
lg,1625145763631393553,0,0.4011,-0.502,0.9055,9,-18.2495,-86.853,12.5122,162,1.1095,0.8774,-11.1705,-27.1527,26,0.028,12078,3.8786,-183.1382
lg,1625145763631412137,0,0.6245,-0.5068,0.863,10,-22.8271,-92.6514,12.4512,162,1.1095,0.8784,-14.5922,-28.7765,26,0.028,8064,3.8786,-181.0342
lg,1625145763631430925,0,0.625,-0.457,0.8027,11,-33.8135,-68.1152,13.3667,162,1.1085,0.8784,-17.435,-30.6723,26,0.026,8023,3.8786,-179.1245
lg,1625145763631449176,0,0.5623,-0.4578,0.8115,12,-62.6831,-48.5229,16.3574,162,1.1065,0.8774,-19.2539,-33.6502,26,0.027,7915,3.8786,-177.4521
lg,1625145763631466169,0,0.5779,-0.5347,0.8242,13,-72.0825,-46.3867,15.8691,162,1.1045,0.8764,-20.828,-37.1979,26,0.026,8100,3.8786,-175.9221
lg,1625145763631483568,0,0.5916,-0.6619,0.8933,14,-70.4956,-39.1846,4.7607,162,1.1015,0.8754,-22.2014,-40.4236,26,0.026,8015,3.8786,-174.7083
lg,1625145763631501356,0,0.2573,-1.0874,1.1079,15,1.5869,-18.5547,-24.4751,162,1.1005,0.8764,-22.8923,-40.411,26,0.026,8111,3.8786,-174.9293
lg,1625145763631519719,0,0.1443,-0.8474,0.6414,16,43.5791,-32.2876,-39.6729,162,1.0995,0.8764,-25.2931,-38.5214,26,0.026,8039,3.8786,-174.684
lg,1625145763631536840,0,0.6265,-0.6086,0.7654,17,44.1284,-53.5889,-34.729,162,1.0985,0.8774,-28.1104,-36.8541,26,0.026,8206,3.8786,-174.451
lg,1625145763631554906,0,0.5044,-0.4209,0.6316,18,54.7485,-2.5635,-32.2876,162,1.0975,0.8774,-29.1513,-33.9959,26,0.025,8023,3.8786,-175.6492
lg,1625145763631572380,0,0.3416,-0.2581,0.5339,19,51.9409,10.8032,-28.7476,162,1.0965,0.8774,-29.1703,-31.2975,26,0.024,8228,3.8786,-177.0795
lg,1625145763631589317,0,0.2983,-0.2568,0.5259,20,32.2876,18.0054,-15.1978,162,1.0965,0.8774,-28.7682,-29.2978,26,0.025,8079,3.8786,-178.2033
lg,1625145763631605976,0,0.2529,-0.2288,0.5674,21,9.6436,17.1509,4.6997,162,1.0955,0.8774,-27.8315,-28.5115,26,0.024,8253,3.8786,-178.5443
lg,1625145763631623894,0,0.3923,-0.2332,0.6006,22,-12.5122,3.6011,21.3013,162,1.0955,0.8774,-27.4356,-29.0795,26,0.026,8062,3.8786,-177.9144
lg,1625145763631641330,0,0.5317,-0.2681,0.6497,23,-24.7192,-0.3662,26.123,162,1.0955,0.8774,-27.472,-30.8848,26,0.026,8251,3.8786,-176.9145
lg,1625145763631658619,0,0.8179,-0.5354,0.9053,24,-38.5742,0.7324,20.6909,162,1.0955,0.8744,-26.7404,-32.2392,26,0.027,8642,3.8786,-176.838
lg,1625145763631675519,0,0.7715,-0.6875,1.0623,25,-15.564,49.1943,6.1035,162,1.0945,0.8744,-25.1329,-32.4639,26,0.026,8413,3.8786,-177.7768
lg,1625145763631691993,0,0.3325,-0.9443,1.1372,26,36.6821,76.416,-16.0522,162,1.0985,0.8784,-22.3873,-30.3579,26,0.028,8275,3.8786,-179.9839
lg,1625145763631709559,0,0.0293,-0.8179,0.9854,27,90.0269,57.8613,-20.0806,162,1.0985,0.8764,-19.9411,-26.4663,25,0.027,8507,3.8786,-181.7458
lg,1625145763631726588,0,0.032,-0.5339,0.8418,28,103.9429,35.2783,-14.1602,162,1.1045,0.8764,-18.3641,-21.9054,25,0.024,8497,3.8786,-182.8986
lg,1625145763631743636,0,0.2087,-0.3225,0.6865,29,88.3179,-11.5356,1.6479,162,1.1075,0.8764,-18.6521,-18.5857,25,0.027,8559,3.8786,-182.6209
lg,1625145763631760814,0,0.5159,-0.3289,0.7026,30,54.5044,-34.729,16.2964,162,1.1075,0.8764,-20.3556,-17.0024,25,0.026,8356,3.8786,-181.4482
lg,1625145763631777750,0,0.7234,-0.3308,0.7449,31,30.8228,-12.146,23.9258,162,1.1105,0.8774,-21.3654,-16.39,26,0.025,8662,3.8786,-180.247
lg,1625145763631794650,0,0.7417,-0.3643,0.7146,32,18.3716,11.5967,24.0479,162,1.1095,0.8774,-21.2182,-16.4713,26,0.021,8452,3.8786,-179.2123
lg,1625145763733438286,0,0.0715,-0.3223,0.7112,33,3.418,37.1704,18.9819,162,1.1135,0.8784,-18.9609,-16.7711,26,0.021,23604,3.8786,-178.7742
lg,1625145763733485820,0,0.1887,-0.4465,0.8152,34,-14.4653,-11.1084,20.3247,162,1.1145,0.8794,-18.8528,-18.1397,26,0.023,10440,3.8786,-177.6583
lg,1625145763733508421,0,0.3923,-0.4932,0.8662,35,-17.334,-34.729,18.6157,162,1.1155,0.8794,-20.0312,-19.6811,26,0.023,10184,3.8786,-176.2864
lg,1625145763733528394,0,0.4407,-0.5337,0.9062,36,-20.5688,-36.3159,16.7236,162,1.1155,0.8804,-21.2062,-21.4404,26,0.022,7994,3.8786,-175.0862
lg,1625145763733548274,0,0.45,-0.5808,0.9641,37,-25.0244,-35.4004,7.6904,162,1.1135,0.8794,-22.42,-23.1405,26,0.022,8229,3.8786,-174.0622
lg,1625145763733568098,0,0.4067,-0.4785,0.8821,38,-25.2686,-41.4429,-1.4038,162,1.1135,0.8804,-23.9337,-24.6196,26,0.024,8581,3.8786,-173.306
lg,1625145763733586738,0,0.4768,-0.2581,0.7131,39,-41.748,-48.8892,-8.4839,162,1.1125,0.8804,-26.1578,-26.3545,26,0.027,7966,3.8786,-172.781
lg,1625145763733604933,0,0.5208,-0.2402,0.7278,40,-65.0024,-40.2222,-9.5215,162,1.1095,0.8804,-28.0732,-28.8536,26,0.025,7915,3.8786,-172.4472
lg,1625145763733623554,0,0.3542,-0.6111,0.8755,41,-96.8628,-15.8691,-13.0615,162,1.1065,0.8794,-28.4947,-32.8904,26,0.029,7892,3.8786,-172.4811
lg,1625145763733641991,0,0.1025,-0.7766,0.8865,42,-98.1445,-15.1367,-18.6157,162,1.1035,0.8784,-29.041,-36.8644,26,0.028,8009,3.8786,-172.3893
lg,1625145763733660445,0,0.1265,-0.6943,1.0796,43,-77.5146,-48.7671,-22.1558,162,1.0995,0.8764,-30.2077,-40.0398,26,0.024,7959,3.8786,-171.9099
lg,1625145763733678178,0,-0.0144,-0.9229,0.7634,44,29.1748,-78.3081,-48.3398,162,1.0995,0.8784,-32.6818,-39.6682,26,0.025,8518,3.8786,-171.0414
lg,1625145763733695633,0,0.4548,-0.4272,0.7915,45,33.7524,-93.4448,-36.9263,162,1.0985,0.8764,-36.2695,-38.6661,26,0.024,8035,3.8786,-169.8196
lg,1625145763733713144,0,0.6526,-0.1748,0.458,46,35.8887,-79.9561,-29.6021,162,1.0935,0.8774,-38.8813,-37.5023,26,0.025,8380,3.8786,-169.2035
lg,1625145763733731191,0,0.6396,-0.0793,0.5508,47,11.7798,-23.3765,-2.3804,162,1.0965,0.8784,-40.1836,-36.4732,26,0.025,8671,3.8786,-169.1817
lg,1625145763733750590,0,0.5103,-0.5295,0.7537,48,-19.4702,-4.3945,6.2866,162,1.0955,0.8784,-39.7226,-37.4292,25,0.025,8338,3.8786,-168.8339
lg,1625145763733770303,0,0.5188,-0.5056,0.7246,49,-15.8081,-3.2349,11.6577,162,1.0945,0.8774,-39.164,-38.3022,25,0.024,8757,3.8786,-168.337
lg,1625145763733788166,0,0.6287,-0.52,0.7559,50,-21.1792,2.1362,12.3291,162,1.0945,0.8784,-38.5957,-39.2416,25,0.024,8317,3.8786,-168.0231
lg,1625145763733806268,0,0.6619,-0.5173,0.7595,51,-21.6064,7.5684,13.2446,162,1.0955,0.8784,-37.9107,-40.0554,26,0.026,8192,3.8786,-167.8883
lg,1625145763733823520,0,0.7085,-0.5195,0.79,52,-22.583,29.7241,15.0146,162,1.0945,0.8784,-36.375,-40.5372,26,0.024,10594,3.8786,-168.3973
lg,1625145763733841216,0,0.5452,-0.6655,0.8994,53,-13.3057,53.894,11.2915,162,1.0965,0.8784,-34.0376,-40.1375,26,0.026,8213,3.8786,-169.8022
lg,1625145763733859041,0,0.2971,-0.8225,1.0745,54,18.7988,59.4482,6.5918,162,1.0985,0.8784,-31.1998,-38.4263,26,0.025,8425,3.8786,-171.4153
lg,1625145763733877570,0,0.1108,-0.897,0.9124,55,64.0259,32.0435,-3.418,162,1.1015,0.8784,-29.2668,-35.6414,26,0.028,8252,3.8786,-172.2689
lg,1625145763733895710,0,0.167,-0.7119,0.8623,56,80.0781,8.8501,0.3662,162,1.1045,0.8784,-28.1609,-32.524,26,0.027,8265,3.8786,-172.3745
lg,1625145763733914294,0,0.3882,-0.5073,0.7288,57,80.5054,-21.2402,5.127,162,1.1065,0.8774,-28.593,-29.7362,26,0.027,8386,3.8786,-171.6274
lg,1625145763733931823,0,0.533,-0.5361,0.7241,58,66.8335,-21.9116,7.5684,162,1.1085,0.8784,-29.2925,-27.7067,26,0.028,8271,3.8786,-170.7193
lg,1625145763733948982,0,0.572,-0.3098,0.6704,59,59.9976,-17.8833,8.0566,162,1.1105,0.8784,-30.0582,-25.8221,26,0.028,8478,3.8786,-170.0734
lg,1625145763733966918,0,0.696,-0.1677,0.6084,60,35.0342,-18.6157,9.5215,162,1.1105,0.8794,-31.2613,-24.4854,26,0.027,8387,3.8786,-169.4789
lg,1625145763733984077,0,0.6902,-0.4436,0.8555,61,-1.8311,9.7046,2.4414,162,1.1125,0.8804,-31.0342,-24.6173,26,0.027,9566,3.8786,-169.5106
lg,1625145763734001718,0,0.4795,-0.3718,0.6838,62,-15.9912,28.9307,-6.7139,162,1.1115,0.8814,-30.1193,-24.9695,26,0.029,8421,3.8786,-170.2841
lg,1625145763734019099,0,0.2373,-0.4502,0.7192,63,-49.3774,32.5317,-14.4653,162,1.1115,0.8814,-28.637,-26.6221,26,0.029,8611,3.8786,-171.3906
lg,1625145763734038331,0,-0.0496,-0.5415,0.7932,64,-58.6548,25.5737,-15.2588,162,1.1085,0.8814,-27.3504,-29.2195,26,0.028,8443,3.8786,-172.1014
lg,1625145763952307559,0,0.4011,-0.5583,0.6609,65,42.4194,-87.4023,-36.2549,173,1.1065,0.8864,-33.2132,-23.7244,26,0.025,20955,3.8731,-148.6603
lg,1625145763952404053,0,0.7346,-0.3821,0.5791,66,38.0249,-67.627,-19.9585,173,1.1035,0.8844,-36.5282,-22.7513,26,0.028,8845,3.8731,-148.0807
lg,1625145763952425525,0,0.7852,-0.1934,0.5681,67,31.311,-40.4053,-10.7422,173,1.1035,0.8844,-38.7959,-21.5346,26,0.028,8200,3.8731,-147.8953
lg,1625145763952445849,0,0.5449,-0.2595,0.6919,68,-0.061,12.0239,-1.0376,173,1.1045,0.8874,-38.2611,-21.3193,26,0.03,8771,3.8731,-148.2002
lg,1625145763952466802,0,0.3865,-0.4067,0.7231,69,-7.5073,19.4092,10.1318,173,1.1025,0.8854,-36.8748,-22.0417,26,0.03,8070,3.8731,-147.8693
lg,1625145763952485202,0,0.5691,-0.4531,0.7625,70,-10.2539,11.1084,14.0381,173,1.1045,0.8854,-36.0406,-23.3182,26,0.03,8189,3.8731,-147.067
lg,1625145763952502860,0,0.6553,-0.4275,0.7559,71,-17.4561,13.916,17.7612,173,1.1005,0.8834,-35.2602,-24.515,26,0.031,8710,3.8731,-146.4293
lg,1625145763952520593,0,0.6741,-0.4836,0.8416,72,-21.4233,36.0107,19.165,173,1.1035,0.8854,-33.6138,-25.6302,26,0.032,8165,3.8731,-146.2121
lg,1625145763952588748,0,0.4177,-0.5471,0.8879,73,-17.9443,63.4155,19.4092,173,1.1045,0.8844,-30.5409,-26.337,26,0.032,13225,3.8731,-146.5676
lg,1625145763952611867,0,0.3601,-0.5527,0.8755,74,-11.2915,60.4858,18.0054,173,1.1045,0.8844,-27.6178,-26.7883,26,0.033,8039,3.8731,-146.9492
lg,1625145763952630618,0,0.229,-0.5715,0.9639,75,6.0425,46.5698,17.0288,173,1.1055,0.8844,-25.0245,-26.5954,26,0.033,8136,3.8731,-147.1307
lg,1625145763952657513,0,0.1184,-0.7854,0.875,76,36.1328,14.4653,6.1646,173,1.1075,0.8824,-23.6804,-25.7896,26,0.033,8037,3.8731,-146.8862
lg,1625145763952678096,0,0.2332,-0.6951,0.8779,77,48.4619,-9.2163,10.2539,173,1.1085,0.8794,-23.8581,-24.2218,26,0.033,8232,3.8731,-146.2561
lg,1625145763952696958,0,0.5256,-0.3972,0.7532,78,60.0586,-30.3345,14.2212,173,1.1075,0.8754,-25.0463,-22.4075,26,0.03,8795,3.8731,-145.1071
lg,1625145763952715413,0,0.5686,-0.5994,0.7974,79,51.0254,-14.2212,12.5122,173,1.1075,0.8754,-25.5914,-21.2336,26,0.028,8912,3.8731,-144.1295
lg,1625145763952733386,0,0.5361,-0.4458,0.7312,80,55.8472,0.1221,12.9395,173,1.1135,0.8794,-25.6692,-19.6072,26,0.028,8243,3.8731,-143.4367
lg,1625145763952754599,0,0.3923,-0.3171,0.7007,81,42.7856,11.7798,13.4888,173,1.1145,0.8794,-25.1013,-18.2507,26,0.027,11168,3.8731,-142.9638
lg,1625145763952772794,0,0.2678,-0.3716,0.7776,82,26.062,1.2207,16.2964,173,1.1165,0.8804,-24.5454,-17.7904,26,0.021,11343,3.8731,-142.1681
lg,1625145763952792193,0,0.4475,-0.4795,0.8184,83,5.188,-18.3716,21.9116,173,1.1175,0.8804,-25.008,-18.5615,26,0.023,8275,3.8731,-140.7924
lg,1625145763952814331,0,0.5708,-0.4453,0.9272,84,4.9438,-20.1416,16.8457,173,1.1165,0.8814,-25.7081,-19.0562,26,0.023,8315,3.8731,-139.6836
lg,1625145763952833100,0,0.5955,-0.3557,0.8875,85,4.0283,-15.625,13.2446,173,1.1175,0.8824,-26.3607,-19.3396,26,0.024,8295,3.8731,-138.8532
lg,1625145763952850648,0,0.4753,-0.4343,0.8345,86,-5.6763,-10.1318,1.5869,173,1.1165,0.8834,-26.7381,-19.9798,26,0.028,8417,3.8731,-138.4915
lg,1625145763952868862,0,0.4575,-0.2554,0.7334,87,-17.5171,-15.4419,-6.958,173,1.1155,0.8834,-27.5532,-20.6185,26,0.029,8435,3.8731,-138.5586
lg,1625145763952890038,0,0.2456,-0.2981,0.74,88,-78.3691,6.5308,-13.916,108,1.1125,0.8834,-27.1033,-23.4689,26,0.025,13916,3.9325,-139.2381
lg,1625145763952910436,0,0.0393,-0.4719,0.8252,89,-92.8955,9.6436,-13.7939,108,1.1105,0.8824,-26.0405,-27.0952,26,0.023,8421,3.9325,-139.8884
lg,1625145763952935443,0,-0.1294,-0.6145,0.9976,90,-90.9424,-38.0859,-9.0942,108,1.1085,0.8814,-26.3241,-31.099,26,0.022,8539,3.9325,-139.3749
lg,1625145763952955878,0,-0.1196,-0.9734,1.0078,91,0,-91.5527,-31.25,108,1.1075,0.8814,-28.9224,-32.1044,26,0.026,8513,3.9325,-138.1596
lg,1625145763952974000,0,0.4766,-0.365,0.7961,92,22.7051,-127.9297,-22.583,108,1.1065,0.8814,-33.6947,-32.0757,26,0.024,8544,3.9325,-136.0136
lg,1625145763952992529,0,0.6851,-0.3611,0.6628,93,22.2778,-117.4316,-16.6626,108,1.1045,0.8804,-37.5106,-32.3227,26,0.023,8746,3.9325,-134.2194
lg,1625145763953011502,0,0.8154,-0.1396,0.6533,94,3.6011,-45.5933,0.3052,108,1.1035,0.8804,-39.5958,-32.3178,26,0.024,8935,3.9325,-133.3512
lg,1625145763953029956,0,0.4746,-0.5234,0.7922,95,-20.2026,-3.9062,2.5024,108,1.1045,0.8814,-39.1507,-33.2998,26,0.025,8658,3.9325,-133.1108
lg,1625145763953052039,0,0.5845,-0.5286,0.7588,96,-15.2588,-8.1177,10.0708,108,1.1045,0.8814,-38.9139,-34.3811,25,0.025,9236,3.9325,-132.4128
lg,1625145764319066932,0,0.5664,-0.5366,0.7759,97,-11.5967,47.4243,6.6528,108,1.1045,0.8814,-36.8852,-34.1833,26,0.027,26852,3.9325,-133.4937
lg,1625145764319112042,0,0.4648,-0.6338,0.8684,98,0.5493,57.373,4.5776,108,1.1055,0.8824,-34.3522,-33.4332,26,0.027,9032,3.9325,-134.834
lg,1625145764319133385,0,0.1548,-0.9072,0.9099,99,32.8369,53.7109,-3.6621,108,1.1095,0.8834,-32.0533,-30.9528,26,0.03,11368,3.9325,-136.1271
lg,1625145764319153210,0,0.1267,-0.7493,0.8879,100,74.4629,28.8086,-9.5215,108,1.1105,0.8834,-30.4324,-27.5709,26,0.031,8159,3.9325,-137.0866
lg,1625145764319172591,0,0.2712,-0.4294,0.7576,101,85.083,-12.5122,-3.418,108,1.1135,0.8844,-30.4185,-24.3244,25,0.031,7905,3.9325,-136.9161
lg,1625145764319190805,0,0.5334,-0.4492,0.7239,102,68.2983,-36.438,5.7983,108,1.1145,0.8854,-31.7243,-22.3644,25,0.029,8035,3.9325,-135.8454
lg,1625145764319208335,0,0.6472,-0.4221,0.7285,103,61.4014,-33.8745,9.7656,108,1.1165,0.8854,-33.1473,-20.7011,25,0.029,7961,3.9325,-134.7015
lg,1625145764319225606,0,0.6702,-0.3401,0.7161,104,40.4663,-7.8125,11.1694,108,1.1175,0.8854,-33.5209,-19.4866,25,0.028,9824,3.9325,-134.0438
lg,1625145764319242413,0,0.6953,-0.3608,0.7913,105,11.7798,6.5918,9.8267,108,1.1165,0.8854,-33.3401,-19.3843,25,0.029,8510,3.9325,-133.6047
lg,1625145764319259591,0,0.5662,-0.3621,0.8594,106,1.0986,23.0713,4.5776,108,1.1165,0.8854,-32.3241,-19.3877,25,0.028,8099,3.9325,-133.6913
lg,1625145764319276288,0,0.4419,-0.2803,0.7087,107,-2.9297,25.2075,1.4038,108,1.1165,0.8864,-31.428,-19.856,25,0.03,7987,3.9325,-134.1425
lg,1625145764319294687,0,0.3623,-0.3821,0.7236,108,-38.208,23.1323,-6.897,108,1.1155,0.8864,-30.3658,-21.3565,26,0.031,8081,3.9325,-134.6555
lg,1625145764319312273,0,0.0034,-0.3347,0.7341,109,-75.9888,10.9863,-5.4321,108,1.1145,0.8854,-28.9049,-24.2945,26,0.03,12245,3.9325,-135.0455
lg,1625145764319329136,0,-0.0876,-0.3767,0.7871,110,-93.3838,-8.2397,-2.0752,108,1.1115,0.8844,-27.9418,-28.0822,26,0.027,8125,3.9325,-134.9868
lg,1625145764319346647,0,0.0962,-0.6487,1.1506,111,-106.6284,-84.1675,4.6387,108,1.1085,0.8834,-29.8035,-33.3972,26,0.023,8159,3.9325,-132.8563
lg,1625145764319363177,0,0.2854,-1.3259,1.1528,112,2.8687,-127.5024,-33.7524,108,1.1075,0.8824,-33.983,-35.0695,26,0.027,8256,3.9325,-130.438
lg,1625145764319379541,0,0.5952,-0.7817,0.6433,113,50.7812,-134.7046,-40.0391,108,1.1065,0.8834,-38.7979,-33.9033,26,0.028,8401,3.9325,-128.8697
lg,1625145764319396367,0,0.8491,-0.2903,0.5259,114,65.6128,-45.4712,-30.6396,108,1.1045,0.8824,-41.5895,-31.0672,26,0.029,9442,3.9325,-129.0597
lg,1625145764319413100,0,0.7529,-0.1226,0.5486,115,53.0396,-7.0801,-22.8882,108,1.1035,0.8814,-41.3788,-28.3066,26,0.027,8707,3.9325,-130.7003
lg,1625145764319429612,0,0.4387,-0.2891,0.5684,116,22.1558,36.499,-8.1787,108,1.1035,0.8804,-39.9612,-26.5313,26,0.028,8368,3.9325,-132.015
lg,1625145764319446179,0,0.4753,-0.2483,0.5557,117,4.7607,36.9873,3.9062,108,1.1035,0.8814,-38.4856,-25.8153,26,0.028,8249,3.9325,-132.7504
lg,1625145764319462265,0,0.5447,-0.4211,0.7434,118,-14.7705,35.7056,6.958,108,1.1035,0.8814,-36.845,-26.2601,26,0.027,8734,3.9325,-133.1386
lg,1625145764319479091,0,0.5796,-0.552,0.8276,119,-17.5781,34.668,4.5776,108,1.1025,0.8804,-35.2698,-26.7313,25,0.027,8285,3.9325,-133.6826
lg,1625145764319495492,0,0.6077,-0.6355,0.8928,120,-6.3477,40.2222,-4.0894,108,1.1025,0.8794,-33.6717,-26.7426,25,0.03,8486,3.9325,-134.5345
lg,1625145764319511614,0,0.4744,-0.613,0.8784,121,12.207,51.5747,-8.1787,108,1.1025,0.8794,-31.5962,-25.8266,25,0.029,8363,3.9325,-135.7774
lg,1625145764319529329,0,0.356,-0.5364,0.9014,122,33.0811,51.2085,-4.2725,108,1.1045,0.8804,-29.3147,-24.1192,25,0.03,8535,3.9325,-136.8461
lg,1625145764319545952,0,0.2649,-0.595,0.9353,123,40.9546,42.8467,-4.8218,108,1.1065,0.8804,-27.5923,-22.0843,26,0.032,8351,3.9325,-137.2899
lg,1625145764319562797,0,0.1858,-0.7368,0.8362,124,68.6646,14.4043,-6.5918,108,1.1075,0.8794,-26.5039,-19.948,26,0.032,8610,3.9325,-137.3989
lg,1625145764319580160,0,0.3643,-0.5203,0.8069,125,83.1299,-24.1699,0.8545,108,1.1095,0.8804,-27.1998,-17.3345,26,0.03,8425,3.9325,-136.7733
lg,1625145764319597078,0,0.6399,-0.196,0.6721,126,71.8384,-49.3164,2.8687,108,1.1105,0.8804,-29.6415,-14.7794,26,0.026,8539,3.9325,-136.0592
lg,1625145764319613868,0,0.8376,-0.0015,0.666,127,52.6123,-47.6685,6.3477,108,1.1115,0.8814,-31.6603,-13.6632,26,0.029,8444,3.9325,-135.724
lg,1625145764319637247,0,0.8879,-0.25,0.7332,128,-2.4414,3.2959,-3.1128,108,1.1105,0.8824,-32.2285,-13.8203,26,0.029,8666,3.9325,-135.8213
lg,1625145764674061179,0,-0.1042,-0.4502,0.8884,129,-72.7539,30.3345,-12.146,108,1.1095,0.8824,-29.8109,-16.8129,26,0.03,24622,3.9325,-136.4673
lg,1625145764674099792,0,-0.1326,-1.1531,1.4976,130,-29.2969,-57.251,-28.5034,108,1.1085,0.8824,-31.127,-18.6687,26,0.033,11548,3.9325,-136.4704
lg,1625145764674120599,0,0.6367,-0.3735,0.8179,131,78.3691,-132.3242,-52.1851,108,1.1085,0.8844,-36.929,-15.4679,25,0.032,13724,3.9325,-136.8846
lg,1625145764674140238,0,0.9504,-0.0945,0.489,132,63.9648,-67.627,-41.626,108,1.1075,0.8844,-40.8967,-11.9967,25,0.031,8130,3.9325,-138.2419
lg,1625145764674158934,0,0.8484,-0.1567,0.5225,133,45.2271,-19.5923,-39.3066,108,1.1085,0.8854,-42.0118,-9.3102,25,0.03,7807,3.9325,-139.8812
lg,1625145764674177278,0,0.3105,-0.2251,0.5781,134,26.6113,45.4712,-30.4565,108,1.1085,0.8854,-39.8221,-7.5352,25,0.029,8013,3.9325,-141.4476
lg,1625145764674194975,0,0.0461,-0.0554,0.5439,135,4.8218,28.7476,-11.4746,108,1.1085,0.8854,-37.4368,-6.782,26,0.03,7832,3.9325,-142.2625
lg,1625145764674212948,0,0.425,-0.2729,0.6895,136,-17.0288,-7.3242,-5.7983,108,1.1085,0.8854,-38.4569,-8.7807,26,0.03,8844,3.9325,-141.6911
lg,1625145764674230848,0,0.7004,-0.3838,0.8269,137,-38.9404,-52.5513,0.061,108,1.1075,0.8854,-40.5038,-11.2802,26,0.03,7954,3.9325,-140.8056
lg,1625145764674248841,0,1.0652,-0.6482,0.9866,138,-31.8604,-19.7144,-7.2021,108,1.1055,0.8844,-41.4532,-13.2853,26,0.029,8232,3.9325,-140.4058
lg,1625145764674266037,0,0.719,-0.5696,0.9009,139,-10.9253,47.3022,-16.1743,108,1.1065,0.8844,-39.5363,-13.6074,26,0.029,7973,3.9325,-141.2818
lg,1625145764674283234,0,0.5452,-0.5735,0.8965,140,-6.0425,62.6831,-15.7471,108,1.1065,0.8844,-36.8351,-13.7317,26,0.031,8151,3.9325,-142.2851
lg,1625145764674299967,0,0.3044,-0.5681,0.8867,141,7.019,55.1758,-13.0005,108,1.1065,0.8864,-34.0851,-13.5855,26,0.031,8015,3.9325,-143.0245
lg,1625145764674316719,0,0.3286,-0.624,0.979,142,25.0244,20.0806,-9.2163,108,1.1075,0.8864,-32.7412,-13.0758,26,0.032,8167,3.9325,-143.1959
lg,1625145764674333101,0,0.4077,-0.5925,0.9163,143,44.6777,8.3008,-6.4697,108,1.1085,0.8864,-32.2415,-11.9995,26,0.033,8038,3.9325,-143.0821
lg,1625145764674350094,0,0.4409,-0.5278,0.7742,144,60.5469,-4.7607,-11.0474,108,1.1085,0.8864,-32.3144,-10.2564,26,0.031,8177,3.9325,-143.0534
lg,1625145764674367365,0,0.5227,-0.4521,0.759,145,68.9697,-18.7988,-10.437,108,1.1115,0.8874,-33.1163,-8.1323,26,0.032,8039,3.9325,-142.9621
lg,1625145764674383950,0,0.5933,-0.3984,0.7551,146,69.3359,-20.6299,-10.6812,108,1.1115,0.8874,-34.103,-5.847,26,0.03,8249,3.9325,-143.0366
lg,1625145764674400462,0,0.6675,-0.4163,0.7451,147,67.1387,-11.4746,-13.1226,108,1.1125,0.8874,-34.837,-3.6948,25,0.029,8151,3.9325,-143.1446
lg,1625145764674416807,0,0.6116,-0.3965,0.7278,148,69.3359,9.3994,-14.7705,108,1.1135,0.8884,-34.6486,-1.444,25,0.031,8313,3.9325,-143.3491
lg,1625145764674433744,0,0.4038,-0.3855,0.7129,149,71.8994,27.4658,-13.4888,108,1.1145,0.8884,-33.3636,0.6753,25,0.029,8132,3.9325,-143.3669
lg,1625145764674452551,0,0.2883,-0.3711,0.7583,150,72.7539,15.9912,-8.7891,108,1.1155,0.8894,-32.277,2.6323,26,0.028,10744,3.9325,-143.1148
lg,1625145764674469877,0,0.3186,-0.3643,0.7605,151,72.4487,0.6714,-4.4556,108,1.1155,0.8894,-32.511,4.4193,26,0.028,8158,3.9325,-142.6308
lg,1625145764674487018,0,0.3975,-0.3442,0.7783,152,72.5098,-19.7754,-0.7935,108,1.1165,0.8894,-33.1289,6.2126,26,0.028,8324,3.9325,-142.1225
lg,1625145764674503937,0,0.4111,-0.3286,0.7805,153,70.9229,-31.8604,0.4883,108,1.1195,0.8904,-34.2446,7.9343,26,0.028,8244,3.9325,-141.6271
lg,1625145764674520689,0,0.481,-0.2524,0.7378,154,69.2749,-44.0063,0.7324,108,1.1195,0.8894,-35.9933,9.7953,26,0.029,11168,3.9325,-141.3175
lg,1625145764674537478,0,0.5659,-0.2375,0.7332,155,61.7065,-48.8281,-1.2817,108,1.1185,0.8914,-38.0261,11.495,26,0.03,9134,3.9325,-141.2024
lg,1625145764674554027,0,0.603,-0.2837,0.7964,156,54.8096,-43.8232,-4.8218,108,1.1195,0.8914,-39.7502,12.8986,26,0.029,8402,3.9325,-141.1585
lg,1625145764674570446,0,0.592,-0.3389,0.8508,157,54.0771,-40.4663,-7.6294,108,1.1205,0.8914,-41.008,14.3129,25,0.03,8526,3.9325,-141.2266
lg,1625145764674586568,0,0.6018,-0.3398,0.873,158,58.8989,-34.2407,-14.0381,108,1.1205,0.8924,-42.0834,15.9638,25,0.03,8428,3.9325,-141.4428
lg,1625145764674603191,0,0.6174,-0.3293,0.8733,159,69.7021,-32.959,-22.7661,108,1.1205,0.8924,-42.9845,18.3539,25,0.029,8548,3.9325,-142.1121
lg,1625145764674619980,0,0.6541,-0.3611,0.8984,160,79.7119,-25.6348,-34.4238,108,1.1195,0.8914,-43.4389,21.3978,25,0.03,8773,3.9325,-143.2187
lg,1625145765058898641,0,0.6812,-0.2561,0.8101,161,113.0981,0.061,-66.5894,108,1.1205,0.8934,-42.4647,26.6417,26,0.031,24453,3.9325,-145.4892
lg,1625145765058936255,0,0.6941,-0.186,0.7922,162,119.2627,21.3623,-81.665,108,1.1205,0.8934,-40.347,32.058,26,0.031,9891,3.9325,-147.7256
lg,1625145765058957654,0,0.6262,-0.1804,0.8079,163,122.6196,45.9595,-93.2007,108,1.1205,0.8934,-36.9763,36.9383,25,0.031,13505,3.9325,-149.2591
lg,1625145765058977776,0,0.6172,-0.1624,0.7522,164,129.3945,66.8945,-100.708,108,1.1195,0.8934,-32.8433,41.4663,25,0.031,7921,3.9325,-150.015
lg,1625145765058996324,0,0.5801,-0.2012,0.772,165,130.3101,84.9609,-107.0557,108,1.1195,0.8934,-28.049,45.3555,25,0.031,8173,3.9325,-149.9489
lg,1625145765059014317,0,0.5288,-0.2449,0.804,166,129.4556,95.52,-108.8867,108,1.1185,0.8934,-22.9547,48.7199,25,0.031,7880,3.9325,-149.2463
lg,1625145765059030903,0,0.321,-0.0588,0.6992,167,138.6108,115.6616,-101.0742,108,1.1185,0.8944,-17.3334,52.1168,25,0.032,8907,3.9325,-147.4902
lg,1625145765059048415,0,0.2002,0.0923,0.6799,168,126.4648,118.6523,-87.8906,108,1.1165,0.8934,-11.8733,55.1259,25,0.032,9670,3.9325,-145.2107
lg,1625145765059065760,0,0.1172,0.0393,0.8086,169,111.4502,109.375,-72.876,108,1.1175,0.8934,-7.0891,57.4257,25,0.032,8083,3.9325,-142.7764
lg,1625145765059082716,0,0.1223,-0.0032,0.8059,170,110.2905,100.647,-66.7725,108,1.1165,0.8934,-2.9201,59.7332,26,0.032,8013,3.9325,-140.4797
lg,1625145765059099154,0,0.1499,0.0227,0.8535,171,117.9199,80.9937,-56.3965,108,1.1155,0.8934,0.2669,62.4906,26,0.032,8122,3.9325,-138.6324
lg,1625145765059116240,0,0.157,0.0115,0.8923,172,123.7183,66.8945,-50.354,108,1.1155,0.8944,2.8361,65.4903,26,0.032,8000,3.9325,-137.1208
lg,1625145765059133326,0,0.1428,-0.0017,0.8982,173,128.6621,63.2324,-48.7671,108,1.1145,0.8944,5.2445,68.6799,26,0.032,8093,3.9325,-135.6504
lg,1625145765059151374,0,0.1152,0.033,0.9509,174,143.0664,52.063,-46.6919,108,1.1145,0.8944,7.3379,72.4489,26,0.032,8165,3.9325,-134.4957
lg,1625145765059171162,0,0.1001,0.0605,0.9636,175,163.147,40.1001,-43.457,108,1.1145,0.8944,9.1004,76.9843,26,0.032,8058,3.9325,-133.6757
lg,1625145765059188415,0,0.0977,0.1116,0.9656,176,183.8379,28.0151,-40.5884,108,1.1145,0.8954,10.5611,82.2966,26,0.032,11348,3.9325,-133.2073
lg,1625145765059205149,0,0.084,0.1504,0.9319,177,204.7729,9.8877,-39.6118,108,1.1155,0.8944,11.8678,88.3079,26,0.032,10477,3.9325,-133.3561
lg,1625145765059221624,0,0.1011,0.2229,0.8884,178,221.8018,-6.2256,-35.7666,108,1.1155,0.8954,12.9554,94.882,26,0.032,8144,3.9325,-134.0462
lg,1625145765059238340,0,0.1277,0.2539,0.8606,179,228.8818,-14.0991,-33.7524,108,1.1145,0.8954,13.8478,101.7232,26,0.033,8028,3.9325,-134.9422
lg,1625145765059254926,0,0.1746,0.3845,0.7568,180,238.5254,-23.9868,-31.1279,108,1.1145,0.8954,14.7468,108.8693,26,0.033,8262,3.9325,-136.121
lg,1625145765059271141,0,0.1738,0.5081,0.6621,181,233.5205,-30.0293,-30.3345,108,1.1155,0.8954,15.7253,115.822,26,0.033,8050,3.9325,-137.3847
lg,1625145765059287357,0,0.2334,0.6204,0.6465,182,212.4023,-37.8418,-29.0527,108,1.1145,0.8954,16.7622,121.8889,26,0.032,9290,3.9325,-138.8079
lg,1625145765059304239,0,0.2681,0.6487,0.6624,183,200.5615,-39.4897,-28.8696,108,1.1135,0.8944,17.8945,127.4595,26,0.032,8639,3.9325,-140.1571
lg,1625145765059321658,0,0.2456,0.7,0.7285,184,180.9692,-37.5977,-30.5786,108,1.1135,0.8954,19.2321,132.2418,26,0.032,8339,3.9325,-141.2829
lg,1625145765059347519,0,0.1697,0.7307,0.7332,185,166.5039,-38.4521,-31.0669,108,1.1135,0.8944,20.8341,136.4188,26,0.032,8188,3.9325,-142.3291
lg,1625145765059365863,0,0.1104,0.7852,0.7344,186,152.5879,-45.5933,-27.4048,108,1.1135,0.8954,22.7177,139.9148,26,0.031,8811,3.9325,-143.6331
lg,1625145765059381931,0,0.0903,0.8196,0.7136,187,147.0947,-49.9878,-24.7192,108,1.1135,0.8954,24.8749,142.7016,26,0.032,8225,3.9325,-145.3981
lg,1625145765059398054,0,0.1113,0.8865,0.7266,188,132.6294,-66.04,-20.813,108,1.1135,0.8954,27.3449,145.0406,26,0.032,8382,3.9325,-147.4477
lg,1625145765059414622,0,0.1418,0.9036,0.7173,189,116.1499,-83.313,-20.3247,108,1.1135,0.8954,30.3751,146.4342,26,0.032,8357,3.9325,-150.0072
lg,1625145765059432059,0,0.1956,0.8579,0.748,190,102.478,-95.0317,-19.104,108,1.1135,0.8954,33.7809,146.9839,26,0.032,8524,3.9325,-153.0436
lg,1625145765059449552,0,0.2205,0.8499,0.7527,191,99.6094,-100.708,-18.3105,108,1.1135,0.8954,37.37,147.1027,26,0.032,8305,3.9325,-156.4938
lg,1625145765059466083,0,0.2896,0.866,0.7388,192,95.2759,-110.7788,-16.6016,108,1.1125,0.8954,41.1503,146.5362,26,0.032,8585,3.9325,-160.6221
lg,1625145765405366281,0,-0.2712,0.9868,0.863,193,77.3926,-163.6963,-5.6152,108,1.1135,0.8964,47.1069,142.9983,26,0.032,24531,3.9325,-167.6778
lg,1625145765405418131,0,-0.0188,0.908,0.8943,194,65.918,-220.6421,-1.2817,108,1.1135,0.8964,53.8098,133.481,26,0.03,9249,3.9325,-181.1257
lg,1625145765405439493,0,0.7439,0.7798,0.7126,195,59.3872,-267.8223,19.104,108,1.1125,0.8964,58.4287,118.9976,26,0.03,8281,3.9325,160.0789
lg,1625145765405460096,0,0.9661,0.8259,0.6155,196,57.9834,-202.6978,24.4751,108,1.1125,0.8964,59.0796,105.4368,26,0.03,10606,3.9325,142.5889
lg,1625145765405479662,0,0.9829,0.884,0.5442,197,50.5371,-172.8516,22.9492,89,1.1125,0.8964,57.4351,95.19,26,0.03,8170,3.9512,129.4712
lg,1625145765405498858,0,0.9517,0.8213,0.6028,198,18.1885,-104.8584,19.7754,89,1.1135,0.8964,54.8584,87.7548,26,0.03,8630,3.9512,120.3772
lg,1625145765405517055,0,1.0801,0.7783,0.6067,199,13.0615,-92.3462,22.2168,89,1.1135,0.8964,51.6959,82.0155,26,0.031,7876,3.9512,113.2207
lg,1625145765405536177,0,1.0803,0.731,0.6008,200,5.6152,-38.7573,9.5825,89,1.1125,0.8964,49.0168,79.2872,26,0.03,8062,3.9512,110.0107
lg,1625145765405553892,0,0.9812,0.7454,0.573,201,-0.2441,2.0142,-7.019,89,1.1135,0.8974,47.1784,78.2593,26,0.031,8035,3.9512,109.2672
lg,1625145765405571329,0,0.9402,0.7305,0.5659,202,-5.7373,17.5781,-15.0146,89,1.1135,0.8964,45.7733,77.5794,26,0.031,8023,3.9512,109.328
lg,1625145765405592173,0,0.8186,0.6589,0.5784,203,-15.625,47.1802,-31.0669,89,1.1135,0.8974,45.2618,77.4198,26,0.03,9235,3.9512,110.7683
lg,1625145765405611684,0,0.6055,0.6067,0.6274,204,-16.4795,63.6597,-43.335,89,1.1135,0.8964,45.5204,77.3296,26,0.031,10289,3.9512,112.6661
lg,1625145765405630102,0,0.5178,0.5952,0.6711,205,-7.6294,59.9976,-48.584,89,1.1135,0.8964,45.9896,77.3406,26,0.031,7994,3.9512,114.2451
lg,1625145765405647725,0,0.5366,0.6484,0.6226,206,1.0986,54.8706,-51.8188,89,1.1125,0.8964,46.4621,77.6846,26,0.029,8148,3.9512,115.6469
lg,1625145765405665848,0,0.5308,0.6777,0.6074,207,3.7842,55.7251,-53.1006,89,1.1125,0.8964,46.9646,78.2905,26,0.03,7966,3.9512,117.1799
lg,1625145765405683803,0,0.4597,0.6978,0.5813,208,6.0425,57.251,-52.5513,89,1.1125,0.8974,47.4536,79.0907,26,0.03,8152,3.9512,118.8432
lg,1625145765405700426,0,0.4084,0.731,0.5479,209,5.4321,53.2837,-47.4243,89,1.1135,0.8974,47.6954,79.8601,26,0.03,8029,3.9512,120.4353
lg,1625145765405717327,0,0.3618,0.7388,0.5391,210,4.8218,49.1943,-44.4946,89,1.1135,0.8974,47.6561,80.2343,26,0.03,8214,3.9512,121.575
lg,1625145765405734543,0,0.3643,0.7617,0.5447,211,2.0752,38.6963,-37.1094,89,1.1125,0.8974,47.4065,80.3369,26,0.029,8144,3.9512,122.4547
lg,1625145765405751369,0,0.3213,0.751,0.5366,212,-1.3428,29.4189,-30.1514,89,1.1135,0.8974,46.8607,79.9306,26,0.029,8286,3.9512,122.8493
lg,1625145765405769492,0,0.3015,0.7317,0.5583,213,-2.5024,17.2729,-22.583,89,1.1135,0.8974,45.9833,78.9391,26,0.03,8130,3.9512,122.563
lg,1625145765405786466,0,0.2913,0.7424,0.5574,214,-2.2583,9.4604,-18.4326,89,1.1135,0.8974,44.8825,77.7621,26,0.03,8305,3.9512,121.9498
lg,1625145765405803589,0,0.2822,0.7434,0.5349,215,-1.8921,-6.2866,-11.1694,89,1.1125,0.8974,43.3772,76.1533,26,0.031,8170,3.9512,120.64
lg,1625145765405823008,0,0.3159,0.7256,0.563,216,-2.6245,-20.874,-4.0283,89,1.1135,0.8974,41.4321,74.1054,26,0.031,8358,3.9512,118.7095
lg,1625145765405839483,0,0.3806,0.7251,0.5652,217,-0.6104,-33.4473,2.3804,89,1.1145,0.8974,39.0155,72.004,26,0.031,8219,3.9512,116.418
lg,1625145765405856791,0,0.3992,0.7344,0.5645,218,1.4038,-37.1094,5.3101,89,1.1135,0.8964,36.4022,70.1541,26,0.031,8388,3.9512,114.2003
lg,1625145765405874413,0,0.4563,0.7378,0.5471,219,1.5259,-39.5508,7.2632,89,1.1125,0.8974,33.6085,68.5413,26,0.031,8271,3.9512,112.1167
lg,1625145765405892036,0,0.4834,0.7253,0.5383,220,0.4272,-37.0483,8.0566,89,1.1145,0.8974,30.7943,67.1556,26,0.031,8461,3.9512,110.3157
lg,1625145765405909122,0,0.5139,0.7122,0.5581,221,0.3052,-36.377,7.8125,89,1.1155,0.8974,28.0223,65.9489,26,0.032,8284,3.9512,108.6844
lg,1625145765405925745,0,0.521,0.7173,0.5657,222,2.0142,-31.311,7.019,89,1.1145,0.8974,25.3583,64.9699,26,0.03,8317,3.9512,107.2977
lg,1625145765405942442,0,0.5315,0.7253,0.5498,223,3.1128,-25.5127,4.2725,89,1.1135,0.8964,22.9123,64.2566,26,0.031,8849,3.9512,106.1835
lg,1625145765405959435,0,0.5286,0.7056,0.5662,224,4.0283,-18.3716,0.9766,89,1.1155,0.8974,20.756,63.6774,26,0.03,8513,3.9512,105.3135
lg,1625145765755125563,0,0.4739,0.7063,0.5286,225,6.3477,-5.0049,-4.4556,89,1.1145,0.8974,19.1378,63.4342,26,0.031,24663,3.9512,104.9027
lg,1625145765755231502,0,0.4502,0.6985,0.5652,226,5.9204,-0.6104,-6.1035,89,1.1155,0.8974,17.7325,63.1573,26,0.031,9681,3.9512,104.6179
lg,1625145765755265285,0,0.4036,0.6868,0.5671,227,9.0332,-1.0986,-6.2256,89,1.1155,0.8984,16.4177,63.0343,26,0.031,10546,3.9512,104.2834
lg,1625145765755299105,0,0.3904,0.6953,0.5676,228,11.9629,-3.0518,-7.2021,89,1.1155,0.8984,15.1435,62.9918,26,0.03,8483,3.9512,103.9432
lg,1625145765755326909,0,0.377,0.7046,0.5728,229,12.8784,-4.6997,-6.2866,89,1.1155,0.8984,13.9057,62.9673,26,0.03,8118,3.9512,103.5343
lg,1625145765755354972,0,0.3677,0.7134,0.5574,230,14.8926,-7.2632,-5.249,89,1.1165,0.8974,12.6355,63.0551,26,0.03,7821,3.9512,103.071
lg,1625145765755381739,0,0.3723,0.7212,0.573,231,15.3198,-10.1318,-4.0894,89,1.1165,0.8984,11.3173,63.1324,26,0.03,9647,3.9512,102.5313
lg,1625145765755408932,0,0.3684,0.7192,0.5698,232,15.3809,-10.2539,-4.3945,89,1.1165,0.8984,10.0564,63.2184,26,0.03,8066,3.9512,101.993
lg,1625145765755435366,0,0.3867,0.749,0.5667,233,16.7236,-15.1367,-3.3569,89,1.1165,0.8974,8.6937,63.3927,26,0.03,9038,3.9512,101.3156
lg,1625145765755462004,0,0.3931,0.7463,0.573,234,15.9912,-16.7847,-3.2959,89,1.1145,0.8974,7.3369,63.5252,26,0.03,9052,3.9512,100.5883
lg,1625145765755497083,0,0.4231,0.7607,0.5879,235,16.9678,-18.1274,-4.3335,89,1.1155,0.8974,6.0035,63.6975,26,0.03,8695,3.9512,99.8041
lg,1625145765755526293,0,0.4302,0.7493,0.5967,236,17.2119,-17.9443,-4.6997,89,1.1155,0.8974,4.7528,63.88,26,0.031,7779,3.9512,99.0756
lg,1625145765755553079,0,0.4492,0.771,0.5876,237,16.2964,-15.2588,-5.4321,89,1.1155,0.8974,3.5619,64.0698,26,0.031,7977,3.9512,98.3969
lg,1625145765755579124,0,0.4558,0.7981,0.5886,238,14.5874,-11.7188,-5.9204,89,1.1155,0.8974,2.4981,64.2355,26,0.031,8178,3.9512,97.8485
lg,1625145765755605132,0,0.4463,0.7922,0.5586,239,14.7095,-10.6201,-6.2866,89,1.1165,0.8974,1.5742,64.3641,26,0.031,8269,3.9512,97.3933
lg,1625145765755630789,0,0.4316,0.7959,0.5513,240,10.9863,-7.2021,-6.958,89,1.1165,0.8984,0.7198,64.4549,26,0.03,7904,3.9512,97.0064
lg,1625145765755656853,0,0.4163,0.7898,0.5581,241,9.7656,-7.2021,-7.2021,89,1.1155,0.8974,-0.0681,64.4777,26,0.031,8755,3.9512,96.6208
lg,1625145765755684138,0,0.4141,0.7881,0.5688,242,8.1787,-8.1787,-7.5073,89,1.1165,0.8974,-0.8257,64.4205,26,0.03,8267,3.9512,96.2001
lg,1625145765755710350,0,0.4314,0.7927,0.5747,243,6.3477,-8.2397,-8.0566,89,1.1165,0.8984,-1.5874,64.3433,26,0.031,8041,3.9512,95.7113
lg,1625145765755735618,0,0.4475,0.7903,0.5674,244,5.249,-8.606,-8.2397,89,1.1175,0.8984,-2.3319,64.1956,26,0.031,8845,3.9512,95.2726
lg,1625145765755760182,0,0.4292,0.7834,0.5684,245,3.7231,-7.019,-7.9956,89,1.1165,0.8984,-3.0032,63.9823,26,0.032,8448,3.9512,94.9001
lg,1625145765755784339,0,0.4275,0.7993,0.5742,246,4.0283,-8.667,-7.2021,89,1.1175,0.8984,-3.6922,63.8043,26,0.031,8452,3.9512,94.4844
lg,1625145765755808644,0,0.4307,0.7773,0.5664,247,1.0986,-7.9346,-6.0425,89,1.1175,0.8984,-4.4101,63.5055,26,0.032,8191,3.9512,94.1205
lg,1625145765755833209,0,0.4167,0.7729,0.5347,248,-0.5493,-7.6294,-4.8218,89,1.1175,0.8984,-5.1328,63.2035,26,0.032,8464,3.9512,93.7884
lg,1625145765755858699,0,0.4031,0.7678,0.5593,249,-0.3662,-9.3384,-4.8828,89,1.1175,0.8984,-5.8621,62.8272,26,0.031,8586,3.9512,93.3871
lg,1625145765755883985,0,0.4014,0.739,0.5588,250,-2.0752,-11.4136,-4.0894,89,1.1155,0.8974,-6.6173,62.363,26,0.031,9538,3.9512,92.8831
lg,1625145765755909382,0,0.4045,0.7502,0.5659,251,-4.8828,-12.146,-3.54,89,1.1165,0.8984,-7.371,61.872,26,0.031,8531,3.9512,92.4296
lg,1625145765755934854,0,0.407,0.7405,0.5703,252,-4.5776,-13.7329,-2.9907,89,1.1165,0.8984,-8.1586,61.4031,26,0.031,8334,3.9512,91.9348
lg,1625145765755959788,0,0.4158,0.7393,0.5554,253,-5.0659,-14.8926,-2.6855,89,1.1165,0.8984,-8.9784,60.9704,26,0.031,8936,3.9512,91.4035
lg,1625145765755984427,0,0.4138,0.7266,0.5576,254,-4.1504,-15.564,-3.418,89,1.1175,0.8984,-9.7625,60.5826,26,0.031,8745,3.9512,90.8391
lg,1625145765756008380,0,0.418,0.7329,0.563,255,-4.0283,-14.2212,-3.1738,89,1.1165,0.8984,-10.5172,60.2311,26,0.031,8243,3.9512,90.3254
lg,1625145765756034000,0,0.4192,0.7378,0.5649,256,-3.9062,-13.3667,-3.6011,89,1.1165,0.8974,-11.1986,59.8827,26,0.031,8901,3.9512,89.8374
lg,1625145766109210900,0,0.4287,0.7346,0.5676,257,-2.5635,-13.1226,-4.2725,89,1.1175,0.8994,-11.8482,59.5992,26,0.031,25939,3.9512,89.3462
lg,1625145766109247498,0,0.4575,0.748,0.5601,258,-0.5493,-12.4512,-6.3477,89,1.1175,0.8984,-12.4393,59.4505,26,0.03,15035,3.9512,88.8286
lg,1625145766109268453,0,0.4426,0.7427,0.5706,259,-0.8545,-10.1929,-6.7749,89,1.1175,0.8994,-12.9188,59.2568,26,0.03,10225,3.9512,88.3882
lg,1625145766109287909,0,0.4348,0.752,0.5686,260,-1.4038,-8.8501,-7.0801,89,1.1175,0.8984,-13.323,59.0423,26,0.031,7759,3.9512,87.9885
lg,1625145766109306901,0,0.4375,0.7368,0.552,261,-0.061,-8.4229,-6.2256,89,1.1185,0.8994,-13.7577,58.9105,25,0.031,7795,3.9512,87.6148
lg,1625145766109325135,0,0.4353,0.7473,0.5691,262,0.3052,-8.1787,-5.9814,89,1.1185,0.8994,-14.1587,58.7801,25,0.031,7880,3.9512,87.2587
lg,1625145766109343314,0,0.4395,0.7502,0.5715,263,-0.6104,-7.4463,-5.4932,89,1.1175,0.8994,-14.5514,58.6112,25,0.03,7762,3.9512,86.9388
lg,1625145766109361289,0,0.4192,0.7534,0.572,264,1.6479,-9.2773,-5.0659,89,1.1175,0.8984,-14.9393,58.5569,26,0.031,8398,3.9512,86.5617
lg,1625145766109378912,0,0.4138,0.7437,0.5635,265,-0.061,-8.0566,-4.2725,89,1.1185,0.8994,-15.3148,58.4253,26,0.031,11469,3.9512,86.2449
lg,1625145766109395572,0,0.427,0.7532,0.5671,266,1.0376,-10.5591,-2.9297,89,1.1175,0.8994,-15.7913,58.368,26,0.031,8065,3.9512,85.8659
lg,1625145766109412325,0,0.4453,0.7664,0.5637,267,0,-9.6436,-2.5635,89,1.1185,0.8994,-16.3244,58.3836,26,0.031,7806,3.9512,85.4329
lg,1625145766109429189,0,0.4434,0.7532,0.5815,268,1.5259,-12.9395,-2.0752,89,1.1185,0.8994,-16.907,58.3821,26,0.031,8035,3.9512,84.9848
lg,1625145766109445868,0,0.4873,0.7695,0.5911,269,2.3804,-13.7329,-1.9531,89,1.1185,0.8994,-17.511,58.4022,26,0.031,7872,3.9512,84.5204
lg,1625145766109461992,0,0.5137,0.7827,0.6057,270,2.8687,-11.7798,-2.6855,89,1.1175,0.8994,-18.0557,58.4235,26,0.031,8043,3.9512,84.113
lg,1625145766109483780,0,0.5293,0.8066,0.5942,271,3.2349,-11.2305,-2.3804,89,1.1185,0.8994,-18.5189,58.4943,26,0.031,8840,3.9512,83.7508
lg,1625145766109501514,0,0.541,0.8108,0.6084,272,1.2207,-6.4697,-3.418,89,1.1165,0.8984,-18.9135,58.4298,26,0.03,8252,3.9512,83.5114
lg,1625145766109518490,0,0.5466,0.832,0.5959,273,-1.8921,-1.4038,-3.1738,89,1.1175,0.8984,-19.1954,58.2303,26,0.031,7937,3.9512,83.4454
lg,1625145766109534724,0,0.5176,0.8242,0.5745,274,-5.0659,2.6245,-1.9531,89,1.1175,0.8994,-19.3896,57.881,26,0.03,8147,3.9512,83.5413
lg,1625145766109551052,0,0.4961,0.8228,0.5781,275,-8.1177,5.3101,-1.0986,89,1.1165,0.8984,-19.5083,57.3752,26,0.031,8003,3.9512,83.7512
lg,1625145766109567249,0,0.4658,0.7944,0.5676,276,-13.5498,7.019,1.8311,89,1.1175,0.8994,-19.6519,56.6108,26,0.03,8177,3.9512,84.0881
lg,1625145766109583558,0,0.4404,0.8003,0.5566,277,-18.2495,6.1035,4.9438,89,1.1175,0.8984,-19.8615,55.7005,26,0.03,8427,3.9512,84.4459
lg,1625145766109600256,0,0.436,0.7854,0.5369,278,-25.1465,4.5166,7.4463,89,1.1175,0.8994,-20.1872,54.5641,26,0.031,8281,3.9512,84.7924
lg,1625145766109616527,0,0.4377,0.7822,0.5413,279,-28.1982,2.0142,8.0566,89,1.1175,0.8984,-20.5751,53.3588,26,0.031,8067,3.9512,85.0605
lg,1625145766109633077,0,0.4292,0.7441,0.543,280,-34.668,-1.6479,9.2163,89,1.1175,0.8994,-21.0772,51.916,26,0.031,8261,3.9512,85.2431
lg,1625145766109649571,0,0.439,0.7307,0.5549,281,-41.3208,-3.8452,10.2539,89,1.1175,0.8994,-21.6646,50.2324,26,0.032,8103,3.9512,85.3859
lg,1625145766109666601,0,0.4373,0.7173,0.5859,282,-44.7998,-3.418,11.5967,89,1.1185,0.8994,-22.2421,48.3711,26,0.031,8268,3.9512,85.599
lg,1625145766109683262,0,0.4507,0.71,0.6169,283,-46.1426,-4.3335,13.5498,89,1.1165,0.8994,-22.885,46.442,26,0.031,8177,3.9512,85.8545
lg,1625145766109699478,0,0.4839,0.7087,0.634,284,-44.2505,-3.2349,15.7471,89,1.1185,0.8994,-23.5807,44.5804,26,0.031,8346,3.9512,86.2147
lg,1625145766109715990,0,0.4729,0.7205,0.626,285,-44.9829,-0.5493,15.8081,89,1.1185,0.8994,-24.1563,42.7408,26,0.031,8223,3.9512,86.6995
lg,1625145766109732133,0,0.4668,0.7405,0.6282,286,-46.3867,0.2441,19.2261,89,1.1175,0.8984,-24.7229,40.8874,26,0.031,8335,3.9512,87.2287
lg,1625145766109748960,0,0.4812,0.7617,0.5981,287,-50.293,1.2817,22.8271,89,1.1175,0.8994,-25.3482,38.9549,26,0.031,8275,3.9512,87.8628
lg,1625145766109765454,0,0.4541,0.771,0.5962,288,-60.1196,1.709,26.2451,89,1.1185,0.8994,-25.9438,36.6551,26,0.032,8543,3.9512,88.6054
lg,1625145766468645265,0,0.4702,0.6699,0.6357,289,-79.895,-6.897,35.6445,89,1.1195,0.8994,-27.0366,33.3421,26,0.032,24956,3.9512,89.5671
lg,1625145766468723829,0,0.4724,0.6626,0.6538,290,-82.9468,-8.7891,38.9404,89,1.1185,0.8994,-28.1635,29.9055,26,0.032,8678,3.9512,90.6398
lg,1625145766468750041,0,0.4622,0.6404,0.6868,291,-87.4634,-10.7422,40.4663,89,1.1195,0.8994,-29.3758,26.1957,26,0.032,12872,3.9512,91.7856
lg,1625145766468769423,0,0.4861,0.6436,0.6921,292,-90.8203,-14.4043,44.1895,89,1.1185,0.8994,-30.5827,22.4482,26,0.032,7866,3.9512,93.0396
lg,1625145766468787842,0,0.5049,0.6289,0.6628,293,-93.9331,-11.2305,52.7344,89,1.1195,0.8994,-31.7431,18.4324,26,0.032,7998,3.9512,94.7407
lg,1625145766468805095,0,0.3826,0.6184,0.6775,294,-98.2056,-5.8594,56.8848,89,1.1195,0.8994,-32.3249,13.934,26,0.033,7958,3.9512,96.9116
lg,1625145766468824958,0,0.3525,0.5869,0.7029,295,-107.666,-7.4463,66.1011,89,1.1195,0.8994,-33.0221,8.8137,26,0.033,9740,3.9512,99.5224
lg,1625145766468844192,0,0.345,0.5154,0.7656,296,-115.2954,-24.6582,77.8198,89,1.1205,0.8994,-33.9608,3.3335,26,0.033,8354,3.9512,102.495
lg,1625145766468866461,0,0.3999,0.429,0.79,297,-112.793,-44.9829,88.3179,89,1.1195,0.8994,-35.5099,-2.5187,26,0.033,8580,3.9512,106.1598
lg,1625145766468884899,0,0.4866,0.3708,0.8003,298,-103.3936,-59.6313,94.6655,89,1.1195,0.8994,-37.3963,-8.4494,26,0.033,7981,3.9512,110.4607
lg,1625145766468903596,0,0.5532,0.3608,0.7849,299,-98.5718,-62.9883,96.4355,89,1.1195,0.8994,-39.1128,-14.4195,26,0.033,7995,3.9512,115.1035
lg,1625145766468921015,0,0.6072,0.3589,0.7607,300,-89.1113,-62.6221,95.1538,89,1.1195,0.8994,-40.5282,-20.0937,26,0.033,7929,3.9512,119.847
lg,1625145766468938601,0,0.6919,0.3611,0.731,301,-80.1392,-57.9834,91.98,89,1.1195,0.8994,-41.6034,-25.3728,26,0.033,8070,3.9512,124.4757
lg,1625145766469063259,0,0.7485,0.3552,0.7136,302,-76.1719,-52.5513,89.7827,89,1.1205,0.8994,-42.284,-30.4097,26,0.034,7966,3.9512,128.9283
lg,1625145766469089471,0,0.7803,0.363,0.6863,303,-69.1528,-32.2266,86.4868,89,1.1195,0.8994,-42.1576,-34.6171,26,0.034,8094,3.9512,132.5869
lg,1625145766469108649,0,0.689,0.3276,0.6575,304,-66.1011,-7.0801,83.7402,89,1.1205,0.9004,-41.0429,-37.8701,26,0.034,8042,3.9512,135.1295
lg,1625145766469126809,0,0.6514,0.3135,0.6526,305,-64.5752,0.5493,84.8389,89,1.1205,0.8994,-39.5242,-40.6437,26,0.034,8145,3.9512,137.228
lg,1625145766469145136,0,0.5759,0.2695,0.6675,306,-60.0586,8.4839,85.7544,89,1.1205,0.8994,-37.5842,-42.8831,26,0.033,8055,3.9512,138.92
lg,1625145766469164850,0,0.5608,0.2729,0.6689,307,-53.894,5.188,86.792,89,1.1215,0.9004,-35.6921,-44.7592,26,0.033,8183,3.9512,140.6155
lg,1625145766469183492,0,0.5854,0.2288,0.6807,308,-50.9033,0.9155,86.3647,89,1.1215,0.8974,-34.0487,-46.4934,26,0.033,8139,3.9512,142.4933
lg,1625145766469217238,0,0.6201,0.1997,0.6731,309,-44.6777,-5.5542,84.1675,89,1.1205,0.8994,-32.5512,-48.0663,26,0.034,8221,3.9512,144.3977
lg,1625145766469235343,0,0.6411,0.1934,0.6494,310,-35.5225,-6.5308,78.7354,89,1.1215,0.9004,-31.3047,-49.1426,26,0.034,8161,3.9512,146.1275
lg,1625145766469262314,0,0.5933,0.1921,0.6392,311,-30.0293,-6.5308,73.1201,90,1.1225,0.9004,-30.1851,-49.7807,26,0.034,8312,3.9556,147.6203
lg,1625145766469282696,0,0.562,0.1426,0.6768,312,-24.0479,-13.9771,69.7632,90,1.1225,0.9004,-29.226,-50.2136,25,0.034,8735,3.9556,149.2659
lg,1625145766469301689,0,0.6094,0.1187,0.675,313,-14.5264,-22.7051,68.1152,90,1.1235,0.9004,-28.6115,-50.4489,25,0.034,8359,3.9556,151.2155
lg,1625145766469318978,0,0.6377,0.1387,0.6638,314,-10.3149,-23.7427,67.688,90,1.1235,0.9014,-28.1211,-50.513,25,0.034,8313,3.9556,153.1935
lg,1625145766469336935,0,0.6702,0.1829,0.6348,315,-3.7231,-22.7661,66.2231,90,1.1235,0.9014,-27.784,-50.2638,26,0.033,9945,3.9556,155.1002
lg,1625145766469354910,0,0.7122,0.2129,0.5815,316,-1.3428,-19.7754,65.1245,90,1.1235,0.9014,-27.5712,-49.9171,26,0.032,8297,3.9556,156.9136
lg,1625145766469374939,0,0.7495,0.2158,0.5852,317,-6.8359,-8.2397,64.5142,90,1.1225,0.9004,-27.1288,-49.6356,26,0.033,9443,3.9556,158.3416
lg,1625145766469393099,0,0.7637,0.219,0.5964,318,-14.0991,4.0283,62.0117,90,1.1225,0.9004,-26.461,-49.4145,26,0.033,8347,3.9556,159.2922
lg,1625145766469414554,0,0.751,0.2432,0.6177,319,-18.4326,9.6436,59.8145,90,1.1235,0.9004,-25.5743,-49.1649,26,0.033,8421,3.9556,159.9724
lg,1625145766469431381,0,0.7119,0.1687,0.6951,320,-25.8789,15.5029,57.312,90,1.1235,0.9004,-24.5645,-49.091,26,0.034,8406,3.9556,160.4104
lg,1625145766842741469,0,0.5981,-0.1582,1.2446,321,-8.4839,23.7427,48.4619,90,1.1245,0.9014,-22.7354,-48.1731,26,0.034,24632,3.9556,160.3916
lg,1625145766842781380,0,0.5813,0.0784,1.0298,322,13.1226,21.1792,47.3633,90,1.1245,0.9014,-21.4737,-45.8219,26,0.033,9394,3.9556,160.616
lg,1625145766842802150,0,0.658,0.2236,0.8918,323,12.5122,34.6069,50.1709,90,1.1245,0.9014,-19.9639,-43.7698,26,0.033,16098,3.9556,160.4368
lg,1625145766842821106,0,0.6775,0.2656,0.9353,324,5.4321,44.4946,52.7954,90,1.1255,0.9014,-18.1198,-41.9575,26,0.033,7801,3.9556,160.1819
lg,1625145766842840488,0,0.5508,0.2495,0.9458,325,-14.2822,82.6416,55.2979,90,1.1255,0.9014,-14.9068,-40.6377,26,0.034,7948,3.9556,159.0766
lg,1625145766842859036,0,0.4438,0.2493,0.9431,326,-23.3765,98.8159,56.7627,90,1.1255,0.9024,-10.4939,-39.9972,26,0.033,7781,3.9556,157.5448
lg,1625145766842877307,0,0.3184,0.2473,1.0002,327,-39.917,111.9385,60.8521,90,1.1255,0.9024,-5.9426,-39.6684,26,0.034,7996,3.9556,156.1967
lg,1625145766842896060,0,0.3875,0.082,0.8662,328,-54.8096,110.6567,52.9785,90,1.1245,0.9034,-1.9764,-40.293,26,0.033,8772,3.9556,154.8123
lg,1625145766842913220,0,0.0491,-0.0933,0.9824,329,-55.7861,124.8779,37.4146,90,1.1225,0.9024,2.7121,-41.2298,26,0.033,8056,3.9556,152.631
lg,1625145766842931028,0,-0.0122,-0.0615,0.9348,330,-46.936,107.2388,35.7056,90,1.1225,0.9024,6.7942,-41.8565,26,0.033,8020,3.9556,150.9076
lg,1625145766842949558,0,-0.0872,-0.0518,0.8801,331,-39.4287,55.4199,23.0713,90,1.1225,0.9034,9.0615,-42.1123,26,0.034,7880,3.9556,150.2683
lg,1625145766842967700,0,0.0227,-0.1609,0.9429,332,-33.3252,5.7373,14.4043,90,1.1225,0.9034,9.2611,-42.1562,26,0.033,10778,3.9556,150.7404
lg,1625145766842985730,0,0.1875,-0.1555,0.9592,333,-16.1743,-22.7051,5.3101,90,1.1225,0.9044,8.0025,-41.4525,26,0.033,10564,3.9556,151.7082
lg,1625145766843005426,0,0.3132,-0.1145,0.9536,334,0,-30.0903,-3.7231,90,1.1235,0.9044,6.053,-40.1285,26,0.033,8252,3.9556,152.5502
lg,1625145766843022975,0,0.2344,-0.0833,0.9568,335,6.1035,-27.5269,-8.728,90,1.1235,0.9044,4.1834,-38.3255,26,0.033,8069,3.9556,152.9391
lg,1625145766843039877,0,0.2322,-0.0688,0.9316,336,15.686,-33.02,-15.2588,90,1.1235,0.9044,2.0891,-36.4397,26,0.033,8026,3.9556,153.3381
lg,1625145766843056704,0,0.3838,-0.0422,0.9468,337,20.2026,-57.251,-18.2495,90,1.1235,0.9044,-1.1048,-34.4483,26,0.032,8216,3.9556,154.1011
lg,1625145766843073827,0,0.5469,-0.0107,0.9138,338,24.0479,-68.1763,-20.1416,90,1.1245,0.9044,-5.1878,-32.2884,26,0.031,8072,3.9556,154.9151
lg,1625145766843090543,0,0.6221,0.054,0.8884,339,28.7476,-75.1343,-25.1465,90,1.1225,0.9044,-9.4837,-30.269,26,0.031,9593,3.9556,155.3932
lg,1625145766843107389,0,0.749,0.0901,0.877,340,24.0479,-61.5845,-28.7476,90,1.1235,0.9044,-13.3967,-28.3011,26,0.031,8117,3.9556,155.4066
lg,1625145766843124549,0,0.7048,0.1404,0.843,341,19.165,-33.0811,-28.5034,90,1.1235,0.9044,-16.1663,-26.3102,26,0.031,8435,3.9556,154.7077
lg,1625145766843141043,0,0.6133,0.1167,0.8767,342,7.6904,-17.5171,-23.9868,90,1.1235,0.9044,-18.0125,-24.7323,26,0.031,8206,3.9556,153.7989
lg,1625145766843158036,0,0.5862,0.0854,0.8911,343,4.0894,-14.7705,-20.6299,90,1.1235,0.9044,-19.5533,-23.3767,26,0.032,8321,3.9556,152.9323
lg,1625145766843174975,0,0.6152,0.0728,0.8687,344,-1.1597,-11.1084,-13.0005,90,1.1235,0.9054,-20.8419,-22.3693,26,0.031,8205,3.9556,152.2822
lg,1625145766843191543,0,0.5732,0.0505,0.8645,345,-3.479,-6.3477,-7.6904,90,1.1245,0.9054,-21.7483,-21.545,26,0.032,8509,3.9556,151.7546
lg,1625145766843207981,0,0.5488,0.0283,0.874,346,-2.0752,-7.2021,-6.0425,90,1.1245,0.9054,-22.5705,-20.7604,26,0.032,8232,3.9556,151.3144
lg,1625145766843225067,0,0.5715,0.0098,0.864,347,0.5493,-11.7188,-4.6387,90,1.1235,0.9044,-23.5447,-19.976,26,0.032,8429,3.9556,151.0062
lg,1625145766843241506,0,0.584,0.0142,0.8455,348,4.2725,-13.3667,-5.188,90,1.1245,0.9044,-24.593,-19.0602,26,0.032,8488,3.9556,150.6867
lg,1625145766843282398,0,0.5984,0.012,0.843,349,7.8125,-15.625,-6.4697,90,1.1245,0.9054,-25.7263,-18.0246,26,0.031,8293,3.9556,150.3367
lg,1625145766843302742,0,0.5867,-0.0161,0.8467,350,8.4839,-14.2822,-7.2021,90,1.1245,0.9044,-26.736,-17.0232,26,0.032,8473,3.9556,149.9511
lg,1625145766843320217,0,0.616,-0.0022,0.8633,351,11.7798,-14.2212,-8.1177,90,1.1235,0.9054,-27.7433,-15.8659,26,0.032,9223,3.9556,149.5015
lg,1625145766843336933,0,0.6538,0.0212,0.8914,352,13.855,-12.3901,-8.606,90,1.1235,0.9044,-28.6735,-14.5829,26,0.032,10548,3.9556,148.9762
lg,1625145767195468171,0,0.5955,0.0325,0.8679,353,17.4561,6.958,-8.728,90,1.1235,0.9054,-28.7425,-13.0444,26,0.032,24630,3.9556,148.2092
lg,1625145767195509398,0,0.561,0.052,0.854,354,17.8833,9.1553,-7.4463,90,1.1245,0.9054,-28.6546,-11.5088,26,0.032,8902,3.9556,147.4839
lg,1625145767195530002,0,0.5637,0.1013,0.8613,355,16.6016,6.2256,-6.2866,90,1.1245,0.9054,-28.6652,-10.0038,26,0.031,11633,3.9556,146.8156
lg,1625145767195551716,0,0.5508,0.1226,0.8545,356,12.3291,3.9673,-4.6997,90,1.1235,0.9054,-28.728,-8.7128,26,0.032,7854,3.9556,146.2409
lg,1625145767195570950,0,0.5361,0.1069,0.8647,357,8.7891,3.1128,-3.418,90,1.1245,0.9054,-28.8311,-7.7952,26,0.031,9854,3.9556,145.8429
lg,1625145767195589500,0,0.5264,0.0837,0.8848,358,5.5542,-1.8921,-0.7935,90,1.1245,0.9054,-28.9972,-7.0497,26,0.031,8010,3.9556,145.5681
lg,1625145767195608456,0,0.5225,0.0842,0.8833,359,3.9673,-5.3101,0.8545,90,1.1245,0.9054,-29.2758,-6.4376,26,0.032,9546,3.9556,145.3969
lg,1625145767195627709,0,0.5261,0.043,0.8608,360,3.0518,-7.4463,1.2817,90,1.1245,0.9054,-29.6529,-6.0018,26,0.032,7923,3.9556,145.3139
lg,1625145767195645610,0,0.532,0.041,0.8787,361,3.2959,-7.3853,1.0986,90,1.1245,0.9054,-30.0437,-5.5929,26,0.032,7888,3.9556,145.2388
lg,1625145767195662419,0,0.5542,0.0305,0.8953,362,4.7607,-7.9956,0.3052,90,1.1235,0.9044,-30.4292,-5.1097,26,0.032,9867,3.9556,145.1265
lg,1625145767195680024,0,0.5469,0.0557,0.8831,363,7.9346,-9.2163,-2.3193,90,1.1235,0.9054,-30.8556,-4.4149,26,0.031,7949,3.9556,144.8794
lg,1625145767195697518,0,0.5432,0.0476,0.8833,364,9.5215,-11.2915,-3.2959,90,1.1235,0.9054,-31.3402,-3.6791,26,0.032,7977,3.9556,144.6093
lg,1625145767195714937,0,0.562,0.0535,0.8831,365,9.5825,-11.4136,-3.2959,90,1.1235,0.9054,-31.8468,-2.9399,26,0.032,8169,3.9556,144.2936
lg,1625145767195731876,0,0.5576,0.0664,0.8804,366,8.1787,-11.7188,-3.2959,90,1.1235,0.9054,-32.3344,-2.2576,26,0.032,8001,3.9556,144.01
lg,1625145767195749092,0,0.5552,0.0491,0.8706,367,7.6294,-11.8408,-2.7466,90,1.1245,0.9054,-32.8104,-1.6759,26,0.032,8418,3.9556,143.7812
lg,1625145767195765568,0,0.5671,0.0623,0.8735,368,7.3242,-11.2305,-1.8311,90,1.1245,0.9044,-33.2327,-1.0808,26,0.032,8050,3.9556,143.5721
lg,1625145767195781988,0,0.562,0.0625,0.8635,369,9.4604,-10.6201,-1.8311,90,1.1245,0.9054,-33.6413,-0.4513,26,0.032,10383,3.9556,143.376
lg,1625145767195798557,0,0.5645,0.072,0.8862,370,8.9111,-9.2773,-2.0142,90,1.1235,0.9054,-33.9564,0.162,26,0.032,8305,3.9556,143.1656
lg,1625145767195815532,0,0.5427,0.0632,0.8838,371,10.0098,-9.5215,-1.9531,90,1.1235,0.9054,-34.2298,0.7756,26,0.032,8315,3.9556,142.9775
lg,1625145767195832434,0,0.5522,0.0645,0.8875,372,10.5591,-11.2305,-2.8076,90,1.1245,0.9054,-34.5715,1.4163,26,0.031,8192,3.9556,142.7533
lg,1625145767195849428,0,0.5649,0.0518,0.8726,373,11.1084,-11.3525,-3.0518,90,1.1245,0.9034,-34.9406,2.087,26,0.032,8355,3.9556,142.5365
lg,1625145767195865903,0,0.5459,0.0657,0.8826,374,13.0005,-11.7798,-3.1738,90,1.1245,0.9054,-35.265,2.7963,26,0.032,8244,3.9556,142.3063
lg,1625145767195883434,0,0.5342,0.0862,0.8733,375,12.146,-13.1226,-3.0518,90,1.1245,0.9054,-35.6155,3.5038,26,0.032,8363,3.9556,142.0538
lg,1625145767195900484,0,0.5649,0.0776,0.8594,376,10.498,-15.9912,-2.3804,90,1.1245,0.9054,-36.1395,4.0877,26,0.032,8235,3.9556,141.8452
lg,1625145767195917349,0,0.5703,0.0725,0.8691,377,10.1318,-15.625,-2.8076,90,1.1255,0.9054,-36.62,4.6048,26,0.032,8483,3.9556,141.6709
lg,1625145767195960519,0,0.5718,0.0815,0.8743,378,10.2539,-14.5264,-2.4414,90,1.1245,0.9054,-37.0371,5.1512,26,0.032,8260,3.9556,141.4707
lg,1625145767195980789,0,0.584,0.075,0.8662,379,9.5825,-13.1836,-2.3193,90,1.1255,0.9054,-37.3717,5.5761,26,0.032,11079,3.9556,141.332
lg,1625145767195998320,0,0.582,0.0833,0.8743,380,10.3149,-12.0239,-1.8921,90,1.1255,0.9054,-37.6778,6.0743,26,0.032,9006,3.9556,141.1805
lg,1625145767196015240,0,0.5776,0.0789,0.8596,381,9.8877,-11.7188,-2.5635,90,1.1255,0.9064,-37.966,6.55,26,0.032,8716,3.9556,141.0091
lg,1625145767196032234,0,0.5671,0.0713,0.8774,382,10.0098,-10.9253,-2.2583,90,1.1255,0.9054,-38.1728,6.9759,26,0.032,8647,3.9556,140.8817
lg,1625145767196049025,0,0.5625,0.0791,0.8767,383,10.3149,-10.5591,-2.5024,90,1.1255,0.9054,-38.3463,7.4264,26,0.032,8626,3.9556,140.7381
lg,1625145767196066667,0,0.5593,0.0842,0.8533,384,10.5591,-11.5967,-2.3804,90,1.1255,0.9054,-38.59,7.9309,26,0.031,8491,3.9556,140.5636
lg,1625145767550474007,0,0.583,0.0981,0.8623,385,8.1177,-10.6201,-1.4648,90,1.1255,0.9064,-38.8041,8.285,26,0.031,25408,3.9556,140.4525
lg,1625145767550529858,0,0.5566,0.0798,0.8562,386,6.958,-9.5825,-1.2207,90,1.1255,0.9054,-38.9326,8.5166,26,0.031,9549,3.9556,140.4004
lg,1625145767550552647,0,0.5732,0.0786,0.8442,387,5.3101,-10.0098,-1.0376,90,1.1255,0.9054,-39.1189,8.6718,26,0.031,11760,3.9556,140.3578
lg,1625145767550571992,0,0.5764,0.0662,0.8511,388,5.9814,-10.8643,-1.4038,90,1.1255,0.9054,-39.329,8.827,26,0.031,10085,3.9556,140.3166
lg,1625145767550590985,0,0.5862,0.0591,0.8574,389,6.1035,-10.0098,-1.4038,90,1.1255,0.9064,-39.5084,8.9565,26,0.031,7878,3.9556,140.2987
lg,1625145767550608961,0,0.5681,0.0513,0.8574,390,6.958,-9.3994,-1.5869,90,1.1255,0.9064,-39.6247,9.0939,26,0.031,7907,3.9556,140.2949
lg,1625145767550648706,0,0.5837,0.0708,0.8716,391,6.897,-11.1694,-0.9766,90,1.1255,0.9064,-39.8169,9.2658,25,0.031,7920,3.9556,140.2767
lg,1625145767550670421,0,0.6125,0.0808,0.8684,392,7.3242,-10.376,-0.9766,90,1.1255,0.9064,-40.0224,9.4758,25,0.031,7950,3.9556,140.2483
lg,1625145767550687452,0,0.6079,0.1152,0.8523,393,7.6294,-8.606,-0.6714,90,1.1245,0.9054,-40.1565,9.7715,25,0.031,8991,3.9556,140.1895
lg,1625145767550705186,0,0.605,0.085,0.855,394,5.4321,-5.7983,0.6104,90,1.1255,0.9054,-40.1821,9.8236,25,0.031,7855,3.9556,140.2846
lg,1625145767550723050,0,0.582,0.1001,0.842,395,4.5166,-4.2114,1.4648,90,1.1245,0.9054,-40.122,9.8454,26,0.031,7940,3.9556,140.4095
lg,1625145767550741951,0,0.6123,0.092,0.8533,396,3.7842,-3.7231,1.5869,90,1.1245,0.9054,-40.0877,9.8057,26,0.031,7977,3.9556,140.5615
lg,1625145767550759834,0,0.5981,0.0774,0.8716,397,3.54,-2.2583,2.2583,90,1.1255,0.9064,-39.958,9.6793,26,0.031,8142,3.9556,140.7913
lg,1625145767550777865,0,0.5991,0.0674,0.874,398,4.2725,-0.9766,2.0142,90,1.1255,0.9054,-39.7823,9.5607,26,0.032,7993,3.9556,141.0341
lg,1625145767550794655,0,0.571,0.0708,0.8708,399,4.3945,-0.2441,2.0142,90,1.1255,0.9054,-39.5376,9.4563,26,0.032,8100,3.9556,141.274
lg,1625145767550812038,0,0.5811,0.0715,0.864,400,4.2725,1.4038,1.709,90,1.1255,0.9054,-39.2614,9.3592,26,0.032,7992,3.9556,141.5046
lg,1625145767550829384,0,0.5566,0.0916,0.866,401,4.6387,1.6479,2.8076,90,1.1266,0.9064,-38.9429,9.2989,26,0.031,11311,3.9556,141.7549
lg,1625145767550846970,0,0.5437,0.0977,0.863,402,3.9062,3.6621,4.9438,90,1.1266,0.9064,-38.5495,9.1534,26,0.031,8089,3.9556,142.1152
lg,1625145767550863391,0,0.5066,0.0813,0.8936,403,1.77,0.061,7.4463,90,1.1266,0.9064,-38.2275,8.814,26,0.032,8463,3.9556,142.6019
lg,1625145767550881125,0,0.5186,0.0925,0.8638,404,1.3428,-1.6479,8.606,90,1.1266,0.9064,-38.0433,8.4887,26,0.031,8145,3.9556,143.0964
lg,1625145767550897860,0,0.4995,0.0671,0.8848,405,0.7935,-7.1411,10.6812,90,1.1266,0.9064,-38.0941,8.0265,26,0.031,8381,3.9556,143.7022
lg,1625145767550935310,0,0.5557,0.0615,0.8647,406,-0.1221,-10.9863,13.1836,90,1.1255,0.9064,-38.3755,7.4863,26,0.031,9251,3.9556,144.3978
lg,1625145767550961949,0,0.5771,0.0554,0.8572,407,2.3804,-11.7798,13.6108,90,1.1255,0.9064,-38.7238,7.0365,26,0.032,8743,3.9556,145.1137
lg,1625145767550982386,0,0.5938,0.04,0.8557,408,2.8076,-10.8032,12.6953,90,1.1255,0.9054,-39.0449,6.5984,26,0.032,8222,3.9556,145.8124
lg,1625145767551000213,0,0.6133,0.0642,0.8596,409,5.4932,-9.9487,8.728,90,1.1255,0.9064,-39.3248,6.4719,26,0.032,8622,3.9556,146.265
lg,1625145767551018411,0,0.6255,0.0571,0.8499,410,5.188,-8.5449,6.2866,90,1.1255,0.9054,-39.5609,6.3933,26,0.032,8284,3.9556,146.6103
lg,1625145767551036590,0,0.6472,0.0442,0.864,411,7.019,-5.0049,0.3662,90,1.1255,0.9064,-39.6423,6.5343,26,0.031,8438,3.9556,146.6933
lg,1625145767551054213,0,0.6013,0.0569,0.8716,412,7.8125,0.3052,-4.7607,90,1.1255,0.9064,-39.3972,6.8791,26,0.031,8440,3.9556,146.5281
lg,1625145767551071522,0,0.5378,0.063,0.8655,413,6.7749,2.9907,-7.2021,90,1.1266,0.9064,-38.9347,7.249,26,0.031,8344,3.9556,146.2561
lg,1625145767551088201,0,0.5479,0.0574,0.8682,414,8.1787,1.2817,-7.3853,90,1.1266,0.9064,-38.5719,7.6524,26,0.031,8531,3.9556,145.9858
lg,1625145767551105288,0,0.5474,0.0486,0.8635,415,7.6904,0.3662,-7.3242,90,1.1255,0.9064,-38.2646,7.9951,26,0.032,8371,3.9556,145.739
lg,1625145767551122041,0,0.5222,0.0471,0.8677,416,8.3008,-1.2207,-7.2021,90,1.1255,0.9064,-37.9799,8.3411,26,0.032,8551,3.9556,145.5015
lg,1625145767911287046,0,0.5532,0.0679,0.8379,417,6.897,-10.1929,-4.2725,90,1.1266,0.9064,-38.1651,8.6365,26,0.032,24468,3.9556,145.3087
lg,1625145767911338269,0,0.5586,0.0854,0.833,418,4.3335,-11.1084,-2.9297,90,1.1266,0.9064,-38.399,8.8341,26,0.032,8943,3.9556,145.1494
lg,1625145767911359076,0,0.5896,0.0718,0.8601,419,3.8452,-11.9629,-0.9155,90,1.1266,0.9064,-38.7222,8.8921,26,0.032,11876,3.9556,145.1557
lg,1625145767911377644,0,0.6099,0.0759,0.8486,420,3.418,-12.2681,1.0376,90,1.1266,0.9064,-39.0788,8.8968,26,0.032,10322,3.9556,145.2112
lg,1625145767911418148,0,0.6143,0.0789,0.8582,421,3.0518,-10.1318,0.7935,90,1.1266,0.9064,-39.331,8.889,26,0.032,7813,3.9556,145.2691
lg,1625145767911439030,0,0.6272,0.0613,0.8582,422,4.1504,-6.1035,0.3052,88,1.1266,0.9064,-39.4177,8.8527,26,0.033,10401,3.9523,145.3781
lg,1625145767911458320,0,0.582,0.0442,0.884,423,4.8218,-0.6714,0.061,88,1.1266,0.9064,-39.1997,8.787,26,0.032,7928,3.9523,145.542
lg,1625145767911477498,0,0.5742,0.0667,0.8711,424,4.0894,0.9155,0.061,88,1.1266,0.9064,-38.9245,8.7523,26,0.032,7888,3.9523,145.6743
lg,1625145767911495714,0,0.5652,0.0696,0.8494,425,5.6763,0.6714,0.5493,88,1.1266,0.9064,-38.6817,8.7822,26,0.032,7900,3.9523,145.8188
lg,1625145767911514208,0,0.5466,0.0774,0.8706,426,7.2021,-1.6479,0.4883,88,1.1266,0.9064,-38.4787,8.8994,26,0.032,7950,3.9523,145.9332
lg,1625145767911533219,0,0.5356,0.0718,0.8557,427,5.7983,-0.5493,0.3662,88,1.1266,0.9064,-38.2137,8.9481,26,0.032,7902,3.9523,146.0564
lg,1625145767911551732,0,0.5342,0.0701,0.8826,428,4.5166,-2.3804,0.6714,88,1.1266,0.9074,-38.0241,8.9258,26,0.032,7992,3.9523,146.1918
lg,1625145767911569614,0,0.5447,0.0759,0.8713,429,5.3711,-4.4556,0.6714,88,1.1255,0.9064,-37.9546,8.9692,26,0.032,8449,3.9523,146.2969
lg,1625145767911589459,0,0.5518,0.0701,0.8755,430,5.6152,-7.1411,0.1221,88,1.1255,0.9064,-37.9994,9.0339,26,0.032,8038,3.9523,146.3641
lg,1625145767911606287,0,0.5486,0.0728,0.8669,431,5.9814,-7.2021,-0.3662,88,1.1255,0.9064,-38.0453,9.1356,26,0.032,8038,3.9523,146.4018
lg,1625145767911625502,0,0.5696,0.0591,0.8672,432,5.8594,-7.5684,-0.9155,88,1.1255,0.9064,-38.1412,9.2116,26,0.032,8098,3.9523,146.4334
lg,1625145767911645588,0,0.5815,0.0542,0.8684,433,7.1411,-8.5449,-0.7935,88,1.1255,0.9064,-38.2936,9.3245,26,0.032,8136,3.9523,146.4725
lg,1625145767911662101,0,0.564,0.0581,0.8586,434,6.7139,-7.2632,-0.9766,88,1.1266,0.9064,-38.3675,9.4264,26,0.032,8112,3.9523,146.5089
lg,1625145767911679631,0,0.5596,0.0691,0.8821,435,5.6763,-6.7139,-0.9766,88,1.1245,0.9064,-38.3794,9.5034,26,0.032,8179,3.9523,146.5376
lg,1625145767911734279,0,0.5798,0.0623,0.8679,436,5.8594,-8.2397,-0.5493,88,1.1255,0.9064,-38.5079,9.5669,26,0.032,8197,3.9523,146.5844
lg,1625145767911759345,0,0.5955,0.0823,0.8892,437,5.6763,-6.958,-0.6104,88,1.1255,0.9064,-38.5447,9.622,26,0.032,8209,3.9523,146.645
lg,1625145767911778523,0,0.5933,0.0691,0.8672,438,5.9204,-4.5166,-0.6104,88,1.1245,0.9034,-38.5437,9.6857,26,0.032,8184,3.9523,146.7108
lg,1625145767911796609,0,0.5908,0.0703,0.8723,439,4.5776,-1.2207,-1.0376,88,1.1255,0.9064,-38.3999,9.6909,26,0.032,8278,3.9523,146.784
lg,1625145767911813640,0,0.5608,0.0791,0.8721,440,6.2256,-1.8921,-0.3662,88,1.1266,0.9074,-38.2373,9.7653,26,0.032,8288,3.9523,146.8717
lg,1625145767911830172,0,0.5601,0.0723,0.8743,441,5.7373,-1.5869,-0.3052,88,1.1266,0.9064,-38.0672,9.7944,26,0.032,8370,3.9523,146.9784
lg,1625145767911847499,0,0.5557,0.0811,0.8655,442,6.0425,-2.8076,0.6104,88,1.1266,0.9074,-37.943,9.7886,26,0.032,10510,3.9523,147.0921
lg,1625145767911866733,0,0.5552,0.0627,0.8945,443,4.8828,-3.6621,0.4272,88,1.1255,0.9064,-37.8411,9.7397,26,0.032,8331,3.9523,147.2367
lg,1625145767911884449,0,0.5498,0.0671,0.865,444,4.5776,-4.3335,0.3662,88,1.1255,0.9064,-37.7918,9.7059,26,0.032,8350,3.9523,147.3587
lg,1625145767911901406,0,0.5735,0.0659,0.8853,445,4.3335,-4.6997,-0.061,88,1.1255,0.9074,-37.7758,9.6724,26,0.032,8410,3.9523,147.4592
lg,1625145767911921085,0,0.5798,0.0713,0.8728,446,4.8218,-4.5166,-0.6104,88,1.1255,0.9074,-37.7642,9.6352,26,0.032,8441,3.9523,147.5581
lg,1625145767911938079,0,0.5906,0.0654,0.8738,447,3.9673,-0.8545,-0.6714,88,1.1255,0.9064,-37.6382,9.5927,26,0.032,8431,3.9523,147.6567
lg,1625145767911954721,0,0.5754,0.0801,0.8643,448,4.6387,0.9766,-0.7935,88,1.1255,0.9064,-37.4257,9.6143,26,0.032,8468,3.9523,147.7378
lg,1625145768271524862,0,0.5461,0.0842,0.8489,449,5.3101,0.9155,-0.4883,88,1.1266,0.9074,-37.1896,9.667,26,0.032,24362,3.9523,147.825
lg,1625145768271564664,0,0.541,0.0669,0.897,450,5.0659,-1.2207,-0.1831,88,1.1266,0.9074,-37.0418,9.6308,26,0.032,11055,3.9523,147.9268
lg,1625145768271585750,0,0.5349,0.0662,0.8777,451,4.0894,-3.8452,0.2441,88,1.1266,0.9074,-36.962,9.5774,26,0.033,7953,3.9523,148.0455
lg,1625145768271605836,0,0.5166,0.0684,0.8857,452,4.8218,-5.0049,-0.6714,88,1.1266,0.9064,-36.8811,9.5902,26,0.033,10283,3.9523,148.1066
lg,1625145768271625163,0,0.5276,0.0562,0.8774,453,4.6997,-5.6763,-0.6714,88,1.1276,0.9074,-36.9226,9.6581,26,0.033,7773,3.9523,148.1362
lg,1625145768271642824,0,0.5601,0.0732,0.8762,454,5.9204,-7.0801,-1.4648,88,1.1266,0.9074,-37.0096,9.7661,26,0.033,7792,3.9523,148.1295
lg,1625145768271660447,0,0.5444,0.0552,0.8794,455,5.6152,-6.1035,-2.4414,88,1.1276,0.9074,-37.0197,9.83,26,0.033,7819,3.9523,148.1169
lg,1625145768271677960,0,0.5645,0.064,0.884,456,6.1646,-5.6763,-2.5024,88,1.1266,0.9074,-37.0833,9.9455,26,0.033,8108,3.9523,148.1067
lg,1625145768271694714,0,0.561,0.0837,0.8774,457,8.2397,-7.5073,-2.2583,88,1.1255,0.9064,-37.1665,10.1473,26,0.033,8054,3.9523,148.0714
lg,1625145768271712208,0,0.554,0.0808,0.8943,458,6.958,-6.0425,-2.0142,88,1.1266,0.9064,-37.1662,10.3027,26,0.033,8138,3.9523,148.0486
lg,1625145768271729388,0,0.5515,0.0759,0.8984,459,6.5308,-5.7373,-1.8311,88,1.1266,0.9064,-37.1472,10.4132,26,0.033,8413,3.9523,148.0498
lg,1625145768271746438,0,0.5583,0.0781,0.866,460,6.0425,-3.9062,-2.0752,88,1.1255,0.9064,-37.1043,10.514,26,0.032,8126,3.9523,148.0478
lg,1625145768271763118,0,0.5466,0.0815,0.8794,461,6.958,-4.0894,-2.0752,88,1.1266,0.9074,-36.9986,10.62,26,0.034,8144,3.9523,148.0645
lg,1625145768271779649,0,0.541,0.0857,0.8779,462,4.2114,-2.3193,-1.77,88,1.1245,0.9054,-36.8544,10.6364,26,0.033,8096,3.9523,148.0874
lg,1625145768271796810,0,0.5198,0.0601,0.8774,463,5.7373,-5.0659,-0.1221,88,1.1255,0.9064,-36.8022,10.6072,26,0.033,7985,3.9523,148.2096
lg,1625145768271815508,0,0.5171,0.0742,0.8877,464,5.3711,-7.1411,0.6104,88,1.1266,0.9074,-36.8189,10.5899,26,0.034,8161,3.9523,148.3264
lg,1625145768271833521,0,0.5042,0.092,0.8999,465,5.5542,-9.3384,0.4883,88,1.1255,0.9064,-36.8787,10.6394,26,0.033,8223,3.9523,148.3905
lg,1625145768271850367,0,0.5293,0.0408,0.8936,466,5.8594,-11.7798,0.4883,88,1.1255,0.9074,-37.0971,10.5785,26,0.033,8074,3.9523,148.5144
lg,1625145768271867435,0,0.5576,0.0706,0.8757,467,6.0425,-12.9395,-0.6104,88,1.1255,0.9074,-37.4093,10.6557,26,0.033,8069,3.9523,148.5188
lg,1625145768271884560,0,0.552,0.0681,0.8796,468,6.4697,-13.5498,-0.8545,88,1.1266,0.9074,-37.7171,10.7495,26,0.034,10691,3.9523,148.5127
lg,1625145768271901610,0,0.5432,0.0649,0.887,469,7.6904,-13.9771,-0.8545,88,1.1266,0.9074,-38.0058,10.879,26,0.034,9360,3.9523,148.5124
lg,1625145768271918345,0,0.5583,0.0842,0.8909,470,7.8125,-14.7705,-0.6104,88,1.1266,0.9074,-38.3205,11.0503,26,0.035,8143,3.9523,148.492
lg,1625145768271935524,0,0.5767,0.0879,0.8762,471,7.9346,-14.4043,-0.1831,88,1.1266,0.9074,-38.6744,11.2314,26,0.035,8184,3.9523,148.4836
lg,1625145768271952445,0,0.5811,0.084,0.8831,472,6.7749,-14.6484,0.6714,88,1.1276,0.9074,-39.0314,11.3217,26,0.035,8254,3.9523,148.5277
lg,1625145768271969254,0,0.5957,0.0854,0.8582,473,6.7749,-14.2212,0.4883,88,1.1276,0.9074,-39.3806,11.3878,26,0.035,8382,3.9523,148.5715
lg,1625145768271985915,0,0.5911,0.0891,0.8879,474,4.4556,-11.0474,0.3662,88,1.1266,0.9074,-39.6337,11.3817,26,0.035,9096,3.9523,148.6325
lg,1625145768272002614,0,0.603,0.0713,0.8782,475,4.2725,-7.7515,0.7935,88,1.1266,0.9074,-39.7323,11.2867,26,0.035,8323,3.9523,148.78
lg,1625145768272019404,0,0.5767,0.0623,0.8765,476,3.9062,-4.0283,0.9766,88,1.1266,0.9074,-39.6408,11.1224,26,0.035,8319,3.9523,148.9915
lg,1625145768272036010,0,0.5796,0.0769,0.874,477,4.5776,-1.8921,0.9155,88,1.1255,0.9074,-39.473,11.0222,26,0.035,8557,3.9523,149.1897
lg,1625145768272052931,0,0.551,0.0603,0.885,478,4.4556,-0.8545,1.4038,88,1.1276,0.9074,-39.2111,10.8643,26,0.035,8436,3.9523,149.4446
lg,1625145768272156286,0,0.5547,0.0725,0.8755,479,4.6997,-1.1597,1.0376,88,1.1266,0.9074,-39.0222,10.7942,26,0.035,10134,3.9523,149.6641
lg,1625145768272178075,0,0.5508,0.1018,0.8662,480,5.7373,-2.4414,1.2817,88,1.1266,0.9064,-38.8534,10.8168,26,0.035,8650,3.9523,149.8197
lg,1625145768619156137,0,0.5337,0.0718,0.8677,481,2.9907,-4.3335,2.3804,88,1.1266,0.9074,-38.7469,10.6198,26,0.035,25053,3.9523,150.067
lg,1625145768619195921,0,0.5276,0.0608,0.8679,482,3.7842,-6.5308,2.3193,88,1.1276,0.9074,-38.7204,10.4457,26,0.034,9411,3.9523,150.3055
lg,1625145768619217006,0,0.5269,0.051,0.8777,483,5.127,-7.9956,0.7324,88,1.1266,0.9074,-38.7304,10.3602,26,0.035,8176,3.9523,150.4655
lg,1625145768619237000,0,0.5459,0.0635,0.865,484,5.5542,-10.437,-0.061,88,1.1266,0.9074,-38.8765,10.3755,26,0.034,10810,3.9523,150.535
lg,1625145768619256845,0,0.5576,0.0679,0.8696,485,6.7749,-10.9253,-0.2441,88,1.1266,0.9074,-39.0499,10.4597,26,0.034,7807,3.9523,150.5836
lg,1625145768619275358,0,0.5779,0.0674,0.8652,486,5.9204,-10.376,0.061,88,1.1266,0.9074,-39.2391,10.4962,26,0.034,9509,3.9523,150.6535
lg,1625145768619293648,0,0.5811,0.0681,0.8757,487,5.9204,-9.0942,0.4272,88,1.1276,0.9074,-39.3665,10.5108,26,0.034,7822,3.9523,150.7563
lg,1625145768619311439,0,0.5872,0.0632,0.8845,488,6.4087,-8.4229,0.6104,88,1.1276,0.9074,-39.4658,10.5188,26,0.034,7869,3.9523,150.8855
lg,1625145768619328600,0,0.5652,0.0764,0.8694,489,4.9438,-6.6528,0.6714,88,1.1266,0.9074,-39.4675,10.4938,26,0.034,8129,3.9523,151.0107
lg,1625145768619346279,0,0.5601,0.054,0.887,490,6.3477,-6.7749,0.3052,88,1.1276,0.9074,-39.4472,10.4697,26,0.034,8173,3.9523,151.1594
lg,1625145768619363810,0,0.5461,0.0723,0.8774,491,7.4463,-7.6294,-0.3662,88,1.1276,0.9074,-39.4374,10.5692,26,0.034,8023,3.9523,151.2318
lg,1625145768619381694,0,0.551,0.0564,0.8752,492,6.7139,-7.0801,-0.3052,88,1.1276,0.9074,-39.4147,10.5678,26,0.034,8024,3.9523,151.3699
lg,1625145768619399280,0,0.5598,0.0645,0.8662,493,6.5308,-7.9346,-0.1221,88,1.1276,0.9074,-39.4597,10.6042,26,0.034,8032,3.9523,151.4645
lg,1625145768619416034,0,0.5503,0.0576,0.8833,494,6.3477,-8.667,-0.061,88,1.1276,0.9074,-39.4967,10.6088,26,0.035,8040,3.9523,151.5726
lg,1625145768619432436,0,0.5393,0.0625,0.8516,495,6.6528,-9.6436,-0.2441,88,1.1276,0.9074,-39.6128,10.6587,26,0.034,8035,3.9523,151.6236
lg,1625145768619449301,0,0.5684,0.0559,0.877,496,6.0425,-9.7656,-0.7324,88,1.1266,0.9074,-39.7239,10.7345,26,0.034,9065,3.9523,151.6455
lg,1625145768619465629,0,0.5571,0.0774,0.8735,497,5.7373,-8.9111,-1.3428,88,1.1266,0.9074,-39.7695,10.812,26,0.034,8151,3.9523,151.6513
lg,1625145768619482457,0,0.5471,0.0564,0.9185,498,4.2725,-7.2632,-1.6479,88,1.1266,0.9074,-39.6843,10.7549,26,0.034,8099,3.9523,151.7065
lg,1625145768619498803,0,0.5542,0.0474,0.8831,499,6.1035,-9.2773,-1.1597,88,1.1266,0.9074,-39.7384,10.755,26,0.034,8343,3.9523,151.7748
lg,1625145768619515391,0,0.5798,0.0925,0.844,500,6.4087,-9.1553,-0.9766,88,1.1276,0.9074,-39.868,10.9041,26,0.034,8218,3.9523,151.761
lg,1625145768619531552,0,0.551,0.0317,0.8604,501,4.5166,-7.6904,-1.9531,88,1.1266,0.9074,-39.8714,10.8121,26,0.034,8451,3.9523,151.8337
lg,1625145768619548084,0,0.572,0.0693,0.8586,502,6.1035,-8.7891,-2.2583,88,1.1276,0.9074,-39.9459,10.9147,26,0.034,8206,3.9523,151.806
lg,1625145768619564504,0,0.5681,0.0625,0.8706,503,5.8594,-7.5073,-2.8687,88,1.1266,0.9074,-39.8923,10.9625,26,0.034,8441,3.9523,151.774
lg,1625145768619581054,0,0.5769,0.0623,0.8765,504,5.9204,-5.5542,-3.7842,88,1.1266,0.9064,-39.8176,11.0566,26,0.034,8291,3.9523,151.7197
lg,1625145768619597882,0,0.5674,0.0618,0.8689,505,5.7983,-4.3945,-3.9673,88,1.1276,0.9054,-39.691,11.14,26,0.034,8462,3.9523,151.6701
lg,1625145768619614525,0,0.584,0.0593,0.8799,506,5.0659,-3.8452,-4.0283,88,1.1276,0.9074,-39.565,11.1817,26,0.035,8355,3.9523,151.6294
lg,1625145768619630835,0,0.5742,0.0715,0.8848,507,5.3711,-3.2959,-4.2114,88,1.1276,0.9074,-39.3626,11.2841,26,0.034,8544,3.9523,151.5522
lg,1625145768619647496,0,0.5911,0.0852,0.8721,508,5.249,-1.8311,-4.2114,88,1.1266,0.9064,-39.1844,11.3942,26,0.034,8354,3.9523,151.4774
lg,1625145768619664157,0,0.5901,0.0767,0.8562,509,3.7231,-0.6714,-3.6011,88,1.1266,0.9064,-38.9922,11.3938,26,0.035,8530,3.9523,151.4592
lg,1625145768619680929,0,0.5876,0.0811,0.877,510,3.7231,0.9766,-3.2959,88,1.1276,0.9074,-38.7157,11.3777,26,0.035,8426,3.9523,151.4696
lg,1625145768619698627,0,0.5789,0.0803,0.8674,511,2.9297,2.0142,-3.2959,88,1.1266,0.9074,-38.354,11.2644,26,0.035,8530,3.9523,151.5311
lg,1625145768619810535,0,0.5652,0.0854,0.8877,512,2.7466,2.8687,-2.8076,88,1.1266,0.9074,-37.9792,11.1939,26,0.034,8466,3.9523,151.5753
lg,1625145768979266788,0,0.5984,0.1323,0.8364,513,4.3945,10.6201,-2.6245,88,1.1276,0.9084,-37.4267,11.2905,26,0.035,25804,3.9523,151.6087
lg,1625145768979317975,0,0.5322,0.0627,0.8928,514,1.2207,11.2305,-0.9155,88,1.1276,0.9074,-36.7164,10.9877,26,0.035,14867,3.9523,151.8645
lg,1625145768979349206,0,0.5403,0.0857,0.8782,515,3.0518,11.2305,0.7935,88,1.1276,0.9074,-36.0718,10.7932,26,0.035,8014,3.9523,152.1482
lg,1625145768979378603,0,0.5298,0.103,0.8823,516,2.4414,11.3525,0.9155,88,1.1286,0.9074,-35.42,10.6272,26,0.035,7725,3.9523,152.4019
lg,1625145768979407168,0,0.5029,0.0601,0.907,517,0.8545,10.8032,2.0752,88,1.1276,0.9074,-34.7553,10.2567,26,0.035,7741,3.9523,152.7683
lg,1625145768979435196,0,0.5171,0.0808,0.8821,518,3.1738,8.4839,1.8311,88,1.1276,0.9074,-34.2536,10.0808,26,0.035,7775,3.9523,153.0505
lg,1625145768979462187,0,0.5195,0.0842,0.8877,519,3.1738,8.5449,1.2207,88,1.1276,0.9074,-33.7151,9.8997,26,0.035,9238,3.9523,153.3023
lg,1625145768979489104,0,0.4778,0.0505,0.8918,520,3.1128,7.0801,0.4272,88,1.1266,0.9064,-33.2185,9.6997,26,0.035,8557,3.9523,153.5377
lg,1625145768979514911,0,0.4717,0.0618,0.9082,521,4.6387,1.77,1.1597,88,1.1266,0.9074,-32.9234,9.6006,26,0.035,7862,3.9523,153.7427
lg,1625145768979540125,0,0.4797,0.0759,0.8813,522,4.4556,-1.0986,0.3052,88,1.1266,0.9074,-32.7874,9.5785,26,0.035,7949,3.9523,153.8562
lg,1625145768979567172,0,0.4875,0.0737,0.8948,523,4.3335,-2.3193,-0.061,88,1.1276,0.9074,-32.7038,9.5584,26,0.035,8015,3.9523,153.9465
lg,1625145768979593256,0,0.4998,0.0576,0.8972,524,4.2114,-5.249,0.2441,88,1.1276,0.9074,-32.7645,9.4975,26,0.035,7886,3.9523,154.0499
lg,1625145768979618099,0,0.5132,0.0657,0.8848,525,4.8828,-6.8359,0.2441,88,1.1276,0.9074,-32.9469,9.4987,26,0.035,7923,3.9523,154.1064
lg,1625145768979642591,0,0.5452,0.0537,0.8904,526,5.3711,-8.1787,-0.3662,88,1.1266,0.9064,-33.2026,9.5107,26,0.035,7890,3.9523,154.1599
lg,1625145768979667842,0,0.5396,0.0479,0.8828,527,5.3711,-6.1646,-0.3052,88,1.1276,0.9074,-33.3686,9.4975,26,0.035,7962,3.9523,154.2413
lg,1625145768979697592,0,0.5491,0.0742,0.8879,528,5.6152,-5.5542,-0.4272,88,1.1276,0.9074,-33.4905,9.5649,26,0.035,7977,3.9523,154.2854
lg,1625145768979725083,0,0.5415,0.0676,0.895,529,5.7373,-4.4556,-0.5493,88,1.1266,0.9074,-33.5626,9.6112,26,0.035,8002,3.9523,154.3441
lg,1625145768979750741,0,0.5322,0.0586,0.8933,530,4.6387,-2.5024,0.061,88,1.1276,0.9074,-33.5457,9.5633,26,0.035,8063,3.9523,154.4621
lg,1625145768979778843,0,0.5227,0.0601,0.8997,531,4.5166,-1.2207,0.4883,88,1.1276,0.9074,-33.4569,9.497,26,0.036,8046,3.9523,154.6087
lg,1625145768979806242,0,0.5132,0.0632,0.8909,532,4.8218,-0.8545,0.7935,88,1.1276,0.9064,-33.3501,9.4457,26,0.036,8035,3.9523,154.7655
lg,1625145768979830512,0,0.519,0.0745,0.8872,533,4.1504,-0.4272,0.4272,88,1.1276,0.9074,-33.2927,9.4069,26,0.035,11371,3.9523,154.8881
lg,1625145768979856059,0,0.5078,0.0596,0.9131,534,3.7842,-1.8311,0.061,88,1.1266,0.9074,-33.1927,9.3262,26,0.036,8109,3.9523,155.0083
lg,1625145768979881254,0,0.51,0.0544,0.8811,535,4.2114,-2.6245,0.1221,82,1.1276,0.9074,-33.1675,9.2621,26,0.035,8103,3.9589,155.1262
lg,1625145768979905950,0,0.5061,0.0537,0.9014,536,5.6152,-4.9438,-0.3052,82,1.1276,0.9074,-33.2023,9.2703,26,0.035,11589,3.9589,155.2085
lg,1625145768979931127,0,0.4998,0.0669,0.8879,537,5.4932,-6.2256,-0.3052,82,1.1276,0.9074,-33.2859,9.3157,26,0.036,8178,3.9589,155.2607
lg,1625145768979956322,0,0.5005,0.0603,0.8899,538,5.188,-7.4463,0.061,82,1.1286,0.9074,-33.4171,9.325,26,0.036,8159,3.9589,155.3316
lg,1625145768979982055,0,0.4983,0.0596,0.8921,539,5.7373,-8.5449,0,82,1.1276,0.9074,-33.5793,9.3592,26,0.036,8216,3.9589,155.3933
lg,1625145768980008269,0,0.5076,0.0574,0.8945,540,5.3101,-8.3618,0.5493,82,1.1276,0.9084,-33.7472,9.3542,26,0.036,8234,3.9589,155.4868
lg,1625145768980034205,0,0.5166,0.0742,0.8955,541,4.5166,-9.0942,0.2441,82,1.1266,0.9074,-33.948,9.3736,26,0.036,9517,3.9589,155.5355
lg,1625145768980059326,0,0.5093,0.0662,0.8909,542,4.8218,-9.3384,0.8545,82,1.1266,0.9074,-34.1471,9.3683,26,0.036,8297,3.9589,155.6241
lg,1625145768980087113,0,0.5083,0.0505,0.9004,543,4.1504,-8.8501,1.3428,82,1.1266,0.9074,-34.3582,9.3275,26,0.036,8321,3.9589,155.7369
lg,1625145768980113771,0,0.5317,0.0818,0.8921,544,4.7607,-9.5825,1.8311,82,1.1276,0.9074,-34.5948,9.3382,26,0.038,8320,3.9589,155.8469
lg,1625145769355918165,0,0.5398,0.062,0.8811,545,4.5776,-8.1177,2.5024,82,1.1286,0.9084,-34.7396,9.2677,26,0.037,24102,3.9589,156.0208
lg,1625145769355967279,0,0.4993,0.0691,0.9114,546,5.0049,-7.2021,1.709,82,1.1286,0.9084,-34.7876,9.2408,26,0.037,10755,3.9589,156.168
lg,1625145769355987773,0,0.5056,0.051,0.9202,547,5.8594,-9.4604,1.709,82,1.1286,0.9084,-34.9287,9.21,26,0.037,10328,3.9589,156.3255
lg,1625145769356006619,0,0.5044,0.0667,0.8821,548,5.4321,-10.437,1.3428,82,1.1286,0.9084,-35.1402,9.1821,26,0.037,7791,3.9589,156.4304
lg,1625145769356025391,0,0.511,0.0625,0.8989,549,5.4932,-10.7422,1.2817,82,1.1286,0.9084,-35.3449,9.1912,26,0.037,7948,3.9589,156.5373
lg,1625145769356043201,0,0.5105,0.0532,0.884,550,6.0425,-12.5122,1.2817,82,1.1286,0.9084,-35.6281,9.208,26,0.037,8007,3.9589,156.6438
lg,1625145769356060010,0,0.5471,0.0581,0.8877,551,5.188,-11.7798,0.6714,82,1.1286,0.9084,-35.931,9.2198,26,0.037,9642,3.9589,156.7183
lg,1625145769356077338,0,0.5396,0.0581,0.8877,552,5.7983,-11.5967,0.1221,82,1.1266,0.9074,-36.1972,9.2693,26,0.038,9443,3.9589,156.7693
lg,1625145769356095203,0,0.5405,0.0579,0.896,553,4.9438,-10.0708,0.3662,82,1.1266,0.9074,-36.3872,9.2656,26,0.038,7882,3.9589,156.8481
lg,1625145769356124861,0,0.5315,0.0598,0.8933,554,6.2256,-9.7046,0,82,1.1276,0.9074,-36.5388,9.3268,26,0.037,7975,3.9589,156.9095
lg,1625145769356149946,0,0.5396,0.0647,0.887,555,6.5308,-8.4839,0.1831,82,1.1276,0.9074,-36.6587,9.402,26,0.037,7873,3.9589,156.982
lg,1625145769356167200,0,0.5254,0.0625,0.8862,556,5.0659,-7.5073,-0.1831,82,1.1266,0.9074,-36.7081,9.4146,26,0.037,7953,3.9589,157.0508
lg,1625145769356184768,0,0.5166,0.062,0.877,557,5.7373,-7.6294,-0.3052,82,1.1286,0.9084,-36.7534,9.4577,26,0.037,7937,3.9589,157.1129
lg,1625145769356202522,0,0.532,0.0515,0.8867,558,5.8594,-8.3618,0.3052,82,1.1286,0.9084,-36.8499,9.4601,26,0.037,12329,3.9589,157.218
lg,1625145769356219184,0,0.5251,0.0518,0.8928,559,6.3477,-9.6436,0,82,1.1286,0.9084,-36.9714,9.4954,26,0.037,7969,3.9589,157.2988
lg,1625145769356236049,0,0.5352,0.0581,0.8879,560,6.6528,-9.3384,-0.3662,82,1.1276,0.9084,-37.0964,9.5703,26,0.037,9103,3.9589,157.3533
lg,1625145769356253581,0,0.5308,0.0552,0.8899,561,6.5308,-9.1553,-0.2441,82,1.1286,0.9084,-37.2016,9.6272,26,0.037,8078,3.9589,157.4131
lg,1625145769356270576,0,0.5305,0.0679,0.8875,562,5.8594,-8.728,-0.1831,82,1.1276,0.9074,-37.2848,9.6829,26,0.037,8082,3.9589,157.4692
lg,1625145769356287737,0,0.5327,0.0786,0.8918,563,4.6387,-7.3242,-0.1221,82,1.1286,0.9084,-37.3072,9.7069,26,0.038,9272,3.9589,157.5244
lg,1625145769356303973,0,0.5364,0.0627,0.8921,564,5.7373,-9.2163,0.4883,82,1.1276,0.9074,-37.4168,9.7222,26,0.038,8309,3.9589,157.6206
lg,1625145769356320986,0,0.5391,0.061,0.8823,565,5.4932,-8.667,0.6714,82,1.1276,0.9074,-37.5039,9.7325,26,0.038,8129,3.9589,157.7386
lg,1625145769356337444,0,0.5295,0.0623,0.8928,566,6.2866,-8.0566,0.3662,82,1.1276,0.9074,-37.5462,9.7637,26,0.038,8234,3.9589,157.8414
lg,1625145769356353828,0,0.5227,0.0608,0.8774,567,6.4697,-8.1177,0.061,82,1.1286,0.9074,-37.5916,9.8098,26,0.038,8187,3.9589,157.9297
lg,1625145769356370230,0,0.5369,0.0701,0.8848,568,7.0801,-7.6294,-0.4272,82,1.1286,0.9084,-37.6291,9.9157,26,0.038,8218,3.9589,157.9835
lg,1625145769356387151,0,0.5327,0.0674,0.8855,569,7.019,-8.3618,-0.3662,82,1.1286,0.9074,-37.6847,9.9834,26,0.038,8258,3.9589,158.0563
lg,1625145769356404553,0,0.5354,0.0527,0.8894,570,7.3853,-10.2539,-0.1221,82,1.1276,0.9074,-37.8196,10.0504,26,0.038,10021,3.9589,158.1362
lg,1625145769356422399,0,0.5261,0.0652,0.8975,571,6.6528,-9.8267,-0.7935,82,1.1286,0.9074,-37.8991,10.1346,26,0.038,8359,3.9589,158.1692
lg,1625145769356440246,0,0.5366,0.0674,0.8811,572,6.4697,-10.376,-0.061,82,1.1276,0.9074,-38.039,10.2006,26,0.038,8311,3.9589,158.2283
lg,1625145769356485084,0,0.5298,0.0686,0.8889,573,6.2256,-9.6436,0.3052,82,1.1286,0.9084,-38.1259,10.2391,26,0.038,8498,3.9589,158.3141
lg,1625145769356505041,0,0.5305,0.0576,0.8916,574,5.8594,-9.5215,-0.1221,82,1.1276,0.9074,-38.2024,10.243,26,0.038,8362,3.9589,158.3999
lg,1625145769356522517,0,0.5508,0.0657,0.896,575,5.0049,-8.1787,-0.3662,82,1.1276,0.9084,-38.2521,10.2361,26,0.038,8393,3.9589,158.4716
lg,1625145769356542215,0,0.5308,0.0752,0.8884,576,5.3711,-7.9346,-0.061,82,1.1266,0.9084,-38.262,10.2591,26,0.038,8413,3.9589,158.5446
lg,1625145769689371676,0,0.5439,0.0647,0.8816,577,5.4321,-8.3008,-0.3662,82,1.1286,0.9084,-38.3281,10.2548,26,0.038,24464,3.9589,158.6004
lg,1625145769689420513,0,0.5198,0.0532,0.8909,578,5.6763,-8.9111,0.061,82,1.1296,0.9084,-38.4035,10.2992,26,0.037,9533,3.9589,158.6524
lg,1625145769689445542,0,0.5415,0.0862,0.8948,579,5.7373,-8.8501,-0.2441,82,1.1286,0.9084,-38.4524,10.3743,26,0.037,7889,3.9589,158.6913
lg,1625145769689466110,0,0.5308,0.0725,0.8818,580,6.4087,-9.5215,-0.4272,82,1.1286,0.9084,-38.5219,10.448,26,0.037,10122,3.9589,158.7383
lg,1625145769689485974,0,0.5366,0.0654,0.8928,581,5.7983,-9.7046,-0.4272,82,1.1286,0.9084,-38.5961,10.4734,26,0.037,10422,3.9589,158.7993
lg,1625145769689504469,0,0.5388,0.0735,0.8879,582,5.7983,-9.2773,0.4883,82,1.1286,0.9084,-38.665,10.4903,26,0.037,7792,3.9589,158.8961
lg,1625145769689522611,0,0.5444,0.0554,0.8909,583,5.6152,-10.0098,0.6104,82,1.1286,0.9084,-38.7433,10.421,26,0.037,7833,3.9589,159.0314
lg,1625145769689540198,0,0.5332,0.0688,0.8896,584,4.8218,-9.3994,0.1221,82,1.1286,0.9084,-38.7972,10.399,26,0.037,7817,3.9589,159.1172
lg,1625145769689558452,0,0.5457,0.0603,0.8865,585,5.7983,-9.0332,0.061,82,1.1286,0.9084,-38.8626,10.3953,26,0.037,7891,3.9589,159.2166
lg,1625145769689575910,0,0.5366,0.0601,0.8857,586,6.4087,-9.0942,0.3052,82,1.1276,0.9074,-38.9139,10.4068,26,0.037,9050,3.9589,159.3291
lg,1625145769689592830,0,0.5237,0.0518,0.8862,587,6.0425,-8.9111,0.6714,82,1.1276,0.9084,-38.9465,10.3482,26,0.037,8392,3.9589,159.4822
lg,1625145769689626801,0,0.5217,0.0671,0.8862,588,6.4087,-9.6436,0.4272,82,1.1276,0.9084,-39.019,10.4261,26,0.037,7954,3.9589,159.5718
lg,1625145769689646036,0,0.5354,0.0728,0.8962,589,5.7373,-10.0708,0.4883,82,1.1276,0.9084,-39.087,10.4412,26,0.037,7955,3.9589,159.6655
lg,1625145769689663346,0,0.5417,0.071,0.8801,590,5.6152,-9.9487,0.6104,82,1.1286,0.9084,-39.1783,10.447,26,0.038,8040,3.9589,159.7666
lg,1625145769689680174,0,0.5474,0.0569,0.8787,591,5.4321,-10.437,0.7324,82,1.1286,0.9084,-39.2643,10.4745,25,0.038,7969,3.9589,159.8722
lg,1625145769689699205,0,0.5444,0.064,0.8674,592,5.6152,-10.1318,1.0986,82,1.1276,0.9084,-39.3804,10.4482,25,0.038,8020,3.9589,160.008
lg,1625145769689736175,0,0.5481,0.0745,0.8918,593,5.127,-9.9487,1.3428,82,1.1286,0.9084,-39.4632,10.4166,25,0.038,8032,3.9589,160.1438
lg,1625145769689770110,0,0.5642,0.0647,0.8867,594,4.7607,-9.5825,1.0986,82,1.1286,0.9084,-39.5398,10.3645,25,0.038,8193,3.9589,160.2913
lg,1625145769689796509,0,0.5481,0.0552,0.8914,595,5.4321,-8.1787,0.9766,82,1.1276,0.9064,-39.5492,10.2958,26,0.037,8066,3.9589,160.4586
lg,1625145769689819021,0,0.5383,0.0481,0.8792,596,5.0659,-7.6294,0.6104,82,1.1286,0.9084,-39.5315,10.2057,26,0.037,8224,3.9589,160.6225
lg,1625145769689843846,0,0.542,0.0593,0.8865,597,6.5918,-7.019,0.3052,82,1.1296,0.9084,-39.4842,10.2166,26,0.037,8164,3.9589,160.755
lg,1625145769689861026,0,0.5269,0.0718,0.886,598,6.4697,-7.4463,0.6104,82,1.1276,0.9074,-39.4275,10.2481,26,0.038,8175,3.9589,160.8778
lg,1625145769689877743,0,0.5525,0.0598,0.8826,599,6.2866,-7.5684,0.4272,82,1.1286,0.9084,-39.4301,10.2486,26,0.038,8198,3.9589,161.0093
lg,1625145769689897904,0,0.532,0.0471,0.8801,600,5.7983,-7.8125,0.061,82,1.1286,0.9084,-39.4076,10.2049,26,0.037,8210,3.9589,161.1442
lg,1625145769689915102,0,0.54,0.0566,0.8994,601,6.2256,-8.3618,0.061,82,1.1276,0.9084,-39.4263,10.2276,26,0.037,8211,3.9589,161.2491
lg,1625145769689931782,0,0.5366,0.0669,0.8933,602,6.1035,-8.606,0.4272,82,1.1276,0.9084,-39.427,10.2422,26,0.037,8315,3.9589,161.3612
lg,1625145769689972881,0,0.5496,0.0608,0.8784,603,5.8594,-9.3384,0.061,82,1.1286,0.9084,-39.4955,10.2516,26,0.037,8237,3.9589,161.4552
lg,1625145769689990912,0,0.5598,0.0635,0.8931,604,5.6152,-9.2773,0.3052,82,1.1286,0.9084,-39.5621,10.247,26,0.037,12444,3.9589,161.5599
lg,1625145769690008000,0,0.5361,0.0508,0.8882,605,7.0801,-8.5449,-0.5493,82,1.1286,0.9084,-39.5567,10.2871,26,0.037,8405,3.9589,161.6519
lg,1625145769690024717,0,0.5508,0.0593,0.8789,606,7.3242,-9.0942,-0.6714,82,1.1286,0.9084,-39.6074,10.3712,26,0.038,8313,3.9589,161.7149
lg,1625145769690041989,0,0.5632,0.0754,0.8801,607,6.8359,-8.9111,-0.6104,82,1.1286,0.9084,-39.6668,10.4757,26,0.038,8927,3.9589,161.7548
lg,1625145769690058799,0,0.5649,0.072,0.8884,608,6.6528,-9.3994,-0.4883,82,1.1286,0.9094,-39.7384,10.5559,26,0.038,8393,3.9589,161.8063
lg,1625145770056636597,0,0.5625,0.05,0.8853,609,5.3101,-8.4229,0.6104,82,1.1286,0.9084,-39.7815,10.477,26,0.037,24234,3.9589,161.9646
lg,1625145770056672050,0,0.5613,0.0537,0.8757,610,5.9204,-8.4839,0.3052,82,1.1296,0.9084,-39.8236,10.4165,26,0.037,11563,3.9589,162.1177
lg,1625145770056692378,0,0.5513,0.0596,0.8901,611,6.6528,-7.4463,-0.4272,82,1.1296,0.9084,-39.7894,10.448,26,0.037,8236,3.9589,162.2144
lg,1625145770056711835,0,0.5474,0.0603,0.8696,612,6.6528,-6.6528,-0.7324,82,1.1286,0.9084,-39.7393,10.491,26,0.037,7789,3.9589,162.2986
lg,1625145770056730145,0,0.5322,0.0679,0.8811,613,7.2021,-8.1787,-0.7935,82,1.1286,0.9094,-39.7077,10.5814,26,0.037,7871,3.9589,162.3556
lg,1625145770056747232,0,0.5366,0.0708,0.8838,614,7.019,-8.606,-0.7935,82,1.1296,0.9094,-39.6986,10.6717,26,0.037,7889,3.9589,162.405
lg,1625145770056764209,0,0.5422,0.0713,0.8838,615,6.5918,-9.3384,-0.3052,82,1.1286,0.9084,-39.7323,10.732,26,0.037,10669,3.9589,162.4729
lg,1625145770056780519,0,0.5581,0.0781,0.8867,616,5.9814,-9.2163,-0.3662,82,1.1276,0.9084,-39.7834,10.787,26,0.037,8485,3.9589,162.5271
lg,1625145770056808548,0,0.5476,0.0605,0.8738,617,6.5918,-8.1787,-0.4883,82,1.1276,0.9084,-39.7909,10.815,26,0.037,7873,3.9589,162.6168
lg,1625145770056849481,0,0.55,0.0681,0.864,618,6.1035,-7.9956,-0.3052,82,1.1286,0.9084,-39.7685,10.8005,26,0.037,7925,3.9589,162.7279
lg,1625145770056867809,0,0.5554,0.0713,0.8899,619,6.2866,-8.2397,-0.5493,82,1.1286,0.9084,-39.772,10.8445,26,0.037,7894,3.9589,162.797
lg,1625145770056884582,0,0.5461,0.0637,0.9021,620,7.5073,-8.9111,-0.3052,82,1.1286,0.9084,-39.7752,10.9057,26,0.037,7926,3.9589,162.8898
lg,1625145770056901170,0,0.5298,0.0732,0.884,621,7.2021,-8.9722,-0.2441,82,1.1276,0.9084,-39.7751,10.9222,26,0.037,7926,3.9589,163.0048
lg,1625145770056917184,0,0.5312,0.0698,0.8948,622,6.6528,-9.5215,-0.061,82,1.1286,0.9084,-39.7832,10.9592,26,0.038,7982,3.9589,163.0945
lg,1625145770056933235,0,0.5352,0.0723,0.8777,623,5.9814,-9.7656,0.3662,82,1.1286,0.9064,-39.8291,10.9684,26,0.037,8221,3.9589,163.1963
lg,1625145770056950433,0,0.5442,0.0481,0.8811,624,6.4087,-11.2305,1.1597,82,1.1286,0.9094,-39.9553,10.9091,26,0.037,9127,3.9589,163.3688
lg,1625145770056968484,0,0.5552,0.0649,0.8757,625,5.8594,-10.437,0.2441,82,1.1296,0.9084,-40.0604,10.9058,26,0.037,9785,3.9589,163.4688
lg,1625145770056986145,0,0.5623,0.0559,0.8872,626,6.5308,-9.8877,-0.3052,82,1.1296,0.9094,-40.1378,10.9162,26,0.037,12159,3.9589,163.5646
lg,1625145770057003548,0,0.5457,0.0649,0.8879,627,7.2632,-9.1553,-0.3052,82,1.1296,0.9094,-40.1506,10.9732,26,0.037,8087,3.9589,163.6535
lg,1625145770057020450,0,0.5476,0.0635,0.8774,628,6.7749,-9.3384,0.2441,82,1.1296,0.9094,-40.1899,10.9907,26,0.037,8127,3.9589,163.7706
lg,1625145770057037556,0,0.5452,0.0564,0.884,629,6.6528,-9.4604,0.1831,82,1.1296,0.9094,-40.2219,10.983,26,0.037,8086,3.9589,163.8984
lg,1625145770057054292,0,0.5503,0.0627,0.8877,630,6.7139,-10.3149,-0.3662,82,1.1296,0.9094,-40.2854,11.0193,26,0.037,8147,3.9589,163.978
lg,1625145770057071343,0,0.5435,0.0815,0.8809,631,7.3242,-10.376,-0.061,82,1.1296,0.9094,-40.3541,11.0972,26,0.037,8429,3.9589,164.0632
lg,1625145770057088708,0,0.533,0.061,0.8923,632,7.019,-10.3149,-0.1831,82,1.1286,0.9084,-40.3778,11.1261,26,0.037,8642,3.9589,164.161
lg,1625145770057118422,0,0.5425,0.0793,0.8713,633,6.897,-10.376,0.2441,82,1.1276,0.9084,-40.4424,11.1953,26,0.037,8232,3.9589,164.2414
lg,1625145770057136028,0,0.5476,0.0708,0.8701,634,7.8735,-11.5967,0.3052,82,1.1286,0.9084,-40.5656,11.2834,26,0.037,8250,3.9589,164.3294
lg,1625145770057152301,0,0.5627,0.0793,0.8911,635,6.8359,-11.5356,0.3662,82,1.1286,0.9084,-40.6907,11.2811,26,0.037,8264,3.9589,164.4517
lg,1625145770057168334,0,0.5596,0.0796,0.8665,636,6.897,-11.8408,0,82,1.1276,0.9084,-40.8351,11.3667,26,0.037,8305,3.9589,164.5057
lg,1625145770057184959,0,0.5315,0.0627,0.8708,637,6.8359,-11.0474,0.5493,82,1.1286,0.9084,-40.8953,11.3681,26,0.037,8368,3.9589,164.6346
lg,1625145770057201195,0,0.5251,0.0654,0.8687,638,6.897,-11.2305,0.7935,82,1.1286,0.9084,-40.9521,11.3722,26,0.037,8357,3.9589,164.7698
lg,1625145770057217116,0,0.5454,0.0642,0.8818,639,7.1411,-11.4136,0.7935,82,1.1286,0.9084,-41.0367,11.3823,26,0.037,8366,3.9589,164.9066
lg,1625145770057233167,0,0.5518,0.0659,0.8743,640,7.2021,-12.146,1.1597,82,1.1276,0.9094,-41.1691,11.3949,26,0.037,8394,3.9589,165.0499
lg,1625145770428362494,0,0.5632,0.0786,0.856,641,6.958,-12.5732,0.8545,82,1.1296,0.9094,-41.3447,11.4199,26,0.037,24016,3.9589,165.1676
lg,1625145770428453172,0,0.5798,0.0688,0.8831,642,6.7749,-11.8408,1.77,82,1.1296,0.9094,-41.4974,11.3997,26,0.037,13571,3.9589,165.3423
lg,1625145770428475592,0,0.5601,0.0786,0.8457,643,6.0425,-10.8643,1.77,82,1.1296,0.9094,-41.6116,11.3821,25,0.037,8453,3.9589,165.5024
lg,1625145770428494568,0,0.5591,0.072,0.8784,644,5.7983,-10.498,1.2817,82,1.1296,0.9094,-41.6651,11.3385,25,0.037,10162,3.9589,165.6617
lg,1625145770428512155,0,0.5615,0.0691,0.8657,645,5.7373,-10.1318,1.5869,82,1.1296,0.9094,-41.7118,11.288,25,0.037,7819,3.9589,165.8263
lg,1625145770428529280,0,0.5518,0.0725,0.8884,646,5.8594,-10.437,1.4038,82,1.1296,0.9094,-41.7352,11.2424,25,0.037,7950,3.9501,165.9935
lg,1625145770428576526,0,0.5454,0.0603,0.8835,647,5.6152,-10.498,1.2817,94,1.1296,0.9094,-41.7562,11.1589,26,0.038,7811,3.9501,166.1761
lg,1625145770428596742,0,0.5505,0.0696,0.856,648,5.9814,-11.0474,1.4038,94,1.1286,0.9094,-41.8369,11.1294,26,0.037,10165,3.9501,166.3331
lg,1625145770428615107,0,0.5686,0.083,0.8567,649,5.6763,-11.7798,1.8921,94,1.1296,0.9094,-41.9763,11.0613,26,0.037,7820,3.9501,166.5085
lg,1625145770428632306,0,0.5498,0.0662,0.8738,650,6.0425,-12.8174,1.4038,94,1.1286,0.9094,-42.0962,11.0331,26,0.037,8004,3.9501,166.6575
lg,1625145770428649412,0,0.561,0.0659,0.8601,651,5.8594,-12.9395,1.1597,94,1.1286,0.9094,-42.2506,11.0133,26,0.037,7844,3.9501,166.7888
lg,1625145770428667240,0,0.5588,0.0825,0.8743,652,5.9204,-13.3667,1.709,94,1.1276,0.9094,-42.3951,11.0229,26,0.037,9642,3.9501,166.9159
lg,1625145770428685217,0,0.5581,0.0713,0.8625,653,4.6997,-13.4888,2.3193,94,1.1276,0.9084,-42.5583,10.933,26,0.037,9288,3.9501,167.0952
lg,1625145770428702804,0,0.5823,0.0806,0.8774,654,4.6997,-12.8174,2.6855,94,1.1276,0.9084,-42.7151,10.8529,26,0.038,8052,3.9501,167.2832
lg,1625145770428721077,0,0.5693,0.0701,0.8708,655,4.6387,-11.6577,2.5024,94,1.1286,0.9084,-42.8061,10.7413,26,0.037,7959,3.9501,167.4935
lg,1625145770428738053,0,0.5808,0.0723,0.8757,656,4.0283,-11.7188,2.6245,94,1.1286,0.9094,-42.9107,10.6114,26,0.037,8088,3.9501,167.7038
lg,1625145770428757233,0,0.5803,0.0889,0.8608,657,3.418,-11.5356,2.9297,94,1.1286,0.9094,-42.994,10.4302,26,0.037,8256,3.9501,167.9436
lg,1625145770428773932,0,0.5676,0.0725,0.8877,658,3.1738,-9.5215,2.6855,94,1.1276,0.9084,-42.968,10.2555,26,0.037,8173,3.9501,168.1773
lg,1625145770428794037,0,0.5776,0.0686,0.8645,659,3.1738,-9.7046,2.1973,94,1.1286,0.9094,-42.9915,10.1042,26,0.038,8043,3.9501,168.3807
lg,1625145770428811384,0,0.5637,0.0701,0.8708,660,3.0518,-9.7656,2.0752,94,1.1286,0.9094,-43.0197,9.9681,26,0.037,8196,3.9501,168.572
lg,1625145770428831027,0,0.5715,0.0759,0.8762,661,2.7466,-9.9487,2.0142,94,1.1276,0.9094,-43.0226,9.8361,26,0.037,8640,3.9501,168.7456
lg,1625145770428883067,0,0.5642,0.0623,0.8516,662,2.8687,-10.5591,1.5869,94,1.1286,0.9094,-43.0651,9.7,26,0.038,9582,3.9501,168.9107
lg,1625145770428905505,0,0.5671,0.0491,0.8728,663,2.1362,-9.6436,1.8311,94,1.1276,0.9094,-43.0546,9.4801,26,0.036,8160,3.9501,169.1259
lg,1625145770428926111,0,0.5803,0.0459,0.8472,664,2.0752,-10.1929,1.5869,94,1.1286,0.9094,-43.1186,9.278,26,0.037,8305,3.9501,169.3186
lg,1625145770428943643,0,0.5928,0.0474,0.8752,665,2.1973,-8.667,1.77,94,1.1276,0.9094,-43.109,9.0712,26,0.037,8217,3.9501,169.5316
lg,1625145770428960916,0,0.5647,0.0566,0.873,666,3.54,-6.4697,0.9155,94,1.1276,0.9094,-42.9588,8.9692,26,0.037,8343,3.9501,169.6956
lg,1625145770428981706,0,0.554,0.0645,0.8696,667,4.0283,-5.5542,0.6714,94,1.1286,0.9094,-42.7597,8.9181,26,0.037,8230,3.9501,169.8351
lg,1625145770428999442,0,0.5469,0.0598,0.8872,668,4.0894,-6.2256,-0.061,94,1.1276,0.9094,-42.5916,8.8645,26,0.037,8231,3.9501,169.9501
lg,1625145770429016566,0,0.5776,0.0601,0.854,669,4.0894,-7.5073,-0.1831,94,1.1266,0.9084,-42.5401,8.8574,26,0.037,8279,3.9501,170.0267
lg,1625145770429038060,0,0.5742,0.0752,0.8838,670,4.0894,-6.7139,-1.4648,94,1.1276,0.9094,-42.4075,8.9277,26,0.037,8283,3.9501,170.017
lg,1625145770429055481,0,0.5574,0.0581,0.8625,671,4.8218,-7.019,-1.8311,94,1.1286,0.9094,-42.2877,8.9937,26,0.036,8370,3.9501,170.0174
lg,1625145770429073161,0,0.5698,0.0676,0.8723,672,4.6387,-6.7139,-2.1362,94,1.1276,0.9094,-42.1641,9.0752,26,0.037,8517,3.9501,169.9767
lg,1625145770781042368,0,0.5547,0.051,0.8425,673,5.0659,-8.4229,-1.77,94,1.1276,0.9094,-42.1298,9.135,26,0.037,24224,3.9501,169.9819
lg,1625145770781081894,0,0.5586,0.0437,0.8579,674,5.3101,-10.2539,-1.0376,94,1.1286,0.9094,-42.1637,9.161,26,0.037,9573,3.9501,170.0288
lg,1625145770781102684,0,0.5771,0.0562,0.8701,675,6.2256,-10.376,-1.1597,94,1.1276,0.9094,-42.2368,9.2583,26,0.037,8103,3.9501,170.0702
lg,1625145770781122179,0,0.594,0.0703,0.8738,676,5.8594,-10.8643,-0.3052,94,1.1276,0.9094,-42.3338,9.3564,26,0.038,7863,3.9501,170.1011
lg,1625145770781140859,0,0.5959,0.0603,0.8787,677,6.1035,-10.2539,-0.2441,94,1.1286,0.9094,-42.4173,9.4056,26,0.037,10447,3.9501,170.1772
lg,1625145770781184772,0,0.583,0.0493,0.8735,678,6.0425,-9.7046,-0.4272,94,1.1286,0.9094,-42.4466,9.4406,26,0.037,8141,3.9501,170.2579
lg,1625145770781204377,0,0.5967,0.0564,0.8625,679,5.3711,-8.4839,0.1221,94,1.1286,0.9094,-42.4659,9.4458,26,0.037,9808,3.9501,170.3625
lg,1625145770781223187,0,0.5776,0.0498,0.8625,680,6.1035,-7.7515,0.9155,94,1.1286,0.9094,-42.4289,9.4249,26,0.037,7892,3.9501,170.5313
lg,1625145770781252678,0,0.5652,0.0388,0.8523,681,5.6152,-7.1411,0.4883,94,1.1286,0.9094,-42.3313,9.3545,26,0.036,7944,3.9501,170.7601
lg,1625145770781271062,0,0.5688,0.0601,0.8721,682,6.2256,-5.6763,1.4648,94,1.1276,0.9094,-42.1924,9.337,26,0.037,8518,3.9501,170.9557
lg,1625145770781289168,0,0.5642,0.0518,0.8445,683,7.3242,-6.5918,1.2817,94,1.1266,0.9094,-42.1199,9.3592,26,0.037,8487,3.9501,171.1441
lg,1625145770781310736,0,0.5676,0.0613,0.8523,684,8.3618,-7.4463,0.9766,94,1.1266,0.9084,-42.0765,9.4645,26,0.037,8194,3.9501,171.2908
lg,1625145770781329064,0,0.583,0.0571,0.8821,685,8.2397,-7.3242,0.8545,94,1.1276,0.9094,-42.0556,9.6508,26,0.037,8022,3.9501,171.3758
lg,1625145770781345929,0,0.5869,0.0818,0.8735,686,8.4839,-7.3853,0.8545,94,1.1266,0.9094,-42.0168,9.8085,26,0.037,8053,3.9501,171.4857
lg,1625145770781362869,0,0.5657,0.0698,0.8665,687,9.0332,-7.019,1.1597,94,1.1276,0.9094,-41.9406,9.9342,26,0.037,8060,3.9501,-188.3579
lg,1625145770781380419,0,0.5715,0.1035,0.8293,688,8.9722,-6.897,1.0376,94,1.1276,0.9094,-41.8854,10.0404,26,0.037,8099,3.9501,-188.2184
lg,1625145770781399544,0,0.5579,0.0933,0.8669,689,6.6528,-7.4463,1.8311,94,1.1276,0.9084,-41.8161,10.1087,26,0.037,8353,3.9501,-188.0711
lg,1625145770781420834,0,0.5703,0.073,0.8721,690,7.2632,-8.0566,1.9531,94,1.1266,0.9094,-41.7956,10.1391,26,0.037,8154,3.9501,-187.882
lg,1625145770781439736,0,0.5632,0.0715,0.8564,691,6.6528,-8.3008,2.0142,94,1.1276,0.9104,-41.7917,10.1433,26,0.037,8322,3.9501,-187.6914
lg,1625145770781458749,0,0.5823,0.085,0.8472,692,7.2021,-8.8501,2.0142,94,1.1276,0.9094,-41.8518,10.2175,26,0.038,8205,3.9501,-187.5361
lg,1625145770781503107,0,0.5945,0.0637,0.8701,693,7.3853,-7.4463,1.5259,94,1.1266,0.9094,-41.8505,10.2365,26,0.037,8325,3.9501,-187.3456
lg,1625145770781521823,0,0.5857,0.0754,0.8491,694,7.8125,-5.5542,0.9766,94,1.1276,0.9094,-41.7782,10.3187,26,0.038,10103,3.9501,-187.1924
lg,1625145770781539429,0,0.5759,0.0537,0.856,695,9.2773,-4.6997,0.9155,94,1.1276,0.9104,-41.6547,10.3862,26,0.037,8604,3.9501,-186.9875
lg,1625145770781560220,0,0.5774,0.0591,0.865,696,9.2163,-4.8218,0.9766,94,1.1276,0.9094,-41.532,10.4607,26,0.037,8290,3.9501,-186.7886
lg,1625145770781578122,0,0.5745,0.0571,0.8472,697,9.7046,-4.7607,0.8545,94,1.1276,0.9094,-41.4276,10.5553,26,0.037,8374,3.9501,-186.594
lg,1625145770781594951,0,0.5615,0.0532,0.873,698,9.4604,-6.1035,1.0376,94,1.1276,0.9094,-41.3284,10.6181,26,0.038,8348,3.9501,-186.3873
lg,1625145770781615167,0,0.5791,0.0596,0.8584,699,8.4839,-6.7749,1.5259,94,1.1276,0.9104,-41.3102,10.6527,26,0.038,10178,3.9501,-186.1778
lg,1625145770781633199,0,0.5845,0.0459,0.8728,700,8.5449,-5.188,2.0142,94,1.1276,0.9094,-41.2303,10.6189,26,0.038,8902,3.9501,-185.8981
lg,1625145770781650620,0,0.5774,0.0417,0.856,701,8.3008,-4.3945,2.0142,94,1.1276,0.9094,-41.1308,10.5637,26,0.038,8647,3.9501,-185.6065
lg,1625145770781669948,0,0.5715,0.0229,0.8604,702,8.5449,-3.418,2.1362,94,1.1276,0.9104,-40.9867,10.4547,26,0.038,8623,3.9501,-185.264
lg,1625145770781686869,0,0.5615,0.0347,0.8523,703,9.5825,-4.8218,1.8921,94,1.1276,0.9094,-40.8918,10.4572,26,0.037,8811,3.9501,-184.9582
lg,1625145770781705345,0,0.5715,0.0344,0.8765,704,10.8643,-5.3101,1.5259,94,1.1276,0.9094,-40.8045,10.508,26,0.038,8699,3.9501,-184.6898
lg,1625145771135069128,0,0.5076,0.0571,0.8313,705,12.5732,-11.2915,2.5635,94,1.1286,0.9104,-40.8904,10.6957,26,0.037,24739,3.9501,-184.4699
lg,1625145771135113579,0,0.5303,0.0454,0.8699,706,11.4746,-17.2119,2.9297,94,1.1276,0.9094,-41.2092,10.8151,26,0.037,9505,3.9501,-184.2572
lg,1625145771135134536,0,0.583,0.0354,0.8545,707,11.2915,-20.813,2.9907,94,1.1276,0.9094,-41.7734,10.9276,26,0.037,9924,3.9501,-184.0632
lg,1625145771135153549,0,0.574,0.0249,0.873,708,10.3149,-19.5312,0.2441,94,1.1276,0.9104,-42.2211,11.085,26,0.038,12435,3.9501,-184.0281
lg,1625145771135211052,0,0.6096,0.0339,0.855,709,10.6812,-20.6909,-1.1597,94,1.1286,0.9104,-42.7559,11.3103,26,0.038,8210,3.9501,-184.0449
lg,1625145771135233250,0,0.5984,0.0488,0.8381,710,11.3525,-18.7988,-1.9531,94,1.1276,0.9104,-43.1867,11.6174,26,0.038,7852,3.9501,-184.1109
lg,1625145771135251875,0,0.5991,0.0332,0.8457,711,10.6201,-17.5171,-2.5635,94,1.1276,0.9104,-43.5253,11.8752,26,0.038,8017,3.9501,-184.1682
lg,1625145771135270166,0,0.5994,0.0281,0.8259,712,10.9863,-17.0898,-2.6245,94,1.1276,0.9104,-43.8769,12.1032,26,0.038,7901,3.9501,-184.1994
lg,1625145771135287384,0,0.5823,0.0269,0.8418,713,10.376,-17.5171,-2.5635,94,1.1286,0.9104,-44.1821,12.2878,26,0.038,9413,3.9501,-184.2179
lg,1625145771135304583,0,0.6125,0.0496,0.8235,714,10.5591,-18.2495,-2.2583,94,1.1266,0.9094,-44.5753,12.5507,26,0.038,8389,3.9501,-184.2824
lg,1625145771135321634,0,0.6091,0.0417,0.8303,715,10.0098,-16.7236,-1.9531,94,1.1276,0.9104,-44.8503,12.7428,26,0.038,11551,3.9501,-184.2942
lg,1625145771135338463,0,0.5991,0.0356,0.8533,716,10.8032,-16.8457,-2.1973,94,1.1286,0.9104,-45.1074,12.9303,26,0.038,8100,3.9501,-184.2878
lg,1625145771135355088,0,0.6216,0.0398,0.8469,717,11.9019,-15.0757,-1.77,94,1.1286,0.9104,-45.3348,13.1425,26,0.038,8234,3.9501,-184.2448
lg,1625145771135372268,0,0.613,0.072,0.8354,718,13.5498,-12.5122,-2.7466,94,1.1286,0.9104,-45.434,13.528,26,0.038,7999,3.9501,-184.2894
lg,1625145771135389430,0,0.6035,0.0642,0.8523,719,13.7329,-12.207,-3.479,94,1.1286,0.9104,-45.4763,13.8994,26,0.038,8207,3.9501,-184.338
lg,1625145771135406407,0,0.5745,0.0691,0.8428,720,15.8691,-12.5732,-4.4556,94,1.1286,0.9104,-45.4801,14.3959,26,0.038,8037,3.9501,-184.4461
lg,1625145771135422755,0,0.585,0.1167,0.8357,721,15.4419,-15.7471,-4.6997,94,1.1286,0.9094,-45.612,15.0524,26,0.038,8958,3.9501,-184.7137
lg,1625145771135439824,0,0.6279,0.0984,0.8525,722,13.5498,-17.4561,-4.1504,94,1.1276,0.9094,-45.8668,15.5023,26,0.038,8118,3.9501,-184.8827
lg,1625145771135456709,0,0.6299,0.1111,0.8418,723,11.3525,-16.4795,-3.7842,94,1.1276,0.9084,-46.0908,15.9179,26,0.038,8311,3.9501,-185.0809
lg,1625145771135488108,0,0.5967,0.1182,0.8345,724,8.4839,-14.4043,-3.1128,94,1.1276,0.9094,-46.1827,16.1732,26,0.039,8169,3.9501,-185.2134
lg,1625145771135508269,0,0.6521,0.0876,0.834,725,7.6294,-14.4653,-1.0986,94,1.1286,0.9094,-46.4024,16.2248,26,0.038,8347,3.9501,-185.1706
lg,1625145771135525838,0,0.6577,0.0886,0.8293,726,7.2632,-11.5356,-0.9766,94,1.1286,0.9094,-46.5179,16.2272,26,0.038,8221,3.9501,-185.0757
lg,1625145771135542982,0,0.6455,0.0933,0.8296,727,6.5308,-6.5308,-1.3428,94,1.1276,0.9094,-46.4116,16.1669,26,0.038,8384,3.9501,-184.9265
lg,1625145771135560699,0,0.6096,0.0757,0.8445,728,6.6528,-3.3569,-0.9155,94,1.1286,0.9094,-46.1213,15.9901,26,0.039,8239,3.9501,-184.6535
lg,1625145771135578991,0,0.605,0.084,0.8242,729,8.1177,-3.1128,-1.5259,94,1.1286,0.9104,-45.8559,15.9193,26,0.038,8427,3.9501,-184.4361
lg,1625145771135596412,0,0.5903,0.0881,0.8467,730,7.9346,-3.9673,-0.9766,94,1.1276,0.9094,-45.5681,15.8489,26,0.038,8279,3.9501,-184.2125
lg,1625145771135613666,0,0.5918,0.1052,0.8477,731,6.8359,-5.188,-0.5493,94,1.1286,0.9104,-45.3374,15.7879,26,0.039,8434,3.9501,-184.0267
lg,1625145771135630255,0,0.6018,0.0989,0.8337,732,6.3477,-5.0049,-0.5493,94,1.1286,0.9104,-45.1449,15.6995,26,0.038,8304,3.9501,-183.8349
lg,1625145771135647380,0,0.5979,0.0979,0.8413,733,6.2256,-5.6763,-0.4883,94,1.1296,0.9104,-44.966,15.538,26,0.039,8358,3.9501,-183.6066
lg,1625145771135663986,0,0.5603,0.0933,0.8477,734,5.4321,-6.1646,-0.2441,94,1.1286,0.9064,-44.7472,15.3928,26,0.039,8399,3.9501,-183.4022
lg,1625145771135680371,0,0.5879,0.0808,0.8328,735,6.0425,-8.1177,-0.6714,94,1.1276,0.9094,-44.6785,15.2911,26,0.038,10189,3.9501,-183.2385
lg,1625145771135696959,0,0.5867,0.0759,0.8447,736,5.9814,-9.3994,-0.4883,94,1.1286,0.9104,-44.6486,15.1768,26,0.039,8464,3.9501,-183.0723
lg,1625145771494248796,0,0.6086,0.0852,0.8401,737,7.1411,-10.8643,-1.0986,94,1.1296,0.9104,-44.7007,15.16,26,0.039,24338,3.9501,-182.9711
lg,1625145771494313964,0,0.6096,0.0815,0.8521,738,6.5918,-10.376,-0.2441,94,1.1296,0.9104,-44.7387,15.0948,26,0.038,12543,3.9501,-182.8222
lg,1625145771494335513,0,0.6216,0.0742,0.8411,739,6.5308,-9.0332,0.1831,94,1.1296,0.9094,-44.7645,14.9853,26,0.038,7937,3.9501,-182.6216
lg,1625145771494355341,0,0.6094,0.0903,0.8354,740,6.5308,-7.3853,0.3052,94,1.1296,0.9104,-44.7071,14.9068,26,0.039,10549,3.9501,-182.4268
lg,1625145771494374040,0,0.5991,0.1038,0.8474,741,5.9204,-6.7139,0.7324,94,1.1296,0.9104,-44.5735,14.6956,26,0.039,7948,3.9501,-182.1819
lg,1625145771494392331,0,0.606,0.0879,0.8335,742,5.7983,-7.2021,0.2441,94,1.1296,0.9104,-44.5125,14.5938,26,0.038,7882,3.9501,-181.9916
lg,1625145771494410808,0,0.584,0.0808,0.8376,743,6.8359,-7.1411,-0.061,94,1.1296,0.9104,-44.4072,14.5206,26,0.039,9583,3.9501,-181.8002
lg,1625145771494429729,0,0.5964,0.0942,0.8274,744,7.6904,-8.2397,-0.8545,94,1.1296,0.9104,-44.37,14.5739,26,0.039,7873,3.9501,-181.7041
lg,1625145771494446854,0,0.5991,0.1021,0.8252,745,7.1411,-10.1929,-0.7935,94,1.1286,0.9104,-44.4146,14.6456,26,0.038,8865,3.9501,-181.6493
lg,1625145771494469200,0,0.6099,0.1057,0.8528,746,6.4697,-10.376,-0.7324,94,1.1286,0.9104,-44.4489,14.6861,26,0.038,7893,3.9501,-181.5911
lg,1625145771494486084,0,0.6086,0.0916,0.8513,747,5.127,-7.9346,-0.5493,94,1.1286,0.9104,-44.3946,14.5988,26,0.039,8130,3.9501,-181.4577
lg,1625145771494503283,0,0.6177,0.0776,0.8318,748,4.9438,-8.3008,-0.5493,94,1.1286,0.9104,-44.4008,14.4811,26,0.038,7968,3.9501,-181.3105
lg,1625145771494520593,0,0.6243,0.0908,0.8281,749,5.3711,-7.9346,-0.5493,94,1.1286,0.9104,-44.3958,14.3891,26,0.038,7985,3.9501,-181.1663
lg,1625145771494537644,0,0.5996,0.0894,0.835,750,5.6763,-6.6528,-0.2441,94,1.1286,0.9094,-44.3017,14.3111,26,0.039,7982,3.9501,-181.0056
lg,1625145771494557009,0,0.5991,0.0955,0.8347,751,5.4321,-6.1035,-0.5493,94,1.1296,0.9094,-44.1843,14.2517,26,0.039,8014,3.9501,-180.8696
lg,1625145771494574153,0,0.5908,0.0884,0.825,752,5.249,-7.0801,-0.1221,94,1.1296,0.9104,-44.1819,14.1917,26,0.039,8574,3.9501,-180.7203
lg,1625145771494607200,0,0.6157,0.0874,0.8381,753,6.2256,-9.7656,0.1831,94,1.1296,0.9104,-44.2235,14.1338,26,0.038,8137,3.9501,-180.5752
lg,1625145771494626398,0,0.6152,0.0789,0.8398,754,5.0049,-8.606,-0.4883,94,1.1286,0.9104,-44.2333,14.0373,26,0.038,8133,3.9501,-180.4407
lg,1625145771494643857,0,0.6267,0.1052,0.8384,755,6.1035,-8.3618,-0.2441,94,1.1296,0.9104,-44.248,14.0578,26,0.038,8166,3.9501,-180.349
lg,1625145771494660722,0,0.6279,0.0815,0.8276,756,5.7373,-6.897,-0.4883,94,1.1296,0.9104,-44.2269,13.9935,25,0.039,8159,3.9501,-180.2043
lg,1625145771494677236,0,0.6282,0.0967,0.8359,757,5.5542,-5.6763,-0.061,94,1.1296,0.9104,-44.1484,13.938,25,0.039,8135,3.9501,-180.0505
lg,1625145771494693862,0,0.6147,0.0852,0.8315,758,5.249,-4.1504,0.061,94,1.1286,0.9104,-44.0015,13.8198,25,0.039,8186,3.9501,-179.8475
lg,1625145771494710431,0,0.5955,0.0706,0.8428,759,5.7373,-4.0894,0.2441,94,1.1296,0.9104,-43.8169,13.6667,25,0.038,8194,3.9501,-179.6013
lg,1625145771494727371,0,0.6057,0.0886,0.8337,760,5.7373,-3.8452,0.1831,83,1.1286,0.9104,-43.6052,13.6256,26,0.038,8227,3.9578,-179.4341
lg,1625145771494743774,0,0.5867,0.0903,0.8608,761,5.6152,-5.3101,0.5493,83,1.1296,0.9104,-43.4723,13.5071,26,0.038,9814,3.9578,-179.2168
lg,1625145771494760936,0,0.5828,0.0833,0.8479,762,5.6763,-6.2256,0.3662,83,1.1306,0.9104,-43.3496,13.4201,26,0.039,9838,3.9578,-179.0314
lg,1625145771494777969,0,0.5938,0.0913,0.832,763,6.2866,-6.7139,-0.4272,83,1.1296,0.9104,-43.2881,13.4226,26,0.038,8327,3.9578,-178.917
lg,1625145771494794816,0,0.6077,0.0918,0.8364,764,5.4321,-6.2866,-0.3662,83,1.1306,0.9104,-43.2319,13.387,26,0.039,8552,3.9578,-178.7955
lg,1625145771494811663,0,0.6118,0.0864,0.8318,765,5.7983,-6.4087,0.8545,83,1.1296,0.9104,-43.2085,13.3109,26,0.038,8370,3.9578,-178.6024
lg,1625145771494828474,0,0.6243,0.0801,0.8357,766,5.3101,-6.2866,0.5493,83,1.1296,0.9104,-43.202,13.2092,26,0.039,8384,3.9578,-178.4126
lg,1625145771494845006,0,0.6296,0.0898,0.8494,767,5.188,-5.249,0.6714,83,1.1296,0.9094,-43.1406,13.1182,26,0.038,8854,3.9578,-178.223
lg,1625145771494876331,0,0.604,0.1035,0.8335,768,5.0659,-4.3335,0.1221,83,1.1296,0.9104,-43.0121,13.0817,26,0.038,8491,3.9578,-178.0838
lg,1625145771852333851,0,0.5881,0.0708,0.8372,769,6.4087,-6.1035,-0.3052,83,1.1276,0.9104,-42.9365,13.0307,26,0.038,24451,3.9578,-177.9335
lg,1625145771852369934,0,0.6052,0.0879,0.8271,770,6.1646,-6.7749,-0.9155,83,1.1296,0.9104,-42.9161,13.0572,26,0.038,13695,3.9578,-177.8537
lg,1625145771852390539,0,0.6008,0.0872,0.8398,771,6.3477,-6.958,-0.7935,83,1.1296,0.9104,-42.8815,13.0786,26,0.038,7983,3.9578,-177.7632
lg,1625145771852409146,0,0.6084,0.0933,0.8306,772,5.9814,-7.5684,0.061,83,1.1296,0.9104,-42.9024,13.0821,26,0.038,10567,3.9578,-177.6505
lg,1625145771852434120,0,0.6104,0.0876,0.8359,773,5.249,-7.3242,0,83,1.1306,0.9104,-42.9109,13.0377,26,0.038,7764,3.9578,-177.525
lg,1625145771852452597,0,0.6091,0.0845,0.8323,774,5.7373,-7.5073,-0.061,83,1.1306,0.9104,-42.929,13.0104,26,0.039,7763,3.9578,-177.4006
lg,1625145771852469685,0,0.5967,0.0808,0.8298,775,6.1035,-6.958,-0.4883,83,1.1306,0.9104,-42.9037,12.9976,26,0.038,7811,3.9578,-177.2845
lg,1625145771852486958,0,0.5964,0.0808,0.8372,776,5.6763,-6.1646,-0.6714,83,1.1296,0.9104,-42.8373,12.9653,26,0.038,7812,3.9578,-177.1667
lg,1625145771852504194,0,0.603,0.0828,0.844,777,6.2256,-7.0801,-0.7324,83,1.1286,0.9104,-42.8266,12.9903,26,0.037,8068,3.9578,-177.0791
lg,1625145771852520764,0,0.5903,0.0996,0.8442,778,6.7139,-7.6294,-0.6104,83,1.1286,0.9104,-42.7953,13.061,26,0.037,7880,3.9578,-177.0119
lg,1625145771852537333,0,0.5947,0.0977,0.8357,779,6.1646,-7.8125,-0.8545,83,1.1286,0.9104,-42.789,13.1163,26,0.037,7869,3.9578,-176.9577
lg,1625145771852553699,0,0.5864,0.0823,0.8413,780,5.9204,-8.1177,-0.8545,83,1.1296,0.9104,-42.7975,13.1228,26,0.037,7926,3.9578,-176.8833
lg,1625145771852569899,0,0.5833,0.0825,0.8511,781,6.7749,-8.667,-1.2207,83,1.1286,0.9094,-42.7867,13.1671,26,0.037,7897,3.9578,-176.8212
lg,1625145771852586228,0,0.5938,0.0903,0.8362,782,5.9204,-8.3008,-0.8545,83,1.1296,0.9104,-42.7997,13.1906,26,0.038,7933,3.9578,-176.7556
lg,1625145771852627124,0,0.5815,0.0754,0.8469,783,6.0425,-9.7046,-1.0376,83,1.1296,0.9104,-42.8348,13.1858,26,0.037,11330,3.9578,-176.6818
lg,1625145771852645934,0,0.6023,0.0857,0.8376,784,6.1646,-10.437,-1.0986,83,1.1296,0.9104,-42.9411,13.2323,26,0.037,8012,3.9578,-176.6465
lg,1625145771852663614,0,0.615,0.1052,0.833,785,7.3242,-11.4136,-1.3428,83,1.1296,0.9104,-43.1273,13.3554,26,0.037,8203,3.9578,-176.6455
lg,1625145771852680739,0,0.6343,0.1006,0.824,786,6.6528,-9.3384,-0.9766,83,1.1296,0.9104,-43.2484,13.4563,26,0.037,8055,3.9578,-176.6231
lg,1625145771852697457,0,0.6167,0.0981,0.8284,787,6.1035,-7.1411,-0.3052,83,1.1296,0.9104,-43.2511,13.4754,26,0.037,8212,3.9578,-176.5253
lg,1625145771852713990,0,0.6321,0.0933,0.8352,788,4.8828,-6.1646,0.3662,83,1.1306,0.9104,-43.2403,13.3923,26,0.038,8381,3.9578,-176.3469
lg,1625145771852731244,0,0.6101,0.1038,0.8274,789,4.5776,-4.3335,0.3052,83,1.1286,0.9104,-43.1282,13.3226,26,0.037,11589,3.9578,-176.1934
lg,1625145771852748036,0,0.595,0.0942,0.8489,790,4.3335,-2.9907,1.0986,83,1.1296,0.9104,-42.9627,13.1834,26,0.038,8154,3.9578,-175.991
lg,1625145771852764550,0,0.5959,0.1028,0.844,791,5.9204,-4.3945,0.6104,83,1.1286,0.9104,-42.8213,13.1534,26,0.037,8468,3.9578,-175.8202
lg,1625145771852781064,0,0.5818,0.0786,0.8293,792,4.9438,-4.8828,0.8545,83,1.1286,0.9104,-42.7069,13.0143,26,0.037,8326,3.9578,-175.5981
lg,1625145771852797190,0,0.5972,0.0916,0.8318,793,5.9204,-6.897,0.7935,83,1.1306,0.9104,-42.6944,12.979,26,0.038,8197,3.9578,-175.4356
lg,1625145771852813148,0,0.5964,0.085,0.8491,794,5.249,-6.1646,0.1831,83,1.1286,0.9104,-42.6474,12.8836,26,0.037,8207,3.9578,-175.2627
lg,1625145771852829292,0,0.5879,0.0891,0.8367,795,6.4087,-8.2397,-0.1221,83,1.1286,0.9104,-42.6592,12.9063,26,0.037,8247,3.9578,-175.1613
lg,1625145771852845621,0,0.5962,0.0879,0.8357,796,6.958,-8.5449,-0.7935,83,1.1296,0.9104,-42.6927,12.9747,26,0.038,8250,3.9578,-175.0974
lg,1625145771852862191,0,0.6062,0.0842,0.8228,797,5.7983,-7.9346,-0.6104,83,1.1296,0.9104,-42.7783,12.9815,26,0.038,8302,3.9578,-174.9943
lg,1625145771852891960,0,0.6245,0.103,0.8237,798,5.5542,-8.8501,-0.061,83,1.1286,0.9104,-42.8853,13.0214,26,0.037,8302,3.9578,-174.9303
lg,1625145771852910178,0,0.6238,0.1006,0.8315,799,4.3945,-7.8125,0.8545,83,1.1296,0.9104,-42.9456,12.9605,26,0.038,8372,3.9578,-174.7956
lg,1625145771852926359,0,0.6265,0.1099,0.824,800,4.0894,-4.9438,1.3428,83,1.1296,0.9104,-42.908,12.8793,26,0.037,8355,3.9578,-174.6221
lg,1625145772198867019,0,0.6133,0.0854,0.8303,801,4.2725,-3.7231,1.2207,83,1.1296,0.9104,-42.8,12.7267,26,0.038,24439,3.9578,-174.39
lg,1625145772198926448,0,0.5925,0.0869,0.8333,802,3.7842,-3.0518,1.0986,83,1.1286,0.9104,-42.6281,12.5605,26,0.037,8964,3.9578,-174.1611
lg,1625145772198957496,0,0.5867,0.0842,0.8257,803,5.4932,-4.0283,0.7324,83,1.1306,0.9104,-42.4544,12.4744,26,0.038,11732,3.9578,-174.0012
lg,1625145772198986896,0,0.5886,0.0884,0.8406,804,5.4932,-5.4321,0.061,83,1.1306,0.9104,-42.3985,12.4359,26,0.038,10281,3.9578,-173.8539
lg,1625145772199014685,0,0.6035,0.0801,0.8247,805,6.2866,-5.7373,0.061,83,1.1306,0.9104,-42.4158,12.4648,26,0.037,9704,3.9578,-173.7587
lg,1625145772199041549,0,0.6113,0.0881,0.8682,806,6.0425,-5.8594,0.1221,83,1.1306,0.9104,-42.3492,12.45,26,0.038,7982,3.9578,-173.6187
lg,1625145772199068190,0,0.6042,0.0959,0.8467,807,4.9438,-4.6997,0.6104,83,1.1306,0.9104,-42.2556,12.3962,26,0.038,8969,3.9578,-173.4606
lg,1625145772199093758,0,0.615,0.1001,0.8367,808,5.3101,-4.9438,0.6714,83,1.1306,0.9104,-42.2054,12.377,26,0.038,7790,3.9578,-173.3162
lg,1625145772199120918,0,0.6382,0.0969,0.8379,809,4.8218,-4.0894,1.0986,83,1.1306,0.9104,-42.1668,12.311,26,0.038,7801,3.9578,-173.1356
lg,1625145772199147689,0,0.6077,0.0955,0.8308,810,4.2725,-2.1973,1.0986,83,1.1306,0.9104,-42.0128,12.2064,26,0.038,8710,3.9578,-172.9316
lg,1625145772199172997,0,0.5903,0.0952,0.8281,811,4.1504,-1.4648,1.2207,83,1.1296,0.9104,-41.8099,12.0905,26,0.038,8584,3.9578,-172.7157
lg,1625145772199199083,0,0.5925,0.0876,0.8447,812,4.0283,-1.77,0.6104,83,1.1296,0.9104,-41.6028,11.9908,26,0.038,7879,3.9578,-172.5272
lg,1625145772199263715,0,0.5784,0.0803,0.8484,813,4.2114,-3.2349,0.5493,83,1.1286,0.9104,-41.4367,11.8713,26,0.038,8067,3.9578,-172.3388
lg,1625145772199294170,0,0.6096,0.0847,0.8376,814,3.7231,-5.3101,0.4883,83,1.1296,0.9104,-41.4244,11.7763,26,0.039,7919,3.9578,-172.1948
lg,1625145772199319349,0,0.614,0.103,0.8389,815,5.127,-5.127,0.2441,83,1.1296,0.9104,-41.4113,11.7343,26,0.039,7904,3.9578,-172.0722
lg,1625145772199344510,0,0.6274,0.0938,0.8474,816,4.4556,-4.7607,-0.1831,83,1.1286,0.9104,-41.3892,11.7174,26,0.038,7983,3.9578,-171.9769
lg,1625145772199371466,0,0.6304,0.1021,0.8503,817,3.9673,-2.6245,-0.6104,83,1.1296,0.9104,-41.2804,11.7039,26,0.039,8228,3.9578,-171.8963
lg,1625145772199399144,0,0.6304,0.0984,0.8269,818,3.54,-0.5493,-0.3662,83,1.1296,0.9104,-41.0767,11.6167,26,0.039,8044,3.9578,-171.7736
lg,1625145772199425748,0,0.625,0.1125,0.8357,819,2.3193,2.8076,-0.9155,83,1.1286,0.9094,-40.7724,11.5503,26,0.039,8058,3.9578,-171.6781
lg,1625145772199455389,0,0.6052,0.1042,0.8394,820,1.0376,5.0659,0.6104,83,1.1296,0.9104,-40.3672,11.3432,26,0.039,8039,3.9578,-171.466
lg,1625145772199482919,0,0.6064,0.0842,0.8506,821,0.4272,5.3101,1.4038,83,1.1296,0.9104,-40.0017,11.0089,26,0.039,8076,3.9578,-171.1664
lg,1625145772199510986,0,0.5972,0.0854,0.8638,822,-0.6104,4.6387,1.9531,83,1.1286,0.9094,-39.6129,10.6604,26,0.039,8100,3.9578,-170.8712
lg,1625145772199540608,0,0.6052,0.0906,0.8533,823,-0.7935,3.6621,2.8076,83,1.1296,0.9094,-39.3082,10.3196,26,0.039,8130,3.9578,-170.5671
lg,1625145772199570638,0,0.6067,0.082,0.8293,824,-2.0142,5.6152,2.7466,83,1.1306,0.9104,-38.9716,9.9231,26,0.039,8146,3.9578,-170.2511
lg,1625145772199598223,0,0.6079,0.0874,0.835,825,-2.8687,6.897,2.6245,83,1.1286,0.9094,-38.5896,9.5225,26,0.039,8173,3.9578,-169.9531
lg,1625145772199625031,0,0.5735,0.064,0.8616,826,-2.8687,7.9956,2.2583,83,1.1296,0.9104,-38.0862,9.0722,26,0.04,9315,3.9578,-169.6321
lg,1625145772199651766,0,0.571,0.0471,0.8501,827,-2.0752,5.6763,2.4414,83,1.1296,0.9094,-37.706,8.6389,26,0.04,9900,3.9578,-169.3109
lg,1625145772199728135,0,0.5566,0.0737,0.8547,828,-0.4883,5.127,1.709,83,1.1296,0.9104,-37.3195,8.3862,26,0.04,8352,3.9578,-169.0898
lg,1625145772199765404,0,0.5698,0.0859,0.8442,829,0,1.8311,1.4038,83,1.1296,0.9094,-37.1104,8.2269,26,0.04,8877,3.9578,-168.9399
lg,1625145772199793434,0,0.573,0.0894,0.8352,830,-0.4883,0.9155,1.0986,83,1.1296,0.9104,-36.9619,8.0493,26,0.04,8253,3.9578,-168.8224
lg,1625145772199821556,0,0.5798,0.0713,0.8501,831,-1.4038,-0.9155,0.4272,83,1.1286,0.9104,-36.8827,7.8485,26,0.04,8262,3.9578,-168.7251
lg,1625145772199852196,0,0.6016,0.0908,0.8457,832,-3.7231,-1.5259,-0.4883,83,1.1296,0.9104,-36.8666,7.6488,26,0.04,8749,3.9578,-168.7161
lg,1625145772561304010,0,0.5833,0.0686,0.8672,833,-7.4463,-0.6104,0.7935,83,1.1296,0.9104,-36.7968,7.1727,26,0.04,24351,3.9578,-168.5587
lg,1625145772561344426,0,0.5881,0.0503,0.8616,834,-7.3853,-0.6714,1.9531,83,1.1296,0.9104,-36.7249,6.6643,26,0.04,8958,3.9578,-168.3701
lg,1625145772561365847,0,0.5698,0.0715,0.8423,835,-7.6294,-2.6855,3.8452,83,1.1296,0.9104,-36.7301,6.1791,26,0.04,16266,3.9578,-168.1487
lg,1625145772561385046,0,0.5789,0.0649,0.864,836,-9.2163,-2.7466,6.4087,83,1.1296,0.9104,-36.7372,5.551,26,0.041,7858,3.9578,-167.7969
lg,1625145772561403226,0,0.5857,0.0452,0.8611,837,-10.1929,-2.3804,8.2397,83,1.1296,0.9104,-36.7509,4.8005,26,0.04,7964,3.9578,-167.3341
lg,1625145772561421999,0,0.5867,0.0588,0.875,838,-10.5591,-3.6011,9.3384,83,1.1286,0.9104,-36.7949,4.0694,26,0.04,7815,3.9578,-166.8586
lg,1625145772561440957,0,0.594,0.0364,0.894,839,-11.8408,-1.8921,11.1694,83,1.1286,0.9104,-36.7611,3.1954,26,0.04,7965,3.9578,-166.264
lg,1625145772561459768,0,0.5713,0.0173,0.8777,840,-11.2915,0.1831,13.3667,83,1.1286,0.9104,-36.623,2.2613,26,0.038,8833,3.9578,-165.5455
lg,1625145772561477893,0,0.5684,0.0254,0.8516,841,-10.9253,0.3052,13.9771,83,1.1276,0.9104,-36.524,1.413,26,0.038,8385,3.9578,-164.7871
lg,1625145772561495481,0,0.551,0.0251,0.8726,842,-8.728,-0.8545,15.625,83,1.1276,0.9094,-36.3905,0.614,26,0.04,7818,3.9578,-164.0167
lg,1625145772561512495,0,0.5618,0.0183,0.8606,843,-7.3242,-2.8687,16.8457,83,1.1286,0.9104,-36.3685,-0.1489,26,0.04,7918,3.9578,-163.1948
lg,1625145772561530120,0,0.5425,0.0076,0.8499,844,-5.8594,-2.3804,18.4937,83,1.1276,0.9104,-36.2957,-0.8993,26,0.04,9740,3.9578,-162.2915
lg,1625145772561572295,0,0.5227,0.0156,0.8601,845,-4.7607,-3.2349,19.7754,83,1.1276,0.9104,-36.2003,-1.5888,26,0.04,7964,3.9578,-161.356
lg,1625145772561592197,0,0.5366,0.0129,0.8694,846,-3.6011,-5.6152,20.0195,83,1.1266,0.9094,-36.2099,-2.2209,26,0.04,7936,3.9578,-160.4156
lg,1625145772561609415,0,0.5352,0.0132,0.8591,847,-2.9907,-8.9722,20.9351,83,1.1266,0.9104,-36.352,-2.8357,26,0.039,8033,3.9578,-159.4349
lg,1625145772561626466,0,0.5615,0.0103,0.8596,848,-2.9297,-10.6812,20.9351,83,1.1276,0.9104,-36.5965,-3.4419,26,0.039,7994,3.9578,-158.4523
lg,1625145772561643814,0,0.564,0.0088,0.8835,849,-2.5635,-10.7422,20.0195,83,1.1266,0.9104,-36.8042,-3.9922,26,0.039,8107,3.9578,-157.5211
lg,1625145772561661365,0,0.571,-0.0037,0.8943,850,-1.8311,-10.376,19.8364,83,1.1266,0.9104,-36.9819,-4.5239,26,0.039,8156,3.9578,-156.588
lg,1625145772561679397,0,0.5493,-0.0034,0.8872,851,-1.6479,-8.4839,19.5312,83,1.1276,0.9104,-37.0408,-5.0147,26,0.039,10425,3.9578,-155.6879
lg,1625145772561696986,0,0.5112,-0.0063,0.8794,852,0.1221,-8.667,21.7896,83,1.1276,0.9104,-37.0276,-5.4896,26,0.04,8339,3.9578,-154.6811
lg,1625145772561713667,0,0.4919,-0.0032,0.874,853,1.0376,-11.5967,25.4517,83,1.1276,0.9104,-37.0787,-6.018,26,0.041,8158,3.9578,-153.4925
lg,1625145772561730403,0,0.479,-0.0173,0.8787,854,0.1831,-12.6343,27.8931,83,1.1276,0.9104,-37.2275,-6.7227,26,0.04,9577,3.9578,-152.0468
lg,1625145772561747232,0,0.509,-0.0076,0.844,855,1.1597,-19.4702,31.9824,83,1.1286,0.9104,-37.5943,-7.4542,26,0.041,8282,3.9578,-150.4887
lg,1625145772561764006,0,0.5601,0.0024,0.8403,856,-0.7324,-24.9634,33.6914,83,1.1276,0.9114,-38.2399,-8.3103,26,0.04,8581,3.9578,-148.8174
lg,1625145772561780446,0,0.5969,0.0061,0.8398,857,-2.3193,-26.3062,34.0576,83,1.1266,0.9094,-38.9584,-9.2441,26,0.04,8806,3.9578,-147.1121
lg,1625145772561796868,0,0.6912,0.0408,0.7974,858,-2.5024,-26.6724,35.2783,83,1.1266,0.9104,-39.8848,-10.3282,26,0.04,8257,3.9578,-145.4028
lg,1625145772561813826,0,0.5986,-0.0186,0.8411,859,-10.8643,-22.583,26.5503,83,1.1266,0.9104,-40.3967,-11.3989,26,0.04,8455,3.9578,-144.0629
lg,1625145772561831230,0,0.5615,-0.0396,0.8823,860,-11.1694,-27.0386,25.7568,83,1.1255,0.9104,-40.9277,-12.5087,26,0.04,8313,3.9578,-142.6945
lg,1625145772561848540,0,0.6245,-0.0295,0.8403,861,-13.3057,-29.48,23.4985,83,1.1255,0.9104,-41.6971,-13.6309,26,0.04,8469,3.9578,-141.4132
lg,1625145772561865388,0,0.6243,-0.0732,0.8862,862,-15.3809,-26.7334,21.3013,83,1.1255,0.9104,-42.2494,-14.7965,26,0.041,8356,3.9578,-140.2495
lg,1625145772561881791,0,0.5972,-0.0725,0.8792,863,-13.1836,-23.3154,20.1416,83,1.1245,0.9104,-42.6198,-15.8041,26,0.041,11153,3.9578,-139.1689
lg,1625145772561898305,0,0.5774,-0.0854,0.8569,864,-12.5122,-22.1558,20.2637,83,1.1245,0.9104,-42.8927,-16.8274,26,0.039,8394,3.9578,-138.0008
lg,1625145772923892094,0,0.6079,-0.0786,0.8179,865,-6.4087,-18.3105,24.353,83,1.1235,0.9104,-43.0617,-17.6552,26,0.04,24598,3.9578,-136.7712
lg,1625145772923940470,0,0.5901,-0.0742,0.8169,866,-5.188,-15.3198,25.0854,83,1.1235,0.9114,-43.062,-18.3799,26,0.039,10724,3.9578,-135.583
lg,1625145772923994161,0,0.6218,-0.0715,0.8276,867,-4.9438,-15.9912,26.1841,83,1.1235,0.9114,-43.1057,-19.1115,26,0.039,8429,3.9578,-134.3443
lg,1625145772924015600,0,0.5913,-0.1516,0.814,868,-7.2632,-13.1836,23.8037,83,1.1235,0.9114,-42.9867,-20.0199,26,0.039,7995,3.9578,-133.1383
lg,1625145772924035539,0,0.5513,-0.2014,0.8857,869,-2.1362,-20.6909,28.8696,83,1.1245,0.9114,-42.8922,-21.0396,26,0.04,8022,3.9578,-131.4984
lg,1625145772924054460,0,0.6187,-0.0564,0.8059,870,4.5166,-26.3672,31.189,83,1.1245,0.9124,-43.2451,-21.5754,26,0.04,7955,3.9578,-129.8791
lg,1625145772924102282,0,0.7681,-0.0881,0.8064,871,-1.5869,-26.6113,33.3252,97,1.1255,0.9124,-43.7634,-22.584,26,0.041,8748,3.9501,-128.0383
lg,1625145772924133052,0,0.7517,-0.1206,0.8054,872,4.0283,-5.8594,31.7383,97,1.1266,0.9124,-43.469,-23.0581,26,0.04,8743,3.9501,-126.6898
lg,1625145772924161470,0,0.6375,-0.0859,0.7937,873,2.6245,6.958,32.4097,97,1.1266,0.9124,-42.5562,-23.2517,26,0.04,10441,3.9501,-125.7031
