name,time,activity,ax,ay,az,batch_val,gx,gy,gz,ibat,index,middle,pitch,roll,temp,thumb,ts,vbat,yaw
rg,1625145791679503555,1,-0.0884,0.1206,1.0828,1,-33.8135,9.0332,-13.855,68,0.9565,0,25.5654,-5.3316,25,0.6693,19809,4.0513,-87.4294
rg,1625145791679544181,1,-0.0872,0.1282,1.0854,2,-33.5693,8.1787,-13.7329,68,0.9545,0,25.0376,-6.4153,25,0.6683,8397,4.0513,-87.8345
rg,1625145791679565328,1,-0.0786,0.1162,1.0674,3,-34.3018,6.2256,-15.3198,68,0.9555,0,24.4214,-7.5262,25,0.6693,7694,4.0513,-88.296
rg,1625145791679585030,1,-0.0447,0.1252,1.0605,4,-34.729,5.188,-16.7847,68,0.9565,0,23.7256,-8.6725,24,0.6693,7683,4.0513,-88.8133
rg,1625145791679603306,1,-0.0532,0.1147,1.0569,5,-37.7808,7.9346,-20.0195,68,0.9545,0,23.1283,-9.9029,24,0.6693,7708,4.0513,-89.4635
rg,1625145791679675801,1,-0.0923,0.1157,1.0435,6,-40.0391,9.9487,-20.4468,68,0.9565,0,22.6963,-11.1775,24,0.6703,7738,4.0513,-90.135
rg,1625145791679696522,1,-0.1121,0.1255,1.0352,7,-41.9922,10.3149,-21.1182,68,0.9575,0,22.3199,-12.4646,24,0.6703,7757,4.0513,-90.8184
rg,1625145791679716020,1,-0.1418,0.1147,1.0493,8,-46.0205,7.3853,-20.6299,68,0.9575,0,21.8874,-13.8679,24,0.6703,7773,4.0513,-91.452
rg,1625145791679734426,1,-0.1174,0.106,1.0437,9,-47.9126,0.1221,-22.0947,68,0.9575,0,21.1112,-15.2929,25,0.6713,7793,4.0513,-92.0571
rg,1625145791679753203,1,-0.1023,0.1079,1.0391,10,-49.5605,-3.3569,-21.1182,68,0.9565,0,20.1974,-16.6803,25,0.6703,7800,4.0513,-92.5593
rg,1625145791679772924,1,-0.0745,0.0728,1.062,11,-54.1992,-1.8921,-22.2168,68,0.9585,0,19.2754,-18.2832,25,0.6703,7987,4.0513,-93.1307
rg,1625145791679791385,1,-0.0874,0.0562,1.0732,12,-55.481,-0.3052,-21.7896,68,0.9585,0,18.4424,-19.9136,25,0.6713,7813,4.0513,-93.6058
rg,1625145791679808921,1,-0.0667,0.0237,1.0989,13,-54.5044,-2.9297,-18.2495,68,0.9575,0,17.5373,-21.428,24,0.6693,7808,4.0513,-93.9969
rg,1625145791679826420,1,-0.0366,0.0334,1.074,14,-51.3916,-1.709,-17.1509,68,0.9595,0,16.6617,-22.7218,24,0.6703,8024,4.0513,-94.3426
rg,1625145791679843529,1,-0.0364,0.0574,1.0378,15,-50.293,0.7324,-18.0664,68,0.9595,0,15.9085,-23.8835,24,0.6703,7845,4.0513,-94.7404
rg,1625145791679860658,1,-0.0457,0.0493,1.0525,16,-52.7344,4.4556,-19.165,68,0.9575,0,15.2908,-25.1413,24,0.6683,7883,4.0513,-95.2435
rg,1625145791679877749,1,-0.042,0.0244,1.061,17,-54.6265,5.9204,-19.4092,68,0.9595,0,14.7166,-26.4806,24,0.6683,8498,4.0513,-95.7888
rg,1625145791679894989,1,-0.0125,-0.7253,0.8633,18,99.1821,76.1108,-16.8457,200,0.9194,0,16.9446,-23.5518,25,0.6273,13572,3.9853,-97.8954
rg,1625145791679912469,1,-0.3142,-0.6218,0.835,19,107.1777,94.7266,-28.9917,200,0.9184,0,20.0119,-20.6292,25,0.6273,8320,3.9853,-100.6841
rg,1625145791679929523,1,-0.4998,-0.5195,0.811,20,101.6235,76.0498,-37.5366,200,0.9194,0,22.6784,-17.9679,25,0.6273,8092,3.9853,-103.4325
rg,1625145791679946726,1,-0.511,-0.4661,0.7971,21,96.3745,56.8237,-42.3584,200,0.9204,0,24.2042,-15.6401,24,0.6273,8068,3.9853,-105.9378
rg,1625145791679964335,1,-0.5481,-0.2751,0.7957,22,79.9561,35.1562,-40.8325,200,0.9235,0,25.4933,-13.468,24,0.6273,9295,3.9853,-108.1134
rg,1625145791679981538,1,-0.5083,-0.3206,0.8018,23,47.2412,2.6855,-35.3394,200,0.9204,0,25.4793,-12.5623,24,0.6263,9925,3.9853,-109.7993
rg,1625145791679998925,1,-0.2903,-0.3765,0.885,24,35.4614,-21.7896,-29.48,200,0.9225,0,24.048,-12.0271,24,0.6263,8202,3.9853,-111.0527
rg,1625145791680015535,1,-0.1802,-0.3835,0.9729,25,27.3438,-14.2212,-25.8179,200,0.9235,0,22.7288,-11.723,24,0.6283,8167,3.9853,-112.1921
rg,1625145791680033682,1,-0.2212,-0.3875,0.9846,26,20.874,-8.1177,-22.583,200,0.9255,0,21.9633,-11.5891,24,0.6303,8367,3.9853,-113.2191
rg,1625145791680053551,1,-0.4238,-0.3359,0.9856,27,-4.2725,-19.2261,-15.1978,200,0.9245,0,21.0956,-12.2127,24,0.6303,8249,3.9853,-113.7939
rg,1625145791680072438,1,-0.4902,-0.4097,0.9348,28,-45.8984,-55.603,-14.5264,200,0.9215,0,18.9931,-14.4911,24,0.6283,8363,3.9853,-114.0067
rg,1625145791680093696,1,-0.353,-0.2891,0.8704,29,-65.4907,-74.3408,-16.2354,200,0.9114,0,15.4899,-17.7781,25,0.6213,8244,3.9853,-113.7758
rg,1625145791680159136,1,-0.2427,-0.2,0.8784,30,-95.0928,-99.3652,-20.874,200,0.8934,0,11.4667,-21.2392,25,0.6143,8387,3.9853,-113.1616
rg,1625145791680186356,1,-0.0186,-0.0332,1.3853,31,-87.8906,-96.9238,-24.4141,200,0.8994,0,7.1364,-23.8601,25,0.6153,8288,3.9853,-112.3979
rg,1625145791680205910,1,0.6528,0.113,1.1924,32,5.4321,-57.1289,-28.8086,200,0.9034,0,3.2973,-22.6773,25,0.6183,8445,3.9853,-112.443
rg,1625145792029924712,1,-0.3489,-0.4507,0.9697,33,0.3052,71.3501,-29.6021,200,0.9064,0,6.0364,-22.9238,25,0.6193,24657,3.9853,-114.6549
rg,1625145792029996318,1,-0.0515,-0.1729,0.8201,34,-9.6436,29.3579,-10.437,200,0.9064,0,6.8541,-22.9624,25,0.6213,16167,3.9853,-115.457
rg,1625145792030019038,1,-0.1086,-0.4211,0.9609,35,-26.3672,34.1187,-13.9771,200,0.9064,0,7.8374,-24.172,25,0.6223,7671,3.9853,-116.5275
rg,1625145792030039352,1,-0.1279,-0.4741,0.9307,36,-28.0762,25.9399,-17.7002,200,0.9074,0,8.4417,-25.5516,25,0.6243,9587,3.9853,-117.6322
rg,1625145792030059536,1,-0.1479,-0.5298,0.9421,37,-28.0762,25.3906,-20.1416,200,0.9074,0,9.1259,-26.975,25,0.6253,7658,3.9853,-118.8495
rg,1625145792030078090,1,-0.2437,-0.5232,0.9148,38,-24.231,25.9399,-19.8364,200,0.9074,0,9.8258,-28.2414,25,0.6283,7875,3.9853,-120.0686
rg,1625145792030096459,1,-0.2659,-0.5107,0.8782,39,-17.8223,16.7847,-16.4795,200,0.9074,0,10.2846,-29.1803,25,0.6293,7706,3.9853,-120.9968
rg,1625145792030114810,1,-0.1853,-0.5947,0.9099,40,-10.7422,8.728,-12.9395,200,0.9084,0,10.306,-29.8724,25,0.6323,9354,3.9853,-121.6566
rg,1625145792030133123,1,-0.1248,-0.6731,0.9622,41,-2.4414,9.8877,-11.4136,200,0.9104,0,10.3544,-29.7906,25,0.6343,8869,3.9853,-122.2497
rg,1625145792030151159,1,-0.084,-0.6914,0.9658,42,26.4282,20.813,-6.2866,200,0.9124,0,10.7032,-29.0789,25,0.6343,7923,3.9853,-122.9325
rg,1625145792030168565,1,0.1514,-0.7068,0.9299,43,59.7534,39.7339,-2.0752,200,0.9184,0,11.3582,-27.177,25,0.6373,7774,3.9853,-123.8454
rg,1625145792030187045,1,0.1218,-0.6917,0.9189,44,69.7021,57.251,-10.0708,200,0.9215,0,12.5546,-25.0762,25,0.6373,7945,3.9853,-125.3389
rg,1625145792030205025,1,-0.1189,-0.614,0.8669,45,80.2002,83.6182,-18.7378,200,0.9225,0,15.0563,-22.7879,25,0.6353,7846,3.9853,-127.5389
rg,1625145792030222228,1,-0.364,-0.5635,0.8469,46,77.6978,86.4258,-24.9023,200,0.9235,-0.001,18.0733,-20.7598,25,0.6363,8064,3.9853,-129.9493
rg,1625145792030239801,1,-0.4146,-0.5188,0.8396,47,76.5381,75.9277,-26.001,200,0.9204,0,20.7609,-18.8314,25,0.6363,7880,3.9853,-132.2068
rg,1625145792030257633,1,-0.4849,-0.3879,0.821,48,69.458,49.3164,-28.5034,200,0.9225,0,22.569,-16.9703,25,0.6363,8035,3.9853,-134.1081
rg,1625145792030274428,1,-0.4771,-0.3184,0.8511,49,52.7344,18.6157,-24.1699,200,0.9225,0,23.2096,-15.4771,25,0.6363,7910,3.9853,-135.3898
rg,1625145792030290890,1,-0.4861,-0.177,0.8303,50,43.1519,3.0518,-18.6768,200,0.9215,0,23.3917,-13.9474,25,0.6363,8078,3.9853,-136.1537
rg,1625145792030308500,1,-0.437,-0.231,0.8914,51,-4.1504,-27.832,-7.2021,200,0.9245,0,22.3191,-14.1353,24,0.6373,7947,3.9853,-136.1703
rg,1625145792030343701,1,-0.5032,-0.3728,0.9375,52,-27.832,-46.5698,-0.6714,200,0.9235,0,20.6837,-15.3515,24,0.6393,8136,3.9853,-135.797
rg,1625145792030363940,1,-0.408,-0.4548,1.0476,53,-39.7949,-69.5801,2.1973,200,0.9204,0,18.0064,-16.9511,24,0.6353,8009,3.9853,-134.996
rg,1625145792030381180,1,0.0256,-0.4578,0.9524,54,-53.6499,-97.0459,5.0049,200,0.9174,0,13.6426,-19.0445,24,0.6313,8025,3.9853,-133.6449
rg,1625145792030398901,1,0.2559,-0.4626,0.9709,55,-78.3081,-71.7163,-2.5024,200,0.9094,0,9.9042,-22.2166,25,0.6293,8056,3.9853,-132.7363
rg,1625145792030417011,1,0.2146,-0.4016,0.9402,56,-84.2285,-49.4385,-9.3994,200,0.9034,0,7.1098,-25.5326,25,0.6273,8341,3.9853,-132.2537
rg,1625145792030434658,1,0.5208,-0.802,0.8691,57,-22.522,-3.6011,-2.6245,200,0.9114,0,5.7811,-27.0431,25,0.6283,8090,3.9853,-132.3465
rg,1625145792030452434,1,0.0769,-0.2239,0.8323,58,5.3711,45.7764,-18.7378,200,0.9134,0,6.6468,-26.5131,25,0.6303,8257,3.9853,-133.8053
rg,1625145792030470340,1,-0.2336,-0.6926,1.0381,59,7.8735,61.8286,-23.0713,200,0.9154,0,8.5915,-26.7326,24,0.6293,8106,3.9853,-135.7904
rg,1625145792030488858,1,-0.2764,-0.2542,0.7822,60,29.3579,25.2686,-24.1699,200,0.9164,0,9.3751,-25.6814,24,0.6323,8809,3.9853,-137.1046
rg,1625145792030505912,1,-0.1389,-0.4128,0.9146,61,15.564,10.498,-11.9019,200,0.9154,0,9.4874,-25.1004,24,0.6313,8321,3.9853,-137.7136
rg,1625145792030522837,1,0.0833,-0.3232,0.8706,62,8.2397,15.1367,-9.2163,200,0.9184,0,9.3058,-24.6743,24,0.6323,8371,3.9853,-138.2819
rg,1625145792030540410,1,-0.0295,-0.429,0.9016,63,0.1221,36.3159,-12.6343,200,0.9184,0,10.1052,-24.8764,25,0.6353,8253,3.9853,-139.3706
rg,1625145792030571500,1,-0.0632,-0.4568,0.9075,64,-1.8311,41.1377,-16.3574,200,0.9174,0,11.0516,-25.2578,25,0.6353,8423,3.9853,-140.696
rg,1625145792388563722,1,-0.3992,-0.3877,0.8269,65,-17.0288,61.9507,-26.9775,200,0.9204,0,13.2926,-26.3685,25,0.6423,25182,3.9853,-142.7979
rg,1625145792388611904,1,-0.4812,-0.5256,0.9055,66,-17.6392,25.2686,-15.625,200,0.9204,0,14.3524,-27.4553,25,0.6453,15014,3.9853,-143.8786
rg,1625145792388632995,1,-0.3894,-0.5801,0.9373,67,-12.5732,13.916,-10.0708,200,0.9225,0,14.6295,-28.3339,25,0.6473,7680,3.9853,-144.5703
rg,1625145792388652642,1,-0.1992,-0.6907,1.0159,68,9.7656,9.3384,-2.3193,200,0.9245,0,14.6983,-28.2417,25,0.6483,8708,3.9853,-144.8973
rg,1625145792388671196,1,0.1099,-0.6895,0.9858,69,42.1753,22.522,1.5869,200,0.9265,0,14.7517,-26.9237,25,0.6483,7726,3.9853,-145.3505
rg,1625145792388690324,1,0.1279,-0.6326,0.9561,70,52.1851,38.269,-4.1504,200,0.9275,0,15.2309,-25.3269,25,0.6483,7750,3.9853,-146.2847
rg,1625145792388722989,1,-0.1533,-0.6301,0.9353,71,57.9224,70.4956,-18.7988,200,0.9265,0,17.178,-23.904,25,0.6473,9521,3.9853,-148.3187
rg,1625145792388743043,1,-0.3806,-0.5894,0.9036,72,65.7349,68.2983,-26.7944,200,0.9285,0,19.3529,-22.3167,25,0.6473,7788,3.9853,-150.5928
rg,1625145792388761301,1,-0.4536,-0.4692,0.8762,73,68.7256,43.6401,-32.0435,200,0.9285,0,20.7079,-20.4615,25,0.6483,8069,3.9853,-152.6116
rg,1625145792388779707,1,-0.4543,-0.3977,0.8694,74,63.9038,30.3955,-33.02,200,0.9275,0,21.5892,-18.7047,25,0.6463,7806,3.9853,-154.4352
rg,1625145792388798206,1,-0.5791,-0.1252,0.7891,75,41.2598,6.6528,-28.8086,200,0.9295,0,22.0501,-17.1914,25,0.6483,7975,3.9853,-155.5706
rg,1625145792388816871,1,-0.6526,-0.1555,0.8335,76,17.9443,-11.9629,-24.5972,200,0.9315,0,20.7256,-17.4079,25,0.6503,7772,3.9853,-155.8699
rg,1625145792388834759,1,-0.6089,-0.3069,0.9304,77,-14.5874,-63.2324,-16.2964,200,0.9335,0,18.5606,-17.963,25,0.6513,7973,3.9853,-155.7214
rg,1625145792388852461,1,-0.3987,-0.5447,1.0701,78,-36.9873,-106.4453,-8.1787,200,0.9315,0,14.4361,-19.4707,25,0.6503,10136,3.9853,-154.7265
rg,1625145792388869571,1,-0.0278,-0.593,1.0457,79,-47.1802,-121.8262,-2.5024,200,0.9265,0,9.3468,-21.4112,25,0.6473,8060,3.9853,-153.1717
rg,1625145792388887144,1,0.0845,-0.5791,0.9978,80,-54.1382,-113.4033,-3.418,200,0.9114,0,4.7639,-23.8919,25,0.6413,7967,3.9853,-151.8465
rg,1625145792388929382,1,0.1702,-0.3794,0.968,81,-65.7349,-87.3413,-10.5591,200,0.9004,0,0.8849,-26.3545,25,0.6373,7943,3.9853,-150.7205
rg,1625145792388949917,1,0.9094,-0.8672,0.7571,82,17.2729,-41.687,4.3335,200,0.9074,0,-1.9568,-26.3508,25,0.6403,8086,3.9853,-149.8359
rg,1625145792388967453,1,0.2915,-0.2336,0.7002,83,24.353,27.4048,-37.1094,200,0.9094,0,-2.3757,-25.0146,25,0.6383,12167,3.9853,-151.6705
rg,1625145792388985230,1,-0.408,-0.4204,0.9263,84,21.7285,46.6919,-37.3535,200,0.9104,0,-0.3724,-24.0689,25,0.6383,8250,3.9853,-153.799
rg,1625145792389002803,1,-0.4844,-0.3965,0.9497,85,16.0522,33.2642,-23.6206,200,0.9104,0,0.1398,-23.2182,25,0.6393,7995,3.9853,-154.406
rg,1625145792389020357,1,0.0562,-0.1584,0.8247,86,15.5029,-10.498,-9.7046,200,0.9104,0,-0.5523,-22.11,25,0.6403,8025,3.9853,-154.6022
rg,1625145792389038059,1,0.1621,-0.3381,0.9475,87,-9.2773,22.9492,-8.5449,200,0.9104,0,-0.1742,-22.3735,25,0.6413,8030,3.9853,-155.2676
rg,1625145792389055892,1,-0.1106,-0.354,0.8889,88,-16.4185,42.4805,-12.7563,200,0.9114,0,1.4575,-23.0091,24,0.6423,11196,3.9853,-156.3968
rg,1625145792389073853,1,-0.2002,-0.4104,0.9023,89,-20.3857,34.3628,-15.625,200,0.9104,0,2.8561,-23.9146,24,0.6453,8426,3.9853,-157.5233
rg,1625145792389092685,1,-0.1953,-0.3979,0.8833,90,-24.292,30.5786,-14.3433,200,0.9094,0,4.0843,-25.0077,24,0.6473,8229,3.9853,-158.5611
rg,1625145792389109888,1,-0.2285,-0.4595,0.9189,91,-29.1748,30.5786,-14.1602,200,0.9094,-0.001,5.2696,-26.3104,24,0.6483,8514,3.9853,-159.6131
rg,1625145792389128035,1,-0.2727,-0.52,0.9246,92,-25.6348,25.0244,-11.4136,200,0.9114,0,6.3113,-27.531,25,0.6493,8418,3.9853,-160.4924
rg,1625145792389145126,1,-0.2715,-0.6155,0.967,93,-16.0522,17.5171,-6.897,200,0.9124,0,7.0741,-28.423,25,0.6533,8511,3.9853,-161.0916
rg,1625145792389162347,1,-0.2222,-0.6667,0.9978,94,-5.7373,14.9536,-3.54,200,0.9144,0,7.5731,-28.3962,25,0.6553,9068,3.9853,-161.4602
rg,1625145792389180235,1,-0.042,-0.7695,1.0408,95,26.5503,14.8926,3.2349,200,0.9174,0,7.9331,-27.6744,25,0.6553,8584,3.9853,-161.6721
rg,1625145792389199104,1,0.0876,-0.6982,0.9851,96,61.8286,39.6729,1.8311,200,0.9204,0,8.9052,-25.6035,25,0.6553,9180,3.9853,-162.3782
rg,1625145792740011416,1,-0.4036,-0.5171,0.8701,97,77.0874,65.3687,-22.583,200,0.9235,0,11.4083,-23.0531,25,0.6533,28040,3.9853,-164.3272
rg,1625145792740048339,1,-0.3484,-0.365,0.8528,98,69.519,22.8882,-24.292,200,0.9235,0,12.2523,-20.5388,25,0.6523,14529,3.9853,-165.5879
rg,1625145792740069449,1,-0.4082,-0.0767,0.8076,99,62.5,13.4888,-24.9023,200,0.9245,0,12.8553,-18.268,25,0.6513,7782,3.9853,-166.4601
rg,1625145792740088855,1,-0.5015,-0.0652,0.7993,100,23.6206,-0.7935,-19.4092,200,0.9255,0,13.342,-17.0253,25,0.6523,7812,3.9853,-167.095
rg,1625145792740108335,1,-0.5527,-0.2463,0.9753,101,-15.7471,-39.1846,-11.8408,200,0.9275,0,12.3118,-17.5448,25,0.6543,7697,3.9853,-167.0571
rg,1625145792740127352,1,-0.6167,-0.2183,0.9561,102,-30.4565,-60.3027,-7.5073,200,0.9305,0,10.7028,-18.502,25,0.6553,7833,3.9853,-166.5547
rg,1625145792740145814,1,-0.3127,-0.4001,1.0159,103,-62.9883,-111.9385,-1.2207,200,0.9295,0,6.6959,-20.9001,25,0.6523,9360,3.9853,-165.0954
rg,1625145792740185959,1,0.271,-0.501,1.0227,104,-92.8955,-107.666,-4.4556,89,0.9204,0,1.8983,-24.6828,25,0.6473,12348,4.0095,-163.582
rg,1625145792740206661,1,0.3027,-0.4412,1.0388,105,-99.0601,-88.4399,-8.0566,89,0.9164,0,-1.1437,-28.1408,25,0.6443,7733,4.0095,-162.6873
rg,1625145792740224716,1,0.7744,-0.9429,1.1265,106,-44.4946,-36.377,4.5776,89,0.9204,0,-3.3345,-30.3535,25,0.6443,7766,4.0095,-161.7881
rg,1625145792740242844,1,0.5542,-0.0842,0.8557,107,16.6016,38.5132,-20.3857,89,0.9225,0,-3.5272,-28.797,25,0.6443,7808,4.0095,-163.3263
rg,1625145792740261620,1,0.0884,-0.5637,0.9192,108,13.1836,83.4961,-33.4473,89,0.9235,0,-0.3331,-28.0482,25,0.6443,7986,4.0095,-166.0968
rg,1625145792740289970,1,-0.6943,-0.4192,0.8879,109,15.0757,81.9702,-20.4468,89,0.9245,0,3.4945,-27.4131,25,0.6453,9099,4.0095,-168.3407
rg,1625145792740308543,1,-0.1431,-0.2458,0.8645,110,17.334,-7.5684,-6.0425,89,0.9255,0,3.3376,-26.2704,25,0.6463,8351,4.0095,-168.3886
rg,1625145792740326653,1,0.2522,-0.3215,0.9124,111,0,3.479,-8.1177,89,0.9265,0,2.6209,-26.0202,25,0.6463,7963,4.0095,-168.7287
rg,1625145792740343911,1,0.124,-0.3848,0.9209,112,-6.4697,24.7192,-12.5732,89,0.9255,0,2.9015,-26.1829,25,0.6473,7760,4.0095,-169.611
rg,1625145792740361206,1,-0.054,-0.407,0.873,113,-8.1177,32.0435,-16.1743,89,0.9265,0,3.7695,-26.5197,25,0.6493,7858,4.0095,-170.7601
rg,1625145792740378223,1,-0.0569,-0.4041,0.8555,114,-13.7329,33.02,-20.0806,89,0.9285,0,4.5673,-27.1071,25,0.6483,8916,4.0095,-172.0737
rg,1625145792740395685,1,-0.1357,-0.385,0.8274,115,-18.0664,37.5366,-20.6299,89,0.9285,0,5.85,-27.9192,25,0.6523,9513,4.0095,-173.5778
rg,1625145792740412703,1,-0.2263,-0.3462,0.8118,116,-23.9868,45.9595,-19.5312,89,0.9265,0,7.4251,-28.8646,25,0.6533,8094,4.0095,-175.134
rg,1625145792740429572,1,-0.4277,-0.438,0.8625,117,-34.9731,41.748,-16.8457,89,0.9275,0,9.1774,-30.3882,24,0.6573,8153,4.0095,-176.5592
rg,1625145792740446163,1,-0.3586,-0.644,0.9714,118,-36.0718,31.25,-12.0239,89,0.9285,0,10.0504,-31.8706,24,0.6583,8209,4.0095,-177.2844
rg,1625145792740463329,1,-0.2625,-0.6892,1.0217,119,-20.9961,13.7329,-0.9155,89,0.9285,0,10.5682,-32.8428,24,0.6593,7976,4.0095,-177.6293
rg,1625145792740480642,1,-0.03,-0.7729,1.0396,120,10.0708,14.7705,6.0425,89,0.9315,0,10.828,-32.6073,24,0.6603,8176,4.0095,-177.7768
rg,1625145792740497549,1,0.2139,-0.7083,0.959,121,33.3862,24.9634,9.2773,89,0.9345,0,11.6192,-30.722,24,0.6633,8082,4.0095,-178.4964
rg,1625145792740514751,1,0.1667,-0.6538,0.9211,122,67.627,64.5142,-0.1831,89,0.9335,0,13.0717,-28.4879,24,0.6613,8079,4.0095,-179.8648
rg,1625145792740531639,1,-0.0952,-0.6477,0.8877,123,74.9512,95.2759,-13.3057,89,0.9355,0,15.8747,-26.379,24,0.6603,8230,4.0095,-182.2457
rg,1625145792740548582,1,-0.4387,-0.5129,0.8486,124,80.2002,94.9097,-24.4141,89,0.9335,0,19.1884,-24.1449,24,0.6613,8082,4.0095,-184.9154
rg,1625145792740565451,1,-0.5271,-0.4529,0.8457,125,77.5757,79.4067,-26.5503,89,0.9315,0,22.0551,-22.0293,25,0.6583,8279,4.0095,-187.3325
rg,1625145792740582172,1,-0.5552,-0.2957,0.863,126,68.4814,36.9873,-28.6255,89,0.9325,0,23.3813,-19.8458,25,0.6563,8124,4.0095,170.987
rg,1625145792740599208,1,-0.6543,-0.1206,0.7903,127,27.8931,-4.3335,-20.0806,89,0.9325,0,23.5814,-18.6596,25,0.6573,8324,4.0095,170.3812
rg,1625145792740619262,1,-0.6321,-0.2207,0.9602,128,2.3804,-31.6772,-13.7329,89,0.9345,0,22.5669,-18.4028,25,0.6583,8205,4.0095,170.3413
rg,1625145793100286603,1,-0.0691,-0.5811,1.02,129,-58.5938,-158.9355,6.7139,89,0.9285,0,15.9567,-20.3712,25,0.6543,24996,4.0095,-187.3182
rg,1625145793100329026,1,0.6772,-0.479,0.9458,130,-66.8945,-113.5864,2.0752,89,0.9154,0,10.0887,-22.8412,25,0.6483,14796,4.0095,-185.5436
rg,1625145793100349969,1,0.6328,-0.2886,1.1218,131,-68.7256,-72.5098,-6.958,89,0.9164,0,5.9249,-25.4612,25,0.6473,7673,4.0095,-184.5704
rg,1625145793100370671,1,0.8394,-0.5642,0.8301,132,23.1934,9.7046,-12.0239,89,0.9194,0,4.4464,-24.8524,25,0.6473,8059,4.0095,-185.2116
rg,1625145793100390559,1,-0.1213,-0.3713,0.8054,133,20.9961,81.1768,-34.6069,89,0.9204,0,6.9433,-24.2648,25,0.6473,7657,4.0095,-187.8338
rg,1625145793100408947,1,-0.4602,-0.2983,0.8047,134,22.4609,73.3032,-32.5928,89,0.9215,0,9.2012,-23.6089,25,0.6483,7892,4.0095,170.5958
rg,1625145793100442056,1,-0.281,-0.4014,0.9553,135,8.0566,26.123,-12.3901,89,0.9215,0,10.1916,-23.3985,25,0.6493,7944,4.0095,169.7178
rg,1625145793100462388,1,0.1968,-0.2234,0.8162,136,5.7983,14.4043,-6.0425,89,0.9225,0,9.7293,-22.9254,25,0.6493,7939,4.0095,169.3139
rg,1625145793100481016,1,0.0542,-0.3213,0.8647,137,-12.5122,52.3071,-10.3149,89,0.9255,0,10.9655,-23.5356,25,0.6513,7769,4.0095,168.1077
rg,1625145793100498256,1,-0.0645,-0.3118,0.8416,138,-17.395,58.4106,-13.4888,89,0.9225,0,12.5996,-24.3941,25,0.6513,7993,4.0095,166.6597
rg,1625145793100516717,1,-0.1633,-0.3582,0.8386,139,-27.8931,54.8706,-19.104,89,0.9245,0,14.1544,-25.8348,25,0.6523,7809,4.0095,165.0023
rg,1625145793100546067,1,-0.2192,-0.4023,0.8545,140,-33.2642,53.4668,-21.1792,89,0.9255,0,15.622,-27.7226,25,0.6563,8309,4.0095,163.2683
rg,1625145793100565066,1,-0.2651,-0.4431,0.8708,141,-40.2222,53.0396,-19.2261,89,0.9255,0,17.0823,-29.7863,25,0.6563,7789,4.0095,161.5098
rg,1625145793100582695,1,-0.3333,-0.5225,0.8982,142,-39.3066,47.0581,-12.5732,89,0.9285,0,18.4572,-31.8092,25,0.6603,7981,4.0095,160.0387
rg,1625145793100600231,1,-0.334,-0.627,0.958,143,-37.2925,44.5557,-8.9111,89,0.9295,0,19.5095,-33.477,25,0.6623,7890,4.0095,158.902
rg,1625145793100617952,1,-0.2146,-0.7915,1.0691,144,-12.5732,36.0718,0.6104,89,0.9305,0,20.303,-34.3792,25,0.6613,8041,4.0095,158.0273
rg,1625145793100636228,1,0.042,-0.8018,1.0205,145,33.9966,41.4429,8.4229,89,0.9325,0,21.0023,-33.4205,25,0.6643,7910,4.0095,157.2724
rg,1625145793100653597,1,0.1917,-0.7034,0.947,146,53.2837,53.4668,9.7656,89,0.9345,0,21.9475,-31.6959,25,0.6643,7897,4.0095,156.3406
rg,1625145793100674855,1,-0.0256,-0.6418,0.9221,147,65.7349,93.3838,-11.1084,89,0.9325,0,24.1029,-30.1856,24,0.6623,7935,4.0095,153.7727
rg,1625145793100691576,1,-0.3311,-0.5706,0.8623,148,70.0684,97.7173,-21.3013,89,0.9335,0,26.8124,-28.7935,24,0.6633,8101,4.0095,150.7568
rg,1625145793100710112,1,-0.4583,-0.499,0.8533,149,69.8853,88.1958,-24.231,89,0.9315,0,29.3676,-27.4066,24,0.6603,7992,4.0095,147.8721
rg,1625145793100745758,1,-0.8198,-0.2053,0.8328,150,51.5747,52.1851,-25.2686,89,0.9325,0,31.3425,-25.9722,24,0.6603,8174,4.0095,145.9682
rg,1625145793100766553,1,-0.9849,-0.2393,0.8467,151,0.6104,-31.7383,-14.1602,89,0.9365,0,30.6215,-25.6017,25,0.6623,8057,4.0095,146.1913
rg,1625145793100786626,1,-0.574,-0.3979,0.9204,152,-28.8086,-115.6616,-6.2866,89,0.9365,0,25.894,-25.8378,25,0.6623,13071,4.0095,148.1982
rg,1625145793100805680,1,-0.0942,-0.6917,1.0903,153,-50.5981,-146.1182,-1.1597,89,0.9305,0,19.8325,-27.0437,25,0.6593,8435,4.0095,150.8721
rg,1625145793100824160,1,0.373,-0.6313,1.0125,154,-47.6074,-126.8311,-1.6479,89,0.9194,0,13.9659,-28.4236,24,0.6563,8319,4.0095,153.2346
rg,1625145793100843696,1,0.4377,-0.2329,1.2549,155,-38.147,-68.1763,-11.1694,89,0.9174,0,10.1646,-29.0665,24,0.6543,8240,4.0095,154.35
rg,1625145793100865824,1,0.6118,-0.0063,0.8354,156,17.1509,-26.062,-3.479,89,0.9204,0,8.3481,-26.2717,24,0.6543,9185,4.0095,153.6205
rg,1625145793100883008,1,0.2715,-0.0852,0.6755,157,32.1655,49.4385,-30.7617,89,0.9225,0,8.4757,-24.5797,24,0.6543,9042,4.0095,151.7216
rg,1625145793100901137,1,-0.5034,-0.3276,0.8828,158,22.2168,68.6035,-37.5977,89,0.9215,0,11.1102,-23.969,25,0.6543,8336,4.0095,149.2122
rg,1625145793101034536,1,-0.3457,-0.4543,0.98,159,7.4463,16.3574,-15.3198,89,0.9255,0,11.7168,-23.8672,25,0.6543,8588,4.0095,148.3645
rg,1625145793101073237,1,0.2107,-0.2761,0.8376,160,6.2256,4.0283,-7.2021,89,0.9275,0,10.7832,-23.4587,25,0.6573,9124,4.0095,148.0711
rg,1625145793446049576,1,-0.1533,-0.3894,0.8557,161,-15.564,56.0303,-22.2778,89,0.9285,0,12.3979,-24.467,25,0.6593,25169,4.0095,146.3023
rg,1625145793446087277,1,-0.2014,-0.5024,0.8989,162,-17.9443,50.415,-27.3438,89,0.9285,0,13.7015,-25.7931,25,0.6623,11627,4.0095,144.2998
rg,1625145793446107739,1,-0.2549,-0.5122,0.918,163,-14.7095,51.2085,-27.0996,89,0.9295,0,15.1073,-27.0008,25,0.6633,8056,4.0095,142.3214
rg,1625145793446126960,1,-0.323,-0.5054,0.9199,164,-7.5684,47.9736,-25.0244,89,0.9305,0,16.4172,-27.8662,25,0.6643,7806,4.0095,140.4603
rg,1625145793446145977,1,-0.272,-0.6238,1.0156,165,5.4932,38.269,-17.2729,89,0.9305,0,17.2939,-28.1912,25,0.6653,7649,4.0095,139.0292
rg,1625145793446164069,1,-0.2183,-0.6792,1.0583,166,19.8975,33.9966,-13.4277,89,0.9315,0,17.9399,-27.9282,25,0.6663,7889,4.0095,137.8047
rg,1625145793446181956,1,0.0752,-0.6887,0.9968,167,55.9692,39.6118,-7.019,89,0.9325,0,18.3874,-26.2912,25,0.6663,7917,4.0095,136.6813
rg,1625145793446199640,1,0.042,-0.6143,0.9465,168,73.9746,74.0356,-21.7285,89,0.9335,0,19.8873,-24.3322,25,0.6653,7909,4.0095,134.4034
rg,1625145793446217398,1,-0.1428,-0.5479,0.8936,169,76.2329,87.3413,-28.6865,89,0.9305,0,22.1473,-22.5296,25,0.6643,7911,4.0095,131.6736
rg,1625145793446234342,1,-0.4871,-0.426,0.877,170,69.7632,81.9702,-32.7148,89,0.9315,0,24.8639,-20.9293,25,0.6623,10498,4.0095,128.9761
rg,1625145793446251267,1,-0.7795,-0.1873,0.8433,171,49.8047,38.208,-30.5176,89,0.9325,0,26.5404,-19.4668,25,0.6603,7918,4.0095,127.2455
rg,1625145793446268599,1,-0.8357,-0.2571,0.9238,172,4.6387,-35.5225,-18.0054,89,0.9325,0,25.5306,-19.2479,25,0.6633,7921,4.0095,127.0783
rg,1625145793446286098,1,-0.6064,-0.387,1.0295,173,-8.3618,-81.4209,-11.2305,89,0.9315,0,22.4482,-19.3366,25,0.6633,7987,4.0095,127.7766
rg,1625145793446303967,1,-0.0811,-0.6335,1.1145,174,-42.5415,-128.54,-1.5869,89,0.9285,0,16.8984,-20.8416,25,0.6633,7895,4.0095,129.4398
rg,1625145793446323484,1,0.1711,-0.689,1.0952,175,-38.6353,-127.8687,1.77,89,0.9215,0,11.2633,-22.3395,25,0.6613,7864,4.0095,131.3315
rg,1625145793446341779,1,0.4548,-0.5298,0.9609,176,-41.0767,-89.6606,-1.8311,89,0.9104,0,6.693,-23.998,25,0.6573,7928,4.0095,132.6656
rg,1625145793446359185,1,0.4153,-0.3643,0.9058,177,-41.0156,-59.2651,-5.9814,89,0.9104,0,4.8558,-24.3775,25,0.6563,7901,4.0095,132.8301
rg,1625145793446375870,1,0.6558,-0.593,0.6118,178,20.0195,0.4272,-2.1362,89,0.9124,0,3.3131,-24.1897,25,0.6573,8083,4.0095,132.6887
rg,1625145793446392924,1,0.0405,-0.2595,0.7534,179,12.9395,60.1196,-22.0947,89,0.9144,0,4.8991,-23.5906,25,0.6553,8983,4.0095,130.9106
rg,1625145793446410941,1,-0.2678,-0.2668,0.8206,180,21.7896,37.4756,-18.8599,89,0.9154,0,6.4607,-22.6312,25,0.6573,8145,4.0095,129.6443
rg,1625145793446427885,1,-0.1252,-0.2458,0.835,181,14.1602,23.1323,-13.6719,89,0.9154,0,7.1744,-21.9179,25,0.6573,8017,4.0095,128.8097
rg,1625145793446444198,1,0.0132,-0.3259,0.8948,182,-0.1221,33.1421,-9.0332,89,0.9184,0,7.9484,-21.9513,25,0.6583,8216,4.0095,127.9806
rg,1625145793446461753,1,-0.0222,-0.3667,0.9099,183,-7.6294,45.5322,-8.9111,89,0.9194,0,9.2292,-22.4032,25,0.6603,8031,4.0095,126.951
rg,1625145793446478826,1,-0.022,-0.3652,0.8831,184,-9.3384,47.7295,-9.7656,89,0.9204,0,10.5186,-22.963,25,0.6613,8076,4.0095,125.8374
rg,1625145793446495343,1,-0.0371,-0.4094,0.9102,185,-15.7471,56.0303,-16.4185,89,0.9174,0,11.9718,-23.9322,25,0.6623,8273,4.0095,124.3056
rg,1625145793446512472,1,-0.1501,-0.4272,0.8945,186,-18.1274,66.4673,-22.2168,89,0.9225,0,13.8752,-25.1514,25,0.6653,8136,4.0095,122.3295
rg,1625145793446549210,1,-0.261,-0.4397,0.9031,187,-18.0054,69.0308,-23.1934,89,0.9235,0,16.1093,-26.424,25,0.6673,8299,4.0095,120.2209
rg,1625145793446649148,1,-0.4558,-0.4465,0.9189,188,-18.0664,57.8003,-21.9116,89,0.9225,0.001,18.0696,-27.6826,25,0.6683,8126,4.0095,118.3055
rg,1625145793446670202,1,-0.4202,-0.5571,1.0215,189,-12.146,31.0669,-13.9771,89,0.9255,0,18.9631,-28.5575,25,0.6703,8364,4.0095,117.1565
rg,1625145793446687794,1,-0.103,-0.7415,1.0671,190,16.6626,14.2212,-5.5542,89,0.9285,0,18.7905,-28.305,25,0.6733,8909,4.0095,116.5781
rg,1625145793446705644,1,0.2119,-0.6355,0.9666,191,36.9873,18.9209,0,89,0.9285,0,18.9666,-26.893,25,0.6723,8271,4.0095,115.5791
rg,1625145793446723143,1,0.1272,-0.6035,0.9639,192,51.8799,60.9741,-12.5732,89,0.9275,0,19.9503,-25.5777,25,0.6713,8230,4.0095,113.8719
rg,1625145793804626050,1,-0.8003,-0.2766,0.8562,193,36.3159,47.1191,-23.3154,89,0.9295,0,22.0927,-24.5094,25,0.6703,24057,4.0095,112.2048
rg,1625145793804669825,1,-0.6274,-0.3455,0.9697,194,2.6855,-31.6162,-15.4419,89,0.9325,0,19.7591,-24.3718,25,0.6723,14795,4.0095,113.1037
rg,1625145793804690528,1,-0.4792,-0.3264,0.9492,195,-19.3481,-92.7734,-4.3335,89,0.9325,0,16.5504,-24.4823,25,0.6733,7818,4.0095,114.6293
rg,1625145793804710434,1,-0.104,-0.5974,1.0603,196,-47.6685,-119.0186,1.8921,89,0.9275,0,11.8383,-26.0428,25,0.6713,10103,4.0095,116.7506
rg,1625145793804729433,1,0.2461,-0.5254,0.99,197,-51.8188,-103.7598,-0.6714,89,0.9144,0,7.2124,-27.8633,24,0.6673,7830,4.0095,118.6374
rg,1625145793804748302,1,0.2856,-0.3113,1.3354,198,-57.5562,-58.6548,-12.0239,89,0.9124,0,4.2042,-29.5125,24,0.6653,7678,4.0095,119.431
rg,1625145793804766171,1,0.696,-0.7534,0.8982,199,-7.0801,-23.5596,-0.4883,89,0.9144,0,2.0846,-30.1187,24,0.6643,7914,4.0095,119.8635
rg,1625145793804784948,1,0.2256,-0.2817,0.8267,200,6.2256,57.8003,-17.1509,89,0.9154,0,3.0948,-29.5111,24,0.6643,7726,4.0095,118.1259
rg,1625145793804802854,1,-0.4148,-0.324,0.8643,201,20.6909,53.7109,-22.2778,89,0.9164,0,5.3502,-28.4898,25,0.6643,9129,4.0095,116.3249
rg,1625145793804821353,1,-0.3416,-0.1694,0.7434,202,19.9585,26.1841,-20.9961,89,0.9174,0,6.2315,-27.462,25,0.6643,7974,4.0095,115.1221
rg,1625145793804842925,1,-0.124,-0.3738,0.9312,203,-1.4648,9.8877,-12.9395,89,0.9144,0,6.3748,-27.3636,25,0.6633,7782,4.0095,114.5015
rg,1625145793804889441,1,-0.0039,-0.3086,0.8694,204,-9.7656,16.6016,-12.3901,89,0.9184,0,6.4917,-27.5192,25,0.6643,7959,4.0095,113.7859
rg,1625145793804909569,1,-0.0359,-0.3423,0.8738,205,-13.855,24.353,-14.3433,89,0.9164,0,6.9133,-27.9338,24,0.6643,7850,4.0095,112.8462
rg,1625145793804928049,1,-0.1194,-0.3718,0.865,206,-21.1182,29.0527,-19.7754,89,0.9194,0,7.5682,-28.7425,24,0.6663,8008,4.0095,111.6106
rg,1625145793804945844,1,-0.2151,-0.4856,0.9285,207,-28.7476,28.6865,-25.8789,89,0.9184,0,8.2136,-30.0404,24,0.6683,9058,4.0095,110.1361
rg,1625145793804962862,1,-0.2449,-0.5557,0.948,208,-25.3906,21.3013,-22.583,89,0.9204,0,8.6532,-31.2384,24,0.6723,9616,4.0095,108.9087
rg,1625145793804979972,1,-0.2283,-0.572,0.9558,209,-20.3857,19.4702,-20.3247,89,0.9204,0,8.9304,-32.2007,25,0.6743,8142,4.0095,107.797
rg,1625145793804997193,1,-0.1394,-0.5759,0.9727,210,-8.3618,18.7988,-15.0146,89,0.9204,0,9.1634,-32.6084,25,0.6743,8074,4.0095,106.8861
rg,1625145793805015507,1,-0.0498,-0.6914,1.0068,211,16.1743,26.7944,-8.7891,89,0.9225,0,9.6045,-32.174,25,0.6763,7949,4.0095,105.9897
rg,1625145793805033654,1,0.0122,-0.6946,0.9995,212,32.8979,35.8276,-6.5308,89,0.9255,-0.001,10.0528,-31.1326,25,0.6773,8141,4.0095,104.9748
rg,1625145793805050930,1,0.1929,-0.6487,0.929,213,65.4907,61.2183,-8.9111,89,0.9245,0,11.2182,-28.9551,25,0.6753,7977,4.0095,103.369
rg,1625145793805069096,1,-0.0994,-0.5527,0.8589,214,72.8149,97.29,-22.3389,89,0.9255,0,13.9995,-26.7827,25,0.6743,8185,4.0095,100.6586
rg,1625145793805087076,1,-0.2625,-0.5068,0.8394,215,74.646,102.1729,-24.9023,89,0.9245,0,17.5104,-24.6769,25,0.6733,8026,4.0095,97.8566
rg,1625145793805105204,1,-0.4563,-0.4504,0.8601,216,69.7021,82.9468,-29.9072,89,0.9235,0,20.35,-22.8365,25,0.6713,8211,4.0095,95.2564
rg,1625145793805123259,1,-0.7148,-0.1523,0.8076,217,54.5654,48.4009,-28.3203,89,0.9255,0,22.5224,-20.9594,25,0.6703,8116,4.0095,93.5027
rg,1625145793805140517,1,-0.981,-0.1416,0.8813,218,33.8135,22.9492,-21.7896,89,0.9275,0,22.6856,-20.6259,25,0.6703,8309,4.0095,93.3632
rg,1625145793805211161,1,-0.8335,-0.3411,0.9785,219,-17.7002,-66.7114,-4.0894,89,0.9275,0,20.7679,-20.9631,25,0.6713,8314,4.0095,94.2413
rg,1625145793805238177,1,-0.4119,-0.4968,0.9895,220,-40.8325,-131.2256,8.8501,89,0.9295,0,16.0212,-22.0573,25,0.6713,8321,4.0095,96.5442
rg,1625145793805256417,1,0.1648,-0.6108,0.9958,221,-48.8281,-146.7285,15.564,89,0.9235,0,9.9647,-23.7152,25,0.6703,8532,4.0095,99.3864
rg,1625145793805274008,1,0.3132,-0.5945,0.9812,222,-56.2744,-128.7231,12.2681,89,0.9084,0,5.2302,-25.9631,25,0.6643,8716,4.0095,101.4176
rg,1625145793805291655,1,0.3833,-0.2358,1.2273,223,-57.1899,-80.0781,2.3193,89,0.9084,0,1.5731,-27.5814,25,0.6613,8603,4.0095,103.0126
rg,1625145793805417832,1,0.8845,-0.1479,0.8145,224,36.7432,-22.3999,4.3945,89,0.9104,0,-0.8403,-25.6481,25,0.6603,9213,4.0095,103.5535
rg,1625145794151027009,1,-0.2026,-0.3552,0.968,225,1.8921,10.8643,-9.6436,80,0.9154,-0.001,-0.1455,-25.3482,25,0.6623,26737,4.0337,103.0166
rg,1625145794151067766,1,0.2202,-0.2878,0.8882,226,-6.1646,18.4326,0.061,80,0.9164,0,0.0046,-25.3034,25,0.6643,16587,4.0337,102.7007
rg,1625145794151088431,1,0.0642,-0.3879,0.9138,227,-15.8691,52.7344,-3.7842,80,0.9174,0,1.6876,-25.8543,25,0.6653,7673,4.0337,101.6513
rg,1625145794151107911,1,-0.0278,-0.374,0.8904,228,-18.1274,59.3262,-6.4697,80,0.9174,0,3.6922,-26.5092,25,0.6663,7650,4.0337,100.3717
rg,1625145794151126873,1,-0.0923,-0.4075,0.8711,229,-22.0337,62.0728,-10.437,80,0.9184,0,5.776,-27.4483,25,0.6683,7817,4.0337,98.869
rg,1625145794151145039,1,-0.144,-0.4094,0.873,230,-25.2686,65.979,-13.4277,80,0.9194,0,8.1442,-28.596,25,0.6703,7663,4.0337,97.1438
rg,1625145794151162297,1,-0.3184,-0.4363,0.8721,231,-26.6724,66.6504,-11.9019,80,0.9194,0,10.6174,-29.8599,25,0.6723,8893,4.0337,95.4085
rg,1625145794151179611,1,-0.385,-0.4656,0.8928,232,-25.0854,53.3447,-7.1411,80,0.9194,0,12.7075,-31.04,25,0.6733,8272,4.0337,94.0641
rg,1625145794151196165,1,-0.3279,-0.5964,0.9749,233,-22.0337,46.0815,-3.2959,80,0.9204,0,14.1814,-31.8809,25,0.6763,7918,4.0337,93.2638
rg,1625145794151226200,1,-0.2354,-0.6929,1.032,234,-2.9907,33.7524,5.0049,80,0.9204,0,15.2864,-32.2159,25,0.6763,7781,4.0337,92.6784
rg,1625145794151249273,1,0.1423,-0.739,0.9951,235,39.4287,43.1519,10.8032,80,0.9235,0,16.1316,-30.968,25,0.6783,7927,4.0337,92.0616
rg,1625145794151268846,1,0.1687,-0.678,0.9395,236,53.1616,65.0635,5.3711,80,0.9255,0,18.4312,-29.3729,25,0.6783,7875,4.0337,89.9923
rg,1625145794151287789,1,-0.1917,-0.6123,0.9045,237,63.2935,101.6235,-12.4512,80,0.9235,0,21.4059,-27.9037,25,0.6763,7960,4.0337,87.3846
rg,1625145794151306177,1,-0.4355,-0.5249,0.8657,238,67.627,90.7593,-16.9067,80,0.9245,0,24.3835,-26.284,25,0.6753,7790,4.0337,84.8869
rg,1625145794151323750,1,-0.5203,-0.448,0.856,239,63.3545,77.3315,-18.5547,80,0.9245,0,26.9897,-24.766,25,0.6733,7965,4.0337,82.6436
rg,1625145794151341249,1,-0.7903,-0.1907,0.8289,240,42.3584,42.1143,-18.2495,80,0.9255,0,28.8507,-23.3996,25,0.6703,7865,4.0337,81.2971
rg,1625145794151357766,1,-0.9834,-0.2512,0.9097,241,-7.6904,-28.6255,-6.2866,80,0.9265,0,28.3803,-23.3294,25,0.6733,8022,4.0337,81.6789
rg,1625145794151374617,1,-0.8286,-0.3638,0.9636,242,-22.3999,-77.3315,0.3662,80,0.9265,0,25.9657,-23.4858,25,0.6743,7897,4.0337,83.128
rg,1625145794151391061,1,-0.1255,-0.6187,1.0503,243,-57.6782,-152.4658,6.4087,80,0.9285,0,19.7631,-24.92,25,0.6743,11798,4.0337,85.981
rg,1625145794151408467,1,0.1667,-0.6741,1.0483,244,-59.8755,-151.001,6.7749,80,0.9225,0,13.4359,-26.7572,25,0.6713,7986,4.0337,88.8953
rg,1625145794151425318,1,0.4458,-0.5869,1.0356,245,-62.0117,-104.6753,-1.6479,80,0.9124,0,8.4548,-28.9558,25,0.6673,10083,4.0337,90.8323
rg,1625145794151442761,1,0.5737,-0.595,1.179,246,-20.9961,-30.5786,-1.3428,80,0.9164,0,6.1654,-29.6354,25,0.6653,8021,4.0337,91.4083
rg,1625145794151459853,1,0.4524,-0.3569,0.9373,247,27.5879,56.4575,-14.0381,80,0.9164,0,6.7105,-28.391,25,0.6643,8055,4.0337,89.8299
rg,1625145794151478148,1,-0.1851,-0.5032,0.8945,248,38.8184,108.5815,-15.5029,80,0.9164,0,10.3814,-27.2606,25,0.6643,8653,4.0337,87.2192
rg,1625145794151495073,1,-0.4954,-0.1372,0.6738,249,48.0957,58.0444,-16.0522,80,0.9144,0,13.1511,-25.1566,25,0.6633,8750,4.0337,85.6952
rg,1625145794151527812,1,-0.2834,-0.2893,0.8733,250,27.9541,20.1416,-9.2163,80,0.9164,0,13.8843,-23.9313,25,0.6653,8117,4.0337,85.0695
rg,1625145794151547403,1,-0.0906,-0.2559,0.8518,251,23.6206,10.0708,-7.3853,80,0.9174,0,13.5378,-23.0622,25,0.6663,8300,4.0337,84.5596
rg,1625145794151564884,1,0.0408,-0.2646,0.8499,252,10.376,25.6348,-12.6953,80,0.9154,0,13.6497,-22.6183,25,0.6653,8156,4.0337,83.7209
rg,1625145794151581327,1,-0.1472,-0.3311,0.8777,253,-1.8921,45.2881,-19.8364,80,0.9154,0,14.8153,-22.9724,25,0.6653,8327,4.0337,82.2607
rg,1625145794151598067,1,-0.2302,-0.3784,0.8774,254,-6.958,44.0063,-24.9023,80,0.9164,0,15.9763,-23.7018,25,0.6693,8196,4.0337,80.5851
rg,1625145794151614547,1,-0.2107,-0.3997,0.908,255,-9.0942,41.3818,-23.9868,80,0.9144,0,16.9272,-24.5184,25,0.6703,8412,4.0337,78.967
rg,1625145794151631120,1,-0.2842,-0.4167,0.8906,256,-10.6201,49.4385,-20.813,80,0.9164,0,18.3237,-25.4627,25,0.6733,8256,4.0337,77.2918
rg,1625145794517687558,1,-0.353,-0.6428,1.0576,257,-9.0942,30.4565,-6.0425,80,0.9194,0,19.2126,-26.3067,25,0.6783,25311,4.0337,76.4271
rg,1625145794517727851,1,0.0796,-0.6553,0.9946,258,39.917,39.6729,1.8921,80,0.9225,0,19.7831,-25.2275,25,0.6783,15583,4.0337,75.6589
rg,1625145794517749406,1,0.0847,-0.6362,0.9653,259,47.3633,57.6782,-8.3618,80,0.9235,0,20.8128,-24.1478,25,0.6783,7699,4.0337,74.1786
rg,1625145794517769479,1,-0.2329,-0.5437,0.9082,260,54.8096,88.562,-23.1323,80,0.9235,0,23.3403,-23.1596,25,0.6763,7857,4.0337,71.6235
rg,1625145794517788644,1,-0.3867,-0.5337,0.9026,261,54.4434,89.3555,-27.5269,80,0.9225,0,25.8537,-22.4149,25,0.6743,7694,4.0337,68.84
rg,1625145794517807291,1,-0.5491,-0.5171,0.9236,262,53.5889,63.9648,-34.4849,80,0.9215,0,27.758,-21.6725,25,0.6723,8008,4.0337,66.2128
rg,1625145794517825808,1,-0.6863,-0.2869,0.8425,263,49.6826,26.1841,-33.5083,80,0.9215,0,28.6314,-20.4547,25,0.6703,11394,4.0337,64.4204
rg,1625145794517843585,1,-0.887,-0.0312,0.8328,264,13.4277,-23.5596,-21.4233,80,0.9255,0,28.1918,-19.6173,25,0.6713,7895,4.0337,64.1514
rg,1625145794517886249,1,-0.7771,-0.3008,0.9507,265,-27.5269,-97.6562,-6.2256,80,0.9275,0,24.8278,-20.0924,25,0.6713,7996,4.0337,65.4136
rg,1625145794517907507,1,-0.3203,-0.4966,1.0149,266,-50.6592,-162.6587,-3.2959,80,0.9265,0,18.3759,-21.483,25,0.6703,8045,4.0337,67.6731
rg,1625145794517926784,1,0.2537,-0.522,1.002,267,-58.5327,-174.8047,-3.1128,80,0.9194,0,11.0092,-23.8129,25,0.6673,7804,4.0337,70.0897
rg,1625145794518114143,1,0.4304,-0.5361,1.0249,268,-77.5146,-143.1885,-9.0332,80,0.9084,0,4.5228,-26.7457,25,0.6643,7805,4.0337,72.2346
rg,1625145794518148696,1,0.4578,-0.3521,1.4788,269,-54.0161,-65.8569,-13.855,80,0.9134,0,1.1239,-28.3543,25,0.6643,7847,4.0337,73.0169
rg,1625145794518168843,1,0.4954,-0.0786,0.9741,270,13.2446,18.4937,-23.1323,80,0.9144,0,0.284,-27.0193,25,0.6643,8642,4.0337,71.8556
rg,1625145794518191805,1,-0.0583,-0.4192,0.866,271,7.9956,79.7729,-20.752,80,0.9144,0,2.8692,-26.7066,25,0.6633,7854,4.0337,69.6703
rg,1625145794518486805,1,-0.3789,-0.0439,0.7188,272,30.3955,28.5034,-18.4326,80,0.9164,0,4.5316,-24.7709,25,0.6643,7875,4.0337,68.566
rg,1625145794518518266,1,-0.0251,-0.209,0.8921,273,16.3574,7.5073,-17.5781,80,0.9164,0,4.0728,-24.3687,25,0.6663,8241,4.0337,67.9829
rg,1625145794518541339,1,0.0374,-0.1912,0.8533,274,-8.0566,5.4932,-16.6626,80,0.9154,0,3.7427,-24.2692,25,0.6643,7926,4.0337,67.3165
rg,1625145794518563412,1,-0.1235,-0.3025,0.8972,275,-25.3296,27.3438,-16.7236,80,0.9174,0,4.5987,-25.1291,25,0.6663,8127,4.0337,66.2621
rg,1625145794518583448,1,-0.0728,-0.3914,0.9199,276,-27.4658,22.3389,-15.5029,80,0.9184,0,4.9828,-26.2168,25,0.6693,8086,4.0337,65.4402
rg,1625145794518602761,1,-0.0457,-0.4939,0.9839,277,-29.0527,21.2402,-15.0757,80,0.9174,0,5.3609,-27.4693,25,0.6703,8153,4.0337,64.5141
rg,1625145794518620297,1,-0.0872,-0.6218,1.0168,278,-17.9443,32.1045,-11.4136,80,0.9194,0,6.2289,-28.4375,25,0.6753,7989,4.0337,63.4884
rg,1625145794518637685,1,-0.0576,-0.606,1.0115,279,-10.9863,34.5459,-10.0098,80,0.9215,0,7.2007,-28.7049,25,0.6763,8253,4.0337,62.4737
rg,1625145794518656573,1,-0.0437,-0.6011,0.9963,280,7.5073,42.3584,-8.1787,80,0.9204,0,8.3227,-28.6438,25,0.6783,8089,4.0337,61.3497
rg,1625145794518701977,1,-0.0317,-0.6052,0.967,281,30.7617,56.7627,-7.9346,80,0.9245,0,9.8977,-27.7631,25,0.6783,8111,4.0337,59.9555
rg,1625145794518722161,1,0.0903,-0.6221,0.9302,282,57.373,79.4678,-9.3384,80,0.9235,0,11.9822,-26.0539,25,0.6793,8990,4.0337,58.0971
rg,1625145794518740382,1,-0.2151,-0.5503,0.8921,283,63.9038,101.9287,-22.8271,80,0.9245,0,15.2499,-24.3437,25,0.6793,9989,4.0337,55.4117
rg,1625145794518758178,1,-0.396,-0.4651,0.8574,284,65.7959,99.1821,-25.6958,80,0.9245,0,19.242,-22.4339,25,0.6783,8314,4.0337,52.8039
rg,1625145794518775603,1,-0.8245,-0.1858,0.7524,285,46.1426,67.749,-22.9492,80,0.9225,0,22.4556,-21.0438,25,0.6763,8174,4.0337,50.9137
rg,1625145794518792472,1,-1.1077,-0.272,0.8486,286,-8.5449,-16.5405,-15.2588,80,0.9255,0,22.7065,-21.4297,25,0.6783,8339,4.0337,50.5912
rg,1625145794518860764,1,-0.5598,-0.395,0.8889,287,-23.0103,-77.2095,-6.5308,80,0.9295,0,18.648,-21.9713,25,0.6793,8265,4.0337,52.3065
rg,1625145794518883966,1,-0.2771,-0.4094,0.905,288,-39.3677,-135.498,2.4414,80,0.9285,0,13.5768,-23.0032,25,0.6793,8433,4.0337,54.5358
rg,1625145794866461881,1,0.2986,-0.3542,1.3232,289,-45.4712,-77.2705,0.061,80,0.9235,0,9.7724,-24.2366,25,0.6713,25535,4.0337,55.8917
rg,1625145794866498749,1,0.168,-0.3738,0.7981,290,15.7471,55.3589,-9.2163,80,0.9245,0,10.8368,-23.8626,25,0.6693,15050,4.0337,54.6211
rg,1625145794866519618,1,-0.2505,-0.1497,0.696,291,27.71,35.0342,-19.165,80,0.9245,0,12.1589,-22.5629,25,0.6683,10318,4.0337,53.427
rg,1625145794866539802,1,-0.3103,-0.2109,0.7849,292,15.9912,27.9541,-13.6719,80,0.9255,0,13.0306,-22.1347,25,0.6693,7661,4.0337,52.4718
rg,1625145794866558356,1,-0.0374,-0.3616,0.8699,293,2.9297,0.1831,-2.1362,80,0.9255,0,12.5784,-22.0484,25,0.6693,7753,4.0337,52.3842
rg,1625145794866576762,1,0.1846,-0.3633,0.8481,294,-1.5259,11.9019,-2.0142,80,0.9255,0,12.0658,-22.2043,25,0.6693,7740,4.0337,52.1151
rg,1625145794866595187,1,0.1321,-0.4302,0.8794,295,-3.7842,27.0996,-3.6011,80,0.9255,0,12.2414,-22.6215,25,0.6703,7820,4.0337,51.5252
rg,1625145794866633518,1,-0.0142,-0.4988,0.8699,296,0.6104,42.4805,-6.2256,80,0.9255,0,13.2554,-23.0837,25,0.6703,9374,4.0337,50.5514
rg,1625145794866651684,1,-0.0425,-0.468,0.8105,297,8.0566,42.9077,-10.1929,80,0.9265,0,14.2467,-23.2946,25,0.6713,7872,4.0337,49.4042
rg,1625145794866670405,1,-0.0479,-0.4519,0.8076,298,10.1929,44.2505,-13.0615,80,0.9265,0,15.2696,-23.4449,25,0.6733,7777,4.0337,48.119
rg,1625145794866688645,1,-0.1228,-0.4277,0.7808,299,13.4888,50.293,-19.2261,80,0.9265,0,16.5058,-23.5447,25,0.6753,7946,4.0337,46.4939
rg,1625145794866706051,1,-0.2056,-0.4011,0.7529,300,15.3198,46.5088,-24.4141,80,0.9255,0,17.6935,-23.6131,25,0.6763,10149,4.0337,44.7264
rg,1625145794866723624,1,-0.3201,-0.3484,0.7222,301,13.7329,39.1846,-27.71,80,0.9285,0,18.8352,-23.6849,25,0.6803,7969,4.0337,42.9699
rg,1625145794866740623,1,-0.3721,-0.3708,0.7402,302,10.376,31.3721,-27.5879,80,0.9285,0,19.7412,-23.9076,25,0.6823,7845,4.0337,41.3275
rg,1625145794866757159,1,-0.4229,-0.3901,0.7676,303,8.4839,12.3291,-22.583,80,0.9285,0,20.0718,-24.0492,25,0.6813,8038,4.0337,40.1991
rg,1625145794866774473,1,-0.3896,-0.4607,0.8467,304,13.1836,-7.9346,-15.686,80,0.9285,0,19.6023,-23.853,25,0.6853,8112,4.0337,39.6688
rg,1625145794866791009,1,-0.3406,-0.4722,0.8516,305,20.3247,-20.0195,-10.437,80,0.9295,0,18.379,-23.3171,24,0.6853,8104,4.0337,39.5168
rg,1625145794866808156,1,0.0195,-0.5237,0.8672,306,41.8701,-35.2173,-0.7935,80,0.9305,0,16.3193,-21.808,24,0.6843,7924,4.0337,39.9421
rg,1625145794866825729,1,0.2229,-0.5139,0.8245,307,59.6313,-11.6577,-5.5542,80,0.9325,-0.001,14.7081,-19.8456,24,0.6863,8071,4.0337,39.7654
rg,1625145794866843820,1,0.1392,-0.4861,0.8169,308,65.5518,6.2866,-9.3384,80,0.9315,0,13.947,-17.7808,24,0.6853,7959,4.0337,39.1882
rg,1625145794866861467,1,-0.033,-0.4583,0.8049,309,73.9136,19.8364,-13.855,80,0.9315,0,14.0878,-15.5024,25,0.6843,8159,4.0337,38.2803
rg,1625145794866878966,1,-0.0942,-0.3738,0.7573,310,86.1206,12.8174,-15.9302,80,0.9325,0,14.1321,-12.6883,25,0.6853,8079,4.0337,37.4006
rg,1625145794866911409,1,-0.1367,-0.2896,0.7222,311,89.3555,1.709,-19.104,80,0.9315,0,13.8918,-9.6811,25,0.6843,12281,4.0337,36.5207
rg,1625145794866932370,1,-0.1223,-0.2407,0.7129,312,88.9893,-14.7705,-16.1743,80,0.9325,0,13.0388,-6.6253,25,0.6833,8059,4.0337,35.8574
rg,1625145794866951054,1,-0.0994,-0.2229,0.7256,313,88.9282,-21.9116,-13.916,80,0.9325,0,11.5669,-3.5604,25,0.6823,8251,4.0337,35.3782
rg,1625145794866968776,1,-0.031,-0.2144,0.7456,314,89.0503,-32.3486,-10.8032,80,0.9315,0,9.9087,-0.5829,25,0.6813,8104,4.0337,34.8764
rg,1625145794867059381,1,0.0581,-0.2427,0.7822,315,89.5996,-36.3159,-6.958,80,0.9315,0,7.9364,2.2838,25,0.6813,8241,4.0337,34.4455
rg,1625145794867094379,1,0.1025,-0.2546,0.8164,316,92.8345,-34.668,-5.6763,80,0.9325,0,6.1147,5.3748,25,0.6813,8212,4.0337,34.1126
rg,1625145794867113359,1,0.1404,-0.2783,0.8379,317,102.5391,-29.6021,-0.1221,80,0.9315,0,4.3737,8.5395,25,0.6803,8433,4.0337,33.85
rg,1625145794867132210,1,0.1909,-0.2346,0.812,318,119.5679,-20.752,3.479,80,0.9335,0,2.8865,12.3764,25,0.6823,8278,4.0337,33.7426
rg,1625145794867150339,1,0.2197,-0.1855,0.7937,319,131.7139,-10.0098,3.7231,80,0.9335,0,1.777,16.6797,25,0.6833,8230,4.0337,33.7124
rg,1625145794867167301,1,0.1658,-0.1484,0.7915,320,141.9067,4.7607,7.6294,80,0.9355,0,1.3411,21.3222,25,0.6843,10373,4.0337,34.0103
rg,1625145795249410358,1,-0.021,0.1208,0.6855,321,170.0439,3.479,8.9111,80,0.9355,0,1.3361,27.6545,25,0.6863,24754,4.0337,34.3821
rg,1625145795249444893,1,-0.0476,0.1821,0.7026,322,152.771,-13.9771,17.7612,80,0.9375,0,0.5945,33.2277,25,0.6873,15908,4.0337,34.7019
rg,1625145795249465633,1,-0.0024,0.1646,0.7632,323,140.2588,-22.4609,27.0386,80,0.9375,0,-0.7751,37.9966,25,0.6873,7718,4.0337,35.0458
rg,1625145795249485280,1,0.0144,0.1743,0.7849,324,134.9487,-26.7944,29.6631,80,0.9375,0,-2.6098,42.3119,25,0.6873,7667,4.0337,35.208
rg,1625145795249526444,1,0.0449,0.1675,0.8074,325,133.0566,-37.6587,32.8979,80,0.9385,0,-4.6341,46.4624,25,0.6873,7715,4.0337,35.142
rg,1625145795249546239,1,0.1719,0.1538,0.8679,326,133.1177,-44.6777,38.5132,80,0.9385,0,-7.2527,50.4672,25,0.6873,7941,4.0337,34.9179
rg,1625145795249563960,1,0.2422,0.1555,0.9104,327,140.0757,-36.499,42.9688,80,0.9385,0,-9.8615,54.6153,25,0.6883,8703,4.0337,34.9702
rg,1625145795249581256,1,0.2107,0.134,0.9526,328,149.292,-21.1792,46.0205,80,0.9385,0,-12.0843,58.8654,25,0.6883,8382,4.0337,35.5477
rg,1625145795249598384,1,0.1924,0.1321,0.9512,329,156.0669,-16.9678,50.4761,80,0.9375,0,-14.3268,63.22,25,0.6873,7799,4.0337,36.3057
rg,1625145795249615754,1,0.2026,0.179,0.9265,330,171.0815,-8.8501,55.481,80,0.9385,0,-16.6296,68.0534,25,0.6883,7985,4.0337,37.3638
rg,1625145795249633012,1,0.1519,0.2493,0.8799,331,175.9033,-4.4556,57.9834,80,0.9385,0,-18.8159,73.033,25,0.6893,7837,4.0337,38.6251
rg,1625145795249650048,1,0.1414,0.2842,0.8801,332,177.3071,-1.4648,59.5703,80,0.9385,0,-21.0644,77.9411,25,0.6883,8049,4.0337,39.8342
rg,1625145795249666732,1,0.22,0.3845,0.8782,333,183.1665,9.7656,63.7207,80,0.9395,0,-23.5414,82.9685,25,0.6893,12493,4.0337,41.4023
rg,1625145795249683657,1,0.1914,0.427,0.8684,334,183.4106,16.4185,62.6831,80,0.9395,0,-25.9271,87.8323,25,0.6893,8052,4.0337,43.1656
rg,1625145795249700249,1,0.1113,0.4824,0.8477,335,177.8564,23.8647,59.082,80,0.9395,0,-28.0282,92.2809,25,0.6903,7927,4.0337,45.1859
rg,1625145795249716266,1,0.1042,0.5471,0.8433,336,176.9409,24.292,55.1147,80,0.9405,0,-29.9945,96.6643,25,0.6903,8157,4.0337,47.1556
rg,1625145795249732506,1,0.1143,0.5779,0.8477,337,175.5981,26.062,53.772,80,0.9405,0,-31.8817,100.4517,25,0.6903,9125,4.0337,49.382
rg,1625145795249749265,1,0.0671,0.6367,0.8508,338,160.2783,34.1797,49.0723,80,0.9395,0,-33.7037,103.817,25,0.6903,8709,4.0337,51.7762
rg,1625145795249766004,1,-0.02,0.6965,0.8423,339,146.7896,38.269,46.1426,80,0.9405,0,-35.324,106.4861,25,0.6903,8597,4.0337,54.3835
rg,1625145795249795151,1,-0.0947,0.7429,0.8352,340,132.6904,34.1187,45.0439,80,0.9425,0,-36.7578,108.674,25,0.6923,8263,4.0337,56.8079
rg,1625145795249814076,1,-0.1191,0.7727,0.845,341,127.8687,29.6631,44.1895,80,0.9415,0,-38.0599,110.4672,25,0.6933,8134,4.0227,58.7895
rg,1625145795249831408,1,-0.1169,0.771,0.9226,342,109.375,17.7612,45.0439,91,0.9405,0,-39.3723,112.0741,25,0.6913,8344,4.0227,60.5038
rg,1625145795249847944,1,-0.0918,0.7524,1.011,343,97.9004,8.7891,42.2974,91,0.9425,0,-40.5892,113.3807,25,0.6913,8221,4.0227,61.9046
rg,1625145795249864573,1,-0.106,0.7693,1.0376,344,91.8579,-0.9155,36.5601,91,0.9425,0,-41.4447,114.657,25,0.6923,8393,4.0227,62.9896
rg,1625145795249881405,1,-0.1133,0.7778,1.052,345,88.9893,-7.2021,33.6914,91,0.9435,0,-42.103,115.9721,25,0.6933,8221,4.0227,63.8515
rg,1625145795249897923,1,-0.095,0.7871,1.0566,346,84.9609,-18.4937,26.5503,91,0.9405,0,-42.3324,117.3758,25,0.6923,8458,4.0227,64.3511
rg,1625145795249987121,1,-0.1006,0.7761,1.0479,347,80.2002,-26.9775,19.7754,91,0.9435,0,-42.1688,118.7471,25,0.6923,8281,4.0227,64.6174
rg,1625145795250021916,1,-0.1323,0.7595,1.0469,348,77.9419,-33.3862,14.1602,91,0.9435,0,-41.6637,120.1288,25,0.6933,8344,4.0227,64.7247
rg,1625145795250041433,1,-0.1313,0.7437,1.0686,349,77.7588,-37.1094,13.0005,91,0.9425,0,-41.0763,121.5793,25,0.6933,8311,4.0227,64.6873
rg,1625145795250058636,1,-0.0786,0.7419,1.0703,350,80.8105,-40.9546,14.5874,91,0.9405,0,-40.529,123.2714,25,0.6923,8958,4.0227,64.4315
rg,1625145795250075690,1,-0.0913,0.7632,1.032,351,82.8857,-37.2925,11.8408,91,0.9415,0,-39.9039,124.8794,25,0.6923,8996,4.0227,64.4106
rg,1625145795250094412,1,-0.1372,0.7974,0.9971,352,81.4209,-38.3301,10.498,91,0.9435,0,-39.0928,126.4298,25,0.6923,8998,4.0227,64.3729
rg,1625145795601860354,1,-0.1477,0.8396,0.9365,353,69.7021,-41.5039,5.6152,91,0.9435,0,-37.6969,127.3386,25,0.6933,25106,4.0227,64.334
rg,1625145795601905666,1,-0.1389,0.8545,0.9377,354,61.0352,-48.8281,-2.5635,91,0.9435,0,-35.9645,127.8964,25,0.6933,9171,4.0227,64.1569
rg,1625145795601957719,1,-0.0796,0.8042,1.0061,355,53.2837,-54.1382,-8.9722,91,0.9435,0,-34.2036,128.013,25,0.6933,10438,4.0227,64.2366
rg,1625145795601988161,1,-0.1672,0.7048,1.1628,356,53.5889,-35.4004,-13.916,91,0.9435,0,-32.8217,127.9673,25,0.6933,12104,4.0227,64.8351
rg,1625145795602010456,1,-0.3081,0.575,1.491,357,69.8242,-19.3481,-9.9487,91,0.9435,0,-32.0319,128.4513,25,0.6923,8672,4.0227,65.7882
rg,1625145795602031270,1,-0.4294,0.4487,1.7517,358,102.6001,-18.4937,-10.6812,91,0.9435,0,-31.2908,130.3622,25,0.6913,8371,4.0227,66.7033
rg,1625145795602053972,1,-0.5132,0.459,1.7407,359,126.0986,-23.8647,-11.4136,91,0.9435,0,-29.7178,134.3611,25,0.6903,8416,4.0227,67.0046
rg,1625145795602072360,1,-0.5012,0.6074,1.5593,360,166.9922,-62.439,-14.8926,91,0.9445,0,-27.4,139.453,25,0.6903,8420,4.0227,66.7059
rg,1625145795602090415,1,-0.095,0.9185,1.3198,361,177.124,-96.9849,-19.3481,91,0.9445,0,-24.0709,144.9605,25,0.6903,8870,4.0227,65.8741
rg,1625145795602140393,1,0.2312,1.1704,1.1072,362,163.0249,-94.6045,-26.9775,91,0.9435,0,-20.7876,149.5514,25,0.6903,8449,4.0227,65.6195
rg,1625145795602161059,1,0.3572,1.1838,0.9919,363,139.4043,-81.8481,-32.3486,91,0.9445,0,-18.4011,152.1036,25,0.6913,8459,4.0227,66.4437
rg,1625145795602179761,1,0.3521,1.1587,0.9275,364,102.417,-54.5044,-38.6963,91,0.9425,0,-16.4077,153.7957,25,0.6923,8644,4.0227,67.5683
rg,1625145795602197779,1,0.4272,1.1091,0.7812,365,74.585,-43.0908,-41.2598,91,0.9415,0,-14.9024,154.3357,25,0.6933,8525,4.0227,68.961
rg,1625145795602215982,1,0.5432,1.0854,0.5867,366,52.5513,-25.6958,-36.3159,91,0.9445,0,-14.2644,154.0491,25,0.6953,8916,4.0227,70.4125
rg,1625145795602233943,1,0.467,1.0649,0.4912,367,22.2778,-4.0283,-33.02,91,0.9445,0,-14.3302,152.4558,25,0.6973,8529,4.0227,72.1094
rg,1625145795602252035,1,0.3987,1.0247,0.4819,368,6.5918,0.1831,-31.6162,91,0.9445,0,-14.4147,150.1852,25,0.6973,8743,4.0227,73.8285
rg,1625145795602269571,1,0.3984,0.9443,0.4556,369,-19.104,-3.8452,-25.6348,91,0.9435,0,-14.4862,146.9943,25,0.6973,8607,4.0227,75.2226
rg,1625145795602286829,1,0.5186,0.8953,0.4307,370,-35.9497,1.3428,-23.2544,91,0.9465,0,-14.9432,143.245,25,0.6973,8749,4.0227,76.5993
rg,1625145795602304791,1,0.4285,0.8301,0.3933,371,-48.2788,27.0996,-22.4609,91,0.9455,0,-16.0277,138.799,25,0.6993,8638,4.0227,78.6094
rg,1625145795602322513,1,0.3398,0.7417,0.4197,372,-52.9175,35.8887,-22.644,91,0.9455,0,-17.2672,133.8925,25,0.6993,8776,4.0227,81.0321
rg,1625145795602339789,1,0.283,0.6948,0.4443,373,-52.9175,51.1475,-23.1323,91,0.9455,0,-18.4576,128.8494,25,0.6993,11883,4.0227,83.9686
rg,1625145795602357159,1,0.2051,0.6643,0.4758,374,-46.1426,56.1523,-25.6348,91,0.9465,0,-19.2792,123.8994,25,0.7003,8836,4.0227,87.252
rg,1625145795602391360,1,0.1797,0.6599,0.4944,375,-41.748,54.9316,-26.4282,91,0.9455,0,-19.6941,119.3682,25,0.7003,8710,4.0227,90.5001
rg,1625145795602435543,1,0.1848,0.6521,0.5432,376,-29.0527,49.8657,-27.9541,91,0.9445,0,-19.7863,115.1504,25,0.6993,8887,4.0227,93.6859
rg,1625145795602456412,1,0.207,0.6653,0.6052,377,-15.2588,44.4946,-29.1138,91,0.9455,0,-19.604,111.587,25,0.7003,8733,4.0227,96.6634
rg,1625145795602474393,1,0.2339,0.6963,0.6792,378,6.1646,44.4946,-31.6162,91,0.9465,0,-19.2263,108.9276,25,0.7013,13331,4.0227,99.6303
rg,1625145795602493262,1,0.2412,0.7224,0.7009,379,13.6108,43.8232,-29.1138,91,0.9465,0,-18.8397,106.6958,25,0.7013,8815,4.0227,102.4628
rg,1625145795602510687,1,0.2629,0.7734,0.6958,380,25.1465,46.5698,-26.123,91,0.9465,0,-18.5013,104.9867,25,0.7013,8961,4.0227,105.3104
rg,1625145795602528890,1,0.2412,0.8201,0.6768,381,30.3955,52.2461,-21.6675,91,0.9465,0,-18.2472,103.5314,25,0.7013,8826,4.0227,108.284
rg,1625145795602547574,1,0.2134,0.8608,0.655,382,31.25,56.2744,-16.8457,91,0.9465,0,-18.07,102.1688,25,0.7023,9029,4.0227,111.3293
rg,1625145795602570480,1,0.1782,0.8745,0.6479,383,28.4424,60.3638,-12.207,91,0.9465,0,-17.9625,100.7085,25,0.7013,9616,4.0227,114.4759
rg,1625145795602592812,1,0.1333,0.8843,0.6411,384,24.0479,62.2559,-9.5215,91,0.9465,0,-17.8016,99.1098,24,0.7023,8981,4.0227,117.6581
rg,1625145795976220895,1,0.0366,0.863,0.6348,385,11.5967,58.1665,-4.8828,91,0.9465,0,-17.4944,97.0029,24,0.7033,25772,4.0227,120.5055
rg,1625145795976264467,1,-0.0239,0.8257,0.6504,386,5.6152,46.2646,-4.3335,91,0.9465,0,-16.9815,94.9421,25,0.7033,10583,4.0227,122.955
rg,1625145795976285392,1,-0.03,0.8064,0.6558,387,3.2349,35.7666,-4.4556,91,0.9465,0,-16.3599,92.9727,25,0.7043,10303,4.0227,124.9355
rg,1625145795976305113,1,-0.03,0.7969,0.6597,388,3.2349,30.8838,-4.6997,91,0.9465,0,-15.6392,91.1735,25,0.7043,8357,4.0227,126.5171
rg,1625145795976348036,1,-0.0417,0.7886,0.6643,389,2.6855,22.3389,-6.1035,91,0.9465,0,-14.849,89.4668,25,0.7043,8634,4.0227,127.8604
rg,1625145795976367757,1,-0.0083,0.7808,0.6626,390,3.54,12.5732,-7.0801,91,0.9465,0,-14.0867,87.9612,25,0.7043,9579,4.0227,128.7573
rg,1625145795976386293,1,0.0374,0.7869,0.655,391,4.6387,7.6904,-8.2397,91,0.9465,0,-13.3839,86.6271,25,0.7043,8735,4.0227,129.4074
rg,1625145795976404903,1,0.0559,0.7805,0.6606,392,5.0049,5.6152,-10.1929,91,0.9465,0,-12.6602,85.367,25,0.7053,8698,4.0227,129.9342
rg,1625145795976423365,1,0.0669,0.7878,0.6577,393,5.7983,5.0049,-12.085,91,0.9465,0,-11.8382,84.2267,25,0.7053,8528,4.0227,130.3421
rg,1625145795976441197,1,0.0828,0.7974,0.6599,394,6.1035,3.1738,-13.7329,91,0.9455,0,-11.0686,83.1526,25,0.7043,8516,4.0227,130.6774
rg,1625145795976458474,1,0.0933,0.7939,0.6543,395,6.0425,2.1973,-15.5029,91,0.9445,0,-10.2773,82.1328,25,0.7043,8559,4.0227,130.9283
rg,1625145795976475696,1,0.092,0.8066,0.6523,396,5.9814,1.5259,-15.4419,91,0.9465,0,-9.5087,81.1727,25,0.7043,8594,4.0227,131.1148
rg,1625145795976493139,1,0.0986,0.8062,0.6511,397,5.6763,-0.061,-15.0757,91,0.9475,0,-8.7631,80.2688,25,0.7053,8642,4.0227,131.1768
rg,1625145795976510119,1,0.1035,0.812,0.6499,398,6.5918,-1.2207,-15.9912,91,0.9455,0,-8.0627,79.4325,24,0.7043,8554,4.0227,131.1875
rg,1625145795976526878,1,0.1091,0.8184,0.6348,399,6.6528,-1.1597,-15.9302,91,0.9475,0,-7.4218,78.6489,24,0.7053,10371,4.0227,131.1493
rg,1625145795976543766,1,0.1094,0.8164,0.6418,400,6.4087,-1.8311,-15.0757,91,0.9475,0,-6.8216,77.8846,24,0.7063,8839,4.0227,131.0907
rg,1625145795976561117,1,0.0945,0.8298,0.6169,401,6.3477,-2.9297,-16.4185,91,0.9475,0,-6.1662,77.2056,25,0.7063,8711,4.0227,130.9495
rg,1625145795976577949,1,0.1013,0.8696,0.5952,402,4.1504,-6.5308,-16.1743,91,0.9475,0,-5.5852,76.559,25,0.7063,8659,4.0227,130.6401
rg,1625145795976594985,1,0.1333,0.8562,0.6194,403,-1.6479,-7.1411,-17.1509,91,0.9475,0,-5.0675,75.653,25,0.7063,8805,4.0227,130.2852
rg,1625145795976626928,1,0.1372,0.8411,0.626,404,-4.3945,-5.127,-18.9209,91,0.9475,0,-4.4422,74.5326,25,0.7063,8862,4.0227,130.0239
rg,1625145795976646389,1,0.1133,0.8137,0.6482,405,-7.019,-4.1504,-17.5781,91,0.9455,0,-3.8966,73.3739,25,0.7053,9389,4.0227,129.7426
rg,1625145795976663185,1,0.1003,0.8013,0.6438,406,-6.7139,-4.6997,-17.5171,91,0.9455,0,-3.3605,72.2596,25,0.7053,8785,4.0227,129.4177
rg,1625145795976683461,1,0.1111,0.7949,0.6479,407,-4.0283,-5.6763,-15.9912,91,0.9485,0,-2.9447,71.2787,25,0.7053,8876,4.0227,129.0542
rg,1625145795976702423,1,0.115,0.7854,0.6409,408,-0.7324,-5.6763,-14.3433,91,0.9455,0,-2.6238,70.4623,25,0.7063,9176,4.0227,128.6959
rg,1625145795976720293,1,0.1284,0.791,0.6296,409,2.3193,-4.2725,-13.9771,91,0.9485,0,-2.3444,69.8211,25,0.7063,8901,4.0227,128.3825
rg,1625145795976738384,1,0.1406,0.7883,0.6147,410,4.9438,-3.7231,-12.7563,91,0.9475,0,-2.1466,69.3291,25,0.7083,8842,4.0227,128.0966
rg,1625145795976756068,1,0.1619,0.7957,0.6047,411,7.019,-2.6245,-13.4888,91,0.9475,0,-1.9624,68.9652,25,0.7083,9018,4.0227,127.8342
rg,1625145795976773660,1,0.168,0.8052,0.6055,412,7.3242,-1.5259,-12.207,91,0.9475,0,-1.8409,68.6626,25,0.7083,8864,4.0227,127.6246
rg,1625145795976790566,1,0.1741,0.8345,0.5894,413,7.9346,0.5493,-13.1836,91,0.9465,0,-1.6546,68.4317,25,0.7063,9056,4.0227,127.4732
rg,1625145795976905578,1,0.1851,0.8545,0.5801,414,4.8828,2.6855,-12.3291,91,0.9465,0,-1.4955,68.1258,25,0.7073,9087,4.0227,127.4086
rg,1625145795976930984,1,0.2041,0.8396,0.615,415,-0.6104,5.9814,-11.7188,91,0.9475,0,-1.3536,67.5324,25,0.7073,9091,4.0227,127.473
rg,1625145795976950742,1,0.1841,0.8113,0.6345,416,-4.3945,11.2915,-12.146,91,0.9485,0,-1.0818,66.7367,25,0.7063,9175,4.0227,127.7206
rg,1625145796333322176,1,0.1287,0.7778,0.6458,417,-1.2207,12.5122,-10.1929,91,0.9485,0,-0.7764,66.0919,25,0.7083,25217,4.0227,128.0199
rg,1625145796333404302,1,0.1316,0.7803,0.6392,418,2.5635,9.7656,-8.3618,91,0.9485,0,-0.5778,65.5784,24,0.7083,11559,4.0227,128.2512
rg,1625145796333586829,1,0.1311,0.7874,0.6294,419,4.0283,9.8267,-9.9487,91,0.9485,0,-0.3254,65.1701,24,0.7093,10827,4.0227,128.4519
rg,1625145796333640900,1,0.1321,0.7874,0.6326,420,5.0049,9.5215,-10.437,91,0.9485,0,-0.0704,64.8121,24,0.7083,10237,4.0227,128.6271
rg,1625145796333666158,1,0.1313,0.7842,0.6301,421,5.0659,10.1318,-10.376,91,0.9485,0,0.1846,64.4709,24,0.7083,8332,4.0227,128.8197
rg,1625145796333685472,1,0.1353,0.7874,0.6289,422,5.4932,10.0708,-11.1084,91,0.9485,0,0.4935,64.1767,25,0.7093,8313,4.0227,128.9983
rg,1625145796333704323,1,0.1265,0.7839,0.6345,423,6.1646,10.7422,-11.7188,91,0.9485,0,0.799,63.8975,25,0.7093,8309,4.0227,129.1784
rg,1625145796333722822,1,0.1311,0.7905,0.6306,424,7.019,9.9487,-12.4512,91,0.9485,0,1.0963,63.6792,25,0.7093,8553,4.0227,129.3119
rg,1625145796333766801,1,0.136,0.7932,0.6284,425,7.3242,9.7046,-13.0615,91,0.9485,0,1.3897,63.4894,25,0.7083,9462,4.0227,129.4214
rg,1625145796333789559,1,0.1409,0.8032,0.6299,426,8.4839,9.2163,-13.5498,91,0.9485,0,1.6727,63.364,25,0.7093,9272,4.0227,129.5007
rg,1625145796333807854,1,0.137,0.8035,0.6335,427,8.1787,9.4604,-12.8174,91,0.9485,0,1.9072,63.2311,25,0.7083,8414,4.0227,129.5467
rg,1625145796333826409,1,0.1387,0.8115,0.6348,428,9.0332,9.2163,-13.5498,91,0.9465,0,2.178,63.1407,25,0.7073,8621,4.0227,129.6195
rg,1625145796333845722,1,0.1252,0.8069,0.624,429,9.5215,9.2163,-11.1084,91,0.9445,0,2.3776,63.0869,25,0.7083,8462,4.0227,129.7336
rg,1625145796333863407,1,0.1416,0.8088,0.6226,430,10.3149,8.3008,-10.6201,91,0.9485,0,2.5006,63.0722,25,0.7093,8727,4.0227,129.8223
rg,1625145796333887276,1,0.1521,0.8074,0.6187,431,11.1694,7.3242,-9.3994,91,0.9485,0,2.605,63.095,25,0.7093,8504,4.0227,129.9026
rg,1625145796333907349,1,0.1519,0.8123,0.6223,432,11.5356,8.3618,-10.1318,91,0.9465,0,2.6816,63.135,25,0.7083,8715,4.0227,130.0011
rg,1625145796333924996,1,0.1484,0.8081,0.6201,433,12.085,8.606,-10.0098,91,0.9465,0,2.7612,63.1943,25,0.7083,8562,4.0227,130.11
rg,1625145796333965179,1,0.158,0.7991,0.6213,434,13.3667,8.5449,-8.4839,91,0.9485,0,2.7598,63.2904,25,0.7083,8745,4.0227,130.2434
rg,1625145796333985289,1,0.1628,0.8022,0.6152,435,15.1367,10.1929,-8.9111,91,0.9485,0,2.7916,63.4711,25,0.7103,8672,4.0227,130.4296
rg,1625145796334004047,1,0.1565,0.8135,0.6099,436,15.1978,11.5356,-9.3994,91,0.9495,0,2.8615,63.7028,25,0.7103,8785,4.0227,130.6524
rg,1625145796334021083,1,0.1562,0.8135,0.6074,437,15.4419,11.8408,-10.6201,91,0.9475,0,2.9933,63.9098,25,0.7083,8632,4.0227,130.8714
rg,1625145796334038990,1,0.1477,0.8162,0.6057,438,15.3198,11.3525,-11.5356,91,0.9475,0,3.1623,64.1088,25,0.7083,8938,4.0227,131.0578
rg,1625145796334057767,1,0.1526,0.8196,0.6047,439,14.0991,11.9629,-12.146,91,0.9485,0,3.3468,64.2589,25,0.7103,8712,4.0227,131.2565
rg,1625145796334122800,1,0.1528,0.824,0.6025,440,13.1836,12.085,-12.9395,91,0.9495,0,3.5545,64.3764,25,0.7103,8930,4.0227,131.4465
rg,1625145796334186389,1,0.1494,0.8311,0.6052,441,12.6953,11.9019,-12.5122,91,0.9485,0,3.7377,64.4659,25,0.7103,8748,4.0227,131.6491
rg,1625145796334208499,1,0.1445,0.8328,0.605,442,11.7188,12.085,-13.0005,91,0.9475,0,3.9522,64.5245,25,0.7093,8943,4.0227,131.8374
rg,1625145796334228221,1,0.1396,0.8384,0.6016,443,9.5215,12.5122,-14.2822,91,0.9485,0,4.2227,64.5062,25,0.7103,9073,4.0227,132.019
rg,1625145796334247479,1,0.1375,0.8318,0.6023,444,8.606,10.8643,-13.916,91,0.9475,0,4.4451,64.439,25,0.7103,9903,4.0227,132.1442
rg,1625145796334265293,1,0.1372,0.8318,0.5979,445,6.958,9.5825,-14.2822,91,0.9485,0,4.6501,64.3126,25,0.7113,8279,4.0227,132.215
rg,1625145796334283143,1,0.1453,0.8386,0.6035,446,6.4697,7.9956,-13.7939,91,0.9485,0,4.788,64.1668,25,0.7113,8488,4.0227,132.2341
rg,1625145796334302531,1,0.1428,0.8418,0.6006,447,4.6387,8.3008,-14.0991,91,0.9475,0,4.9421,63.9629,25,0.7103,8309,4.0227,132.2576
rg,1625145796334322864,1,0.1445,0.8318,0.6006,448,3.1738,9.4604,-15.1978,91,0.9485,0,5.1443,63.6978,25,0.7103,8547,4.0227,132.2998
rg,1625145796701857995,1,0.1387,0.8181,0.5972,449,2.8687,8.9111,-15.1978,91,0.9495,0,5.3383,63.4173,25,0.7113,25968,4.0227,132.3173
rg,1625145796701928324,1,0.1479,0.8223,0.5967,450,3.9062,7.9346,-13.2446,91,0.9485,0,5.4188,63.1957,25,0.7113,14503,4.0227,132.3318
rg,1625145796701948694,1,0.1526,0.8213,0.6018,451,4.1504,8.5449,-13.7939,91,0.9495,0,5.5089,62.9734,25,0.7113,7827,4.0227,132.3544
rg,1625145796701967452,1,0.1548,0.8176,0.6062,452,4.2725,10.1929,-14.6484,91,0.9495,0,5.6601,62.7662,25,0.7113,7883,4.0227,132.418
rg,1625145796701985821,1,0.1584,0.8215,0.6033,453,4.5776,9.5825,-13.1836,91,0.9495,0,5.7352,62.59,25,0.7113,7736,4.0271,132.4848
rg,1625145796702005172,1,0.1614,0.8252,0.5991,454,5.0659,9.8877,-12.5732,84,0.9495,0,5.815,62.4712,25,0.7123,7911,4.0271,132.5939
rg,1625145796702025819,1,0.1582,0.8237,0.6042,455,5.3101,11.5967,-14.4043,84,0.9485,0,5.9659,62.3418,25,0.7113,7967,4.0271,132.7071
rg,1625145796702042911,1,0.155,0.8203,0.6001,456,5.249,11.5967,-13.3057,84,0.9505,0,6.0775,62.2202,25,0.7113,7991,4.0271,132.839
rg,1625145796702060021,1,0.1528,0.821,0.5918,457,4.3335,12.4512,-13.4888,84,0.9495,0,6.1729,62.0789,25,0.7123,7812,4.0271,132.9936
rg,1625145796702076927,1,0.1487,0.821,0.6016,458,4.6997,11.7798,-11.8408,84,0.9485,0,6.2429,61.9474,25,0.7103,7950,4.0271,133.156
rg,1625145796702092927,1,0.1475,0.8198,0.5984,459,5.3101,11.4746,-11.8408,84,0.9505,0,6.3065,61.8483,25,0.7123,7835,4.0271,133.3067
rg,1625145796702109555,1,0.1453,0.8213,0.6023,460,4.8218,12.207,-13.1836,84,0.9505,0,6.4489,61.7259,25,0.7123,7939,4.0271,133.456
rg,1625145796702127314,1,0.1389,0.8203,0.5967,461,5.0049,11.2305,-12.207,84,0.9485,0,6.5314,61.6251,25,0.7113,8768,4.0271,133.5889
rg,1625145796702192106,1,0.1414,0.8247,0.6006,462,5.3711,11.2305,-11.4746,84,0.9485,0,6.5818,61.5434,25,0.7113,9444,4.0271,133.7344
rg,1625145796702210494,1,0.1448,0.8179,0.6018,463,5.4932,10.437,-12.146,84,0.9505,0,6.6306,61.4542,25,0.7123,7882,4.0271,133.8369
rg,1625145796702231252,1,0.1453,0.8289,0.5933,464,5.4321,10.5591,-11.6577,84,0.9485,0,6.6637,61.3746,25,0.7113,8033,4.0271,133.9532
rg,1625145796702248418,1,0.1462,0.825,0.603,465,5.3711,11.3525,-12.8174,84,0.9495,0,6.7492,61.2964,25,0.7123,11495,4.0271,134.0746
rg,1625145796702265788,1,0.1465,0.8223,0.5979,466,6.1646,11.1694,-12.6953,84,0.9495,0,6.8041,61.2327,25,0.7123,8835,4.0271,134.2074
rg,1625145796702283324,1,0.1472,0.8267,0.6003,467,6.0425,11.4136,-13.0615,84,0.9495,0,6.892,61.1937,25,0.7123,8630,4.0271,134.3254
rg,1625145796702315841,1,0.1411,0.825,0.5959,468,5.6763,11.1694,-13.0615,84,0.9495,0,6.9836,61.1462,25,0.7123,8812,4.0271,134.4347
rg,1625145796702332895,1,0.1394,0.824,0.5938,469,5.6763,12.2681,-13.9771,84,0.9495,0,7.1279,61.1059,25,0.7123,8671,4.0271,134.5647
rg,1625145796702349950,1,0.1399,0.8298,0.5901,470,5.9204,11.1694,-11.4746,84,0.9495,0,7.1576,61.0925,25,0.7103,10079,4.0271,134.7051
rg,1625145796702368467,1,0.147,0.8308,0.5957,471,5.0659,11.2305,-11.2915,84,0.9495,0,7.1675,61.0376,25,0.7123,8714,4.0271,134.85
rg,1625145796702389133,1,0.147,0.8276,0.5991,472,5.3101,9.5825,-10.1318,84,0.9495,0,7.1048,60.9921,25,0.7123,8899,4.0271,134.959
rg,1625145796702406706,1,0.1455,0.8342,0.5986,473,5.0049,10.7422,-11.7188,84,0.9475,0,7.1268,60.9343,25,0.7113,8785,4.0271,135.0779
rg,1625145796702424038,1,0.1455,0.8267,0.5923,474,4.8828,11.2915,-13.2446,84,0.9485,0,7.2091,60.8745,25,0.7113,9087,4.0271,135.1861
rg,1625145796702440723,1,0.1455,0.8306,0.5857,475,5.0049,10.498,-12.3291,84,0.9495,0,7.2406,60.8376,25,0.7113,8829,4.0271,135.2857
rg,1625145796702457277,1,0.1409,0.8276,0.5891,476,5.0659,11.1694,-12.0239,84,0.9495,0,7.2832,60.7982,25,0.7123,9084,4.0271,135.4131
rg,1625145796702486850,1,0.1455,0.8303,0.5898,477,5.4321,10.3149,-12.085,84,0.9495,0,7.3311,60.8009,24,0.7123,8873,4.0271,135.5344
rg,1625145796702504312,1,0.1482,0.8296,0.593,478,5.3101,11.4136,-13.2446,84,0.9495,0,7.4033,60.7666,24,0.7123,9059,4.0271,135.6455
rg,1625145796702521089,1,0.1477,0.8347,0.603,479,6.0425,10.7422,-12.6343,84,0.9485,0,7.4426,60.7501,24,0.7123,8956,4.0271,135.7428
rg,1625145796702537292,1,0.1479,0.8335,0.5918,480,5.3711,10.376,-12.5122,84,0.9495,0,7.4619,60.7475,25,0.7123,11418,4.0271,135.8348
rg,1625145797071236314,1,0.1443,0.8325,0.5852,481,5.188,11.1084,-12.4512,84,0.9495,0,7.5029,60.729,25,0.7133,25703,4.0271,135.9521
rg,1625145797071267053,1,0.135,0.8301,0.5845,482,5.0049,10.6812,-12.2681,84,0.9495,0,7.5468,60.7005,25,0.7123,14482,4.0271,136.0573
rg,1625145797071287071,1,0.1538,0.8411,0.5847,483,5.3101,9.7656,-12.9395,84,0.9495,0,7.5575,60.6932,25,0.7133,8245,4.0271,136.1187
rg,1625145797071306107,1,0.1423,0.8352,0.5906,484,4.9438,10.437,-12.0239,84,0.9495,0,7.5771,60.665,25,0.7133,8486,4.0271,136.2199
rg,1625145797071323680,1,0.1331,0.8423,0.5911,485,4.2725,9.6436,-11.7798,84,0.9495,0,7.5888,60.6095,25,0.7133,8264,4.0271,136.2979
rg,1625145797071341012,1,0.1392,0.8423,0.5842,486,4.3945,8.606,-12.085,84,0.9495,0,7.5765,60.5681,25,0.7133,10232,4.0271,136.3347
rg,1625145797071357641,1,0.1467,0.8401,0.585,487,4.1504,8.2397,-11.7188,84,0.9495,0,7.5287,60.5138,25,0.7133,8307,4.0271,136.3653
rg,1625145797071373955,1,0.1465,0.842,0.5884,488,4.2114,8.1177,-11.9629,84,0.9495,0,7.4903,60.4591,25,0.7133,8698,4.0271,136.3861
rg,1625145797071389992,1,0.1489,0.8381,0.5898,489,3.8452,9.2773,-13.4277,84,0.9495,0,7.5214,60.3859,25,0.7133,8347,4.0271,136.4176
rg,1625145797071405972,1,0.1541,0.8386,0.5928,490,4.1504,9.0942,-12.4512,84,0.9495,0,7.5038,60.3249,25,0.7133,8576,4.0271,136.4609
rg,1625145797071422564,1,0.1526,0.8369,0.5864,491,4.2725,8.8501,-11.6577,84,0.9475,0,7.456,60.2813,25,0.7123,9185,4.0271,136.5124
rg,1625145797071457210,1,0.1572,0.8342,0.5815,492,4.2114,9.0942,-12.8784,84,0.9495,0,7.4459,60.2404,25,0.7113,8690,4.0271,136.5488
rg,1625145797071475506,1,0.1528,0.8289,0.5823,493,4.2725,9.0942,-12.4512,84,0.9495,0,7.4296,60.1965,25,0.7133,8438,4.0271,136.5925
rg,1625145797071492542,1,0.1533,0.8376,0.583,494,4.3945,9.2163,-11.3525,84,0.9505,0,7.4171,60.1261,25,0.7133,8643,4.0271,136.665
rg,1625145797071509097,1,0.1521,0.8284,0.5823,495,3.418,10.1929,-12.4512,84,0.9485,0,7.4251,60.0567,25,0.7123,8479,4.0271,136.7465
rg,1625145797071525966,1,0.1489,0.8333,0.583,496,3.6011,10.0098,-12.8174,84,0.9495,0,7.4499,60.0002,25,0.7133,8691,4.0271,136.8144
rg,1625145797071542502,1,0.1492,0.8293,0.5859,497,3.9673,10.8643,-12.8784,84,0.9485,0,7.492,59.9539,25,0.7123,9871,4.0271,136.9092
rg,1625145797071558761,1,0.1514,0.8262,0.5862,498,3.7231,9.2163,-11.6577,84,0.9495,0,7.4523,59.891,25,0.7123,8742,4.0271,136.9699
rg,1625145797071575019,1,0.1497,0.8303,0.5867,499,4.3945,9.0942,-12.0239,84,0.9505,0,7.4291,59.8601,25,0.7133,8587,4.0271,137.0193
rg,1625145797071591352,1,0.1492,0.8347,0.582,500,3.8452,9.3994,-13.0005,84,0.9495,0,7.4967,59.8234,25,0.7133,8813,4.0271,137.0783
rg,1625145797071607351,1,0.1489,0.8328,0.5872,501,3.6621,9.2773,-12.6953,84,0.9485,0,7.5008,59.7671,25,0.7123,8601,4.0271,137.1204
rg,1625145797071623184,1,0.1533,0.8352,0.5774,502,4.1504,8.667,-11.5356,84,0.9485,0,7.4421,59.7538,25,0.7123,8789,4.0271,137.167
rg,1625145797071639127,1,0.1543,0.8381,0.5781,503,4.5776,9.4604,-12.8784,84,0.9495,0,7.4466,59.7605,25,0.7123,8668,4.0271,137.2146
rg,1625145797071654997,1,0.1531,0.8364,0.5823,504,3.9673,9.2163,-11.7798,84,0.9495,0,7.4111,59.7345,25,0.7133,8869,4.0271,137.2746
rg,1625145797071670903,1,0.1582,0.8438,0.5791,505,3.8452,9.7656,-13.3667,84,0.9495,0,7.4563,59.6648,25,0.7143,8711,4.0271,137.3197
rg,1625145797071686717,1,0.1528,0.8364,0.5896,506,3.7231,9.5825,-13.1836,84,0.9485,0,7.4782,59.6174,25,0.7123,9002,4.0271,137.3618
rg,1625145797071711753,1,0.1562,0.8296,0.5886,507,3.7842,9.5825,-12.2681,84,0.9485,0,7.4588,59.5699,25,0.7123,8763,4.0271,137.4212
rg,1625145797071728252,1,0.1536,0.8325,0.5803,508,3.6011,9.7656,-12.5732,84,0.9495,0,7.459,59.5356,25,0.7123,9071,4.0271,137.483
rg,1625145797071744196,1,0.1475,0.8264,0.5833,509,3.6621,10.437,-12.6953,84,0.9505,0,7.4891,59.4945,25,0.7123,9371,4.0271,137.5637
rg,1625145797071760547,1,0.1487,0.8311,0.5823,510,3.7842,11.1694,-13.1226,84,0.9495,0,7.5458,59.4699,25,0.7143,8991,4.0271,137.6619
rg,1625145797071776602,1,0.1436,0.8279,0.584,511,4.3335,9.6436,-11.2915,84,0.9505,0,7.5222,59.4933,25,0.7143,8829,4.0271,137.7466
rg,1625145797071792786,1,0.1509,0.8354,0.5903,512,3.9062,10.5591,-12.8784,84,0.9485,0,7.5548,59.4625,25,0.7123,9003,4.0271,137.8272
rg,1625145797446072956,1,0.1455,0.8403,0.5757,513,4.2725,9.7656,-11.9629,84,0.9505,0,7.5484,59.479,25,0.7143,25866,4.0271,137.9029
rg,1625145797446132175,1,0.1575,0.8293,0.584,514,4.0283,8.728,-12.207,84,0.9505,0,7.5036,59.451,25,0.7143,16947,4.0271,137.9339
rg,1625145797446153489,1,0.1501,0.8335,0.582,515,3.9062,8.667,-11.9019,84,0.9495,0,7.4648,59.4284,25,0.7143,8345,4.0271,137.97
rg,1625145797446173525,1,0.1624,0.8325,0.5835,516,4.0283,8.9111,-12.0239,84,0.9505,0,7.411,59.4086,25,0.7143,8630,4.0271,138.0118
rg,1625145797446191969,1,0.1575,0.8408,0.5845,517,4.1504,8.7891,-11.6577,84,0.9505,0,7.3627,59.4053,25,0.7143,8310,4.0271,138.0581
rg,1625145797446209357,1,0.1506,0.8298,0.5889,518,4.0894,9.3994,-11.9629,84,0.9505,0,7.3456,59.3776,25,0.7143,9867,4.0271,138.1165
rg,1625145797446226393,1,0.1489,0.8328,0.5913,519,3.6621,9.1553,-12.6953,84,0.9485,0,7.3542,59.3301,25,0.7123,8983,4.0271,138.1511
rg,1625145797446243114,1,0.1362,0.8308,0.5781,520,4.1504,8.7891,-12.146,84,0.9475,0,7.3602,59.325,25,0.7123,8545,4.0271,138.1867
rg,1625145797446291464,1,0.1545,0.8323,0.5833,521,4.0283,7.5684,-12.4512,84,0.9495,0,7.3142,59.302,25,0.7143,8859,4.0271,138.1728
rg,1625145797446311889,1,0.157,0.8281,0.5828,522,4.0283,7.2021,-11.3525,84,0.9495,0,7.2666,59.2883,25,0.7143,8590,4.0271,138.1824
rg,1625145797446329295,1,0.1609,0.8347,0.5825,523,3.7842,8.1177,-12.2681,84,0.9485,0,7.2162,59.2645,25,0.7123,8427,4.0271,138.192
rg,1625145797446345850,1,0.1558,0.8308,0.5813,524,4.3335,8.4229,-13.0615,84,0.9475,0,7.2107,59.2599,25,0.7133,8625,4.0271,138.1956
rg,1625145797446362238,1,0.1584,0.833,0.5767,525,3.9673,8.606,-13.0005,84,0.9495,0,7.201,59.2531,25,0.7143,8473,4.0271,138.2082
rg,1625145797446379348,1,0.1616,0.8328,0.5835,526,3.9062,8.9111,-13.0615,84,0.9495,0,7.1493,59.2515,25,0.7143,8728,4.0271,138.2041
rg,1625145797446396551,1,0.1621,0.8423,0.5837,527,4.5166,8.1787,-12.4512,84,0.9485,0,7.1105,59.2654,25,0.7133,8592,4.0271,138.2132
rg,1625145797446419272,1,0.1602,0.8403,0.5779,528,3.7842,8.4229,-12.0239,84,0.9485,0,7.0659,59.2598,25,0.7133,8694,4.0271,138.2406
rg,1625145797446437401,1,0.157,0.8396,0.5703,529,3.8452,8.728,-13.6108,84,0.9505,0,7.0887,59.267,25,0.7143,8588,4.0271,138.2478
rg,1625145797446455067,1,0.1584,0.8372,0.5764,530,3.7842,8.1787,-12.6953,84,0.9505,0,7.0655,59.2573,25,0.7143,12659,4.0271,138.253
rg,1625145797446473047,1,0.1614,0.8384,0.5701,531,3.2959,7.5073,-12.8174,84,0.9505,0,7.0267,59.2385,25,0.7143,8635,4.0271,138.2339
rg,1625145797446492528,1,0.1606,0.8372,0.5723,532,3.6011,8.667,-13.3667,84,0.9495,0,7.0334,59.2306,24,0.7143,10117,4.0271,138.2432
rg,1625145797446510527,1,0.1628,0.8411,0.5759,533,3.6621,8.606,-12.8174,84,0.9505,0,7.0169,59.2248,24,0.7143,8649,4.0271,138.2613
rg,1625145797446528063,1,0.1606,0.845,0.5737,534,3.479,9.2773,-13.7939,84,0.9505,0,7.0533,59.221,24,0.7143,8845,4.0271,138.2838
rg,1625145797446545710,1,0.157,0.8354,0.5757,535,3.7842,8.9111,-12.8174,84,0.9495,0,7.0172,59.2055,24,0.7153,8533,4.0271,138.313
rg,1625145797446586597,1,0.1628,0.8396,0.5862,536,3.7842,9.2163,-14.1602,84,0.9485,0,7.0614,59.1841,25,0.7133,8881,4.0271,138.3221
rg,1625145797446607781,1,0.1624,0.8396,0.5781,537,4.0283,8.1177,-13.1226,84,0.9485,0,7.0454,59.186,25,0.7133,8750,4.0271,138.3159
rg,1625145797446625614,1,0.1736,0.8413,0.5837,538,4.6387,8.4229,-14.2212,84,0.9505,0,7.0522,59.2029,25,0.7133,8950,4.0271,138.297
rg,1625145797446643835,1,0.1826,0.8247,0.5913,539,6.897,7.6294,-12.7563,84,0.9505,0,6.9708,59.2752,25,0.7143,8831,4.0271,138.2764
rg,1625145797446661019,1,0.1768,0.8254,0.5916,540,9.4604,9.7656,-13.5498,84,0.9505,0,6.9754,59.4545,25,0.7143,8995,4.0271,138.3144
rg,1625145797446677685,1,0.1682,0.8232,0.5818,541,10.6201,10.8032,-12.6953,84,0.9505,0,7.0064,59.7197,25,0.7143,8836,4.0271,138.4121
rg,1625145797446697240,1,0.1543,0.8257,0.571,542,12.207,10.1929,-12.4512,84,0.9485,0,7.0229,60.0335,25,0.7133,9034,4.0271,138.4947
rg,1625145797446716702,1,0.1646,0.824,0.5603,543,12.085,9.7046,-10.9863,84,0.9485,0,6.9536,60.3501,25,0.7143,8888,4.0271,138.5935
rg,1625145797446735182,1,0.1741,0.8328,0.5498,544,12.5732,11.2305,-11.0474,84,0.9515,0,6.8981,60.7113,25,0.7143,8850,4.0271,138.7504
rg,1625145797817492455,1,0.1719,0.8347,0.5566,545,10.0708,14.5874,-11.5356,84,0.9495,0,6.9303,60.9626,25,0.7143,25403,4.0271,139.0224
rg,1625145797817534897,1,0.1609,0.8342,0.5737,546,10.437,16.2354,-13.0615,84,0.9505,0,7.0911,61.189,25,0.7143,15067,4.0271,139.3156
rg,1625145797817555359,1,0.1443,0.8376,0.5776,547,10.7422,15.4419,-13.6108,84,0.9505,0,7.268,61.4116,25,0.7143,8227,4.0271,139.571
rg,1625145797817574599,1,0.1487,0.8369,0.5759,548,10.9863,13.7939,-12.7563,84,0.9505,0,7.3662,61.6331,25,0.7143,8449,4.0271,139.7859
rg,1625145797818006133,1,0.1514,0.8401,0.5754,549,10.6812,12.7563,-12.207,84,0.9505,0,7.4161,61.8358,24,0.7143,9849,4.0271,139.9761
rg,1625145797818033187,1,0.1558,0.8479,0.5605,550,10.2539,11.7798,-13.0005,84,0.9505,0,7.4628,62.0447,24,0.7143,9341,4.0271,140.1226
rg,1625145797818053723,1,0.1567,0.8459,0.5708,551,10.0098,11.3525,-11.8408,84,0.9505,0,7.4579,62.2156,24,0.7143,10797,4.0271,140.274
rg,1625145797818074444,1,0.1672,0.8425,0.5769,552,10.5591,12.0239,-12.9395,84,0.9505,0,7.4825,62.3874,25,0.7143,8499,4.0271,140.4281
rg,1625145797818116349,1,0.1694,0.8354,0.5735,553,11.9019,11.6577,-12.3291,84,0.9505,0,7.4703,62.6038,25,0.7143,8368,4.0271,140.5811
rg,1625145797818136330,1,0.1733,0.8247,0.5745,554,14.1602,11.5967,-13.7329,84,0.9505,0,7.4959,62.8834,25,0.7143,8535,4.0271,140.7056
rg,1625145797818154144,1,0.1663,0.825,0.5588,555,16.9678,12.085,-13.4888,84,0.9495,0,7.5314,63.2967,25,0.7143,8435,4.0271,140.8579
rg,1625145797818171476,1,0.1531,0.8223,0.5491,556,20.2637,12.3291,-12.9395,84,0.9495,0,7.5744,63.843,25,0.7133,9237,4.0271,141.0336
rg,1625145797818190549,1,0.1599,0.8328,0.542,557,21.9727,12.6343,-14.0991,84,0.9495,0,7.6412,64.4863,25,0.7133,8464,4.0271,141.2103
rg,1625145797818207382,1,0.1545,0.8413,0.5359,558,22.0337,12.6343,-13.916,84,0.9485,0,7.7153,65.1066,25,0.7113,8626,4.0271,141.3945
rg,1625145797818226122,1,0.1597,0.8411,0.5276,559,22.2168,13.916,-12.8784,84,0.9495,0,7.7553,65.7356,25,0.7113,8491,4.0271,141.6495
rg,1625145797818244176,1,0.177,0.8647,0.5149,560,23.6816,14.2212,-12.3901,84,0.9495,0,7.7448,66.4547,25,0.7123,8704,4.0271,141.9349
rg,1625145797818261287,1,0.1702,0.8733,0.5139,561,22.7661,16.3574,-12.6343,84,0.9495,0,7.8037,67.044,25,0.7123,8580,4.0271,142.3496
rg,1625145797818279601,1,0.1499,0.8757,0.5269,562,19.2871,17.334,-12.8784,84,0.9485,0,7.9127,67.5419,25,0.7113,8720,4.0271,142.7506
rg,1625145797818297637,1,0.1504,0.8818,0.5247,563,16.4185,17.0288,-13.0005,84,0.9495,0,8.0144,67.9164,25,0.7113,8595,4.0271,143.143
rg,1625145797818315321,1,0.1416,0.8894,0.5322,564,13.3057,16.6016,-13.916,84,0.9505,0,8.1591,68.1428,25,0.7123,8755,4.0271,143.5069
rg,1625145797818332153,1,0.1309,0.8889,0.5361,565,10.9863,16.6016,-14.7095,84,0.9495,0,8.3495,68.2591,25,0.7123,8648,4.0271,143.8587
rg,1625145797818349634,1,0.1321,0.8911,0.5439,566,8.8501,14.8926,-14.8315,84,0.9505,0,8.5076,68.288,25,0.7123,8814,4.0271,144.1456
rg,1625145797818368133,1,0.1316,0.8938,0.5391,567,5.9814,14.0991,-14.7095,81,0.9535,0,8.6534,68.1706,25,0.7123,9937,4.0271,144.3997
rg,1625145797818406761,1,0.1277,0.8882,0.5403,568,3.2959,11.6577,-14.6484,81,0.9505,0,8.7262,67.9308,25,0.7123,10634,4.0271,144.5349
rg,1625145797818428278,1,0.1343,0.887,0.541,569,2.4414,9.7046,-13.3057,81,0.9485,0,8.7361,67.6694,25,0.7113,8778,4.0271,144.642
rg,1625145797818446796,1,0.1389,0.8779,0.5359,570,0.7935,8.728,-13.2446,81,0.9485,0,8.7167,67.3462,25,0.7113,8908,4.0271,144.7121
rg,1625145797818466295,1,0.1318,0.8728,0.5298,571,0.7935,7.9956,-13.6719,81,0.9505,0,8.7157,67.0354,25,0.7113,8767,4.0271,144.7473
rg,1625145797818484016,1,0.1492,0.8596,0.532,572,1.1597,5.4932,-11.9629,81,0.9515,0,8.5744,66.7227,25,0.7123,8765,4.0271,144.7121
rg,1625145797818501126,1,0.1719,0.8586,0.5386,573,2.0142,5.249,-12.207,81,0.9505,0,8.4339,66.4767,25,0.7123,8802,4.0271,144.6675
rg,1625145797818518626,1,0.1716,0.8665,0.5325,574,4.0283,6.7139,-13.3667,81,0.9505,0,8.311,66.3061,25,0.7123,9031,4.0271,144.6553
rg,1625145797818535717,1,0.1809,0.8523,0.5352,575,5.7983,7.5684,-12.0239,81,0.9495,0,8.1523,66.2046,25,0.7103,8855,4.0271,144.6941
rg,1625145797818553179,1,0.1736,0.8557,0.5208,576,7.1411,9.5215,-13.3667,81,0.9495,0,8.0929,66.1987,25,0.7113,9046,4.0271,144.7881
rg,1625145798193742369,1,0.1631,0.8579,0.5168,577,9.3384,13.3057,-13.6719,81,0.9505,0,8.1412,66.3153,25,0.7123,25904,4.0271,145.0197
rg,1625145798193779867,1,0.1553,0.8679,0.5259,578,9.8267,14.5874,-13.1226,81,0.9505,0,8.1958,66.443,25,0.7133,11332,4.0271,145.3065
rg,1625145798193800181,1,0.1567,0.8708,0.5217,579,9.9487,14.7095,-13.7329,81,0.9505,0,8.2688,66.5817,25,0.7133,8279,4.0271,145.5903
rg,1625145798193819236,1,0.1565,0.8684,0.5254,580,10.376,14.4043,-13.1836,81,0.9505,0,8.3141,66.7224,25,0.7133,8456,4.0271,145.8708
rg,1625145798193837901,1,0.145,0.8782,0.5222,581,8.7891,14.0381,-13.9771,81,0.9505,0,8.4061,66.8075,25,0.7133,8306,4.0271,146.1283
rg,1625145798193855401,1,0.1289,0.885,0.5205,582,8.2397,13.3057,-12.5732,81,0.9505,0,8.4663,66.8772,25,0.7123,9788,4.0271,146.3821
rg,1625145798193926231,1,0.1335,0.8799,0.5183,583,7.2632,12.207,-12.2681,81,0.9505,0,8.5132,66.8813,25,0.7113,8567,4.0271,146.5795
rg,1625145798193946322,1,0.1443,0.8789,0.5298,584,5.9204,9.6436,-11.9629,81,0.9515,0,8.4581,66.8133,25,0.7143,11329,4.0271,146.7031
rg,1625145798193964210,1,0.1541,0.8838,0.5168,585,5.5542,10.0708,-12.9395,81,0.9515,0,8.409,66.7385,25,0.7133,8592,4.0271,146.8096
rg,1625145798193981339,1,0.1599,0.8733,0.5195,586,4.0894,8.7891,-11.9629,81,0.9495,0,8.309,66.6118,25,0.7133,8592,4.0271,146.9035
rg,1625145798193998764,1,0.1665,0.8696,0.5112,587,4.2114,8.9111,-12.3901,81,0.9485,0,8.2143,66.5065,25,0.7133,8448,4.0271,146.9969
rg,1625145798194015800,1,0.1636,0.8665,0.512,588,3.9062,9.5215,-12.5732,81,0.9505,0,8.1451,66.3905,25,0.7143,8614,4.0271,147.1091
rg,1625145798194032189,1,0.1719,0.8552,0.5117,589,4.0894,8.8501,-11.7188,81,0.9515,0,8.0524,66.2919,25,0.7143,8634,4.0271,147.2059
rg,1625145798194048503,1,0.1707,0.855,0.5137,590,5.6152,9.0942,-13.0005,81,0.9505,0,7.981,66.2329,25,0.7143,8775,4.0271,147.2928
rg,1625145798194064557,1,0.1721,0.8518,0.5054,591,7.019,10.3149,-12.3291,81,0.9495,0,7.9014,66.2524,25,0.7133,8548,4.0271,147.4375
rg,1625145798194081594,1,0.1665,0.8533,0.4995,592,7.5073,10.9863,-12.5122,81,0.9515,0,7.8534,66.3065,25,0.7133,8708,4.0271,147.6064
rg,1625145798194098371,1,0.167,0.8508,0.498,593,8.4839,10.376,-11.6577,81,0.9515,0,7.764,66.3963,25,0.7143,8578,4.0271,147.7668
rg,1625145798194114185,1,0.1553,0.8552,0.5034,594,9.2163,10.6812,-10.7422,81,0.9515,0,7.7131,66.5462,25,0.7143,8759,4.0271,147.9294
rg,1625145798194130758,1,0.1794,0.8696,0.5054,595,10.498,10.5591,-11.4136,81,0.9515,0,7.6025,66.7156,24,0.7143,13221,4.0271,148.1034
rg,1625145798194148257,1,0.1621,0.8677,0.5059,596,10.0098,11.1694,-10.7422,81,0.9515,0,7.5165,66.8593,24,0.7153,8815,4.0271,148.3114
rg,1625145798194165627,1,0.1438,0.8655,0.511,597,10.0098,11.9629,-10.8032,81,0.9515,0,7.4202,67.006,24,0.7143,8659,4.0271,148.5009
rg,1625145798194203755,1,0.165,0.8757,0.5112,598,10.6812,9.4604,-9.7046,81,0.9515,0,7.2725,67.1573,24,0.7143,8827,4.0271,148.6636
rg,1625145798194222106,1,0.147,0.8755,0.5195,599,9.8877,11.4746,-9.9487,81,0.9515,0,7.2093,67.2629,25,0.7133,9457,4.0271,148.8966
rg,1625145798194243142,1,0.1594,0.8665,0.5278,600,10.9253,9.5825,-8.8501,81,0.9495,0,7.052,67.3734,25,0.7133,9426,4.0271,149.0737
rg,1625145798194260696,1,0.1514,0.8679,0.5215,601,11.9019,10.8643,-8.9722,81,0.9505,0,6.9403,67.5372,25,0.7133,8767,4.0271,149.2996
rg,1625145798194278177,1,0.157,0.8645,0.519,602,12.4512,10.9253,-10.1929,81,0.9495,0,6.865,67.7155,25,0.7133,9762,4.0271,149.5105
rg,1625145798194295250,1,0.1558,0.8684,0.5208,603,14.4043,10.498,-8.606,81,0.9505,0,6.7305,67.9666,25,0.7133,10686,4.0271,149.7308
rg,1625145798194312509,1,0.1299,0.8682,0.5166,604,15.3198,12.6343,-9.5215,81,0.9515,0,6.7199,68.2586,25,0.7133,9009,4.0271,150.0198
rg,1625145798194330360,1,0.1301,0.8723,0.5115,605,16.6626,10.7422,-9.7046,81,0.9505,0,6.6868,68.5989,25,0.7143,8865,4.0271,150.2383
rg,1625145798194346803,1,0.1313,0.8813,0.5095,606,16.9678,11.2915,-9.3994,81,0.9505,0,6.6324,68.9619,25,0.7133,9040,4.0271,150.4416
rg,1625145798194365747,1,0.1428,0.886,0.5112,607,18.0664,9.0332,-9.0942,81,0.9525,0,6.5376,69.3572,25,0.7143,8932,4.0271,150.6119
rg,1625145798194382265,1,0.1328,0.8965,0.5029,608,18.0664,10.6812,-10.1318,81,0.9495,0,6.52,69.7525,25,0.7123,8438,4.0271,150.8331
rg,1625145798547010330,1,0.1555,0.9026,0.4758,609,17.4561,10.2539,-11.7798,81,0.9505,0,6.5066,70.1636,25,0.7133,24995,4.0271,151.0244
rg,1625145798547044847,1,0.145,0.8975,0.47,610,15.9302,10.6201,-12.085,81,0.9515,0,6.5287,70.5051,25,0.7133,16300,4.0271,151.2286
rg,1625145798547065068,1,0.1531,0.9036,0.4746,611,15.7471,8.9111,-12.0239,81,0.9505,0,6.5026,70.8168,25,0.7133,7683,4.0271,151.3703
rg,1625145798547084697,1,0.1729,0.9167,0.4802,612,14.9536,7.8735,-11.7188,81,0.9505,0,6.422,71.0837,25,0.7123,7879,4.0271,151.4788
rg,1625145798547135158,1,0.1873,0.9258,0.4702,613,12.8784,10.1318,-12.2681,81,0.9505,0,6.3647,71.2951,25,0.7123,7879,4.0271,151.6714
rg,1625145798547154620,1,0.1777,0.9172,0.4729,614,11.5356,11.6577,-12.146,81,0.9505,0,6.3625,71.3961,25,0.7123,7811,4.0271,151.9193
rg,1625145798547173137,1,0.1565,0.8931,0.4929,615,9.8267,13.6719,-14.0381,81,0.9505,0,6.4772,71.4082,25,0.7123,7905,4.0271,152.2181
rg,1625145798547190636,1,0.1553,0.9033,0.4692,616,9.8877,12.3901,-14.1602,81,0.9505,0,6.5768,71.4734,25,0.7123,11665,4.0271,152.4722
rg,1625145798547208506,1,0.1626,0.894,0.4705,617,9.0942,12.3901,-13.916,81,0.9505,0,6.6455,71.4939,25,0.7123,7711,4.0271,152.728
rg,1625145798547225079,1,0.1541,0.8931,0.4644,618,8.9111,11.5356,-13.4277,81,0.9505,0,6.6991,71.514,25,0.7123,7895,4.0271,152.9583
rg,1625145798547241430,1,0.1528,0.9019,0.4561,619,9.3384,11.9019,-13.0005,81,0.9505,0,6.7423,71.5781,24,0.7123,7851,4.0271,153.2107
rg,1625145798547259189,1,0.1584,0.8994,0.4397,620,7.8735,10.437,-12.6343,81,0.9505,0,6.7361,71.606,24,0.7123,9523,4.0271,153.4155
rg,1625145798547276966,1,0.1787,0.907,0.4485,621,5.9814,10.1318,-11.4136,81,0.9505,0,6.6411,71.5482,24,0.7113,8807,4.0271,153.6233
rg,1625145798547294706,1,0.1421,0.8975,0.4492,622,5.5542,11.2305,-12.0239,81,0.9515,0,6.662,71.4668,24,0.7123,7954,4.0271,153.8638
rg,1625145798547311594,1,0.1553,0.9023,0.4512,623,5.6763,10.6812,-12.4512,81,0.9495,0,6.6651,71.3918,25,0.7113,7817,4.0271,154.0776
rg,1625145798547328760,1,0.1899,0.8999,0.4553,624,5.249,8.606,-12.085,81,0.9505,0,6.5555,71.2851,25,0.7123,7964,4.0271,154.2156
rg,1625145798547346018,1,0.187,0.8982,0.4563,625,5.3711,10.9253,-12.4512,81,0.9515,0,6.5391,71.1628,25,0.7123,7839,4.0271,154.4559
rg,1625145798547362536,1,0.1604,0.9045,0.468,626,5.0659,11.3525,-12.7563,81,0.9495,0,6.5608,71.0462,25,0.7113,8055,4.0271,154.6866
rg,1625145798547379276,1,0.1602,0.8982,0.4778,627,6.4697,10.437,-12.5122,81,0.9505,0,6.5618,70.961,25,0.7123,7928,4.0271,154.8818
rg,1625145798547408385,1,0.1599,0.8987,0.4692,628,6.6528,10.0098,-12.5122,81,0.9515,0,6.5592,70.9081,25,0.7123,8104,4.0271,155.0628
rg,1625145798547425681,1,0.1533,0.9055,0.4651,629,7.6904,10.437,-12.3901,81,0.9485,0,6.57,70.909,25,0.7103,7954,4.0271,155.2623
rg,1625145798547443217,1,0.1577,0.908,0.4563,630,7.0801,9.3384,-11.4746,81,0.9515,0,6.5215,70.9019,25,0.7113,8237,4.0271,155.4342
rg,1625145798547460179,1,0.1636,0.9082,0.4578,631,6.5918,7.5073,-11.2915,81,0.9505,0,6.4207,70.869,25,0.7113,7979,4.0271,155.5392
rg,1625145798547478567,1,0.1719,0.9087,0.459,632,6.5308,7.8125,-12.085,81,0.9505,0,6.3522,70.8298,25,0.7093,8154,4.0271,155.6452
rg,1625145798547495992,1,0.1748,0.9065,0.4575,633,5.3711,8.9111,-11.1694,81,0.9515,0,6.2592,70.7524,25,0.7113,8009,4.0271,155.8053
rg,1625145798547513343,1,0.1697,0.9077,0.4587,634,5.127,9.0942,-11.2915,81,0.9505,0,6.252,70.6698,25,0.7103,8213,4.0271,155.9878
rg,1625145798547529991,1,0.155,0.9097,0.4607,635,4.5166,9.8877,-12.2681,81,0.9495,0,6.2604,70.5626,24,0.7093,8054,4.0271,156.1695
rg,1625145798547546490,1,0.1714,0.9133,0.4539,636,3.6621,9.0332,-11.9629,81,0.9515,0,6.2116,70.4399,24,0.7113,8260,4.0271,156.3243
rg,1625145798547562860,1,0.1711,0.9119,0.4495,637,3.6011,9.1553,-11.7188,81,0.9505,0,6.1268,70.3164,24,0.7103,8156,4.0271,156.4916
rg,1625145798547612802,1,0.1582,0.9062,0.4517,638,2.8687,9.8267,-11.2305,81,0.9495,0,6.0922,70.1722,24,0.7093,8429,4.0271,156.6851
rg,1625145798547639745,1,0.1655,0.9114,0.4431,639,1.8311,8.5449,-11.2915,81,0.9505,0,6.0291,70.0091,25,0.7103,8296,4.0271,156.8309
rg,1625145798547656781,1,0.1787,0.9075,0.4456,640,0.7324,7.8125,-10.0708,81,0.9495,0,5.8846,69.7989,25,0.7093,10883,4.0271,156.9645
rg,1625145798900041895,1,0.1748,0.8838,0.4521,641,-0.061,8.606,-12.207,81,0.9515,0,5.8393,69.528,24,0.7113,23760,4.0271,157.0944
rg,1625145798900121928,1,0.1704,0.887,0.4602,642,0.6714,8.3008,-11.6577,81,0.9505,0,5.8287,69.3047,24,0.7113,14652,4.0271,157.2137
rg,1625145798900203406,1,0.1714,0.8792,0.4592,643,1.1597,7.6904,-11.7188,81,0.9505,0,5.7627,69.0794,24,0.7113,7687,4.0271,157.3112
rg,1625145798900239626,1,0.1584,0.8835,0.4587,644,1.0376,7.6294,-12.207,81,0.9515,0,5.746,68.8618,24,0.7113,7883,4.0271,157.3989
rg,1625145798900268218,1,0.1567,0.8823,0.4519,645,0.9766,6.7749,-11.6577,81,0.9505,0,5.6685,68.6472,25,0.7113,7820,4.0271,157.4613
rg,1625145798900296494,1,0.1936,0.884,0.4507,646,1.9531,4.8218,-12.7563,81,0.9505,0,5.5594,68.4896,25,0.7103,7842,4.0271,157.4357
rg,1625145798900324252,1,0.1895,0.8813,0.4509,647,1.709,5.6152,-12.9395,81,0.9515,0,5.4807,68.3274,25,0.7113,9068,4.0271,157.4362
rg,1625145798900350473,1,0.1521,0.8762,0.4536,648,2.3804,7.5684,-14.0381,81,0.9505,0,5.4513,68.1787,25,0.7113,7884,4.0271,157.4194
rg,1625145798900375805,1,0.1758,0.8792,0.4683,649,3.6011,1.4648,-11.1084,81,0.9505,0,5.2794,68.0545,25,0.7103,7777,4.0271,157.2869
rg,1625145798900400860,1,0.2214,0.8889,0.4502,650,5.0049,1.6479,-10.5591,81,0.9525,0,4.9998,68.0409,25,0.7123,7925,4.0271,157.1744
rg,1625145798900427932,1,0.2214,0.8789,0.4548,651,5.0659,3.1128,-10.8643,81,0.9505,0,4.7609,68.0158,25,0.7103,7777,4.0271,157.1112
rg,1625145798900453227,1,0.1853,0.8623,0.4534,652,5.7983,6.4697,-11.7798,81,0.9515,0,4.6852,68.0143,25,0.7093,7946,4.0271,157.1587
rg,1625145798900478819,1,0.1929,0.8699,0.4465,653,6.7139,3.418,-10.2539,81,0.9515,0,4.4956,68.0642,25,0.7103,7839,4.0271,157.1173
rg,1625145798900506836,1,0.2148,0.8779,0.45,654,7.5073,3.54,-9.2773,81,0.9495,0,4.2359,68.1478,25,0.7093,7991,4.0271,157.0961
rg,1625145798900533372,1,0.1931,0.8735,0.4402,655,7.6904,6.3477,-8.7891,81,0.9515,0,4.0518,68.2581,25,0.7073,7871,4.0271,157.1891
rg,1625145798900563259,1,0.2039,0.8823,0.458,656,7.8735,6.8359,-7.9346,81,0.9505,0,3.8339,68.3466,25,0.7103,8018,4.0271,157.3121
rg,1625145798900590184,1,0.2109,0.8757,0.4558,657,7.5684,6.5308,-8.0566,81,0.9505,0,3.6063,68.4163,25,0.7083,7866,4.0271,157.4231
rg,1625145798900659699,1,0.1997,0.8843,0.4763,658,9.5215,9.5215,-7.5073,81,0.9505,0,3.4413,68.5359,25,0.7093,10045,4.0271,157.6528
rg,1625145798900690013,1,0.1948,0.8931,0.4629,659,11.0474,9.5215,-6.3477,81,0.9515,0,3.2495,68.7472,25,0.7073,7942,4.0271,157.9026
rg,1625145798900716160,1,0.1636,0.887,0.4551,660,11.1084,11.1694,-5.7983,81,0.9515,0,3.1307,68.964,25,0.7073,8099,4.0271,158.224
rg,1625145798900742677,1,0.1487,0.8987,0.4702,661,11.7188,12.207,-5.249,81,0.9485,0,3.0473,69.1801,25,0.7063,7996,4.0271,158.5924
rg,1625145798900769898,1,0.167,0.9058,0.457,662,10.9253,10.376,-6.0425,81,0.9505,0,2.9304,69.3849,25,0.7073,8275,4.0271,158.8841
rg,1625145798900795415,1,0.1697,0.9121,0.4614,663,10.437,10.9253,-4.8218,81,0.9505,0,2.776,69.5612,25,0.7073,11940,4.0271,159.2147
rg,1625145798900823340,1,0.1641,0.9026,0.4548,664,9.7656,11.0474,-5.8594,81,0.9505,0,2.6753,69.706,25,0.7063,8219,4.0271,159.5372
rg,1625145798900854505,1,0.1628,0.8999,0.467,665,9.5215,10.9863,-6.2256,81,0.9505,0,2.5944,69.8078,25,0.7063,8067,4.0271,159.8522
rg,1625145798900880189,1,0.1594,0.8992,0.4697,666,10.0708,9.5825,-5.4321,81,0.9505,0,2.4467,69.9021,25,0.7063,8250,4.0271,160.1251
rg,1625145798900909280,1,0.1692,0.9006,0.4729,667,11.0474,9.5825,-5.3101,81,0.9505,0,2.3077,70.0438,25,0.7063,8158,4.0271,160.4013
rg,1625145798900936001,1,0.1738,0.9011,0.4763,668,12.0239,11.1694,-6.7749,81,0.9485,0,2.2406,70.2141,25,0.7053,8446,4.0271,160.7186
rg,1625145798900962167,1,0.1729,0.9209,0.4788,669,12.3901,11.0474,-7.6294,81,0.9505,0,2.214,70.4065,25,0.7043,8153,4.0271,161.0218
rg,1625145798900989276,1,0.1895,0.9138,0.4565,670,12.085,9.6436,-7.019,81,0.9505,0,2.105,70.6141,25,0.7063,8354,4.0271,161.2828
rg,1625145798901014146,1,0.1853,0.9158,0.4546,671,11.3525,10.5591,-7.0801,81,0.9485,0,2.0226,70.7907,25,0.7053,8241,4.0271,161.5795
rg,1625145798901042903,1,0.1714,0.8997,0.4507,672,11.0474,9.4604,-7.1411,81,0.9465,0,1.9544,70.9378,25,0.7053,8439,4.0271,161.8349
rg,1625145799248516030,1,0.1843,0.8979,0.415,673,10.7422,7.6904,-4.8828,81,0.9505,0,1.7456,71.1362,25,0.7063,25147,4.0271,162.056
rg,1625145799248553177,1,0.2224,0.8884,0.4294,674,10.7422,6.0425,-5.5542,81,0.9505,0,1.4672,71.3535,25,0.7063,14720,4.0271,162.2379
rg,1625145799248574509,1,0.2231,0.9014,0.415,675,10.9253,8.728,-6.2256,81,0.9505,0,1.2575,71.5466,25,0.7063,8469,4.0271,162.4853
rg,1625145799248594360,1,0.22,0.8975,0.4268,676,10.7422,8.667,-7.2632,81,0.9505,0,1.1011,71.6965,25,0.7063,7828,4.0271,162.7187
rg,1625145799248612748,1,0.2119,0.8977,0.429,677,10.8032,9.3994,-7.5073,81,0.9505,0,0.9722,71.8657,25,0.7063,7643,4.0271,162.9791
rg,1625145799248630488,1,0.2271,0.9082,0.4365,678,12.085,8.1787,-7.7515,81,0.9505,0,0.8294,72.0463,25,0.7063,7812,4.0271,163.1911
rg,1625145799248647654,1,0.2366,0.9072,0.4268,679,12.207,9.2163,-8.667,81,0.9505,0,0.7163,72.2439,25,0.7063,7920,4.0271,163.4337
rg,1625145799248664413,1,0.2209,0.9023,0.4028,680,13.1226,9.3384,-8.5449,81,0.9515,0,0.6641,72.5139,25,0.7073,7725,4.0271,163.6822
rg,1625145799248683801,1,0.2168,0.8992,0.4155,681,12.8784,8.1177,-9.0332,81,0.9485,0,0.5925,72.7332,25,0.7053,7768,4.0271,163.8828
rg,1625145799248700633,1,0.2214,0.9155,0.3984,682,13.5498,8.2397,-8.1177,93,0.9505,-0.001,0.483,73.0203,25,0.7063,7745,4.0227,164.1012
rg,1625145799248718522,1,0.2087,0.9016,0.3818,683,13.1836,8.1177,-9.5825,93,0.9495,0,0.4496,73.3028,25,0.7053,7790,4.0227,164.3008
rg,1625145799248734947,1,0.23,0.8984,0.3845,684,12.3291,5.9814,-7.4463,93,0.9515,0,0.2642,73.5323,25,0.7063,7832,4.0227,164.4448
rg,1625145799248751224,1,0.2295,0.9143,0.3867,685,12.3901,5.188,-6.4087,93,0.9505,0,0.0453,73.7639,25,0.7063,10537,4.0227,164.5722
rg,1625145799248767168,1,0.2319,0.9058,0.3809,686,11.4136,4.8218,-6.2256,93,0.9505,0,-0.1868,73.952,25,0.7063,7898,4.0227,164.6898
rg,1625145799248783648,1,0.228,0.9143,0.3884,687,12.207,5.3101,-7.6904,93,0.9505,0,-0.3354,74.1555,25,0.7063,7906,4.0227,164.8123
rg,1625145799248799962,1,0.217,0.9182,0.3718,688,12.7563,4.2725,-6.3477,93,0.9505,0,-0.5192,74.4099,25,0.7063,7941,4.0227,164.911
rg,1625145799248836516,1,0.231,0.9231,0.3835,689,11.7188,4.5166,-6.4087,93,0.9505,0,-0.7169,74.5932,25,0.7063,7931,4.0227,165.021
rg,1625145799248856127,1,0.2234,0.9229,0.3804,690,11.7188,4.5776,-6.5918,93,0.9505,0,-0.9074,74.79,25,0.7063,8809,4.0227,165.1331
rg,1625145799248873959,1,0.2275,0.9241,0.3796,691,12.0239,5.9204,-7.5073,93,0.9495,-0.001,-1.0271,74.978,25,0.7053,8600,4.0227,165.29
rg,1625145799248892273,1,0.2305,0.9382,0.3728,692,12.085,4.9438,-7.019,93,0.9515,0,-1.1726,75.187,25,0.7063,8002,4.0227,165.4155
rg,1625145799248909309,1,0.2151,0.9231,0.3586,693,11.5967,4.6997,-6.4697,93,0.9505,0,-1.288,75.3232,25,0.7073,8218,4.0227,165.5545
rg,1625145799248925549,1,0.2295,0.9475,0.3806,694,11.0474,5.5542,-8.2397,93,0.9495,0,-1.3636,75.468,25,0.7053,8132,4.0227,165.6952
rg,1625145799248941993,1,0.2385,0.9421,0.3677,695,8.728,5.188,-7.2021,93,0.9495,0,-1.5035,75.5368,25,0.7033,10695,4.0227,165.833
rg,1625145799248958696,1,0.2351,0.9458,0.3596,696,7.4463,5.3711,-7.2021,93,0.9505,0,-1.6289,75.5703,25,0.7043,8107,4.0227,165.9786
rg,1625145799248975399,1,0.2483,0.948,0.3652,697,4.0283,7.1411,-7.5684,93,0.9515,0,-1.7432,75.4546,25,0.7063,8321,4.0227,166.1905
rg,1625145799248991991,1,0.2427,0.9575,0.386,698,3.1738,9.8877,-7.3853,93,0.9505,0,-1.8129,75.271,25,0.7053,8322,4.0227,166.5113
rg,1625145799249008064,1,0.2312,0.9504,0.3875,699,1.4038,11.1084,-7.3853,93,0.9505,0,-1.8455,75.0127,25,0.7043,8351,4.0227,166.8786
rg,1625145799249024508,1,0.2192,0.9634,0.395,700,-0.4272,13.0615,-8.728,93,0.9515,0,-1.7719,74.684,25,0.7053,8233,4.0227,167.3055
rg,1625145799249137485,1,0.2166,0.9529,0.4019,701,-2.1362,12.0239,-7.5073,93,0.9515,0,-1.7361,74.2507,25,0.7053,8419,4.0227,167.7482
rg,1625145799249166835,1,0.2161,0.9617,0.3979,702,-3.9673,14.7705,-7.4463,93,0.9495,0,-1.685,73.8013,25,0.7043,8273,4.0227,168.2471
rg,1625145799249185094,1,0.2546,0.9648,0.386,703,-7.9346,16.9678,-7.9346,93,0.9515,0,-1.6677,73.2369,25,0.7043,8429,4.0227,168.8205
rg,1625145799249292422,1,0.1838,0.936,0.4043,704,-11.7188,21.6064,-8.667,93,0.9515,0,-1.4242,72.4767,25,0.7053,8339,4.0227,169.5576
rg,1625145799599657253,1,0.2297,0.9175,0.4182,705,-10.1929,17.7002,-7.5684,93,0.9505,0,-1.3721,71.7708,25,0.7053,25605,4.0227,170.1517
rg,1625145799599693826,1,0.208,0.8896,0.4373,706,-9.2773,20.0806,-10.1929,93,0.9515,0,-1.1472,71.0638,25,0.7063,14622,4.0227,170.7969
rg,1625145799599714029,1,0.2058,0.8853,0.4407,707,-7.7515,19.2871,-8.9111,93,0.9515,0,-0.9786,70.4365,25,0.7073,9437,4.0227,171.4195
rg,1625145799599733861,1,0.2188,0.885,0.4451,708,-6.3477,17.2119,-8.3008,93,0.9515,0,-0.8881,69.8839,25,0.7073,7755,4.0227,-188.0351
rg,1625145799599752342,1,0.2065,0.8809,0.4597,709,-6.4087,17.7612,-8.9111,93,0.9515,0,-0.7379,69.3173,25,0.7063,7900,4.0227,-187.4834
rg,1625145799599770230,1,0.2026,0.8696,0.4604,710,-5.3101,16.0522,-8.4229,93,0.9515,0,-0.6264,68.8054,25,0.7073,7728,4.0227,-186.9952
rg,1625145799599787600,1,0.1929,0.8677,0.4619,711,-4.0894,16.1133,-8.1787,93,0.9515,0,-0.5906,68.3539,25,0.7073,7737,4.0227,-186.5764
rg,1625145799599804414,1,0.1897,0.8667,0.4646,712,-3.2349,13.3057,-7.9346,93,0.9515,0,-0.5078,67.9523,25,0.7063,8827,4.0227,-186.1934
rg,1625145799599821117,1,0.1965,0.866,0.4651,713,-2.1973,10.9863,-7.2021,93,0.9505,0,-0.5026,67.6074,25,0.7073,10052,4.0227,-185.8893
rg,1625145799599837153,1,0.199,0.8687,0.4573,714,-0.9155,9.7046,-7.8125,93,0.9515,0,-0.4989,67.3461,25,0.7063,7773,4.0227,-185.6448
rg,1625145799599854560,1,0.209,0.8762,0.4592,715,-0.061,9.2163,-7.9346,93,0.9525,0,-0.559,67.1752,25,0.7093,7745,4.0227,-185.4438
rg,1625145799599871429,1,0.2122,0.876,0.4595,716,0.9766,8.0566,-7.5073,93,0.9505,0,-0.6133,67.0102,25,0.7073,7798,4.0227,-185.2585
rg,1625145799599888780,1,0.2141,0.873,0.4585,717,1.0986,7.0801,-7.9346,93,0.9525,0,-0.6701,66.8559,25,0.7093,7800,4.0227,-185.1169
rg,1625145799599905742,1,0.2256,0.8833,0.4536,718,2.9297,5.9814,-8.728,93,0.9525,0,-0.7338,66.8018,25,0.7093,7794,4.0227,-185.0293
rg,1625145799599942315,1,0.2456,0.8828,0.4543,719,3.6621,5.5542,-9.2163,93,0.9525,0,-0.8262,66.778,25,0.7083,7848,4.0227,-184.9651
rg,1625145799599961925,1,0.2312,0.8821,0.4495,720,5.0659,5.4321,-9.9487,93,0.9525,0,-0.8609,66.8198,25,0.7103,7864,4.0227,-184.9171
rg,1625145799599979424,1,0.2427,0.8904,0.446,721,4.9438,4.3945,-8.7891,93,0.9505,0,-0.9745,66.8709,25,0.7093,7944,4.0227,-184.8889
rg,1625145799599995924,1,0.2427,0.8899,0.4302,722,5.127,3.1128,-9.3384,93,0.9525,0,-1.0871,66.9594,25,0.7093,8308,4.0227,-184.9165
rg,1625145799600012275,1,0.2527,0.8896,0.4221,723,5.7373,1.2817,-9.8877,93,0.9525,0,-1.2264,67.0869,25,0.7123,7926,4.0227,-185.0195
rg,1625145799600028219,1,0.2568,0.8921,0.4172,724,4.7607,1.5259,-9.2773,93,0.9505,0,-1.3875,67.1825,25,0.7103,8103,4.0227,-185.103
rg,1625145799600044570,1,0.2546,0.8853,0.4219,725,4.7607,0.5493,-9.9487,93,0.9535,0,-1.5301,67.2599,25,0.7103,7964,4.0227,-185.2316
rg,1625145799600061254,1,0.2688,0.8894,0.4128,726,4.8828,-1.0376,-9.0942,93,0.9515,0,-1.7525,67.3636,25,0.7123,8104,4.0227,-185.4055
rg,1625145799600078013,1,0.2822,0.8911,0.4119,727,4.2114,-0.4272,-9.4604,93,0.9515,0,-1.9707,67.4404,25,0.7113,8018,4.0227,-185.5613
rg,1625145799600094697,1,0.2822,0.8823,0.4141,728,4.5776,0.8545,-9.2163,93,0.9525,0,-2.1739,67.515,25,0.7123,8176,4.0227,-185.6646
rg,1625145799600111289,1,0.2908,0.8879,0.4136,729,4.4556,0.9766,-8.606,93,0.9525,0,-2.4047,67.5881,25,0.7143,8073,4.0227,-185.7535
rg,1625145799600128047,1,0.3022,0.886,0.4207,730,4.4556,1.5259,-8.4229,93,0.9515,0,-2.6479,67.6421,25,0.7133,8200,4.0227,-185.8174
rg,1625145799600144269,1,0.29,0.8765,0.4233,731,5.6152,5.5542,-9.2773,93,0.9535,0,-2.7689,67.7192,25,0.7133,8146,4.0227,-185.7434
rg,1625145799600160194,1,0.2754,0.884,0.4231,732,5.188,7.2632,-9.6436,93,0.9525,0,-2.8117,67.7804,25,0.7143,8883,4.0227,-185.6108
rg,1625145799600253190,1,0.2568,0.8796,0.4268,733,5.4321,5.7983,-8.3008,93,0.9535,0,-2.8865,67.8383,25,0.7133,10782,4.0227,-185.5113
rg,1625145799600316743,1,0.2471,0.887,0.4165,734,6.1035,5.7983,-9.3994,93,0.9525,0,-2.8958,67.9492,25,0.7153,8713,4.0227,-185.4289
rg,1625145799600336501,1,0.248,0.8977,0.417,735,6.1646,4.9438,-8.8501,93,0.9535,0,-2.9563,68.0566,25,0.7163,8941,4.0227,-185.3906
rg,1625145799600415294,1,0.2361,0.8975,0.417,736,5.4321,4.1504,-8.8501,93,0.9515,0,-2.9793,68.1432,25,0.7153,8783,4.0227,-185.3597
rg,1625145799950556894,1,0.2615,0.8977,0.3921,737,3.418,-0.6104,-8.9722,93,0.9525,0,-3.1262,68.2074,25,0.7163,25220,4.0227,-185.5095
rg,1625145799950604596,1,0.2759,0.8965,0.4023,738,3.0518,1.9531,-10.1929,93,0.9525,0,-3.2131,68.2286,25,0.7163,14390,4.0227,-185.5799
rg,1625145799950625891,1,0.2781,0.8994,0.4082,739,2.2583,2.3193,-10.437,93,0.9525,0,-3.284,68.2076,25,0.7163,7655,4.0227,-185.6393
rg,1625145799950644465,1,0.2847,0.884,0.4165,740,2.3193,3.8452,-11.7188,93,0.9525,0,-3.3021,68.157,25,0.7174,7807,4.0227,-185.659
rg,1625145799950662186,1,0.2827,0.8877,0.4172,741,2.9297,5.3711,-12.6953,93,0.9525,0,-3.2547,68.1321,25,0.7163,9444,4.0227,-185.6371
rg,1625145799950679519,1,0.2788,0.8909,0.4263,742,2.8076,5.0659,-11.4746,93,0.9525,0,-3.265,68.1172,25,0.7174,7814,4.0227,-185.6129
rg,1625145799950696647,1,0.2751,0.8823,0.4226,743,3.8452,4.9438,-12.4512,93,0.9515,0,-3.2201,68.115,25,0.7163,7850,4.0227,-185.6029
rg,1625145799950713795,1,0.2786,0.8855,0.4177,744,5.3101,3.418,-11.3525,93,0.9535,0,-3.2467,68.1867,25,0.7153,7900,4.0227,-185.6343
rg,1625145799950731016,1,0.2754,0.8865,0.4141,745,5.9204,3.8452,-11.9019,93,0.9535,0,-3.2341,68.2764,25,0.7184,7732,4.0227,-185.6606
rg,1625145799950751275,1,0.2717,0.8875,0.4043,746,6.1035,2.6855,-12.0239,93,0.9515,0,-3.2336,68.4046,25,0.7174,7921,4.0227,-185.729
rg,1625145799950800050,1,0.2803,0.8918,0.3875,747,5.9814,1.0376,-10.0708,93,0.9525,0,-3.3489,68.5638,25,0.7194,7729,4.0227,-185.8314
rg,1625145799950818827,1,0.2927,0.8989,0.3867,748,6.8359,0.6104,-9.3994,93,0.9535,0,-3.5414,68.7848,25,0.7184,7902,4.0227,-185.9403
rg,1625145799950836975,1,0.3069,0.9009,0.3862,749,4.9438,2.1362,-9.3384,93,0.9535,0,-3.7064,68.8962,25,0.7174,7813,4.0227,-185.9876
rg,1625145799950855678,1,0.3,0.8994,0.3787,750,4.6997,4.4556,-10.0708,93,0.9515,0,-3.7933,69.0028,25,0.7174,9187,4.0227,-185.9581
rg,1625145799950873066,1,0.2932,0.9023,0.3816,751,4.5166,7.1411,-11.0474,93,0.9545,0,-3.7859,69.0886,25,0.7204,9541,4.0227,-185.8405
rg,1625145799950890417,1,0.2827,0.9104,0.3811,752,4.0894,8.3008,-11.5967,93,0.9535,0,-3.7104,69.1556,25,0.7194,8000,4.0227,-185.6865
rg,1625145799950907620,1,0.2698,0.9099,0.3909,753,3.8452,9.2773,-12.2681,93,0.9535,0,-3.5759,69.1918,25,0.7184,7873,4.0227,-185.5037
rg,1625145799950924712,1,0.27,0.9111,0.3955,754,4.9438,8.1787,-11.5967,93,0.9525,0,-3.4862,69.2644,25,0.7194,11408,4.0227,-185.3519
rg,1625145799950941063,1,0.2668,0.9038,0.3875,755,5.127,7.8735,-12.2681,93,0.9525,0,-3.3782,69.353,25,0.7194,7913,4.0227,-185.2208
rg,1625145799950957062,1,0.2666,0.9048,0.3926,756,5.5542,7.5073,-12.2681,93,0.9535,0,-3.2854,69.4666,25,0.7194,8080,4.0227,-185.1514
rg,1625145799950972821,1,0.261,0.9038,0.3906,757,5.9814,5.6152,-10.8643,93,0.9535,0,-3.2564,69.5788,25,0.7194,7977,4.0227,-185.0832
rg,1625145799950989320,1,0.2598,0.8987,0.3838,758,5.0049,1.77,-11.2915,93,0.9535,0,-3.2669,69.6659,25,0.7204,8153,4.0227,-185.165
rg,1625145799951006430,1,0.313,0.908,0.3809,759,4.8218,3.1738,-10.437,93,0.9535,0,-3.3962,69.7541,25,0.7204,8441,4.0227,-185.1819
rg,1625145799951023244,1,0.2949,0.9077,0.3831,760,5.3101,6.1646,-11.1084,93,0.9545,0,-3.3642,69.8399,25,0.7204,8707,4.0227,-185.0938
rg,1625145799951039614,1,0.2668,0.8967,0.3879,761,5.0659,6.6528,-12.2681,93,0.9495,0,-3.2824,69.8994,25,0.7194,8076,4.0227,-185.0015
rg,1625145799951076316,1,0.3005,0.9089,0.3835,762,4.7607,4.6387,-11.3525,93,0.9545,0,-3.3302,69.9687,25,0.7214,8274,4.0227,-184.9732
rg,1625145799951099963,1,0.3049,0.9158,0.384,763,4.2725,6.1646,-11.4136,93,0.9535,0,-3.3312,69.9922,25,0.7214,8146,4.0227,-184.8862
rg,1625145799951117240,1,0.28,0.9102,0.3904,764,4.0283,9.4604,-12.2681,93,0.9515,0,-3.233,70.0054,25,0.7194,8275,4.0227,-184.6867
rg,1625145799951134721,1,0.2661,0.9104,0.3943,765,3.7842,9.3994,-12.5122,93,0.9535,0,-3.1004,70.0008,25,0.7204,8162,4.0227,-184.4926
rg,1625145799951151516,1,0.2656,0.908,0.3989,766,3.6621,9.5825,-13.4888,93,0.9535,0,-2.9427,69.9696,25,0.7214,8333,4.0227,-184.3245
rg,1625145799951168034,1,0.27,0.9128,0.3914,767,3.54,8.9111,-12.146,93,0.9515,0,-2.8491,69.9665,25,0.7194,8203,4.0227,-184.1455
rg,1625145799951185589,1,0.2869,0.9089,0.3899,768,2.1973,8.1177,-12.3291,93,0.9545,0,-2.8003,69.9118,25,0.7204,8415,4.0227,-183.9989
rg,1625145800302439082,1,0.2891,0.9028,0.3882,769,1.0986,10.8032,-13.5498,93,0.9535,0,-2.6733,69.7963,25,0.7204,27496,4.0227,-183.7467
rg,1625145800302509468,1,0.2886,0.9011,0.3945,770,0.1221,10.7422,-13.1226,93,0.9535,0,-2.5718,69.6456,25,0.7214,8578,4.0227,-183.5141
rg,1625145800302530393,1,0.2849,0.9011,0.4077,771,0.8545,11.4746,-13.3667,93,0.9535,0,-2.4437,69.5026,25,0.7214,7734,4.0227,-183.2583
rg,1625145800302550448,1,0.2793,0.9004,0.4006,772,0.3662,11.7188,-13.0005,93,0.9535,0,-2.3206,69.359,25,0.7214,7684,4.0227,-182.9912
rg,1625145800302583724,1,0.2803,0.8987,0.4011,773,1.0376,11.7798,-13.7329,93,0.9535,0,-2.1744,69.2353,25,0.7214,7890,4.0227,-182.7337
rg,1625145800302603224,1,0.2788,0.8975,0.4087,774,-0.1221,11.7798,-14.3433,93,0.9535,0,-2.0082,69.0656,25,0.7214,7734,4.0227,-182.4867
rg,1625145800302622408,1,0.2725,0.8933,0.4102,775,1.0376,11.4136,-13.1836,93,0.9535,0,-1.8848,68.9422,25,0.7214,8146,4.0227,-182.2395
rg,1625145800302641574,1,0.2695,0.8938,0.4111,776,0.6714,11.5356,-13.6108,93,0.9535,0,-1.7771,68.7977,25,0.7214,7777,4.0227,-182.0108
rg,1625145800302659036,1,0.269,0.8953,0.4158,777,0.6104,10.1929,-13.7329,93,0.9535,0,-1.649,68.6606,25,0.7214,7984,4.0227,-181.8208
rg,1625145800302676369,1,0.2664,0.8982,0.4084,778,0.7324,9.3384,-13.855,93,0.9535,0,-1.5279,68.5524,25,0.7214,8572,4.0227,-181.667
rg,1625145800302751755,1,0.2642,0.8938,0.4128,779,0.061,10.1929,-15.1978,93,0.9535,0,-1.3455,68.4087,25,0.7214,7750,4.0227,-181.5022
rg,1625145800302778439,1,0.261,0.8948,0.4033,780,-0.6104,9.3994,-13.855,93,0.9535,0,-1.2261,68.2645,25,0.7214,7751,4.0227,-181.3502
rg,1625145800302796290,1,0.2668,0.8972,0.4065,781,-0.4883,8.8501,-12.8784,93,0.9535,0,-1.1817,68.1173,25,0.7214,7777,4.0227,-181.2058
rg,1625145800302813011,1,0.2881,0.8984,0.4033,782,-0.4272,8.9111,-13.855,93,0.9525,0,-1.1296,67.9964,25,0.7204,7958,4.0227,-181.0756
rg,1625145800302832140,1,0.283,0.8896,0.4001,783,-1.1597,10.7422,-14.1602,93,0.9545,0,-1.0355,67.8483,25,0.7214,7843,4.0227,-180.8835
rg,1625145800302851750,1,0.2842,0.8914,0.4087,784,-1.1597,10.7422,-13.9771,93,0.9545,0,-0.9049,67.6907,25,0.7224,7814,4.0227,-180.7106
rg,1625145800302869324,1,0.2788,0.8899,0.4106,785,-0.7935,10.8032,-14.6484,93,0.9525,0,-0.7883,67.5485,25,0.7214,8143,4.0227,-180.5276
rg,1625145800302885990,1,0.2708,0.8894,0.4065,786,-0.3662,10.9253,-14.6484,93,0.9535,0,-0.6584,67.437,25,0.7224,7872,4.0227,-180.3423
rg,1625145800302903674,1,0.2715,0.886,0.4089,787,0.3662,9.9487,-14.0381,93,0.9545,0,-0.5891,67.3567,25,0.7224,7900,4.0227,-180.1852
rg,1625145800302921155,1,0.2776,0.8843,0.4136,788,0.1221,10.0098,-13.1836,93,0.9535,0,-0.5489,67.2676,25,0.7204,10253,4.0227,-180.0139
rg,1625145800302938636,1,0.2766,0.8901,0.4111,789,0.6104,10.7422,-13.2446,93,0.9515,0,-0.4925,67.1978,25,0.7214,8520,4.0227,-179.8176
rg,1625145800302955228,1,0.2727,0.8899,0.4038,790,0.7935,10.5591,-14.4653,93,0.9535,0,-0.3897,67.1531,25,0.7224,7968,4.0227,-179.6478
rg,1625145800302972412,1,0.2805,0.894,0.4055,791,1.2817,10.6812,-13.855,93,0.9545,0,-0.3507,67.1053,24,0.7234,7996,4.0227,-179.4797
rg,1625145800302989504,1,0.2783,0.8904,0.4128,792,1.0986,11.7188,-14.7095,93,0.9525,0,-0.2356,67.0588,24,0.7214,8004,4.0227,-179.2721
rg,1625145800303006892,1,0.2729,0.8887,0.4158,793,1.0376,11.1084,-13.3057,93,0.9545,0,-0.1747,67.0043,24,0.7234,8224,4.0227,-179.0661
rg,1625145800303038502,1,0.2698,0.8938,0.4097,794,1.0986,11.1084,-13.7939,93,0.9545,0,-0.0928,66.9644,24,0.7224,8053,4.0227,-178.8806
rg,1625145800303059131,1,0.2725,0.8916,0.4163,795,0.7324,10.0098,-13.4888,93,0.9525,0,-0.0448,66.9036,25,0.7214,8098,4.0227,-178.7192
rg,1625145800303075297,1,0.2822,0.8989,0.4087,796,0.2441,10.2539,-12.8174,93,0.9545,0,-0.0375,66.8479,25,0.7224,8084,4.0227,-178.5391
rg,1625145800303091889,1,0.2705,0.8931,0.4104,797,0.4272,10.3149,-13.4888,93,0.9545,0,0.0422,66.7586,25,0.7224,8113,4.0227,-178.3708
rg,1625145800303109332,1,0.2778,0.8916,0.4143,798,-0.7324,9.8877,-13.3667,93,0.9525,0,0.0677,66.6516,25,0.7214,8184,4.0227,-178.2145
rg,1625145800303126943,1,0.2715,0.8921,0.4111,799,-0.4883,10.8643,-13.6108,93,0.9555,0,0.1295,66.5654,25,0.7214,8198,4.0227,-178.0274
rg,1625145800303144294,1,0.2749,0.8887,0.4121,800,-0.2441,10.498,-13.7939,93,0.9545,0,0.1815,66.4873,25,0.7224,8231,4.0227,-177.8577
rg,1625145800651057507,1,0.2576,0.8921,0.418,801,-0.8545,10.437,-14.1602,83,0.9535,0,0.2833,66.3789,25,0.7224,24883,4.0282,-177.6973
rg,1625145800651096024,1,0.2795,0.8848,0.4187,802,-0.6104,7.6904,-13.6108,83,0.9535,0,0.2686,66.2762,25,0.7224,14518,4.0282,-177.63
rg,1625145800651117041,1,0.2703,0.8948,0.4133,803,-0.061,8.8501,-14.3433,83,0.9535,0,0.3163,66.21,25,0.7234,7652,4.0282,-177.5116
rg,1625145800651135985,1,0.2632,0.8943,0.417,804,-0.4272,9.1553,-14.4043,83,0.9535,0,0.3912,66.1336,25,0.7234,7677,4.0282,-177.4053
rg,1625145800651153281,1,0.2793,0.8855,0.4192,805,-0.3662,9.0332,-15.4419,83,0.9545,0,0.462,66.05,25,0.7234,7707,4.0282,-177.3211
rg,1625145800651169558,1,0.2751,0.8899,0.416,806,-1.0376,9.5825,-14.7705,83,0.9535,0,0.5247,65.9537,25,0.7234,9358,4.0282,-177.2071
rg,1625145800651185909,1,0.2722,0.887,0.4175,807,-1.4648,10.0098,-14.5874,83,0.9555,0,0.5806,65.8241,25,0.7234,7922,4.0282,-177.0799
rg,1625145800651225407,1,0.2712,0.8862,0.4253,808,-0.2441,8.9111,-13.1226,83,0.9515,0,0.5767,65.746,25,0.7224,7744,4.0282,-176.9665
rg,1625145800651244443,1,0.2681,0.8857,0.4272,809,-0.7935,10.5591,-15.1367,83,0.9535,0,0.6801,65.645,25,0.7234,7753,4.0282,-176.8268
rg,1625145800651262276,1,0.2676,0.8896,0.4246,810,-0.9766,10.2539,-15.4419,83,0.9535,0,0.7881,65.5496,25,0.7224,7777,4.0282,-176.7044
rg,1625145800651279535,1,0.2654,0.8838,0.4238,811,-0.4272,10.0708,-15.3198,83,0.9545,0,0.8863,65.4759,25,0.7224,7808,4.0282,-176.588
rg,1625145800651296275,1,0.2683,0.8857,0.4207,812,-0.1831,9.3994,-13.855,83,0.9545,0,0.9107,65.4232,25,0.7234,7849,4.0282,-176.4727
rg,1625145800651313144,1,0.2688,0.8872,0.4268,813,0.4883,10.376,-15.4419,83,0.9525,0,1.0091,65.3886,25,0.7224,7860,4.0282,-176.3489
rg,1625145800651329884,1,0.2664,0.8896,0.4243,814,0.7935,9.4604,-14.7705,83,0.9555,0,1.07,65.3746,25,0.7244,7863,4.0282,-176.2477
rg,1625145800651347032,1,0.262,0.8833,0.4277,815,0.6714,10.437,-15.1367,83,0.9545,0,1.1372,65.309,25,0.7234,7829,4.0282,-176.1354
rg,1625145800651363198,1,0.2661,0.8894,0.429,816,0.6104,9.5215,-15.0757,83,0.9535,0,1.2069,65.2813,25,0.7224,7855,4.0282,-176.0382
rg,1625145800651379938,1,0.2688,0.8877,0.4333,817,0.061,9.3994,-14.7095,83,0.9545,0,1.2534,65.2225,25,0.7224,7917,4.0282,-175.9399
rg,1625145800651397307,1,0.2654,0.8894,0.4255,818,0.1221,9.1553,-14.4043,83,0.9555,0,1.284,65.1822,25,0.7234,7941,4.0282,-175.8459
rg,1625145800651413566,1,0.2676,0.8899,0.4312,819,0.8545,9.8877,-15.1978,83,0.9545,-0.001,1.3565,65.1657,25,0.7224,7956,4.0282,-175.739
rg,1625145800651431102,1,0.2559,0.8875,0.4253,820,0.4272,9.3384,-15.564,83,0.9545,0,1.4522,65.1416,25,0.7234,7993,4.0282,-175.6584
rg,1625145800651448083,1,0.2576,0.8923,0.429,821,0.2441,8.3618,-15.2588,83,0.9525,0,1.5165,65.1077,25,0.7224,7992,4.0282,-175.6086
rg,1625145800651464657,1,0.2563,0.8867,0.4297,822,0.9155,7.5073,-14.2822,83,0.9555,0,1.5288,65.0947,25,0.7224,8073,4.0282,-175.574
rg,1625145800651492767,1,0.262,0.8879,0.4299,823,1.0376,6.897,-14.7095,83,0.9535,0,1.535,65.0871,25,0.7244,8092,4.0282,-175.5689
rg,1625145800651510525,1,0.2542,0.8826,0.4285,824,1.0986,6.897,-14.6484,83,0.9545,0,1.552,65.0799,25,0.7234,11615,4.0282,-175.563
rg,1625145800651527043,1,0.2859,0.8911,0.4214,825,1.0376,5.7373,-14.8926,83,0.9545,0,1.4951,65.092,25,0.7234,8256,4.0282,-175.6026
rg,1625145800651543264,1,0.2874,0.8879,0.4226,826,0.9766,6.4697,-14.2822,83,0.9545,0,1.458,65.0983,25,0.7234,8479,4.0282,-175.5474
rg,1625145800651559245,1,0.282,0.8899,0.4226,827,0.3052,9.0942,-15.564,83,0.9545,0,1.4926,65.0797,25,0.7234,8346,4.0282,-175.4761
rg,1625145800651681185,1,0.2788,0.884,0.4294,828,0.3662,9.8877,-15.8081,83,0.9545,0,1.5531,65.0457,25,0.7234,8186,4.0282,-175.3808
rg,1625145800651707924,1,0.2742,0.8862,0.4294,829,-0.1831,10.5591,-14.6484,83,0.9575,0,1.5913,64.9943,25,0.7234,8632,4.0282,-175.2422
rg,1625145800651726757,1,0.2681,0.886,0.4304,830,-0.2441,10.376,-14.0991,83,0.9555,0,1.6962,64.974,25,0.7234,8759,4.0282,-175.0984
rg,1625145800651744071,1,0.2549,0.8848,0.4355,831,-0.061,10.5591,-15.0757,83,0.9535,0,1.7851,64.9165,25,0.7224,8285,4.0282,-174.9684
rg,1625145800651827827,1,0.2603,0.887,0.429,832,-0.3662,10.437,-15.8081,83,0.9545,0,1.8836,64.8641,25,0.7224,8311,4.0282,-174.8553
rg,1625145801003020774,1,0.2576,0.8843,0.4265,833,-0.061,9.7656,-14.0381,83,0.9545,0,1.9068,64.8392,25,0.7234,24949,4.0282,-174.7457
rg,1625145801003060550,1,0.2598,0.8872,0.4326,834,0.2441,9.7046,-13.916,83,0.9545,0,1.9163,64.8082,25,0.7234,15640,4.0282,-174.6284
rg,1625145801003081031,1,0.2627,0.8882,0.436,835,-0.1221,10.2539,-15.1978,83,0.9545,0,1.9819,64.757,25,0.7234,7610,4.0282,-174.5134
rg,1625145801003100364,1,0.2617,0.8857,0.4365,836,0.9766,9.2163,-14.3433,83,0.9545,0,1.9978,64.7476,25,0.7234,7688,4.0282,-174.4222
rg,1625145801003118863,1,0.2585,0.886,0.4419,837,0.6104,9.7046,-14.7705,83,0.9545,0,2.0446,64.7139,25,0.7234,7681,4.0282,-174.3212
rg,1625145801003159861,1,0.2507,0.8801,0.4399,838,0.7324,10.0098,-15.2588,83,0.9545,0,2.1256,64.6845,25,0.7244,7721,4.0282,-174.2179
rg,1625145801003179434,1,0.2424,0.8816,0.4412,839,1.0376,7.6904,-14.7095,83,0.9545,0,2.1626,64.6645,25,0.7234,9390,4.0282,-174.1897
rg,1625145801003197137,1,0.2456,0.8865,0.4316,840,0.9766,6.2866,-13.3667,83,0.9535,0,2.1195,64.6659,25,0.7234,7732,4.0282,-174.1889
rg,1625145801003214137,1,0.2686,0.8838,0.4299,841,1.0986,5.9204,-13.9771,83,0.9545,0,2.0446,64.6723,25,0.7234,7846,4.0282,-174.2116
rg,1625145801003230599,1,0.2717,0.886,0.4331,842,0.7324,6.897,-12.6953,83,0.9545,0,1.9381,64.6616,25,0.7244,7741,4.0282,-174.177
rg,1625145801003246987,1,0.2744,0.8872,0.4324,843,1.0986,8.667,-14.8315,83,0.9545,0,1.9377,64.6696,25,0.7234,7907,4.0282,-174.1147
rg,1625145801003263135,1,0.2703,0.8867,0.425,844,0.7324,9.3994,-15.1367,83,0.9535,0,1.9673,64.6776,25,0.7224,10038,4.0282,-174.0304
rg,1625145801003279282,1,0.2668,0.8911,0.4312,845,-0.1831,10.9863,-14.7095,83,0.9545,0,2.0178,64.6429,25,0.7234,7940,4.0282,-173.8816
rg,1625145801003296374,1,0.2612,0.8904,0.4304,846,0.2441,11.3525,-15.625,83,0.9545,0,2.1167,64.6275,25,0.7234,11842,4.0282,-173.7356
rg,1625145801003313429,1,0.2585,0.8901,0.4319,847,0,10.0098,-14.2212,83,0.9545,0,2.1442,64.5989,25,0.7234,7836,4.0282,-173.6146
rg,1625145801003330613,1,0.2559,0.8918,0.4329,848,0.1831,11.2305,-16.4185,83,0.9545,0,2.2853,64.5567,25,0.7234,7822,4.0282,-173.4881
rg,1625145801003347261,1,0.2539,0.8896,0.4319,849,0.6714,10.1318,-14.3433,83,0.9555,0,2.3224,64.5577,25,0.7234,7927,4.0282,-173.3657
rg,1625145801003363631,1,0.2625,0.8911,0.4395,850,-0.5493,10.7422,-14.4653,83,0.9545,0,2.3577,64.4971,25,0.7234,7970,4.0282,-173.2237
rg,1625145801003380908,1,0.262,0.8909,0.438,851,-0.5493,11.1084,-14.3433,83,0.9545,0,2.3942,64.4422,25,0.7234,7907,4.0282,-173.067
rg,1625145801003397351,1,0.2634,0.8875,0.4348,852,-0.6714,10.8643,-15.5029,83,0.9545,0,2.4616,64.3864,25,0.7234,8513,4.0282,-172.9395
rg,1625145801003424665,1,0.2588,0.8914,0.4314,853,-0.6104,11.6577,-16.0522,83,0.9555,0,2.5706,64.3468,25,0.7244,7988,4.0282,-172.793
rg,1625145801003442257,1,0.2585,0.8916,0.439,854,-0.7935,10.7422,-14.7705,83,0.9555,0,2.625,64.2883,25,0.7234,7993,4.0282,-172.6586
rg,1625145801003458553,1,0.2551,0.8909,0.4392,855,-1.0986,11.5356,-15.5029,83,0.9525,0,2.7152,64.2175,25,0.7234,8027,4.0282,-172.509
rg,1625145801003474793,1,0.2534,0.8882,0.4402,856,-1.9531,11.6577,-15.1978,83,0.9565,0,2.7959,64.1113,25,0.7244,8054,4.0282,-172.3508
rg,1625145801003490644,1,0.2605,0.887,0.4395,857,-1.77,11.7188,-15.2588,83,0.9555,0,2.8541,64.0171,25,0.7244,8226,4.0282,-172.1925
rg,1625145801003506495,1,0.2683,0.8882,0.4426,858,-1.9531,11.2915,-14.7705,83,0.9535,0,2.8785,63.9138,25,0.7224,8276,4.0282,-172.0425
rg,1625145801003522791,1,0.262,0.8835,0.4446,859,-2.6855,12.6343,-14.6484,83,0.9545,0,2.9325,63.7793,25,0.7234,8321,4.0282,-171.8435
rg,1625145801003634619,1,0.262,0.8892,0.4478,860,-2.3804,13.0005,-14.2212,83,0.9545,0,3.0219,63.6577,25,0.7244,8156,4.0282,-171.6273
rg,1625145801003655026,1,0.2561,0.8821,0.4492,861,-1.8921,13.6719,-14.5874,83,0.9535,0,3.0999,63.5565,25,0.7224,8360,4.0282,-171.3934
rg,1625145801003673673,1,0.2542,0.8855,0.45,862,-1.709,14.2212,-15.0757,83,0.9555,0,3.2082,63.4693,25,0.7234,8186,4.0282,-171.1496
rg,1625145801003691358,1,0.2512,0.8857,0.4553,863,-2.3804,14.0381,-14.4043,83,0.9545,0,3.2929,63.349,25,0.7234,8391,4.0282,-170.9021
rg,1625145801003782521,1,0.2495,0.884,0.4543,864,-2.3193,14.0381,-15.3809,83,0.9555,0,3.4123,63.2352,25,0.7244,8998,4.0282,-170.6735
rg,1625145801355062066,1,0.2407,0.8833,0.447,865,-2.6855,14.4653,-16.0522,83,0.9545,0,3.5753,63.1256,25,0.7234,25216,4.0282,-170.4421
rg,1625145801355133100,1,0.2432,0.8857,0.4514,866,-2.1973,13.4888,-15.1978,83,0.9555,0,3.6816,63.0328,25,0.7244,15194,4.0282,-170.232
rg,1625145801355154655,1,0.2466,0.8877,0.449,867,-2.5024,12.8784,-14.4043,83,0.9555,0,3.7382,62.9379,25,0.7244,7746,4.0282,-170.03
rg,1625145801355222189,1,0.249,0.8896,0.4578,868,-3.1128,13.1226,-15.8081,83,0.9555,0,3.8523,62.8021,25,0.7244,7816,4.0282,-169.847
rg,1625145801355243652,1,0.2476,0.8948,0.459,869,-3.54,13.2446,-15.564,83,0.9555,0,3.9488,62.6532,25,0.7234,9897,4.0282,-169.6569
rg,1625145801355262058,1,0.2471,0.8909,0.4629,870,-4.3335,13.4277,-15.1367,83,0.9555,0,4.0362,62.4768,25,0.7234,7838,4.0282,-169.4543
rg,1625145801355279558,1,0.2524,0.8918,0.4622,871,-4.4556,14.0991,-15.5029,83,0.9555,0,4.1355,62.3061,25,0.7234,7740,4.0282,-169.2364
rg,1625145801355297020,1,0.2524,0.8877,0.4641,872,-4.5166,13.7939,-14.8926,83,0.9555,0,4.1979,62.1004,25,0.7244,7846,4.0282,-169.0148
rg,1625145801355314427,1,0.2371,0.8843,0.4678,873,-5.0049,14.8315,-15.1367,83,0.9555,0,4.3226,61.9063,25,0.7234,7815,4.0282,-168.7698
rg,1625145801355331426,1,0.2344,0.8809,0.4636,874,-4.9438,12.6953,-14.4653,83,0.9535,0,4.383,61.7222,25,0.7224,9425,4.0282,-168.5896
rg,1625145801355348166,1,0.2402,0.8792,0.4636,875,-3.7231,13.2446,-14.7095,83,0.9555,0,4.4477,61.5934,25,0.7244,7810,4.0282,-168.3965
rg,1625145801355371869,1,0.2415,0.8772,0.4688,876,-3.8452,12.5122,-13.3667,83,0.9565,0,4.4473,61.4525,25,0.7244,8139,4.0282,-168.206
rg,1625145801355391053,1,0.2434,0.8694,0.4788,877,-4.3945,13.916,-15.1367,83,0.9555,0,4.5311,61.2685,25,0.7234,8085,4.0282,-168.0033
rg,1625145801355407904,1,0.2283,0.8767,0.4705,878,-3.6621,14.5264,-15.9912,83,0.9555,0,4.6862,61.1455,25,0.7244,7938,4.0282,-167.7956
rg,1625145801355424552,1,0.2241,0.8784,0.4695,879,-3.2349,13.7939,-15.1367,83,0.9545,0,4.801,61.0477,25,0.7234,7887,4.0282,-167.5983
rg,1625145801355441459,1,0.2434,0.8757,0.4678,880,-3.3569,12.6953,-14.8926,83,0.9565,0,4.8409,60.9466,25,0.7234,8319,4.0282,-167.4357
rg,1625145801355458217,1,0.2434,0.8892,0.469,881,-3.2959,12.5732,-15.3198,83,0.9555,0,4.898,60.8624,25,0.7224,8421,4.0282,-167.2858
rg,1625145801355474439,1,0.2312,0.8848,0.4697,882,-4.3335,14.9536,-16.8457,83,0.9555,0,5.0757,60.7391,25,0.7244,8026,4.0282,-167.0834
rg,1625145801355514956,1,0.2278,0.8914,0.4731,883,-3.7842,14.2212,-15.3198,83,0.9555,0,5.1901,60.6434,25,0.7244,7979,4.0282,-166.8781
rg,1625145801355535418,1,0.2378,0.8894,0.4766,884,-4.3335,13.916,-16.1743,83,0.9575,0,5.3038,60.5185,25,0.7234,8042,4.0282,-166.7019
rg,1625145801355553603,1,0.2461,0.8938,0.4749,885,-5.127,14.4043,-15.2588,83,0.9555,0,5.3762,60.3781,25,0.7254,7998,4.0282,-166.4911
rg,1625145801355572250,1,0.2507,0.8918,0.4773,886,-5.3711,14.6484,-15.7471,83,0.9575,0,5.4585,60.2265,25,0.7244,8117,4.0282,-166.2835
rg,1625145801355591157,1,0.2546,0.8984,0.4817,887,-5.7983,15.7471,-17.0898,83,0.9575,0,5.6024,60.0634,25,0.7234,8056,4.0282,-166.0659
rg,1625145801355609193,1,0.2478,0.8926,0.4863,888,-6.7139,17.2119,-16.4185,83,0.9565,0,5.7597,59.8618,25,0.7244,8167,4.0282,-165.7871
rg,1625145801355626803,1,0.2327,0.896,0.4893,889,-6.5918,17.2729,-15.9912,83,0.9565,0,5.9307,59.6726,25,0.7254,8095,4.0282,-165.5002
rg,1625145801355644192,1,0.2339,0.9033,0.4829,890,-7.019,16.6016,-15.8691,83,0.9535,0,6.0777,59.4919,25,0.7234,8191,4.0282,-165.234
rg,1625145801355662098,1,0.2314,0.8928,0.4885,891,-7.019,17.2729,-15.2588,83,0.9565,0,6.2145,59.3007,25,0.7244,8199,4.0282,-164.9363
rg,1625145801355678579,1,0.2249,0.8953,0.4888,892,-7.6294,17.2729,-14.8926,83,0.9565,0,6.3785,59.0986,25,0.7244,8270,4.0282,-164.6257
rg,1625145801355696838,1,0.2231,0.8938,0.4897,893,-7.3853,18.7988,-15.7471,83,0.9545,0,6.5711,58.9128,25,0.7234,8231,4.0282,-164.2893
rg,1625145801355715281,1,0.2144,0.8821,0.4897,894,-8.0566,18.1274,-15.625,83,0.9555,0,6.7531,58.6934,25,0.7234,8704,4.0282,-163.9768
rg,1625145801355732244,1,0.2178,0.8743,0.4932,895,-8.0566,17.8833,-14.3433,83,0.9575,0,6.8715,58.47,25,0.7254,8278,4.0282,-163.6499
rg,1625145801355748965,1,0.2166,0.8799,0.5034,896,-8.1787,18.6768,-15.0146,83,0.9555,0,7.0327,58.2389,25,0.7244,8421,4.0282,-163.3136
rg,1625145801709534942,1,0.2073,0.8655,0.4976,897,-8.1787,20.0195,-15.7471,83,0.9565,0,7.2548,58.0168,25,0.7244,25270,4.0282,-162.9496
rg,1625145801709601217,1,0.2153,0.8616,0.5095,898,-7.6294,16.7236,-15.1978,83,0.9565,0,7.3662,57.7854,25,0.7244,14926,4.0282,-162.6924
rg,1625145801709624068,1,0.188,0.8533,0.5171,899,-7.9346,18.7378,-15.564,83,0.9555,0,7.5849,57.535,25,0.7244,9605,4.0282,-162.3799
rg,1625145801709643808,1,0.1831,0.8508,0.5198,900,-8.2397,17.1509,-14.4653,83,0.9565,0,7.7252,57.2601,25,0.7244,7794,4.0282,-162.1027
