name,time,activity,ax,ay,az,batch_val,gx,gy,gz,ibat,index,middle,pitch,roll,temp,thumb,ts,vbat,yaw
rg,1625112511090652785,1,-0.5664,-0.2515,0.8606,1,6.958,12.6343,-7.6904,62,1.0875,0,43.7255,-8.4477,25,0.6463,19468,4.0403,-152.6684
rg,1625112511091138785,1,-0.5696,-0.2463,0.8655,2,7.4463,12.085,-7.2021,62,1.0895,0,43.708,-8.8335,25,0.6463,8478,4.0403,-153.4012
rg,1625112511091173656,1,-0.5579,-0.2427,0.8704,3,7.9956,13.0615,-7.3853,62,1.0895,0,43.7015,-9.2119,25,0.6473,8004,4.0403,-154.16
rg,1625112511091195989,1,-0.5627,-0.2346,0.8735,4,8.3618,13.5498,-7.5073,62,1.0865,0,43.7147,-9.5137,25,0.6463,7952,4.0403,-154.8792
rg,1625112511091225396,1,-0.5671,-0.2366,0.866,5,7.9956,14.8315,-8.3008,62,1.0895,0,43.7851,-9.8677,25,0.6483,7905,4.0403,-155.6554
rg,1625112511091256804,1,-0.5693,-0.2417,0.8645,6,8.728,15.4419,-9.5215,62,1.0895,0,43.8236,-10.1618,25,0.6483,7949,4.0403,-156.3873
rg,1625112511091284082,1,-0.572,-0.2273,0.8608,7,8.8501,14.0381,-8.606,62,1.0875,0,43.8666,-10.4414,25,0.6473,7979,4.0403,-157.1444
rg,1625112511091302063,1,-0.5605,-0.2266,0.8572,8,7.8735,13.855,-8.2397,62,1.0895,0,43.8847,-10.7361,25,0.6483,8477,4.0403,-157.8753
rg,1625112511091323248,1,-0.4565,-0.3782,0.675,9,55.4199,9.5215,-31.0059,143,1.0525,0,43.5629,-10.6229,25,0.6213,14581,3.9831,-160.2661
rg,1625112511091345415,1,-0.4976,-0.3943,0.7183,10,40.8325,-4.9438,-25.9399,143,1.0535,0,42.2091,-10.6114,25,0.6233,8020,3.9831,-161.475
rg,1625112511091376007,1,-0.5088,-0.2754,0.707,11,14.8926,-41.8091,-10.498,143,1.0545,0,40.1789,-10.5718,25,0.6273,7839,3.9831,-161.9266
rg,1625112511091394822,1,-0.2852,-0.4756,0.863,12,-15.7471,-63.2935,7.6294,143,1.0585,0,36.9019,-11.441,25,0.6353,7841,3.9831,-161.4813
rg,1625112511091417582,1,-0.1184,-0.4929,0.8621,13,-19.5312,-67.9321,16.6016,143,1.0585,-0.001,32.9923,-12.0832,25,0.6413,7842,3.9831,-160.4309
rg,1625112511091440452,1,0.2195,-0.4304,0.8281,14,-36.438,-57.0068,27.9541,143,1.0585,0,29.4231,-13.2427,25,0.6463,8365,3.9831,-158.9245
rg,1625112511091469619,1,0.2949,-0.5596,0.8965,15,-55.1147,-3.8452,28.6255,143,1.0565,0,28.0009,-15.5904,25,0.6483,7927,3.9831,-157.9759
rg,1625112511091498563,1,-0.0024,-0.4924,0.8562,16,-65.4907,36.0107,23.4985,143,1.0525,0,28.6088,-18.5617,25,0.6473,7899,3.9831,-157.7074
rg,1625112511091519952,1,-0.1252,-0.5139,0.8625,17,-70.6787,41.1987,21.3013,143,1.0385,0,29.6222,-21.7765,25,0.6413,7932,3.9831,-157.6805
rg,1625112511091931155,1,-0.2693,-0.4849,0.9851,18,-73.4253,31.9824,17.5781,143,1.0365,0,30.4434,-24.8021,25,0.6413,7936,3.9831,-157.5975
rg,1625112511091968526,1,0.2009,-0.5789,0.7014,19,-50.354,28.5645,21.8506,143,1.0355,0,30.2707,-25.7483,25,0.6453,7998,3.9831,-157.4198
rg,1625112511091992989,1,-0.1758,-0.3464,0.7585,20,-26.123,45.4102,4.3335,143,1.0335,0,31.2447,-27.112,25,0.6463,8569,3.9831,-158.1436
rg,1625112511092013970,1,-0.4768,-0.7419,0.9094,21,-15.686,35.3394,-0.4272,143,1.0355,0,32.1324,-28.6621,25,0.6483,7966,3.9831,-159.2038
rg,1625112511092034359,1,-0.1692,-0.583,0.7961,22,-5.8594,-3.9062,-2.4414,143,1.0365,0,31.0879,-29.2363,25,0.6513,8312,3.9831,-159.3918
rg,1625112511092055618,1,-0.1184,-0.6033,0.8186,23,-5.7983,-2.6245,-6.0425,143,1.0365,0,30.2453,-30.0019,25,0.6523,8479,3.9831,-160.0278
rg,1625112511092084433,1,-0.2136,-0.5356,0.7844,24,-10.437,10.0708,-9.3384,143,1.0355,0,29.7129,-30.9031,25,0.6533,8773,3.9831,-160.7245
rg,1625112511092104766,1,-0.2766,-0.5657,0.7698,25,-17.395,7.4463,-12.7563,143,1.0335,0,29.1639,-32.154,25,0.6553,8728,3.9831,-161.5109
rg,1625112511092121581,1,-0.3672,-0.6182,0.8044,26,-22.522,-2.0142,-17.7002,143,1.0395,0,28.3435,-33.5718,25,0.6583,8001,3.9831,-162.2421
rg,1625112511092149933,1,-0.3687,-0.6934,0.866,27,-23.5596,-10.498,-18.9209,143,1.0405,0,26.8845,-34.7519,25,0.6623,8420,3.9831,-162.5862
rg,1625112511092170359,1,-0.2563,-0.8464,0.9751,28,-11.2305,-21.6675,-15.625,143,1.0415,0,25.2078,-35.4627,25,0.6623,8821,3.9831,-162.7125
rg,1625112511092198785,1,-0.1038,-0.9507,1.0129,29,23.8037,-16.2964,-9.6436,143,1.0455,0,23.649,-34.8135,25,0.6633,8094,3.9831,-162.7911
rg,1625112511092226341,1,0.3071,-0.8909,0.9111,30,68.9697,0.3052,-5.127,143,1.0495,0,22.1864,-32.5395,25,0.6633,8915,3.9831,-163.1729
rg,1625112511092246433,1,0.1914,-0.6707,0.7908,31,81.1157,25.7568,-14.5264,143,1.0535,0,22.3492,-30.2238,25,0.6603,8845,3.9831,-165.3364
rg,1625112511092266081,1,-0.011,-0.6421,0.7717,32,83.7402,75.9277,-29.4189,143,1.0525,0,23.5795,-28.3568,25,0.6543,8534,3.9831,-168.2386
rg,1625112511423253206,1,-0.7627,-0.2085,0.5261,33,36.0107,23.8647,-30.2734,143,1.0565,0,24.9792,-27.4206,25,0.6503,25789,3.9831,-169.8191
rg,1625112511423295502,1,-0.6379,-0.502,0.8162,34,-13.4277,-59.9365,-2.8076,143,1.0605,0,23.1496,-27.6484,25,0.6613,14576,3.9831,-168.7709
rg,1625112511423316058,1,-0.0303,-0.4727,0.8059,35,-30.4565,-94.7266,22.7051,143,1.0615,-0.001,19.4104,-27.9689,25,0.6673,7818,3.9831,-166.0491
rg,1625112511423336724,1,0.3057,-0.6008,0.8833,36,-43.5181,-88.1348,29.3579,143,1.0595,0,15.3703,-29.1577,25,0.6683,7485,3.9831,-163.2887
rg,1625112511423357261,1,0.489,-0.7083,0.9448,37,-57.6172,-26.9165,24.4751,143,1.0535,0,13.5483,-31.3737,25,0.6643,7648,3.9831,-161.9047
rg,1625112511423375947,1,0.1267,-0.5554,0.9114,38,-59.6313,32.4097,14.8315,143,1.0445,0,14.1635,-33.7881,25,0.6593,7763,3.9831,-162.0936
rg,1625112511423394780,1,0.0444,-0.6655,1.2468,39,-42.9077,49.2554,14.6484,143,1.0445,0,14.632,-36.0138,25,0.6643,7667,3.9831,-162.8261
rg,1625112511423412817,1,-0.0859,-0.0608,0.6106,40,9.2773,81.1157,6.1035,143,1.0405,0,17.2113,-34.9375,25,0.6653,7955,3.9831,-164.2827
rg,1625112511423431335,1,-0.6531,-0.655,0.9258,41,0.4272,71.3501,-5.9204,143,1.0435,0,19.8881,-35.5426,25,0.6673,7747,3.9831,-166.2315
rg,1625112511423470447,1,-0.3174,-0.4358,0.7983,42,5.4932,1.9531,-2.8076,143,1.0435,0,19.8612,-35.0895,25,0.6693,9935,3.9831,-166.2798
rg,1625112511423490872,1,-0.0928,-0.5701,0.8711,43,-0.4272,-9.6436,-3.8452,143,1.0445,0,18.8761,-34.985,25,0.6703,7737,3.9831,-166.149
rg,1625112511423508335,1,-0.0811,-0.4485,0.7896,44,-8.5449,6.1035,-12.5122,143,1.0435,0,18.2456,-35.2769,25,0.6713,7676,3.9831,-166.6524
rg,1625112511423525632,1,-0.1973,-0.4768,0.8037,45,-14.8926,13.2446,-15.3198,143,1.0445,0,18.2597,-36.2203,25,0.6733,7746,3.9831,-167.5692
rg,1625112511423556576,1,-0.3345,-0.5671,0.8489,46,-24.5972,2.5024,-19.6533,143,1.0455,0,17.8611,-37.3188,25,0.6763,7795,3.9831,-168.2598
rg,1625112511423575372,1,-0.1853,-0.7422,0.9443,47,-26.6113,-15.3198,-23.0103,143,1.0455,0,16.4528,-38.5121,25,0.6773,7885,3.9831,-168.6278
rg,1625112511423595335,1,-0.1992,-0.7983,0.9773,48,-20.9351,-14.2212,-24.5972,143,1.0465,0,15.155,-39.5218,25,0.6793,8043,3.9831,-169.0632
rg,1625112511423613372,1,-0.2344,-0.8469,0.9951,49,-1.4038,-14.6484,-23.3765,143,1.0445,0,13.9099,-39.6931,25,0.6803,7887,3.9831,-169.4259
rg,1625112511423631724,1,0.0701,-0.9749,1.0132,50,34.9121,-16.3574,-16.2964,143,1.0515,0,12.3384,-38.4848,25,0.6823,7913,3.9831,-169.5673
rg,1625112511423649280,1,0.3179,-0.9021,0.9333,51,57.5562,-1.4038,-13.2446,143,1.0535,0,10.9752,-36.4809,25,0.6793,7989,3.9831,-170.0257
rg,1625112511423666317,1,0.2019,-0.718,0.8215,52,74.4019,55.6641,-31.5552,143,1.0545,0,11.2232,-34.1485,25,0.6743,10090,3.9831,-172.4413
rg,1625112511423684317,1,-0.2122,-0.6799,0.7976,53,72.1436,82.3364,-45.7764,143,1.0575,0,12.9733,-32.2276,25,0.6713,7938,3.9831,-175.901
rg,1625112511423701761,1,-0.8159,-0.2546,0.5479,54,57.6172,65.8569,-42.2974,143,1.0575,0,15.8037,-30.4633,25,0.6703,7940,3.9831,-178.7409
rg,1625112511423719206,1,-1.0874,-0.229,0.5146,55,27.2827,35.2783,-35.6445,143,1.0585,0,17.9534,-29.8335,25,0.6733,7979,3.9831,-180.7234
rg,1625112511423738521,1,-0.803,-0.6633,0.917,56,-9.8877,-64.3921,-11.5356,143,1.0625,0,16.1797,-30.1521,25,0.6783,8094,3.9831,-179.8519
rg,1625112511423757169,1,-0.0706,-0.5002,0.7881,57,-15.625,-115.7837,9.0942,73,1.0615,0,11.9092,-30.1975,25,0.6843,8050,3.9655,-177.1472
rg,1625112511423775021,1,0.2439,-0.5293,0.811,58,-24.5972,-103.3325,18.6768,73,1.0575,0,7.7479,-30.8091,25,0.6843,8041,3.9655,-174.3797
rg,1625112511423793558,1,0.4375,-0.6729,0.8938,59,-40.5884,-40.2222,22.7661,73,1.0505,0,5.7589,-32.4556,25,0.6813,8056,3.9655,-172.7641
rg,1625112511423812187,1,0.1902,-0.4868,0.9626,60,-42.4194,15.3809,16.4795,73,1.0415,0,6.0156,-33.896,25,0.6783,8079,3.9655,-172.5196
rg,1625112511423830076,1,0.3252,-0.761,1.0105,61,-20.5078,37.9639,20.5078,73,1.0405,0,6.9335,-34.8447,25,0.6793,8132,3.9655,-172.7109
rg,1625112511423848261,1,-0.1399,-0.3171,0.6628,62,-10.5591,83.1299,1.5869,73,1.0405,0,9.8339,-35.1677,25,0.6793,8263,3.9655,-174.5462
rg,1625112511423865743,1,-0.5784,-0.4968,0.7595,63,-4.3945,60.73,-2.3804,73,1.0395,0,12.6225,-35.5625,25,0.6813,8193,3.9655,-176.0507
rg,1625112511423975872,1,-0.4668,-0.4067,0.7363,64,-3.0518,25.3906,-2.2583,73,1.0405,0,14.032,-35.5971,25,0.6833,8243,3.9655,-176.6802
rg,1625112511780749712,1,-0.1475,-0.5347,0.8135,65,-19.9585,11.9019,-15.8691,73,1.0425,0,14.0176,-36.7343,25,0.6863,25020,3.9655,-177.6523
rg,1625112511780794082,1,-0.27,-0.7454,0.9226,66,-25.2686,2.5635,-23.5596,73,1.0445,0,13.4767,-38.0187,25,0.6883,10403,3.9655,-178.5049
rg,1625112511780815452,1,-0.2693,-0.821,0.9702,67,-19.165,-1.4038,-25.0854,73,1.0455,0,12.5886,-38.7762,25,0.6903,7692,3.9655,-179.1565
rg,1625112511780835304,1,-0.2048,-0.8506,0.9829,68,-2.6245,-13.0615,-25.0854,73,1.0475,0,11.408,-39.051,25,0.6923,7673,3.9655,-179.6331
rg,1625112511780873545,1,-0.0479,-0.8259,0.9578,69,27.8931,-11.7798,-25.3906,73,1.0505,0,10.0426,-38.0933,25,0.6933,7687,3.9655,-180.1559
rg,1625112511780893045,1,0.2688,-0.7812,0.8521,70,58.1665,15.5029,-21.1182,73,1.0525,0,9.1341,-36.117,25,0.6923,8517,3.9655,-181.2647
rg,1625112511780912786,1,0.2273,-0.7461,0.8359,71,65.4907,39.3677,-28.7476,73,1.0545,0,9.8007,-33.9835,25,0.6883,8230,3.9655,-184.0341
rg,1625112511780931656,1,-0.1213,-0.6782,0.7825,72,69.9463,73.6694,-43.5791,73,1.0555,0,11.1886,-32.0311,25,0.6823,7687,3.9655,-187.2032
rg,1625112511780949804,1,-0.3042,-0.6438,0.7646,73,67.5049,70.1904,-46.1426,73,1.0545,0,12.8541,-30.2877,25,0.6763,7716,3.9655,169.6398
rg,1625112511781015286,1,-0.4468,-0.51,0.7271,74,65.3687,62.9883,-45.9595,73,1.0525,0,14.6773,-28.5402,25,0.6703,7788,3.9655,166.6882
rg,1625112511781037267,1,-0.8599,-0.2139,0.5325,75,31.4941,28.8086,-35.5225,73,1.0565,0,16.5256,-27.6254,25,0.6723,8029,3.9655,164.8779
rg,1625112511781054989,1,-0.6646,-0.5684,0.8816,76,-7.3242,-39.4897,-14.2822,73,1.0585,0,15.4846,-28.0245,25,0.6773,7852,3.9655,165.0713
rg,1625112511781073767,1,-0.4524,-0.5073,0.812,77,-7.019,-65.2466,0.4883,73,1.0585,0,13.5852,-28.1209,25,0.6823,7824,3.9655,166.3244
rg,1625112511781091582,1,-0.0024,-0.3857,0.7493,78,-28.1982,-78.8574,18.2495,73,1.0595,0,10.6425,-28.7415,25,0.6873,7777,3.9655,168.5326
rg,1625112511781109415,1,0.1821,-0.5317,0.824,79,-47.1802,-66.2842,23.4375,73,1.0545,0,8.734,-31.0323,25,0.6863,7930,3.9655,170.2281
rg,1625112511781126860,1,0.1375,-0.5845,0.8296,80,-65.2466,-23.1934,22.2168,73,1.0415,0,7.785,-33.607,25,0.6753,7975,3.9655,171.4781
rg,1625112511781144434,1,0.0466,-0.4077,1.1355,81,-78.125,-4.2725,22.8271,73,1.0365,0,7.7818,-36.0497,25,0.6763,7963,3.9655,-187.5843
rg,1625112511781162489,1,0.5583,-0.9141,0.9526,82,-37.1094,12.8784,34.2407,73,1.0375,0,7.9054,-35.5621,25,0.6793,8023,3.9655,-187.2756
rg,1625112511781180415,1,0.1035,-0.5552,0.7837,83,-30.9448,82.8857,6.4697,73,1.0355,0,10.1644,-37.0558,25,0.6793,8017,3.9655,170.9512
rg,1625112511781198341,1,-0.4458,-0.6177,0.7666,84,2.5635,75.9277,4.6997,73,1.0385,0,13.2383,-37.3607,25,0.6813,8025,3.9655,169.213
rg,1625112511781216008,1,-0.4299,-0.3787,0.6831,85,8.9722,44.1895,-0.3662,73,1.0375,0,14.4615,-37.161,25,0.6823,8019,3.9655,168.4821
rg,1625112511781234471,1,-0.2932,-0.4783,0.7903,86,2.9297,11.2915,-2.3193,73,1.0365,0,14.8883,-36.8924,25,0.6823,7968,3.9655,168.1853
rg,1625112511781252785,1,-0.1028,-0.4814,0.8005,87,-7.9346,-1.2817,-7.9956,73,1.0395,0,14.3154,-37.0194,25,0.6843,8078,3.9655,168.0175
rg,1625112511781275341,1,-0.1179,-0.4521,0.7581,88,-12.207,1.8311,-12.085,73,1.0405,0,13.9377,-37.5701,25,0.6863,8116,3.9655,167.4547
rg,1625112511781337323,1,-0.1704,-0.4526,0.7632,89,-26.4893,4.0894,-20.6909,73,1.0415,0,13.4361,-38.5245,25,0.6863,8130,3.9655,166.751
rg,1625112511781389545,1,-0.2534,-0.7449,0.9124,90,-33.8135,2.3804,-25.3906,73,1.0445,0,12.8121,-40.0888,25,0.6903,12838,3.9655,165.8797
rg,1625112511781416619,1,-0.29,-0.7563,0.9038,91,-28.6255,1.0986,-23.3154,73,1.0465,0,12.2744,-41.378,25,0.6923,8166,3.9655,165.131
rg,1625112511781438897,1,-0.2578,-0.8604,0.9595,92,-13.0615,-8.3008,-19.4702,73,1.0475,0,11.4695,-41.9846,25,0.6943,8201,3.9655,164.7621
rg,1625112511781457434,1,-0.0571,-0.9448,0.9785,93,24.1089,-11.7798,-16.5405,73,1.0505,0,10.3207,-41.1292,25,0.6943,8208,3.9655,164.5603
rg,1625112511781481989,1,0.0981,-0.8992,0.9226,94,43.7012,-0.9155,-11.7798,73,1.0515,0,9.0995,-39.5923,25,0.6933,8207,3.9655,164.1802
rg,1625112511781622415,1,0.3374,-0.8237,0.854,95,70.1294,40.0391,-19.9585,73,1.0525,0,8.8953,-37.2145,25,0.6873,9053,3.9655,162.4906
rg,1625112511781719359,1,-0.0334,-0.6836,0.7529,96,75.2563,86.6089,-41.4429,73,1.0505,0,10.4271,-34.9818,25,0.6803,8872,3.9655,159.0237
rg,1625112512132392832,1,-1.1211,-0.2551,0.5393,97,51.5747,64.4531,-40.8325,73,1.0525,0,12.4388,-34.2805,25,0.6703,24887,3.9655,157.3409
rg,1625112512132437869,1,-0.5198,-0.5276,0.7534,98,-15.8081,-100.708,8.8501,73,1.0575,0,9.9909,-34.4191,25,0.6823,17820,3.9655,159.9583
rg,1625112512132458906,1,-0.1707,-0.4849,0.7852,99,-24.292,-115.1733,21.1792,73,1.0575,-0.001,6.3453,-35.4252,25,0.6853,7614,3.9655,163.5134
rg,1625112512132480055,1,0.4197,-0.6499,0.8774,100,-50.354,-86.1816,32.6538,73,1.0545,-0.001,3.3112,-37.2036,25,0.6843,7472,3.9655,166.6308
rg,1625112512132499684,1,0.3503,-0.551,0.792,101,-63.0493,-14.8315,25.3906,73,1.0445,0,2.5823,-39.5606,25,0.6763,7656,3.9655,167.8186
rg,1625112512132520832,1,0.2344,-0.4519,1.1909,102,-64.3311,11.4136,20.4468,73,1.0435,0,2.9533,-41.3827,25,0.6813,7823,3.9655,168.1829
rg,1625112512132540018,1,0.4346,-0.0261,0.5903,103,4.8828,65.5518,18.7378,73,1.0425,0,4.0015,-40.1029,25,0.6823,8396,3.9655,167.0729
rg,1625112512132559406,1,-0.5815,-0.8428,1.0308,104,-17.9443,123.7793,-3.2349,73,1.0415,0,8.4131,-41.141,25,0.6833,8193,3.9655,163.7243
rg,1625112512132578388,1,-0.6672,-0.5657,0.7573,105,3.7842,77.0264,-4.1504,73,1.0405,0,11.6317,-41.2179,25,0.6843,7767,3.9655,161.5573
rg,1625112512132597981,1,-0.457,-0.5703,0.8486,106,3.8452,15.0757,-6.0425,73,1.0425,0,12.4154,-40.9075,25,0.6833,7691,3.9655,161.0246
rg,1625112512132615388,1,-0.0942,-0.512,0.8003,107,4.6997,-4.8218,-6.1035,73,1.0435,0,11.5052,-40.512,25,0.6863,7870,3.9655,161.0334
rg,1625112512132638388,1,-0.116,-0.499,0.7842,108,-3.6011,-4.8828,-18.0664,73,1.0445,0,10.8626,-40.6802,25,0.6883,9655,3.9655,160.2699
rg,1625112512132656981,1,-0.1753,-0.5364,0.8013,109,-13.7939,7.8125,-27.1606,73,1.0445,0,10.3654,-41.1406,25,0.6883,7740,3.9655,159.281
rg,1625112512132674981,1,-0.2251,-0.7183,0.8948,110,-17.6392,4.4556,-33.5693,73,1.0475,0,9.6356,-41.9382,25,0.6923,7794,3.9655,158.1609
rg,1625112512132694906,1,-0.2007,-0.8035,0.9272,111,-12.6343,1.5259,-34.79,73,1.0495,0,8.7075,-42.5858,25,0.6943,7814,3.9655,157.0833
rg,1625112512132713110,1,-0.2632,-0.7734,0.894,112,14.6484,11.4136,-33.6914,73,1.0515,0,8.2861,-42.1184,25,0.6973,11978,3.9655,155.7795
rg,1625112512132731443,1,-0.2771,-0.7974,0.927,113,24.292,11.1694,-32.3486,73,1.0535,0,7.9334,-41.2635,25,0.6983,7885,3.9655,154.5158
rg,1625112512132748388,1,0.0081,-0.8357,0.8909,114,55.0537,11.2305,-22.522,73,1.0555,0,7.3634,-39.2654,25,0.6973,7934,3.9655,153.5142
rg,1625112512132766092,1,0.2222,-0.7312,0.8125,115,71.7163,46.2646,-31.8604,73,1.0545,0,7.2951,-36.7801,25,0.6933,7964,3.9655,151.3218
rg,1625112512132785184,1,0.0647,-0.6631,0.7625,116,71.9604,69.458,-41.8091,73,1.0535,0,8.1371,-34.4745,25,0.6883,8013,3.9655,148.2856
rg,1625112512132803999,1,-0.4446,-0.5002,0.6714,117,62.1948,94.6045,-44.5557,73,1.0535,0,11.0569,-32.6673,25,0.6843,8612,3.9655,144.6597
rg,1625112512132823536,1,-1.0166,-0.345,0.5884,118,20.752,55.9082,-37.8418,73,1.0515,0,13.7242,-32.3258,25,0.6863,9870,3.9655,142.1401
rg,1625112512132841777,1,-0.9216,-0.5979,0.8311,119,-4.0283,-32.0435,-14.6484,73,1.0585,0,13.4053,-32.5362,25,0.6933,8020,3.9655,142.3181
rg,1625112512132862351,1,-0.6431,-0.531,0.7778,120,-6.5308,-72.4487,-0.6714,73,1.0615,0,11.7662,-32.5055,25,0.6983,8052,3.9655,143.8853
rg,1625112512132881777,1,0.0198,-0.5325,0.7847,121,-27.71,-94.7876,21.3623,73,1.0555,0,8.548,-33.1711,25,0.6983,8030,3.9655,146.6973
rg,1625112512132900703,1,0.2817,-0.6519,0.8862,122,-48.0957,-48.8281,26.6724,73,1.0555,0,6.65,-34.9381,25,0.6953,8091,3.9655,148.6888
rg,1625112512132919777,1,0.2776,-0.5969,1.0503,123,-48.7671,-22.2168,23.0103,73,1.0535,0,5.3332,-36.9098,25,0.6983,8124,3.9655,149.9613
rg,1625112512132937536,1,0.6436,-0.2866,0.7095,124,16.7847,33.2642,28.1372,73,1.0485,0,5.4569,-35.7757,25,0.6983,8182,3.9655,150.0996
rg,1625112512132955314,1,-0.208,-0.6687,0.9385,125,-2.6245,115.1123,3.418,73,1.0525,0,9.4306,-36.1986,25,0.6993,8113,3.9655,147.4785
rg,1625112512132973203,1,-0.5024,-0.5435,0.7705,126,7.6904,99.9146,-4.4556,73,1.0525,0,12.5187,-35.9339,25,0.7003,8188,3.9655,145.4998
rg,1625112512132990999,1,-0.6755,-0.4924,0.8181,127,7.6904,42.5415,-11.0474,73,1.0525,0,14.5082,-35.7817,25,0.7013,8846,3.9655,144.1443
rg,1625112512133012721,1,-0.2451,-0.4661,0.8232,128,7.0801,-14.4043,-9.3994,73,1.0535,0,13.8236,-35.2357,25,0.7023,9383,3.9655,144.24
rg,1625112512481481810,1,-0.3203,-0.6436,0.8994,129,-21.5454,16.6626,-33.6914,73,1.0565,0,13.6613,-36.4627,25,0.7063,24944,3.9655,142.712
rg,1625112512481521940,1,-0.324,-0.7688,0.9631,130,-15.564,-1.4038,-36.7432,73,1.0595,-0.001,12.4707,-37.0947,25,0.7093,14180,3.9655,141.7053
rg,1625112512481542680,1,-0.2241,-0.8225,0.9912,131,3.9673,-12.146,-37.5366,73,1.0605,0,11.0739,-37.2186,25,0.7103,7526,3.9655,140.7649
rg,1625112512481562884,1,-0.1135,-0.8643,1.0051,132,32.5928,-7.7515,-36.7432,73,1.0615,0,9.7029,-36.2307,25,0.7113,7687,3.9655,139.7303
rg,1625112512481581606,1,0.0791,-0.8376,0.9255,133,52.063,-2.6245,-31.0059,73,1.0615,0,8.378,-34.534,25,0.7093,7731,3.9655,138.7222
rg,1625112512481599791,1,0.2654,-0.7253,0.8279,134,71.7773,38.4521,-34.1797,73,1.0605,0,8.0585,-32.2128,25,0.7013,7750,3.9655,136.6573
rg,1625112512481617865,1,-0.2009,-0.5979,0.7661,135,72.937,81.9092,-52.6123,73,1.0595,0,9.9047,-30.0737,25,0.6943,10958,3.9655,133.0897
rg,1625112512481635884,1,-0.8579,-0.2029,0.5298,136,52.6733,73.9746,-40.1611,73,1.0595,0,13.3393,-28.3459,25,0.6903,7697,3.9655,130.2472
rg,1625112512481653162,1,-1.0769,-0.231,0.5667,137,20.6909,37.9639,-32.5317,73,1.0615,0,15.7174,-27.8726,25,0.6923,7770,3.9655,128.3612
rg,1625112512481683625,1,-0.7468,-0.7617,1.0156,138,-17.334,-66.1011,-14.9536,73,1.0635,0,13.6956,-28.6834,25,0.6973,7820,3.9655,129.0282
rg,1625112512481702662,1,-0.1848,-0.4304,0.7209,139,-10.0098,-98.1445,-2.3804,73,1.0655,0,10.0123,-28.977,25,0.7023,7977,3.9655,131.3025
rg,1625112512481720532,1,0.1113,-0.5144,0.8279,140,-32.4097,-100.8301,13.7939,73,1.0645,0,6.5973,-30.586,25,0.7033,9368,3.9655,133.5887
rg,1625112512481738403,1,0.3726,-0.6509,0.8713,141,-49.3164,-52.1851,19.2871,73,1.0545,-0.001,4.2549,-32.6095,25,0.6963,7838,3.9655,135.3388
rg,1625112512481756958,1,0.27,-0.6523,1.2136,142,-41.687,4.1504,12.2681,73,1.0535,0,4.0618,-34.0711,25,0.6993,7682,3.9655,135.6775
rg,1625112512481774643,1,0.7029,-0.6926,0.7271,143,8.4229,31.4331,24.9634,73,1.0515,0,4.2303,-34.0284,25,0.6983,7977,3.9655,135.7733
rg,1625112512481792051,1,-0.0959,-0.5271,0.7971,144,-4.5776,94.7876,-4.3335,73,1.0535,0,7.311,-34.4104,25,0.6993,7951,3.9655,133.4836
rg,1625112512481809606,1,-0.5674,-0.4834,0.7644,145,10.0708,62.8052,-13.7939,73,1.0525,0,10.015,-34.2144,25,0.7003,8357,3.9655,131.6008
rg,1625112512481826884,1,-0.3625,-0.5303,0.8484,146,8.5449,12.3291,-9.3384,73,1.0525,0,10.6009,-33.8878,25,0.7023,7984,3.9655,131.0232
rg,1625112512481843958,1,-0.1328,-0.5266,0.8237,147,7.2632,-3.3569,-10.6812,73,1.0515,0,10.1368,-33.5891,25,0.7033,8023,3.9655,130.7492
rg,1625112512481861384,1,-0.0044,-0.4622,0.7749,148,0.9766,6.4697,-22.8882,73,1.0555,0,9.4547,-33.5865,25,0.7043,7994,3.9655,129.8511
rg,1625112512481878940,1,-0.2029,-0.5657,0.8499,149,-9.2163,20.5078,-34.1187,73,1.0555,0,9.44,-34.2127,25,0.7073,8117,3.9655,128.2398
rg,1625112512481897939,1,-0.2371,-0.6646,0.894,150,-9.0942,16.3574,-38.8794,73,1.0565,0.001,9.194,-34.9326,25,0.7083,8031,3.9655,126.5519
rg,1625112512481915977,1,-0.2212,-0.7449,0.9336,151,2.5024,9.0942,-39.856,73,1.0595,0,8.6247,-35.2052,25,0.7103,7867,3.9655,124.999
rg,1625112512481933291,1,-0.1804,-0.7761,0.969,152,22.2778,8.5449,-39.5508,73,1.0605,0,7.9827,-34.6637,25,0.7133,8092,3.9655,123.4722
rg,1625112512481951384,1,-0.1423,-0.7732,0.9563,153,37.6587,10.376,-34.9731,73,1.0615,0,7.4858,-33.5122,25,0.7123,8169,3.9655,122.0459
rg,1625112512481968921,1,0.1736,-0.7581,0.8704,154,66.04,25.2686,-24.353,73,1.0605,0,7.1879,-31.3446,25,0.7103,8137,3.9655,120.6189
rg,1625112512481999254,1,0.0537,-0.5996,0.803,155,73.1201,67.3218,-40.0391,73,1.0615,0,8.297,-29.0096,25,0.7063,8204,3.9655,117.819
rg,1625112512482017921,1,-0.3418,-0.3203,0.6221,156,70.0684,86.5479,-41.687,73,1.0605,0,12.2414,-26.2997,25,0.7033,8201,3.9655,114.7959
rg,1625112512482035402,1,-1.0229,-0.1858,0.5559,157,6.8359,58.2275,-29.7852,73,1.0615,0,15.474,-26.3833,25,0.7043,8183,3.9655,112.6659
rg,1625112512482057217,1,-0.8464,-0.7583,0.9851,158,-28.6255,-44.4336,-10.1318,73,1.0665,0,14.4482,-27.7778,25,0.7093,8284,3.9655,113.0248
rg,1625112512482125699,1,-0.24,-0.4192,0.7837,159,-30.2734,-102.1729,10.1929,73,1.0665,0,11.0756,-28.4738,25,0.7133,8853,3.9655,115.3717
rg,1625112512482145717,1,0.0684,-0.532,0.8433,160,-42.1753,-100.4028,17.7612,73,1.0635,0,7.344,-29.8797,25,0.7103,8314,3.9655,117.9656
rg,1625112512840060544,1,0.5288,-0.3635,0.7249,161,9.1553,53.5889,13.2446,73,1.0595,0,7.9893,-29.482,25,0.7123,25135,3.9655,117.3625
rg,1625112512840112748,1,-0.593,-0.4185,0.7009,162,18.0054,90.7593,-5.4321,73,1.0585,0,12.0952,-29.1489,25,0.7133,13940,3.9655,115.3607
rg,1625112512840134137,1,-0.5522,-0.5771,0.8533,163,13.1226,68.5425,-3.418,73,1.0585,0,13.7162,-29.022,25,0.7143,9550,3.9655,114.698
rg,1625112512840153618,1,-0.2642,-0.5063,0.8218,164,12.5732,-0.8545,-2.1362,73,1.0595,0,13.7052,-28.63,25,0.7143,7697,3.9655,114.6155
rg,1625112512840172192,1,-0.0144,-0.4902,0.8103,165,4.0894,-0.5493,-13.916,73,1.0595,0,12.9125,-28.6761,25,0.7153,7608,3.9655,114.1013
rg,1625112512840190840,1,-0.1067,-0.4502,0.7842,166,-0.4883,10.7422,-20.9961,73,1.0615,0,12.6352,-28.9496,25,0.7163,7679,3.9655,113.1254
rg,1625112512840209507,1,-0.2822,-0.542,0.8362,167,-12.6343,10.437,-33.8745,73,1.0625,0,12.4551,-29.9105,25,0.7174,8334,3.9655,111.673
rg,1625112512840291859,1,-0.2971,-0.707,0.9385,168,-11.4746,-3.6621,-35.6445,73,1.0645,0,11.6769,-30.8849,25,0.7204,8456,3.9655,110.4335
rg,1625112512840312507,1,-0.2349,-0.7678,0.967,169,-4.6387,-8.7891,-33.2031,73,1.0655,0,10.522,-31.5681,25,0.7224,7797,3.9655,109.4008
rg,1625112512840331637,1,-0.0894,-0.7556,0.9653,170,15.3198,-7.1411,-30.7617,73,1.0645,0,9.3868,-31.3666,25,0.7224,7782,3.9655,108.4411
rg,1625112512840349063,1,0.0415,-0.7551,0.9204,171,39.856,10.376,-28.8086,73,1.0665,0,8.7057,-30.2809,25,0.7244,7955,3.9655,107.1678
rg,1625112512840367600,1,0.1619,-0.7488,0.8799,172,52.002,26.5503,-25.3906,73,1.0655,0,8.4779,-28.8128,25,0.7194,7846,3.9655,105.6746
rg,1625112512840386174,1,0.0425,-0.635,0.8345,173,63.7817,69.1528,-39.7949,73,1.0635,0,9.7432,-27.0345,25,0.7123,7854,3.9655,102.8799
rg,1625112512840428063,1,-0.6123,-0.2935,0.6145,174,53.4668,85.5713,-37.9028,73,1.0645,0,13.3362,-25.4344,25,0.7103,7862,3.9655,99.974
rg,1625112512840454081,1,-0.9028,-0.1956,0.5283,175,28.1372,65.4907,-32.5317,73,1.0645,0,16.7389,-24.8097,25,0.7103,7876,3.9655,97.6388
rg,1625112512840473340,1,-0.8416,-0.6348,0.9436,176,-17.8833,-22.522,-17.2729,87,1.0675,0,16.4015,-25.8916,25,0.7123,7912,4.0106,97.2989
rg,1625112512840491618,1,-0.4153,-0.4565,0.7827,177,-18.1885,-60.6689,-7.0801,87,1.0695,0,13.7732,-26.7672,25,0.7194,7959,4.0106,98.849
rg,1625112512840509766,1,-0.1277,-0.5339,0.8643,178,-42.0532,-91.3696,13.0615,87,1.0655,0,10.5236,-28.1716,25,0.7174,7975,4.0106,101.0085
rg,1625112512840527785,1,0.1597,-0.6201,0.9102,179,-59.2651,-63.0493,23.8037,87,1.0625,0,8.0695,-30.429,25,0.7163,8041,4.0106,103.0727
rg,1625112512840546488,1,0.8704,-0.8113,0.8547,180,-49.0723,-41.1987,26.7944,87,1.0605,0,6.7874,-30.3894,25,0.7184,8001,4.0106,104.7824
rg,1625112512840563970,1,0.6462,-0.3252,0.7444,181,15.1978,24.5361,23.2544,87,1.0575,0,6.4861,-29.531,25,0.7174,8043,4.0106,105.1089
rg,1625112512840582803,1,-0.4441,-0.3442,0.6926,182,13.3667,100.708,-2.7466,87,1.0565,-0.001,10.6402,-29.2159,25,0.7174,12194,4.0106,102.6561
rg,1625112512840602007,1,-0.7183,-0.4021,0.7415,183,8.3008,87.3413,-11.2915,87,1.0555,0,13.168,-29.4908,25,0.7184,8068,4.0106,101.4038
rg,1625112512840621174,1,-0.5154,-0.582,0.8811,184,0.3662,10.9863,-5.6152,87,1.0555,-0.001,13.9394,-29.7131,25,0.7184,8101,4.0106,100.9474
rg,1625112512840639748,1,0.0007,-0.4941,0.8411,185,-0.1831,-14.7705,-8.1177,87,1.0565,0,12.717,-29.7395,25,0.7194,7941,4.0106,100.9538
rg,1625112512840657877,1,0.0786,-0.4656,0.8105,186,-1.8921,-5.5542,-13.855,87,1.0575,0,12.307,-30.125,25,0.7194,8173,4.0106,100.0189
rg,1625112512840675525,1,-0.1624,-0.499,0.8298,187,-14.0381,20.5688,-25.2686,87,1.0575,-0.001,12.5014,-31.1412,25,0.7204,9666,4.0106,98.6615
rg,1625112512840711563,1,-0.3271,-0.5923,0.8743,188,-16.8457,13.7939,-35.3394,87,1.0585,0,12.4101,-32.2505,25,0.7214,8030,4.0106,97.1084
rg,1625112512840819377,1,-0.3267,-0.7024,0.9504,189,-12.7563,-0.9155,-32.4097,87,1.0605,-0.001,11.7976,-33.1453,25,0.7244,8235,4.0106,95.9796
rg,1625112512840844470,1,-0.22,-0.7468,0.9666,190,-4.6387,-8.5449,-29.8462,87,1.0625,0,10.5839,-33.1863,25,0.7264,8121,4.0106,95.2604
rg,1625112512840865377,1,-0.0234,-0.792,0.9663,191,22.522,-2.6855,-26.6724,87,1.0625,0,9.5401,-32.6753,25,0.7264,8221,4.0106,94.3649
rg,1625112512840890248,1,0.105,-0.7698,0.9341,192,48.1567,31.0669,-26.6113,87,1.0655,-0.001,9.4593,-31.2811,25,0.7234,8273,4.0106,92.7292
rg,1625112513187736155,1,-0.5688,-0.2747,0.5947,193,56.2744,92.1021,-40.1001,87,1.0655,0,13.5941,-29.4285,25,0.7153,24891,4.0106,89.4921
rg,1625112513187827433,1,-0.9763,-0.6394,0.9343,194,-17.6392,-16.5405,-13.4277,87,1.0655,0,13.7893,-30.3132,25,0.7184,12647,4.0106,89.3122
rg,1625112513187851303,1,-0.3062,-0.4492,0.7859,195,-20.5078,-94.6045,3.7231,87,1.0665,0,10.8095,-30.6549,25,0.7194,10366,4.0106,91.4202
rg,1625112513187871359,1,0.01,-0.5054,0.8647,196,-34.8511,-97.1069,9.1553,87,1.0635,0,7.5889,-32.0896,25,0.7174,7548,4.0106,93.6473
rg,1625112513187891322,1,0.2329,-0.5183,0.8667,197,-48.645,-52.4292,19.9585,87,1.0585,0,5.4722,-33.7664,25,0.7153,7960,4.0106,95.4887
rg,1625112513187911025,1,0.6248,-0.8613,0.9712,198,-19.3481,-0.5493,28.5034,87,1.0575,0,4.9214,-34.7219,25,0.7174,7998,4.0106,96.4278
rg,1625112513187930618,1,0.5317,-0.4343,0.8281,199,1.709,27.0996,19.8364,87,1.0565,0,6.9199,-34.9551,25,0.7184,7964,4.0106,95.0072
rg,1625112513187950247,1,-0.2625,-0.606,0.9062,200,-2.0142,101.4404,4.7607,87,1.0565,0,10.5902,-35.3162,25,0.7174,9357,4.0106,92.8028
rg,1625112513187968081,1,-0.502,-0.4233,0.7561,201,6.3477,58.6548,-1.2207,87,1.0555,0,13.0692,-35.158,25,0.7184,10398,4.0106,91.4139
rg,1625112513187986266,1,-0.3591,-0.4709,0.8271,202,0.6714,17.5781,-2.4414,87,1.0565,0,13.8847,-35.0289,25,0.7184,7694,4.0106,90.9656
rg,1625112513188012636,1,-0.1394,-0.4822,0.8164,203,-8.728,0.3052,-10.3149,87,1.0575,0,13.4376,-35.2719,25,0.7204,8131,4.0106,90.6574
rg,1625112513188032507,1,-0.2192,-0.4778,0.813,204,-18.9209,5.3711,-22.583,87,1.0595,0,13.0703,-36.0289,25,0.7214,12157,4.0106,89.8223
rg,1625112513188050747,1,-0.2524,-0.6833,0.9167,205,-20.874,-2.9297,-30.5176,87,1.0605,0,12.2224,-37.0834,25,0.7234,8136,4.0106,88.8867
rg,1625112513188070173,1,-0.196,-0.7041,0.9258,206,-17.6392,-8.4839,-29.6021,87,1.0615,0,11.1262,-37.9357,25,0.7254,7806,4.0106,88.1419
rg,1625112513188091081,1,-0.1333,-0.7866,0.9656,207,-6.7139,-2.6855,-30.9448,87,1.0635,0,10.077,-38.413,25,0.7274,8182,4.0106,87.214
rg,1625112513188109210,1,-0.1487,-0.7935,0.9614,208,13.1836,9.6436,-30.5786,87,1.0655,0,9.4894,-38.129,25,0.7294,8202,4.0106,85.9912
rg,1625112513188131766,1,0.0107,-0.7449,0.8621,209,42.6636,17.5171,-22.0947,87,1.0655,0,9.1096,-36.7117,25,0.7284,9408,4.0106,84.8263
rg,1625112513188182581,1,0.1521,-0.7295,0.8328,210,50.0488,27.771,-21.7896,87,1.0645,0,8.8326,-35.1014,25,0.7254,7894,4.0106,83.4134
rg,1625112513188209970,1,-0.1997,-0.3337,0.6267,211,48.1567,61.6455,-35.2173,87,1.0665,0,10.3412,-33.3299,25,0.7254,8652,4.0106,80.8726
rg,1625112513188227970,1,-0.939,-0.4463,0.697,212,-8.0566,49.0723,-31.6162,87,1.0695,0,12.6665,-34.0636,25,0.7284,8679,4.0106,78.6841
rg,1625112513188245507,1,-0.947,-0.6958,0.926,213,-18.8599,8.0566,-20.9351,87,1.0695,0,12.0848,-34.6944,25,0.7304,7940,4.0106,79.2241
rg,1625112513188262895,1,-0.479,-0.4924,0.7617,214,-18.2495,-73.9746,-0.061,87,1.0675,0,10.2805,-35.0152,25,0.7294,8715,4.0106,80.9655
rg,1625112513188282433,1,0.1521,-0.6702,0.9834,215,-37.5977,-78.6133,14.5874,87,1.0645,0,7.3886,-36.1174,25,0.7304,8318,4.0106,83.3124
rg,1625112513188302581,1,0.699,-0.7429,0.8933,216,17.4561,-14.7705,31.6162,87,1.0645,0,6.2397,-35.3751,25,0.7314,8346,4.0106,84.6659
rg,1625112513188320525,1,0.5068,-0.5054,0.7832,217,23.1323,33.02,22.0947,87,1.0625,0,8.5481,-34.4718,25,0.7314,8874,4.0106,83.4471
rg,1625112513188338692,1,-0.1096,-0.49,0.7383,218,28.5645,90.5151,9.3994,87,1.0595,0,11.6823,-33.5939,25,0.7294,8419,4.0106,81.7058
rg,1625112513188357136,1,-0.48,-0.3716,0.6973,219,24.9634,73.9136,-0.8545,87,1.0615,-0.001,14.885,-32.7853,25,0.7294,8459,4.0106,80.0572
rg,1625112513188375414,1,-0.3994,-0.4773,0.7893,220,20.0806,28.8696,-1.9531,87,1.0595,0,16.1454,-32.1046,25,0.7294,8546,4.0106,79.3646
rg,1625112513188394525,1,-0.1553,-0.4402,0.7876,221,13.7939,8.3008,-9.2163,87,1.0595,0,15.9763,-31.5691,25,0.7304,8468,4.0106,78.8899
rg,1625112513188411470,1,-0.1726,-0.3765,0.7515,222,9.3994,12.207,-12.6343,87,1.0605,0,16.079,-31.6033,25,0.7314,9098,4.0106,77.9895
rg,1625112513188428544,1,-0.241,-0.3889,0.7729,223,-7.9956,22.3999,-21.1792,87,1.0595,0,16.368,-32.0666,25,0.7314,8193,4.0106,76.8035
rg,1625112513188446173,1,-0.2852,-0.5713,0.8872,224,-18.2495,14.4653,-27.9541,87,1.0625,0,16.1971,-33.1805,25,0.7334,8539,4.0106,75.4922
rg,1625112513542607026,1,-0.1167,-0.7854,0.9783,225,10.3149,10.376,-24.0479,87,1.0665,0,15.7628,-32.7622,25,0.7354,25187,4.0106,74.2555
rg,1625112513542651322,1,0.1121,-0.6814,0.8616,226,52.4902,36.3159,-19.5312,87,1.0655,0,16.1796,-31.2566,25,0.7284,15118,4.0106,71.9558
rg,1625112513542672378,1,-0.1064,-0.5708,0.7993,227,59.9976,73.6694,-37.0483,87,1.0655,0,17.5565,-29.8748,25,0.7234,7862,4.0106,69.0009
rg,1625112513542693748,1,-0.8718,-0.1738,0.551,228,33.7524,75.9888,-36.7432,87,1.0665,0,20.8927,-29.2042,25,0.7224,9235,4.0106,66.1564
rg,1625112513542712100,1,-0.9526,-0.6846,0.9919,229,-13.1836,-8.9722,-20.0195,87,1.0675,0,20.8624,-30.1017,25,0.7254,7849,4.0106,65.5362
rg,1625112513542731896,1,-0.7068,-0.6743,0.8987,230,-6.7749,-55.2368,-10.6812,87,1.0695,0,19.1915,-30.3346,25,0.7284,7682,4.0106,66.247
rg,1625112513542750692,1,-0.1008,-0.4492,0.7866,231,-20.0195,-88.9893,5.5542,87,1.0665,0,15.7404,-30.4721,25,0.7284,8980,4.0106,68.3522
rg,1625112513542771989,1,0.1362,-0.6277,0.9207,232,-39.2456,-53.0396,11.4136,87,1.0665,0,13.2907,-31.7964,25,0.7274,7678,4.0106,69.8605
rg,1625112513542792785,1,0.177,-0.7549,1.2178,233,-33.02,-30.6396,14.5874,87,1.0635,0,11.7806,-32.8483,25,0.7294,7672,4.0106,71.0463
rg,1625112513542811192,1,0.4531,-0.3945,0.7791,234,23.1934,23.2544,20.0806,87,1.0635,0,11.5594,-31.6676,25,0.7284,7784,4.0106,71.2585
rg,1625112513542856544,1,-0.1438,-0.5063,0.8123,235,17.7612,68.9697,12.7563,87,1.0625,0,14.7443,-31.1893,25,0.7304,7768,4.0106,69.5366
rg,1625112513542880692,1,-0.3721,-0.4219,0.7573,236,22.3389,84.3506,1.3428,87,1.0585,0,17.9822,-30.7076,25,0.7284,7740,4.0106,67.7953
rg,1625112513542900396,1,-0.5867,-0.4504,0.8254,237,15.9302,48.645,-4.2114,87,1.0595,0,20.1081,-30.3812,25,0.7294,7783,4.0106,66.6206
rg,1625112513542918729,1,-0.251,-0.3984,0.7935,238,11.9629,3.7842,-5.7373,87,1.0615,0,19.9486,-29.8455,25,0.7304,9794,4.0106,66.3824
rg,1625112513542937507,1,-0.135,-0.395,0.7896,239,5.3711,1.8921,-10.1318,87,1.0605,0,19.3667,-29.6271,25,0.7294,7902,4.0106,66.0169
rg,1625112513542958655,1,-0.209,-0.3484,0.7793,240,-10.3149,11.7798,-21.1182,87,1.0615,0,19.1299,-30.1425,25,0.7304,7823,4.0106,65.0709
rg,1625112513542980952,1,-0.251,-0.5012,0.865,241,-25.1465,8.3008,-30.3955,87,1.0625,0,18.5868,-31.5491,25,0.7324,7868,4.0106,63.794
rg,1625112513543001322,1,-0.2805,-0.5903,0.9233,242,-28.5645,8.1177,-33.8745,87,1.0625,0,17.9632,-33.1568,25,0.7334,7893,4.0106,62.3975
rg,1625112513543019970,1,-0.2976,-0.7273,0.9795,243,-21.1792,6.2866,-30.2734,87,1.0665,0,17.3257,-34.4955,25,0.7344,7930,4.0106,61.1571
rg,1625112513543040804,1,-0.1802,-0.7673,1.0103,244,-13.9771,5.7373,-28.6865,87,1.0675,0,16.5473,-34.997,25,0.7374,7939,4.0106,60.1334
rg,1625112513543058655,1,-0.1179,-0.783,1.01,245,10.5591,8.5449,-26.001,87,1.0665,0,15.7836,-34.9852,25,0.7364,8058,4.0106,59.0115
rg,1625112513543077118,1,0.0996,-0.7546,0.9133,246,41.0767,27.9541,-20.813,87,1.0685,0,15.4321,-33.8967,25,0.7334,8072,4.0106,57.5825
rg,1625112513543096248,1,-0.0396,-0.6033,0.823,247,49.1943,46.936,-25.3296,87,1.0675,0,16.3233,-32.5263,25,0.7304,8049,4.0106,54.9331
rg,1625112513543115248,1,-0.3538,-0.3784,0.6648,248,51.3306,77.2095,-36.5601,87,1.0665,0,18.4911,-31.2628,25,0.7264,8028,4.0106,51.9564
rg,1625112513543132692,1,-1.0007,-0.3435,0.6436,249,-2.1362,52.9785,-31.0669,87,1.0685,0,20.9443,-32.044,25,0.7274,8061,4.0106,49.6687
rg,1625112513543149989,1,-0.7507,-0.8313,1.0347,250,-18.1885,-39.4897,-12.3901,87,1.0715,0,19.6883,-32.8496,25,0.7334,8121,4.0106,50.0418
rg,1625112513543169766,1,-0.2,-0.3804,0.7354,251,-13.0615,-82.7637,3.9062,87,1.0715,0,16.7577,-32.5073,25,0.7354,8236,4.0106,52.1449
rg,1625112513543191396,1,0.1101,-0.5867,0.8726,252,-35.7056,-59.2041,13.2446,87,1.0685,0,14.1895,-33.4983,25,0.7344,8570,4.0106,53.9394
rg,1625112513543209155,1,0.1394,-0.7256,1.1792,253,-32.959,-38.269,13.855,87,1.0675,0,12.9128,-33.4025,25,0.7364,8135,4.0106,55.0892
rg,1625112513543225933,1,0.4536,-0.48,0.8247,254,25.2075,11.6577,18.5547,87,1.0665,0,12.295,-32.1932,25,0.7364,8191,4.0106,55.4783
rg,1625112513543243285,1,-0.0913,-0.4541,0.7603,255,25.9399,81.9702,7.019,87,1.0655,0,14.9589,-31.4577,25,0.7354,8239,4.0106,53.9507
rg,1625112513543287211,1,-0.5552,-0.2981,0.6909,256,22.3389,72.8149,-0.6104,87,1.0645,0,18.2584,-30.7435,25,0.7354,8343,4.0106,52.4335
rg,1625112513889646825,1,-0.155,-0.4048,0.79,257,0.7935,10.2539,-7.5684,87,1.0655,0,18.122,-30.7098,25,0.7354,24868,4.0106,51.9874
rg,1625112513889710103,1,-0.2776,-0.488,0.8533,258,-14.4043,15.625,-20.9961,87,1.0665,0,17.8844,-31.9165,25,0.7364,11970,4.0106,50.7211
rg,1625112513889743510,1,-0.2839,-0.5906,0.916,259,-23.5596,8.606,-31.5552,87,1.0685,0,17.3591,-33.28,25,0.7384,7897,4.0106,49.4042
rg,1625112513889774010,1,-0.293,-0.7205,0.9924,260,-16.4795,4.5776,-35.1562,87,1.0695,0,16.5687,-34.4241,25,0.7404,7727,4.0106,48.0489
rg,1625112513889803306,1,-0.1951,-0.8105,1.0164,261,2.5635,5.4932,-33.2031,87,1.0705,0,15.6751,-34.8338,25,0.7424,8080,4.0106,46.7369
rg,1625112513889831806,1,-0.1421,-0.7939,1.0308,262,17.0288,8.5449,-31.7383,87,1.0715,0,14.8573,-34.5971,25,0.7414,7804,4.0106,45.4242
rg,1625112513889862454,1,-0.0259,-0.7292,0.9216,263,45.5933,25.5127,-29.2969,87,1.0705,0,14.5103,-33.3295,25,0.7374,9142,4.0106,43.785
rg,1625112513889891584,1,0.0698,-0.6482,0.8469,264,65.979,50.415,-35.0342,87,1.0685,0,14.7425,-31.4517,25,0.7314,8319,4.0106,41.3905
rg,1625112513889923214,1,-0.1982,-0.3792,0.6772,265,67.0166,70.0073,-40.7104,87,1.0685,0,17.847,-29.9985,25,0.7274,7786,4.0106,38.379
rg,1625112513889949788,1,-0.9219,-0.2646,0.5911,266,10.3149,64.6362,-40.4663,87,1.0685,0,20.6231,-30.3832,25,0.7284,7906,4.0106,35.5606
rg,1625112513889978973,1,-0.9036,-0.6609,0.9683,267,-16.7236,-19.043,-19.3481,87,1.0715,0,20.2349,-31.2779,25,0.7314,7806,4.0106,35.2215
rg,1625112513890007306,1,-0.6326,-0.583,0.8662,268,-12.5122,-63.0493,-10.0708,87,1.0725,0,17.9477,-31.3407,25,0.7334,7881,4.0106,36.2844
rg,1625112513890034584,1,-0.1096,-0.4226,0.7671,269,-31.189,-81.604,6.3477,87,1.0695,0,14.8863,-31.9052,25,0.7324,7887,4.0106,38.3345
rg,1625112513890061621,1,0.1365,-0.6934,0.9839,270,-45.8374,-52.2461,13.0005,87,1.0675,0,12.5888,-33.4717,25,0.7284,7867,4.0106,39.9276
rg,1625112513890102232,1,0.2305,-0.8296,1.2026,271,-29.541,-28.3203,17.8833,87,1.0645,0,11.2171,-34.4268,25,0.7324,7884,4.0106,41.1791
rg,1625112513890134751,1,0.3477,-0.3975,0.7998,272,14.8926,31.5552,22.1558,87,1.0645,0,11.5374,-33.5212,25,0.7324,8001,4.0106,41.2545
rg,1625112513890163047,1,-0.2061,-0.4736,0.7603,273,17.334,83.7402,13.1836,87,1.0625,0,14.6654,-33.0833,25,0.7324,10834,4.0106,39.828
rg,1625112513890407232,1,-0.5388,-0.3337,0.7129,274,15.1978,60.6079,8.1177,87,1.0615,0,17.6348,-32.498,25,0.7324,7971,4.0106,38.8178
rg,1625112513890475010,1,-0.4597,-0.4004,0.7751,275,9.2773,35.2783,8.3008,87,1.0615,0,18.2948,-32.0044,25,0.7324,8043,4.0106,38.8285
rg,1625112513890507769,1,-0.136,-0.3374,0.7646,276,1.4648,6.2256,3.1738,87,1.0625,0,18.2181,-31.6095,25,0.7334,8852,4.0106,38.9106
rg,1625112513890538880,1,-0.1792,-0.3518,0.7573,277,-15.625,16.6016,-12.085,87,1.0635,0,18.2834,-32.2028,25,0.7344,8102,4.0106,38.1975
rg,1625112513890572195,1,-0.355,-0.4802,0.8438,278,-32.8979,14.4043,-25.0244,87,1.0645,0,18.2874,-33.7876,25,0.7354,8877,4.0106,37.0163
rg,1625112513890605954,1,-0.2805,-0.7268,0.9868,279,-35.7056,4.6997,-27.4658,87,1.0665,0,17.3822,-35.4812,25,0.7374,8740,4.0106,36.078
rg,1625112513890638750,1,-0.217,-0.793,1.0339,280,-25.9399,-3.8452,-27.0386,87,1.0665,0,16.3046,-36.8244,25,0.7384,8230,4.0106,35.2434
rg,1625112513890673176,1,-0.2031,-0.7742,0.967,281,-4.2114,3.8452,-27.4048,87,1.0705,0,15.4867,-37.3335,25,0.7404,8285,4.0106,34.2207
rg,1625112513890702454,1,-0.207,-0.7087,0.928,282,13.2446,8.667,-31.4941,87,1.0705,0,14.7813,-37.1255,25,0.7424,8235,4.0106,32.9666
rg,1625112513890731973,1,-0.2083,-0.7078,0.9153,283,22.3389,7.2632,-32.959,87,1.0715,0,14.0382,-36.5649,25,0.7424,8263,4.0106,31.6935
rg,1625112513890761695,1,-0.083,-0.6997,0.8767,284,43.8843,13.1226,-31.4331,87,1.0685,0,13.3355,-35.2121,25,0.7374,8254,4.0106,30.3056
rg,1625112513890793917,1,-0.0012,-0.6289,0.8188,285,57.7393,33.6914,-35.0342,87,1.0715,0,13.1302,-33.4477,25,0.7334,8358,4.0106,28.3064
rg,1625112513890823917,1,-0.4163,-0.3184,0.6121,286,59.021,44.6777,-41.0156,87,1.0695,0,14.7689,-31.7349,25,0.7294,8303,4.0106,25.7409
rg,1625112513890855547,1,-0.6582,-0.2769,0.5466,287,33.4473,52.4902,-36.0107,87,1.0685,0,17.015,-30.9162,25,0.7274,8319,4.0106,23.3729
rg,1625112513891000639,1,-0.6086,-0.6638,0.9058,288,1.2207,0.6714,-20.813,87,1.0715,0,17.0558,-31.2762,25,0.7274,8356,4.0106,22.5579
rg,1625112514243182515,1,-0.1982,-0.4534,0.7695,289,-15.625,-3.9062,0.6104,87,1.0715,0,16.7522,-31.8283,25,0.7344,25823,4.0106,22.6777
rg,1625112514243220163,1,-0.3699,-0.6072,0.8433,290,-24.0479,-5.9814,4.4556,87,1.0665,0,16.7556,-32.8483,25,0.7294,14184,4.0106,22.926
rg,1625112514243240570,1,-0.1946,-0.5405,0.9875,291,-11.9019,-25.9399,14.8926,87,1.0655,0,15.9341,-32.8333,25,0.7304,7648,4.0106,24.0864
rg,1625112514243260163,1,0.1985,-0.1953,0.6411,292,16.0522,-27.0996,25.1465,87,1.0645,0,14.5509,-31.3551,25,0.7314,7598,4.0106,24.9575
rg,1625112514243279218,1,0.0444,-0.2935,0.6899,293,4.5776,19.2261,5.3711,96,1.0625,0,14.6212,-30.8828,25,0.7304,7980,4.0073,24.819
rg,1625112514243297515,1,-0.2339,-0.3401,0.7141,294,3.9062,22.583,-4.3335,96,1.0625,0,15.377,-30.6701,25,0.7304,9238,4.0073,24.2413
rg,1625112514243315959,1,-0.1934,-0.4167,0.7556,295,1.2817,5.249,-11.4136,96,1.0625,0,15.2117,-30.6758,25,0.7314,11714,4.0073,23.7444
rg,1625112514243338904,1,-0.259,-0.4822,0.7695,296,1.1597,1.5259,-11.7798,96,1.0625,0,15.0477,-30.7945,25,0.7314,8367,4.0073,23.2803
rg,1625112514243357144,1,-0.1917,-0.4941,0.7642,297,3.3569,-14.1602,-14.0991,96,1.0635,0,14.1465,-30.7871,25,0.7324,8045,4.0073,23.0607
rg,1625112514243378181,1,-0.1223,-0.4839,0.7571,298,5.7983,-19.4092,-15.1978,96,1.0645,0,12.9159,-30.6508,25,0.7334,7991,4.0073,22.9162
rg,1625112514243395533,1,-0.0833,-0.4756,0.7341,299,10.1318,-20.6299,-20.2026,96,1.0645,0,11.5001,-30.3911,25,0.7344,7982,4.0073,22.6145
rg,1625112514243425496,1,-0.0674,-0.5205,0.7346,300,16.2354,-19.9585,-24.7192,96,1.0665,0,10.0298,-30.02,25,0.7354,8591,4.0073,22.1159
rg,1625112514243455181,1,-0.0181,-0.5117,0.7034,301,20.4468,-21.3013,-23.2544,96,1.0665,0,8.6148,-29.3565,25,0.7374,8677,4.0073,21.587
rg,1625112514243473941,1,-0.0229,-0.5044,0.6995,302,29.3579,-12.4512,-23.6816,96,1.0665,0,7.4431,-28.5183,25,0.7374,8473,4.0073,20.9544
rg,1625112514243491885,1,-0.0317,-0.4912,0.6548,303,41.3818,-2.6245,-17.0288,96,1.0705,0,6.8277,-27.2621,25,0.7384,8141,4.0073,20.3528
rg,1625112514243525644,1,-0.0659,-0.4758,0.6506,304,47.8516,6.2256,-13.1836,96,1.0695,0,6.7312,-25.7691,25,0.7404,8139,4.0073,19.723
rg,1625112514243544607,1,-0.0659,-0.4839,0.6445,305,51.6357,8.1177,-12.207,96,1.0685,0,6.7407,-24.2111,25,0.7394,8128,4.0073,19.0868
rg,1625112514243563015,1,-0.0562,-0.4792,0.6487,306,60.6689,7.2021,-10.0098,96,1.0705,0,6.7424,-22.3259,25,0.7404,8135,4.0073,18.5433
rg,1625112514243580681,1,-0.0913,-0.4585,0.636,307,68.7256,11.9629,-9.8877,96,1.0715,0,7.046,-20.1735,25,0.7414,8191,4.0073,17.9352
rg,1625112514243598681,1,-0.1128,-0.4512,0.6536,308,71.167,11.6577,-8.606,96,1.0705,0,7.4217,-17.9557,25,0.7414,8185,4.0073,17.3852
rg,1625112514243615552,1,-0.1331,-0.4072,0.6301,309,81.7871,7.8125,-8.8501,96,1.0725,0,7.7321,-15.3269,25,0.7414,7878,4.0073,16.8805
rg,1625112514243634033,1,-0.1155,-0.3232,0.6023,310,90.4541,3.7231,-9.5825,96,1.0725,0,7.8655,-12.2767,25,0.7424,8222,4.0073,16.4033
rg,1625112514243655237,1,-0.0984,-0.2913,0.6074,311,91.3086,3.1128,-9.2773,96,1.0705,0,7.9439,-9.2105,25,0.7404,8247,4.0073,15.9408
rg,1625112514243673441,1,-0.1123,-0.2959,0.6345,312,90.8203,5.4932,-10.7422,96,1.0725,0,8.1609,-6.268,25,0.7384,7916,4.0073,15.3969
rg,1625112514243691218,1,-0.1194,-0.3386,0.6853,313,90.6982,6.0425,-9.0942,96,1.0725,0,8.418,-3.4816,25,0.7344,8763,4.0073,14.9003
rg,1625112514243709015,1,-0.1143,-0.3467,0.7134,314,89.7827,2.9297,-7.6904,96,1.0725,0,8.5401,-0.8136,25,0.7324,8326,4.0073,14.4577
rg,1625112514243726218,1,-0.2324,-0.2656,0.6665,315,88.1348,0.9766,-7.3853,96,1.0725,0,8.7915,1.6928,25,0.7324,8683,4.0073,14.2474
rg,1625112514243761274,1,-0.3147,-0.238,0.7026,316,73.5474,-7.6904,2.1973,96,1.0725,0,9.0562,3.9012,25,0.7364,8672,4.0073,14.2185
rg,1625112514243792718,1,-0.4746,-0.2517,0.6692,317,55.2979,-33.2031,13.3057,96,1.0765,0,8.6609,5.3795,25,0.7394,8411,4.0073,14.5325
rg,1625112514243902459,1,-0.5342,-0.2195,0.6865,318,44.8608,-69.6411,28.5645,96,1.0745,0,6.8633,6.5618,25,0.7414,8799,4.0073,15.2869
rg,1625112514243947329,1,-0.4358,-0.2224,0.9585,319,41.8701,-111.145,45.4712,96,1.0695,0,2.9215,7.6384,25,0.7404,8828,4.0073,16.4657
rg,1625112514243970459,1,0.0913,-0.6167,0.9553,320,70.4346,-126.77,62.8052,96,1.0665,0,-2.7054,8.9822,25,0.7404,8200,4.0073,18.135
rg,1625112514599335428,1,0.4365,0.0994,0.6919,321,162.7197,-61.9507,19.8975,96,1.0635,0,-6.3856,15.4185,25,0.7394,25105,4.0073,18.327
rg,1625112514599376539,1,-0.3342,0.1797,0.7307,322,132.9956,-42.3584,10.9253,96,1.0625,0,-6.9811,20.6617,25,0.7394,15010,4.0073,18.2744
rg,1625112514599397502,1,0.0142,0.2698,0.7502,323,122.1313,-91.3086,12.5732,96,1.0625,0,-10.2829,25.634,25,0.7394,7664,4.0073,17.3015
rg,1625112514599417484,1,0.2251,0.2917,0.7695,324,108.7036,-97.168,12.5122,96,1.0625,0,-14.1322,30.069,25,0.7394,7732,4.0073,15.9197
rg,1625112514599436058,1,0.416,0.2122,0.8943,325,81.604,-74.8291,5.249,96,1.0635,0,-17.2024,33.0908,25,0.7394,7697,4.0073,14.616
rg,1625112514599455113,1,0.3872,0.2063,0.917,326,72.0215,-54.1382,1.4038,96,1.0645,-0.001,-19.0434,35.4454,25,0.7414,7697,4.0073,13.6465
rg,1625112514599473613,1,0.1729,0.1025,1.041,327,57.312,-27.2217,-11.7188,96,1.0655,0,-19.3586,36.8973,25,0.7424,8908,4.0073,12.9582
rg,1625112514599492113,1,0.0681,-0.0371,1.1511,328,55.4199,-24.292,-12.085,96,1.0695,0,-19.3754,37.9375,25,0.7424,8023,4.0073,12.433
rg,1625112514599511095,1,0.1558,-0.209,1.2898,329,59.1431,-25.7568,-12.5122,96,1.0695,0,-19.5641,39.2698,25,0.7464,7802,4.0073,12.0217
rg,1625112514599528576,1,0.1504,-0.2527,1.3274,330,85.5103,-14.1602,-9.0942,96,1.0705,0,-19.5193,41.0653,25,0.7454,7721,4.0073,11.9642
rg,1625112514599546169,1,0.1042,-0.2188,1.3074,331,127.3804,4.0894,2.0142,96,1.0705,0,-19.1571,44.2239,25,0.7414,10113,4.0073,12.7792
rg,1625112514599563761,1,0.2671,-0.1597,1.2192,332,153.4424,6.2256,-0.2441,96,1.0665,0,-19.0029,48.435,25,0.7304,8650,4.0073,13.574
rg,1625112514599602206,1,0.0579,0.0659,1.0654,333,163.269,20.1416,-20.3247,96,1.0665,0,-17.4837,53.2096,25,0.7204,8508,4.0073,14.2668
rg,1625112514599622132,1,-0.2122,0.1042,1.0327,334,157.2266,18.9819,-27.5879,96,1.0655,0,-15.3662,57.5507,25,0.7053,8294,4.0073,14.3313
rg,1625112514599639521,1,-0.2783,0.0859,1.0459,335,142.8223,-10.8032,-36.377,96,1.0625,0,-13.4354,61.7111,25,0.6943,7803,4.0073,13.7069
rg,1625112514599657187,1,-0.2812,0.1514,1.033,336,135.1929,-56.7627,-41.0156,96,1.0635,0,-12.0955,65.9121,25,0.6843,8243,4.0073,11.3334
rg,1625112514599675002,1,-0.2231,0.3064,0.9751,337,131.958,-90.3931,-35.0342,96,1.0645,0,-11.3634,70.2729,25,0.6783,8426,4.0073,7.7639
rg,1625112514599692502,1,-0.1709,0.3062,0.9834,338,116.333,-104.3091,-30.6396,96,1.0625,0,-10.8458,73.9346,25,0.6743,8225,4.0073,3.7183
rg,1625112514599710539,1,0.0232,0.1973,1.1506,339,101.2573,-123.6572,-23.0713,96,1.0645,0,-11.0506,76.8581,25,0.6733,8262,4.0073,-0.993
rg,1625112514599727724,1,0.2036,0.2852,1.1528,340,101.1353,-127.3804,-16.0522,96,1.0655,0,-11.6222,79.8834,25,0.6763,7917,4.0073,-5.8236
rg,1625112514599745113,1,0.2629,0.3499,1.1023,341,95.0928,-126.5259,-13.0615,96,1.0665,0,-12.2646,82.4291,25,0.6833,8322,4.0073,-10.3749
rg,1625112514599762280,1,0.2092,0.3977,1.0994,342,60.791,-106.4453,-3.9673,96,1.0685,0,-12.7808,83.7585,25,0.6903,8626,4.0073,-14.2895
rg,1625112514599780521,1,0.1782,0.3193,1.1655,343,52.6733,-105.2246,0.6714,96,1.0705,0,-13.5106,84.4999,25,0.6963,8371,4.0073,-18.1839
rg,1625112514599798169,1,0.2405,0.3179,1.1797,344,46.0815,-112.3657,8.4839,96,1.0715,0,-14.4783,85.2909,25,0.6993,8396,4.0073,-22.2617
rg,1625112514599815910,1,0.4004,0.3569,1.1826,345,47.3633,-114.7461,13.3667,96,1.0725,0,-15.8138,86.3217,25,0.7013,8828,4.0073,-26.4425
rg,1625112514599833539,1,0.4529,0.4373,1.1724,346,44.3726,-100.0366,16.9067,96,1.0705,0,-17.208,87.2258,25,0.7003,8899,4.0073,-30.0152
rg,1625112514599850761,1,0.4043,0.4419,1.1665,347,35.1562,-86.9141,17.334,96,1.0655,0,-18.4579,87.6466,25,0.7013,8627,4.0073,-33.0122
rg,1625112514599879650,1,0.386,0.4126,1.1997,348,27.9541,-86.9751,15.3198,96,1.0605,-0.001,-19.5922,87.7841,25,0.6963,8630,4.0073,-35.975
rg,1625112514599898650,1,0.4167,0.3438,1.4172,349,24.6582,-87.5854,16.4795,96,1.0575,0,-20.7602,87.7983,25,0.7003,8401,4.0073,-38.9219
rg,1625112514599915817,1,0.6528,0.4563,1.1895,350,61.6455,-62.561,15.564,96,1.0535,0,-22.1321,89.2321,25,0.7013,10787,4.0073,-40.8864
rg,1625112514600018817,1,0.3093,0.1472,1.3025,351,52.9785,-39.856,14.2212,96,1.0545,0,-23.0928,89.6251,25,0.7023,8213,4.0073,-41.7069
rg,1625112514600043261,1,0.4822,0.3545,1.1973,352,62.3169,-59.6313,9.1553,96,1.0535,0,-23.9596,90.9346,25,0.7043,8268,4.0073,-43.441
rg,1625112514950912361,1,0.2578,0.2632,1.2102,353,57.1899,-51.0254,2.8076,96,1.0515,0,-24.2486,91.7517,25,0.7083,25492,4.0073,-44.7088
rg,1625112514950950491,1,0.3684,0.3191,1.1672,354,51.6357,-70.1904,-2.0142,96,1.0525,0,-24.4521,92.7569,25,0.7093,8505,4.0073,-46.8263
rg,1625112514950971324,1,0.4529,0.3115,1.134,355,44.6167,-69.3359,-9.3384,96,1.0525,0,-24.4789,93.5099,25,0.7093,7649,4.0073,-48.898
rg,1625112514950993583,1,0.4502,0.3145,1.1282,356,42.0532,-64.8193,-12.6343,96,1.0525,0,-24.3612,94.0639,25,0.7103,7787,4.0073,-50.7498
rg,1625112514951013417,1,0.4106,0.3525,1.0588,357,35.4004,-55.1147,-18.7988,96,1.0545,0,-23.9485,94.1644,25,0.7113,7706,4.0073,-52.1534
rg,1625112514951032213,1,0.4424,0.3096,1.103,358,25.5737,-49.3774,-23.0713,96,1.0555,0,-23.4642,93.7426,25,0.7123,10581,4.0073,-53.2988
rg,1625112514951050491,1,0.418,0.1011,1.2339,359,26.2451,-36.2549,-26.2451,96,1.0565,0,-22.98,93.0321,25,0.7143,8236,4.0073,-53.8559
rg,1625112514951068120,1,0.3882,0.0593,1.2573,360,37.4146,-29.4189,-26.4893,96,1.0565,0,-22.4851,92.6334,25,0.7143,7781,4.0073,-54.1387
rg,1625112514951085213,1,0.3599,0.1218,1.2209,361,62.9883,-15.686,-14.0381,96,1.0595,0,-22.4451,93.0336,25,0.7163,7751,4.0073,-53.8765
rg,1625112514951123472,1,0.4082,0.0588,1.2373,362,75.5615,-13.0615,-8.4229,96,1.0625,0,-22.9002,93.9766,25,0.7163,7767,4.0073,-53.5452
rg,1625112514951141954,1,0.5322,0.1838,1.0806,363,116.0889,1.2207,-13.7329,96,1.0605,0,-23.2141,96.3608,25,0.7133,11607,4.0073,-52.5849
rg,1625112514951159454,1,0.47,0.2595,1.0159,364,120.1782,10.0098,-18.3105,96,1.0615,0,-23.3053,98.7101,25,0.7103,7784,4.0073,-51.17
rg,1625112514951177157,1,0.3916,0.3477,0.9302,365,116.7603,17.5171,-20.1416,96,1.0615,0,-23.2479,100.7569,25,0.7083,7811,4.0073,-49.376
rg,1625112514951194843,1,0.3911,0.415,0.8743,366,112.1216,18.9819,-21.8506,96,1.0625,0,-23.1214,102.3529,25,0.7053,7773,4.0073,-47.4025
rg,1625112514951212713,1,0.375,0.4644,0.864,367,99.4873,26.5503,-24.7192,96,1.0625,0,-22.9325,103.5614,25,0.7023,7872,4.0073,-45.1574
rg,1625112514951230028,1,0.2656,0.5061,0.8098,368,81.7871,31.7383,-26.9775,96,1.0625,0,-22.49,103.9392,25,0.7013,10627,4.0073,-42.6532
rg,1625112514951246824,1,0.2251,0.4846,0.832,369,65.918,26.6724,-21.5454,96,1.0625,0,-22.1567,103.751,25,0.6993,8301,4.0073,-40.4197
rg,1625112514951263657,1,0.2739,0.394,0.9001,370,59.2651,19.8975,-14.7705,96,1.0645,0,-22.1975,103.4017,25,0.7003,7901,4.0073,-38.543
rg,1625112514951281509,1,0.3198,0.3733,0.9116,371,61.4624,18.4326,-10.1929,96,1.0635,0,-22.4996,103.198,25,0.7003,7896,4.0073,-36.7807
rg,1625112514951298843,1,0.377,0.4297,0.8608,372,70.1904,23.2544,-2.8076,96,1.0655,0,-23.1899,103.3594,25,0.7003,7882,4.0073,-34.9053
rg,1625112514951316287,1,0.3843,0.4397,0.8381,373,70.1294,27.4658,-1.1597,96,1.0655,0,-24.075,103.4191,25,0.7043,7889,4.0073,-32.696
rg,1625112514951333824,1,0.3772,0.427,0.8374,374,72.1436,33.5083,2.1362,96,1.0655,0,-25.0455,103.4441,25,0.7053,7908,4.0073,-30.3549
rg,1625112514951351898,1,0.3467,0.4258,0.8145,375,78.6133,39.1846,4.2114,96,1.0685,0,-26.0882,103.5732,25,0.7103,7957,4.0073,-27.7325
rg,1625112514951369917,1,0.3528,0.4292,0.7991,376,82.8857,38.5132,5.4321,96,1.0695,0,-27.2645,104.0464,25,0.7123,8021,4.0073,-25.074
rg,1625112514951398806,1,0.3674,0.449,0.7683,377,90.6982,42.2363,8.606,96,1.0695,0,-28.5255,104.5503,25,0.7133,8016,4.0073,-22.2649
rg,1625112514951417231,1,0.3469,0.4832,0.7456,378,98.5718,48.0957,10.376,96,1.0715,0,-29.8378,105.1899,25,0.7163,8069,4.0073,-19.1501
rg,1625112514951434380,1,0.3486,0.4919,0.7324,379,102.9053,50.9033,10.8643,96,1.0715,0,-31.2886,105.9581,25,0.7184,8109,4.0073,-15.7304
rg,1625112514951451268,1,0.3691,0.5266,0.7112,380,110.6567,54.7485,13.7939,96,1.0705,0,-32.8126,106.8243,25,0.7174,8170,4.0073,-12.2241
rg,1625112514951504954,1,0.3982,0.5586,0.6807,381,113.7085,60.0586,11.5356,96,1.0725,0,-34.3328,107.6186,25,0.7194,8184,4.0073,-8.3813
rg,1625112514951569139,1,0.4136,0.5881,0.6704,382,114.1357,63.6597,7.2021,96,1.0725,0,-35.7244,108.2118,25,0.7204,8200,4.0073,-4.2179
rg,1625112514951588250,1,0.4441,0.6079,0.6733,383,112.915,64.9414,6.2256,96,1.0715,0,-37.1197,108.6152,25,0.7204,8243,4.0073,0.1164
rg,1625112514951607380,1,0.5098,0.6389,0.6941,384,107.2388,73.3032,1.5259,96,1.0705,0,-38.4851,108.4101,25,0.7214,8203,4.0073,5.027
rg,1625112515300256577,1,0.988,0.7856,0.8831,385,86.4258,118.1641,0.4272,96,1.0735,0,-40.7742,104.6846,25,0.7244,24641,4.0073,13.7461
rg,1625112515300313577,1,0.7153,0.7849,0.9038,386,51.8799,217.1021,-6.897,96,1.0725,0,-42.3954,96.7082,25,0.7254,18872,4.0073,26.8024
rg,1625112515300334892,1,0.4824,0.7654,0.917,387,35.5835,234.0088,-7.4463,96,1.0725,0,-42.2091,87.1524,25,0.7254,7783,4.0073,41.0843
rg,1625112515300355059,1,0.3733,0.7505,0.9133,388,29.3579,234.8633,-5.6763,96,1.0725,0,-40.2555,78.0154,25,0.7264,7762,4.0073,54.8459
rg,1625112515300373651,1,0.0845,0.7183,0.8967,389,17.8223,228.1494,-5.9204,96,1.0725,0,-36.4854,70.0049,25,0.7264,7701,4.0073,67.0706
rg,1625112515300392318,1,-0.2085,0.6731,0.8945,390,7.3242,199.5239,-4.5776,96,1.0725,0,-31.7444,63.9165,25,0.7264,7787,4.0073,76.6539
rg,1625112515300410707,1,-0.3257,0.6072,0.908,391,2.3193,175.415,-2.6855,96,1.0725,0,-27.3564,59.661,25,0.7264,9298,4.0073,83.3371
rg,1625112515300429021,1,-0.3062,0.592,0.9272,392,-0.8545,125.8545,1.0376,96,1.0715,0,-23.3043,56.4918,25,0.7264,7751,4.0073,88.5637
rg,1625112515300486781,1,-0.2737,0.5686,0.9087,393,0.1831,84.8389,2.2583,96,1.0735,0,-20.1527,54.3802,25,0.7274,7739,4.0073,91.9989
rg,1625112515300508910,1,-0.2583,0.5449,0.8938,394,0.9766,67.8711,1.5259,96,1.0735,0,-17.3855,52.7472,25,0.7274,7727,4.0073,94.6472
rg,1625112515300527577,1,-0.2266,0.5308,0.8997,395,3.0518,40.6494,-1.0986,96,1.0725,0,-15.2832,51.6171,25,0.7264,7736,4.0073,96.2136
rg,1625112515300546707,1,-0.1833,0.5181,0.8743,396,9.0332,15.0757,-6.0425,96,1.0745,0,-13.7788,51.0583,25,0.7284,7801,4.0073,96.761
rg,1625112515300565318,1,-0.1663,0.5269,0.8745,397,12.146,5.7983,-10.9863,96,1.0725,0,-12.4346,50.7679,25,0.7274,7866,4.0073,96.8499
rg,1625112515300583484,1,-0.0779,0.5459,0.8535,398,19.6533,-15.0757,-19.8364,96,1.0745,0,-11.5631,51.0249,25,0.7294,7873,4.0073,96.0194
rg,1625112515300601818,1,-0.0364,0.5884,0.8625,399,22.8271,-20.4468,-21.9116,96,1.0745,0,-11.0655,51.7083,25,0.7294,7889,4.0073,94.6806
rg,1625112515300621114,1,0.0881,0.6355,0.8408,400,26.001,-26.123,-29.4189,96,1.0735,0,-10.5404,52.447,25,0.7284,7931,4.0073,93.2218
rg,1625112515300639318,1,0.0964,0.6714,0.8289,401,25.8789,-20.4468,-35.4004,96,1.0765,0,-9.7017,53.2023,25,0.7304,7955,4.0073,91.7941
rg,1625112515300657725,1,0.0823,0.686,0.8137,402,25.9399,-20.6299,-37.5977,96,1.0745,0,-8.7773,54.0279,25,0.7304,7920,4.0073,90.2988
rg,1625112515300676484,1,0.1021,0.7515,0.7896,403,23.7427,-24.6582,-38.6963,96,1.0745,0,-7.9588,54.799,25,0.7294,7984,4.0073,88.6458
rg,1625112515300694651,1,0.1477,0.77,0.7817,404,14.9536,-26.7334,-37.9639,96,1.0755,0,-7.3174,55.214,25,0.7314,7961,4.0073,86.9432
rg,1625112515300712021,1,0.1797,0.769,0.7939,405,7.8125,-26.9775,-35.2173,96,1.0785,0,-6.8522,55.287,25,0.7304,9282,4.0073,85.3
rg,1625112515300731670,1,0.2092,0.7607,0.79,406,3.1128,-27.6489,-32.4097,96,1.0755,0,-6.5755,55.1495,25,0.7344,9892,4.0073,83.6975
rg,1625112515300753392,1,0.2229,0.7576,0.7859,407,0.7324,-27.5879,-29.8462,96,1.0735,0,-6.4266,54.9117,25,0.7314,8088,4.0073,82.1524
rg,1625112515300788077,1,0.2651,0.741,0.7649,408,-1.8311,-25.8179,-25.5737,96,1.0755,0,-6.486,54.5714,25,0.7324,8024,4.0073,80.7603
rg,1625112515300807688,1,0.2812,0.7268,0.751,409,-3.2959,-22.0947,-22.644,96,1.0755,0,-6.6035,54.1672,25,0.7324,8046,4.0073,79.5562
rg,1625112515300825095,1,0.2844,0.7183,0.7388,410,-3.6621,-18.5547,-22.1558,96,1.0745,0,-6.6725,53.7569,25,0.7314,8328,4.0073,78.4758
rg,1625112515300843429,1,0.2791,0.6968,0.7219,411,-3.7231,-12.146,-20.4468,96,1.0755,0,-6.6547,53.3241,25,0.7324,8146,4.0073,77.6416
rg,1625112515300861262,1,0.2583,0.6709,0.7222,412,-2.9297,-6.3477,-18.0054,88,1.0765,0,-6.5507,52.8678,25,0.7334,8167,4.0106,77.0534
rg,1625112515300878392,1,0.2522,0.6665,0.7236,413,-1.5259,-2.3804,-18.4937,88,1.0765,0,-6.3323,52.4609,25,0.7334,8161,4.0106,76.5757
rg,1625112515300896058,1,0.2422,0.6501,0.7397,414,1.709,1.709,-16.7236,88,1.0725,0,-6.061,52.1265,25,0.7324,8221,4.0106,76.2708
rg,1625112515300914114,1,0.2454,0.6484,0.7415,415,5.249,6.6528,-16.6626,88,1.0755,0,-5.6896,51.9235,25,0.7334,8238,4.0106,76.1187
rg,1625112515300932540,1,0.249,0.6541,0.7427,416,7.8125,9.4604,-15.686,88,1.0755,0,-5.2386,51.8748,25,0.7334,8235,4.0106,76.1379
rg,1625112515649162146,1,0.2368,0.6714,0.7583,417,14.8926,19.043,-15.7471,88,1.0755,0,-4.5525,52.0596,25,0.7344,25449,4.0106,76.4562
rg,1625112515649203812,1,0.2224,0.676,0.7747,418,16.3574,25.0244,-15.3198,88,1.0755,0,-3.7642,52.2472,25,0.7344,8436,4.0106,76.9098
rg,1625112515649223923,1,0.2251,0.6965,0.7681,419,16.2354,26.1841,-13.3667,88,1.0765,0,-3.0623,52.4665,25,0.7344,7776,4.0106,77.4429
rg,1625112515649243016,1,0.2256,0.6941,0.7783,420,14.5264,29.1138,-12.9395,88,1.0765,0,-2.311,52.5911,25,0.7354,7671,4.0106,78.0795
rg,1625112515649261423,1,0.1548,0.6802,0.7739,421,14.0381,31.4331,-14.1602,88,1.0755,0,-1.3515,52.6785,25,0.7354,7659,4.0106,78.7575
rg,1625112515649300386,1,0.1602,0.6892,0.7681,422,14.4653,30.3345,-13.1226,88,1.0755,0,-0.5007,52.8133,25,0.7354,7632,4.0106,79.4194
rg,1625112515649318664,1,0.1401,0.6753,0.7671,423,12.0239,29.9683,-14.4043,88,1.0755,0,0.388,52.8335,25,0.7344,8597,4.0106,80.0343
rg,1625112515649336831,1,0.1267,0.6733,0.7759,424,10.9253,27.4048,-14.3433,88,1.0765,0,1.2094,52.8005,25,0.7344,9230,4.0106,80.5616
rg,1625112515649353979,1,0.1245,0.6711,0.7786,425,9.3994,23.8037,-15.5029,88,1.0805,0,1.9549,52.7034,25,0.7344,7716,4.0106,80.9381
rg,1625112515649371535,1,0.1343,0.6694,0.7913,426,9.3384,21.0571,-13.855,88,1.0755,0,2.5354,52.5901,25,0.7354,7718,4.0106,81.2584
rg,1625112515649388960,1,0.1082,0.6604,0.7827,427,8.9722,18.5547,-14.7705,88,1.0755,0,3.1159,52.4604,25,0.7364,7788,4.0106,81.4698
rg,1625112515649405442,1,0.1121,0.6726,0.7795,428,8.3618,16.7847,-16.6016,88,1.0775,0,3.6356,52.312,25,0.7364,7782,4.0106,81.5739
rg,1625112515649422294,1,0.1401,0.6682,0.7883,429,8.4839,12.085,-15.1978,88,1.0725,0,3.9647,52.1691,25,0.7364,7820,4.0106,81.5568
rg,1625112515649438923,1,0.1289,0.6682,0.782,430,8.8501,9.5825,-15.686,88,1.0765,0,4.258,52.0478,25,0.7364,7805,4.0106,81.4447
rg,1625112515649456146,1,0.1367,0.6736,0.7849,431,7.6904,8.1787,-15.3809,88,1.0755,0,4.4807,51.8865,25,0.7364,7872,4.0106,81.2924
rg,1625112515649473627,1,0.1558,0.6777,0.771,432,7.6904,6.5918,-15.8691,88,1.0765,0,4.628,51.7534,25,0.7364,7900,4.0106,81.0769
rg,1625112515649490183,1,0.1707,0.6826,0.7605,433,6.897,6.1035,-17.1509,88,1.0765,0,4.6992,51.6117,25,0.7374,12749,4.0106,80.822
rg,1625112515649506923,1,0.1697,0.6853,0.7637,434,6.0425,4.8828,-15.1978,88,1.0765,0,4.7441,51.4432,25,0.7374,8070,4.0106,80.5675
rg,1625112515649523275,1,0.1792,0.6853,0.7542,435,5.9204,5.3711,-15.625,88,1.0765,0,4.7895,51.291,25,0.7374,7923,4.0106,80.3175
rg,1625112515649539683,1,0.1826,0.6851,0.7517,436,5.3711,5.7373,-14.8315,88,1.0765,0,4.8091,51.1285,25,0.7374,7897,4.0106,80.0976
rg,1625112515649568090,1,0.1873,0.6892,0.7529,437,4.9438,7.1411,-15.3809,88,1.0765,0,4.871,50.9626,25,0.7374,7908,4.0106,79.9071
rg,1625112515649585775,1,0.1909,0.6843,0.7517,438,5.0659,7.6904,-15.3809,88,1.0755,0,4.9347,50.8034,25,0.7374,8388,4.0106,79.7314
rg,1625112515649602331,1,0.1917,0.6804,0.748,439,5.0049,7.9346,-13.916,88,1.0765,0,4.9527,50.6507,25,0.7374,8515,4.0106,79.5987
rg,1625112515649619590,1,0.1936,0.6892,0.749,440,5.188,9.7046,-15.3198,88,1.0765,0,5.0539,50.5135,25,0.7374,8011,4.0106,79.4841
rg,1625112515649636183,1,0.1941,0.6792,0.7559,441,5.6152,11.5356,-14.7705,88,1.0745,0,5.1813,50.3904,25,0.7364,8052,4.0106,79.4372
rg,1625112515649653090,1,0.1877,0.6821,0.7559,442,5.5542,11.2305,-13.7329,88,1.0765,0,5.2779,50.2753,25,0.7374,8087,4.0106,79.4058
rg,1625112515649670294,1,0.1831,0.6824,0.7554,443,6.6528,12.4512,-13.916,88,1.0775,0,5.4271,50.1887,25,0.7384,8527,4.0106,79.4199
rg,1625112515649687553,1,0.179,0.6816,0.7637,444,7.019,13.2446,-14.4043,88,1.0775,0,5.6196,50.134,25,0.7384,8118,4.0106,79.4293
rg,1625112515649704460,1,0.1704,0.6799,0.7625,445,6.958,14.0991,-14.7095,88,1.0755,0,5.84,50.0764,25,0.7374,8172,4.0106,79.4553
rg,1625112515649720664,1,0.1575,0.6829,0.7598,446,7.2632,14.0381,-15.564,88,1.0775,0,6.1036,50.0388,25,0.7384,8168,4.0106,79.4562
rg,1625112515649737183,1,0.1587,0.687,0.7581,447,7.5684,14.0991,-15.9302,88,1.0775,0,6.3402,50.0254,25,0.7384,8177,4.0106,79.4491
rg,1625112515649753701,1,0.1548,0.6899,0.7629,448,7.2632,14.2212,-16.9067,88,1.0755,0,6.6382,49.9931,25,0.7374,8253,4.0106,79.4184
rg,1625112516009125693,1,0.1467,0.6985,0.7502,449,7.019,11.7798,-15.686,88,1.0775,0,6.8362,49.9808,25,0.7384,25266,4.0106,79.3457
rg,1625112516009229508,1,0.1494,0.7039,0.7527,450,6.4697,10.9253,-15.686,88,1.0775,0,7.0392,49.9449,25,0.7384,8462,4.0106,79.249
rg,1625112516009251360,1,0.1438,0.7075,0.7544,451,6.897,10.8643,-16.1133,88,1.0775,0,7.2243,49.9305,25,0.7384,8995,4.0106,79.1352
rg,1625112516009270508,1,0.1489,0.7036,0.7529,452,6.6528,10.2539,-15.7471,88,1.0765,0,7.3639,49.9015,25,0.7384,7686,4.0106,79.0105
rg,1625112516009288841,1,0.1558,0.7051,0.7488,453,5.7373,10.437,-15.9302,88,1.0775,0,7.464,49.8336,25,0.7384,7709,4.0106,78.8861
rg,1625112516009307323,1,0.1541,0.7046,0.7534,454,5.6763,10.1929,-15.2588,88,1.0775,0,7.5673,49.7713,25,0.7384,9009,4.0106,78.7703
rg,1625112516009324397,1,0.1606,0.7019,0.7556,455,4.1504,10.6201,-15.0757,88,1.0775,0,7.6584,49.6453,25,0.7384,11927,4.0106,78.6705
rg,1625112516009342286,1,0.1572,0.7039,0.7524,456,4.5776,11.0474,-15.3198,88,1.0775,0,7.7708,49.5496,25,0.7384,8005,4.0106,78.5771
rg,1625112516009359045,1,0.158,0.697,0.7498,457,5.3101,11.4136,-15.2588,88,1.0775,0,7.883,49.4815,25,0.7384,7669,4.0106,78.4944
rg,1625112516009375878,1,0.1531,0.6978,0.7522,458,5.249,11.4136,-15.4419,88,1.0775,0,7.9381,49.3988,25,0.7394,7615,4.0106,78.4295
rg,1625112516009392767,1,0.1558,0.6965,0.7559,459,5.3101,11.9019,-15.0146,88,1.0775,0,8.055,49.329,25,0.7394,8048,4.0106,78.3648
rg,1625112516009410545,1,0.1602,0.6938,0.7471,460,5.4321,11.1694,-14.8315,88,1.0775,0,8.131,49.2732,25,0.7394,7766,4.0106,78.2826
rg,1625112516009428156,1,0.1587,0.6938,0.7502,461,5.4321,11.8408,-13.855,88,1.0785,0,8.1958,49.2212,25,0.7394,8973,4.0106,78.2451
rg,1625112516009446304,1,0.1555,0.698,0.7517,462,5.7983,11.7188,-14.7095,88,1.0755,0,8.2885,49.1862,25,0.7384,8127,4.0106,78.1814
rg,1625112516009463064,1,0.158,0.7004,0.7493,463,5.0049,11.8408,-15.5029,88,1.0765,0,8.3996,49.126,25,0.7384,8680,4.0106,78.101
rg,1625112516009490897,1,0.1616,0.6953,0.75,464,4.8828,11.1694,-14.2212,88,1.0775,0,8.4418,49.0558,25,0.7394,8175,4.0106,78.0315
rg,1625112516009526138,1,0.1633,0.6965,0.7451,465,4.0283,11.1694,-13.4888,88,1.0775,0,8.5026,48.9859,25,0.7394,8218,4.0106,77.977
rg,1625112516009545749,1,0.1628,0.6946,0.7507,466,4.5166,11.8408,-14.2822,88,1.0765,0,8.5577,48.9068,25,0.7384,8256,4.0106,77.9247
rg,1625112516009563360,1,0.1665,0.6953,0.7505,467,4.3335,11.7188,-13.6108,88,1.0775,0,8.5798,48.8271,25,0.7384,8233,4.0106,77.8859
rg,1625112516009580749,1,0.1599,0.6936,0.7471,468,4.5776,11.5967,-13.6108,88,1.0785,0,8.6102,48.7618,25,0.7394,8367,4.0106,77.843
rg,1625112516009597675,1,0.1599,0.6926,0.7498,469,4.5776,10.9863,-13.9771,88,1.0765,0,8.6349,48.689,25,0.7384,8256,4.0106,77.7703
rg,1625112516009615286,1,0.1616,0.6948,0.7463,470,5.3711,10.9863,-14.5264,88,1.0755,0,8.6711,48.6572,25,0.7394,8662,4.0106,77.6838
rg,1625112516009633230,1,0.1636,0.6943,0.7463,471,5.0049,11.6577,-14.1602,88,1.0815,0,8.7083,48.6157,25,0.7394,8662,4.0106,77.627
rg,1625112516009651101,1,0.1614,0.6921,0.7461,472,5.9814,12.0239,-14.5874,88,1.0775,0,8.7707,48.6114,25,0.7394,8691,4.0106,77.569
rg,1625112516009668156,1,0.1677,0.697,0.7488,473,5.7373,12.085,-15.0146,88,1.0785,0,8.8336,48.6001,25,0.7394,8750,4.0106,77.5018
rg,1625112516009684897,1,0.1653,0.6968,0.7559,474,6.2256,12.207,-13.5498,88,1.0775,0,8.8603,48.604,25,0.7384,8372,4.0106,77.4754
rg,1625112516009702527,1,0.1577,0.6953,0.7498,475,5.7373,12.5732,-14.6484,88,1.0785,0,8.9422,48.5921,25,0.7404,8048,4.0106,77.4316
rg,1625112516009719749,1,0.1587,0.7,0.741,476,5.7983,11.7798,-13.7329,88,1.0785,0,8.9551,48.5958,25,0.7404,8427,4.0106,77.3956
rg,1625112516009736897,1,0.1572,0.7014,0.7507,477,6.3477,12.2681,-14.7705,88,1.0765,0,9.0315,48.6148,25,0.7384,8828,4.0106,77.3402
rg,1625112516009753619,1,0.1614,0.7019,0.7437,478,6.2256,12.6343,-15.0757,88,1.0775,0,9.1136,48.6403,25,0.7394,8099,4.0106,77.2894
rg,1625112516009770786,1,0.1572,0.696,0.7463,479,6.2866,13.1226,-14.8315,88,1.0775,0,9.2062,48.6569,25,0.7394,8948,4.0106,77.2578
rg,1625112516009806101,1,0.1565,0.7004,0.748,480,5.9204,13.3057,-15.686,88,1.0785,0,9.3285,48.6599,25,0.7394,9857,4.0106,77.2094
rg,1625112516356182119,1,0.1465,0.697,0.7432,481,6.0425,13.2446,-15.9302,88,1.0785,0,9.471,48.6677,25,0.7404,26824,4.0106,77.1523
rg,1625112516356233304,1,0.1465,0.7036,0.7471,482,6.4087,12.207,-14.4653,88,1.0785,0,9.5389,48.6957,25,0.7404,8402,4.0106,77.103
rg,1625112516356265027,1,0.146,0.6992,0.7451,483,6.5918,13.3667,-16.3574,88,1.0785,0,9.6913,48.7232,25,0.7404,7709,4.0106,77.0378
rg,1625112516356294119,1,0.1399,0.7053,0.7451,484,6.4087,12.9395,-15.9302,88,1.0785,0,9.8136,48.7304,25,0.7404,7634,4.0106,76.9483
rg,1625112516356321175,1,0.1411,0.7124,0.7405,485,6.2256,11.7798,-16.2964,88,1.0785,0,9.9235,48.7618,25,0.7394,7665,4.0106,76.8402
rg,1625112516356347582,1,0.1384,0.7131,0.7434,486,6.1646,11.9629,-15.8081,88,1.0785,0,10.0257,48.7891,25,0.7404,7627,4.0106,76.7498
rg,1625112516356374841,1,0.1406,0.7095,0.7439,487,5.8594,11.6577,-15.4419,88,1.0785,0,10.0927,48.8246,25,0.7404,7893,4.0106,76.6652
rg,1625112516356401452,1,0.1372,0.7124,0.7478,488,6.1035,11.0474,-14.7095,88,1.0775,0,10.1349,48.8392,25,0.7394,7711,4.0106,76.5745
rg,1625112516356427212,1,0.1465,0.7136,0.7417,489,5.0659,11.0474,-14.8315,88,1.0795,0,10.159,48.8228,25,0.7404,7698,4.0106,76.4825
rg,1625112516356452934,1,0.1428,0.7178,0.7422,490,4.8828,10.8032,-14.2212,88,1.0775,0,10.1657,48.807,25,0.7394,7712,4.0106,76.4002
rg,1625112516356477786,1,0.1465,0.7141,0.7375,491,4.5166,11.0474,-14.0381,88,1.0785,0,10.1639,48.7808,25,0.7394,7759,4.0106,76.3304
rg,1625112516356522638,1,0.1431,0.7112,0.7424,492,4.0283,10.1929,-14.7705,88,1.0795,0,10.1693,48.7157,25,0.7414,7764,4.0106,76.2126
rg,1625112516356548582,1,0.1492,0.7175,0.7427,493,4.5166,10.9253,-15.1978,88,1.0775,0,10.1951,48.6844,25,0.7394,7761,4.0106,76.1071
rg,1625112516356573471,1,0.1467,0.7095,0.7434,494,4.2725,11.0474,-15.3198,88,1.0805,0,10.2305,48.6305,25,0.7414,7833,4.0106,75.9993
rg,1625112516356597786,1,0.1472,0.7112,0.7395,495,3.7231,10.498,-14.2822,88,1.0785,0,10.2119,48.5895,25,0.7404,7817,4.0106,75.8921
rg,1625112516356649119,1,0.1489,0.7109,0.7432,496,3.7842,10.6201,-13.3057,88,1.0755,0,10.1706,48.5298,25,0.7404,7829,4.0106,75.8251
rg,1625112516356676267,1,0.145,0.7063,0.7393,497,4.0894,11.2915,-14.8315,88,1.0785,0,10.2005,48.4793,25,0.7404,7867,4.0106,75.7372
rg,1625112516356701638,1,0.1423,0.7083,0.7427,498,4.5776,10.9863,-13.4888,88,1.0785,0,10.1599,48.4203,25,0.7404,7920,4.0106,75.6614
rg,1625112516356726952,1,0.144,0.7078,0.7439,499,3.6621,10.7422,-14.3433,88,1.0795,0,10.1197,48.3532,25,0.7414,9796,4.0106,75.5564
rg,1625112516356751804,1,0.1479,0.7109,0.7451,500,3.3569,10.6201,-14.2212,88,1.0775,0,10.1113,48.2781,25,0.7394,7953,4.0106,75.4634
rg,1625112516356777063,1,0.1533,0.7117,0.7444,501,2.6855,10.8643,-13.6719,88,1.0795,0,10.0822,48.1854,25,0.7404,7920,4.0106,75.3927
rg,1625112516356802286,1,0.146,0.7053,0.7483,502,3.6621,10.6812,-13.4277,88,1.0785,0,10.0567,48.1191,25,0.7414,10982,4.0106,75.3197
rg,1625112516356828212,1,0.1465,0.7014,0.7471,503,3.2349,11.1084,-13.0005,88,1.0785,0,10.0289,48.0381,25,0.7414,8121,4.0106,75.2702
rg,1625112516356854489,1,0.1531,0.707,0.7437,504,3.6011,10.5591,-13.0615,88,1.0785,0,9.9758,47.9861,25,0.7414,8016,4.0106,75.2046
rg,1625112516356881767,1,0.1472,0.7014,0.7422,505,3.0518,11.2305,-13.916,88,1.0795,0,9.9787,47.9067,25,0.7404,8051,4.0106,75.1349
rg,1625112516356907823,1,0.1462,0.7029,0.7471,506,3.6011,11.0474,-12.5732,88,1.0785,0,9.9401,47.8525,25,0.7414,8114,4.0106,75.0947
rg,1625112516356933841,1,0.1479,0.7058,0.7451,507,4.0894,11.6577,-13.6719,88,1.0795,0,9.9448,47.8193,25,0.7414,8734,4.0106,75.0432
rg,1625112516356959563,1,0.1462,0.7019,0.7456,508,3.9062,10.9253,-13.3057,88,1.0775,0,9.9253,47.7772,25,0.7404,8651,4.0106,74.9792
rg,1625112516356985952,1,0.1475,0.7107,0.738,509,3.9062,11.4136,-13.855,88,1.0805,0,9.9332,47.7624,25,0.7404,8301,4.0106,74.9193
rg,1625112516357011563,1,0.1406,0.7068,0.7424,510,4.2725,10.376,-13.1836,88,1.0785,0,9.9075,47.7473,25,0.7414,8252,4.0106,74.844
rg,1625112516357069100,1,0.1492,0.718,0.7412,511,3.9673,11.1084,-13.3057,88,1.0775,0,9.8901,47.7439,25,0.7404,8193,4.0106,74.7909
rg,1625112516357100804,1,0.144,0.7095,0.7427,512,3.7231,10.376,-13.7939,88,1.0805,0,9.8775,47.7088,25,0.7404,8257,4.0106,74.6998
rg,1625112516714688617,1,0.1453,0.7114,0.731,513,3.2959,10.8643,-14.4043,88,1.0795,0,9.8357,47.6895,25,0.7414,25095,4.0106,74.6284
rg,1625112516714724302,1,0.1392,0.7041,0.7419,514,3.7231,10.1929,-13.3057,88,1.0795,0,9.8149,47.6503,25,0.7414,10519,4.0106,74.5436
rg,1625112516714744376,1,0.1477,0.7065,0.7393,515,3.54,9.7046,-12.6953,88,1.0795,0,9.7458,47.614,25,0.7424,7770,4.0106,74.4621
rg,1625112516714763320,1,0.1475,0.7097,0.7415,516,3.6621,10.9863,-13.916,88,1.0795,0,9.7299,47.585,25,0.7414,8080,4.0106,74.3622
rg,1625112516714781080,1,0.147,0.7119,0.7441,517,3.3569,10.3149,-13.7939,88,1.0795,0,9.713,47.5394,25,0.7414,7689,4.0106,74.2685
rg,1625112516714798172,1,0.1482,0.7102,0.7483,518,3.54,11.2915,-14.6484,88,1.0795,-0.001,9.7494,47.4984,25,0.7424,7701,4.0106,74.1797
rg,1625112516714816524,1,0.1467,0.7046,0.7412,519,3.54,10.0708,-13.7939,88,1.0795,0,9.7268,47.4585,25,0.7424,7770,4.0106,74.0776
rg,1625112516714834080,1,0.1511,0.7104,0.7424,520,3.418,9.8877,-12.8784,88,1.0815,0,9.6594,47.4204,25,0.7444,7960,4.0106,73.9952
rg,1625112516714851561,1,0.1528,0.71,0.738,521,3.479,10.376,-13.4888,88,1.0775,0,9.627,47.3978,25,0.7414,7739,4.0106,73.9128
rg,1625112516714868487,1,0.1501,0.7048,0.7402,522,3.6621,10.6812,-14.0381,88,1.0805,0,9.6253,47.3707,25,0.7424,7778,4.0106,73.8224
rg,1625112516714885302,1,0.1504,0.7104,0.7407,523,3.9673,10.3149,-13.5498,88,1.0785,0,9.6,47.3655,25,0.7414,7784,4.0106,73.7357
rg,1625112516714902005,1,0.1482,0.7043,0.74,524,3.1738,10.1318,-12.6953,88,1.0795,0,9.5489,47.3232,25,0.7424,7841,4.0106,73.6655
rg,1625112516714931394,1,0.1509,0.7031,0.7375,525,3.9062,10.437,-14.0381,88,1.0795,0,9.541,47.309,25,0.7424,12403,4.0106,73.5679
rg,1625112516714949487,1,0.1453,0.7092,0.741,526,3.7842,10.498,-12.8784,88,1.0795,0,9.5144,47.3004,25,0.7424,9388,4.0106,73.5045
rg,1625112516714966839,1,0.1475,0.7073,0.7422,527,4.2725,10.8643,-14.2212,88,1.0795,0,9.5335,47.3024,25,0.7424,7858,4.0106,73.4145
rg,1625112516714986172,1,0.1467,0.7053,0.7388,528,3.54,10.7422,-14.1602,88,1.0795,0,9.5153,47.2905,25,0.7424,7920,4.0106,73.346
rg,1625112516715003579,1,0.1472,0.7117,0.7424,529,4.0283,11.1084,-13.7939,88,1.0805,0,9.5298,47.293,25,0.7424,7930,4.0106,73.276
rg,1625112516715019617,1,0.1506,0.7131,0.7397,530,3.6011,10.8643,-13.7329,85,1.0795,0,9.5279,47.2839,25,0.7424,8216,4.0095,73.2015
rg,1625112516715035672,1,0.1538,0.7114,0.7397,531,3.6621,11.2305,-13.3667,85,1.0785,0,9.5184,47.2784,25,0.7444,7975,4.0095,73.1475
rg,1625112516715051968,1,0.1477,0.7085,0.7437,532,3.418,11.1694,-14.0381,85,1.0785,0,9.5402,47.2492,25,0.7414,7955,4.0095,73.0714
rg,1625112516715068246,1,0.1484,0.7063,0.7351,533,3.54,11.1694,-13.7939,85,1.0795,0,9.5502,47.2367,25,0.7424,8000,4.0095,73.0034
rg,1625112516715084413,1,0.1492,0.7063,0.7373,534,3.479,11.3525,-13.855,85,1.0805,0,9.5655,47.2195,25,0.7424,8036,4.0095,72.9385
rg,1625112516715101172,1,0.1455,0.7063,0.739,535,3.418,11.3525,-13.1226,85,1.0785,0,9.5668,47.2012,25,0.7424,8022,4.0095,72.8932
rg,1625112516715117468,1,0.1494,0.7092,0.7412,536,4.1504,11.1694,-14.0991,85,1.0795,0,9.5785,47.2161,25,0.7434,10656,4.0095,72.8169
rg,1625112516715133876,1,0.1489,0.7104,0.7434,537,3.7231,11.7188,-13.7329,85,1.0795,0,9.6016,47.2091,25,0.7414,8118,4.0095,72.7656
rg,1625112516715150228,1,0.1548,0.7075,0.739,538,3.7842,11.5356,-13.6719,85,1.0785,0,9.6036,47.2062,25,0.7424,8237,4.0095,72.7109
rg,1625112516715166691,1,0.147,0.708,0.7388,539,3.6621,11.3525,-13.1836,85,1.0805,0,9.6281,47.1959,25,0.7434,8133,4.0095,72.6482
rg,1625112516715195876,1,0.1482,0.7061,0.74,540,4.3335,10.9253,-12.146,85,1.0785,0,9.5813,47.2155,25,0.7424,8183,4.0095,72.6163
rg,1625112516715212839,1,0.1499,0.7114,0.7393,541,3.7842,11.4746,-14.2212,85,1.0795,0,9.6093,47.2153,25,0.7414,8191,4.0095,72.5457
rg,1625112516715229098,1,0.1467,0.7083,0.739,542,3.6011,10.9253,-12.9395,85,1.0805,0,9.6338,47.2095,25,0.7434,8200,4.0095,72.4686
rg,1625112516715245598,1,0.1479,0.7114,0.7441,543,3.7231,11.4746,-13.9771,85,1.0785,0,9.6578,47.2006,25,0.7424,8264,4.0095,72.4032
rg,1625112516715348450,1,0.1531,0.7124,0.7361,544,3.3569,12.3291,-14.5874,85,1.0805,0,9.7096,47.193,25,0.7424,8269,4.0095,72.3488
rg,1625112517059604025,1,0.1489,0.7041,0.7332,545,3.7842,11.7188,-14.0991,85,1.0805,0,9.7351,47.1931,25,0.7424,24024,4.0095,72.288
rg,1625112517059676340,1,0.1487,0.7112,0.7354,546,3.6011,11.5967,-14.8315,85,1.0805,0,9.78,47.1896,25,0.7434,15565,4.0095,72.2046
rg,1625112517059697766,1,0.1465,0.708,0.7358,547,3.54,11.1084,-13.3057,85,1.0805,0,9.7695,47.1827,25,0.7434,9404,4.0095,72.1475
rg,1625112517059718266,1,0.1475,0.7151,0.7385,548,3.54,11.3525,-13.855,85,1.0805,0,9.7818,47.1818,25,0.7434,7645,4.0095,72.0838
rg,1625112517059736858,1,0.1418,0.7109,0.7417,549,3.6621,11.3525,-13.4888,85,1.0805,0,9.784,47.1796,25,0.7434,7672,4.0095,72.0287
rg,1625112517059755377,1,0.1484,0.7122,0.7451,550,4.1504,11.1694,-13.1836,85,1.0805,0,9.7701,47.1907,25,0.7434,7698,4.0095,71.9755
rg,1625112517059773655,1,0.1448,0.7112,0.7383,551,3.418,11.1694,-13.7939,85,1.0805,0,9.7805,47.1781,25,0.7434,7709,4.0095,71.907
rg,1625112517059790581,1,0.1489,0.71,0.741,552,3.54,11.6577,-14.5264,85,1.0795,0,9.8169,47.1639,25,0.7424,8128,4.0095,71.8318
rg,1625112517059807229,1,0.1504,0.7114,0.74,553,3.6011,11.2305,-14.8926,85,1.0805,0,9.8482,47.1526,25,0.7434,7740,4.0095,71.7343
rg,1625112517059823562,1,0.1458,0.7068,0.7373,554,3.6621,11.3525,-12.9395,85,1.0795,0,9.8325,47.1506,25,0.7424,8935,4.0095,71.6934
rg,1625112517059842895,1,0.145,0.71,0.7356,555,3.9062,11.3525,-13.4277,85,1.0795,0,9.8334,47.1638,25,0.7434,8029,4.0095,71.6405
rg,1625112517059909895,1,0.1455,0.7139,0.7417,556,3.9062,11.1694,-13.4888,85,1.0785,0,9.8321,47.1721,25,0.7434,8204,4.0095,71.5799
rg,1625112517059929044,1,0.1438,0.7078,0.7358,557,3.7842,11.2915,-13.3667,85,1.0785,0,9.8318,47.1757,25,0.7434,8308,4.0095,71.5263
rg,1625112517059946173,1,0.1479,0.71,0.74,558,3.6011,11.5356,-14.0991,85,1.0805,0,9.8523,47.1668,25,0.7464,8113,4.0095,71.4594
rg,1625112517059963599,1,0.1436,0.7073,0.7395,559,3.6621,11.1694,-13.7939,85,1.0785,0,9.8617,47.1566,25,0.7424,7755,4.0095,71.3891
rg,1625112517059981951,1,0.1421,0.7073,0.739,560,4.5166,11.4746,-13.7939,85,1.0805,0,9.8819,47.1832,25,0.7424,7792,4.0095,71.328
rg,1625112517059999414,1,0.1472,0.7114,0.7371,561,3.54,11.1694,-13.0615,85,1.0805,0,9.8613,47.1814,25,0.7434,8167,4.0095,71.2798
rg,1625112517060018840,1,0.1465,0.7109,0.7415,562,3.7842,11.2915,-13.9771,85,1.0785,0,9.874,47.1782,25,0.7424,8195,4.0095,71.2087
rg,1625112517060039136,1,0.1453,0.7129,0.7344,563,3.418,10.6812,-13.3667,85,1.0805,0,9.8532,47.1744,25,0.7434,7872,4.0095,71.1386
rg,1625112517060056747,1,0.1462,0.7136,0.7393,564,3.54,11.1084,-14.0991,85,1.0805,0,9.8653,47.1678,25,0.7444,8591,4.0095,71.0601
rg,1625112517060073784,1,0.1487,0.7097,0.7454,565,3.1738,11.6577,-14.0991,85,1.0785,0,9.8874,47.1341,25,0.7424,8271,4.0095,70.9951
rg,1625112517060090451,1,0.1511,0.7029,0.7429,566,3.0518,11.4136,-13.7939,85,1.0775,0,9.8863,47.0899,25,0.7434,8318,4.0095,70.9298
rg,1625112517060108136,1,0.1514,0.7156,0.7393,567,3.479,11.7188,-13.7329,85,1.0815,0,9.8927,47.0921,25,0.7444,8331,4.0095,70.8795
rg,1625112517060126747,1,0.1467,0.71,0.7451,568,3.54,11.2915,-13.3667,85,1.0805,0,9.9516,47.0736,25,0.7444,8451,4.0095,70.834
rg,1625112517060146247,1,0.1453,0.7095,0.7468,569,4.0283,11.9629,-14.1602,85,1.0785,0,9.9877,47.0761,25,0.7434,7990,4.0095,70.7752
rg,1625112517060164803,1,0.1421,0.7112,0.7373,570,3.7842,11.7188,-13.9771,85,1.0805,0,10.0153,47.0856,25,0.7444,8403,4.0095,70.717
rg,1625112517060202469,1,0.1431,0.7131,0.7356,571,3.6011,11.7188,-13.4277,85,1.0815,0,10.0029,47.1091,25,0.7444,8192,4.0095,70.6813
rg,1625112517060223062,1,0.136,0.7119,0.74,572,4.0283,11.3525,-13.7939,85,1.0795,0,10.028,47.123,25,0.7444,8703,4.0095,70.6169
rg,1625112517060240543,1,0.137,0.7097,0.7439,573,3.6011,11.2305,-14.0991,85,1.0805,0,10.0562,47.1077,25,0.7434,8835,4.0095,70.5388
rg,1625112517060257506,1,0.1367,0.7158,0.7375,574,3.7231,11.2305,-14.1602,85,1.0785,0,10.0853,47.117,25,0.7434,8656,4.0095,70.4622
rg,1625112517060274451,1,0.1448,0.7139,0.7361,575,3.7231,11.0474,-13.4277,85,1.0805,0,10.0697,47.1278,25,0.7424,8886,4.0095,70.4004
rg,1625112517060291284,1,0.1472,0.7112,0.7354,576,3.6621,10.8643,-13.9771,85,1.0805,0,10.0601,47.1291,25,0.7444,8621,4.0095,70.3174
rg,1625112517410224807,1,0.1436,0.7107,0.7319,577,3.6011,11.3525,-13.916,85,1.0805,0,10.0637,47.1523,25,0.7444,25668,4.0095,70.2433
rg,1625112517410327714,1,0.1475,0.7095,0.7332,578,4.5166,11.3525,-14.1602,85,1.0805,0,10.0717,47.1892,25,0.7444,10160,4.0095,70.1702
rg,1625112517410350973,1,0.145,0.7085,0.7358,579,3.3569,11.2305,-13.5498,85,1.0805,0,10.0637,47.1748,25,0.7444,7705,4.0095,70.1094
rg,1625112517410371029,1,0.1428,0.7146,0.7314,580,3.9673,11.3525,-13.3057,85,1.0805,0,10.0568,47.2038,25,0.7444,7676,4.0095,70.0618
rg,1625112517410391473,1,0.1433,0.7134,0.7368,581,3.54,11.3525,-13.7939,85,1.0805,0,10.0644,47.202,25,0.7444,7678,4.0095,69.9992
rg,1625112517410413825,1,0.1394,0.7102,0.7363,582,3.6011,11.4136,-14.4653,85,1.0805,0,10.1005,47.1953,25,0.7444,9404,4.0095,69.919
rg,1625112517410434214,1,0.1411,0.7146,0.74,583,3.6621,11.2915,-13.7329,85,1.0815,0,10.1306,47.1613,25,0.7444,7902,4.0095,69.8538
rg,1625112517410452455,1,0.1443,0.7087,0.7444,584,3.6621,11.2305,-14.3433,85,1.0795,0,10.1469,47.1434,25,0.7444,7886,4.0095,69.7686
rg,1625112517410469121,1,0.1401,0.7048,0.7375,585,3.7842,11.1694,-13.3057,85,1.0795,0,10.1371,47.1401,25,0.7444,7735,4.0095,69.7107
rg,1625112517410513047,1,0.1453,0.7134,0.7405,586,4.2725,12.2681,-14.4043,85,1.0795,0,10.181,47.1659,25,0.7434,7730,4.0095,69.657
rg,1625112517410532214,1,0.1438,0.7122,0.7363,587,3.9062,11.1084,-13.3057,85,1.0805,0,10.1616,47.1799,25,0.7444,7711,4.0095,69.5998
rg,1625112517410549399,1,0.1418,0.708,0.739,588,3.8452,11.3525,-14.1602,85,1.0815,0,10.1786,47.1772,25,0.7454,7937,4.0095,69.5245
rg,1625112517410566603,1,0.1418,0.7124,0.74,589,3.54,11.1084,-13.2446,85,1.0795,0,10.1624,47.1712,25,0.7444,7882,4.0095,69.4681
rg,1625112517410584807,1,0.1445,0.7122,0.7393,590,2.9297,11.1694,-13.3667,85,1.0805,0,10.1462,47.1415,25,0.7434,7870,4.0095,69.4103
rg,1625112517410602140,1,0.1423,0.71,0.7454,591,3.54,11.9629,-14.5264,85,1.0805,0,10.1598,47.141,25,0.7454,7890,4.0095,69.3615
rg,1625112517410620307,1,0.1462,0.7095,0.7437,592,3.6011,11.1084,-13.3057,85,1.0805,0,10.1373,47.1282,25,0.7444,9609,4.0095,69.3014
rg,1625112517410638103,1,0.1475,0.7104,0.7405,593,3.6011,11.4746,-13.6108,85,1.0805,0,10.1314,47.1229,25,0.7454,7873,4.0095,69.245
rg,1625112517410657584,1,0.1409,0.71,0.7344,594,3.479,11.3525,-13.4888,85,1.0805,0,10.1311,47.1213,25,0.7454,7948,4.0095,69.1898
rg,1625112517410677140,1,0.1458,0.7126,0.74,595,3.6011,11.2305,-13.6108,85,1.0805,0,10.1227,47.1192,25,0.7454,7942,4.0095,69.1269
rg,1625112517410693436,1,0.1436,0.7141,0.7393,596,3.9062,11.6577,-13.5498,85,1.0805,0,10.129,47.1353,25,0.7454,7935,4.0095,69.079
rg,1625112517410711418,1,0.1414,0.7134,0.7349,597,3.6011,11.3525,-13.855,85,1.0805,0,10.1392,47.1411,25,0.7454,8062,4.0095,69.0146
rg,1625112517410728881,1,0.1445,0.7126,0.7429,598,3.6011,11.2915,-13.5498,85,1.0805,0,10.1335,47.1342,25,0.7454,8023,4.0095,68.9544
rg,1625112517410747473,1,0.1475,0.7158,0.7344,599,3.6621,10.9253,-12.7563,85,1.0805,0,10.0875,47.1504,25,0.7444,8501,4.0095,68.9084
rg,1625112517410775325,1,0.1411,0.7097,0.739,600,3.418,10.498,-13.5498,85,1.0805,0,10.068,47.1331,25,0.7454,8055,4.0095,68.8249
rg,1625112517410824955,1,0.1428,0.7183,0.7405,601,3.8452,11.2915,-14.0991,85,1.0845,0,10.085,47.1464,25,0.7444,8090,4.0095,68.752
rg,1625112517410847232,1,0.1394,0.7141,0.7463,602,3.479,11.7188,-13.7939,85,1.0785,0,10.1116,47.1326,25,0.7454,8109,4.0095,68.6974
rg,1625112517410865084,1,0.1384,0.7153,0.7375,603,3.6621,11.1694,-13.1836,85,1.0815,0,10.1048,47.1421,25,0.7464,8258,4.0095,68.6459
rg,1625112517410882455,1,0.1416,0.7136,0.7346,604,4.0894,11.5967,-14.4653,85,1.0815,0,10.0928,47.1386,25,0.7454,8166,4.0095,68.5948
rg,1625112517410901825,1,0.1389,0.7168,0.7405,605,3.479,12.3291,-14.9536,85,1.0795,0,10.1698,47.1359,25,0.7444,8140,4.0095,68.5288
rg,1625112517410918566,1,0.1438,0.7129,0.7397,606,2.8687,11.3525,-13.855,85,1.0805,0,10.1743,47.1041,25,0.7444,8200,4.0095,68.4629
rg,1625112517410936677,1,0.1409,0.7063,0.7336,607,3.7231,11.7798,-14.2822,85,1.0815,0,10.1817,47.0998,25,0.7454,8184,4.0095,68.414
rg,1625112517410955677,1,0.1426,0.7148,0.7373,608,3.3569,11.4136,-13.7329,85,1.0795,0,10.1862,47.0966,25,0.7444,8270,4.0095,68.3543
rg,1625112517761078884,1,0.1421,0.7119,0.731,609,3.9673,11.1084,-13.7939,85,1.0805,0,10.1818,47.1078,25,0.7464,25017,4.0095,68.2822
rg,1625112517761120847,1,0.1428,0.7158,0.7441,610,3.54,12.2681,-13.9771,85,1.0815,0,10.2176,47.1059,25,0.7454,12394,4.0095,68.2396
rg,1625112517761141959,1,0.1387,0.7117,0.7385,611,3.479,11.4746,-14.3433,85,1.0815,0,10.2487,47.12,25,0.7454,7826,4.0095,68.2004
rg,1625112517761161014,1,0.1401,0.7092,0.7429,612,3.6011,12.146,-14.0991,85,1.0805,0,10.2865,47.1101,25,0.7464,7620,4.0095,68.1492
rg,1625112517761179792,1,0.137,0.7119,0.7358,613,3.8452,12.3291,-14.5264,85,1.0815,0,10.3459,47.1243,25,0.7464,7647,4.0095,68.0942
rg,1625112517761197922,1,0.1406,0.7219,0.7402,614,3.1738,11.6577,-13.6108,85,1.0805,0,10.3531,47.1213,25,0.7464,7805,4.0095,68.046
rg,1625112517761216181,1,0.1414,0.7168,0.738,615,4.0283,11.9019,-13.0005,85,1.0795,0,10.3459,47.1521,25,0.7454,7880,4.0095,68.0211
rg,1625112517761269829,1,0.1365,0.7139,0.741,616,3.54,11.5356,-14.0381,85,1.0815,0,10.3634,47.1557,25,0.7464,11920,4.0095,67.9812
rg,1625112517761292162,1,0.1389,0.7139,0.7397,617,3.3569,13.0005,-15.7471,85,1.0805,0,10.4709,47.1432,25,0.7464,7754,4.0095,67.9122
rg,1625112517761309477,1,0.1387,0.7129,0.7393,618,3.9062,11.3525,-14.0991,85,1.0805,0,10.4817,47.1516,25,0.7454,7754,4.0095,67.8389
rg,1625112517761326570,1,0.1411,0.7173,0.7395,619,3.7231,11.2305,-14.3433,85,1.0805,0,10.5078,47.1575,25,0.7464,9080,4.0095,67.7852
rg,1625112517761343310,1,0.1343,0.7139,0.7412,620,3.6621,11.6577,-13.0005,85,1.0805,0,10.503,47.1612,25,0.7464,7778,4.0095,67.751
rg,1625112517761360218,1,0.1343,0.7112,0.7424,621,3.54,11.5356,-12.8784,85,1.0815,0,10.4912,47.1537,25,0.7454,9072,4.0095,67.7154
rg,1625112517761377903,1,0.1365,0.7131,0.7415,622,3.7842,11.3525,-14.4653,85,1.0805,0,10.5171,47.1519,25,0.7464,7829,4.0095,67.6315
rg,1625112517761394959,1,0.1309,0.7114,0.7405,623,3.6621,11.1694,-13.4277,85,1.0795,0,10.5177,47.1482,25,0.7454,7844,4.0095,67.5703
rg,1625112517761411329,1,0.1357,0.7168,0.7397,624,3.6621,11.1694,-14.0991,85,1.0815,0,10.5286,47.151,25,0.7464,7891,4.0095,67.4924
rg,1625112517761428366,1,0.1355,0.7146,0.7344,625,3.418,11.3525,-13.855,85,1.0815,0,10.52,47.163,25,0.7464,7936,4.0095,67.4393
rg,1625112517761444810,1,0.1335,0.7188,0.7354,626,3.54,11.3525,-13.855,85,1.0795,0,10.5326,47.1725,25,0.7454,7924,4.0095,67.3755
rg,1625112517761462421,1,0.137,0.7161,0.741,627,3.1738,11.1084,-13.2446,85,1.0815,0,10.5139,47.1559,25,0.7474,8067,4.0095,67.3189
rg,1625112517761479847,1,0.1392,0.7139,0.7363,628,3.418,11.4136,-13.7939,85,1.0815,0,10.5261,47.1556,25,0.7464,7954,4.0095,67.2581
rg,1625112517761496866,1,0.1377,0.7148,0.739,629,3.3569,11.3525,-13.7329,85,1.0815,0,10.5264,47.1468,25,0.7474,10724,4.0095,67.1954
rg,1625112517761515014,1,0.1401,0.7139,0.7405,630,3.6011,11.4136,-12.8174,85,1.0805,0,10.4966,47.1494,25,0.7464,8160,4.0095,67.1591
rg,1625112517761550014,1,0.1401,0.7195,0.7312,631,3.7842,11.0474,-14.3433,85,1.0815,0,10.5019,47.1728,25,0.7454,8020,4.0095,67.0742
rg,1625112517761570829,1,0.134,0.7173,0.7336,632,3.9673,11.5356,-13.9771,85,1.0825,0,10.5221,47.1998,25,0.7494,8058,4.0095,67.0127
rg,1625112517761589440,1,0.1372,0.7227,0.7363,633,3.7231,11.0474,-13.1226,85,1.0805,0,10.4983,47.222,25,0.7464,8049,4.0095,66.961
rg,1625112517761608421,1,0.1357,0.7136,0.7366,634,3.2349,11.4746,-14.1602,85,1.0845,0,10.5189,47.2062,25,0.7454,8081,4.0095,66.891
rg,1625112517761625866,1,0.1343,0.7175,0.7358,635,3.7842,11.4136,-13.2446,85,1.0825,0,10.5137,47.2246,25,0.7464,8157,4.0095,66.8456
rg,1625112517761643236,1,0.1331,0.7158,0.7415,636,3.54,12.085,-13.1226,85,1.0805,0,10.5267,47.2254,25,0.7464,8145,4.0095,66.8216
rg,1625112517761660995,1,0.1357,0.7173,0.7378,637,2.9907,12.0239,-14.4653,85,1.0815,0,10.5708,47.2051,25,0.7464,8217,4.0095,66.7603
rg,1625112517761678829,1,0.1353,0.7148,0.7336,638,3.3569,11.5967,-13.7329,85,1.0815,0,10.5801,47.2041,25,0.7474,8236,4.0095,66.7067
rg,1625112517761696070,1,0.1382,0.7183,0.739,639,3.8452,10.9863,-13.5498,85,1.0815,0,10.5627,47.2173,25,0.7474,8262,4.0095,66.6392
rg,1625112517761714847,1,0.1331,0.7156,0.7393,640,3.6011,10.3149,-12.7563,85,1.0805,0,10.5148,47.216,25,0.7464,8415,4.0095,66.5728
rg,1625112518112958501,1,0.1362,0.718,0.7317,641,3.7842,11.4136,-14.2212,85,1.0815,0,10.5336,47.2363,25,0.7474,25306,4.0095,66.5019
rg,1625112518113032130,1,0.1345,0.7151,0.7351,642,3.479,11.8408,-13.9771,85,1.0815,0,10.5526,47.2369,25,0.7474,10269,4.0095,66.4487
rg,1625112518113054334,1,0.1367,0.7139,0.7434,643,3.3569,11.2915,-14.5264,85,1.0815,0,10.5764,47.2123,25,0.7474,7729,4.0095,66.3612
rg,1625112518113077315,1,0.1345,0.7146,0.7405,644,3.7842,12.6343,-14.4653,85,1.0815,0,10.6378,47.219,25,0.7474,7739,4.0095,66.3164
rg,1625112518113097371,1,0.1353,0.7166,0.7427,645,3.9673,11.5356,-14.5264,85,1.0815,0,10.6682,47.2261,25,0.7474,7683,4.0095,66.2368
rg,1625112518113158389,1,0.1326,0.7151,0.7385,646,3.6621,11.4746,-14.8315,85,1.0815,0,10.7092,47.2228,25,0.7474,7755,4.0095,66.1477
rg,1625112518113183741,1,0.1335,0.717,0.7366,647,3.479,11.4136,-14.0381,85,1.0825,0,10.7217,47.2222,25,0.7464,9649,4.0095,66.0797
rg,1625112518113203686,1,0.1357,0.7136,0.7324,648,3.0518,11.2305,-13.6719,85,1.0805,0,10.7014,47.2303,25,0.7474,7812,4.0095,66.0266
rg,1625112518113221445,1,0.1362,0.7168,0.7378,649,3.6621,10.6201,-12.6343,83,1.0805,0,10.6463,47.2373,25,0.7464,7753,4.0139,65.9732
rg,1625112518113238834,1,0.1348,0.7163,0.7417,650,2.8687,10.437,-12.9395,83,1.0815,0,10.601,47.203,25,0.7484,7725,4.0139,65.9048
rg,1625112518113255815,1,0.1335,0.7163,0.7358,651,3.6011,10.8643,-13.7329,83,1.0825,0,10.6032,47.2061,25,0.7484,7804,4.0139,65.8288
rg,1625112518113273315,1,0.1299,0.7136,0.7393,652,3.6011,10.6812,-13.6108,83,1.0815,0,10.5949,47.1996,25,0.7474,7842,4.0139,65.749
rg,1625112518113292371,1,0.1326,0.7192,0.7393,653,3.1738,10.8643,-14.5264,83,1.0815,0,10.6141,47.1816,25,0.7474,7874,4.0139,65.6511
rg,1625112518113309556,1,0.1392,0.7166,0.7358,654,2.8076,10.2539,-13.0615,83,1.0805,0,10.5583,47.155,25,0.7474,7858,4.0139,65.5755
rg,1625112518113329408,1,0.146,0.7163,0.7368,655,3.2349,10.498,-13.2446,83,1.0815,0,10.5027,47.1451,25,0.7474,7890,4.0139,65.5019
rg,1625112518113349760,1,0.1409,0.7153,0.7429,656,3.3569,10.7422,-14.2212,83,1.0815,0,10.496,47.1258,25,0.7484,7929,4.0139,65.4066
rg,1625112518113366760,1,0.1357,0.7207,0.7417,657,2.8687,11.1694,-13.4888,83,1.0795,0,10.4909,47.1041,25,0.7474,7971,4.0139,65.346
rg,1625112518113384982,1,0.1323,0.7148,0.7349,658,2.9907,12.207,-14.7705,83,1.0815,0,10.5562,47.0885,25,0.7464,7945,4.0139,65.2812
rg,1625112518113404112,1,0.1279,0.7153,0.7375,659,3.9062,11.4746,-13.3667,83,1.0815,0,10.5866,47.0783,25,0.7484,7976,4.0139,65.1945
rg,1625112518113425074,1,0.1289,0.7148,0.7449,660,2.8076,11.2305,-12.5122,83,1.0805,0,10.5648,47.0468,25,0.7464,8158,4.0139,65.1596
rg,1625112518113469408,1,0.1313,0.7136,0.7346,661,2.3193,10.2539,-12.6953,83,1.0805,0,10.5155,47.0049,25,0.7464,7984,4.0139,65.0931
rg,1625112518113490649,1,0.1318,0.7136,0.7346,662,2.2583,10.1318,-12.9395,83,1.0815,0,10.509,46.9658,25,0.7484,8019,4.0139,65.007
rg,1625112518113508649,1,0.1328,0.7109,0.7375,663,2.5024,10.1318,-13.3667,83,1.0815,0,10.4751,46.9214,25,0.7484,12657,4.0139,64.9164
rg,1625112518113530815,1,0.1333,0.7144,0.7339,664,2.8687,9.4604,-13.3057,83,1.0815,0,10.4212,46.9012,25,0.7484,8112,4.0139,64.8094
rg,1625112518113549426,1,0.1384,0.7175,0.7407,665,2.6245,9.7046,-13.3057,83,1.0815,0,10.3672,46.8679,25,0.7484,8108,4.0139,64.7088
rg,1625112518113568112,1,0.1365,0.7156,0.7341,666,2.7466,9.9487,-13.7939,83,1.0815,0,10.3385,46.8469,25,0.7484,8127,4.0139,64.6031
rg,1625112518113587074,1,0.1394,0.7197,0.7312,667,3.2959,10.5591,-14.0381,83,1.0815,0,10.3287,46.8618,25,0.7484,10201,4.0139,64.5108
rg,1625112518113606630,1,0.1399,0.7156,0.7358,668,2.3804,9.9487,-14.2822,83,1.0815,0,10.3089,46.8214,25,0.7474,8604,4.0139,64.3912
rg,1625112518113626037,1,0.1392,0.718,0.739,669,2.6245,11.2305,-13.6719,83,1.0805,0,10.3095,46.801,25,0.7474,8774,4.0139,64.3263
rg,1625112518113645167,1,0.144,0.718,0.7358,670,3.6011,10.7422,-13.4888,83,1.0805,0,10.2807,46.8238,25,0.7474,8271,4.0139,64.2527
rg,1625112518113665297,1,0.1399,0.718,0.7297,671,3.1128,10.5591,-12.5732,83,1.0825,0,10.2287,46.8393,25,0.7474,8297,4.0139,64.201
rg,1625112518113683815,1,0.1355,0.7117,0.7332,672,3.0518,11.3525,-13.4277,83,1.0815,0,10.2339,46.8362,25,0.7484,8383,4.0139,64.1465
rg,1625112518461105713,1,0.135,0.7144,0.7312,673,3.1128,11.4136,-13.4277,83,1.0815,0,10.22,46.8231,25,0.7484,25297,4.0139,64.0722
rg,1625112518461147083,1,0.1306,0.7131,0.7393,674,3.54,10.7422,-14.0991,83,1.0815,0,10.24,46.8263,25,0.7484,10405,4.0139,63.9796
rg,1625112518461167509,1,0.1372,0.7126,0.738,675,3.1738,10.7422,-13.6719,83,1.0815,0,10.2328,46.8181,25,0.7484,9400,4.0139,63.899
rg,1625112518461211324,1,0.1365,0.7097,0.7354,676,3.6011,10.0098,-13.0615,83,1.0815,0,10.235,46.8199,25,0.7484,7688,4.0139,63.8204
rg,1625112518461231231,1,0.1345,0.7153,0.7419,677,2.9907,10.1318,-14.2212,83,1.0815,0,10.2342,46.7969,25,0.7484,7658,4.0139,63.7061
rg,1625112518461248824,1,0.137,0.7134,0.7341,678,3.54,10.0098,-13.7329,83,1.0815,0,10.2089,46.8075,25,0.7484,7734,4.0139,63.6033
rg,1625112518461267046,1,0.1377,0.7144,0.7397,679,3.2959,9.9487,-13.7939,83,1.0805,0,10.1806,46.7809,25,0.7474,7891,4.0139,63.509
rg,1625112518461285102,1,0.1355,0.7136,0.7434,680,2.9297,10.3149,-13.4888,83,1.0785,0,10.1634,46.7567,25,0.7474,7696,4.0139,63.4195
rg,1625112518461303768,1,0.1348,0.7083,0.7395,681,3.0518,10.498,-13.5498,83,1.0855,0,10.1535,46.7363,25,0.7474,7693,4.0139,63.3333
rg,1625112518461320731,1,0.1392,0.7178,0.7393,682,3.3569,9.7656,-13.2446,83,1.0805,0,10.1075,46.7424,25,0.7474,7692,4.0139,63.2365
rg,1625112518461338528,1,0.1379,0.7126,0.7349,683,4.0283,9.6436,-13.6719,83,1.0835,0,10.0732,46.7709,25,0.7464,7725,4.0139,63.1241
rg,1625112518461356120,1,0.1392,0.7173,0.7322,684,3.2959,9.3384,-13.1836,83,1.0815,0,10.0205,46.7698,25,0.7484,7762,4.0139,63.0204
rg,1625112518461373379,1,0.1401,0.717,0.7358,685,2.6855,10.6812,-13.916,83,1.0815,0,10.0441,46.7581,25,0.7484,9690,4.0139,62.931
rg,1625112518461390287,1,0.1365,0.7136,0.7332,686,3.7842,10.1929,-13.916,83,1.0815,0,10.0372,46.7823,25,0.7484,7813,4.0139,62.8291
rg,1625112518461406917,1,0.1396,0.7173,0.7417,687,3.418,10.8032,-13.855,83,1.0815,0,10.0411,46.787,25,0.7484,7858,4.0139,62.7458
rg,1625112518461423972,1,0.1396,0.7144,0.7417,688,3.54,10.6812,-14.1602,83,1.0815,0,10.05,46.7897,25,0.7484,7873,4.0139,62.6496
rg,1625112518461440602,1,0.1338,0.7146,0.7356,689,4.0283,11.2305,-13.9771,83,1.0815,0,10.0791,46.8251,25,0.7484,7908,4.0139,62.5765
rg,1625112518461456694,1,0.1365,0.7156,0.7388,690,3.6621,11.2915,-13.6719,83,1.0815,0,10.0952,46.8431,25,0.7484,7940,4.0139,62.5133
rg,1625112518461493750,1,0.1362,0.7205,0.7349,691,3.9062,10.498,-13.855,83,1.0815,0,10.0949,46.8789,25,0.7484,8494,4.0139,62.4239
rg,1625112518461511879,1,0.1377,0.719,0.7375,692,3.479,10.437,-12.9395,83,1.0815,0,10.0637,46.894,25,0.7494,8086,4.0139,62.3571
rg,1625112518461528379,1,0.1355,0.7192,0.7354,693,3.6011,10.6201,-13.1836,83,1.0825,0,10.0499,46.9169,25,0.7494,8009,4.0139,62.2897
rg,1625112518461544676,1,0.1345,0.7173,0.7412,694,3.54,10.7422,-13.9771,83,1.0815,0,10.0659,46.9211,25,0.7484,7952,4.0139,62.2021
rg,1625112518461561342,1,0.1345,0.7178,0.7424,695,3.0518,10.9253,-13.6108,83,1.0825,0,10.0759,46.9073,25,0.7484,8018,4.0139,62.1298
rg,1625112518461578842,1,0.1333,0.7153,0.7332,696,3.479,10.376,-14.2212,83,1.0825,0,10.0888,46.9157,25,0.7494,8056,4.0139,62.026
rg,1625112518461595639,1,0.1384,0.7161,0.7461,697,3.479,10.8032,-13.4888,83,1.0815,0,10.0835,46.9108,25,0.7484,8085,4.0139,61.9519
rg,1625112518461612472,1,0.1396,0.7141,0.7371,698,2.9907,10.9863,-12.5732,83,1.0825,-0.001,10.0519,46.9028,25,0.7494,8100,4.0139,61.9105
rg,1625112518461630805,1,0.1375,0.7144,0.731,699,3.2349,10.7422,-14.1602,83,1.0815,0,10.0646,46.9058,25,0.7494,8007,4.0139,61.8197
rg,1625112518461647935,1,0.1375,0.7207,0.7366,700,3.1738,10.437,-13.4277,83,1.0765,0,10.0494,46.9096,25,0.7484,8121,4.0139,61.7404
rg,1625112518461664546,1,0.1348,0.7134,0.7339,701,3.3569,11.2305,-13.9771,83,1.0825,0,10.0761,46.9144,25,0.7494,8185,4.0139,61.6681
rg,1625112518461680879,1,0.1379,0.719,0.7336,702,3.54,10.8643,-13.3667,83,1.0825,0,10.0765,46.9247,25,0.7494,8153,4.0139,61.6013
rg,1625112518461697435,1,0.1379,0.72,0.74,703,3.1738,10.437,-13.3667,83,1.0805,0,10.0585,46.9215,25,0.7484,8239,4.0139,61.5225
rg,1625112518461714213,1,0.1335,0.7141,0.7351,704,2.5635,10.6812,-13.916,83,1.0815,0,10.0711,46.891,25,0.7484,8227,4.0139,61.4355
rg,1625112518809695407,1,0.1357,0.7144,0.7295,705,3.0518,11.4136,-14.2822,83,1.0825,0,10.1081,46.8922,25,0.7494,26008,4.0139,61.3615
rg,1625112518809758314,1,0.1375,0.7183,0.7405,706,3.3569,10.7422,-13.1836,83,1.0825,0,10.0855,46.8935,25,0.7494,8515,4.0139,61.2955
rg,1625112518809780536,1,0.1399,0.7209,0.7402,707,3.0518,11.4746,-14.5874,83,1.0815,0,10.1272,46.8872,25,0.7484,7683,4.0139,61.2139
rg,1625112518809800203,1,0.1382,0.7156,0.7366,708,3.0518,9.8267,-13.2446,83,1.0815,0,10.0853,46.8764,25,0.7494,10132,4.0139,61.1198
rg,1625112518809819573,1,0.1379,0.71,0.7361,709,2.4414,11.4136,-13.1226,83,1.0825,0,10.0839,46.8422,25,0.7494,7663,4.0139,61.0748
rg,1625112518809837814,1,0.1375,0.72,0.7415,710,3.3569,10.5591,-14.2212,83,1.0815,0,10.0951,46.8437,25,0.7494,7677,4.0139,60.9751
rg,1625112518809855277,1,0.1362,0.7175,0.7329,711,3.6621,10.9253,-13.855,83,1.0825,0,10.1056,46.8703,25,0.7494,7690,4.0139,60.8981
rg,1625112518809872870,1,0.1406,0.72,0.7336,712,3.6621,10.5591,-13.6719,83,1.0815,0,10.0998,46.8444,25,0.7494,7742,4.0139,60.8013
rg,1625112518809890462,1,0.1394,0.7146,0.7368,713,2.9297,11.6577,-13.4888,83,1.0825,0,10.1131,46.8367,25,0.7494,10686,4.0139,60.7544
rg,1625112518809907610,1,0.1357,0.7131,0.739,714,3.479,10.9863,-13.3667,83,1.0815,0,10.1118,46.8425,25,0.7484,7749,4.0139,60.6898
rg,1625112518809924851,1,0.1362,0.7119,0.7329,715,3.0518,10.8643,-13.4888,83,1.0825,0,10.1084,46.8373,25,0.7484,7817,4.0139,60.6195
rg,1625112518809941740,1,0.1353,0.7151,0.7354,716,3.8452,10.376,-12.8784,83,1.0815,0,10.1446,46.8615,25,0.7514,7875,4.0139,60.5419
rg,1625112518809958740,1,0.1404,0.7163,0.738,717,3.8452,10.3149,-12.207,83,1.0805,0,10.0808,46.8898,25,0.7484,7804,4.0139,60.4907
rg,1625112518809975684,1,0.1362,0.7139,0.7344,718,3.1738,11.2915,-14.0991,83,1.0825,0,10.1087,46.8878,25,0.7494,7830,4.0139,60.4167
rg,1625112518809992647,1,0.1357,0.7173,0.7344,719,3.479,11.2305,-13.7329,83,1.0825,0,10.129,46.8926,25,0.7494,7912,4.0139,60.3497
rg,1625112518810009407,1,0.1387,0.7148,0.7373,720,3.418,11.4136,-13.7329,83,1.0815,0,10.1434,46.8997,25,0.7484,7903,4.0139,60.2889
rg,1625112518810040721,1,0.1372,0.7144,0.7346,721,3.7231,10.9863,-13.3667,83,1.0825,0,10.1373,46.9216,25,0.7474,7917,4.0139,60.2261
rg,1625112518810058555,1,0.1355,0.7087,0.7415,722,3.6011,11.5356,-13.7329,83,1.0825,0,10.1682,46.8986,25,0.7504,8116,4.0139,60.1593
rg,1625112518810075425,1,0.1404,0.7139,0.7383,723,2.6855,11.2915,-13.6719,83,1.0825,0,10.1859,46.9151,25,0.7494,9748,4.0139,60.0914
rg,1625112518810091999,1,0.1379,0.7188,0.7461,724,3.6011,11.2305,-13.4888,83,1.0805,0,10.19,46.9215,25,0.7484,7988,4.0139,60.0306
rg,1625112518810108499,1,0.1396,0.7151,0.7339,725,3.8452,10.6812,-13.4888,83,1.0815,0,10.1724,46.9475,25,0.7494,8222,4.0139,59.9558
rg,1625112518810125444,1,0.1396,0.7192,0.7324,726,3.8452,10.3149,-12.146,83,1.0835,0,10.1572,46.9589,25,0.7494,8044,4.0139,59.9061
rg,1625112518810142073,1,0.1338,0.7161,0.7395,727,3.7842,11.3525,-14.0381,83,1.0805,0,10.1886,46.9746,25,0.7484,8021,4.0139,59.835
rg,1625112518810158999,1,0.1348,0.7146,0.7319,728,3.8452,10.498,-13.4277,83,1.0835,0,10.174,47.0002,25,0.7504,8062,4.0139,59.7571
rg,1625112518810175851,1,0.135,0.7195,0.7371,729,2.4414,11.3525,-12.8784,83,1.0815,0,10.1831,47.0251,25,0.7494,8092,4.0139,59.6959
rg,1625112518810192888,1,0.1367,0.7168,0.7361,730,3.1128,10.376,-13.4888,83,1.0805,0,10.1644,47.0157,25,0.7484,8089,4.0139,59.6123
rg,1625112518810210758,1,0.137,0.7239,0.731,731,3.1738,11.4136,-14.0991,83,1.0815,0,10.1921,47.0307,25,0.7484,8146,4.0139,59.5463
rg,1625112518810228425,1,0.1418,0.7195,0.7332,732,2.7466,11.2305,-14.0991,83,1.0825,0,10.1979,47.0476,25,0.7504,8159,4.0139,59.4816
rg,1625112518810245332,1,0.1404,0.72,0.7378,733,3.6011,11.4136,-14.0381,83,1.0805,0,10.2161,47.0619,25,0.7494,8237,4.0139,59.4143
rg,1625112518810262129,1,0.1326,0.7131,0.7393,734,2.8076,11.1084,-13.855,83,1.0835,0,10.2354,47.0301,25,0.7494,8224,4.0139,59.3407
rg,1625112518810279277,1,0.1338,0.7139,0.7322,735,3.2959,11.1084,-13.7939,83,1.0835,0,10.2483,47.0314,25,0.7504,8225,4.0139,59.2707
rg,1625112518810309073,1,0.1328,0.7241,0.7344,736,2.8076,11.4746,-13.4888,83,1.0835,0,10.2659,47.0294,25,0.7504,8232,4.0139,59.2223
rg,1625112519158015750,1,0.1296,0.7146,0.7317,737,3.7231,11.4136,-13.2446,83,1.0825,0,10.2762,47.0522,25,0.7504,25437,4.0139,59.1765
rg,1625112519158053176,1,0.1304,0.7183,0.7402,738,2.6855,11.4746,-14.7095,83,1.0825,0,10.3337,47.02,25,0.7504,9988,4.0139,59.0912
rg,1625112519158073565,1,0.1377,0.7173,0.74,739,3.0518,11.1694,-14.4653,83,1.0825,0,10.3581,47.0022,25,0.7504,7680,4.0139,59.003
rg,1625112519158092584,1,0.134,0.7183,0.7349,740,2.8076,10.3149,-12.9395,83,1.0825,0,10.3206,46.9878,25,0.7504,8056,4.0139,58.9331
rg,1625112519158110287,1,0.1406,0.7178,0.7378,741,3.2349,11.4746,-14.2212,83,1.0825,-0.001,10.3403,46.9856,25,0.7504,9200,4.0139,58.8614
rg,1625112519158129028,1,0.1389,0.7102,0.7437,742,2.9297,10.9253,-13.916,83,1.0825,0,10.3349,46.9632,25,0.7504,7649,4.0139,58.7804
rg,1625112519158146936,1,0.1396,0.7207,0.7446,743,3.0518,11.2305,-13.7939,83,1.0805,-0.001,10.3388,46.9495,25,0.7494,7934,4.0139,58.712
rg,1625112519158165065,1,0.1394,0.7168,0.74,744,3.3569,11.4136,-12.8784,83,1.0825,0,10.3197,46.955,25,0.7504,7587,4.0139,58.6745
rg,1625112519158181991,1,0.1355,0.7168,0.7434,745,3.0518,11.2305,-13.0615,83,1.0815,0,10.3104,46.9409,25,0.7494,7810,4.0139,58.6256
rg,1625112519158198824,1,0.137,0.7183,0.7417,746,3.2349,11.3525,-13.7329,83,1.0825,0,10.3212,46.9369,25,0.7494,7810,4.0139,58.5625
rg,1625112519158215010,1,0.1365,0.72,0.7346,747,2.7466,11.3525,-13.5498,83,1.0825,0,10.3299,46.927,25,0.7504,7799,4.0139,58.5
rg,1625112519158231232,1,0.1279,0.7161,0.7375,748,2.7466,11.9019,-13.855,83,1.0805,0,10.376,46.9091,25,0.7494,7856,4.0139,58.4503
rg,1625112519158247528,1,0.1294,0.7212,0.7366,749,2.7466,11.2305,-13.6719,83,1.0825,0,10.3943,46.8989,25,0.7504,7876,4.0139,58.3872
rg,1625112519158263621,1,0.1289,0.7131,0.7324,750,3.479,11.3525,-13.6108,83,1.0825,0,10.4025,46.8805,25,0.7504,7835,4.0139,58.3038
rg,1625112519158301658,1,0.1265,0.7222,0.7388,751,2.9297,11.2305,-12.5732,83,1.0815,0,10.3944,46.8823,25,0.7504,7924,4.0139,58.2706
rg,1625112519158320084,1,0.1311,0.7251,0.7344,752,2.6855,9.5825,-13.0005,83,1.0835,0,10.3443,46.8749,25,0.7514,7906,4.0139,58.1787
rg,1625112519158337787,1,0.1306,0.7183,0.7346,753,2.9907,10.8032,-14.1602,83,1.0805,0,10.3414,46.8653,25,0.7514,7919,4.0139,58.0883
rg,1625112519158354195,1,0.1348,0.7236,0.7415,754,2.9297,10.1318,-13.1226,83,1.0815,0,10.3054,46.8574,25,0.7494,8038,4.0139,58.007
rg,1625112519158370473,1,0.1377,0.7158,0.7368,755,3.1128,10.9863,-13.916,83,1.0825,0,10.2539,46.8578,25,0.7504,7984,4.0139,57.9197
rg,1625112519158386528,1,0.1401,0.717,0.7449,756,2.8076,10.5591,-13.5498,83,1.0825,0,10.2338,46.83,25,0.7504,8089,4.0139,57.8366
rg,1625112519158402713,1,0.1399,0.7129,0.7363,757,3.2349,10.0098,-13.2446,83,1.0825,0,10.1886,46.8255,25,0.7504,8032,4.0139,57.7468
rg,1625112519158419491,1,0.1389,0.719,0.7363,758,3.0518,10.9863,-13.4277,83,1.0825,0,10.1858,46.8149,25,0.7504,8063,4.0139,57.6933
rg,1625112519158436102,1,0.1404,0.7161,0.738,759,2.3193,11.3525,-13.9771,83,1.0825,0,10.2001,46.7803,25,0.7504,8090,4.0139,57.6234
rg,1625112519158452824,1,0.1372,0.7136,0.7344,760,3.479,11.1084,-13.7329,83,1.0825,0,10.2056,46.795,25,0.7504,8191,4.0139,57.5532
rg,1625112519158469676,1,0.1365,0.7131,0.7351,761,3.6011,11.2915,-13.6719,83,1.0825,0,10.2157,46.8133,25,0.7474,10073,4.0139,57.4898
rg,1625112519158486658,1,0.1379,0.7139,0.7322,762,3.6011,11.4136,-14.1602,83,1.0825,0,10.2395,46.8349,25,0.7514,8097,4.0139,57.4177
rg,1625112519158503398,1,0.1357,0.7207,0.7393,763,3.9673,11.4136,-13.3057,83,1.0815,0,10.2445,46.8743,25,0.7494,8206,4.0139,57.3692
rg,1625112519158519750,1,0.136,0.7197,0.7317,764,3.1738,10.5591,-13.1226,83,1.0835,0,10.2188,46.8872,25,0.7494,8162,4.0139,57.3025
rg,1625112519158536158,1,0.1357,0.7166,0.7351,765,3.7842,10.3149,-12.7563,83,1.0835,0,10.1773,46.9142,25,0.7504,8237,4.0139,57.2368
rg,1625112519158565121,1,0.1343,0.7183,0.7417,766,3.1738,11.1084,-13.0615,83,1.0825,0,10.1685,46.9054,25,0.7504,8238,4.0139,57.1843
rg,1625112519158583584,1,0.1367,0.7131,0.7402,767,2.6245,10.9863,-13.3667,83,1.0825,0,10.1634,46.8726,25,0.7504,8255,4.0139,57.1196
rg,1625112519158600010,1,0.1348,0.7092,0.7385,768,3.8452,10.8032,-13.7329,83,1.0825,0,10.1672,46.8833,25,0.7494,8307,4.0139,57.0384
rg,1625112519510628966,1,0.1348,0.7139,0.7307,769,3.0518,11.3525,-14.2822,82,1.0825,0,10.1545,46.9166,25,0.7504,25569,4.0128,56.9944
rg,1625112519510750614,1,0.1335,0.7146,0.7407,770,3.8452,11.7188,-15.0757,82,1.0825,-0.001,10.2266,46.929,25,0.7504,8455,4.0128,56.9045
rg,1625112519510782040,1,0.1331,0.7158,0.7356,771,3.6621,10.8032,-13.4277,82,1.0825,0,10.2233,46.9468,25,0.7504,7743,4.0128,56.8346
rg,1625112519510810985,1,0.1401,0.7163,0.7363,772,3.1738,10.8643,-13.3057,82,1.0825,0,10.2038,46.9451,25,0.7514,7688,4.0128,56.77
rg,1625112519510844133,1,0.1301,0.7202,0.7402,773,3.418,11.1084,-13.2446,82,1.0825,0,10.212,46.9547,25,0.7504,7643,4.0128,56.7144
rg,1625112519510872114,1,0.1323,0.7151,0.7434,774,3.3569,11.4746,-14.4043,82,1.0825,0,10.2589,46.9448,25,0.7514,7714,4.0128,56.6353
rg,1625112519510899670,1,0.1304,0.7209,0.7361,775,3.54,10.7422,-13.3667,82,1.0825,0,10.2574,46.9643,25,0.7514,7933,4.0128,56.5666
rg,1625112519510927688,1,0.1343,0.719,0.7439,776,3.2349,11.1084,-13.855,82,1.0825,0,10.2733,46.9553,25,0.7504,7743,4.0128,56.4927
rg,1625112519510953577,1,0.1294,0.7144,0.7395,777,3.7842,11.1694,-13.0615,82,1.0835,0,10.2756,46.9722,25,0.7514,7731,4.0128,56.4424
rg,1625112519510979799,1,0.1379,0.7175,0.7324,778,3.479,11.4136,-13.916,82,1.0825,0,10.2908,46.9895,25,0.7504,11404,4.0128,56.3787
rg,1625112519511005966,1,0.1372,0.7161,0.7341,779,3.6011,11.6577,-14.5264,82,1.0825,0,10.3316,47.0043,25,0.7514,7771,4.0128,56.3046
rg,1625112519511032503,1,0.1377,0.717,0.7388,780,3.418,11.1084,-13.6108,82,1.0825,0,10.3292,47.0071,25,0.7504,7998,4.0128,56.2384
rg,1625112519511113873,1,0.1389,0.7192,0.7383,781,3.2349,10.0098,-13.4277,82,1.0825,0,10.2895,47.0019,25,0.7514,7823,4.0128,56.1454
rg,1625112519511146096,1,0.1357,0.7148,0.7344,782,2.6245,11.1694,-14.6484,82,1.0825,0,10.3235,46.9716,25,0.7504,7834,4.0128,56.053
rg,1625112519511173799,1,0.136,0.7183,0.7393,783,3.1738,11.2305,-12.8174,82,1.0825,0,10.2975,46.9984,25,0.7514,9503,4.0128,55.9846
rg,1625112519511202336,1,0.1309,0.7168,0.7412,784,4.0894,11.2915,-13.1836,82,1.0815,0,10.3035,47.0271,25,0.7504,7902,4.0128,55.9349
rg,1625112519511227781,1,0.1313,0.7163,0.7385,785,2.8687,10.7422,-13.855,82,1.0835,0,10.3124,47.0031,25,0.7504,7929,4.0128,55.851
rg,1625112519511252910,1,0.136,0.7178,0.7346,786,3.6621,10.9253,-13.7329,82,1.0835,0,10.3071,47.0191,25,0.7514,7946,4.0128,55.7769
rg,1625112519511278707,1,0.1375,0.7158,0.7373,787,3.418,10.9863,-13.4277,82,1.0825,0,10.297,47.022,25,0.7504,7993,4.0128,55.7124
rg,1625112519511304355,1,0.1309,0.7129,0.7339,788,3.7842,10.8032,-13.3057,82,1.0825,0,10.2913,47.0395,25,0.7514,7908,4.0128,55.6458
rg,1625112519511354540,1,0.1309,0.7173,0.7356,789,3.418,11.7798,-13.7939,82,1.0825,0,10.3236,47.0518,25,0.7514,7959,4.0128,55.5963
rg,1625112519511381873,1,0.134,0.7212,0.7378,790,3.479,11.0474,-13.3667,82,1.0795,0,10.3208,47.0642,25,0.7504,7967,4.0128,55.5367
rg,1625112519511408281,1,0.1287,0.7161,0.7354,791,3.2349,10.437,-12.0239,82,1.0825,0,10.2722,47.0653,25,0.7504,8026,4.0128,55.4953
rg,1625112519511435262,1,0.1372,0.7173,0.7341,792,3.6011,11.5356,-13.6719,82,1.0835,0,10.2856,47.0828,26,0.7514,8003,4.0128,55.442
rg,1625112519511460633,1,0.1357,0.7175,0.7468,793,2.8076,10.9253,-12.5732,82,1.0775,0,10.2555,47.0508,26,0.7504,8061,4.0128,55.3974
rg,1625112519511486781,1,0.1401,0.7161,0.731,794,3.3569,10.2539,-12.5732,82,1.0835,0,10.1958,47.0609,26,0.7514,8073,4.0128,55.3367
rg,1625112519511512225,1,0.1355,0.7192,0.7319,795,3.2959,10.1318,-12.8174,82,1.0825,0,10.1514,47.0542,26,0.7504,8137,4.0128,55.2637
rg,1625112519511557373,1,0.1348,0.7207,0.7354,796,3.418,10.3149,-12.3291,82,1.0825,0,10.1029,47.0686,25,0.7504,8165,4.0128,55.2119
rg,1625112519511584651,1,0.136,0.7188,0.7334,797,3.7231,9.6436,-12.6953,82,1.0825,0,10.0456,47.0893,25,0.7504,8176,4.0128,55.1301
rg,1625112519511612299,1,0.1382,0.7156,0.7361,798,3.418,10.8643,-12.8784,82,1.0825,0,10.0243,47.0934,25,0.7504,9291,4.0128,55.0783
rg,1625112519511639299,1,0.134,0.7112,0.7366,799,2.8076,11.1694,-13.6719,82,1.0845,0,10.0433,47.0628,25,0.7514,10072,4.0128,55.0123
rg,1625112519511666410,1,0.1338,0.7229,0.741,800,3.1738,11.4746,-13.1226,82,1.0825,0,10.0498,47.0652,25,0.7514,8239,4.0128,54.9727
rg,1625112519860817701,1,0.1362,0.7168,0.7292,801,3.6011,10.1929,-12.4512,82,1.0835,0,10.0707,47.0881,25,0.7514,25850,4.0128,54.9248
rg,1625112519860866775,1,0.1353,0.7124,0.7375,802,2.7466,11.3525,-13.916,82,1.0835,0,10.0978,47.0555,25,0.7514,9995,4.0128,54.8575
rg,1625112519860888238,1,0.1296,0.7156,0.7351,803,3.9673,10.6201,-12.5122,82,1.0835,0,10.0629,47.0859,25,0.7514,7686,4.0128,54.8087
rg,1625112519860907441,1,0.1311,0.7183,0.7424,804,4.0283,10.0098,-12.3291,82,1.0835,0,10.0182,47.107,25,0.7514,7656,4.0128,54.7455
rg,1625112519860925793,1,0.1306,0.7146,0.7388,805,3.3569,11.2305,-14.2822,82,1.0835,0,10.065,47.0972,25,0.7514,7710,4.0128,54.6649
rg,1625112519860943571,1,0.1357,0.7197,0.7341,806,3.3569,11.3525,-14.0991,82,1.0835,0,10.0225,47.1156,25,0.7514,7716,4.0128,54.6155
rg,1625112519860960812,1,0.1321,0.7214,0.7402,807,3.8452,11.3525,-13.855,82,1.0815,0,10.0584,47.1363,25,0.7504,7911,4.0128,54.552
rg,1625112519860979127,1,0.1343,0.7183,0.7371,808,3.7842,10.498,-12.3901,82,1.0815,0,10.0212,47.1563,25,0.7494,7665,4.0128,54.5033
rg,1625112519860996330,1,0.135,0.7151,0.7336,809,3.1128,11.1694,-14.1602,82,1.0835,0,9.9772,47.1725,25,0.7514,7697,4.0128,54.4609
rg,1625112519861014460,1,0.1375,0.7188,0.7366,810,3.6621,10.1318,-13.1226,82,1.0835,0,9.9481,47.1825,25,0.7504,7748,4.0128,54.3818
rg,1625112519861058515,1,0.1355,0.7166,0.7327,811,3.7231,11.0474,-13.5498,82,1.0835,0,9.9603,47.1999,25,0.7514,7935,4.0128,54.3188
rg,1625112519861077793,1,0.1338,0.7178,0.7334,812,3.1128,10.8643,-13.7329,82,1.0835,0,9.9763,47.1912,25,0.7514,7755,4.0128,54.2456
rg,1625112519861095701,1,0.135,0.7195,0.7363,813,3.479,11.2915,-13.7329,82,1.0835,0,10.0016,47.1977,25,0.7504,7799,4.0128,54.1846
rg,1625112519861113219,1,0.1411,0.7151,0.7332,814,3.0518,10.6201,-12.7563,82,1.0835,0,9.9652,47.1863,25,0.7524,7819,4.0128,54.1302
rg,1625112519861130886,1,0.1365,0.7183,0.7383,815,3.2349,10.8643,-12.9395,82,1.0815,0,9.9533,47.1799,25,0.7504,7840,4.0128,54.0775
rg,1625112519861148201,1,0.1335,0.7126,0.7334,816,3.6621,10.9863,-13.855,82,1.0815,0,9.9761,47.1858,25,0.7504,8931,4.0128,54.003
rg,1625112519861165219,1,0.1301,0.7188,0.7317,817,3.2349,11.1694,-13.855,82,1.0835,0,10.0108,47.1876,25,0.7504,9349,4.0128,53.9361
rg,1625112519861182552,1,0.1401,0.7188,0.7332,818,3.6621,11.2305,-13.7939,82,1.0835,0,10.0236,47.2048,25,0.7524,8053,4.0128,53.8722
rg,1625112519861200052,1,0.1365,0.7173,0.7332,819,4.0283,11.2915,-12.8784,82,1.0815,0,10.018,47.2383,25,0.7504,8091,4.0128,53.8351
rg,1625112519861217738,1,0.135,0.7139,0.7356,820,3.418,10.8643,-13.5498,82,1.0835,0,10.0238,47.2315,25,0.7504,7941,4.0128,53.7652
rg,1625112519861234830,1,0.1335,0.7141,0.7371,821,3.54,10.9253,-14.0381,82,1.0835,0,10.0487,47.2258,25,0.7524,7925,4.0128,53.6834
rg,1625112519861252552,1,0.1338,0.7178,0.7363,822,2.9907,11.2915,-14.3433,82,1.0815,0,10.0915,47.2058,25,0.7514,7966,4.0128,53.6052
rg,1625112519861270238,1,0.1321,0.7205,0.7346,823,3.2959,11.2915,-13.9771,82,1.0835,0,10.1255,47.2074,25,0.7494,8003,4.0128,53.5381
rg,1625112519861289515,1,0.1323,0.718,0.7356,824,3.1128,11.1084,-13.6719,82,1.0825,0,10.1436,47.1967,25,0.7514,8035,4.0128,53.4729
rg,1625112519861307015,1,0.1333,0.7205,0.7361,825,3.54,11.2305,-13.7939,82,1.0835,0,10.1663,47.2066,25,0.7514,11954,4.0128,53.4084
rg,1625112519861341663,1,0.1357,0.7153,0.7334,826,3.6621,10.7422,-12.9395,82,1.0835,0,10.1435,47.2186,25,0.7514,9689,4.0128,53.3522
rg,1625112519861361830,1,0.1313,0.7166,0.7356,827,2.8076,11.3525,-13.916,82,1.0835,0,10.2013,47.1925,25,0.7514,8187,4.0128,53.2707
rg,1625112519861379126,1,0.1362,0.7146,0.7402,828,3.1738,11.2305,-14.0381,82,1.0835,0,10.2228,47.171,25,0.7514,8109,4.0128,53.1965
rg,1625112519861396293,1,0.1335,0.7168,0.7351,829,3.54,11.2915,-13.9771,82,1.0835,0,10.2482,47.1769,25,0.7514,8172,4.0128,53.1278
rg,1625112519861413330,1,0.1379,0.7202,0.7332,830,3.1738,11.5356,-13.855,82,1.0835,0,10.2668,47.1784,25,0.7514,9509,4.0128,53.0712
rg,1625112519861431312,1,0.1296,0.7178,0.7356,831,4.0894,11.2305,-13.0005,82,1.0865,0,10.2863,47.1874,25,0.7504,8205,4.0128,53.0072
rg,1625112519861449145,1,0.1326,0.7168,0.7336,832,3.2349,11.3525,-13.855,82,1.0825,0,10.3092,47.1836,25,0.7504,8293,4.0128,52.944
rg,1625112520213080807,1,0.1311,0.7158,0.7305,833,3.3569,11.5356,-13.916,82,1.0835,0,10.3402,47.1889,25,0.7524,25023,4.0128,52.8851
rg,1625112520213152845,1,0.1326,0.7214,0.7339,834,3.1738,10.1929,-12.085,82,1.0835,0,10.2786,47.1921,25,0.7524,10230,4.0128,52.8371
rg,1625112520213174382,1,0.1331,0.7234,0.7402,835,3.1738,11.1084,-13.916,82,1.0835,0,10.2935,47.1804,25,0.7514,7689,4.0128,52.7643
rg,1625112520213193233,1,0.1343,0.7202,0.7373,836,3.0518,10.7422,-13.9771,82,1.0835,0,10.3009,47.1655,25,0.7514,7702,4.0128,52.6794
rg,1625112520213212567,1,0.1377,0.7197,0.7388,837,3.1128,10.9863,-14.4653,82,1.0835,0,10.3221,47.1494,25,0.7514,7731,4.0128,52.5876
rg,1625112520213230511,1,0.1406,0.7166,0.7383,838,2.6245,10.0708,-13.1226,82,1.0835,0,10.3029,47.1221,25,0.7514,8923,4.0128,52.5041
rg,1625112520213248326,1,0.145,0.7231,0.7395,839,3.1128,10.6201,-13.0615,82,1.0825,0,10.2586,47.1171,25,0.7504,8179,4.0128,52.4408
rg,1625112520213267233,1,0.1333,0.7192,0.7366,840,3.418,12.146,-15.1367,82,1.0835,0,10.3409,47.1205,25,0.7524,7832,4.0128,52.3654
rg,1625112520213320307,1,0.1372,0.7205,0.7349,841,3.0518,11.1694,-13.9771,82,1.0835,0,10.3515,47.1143,25,0.7514,7737,4.0128,52.2936
rg,1625112520213342104,1,0.1387,0.7217,0.7373,842,3.1738,11.2305,-13.855,82,1.0825,0,10.3574,47.1123,25,0.7504,7731,4.0128,52.2266
rg,1625112520213360067,1,0.1289,0.7161,0.7344,843,2.9907,11.4746,-14.0381,82,1.0835,0,10.3938,47.0989,25,0.7514,7852,4.0128,52.161
rg,1625112520213380289,1,0.1289,0.7168,0.7361,844,2.6245,11.2915,-13.855,82,1.0825,0,10.4189,47.0698,25,0.7504,7788,4.0128,52.0945
rg,1625112520213397770,1,0.1265,0.7168,0.7266,845,3.1128,10.6812,-13.0005,82,1.0835,-0.001,10.4048,47.0772,25,0.7514,7833,4.0128,52.0359
rg,1625112520213416752,1,0.1282,0.7048,0.7383,846,2.9907,10.9253,-13.6108,82,1.0845,0,10.375,47.0588,25,0.7524,7687,4.0128,51.9658
rg,1625112520213435067,1,0.1292,0.717,0.738,847,3.3569,10.1318,-12.8784,82,1.0835,0,10.3407,47.0565,26,0.7514,11690,4.0128,51.8911
rg,1625112520213453826,1,0.1301,0.719,0.7332,848,2.8076,9.8877,-13.9771,82,1.0835,-0.001,10.3274,47.0338,26,0.7514,7931,4.0128,51.7802
rg,1625112520213471307,1,0.1343,0.7192,0.7393,849,4.0283,9.8877,-13.4888,82,1.0835,0,10.2961,47.0567,26,0.7514,7767,4.0128,51.6816
rg,1625112520213490067,1,0.1379,0.7227,0.7312,850,3.2349,10.5591,-13.3667,82,1.0835,0,10.2721,47.0693,26,0.7514,7961,4.0128,51.6099
rg,1625112520213508974,1,0.1404,0.7188,0.7354,851,2.5024,11.1694,-14.6484,82,1.0835,0,10.2981,47.0364,25,0.7514,8011,4.0128,51.5188
rg,1625112520213526419,1,0.1375,0.7156,0.7292,852,3.1128,11.2915,-14.2822,82,1.0835,0,10.3199,47.036,25,0.7514,8800,4.0128,51.442
rg,1625112520213543548,1,0.1396,0.7144,0.7319,853,2.7466,11.2915,-13.9771,82,1.0835,0,10.3278,47.0164,25,0.7514,8499,4.0128,51.3726
rg,1625112520213560363,1,0.1384,0.7139,0.7327,854,3.2349,11.2915,-13.7939,82,1.0825,0,10.3327,47.016,25,0.7504,10140,4.0128,51.3076
rg,1625112520213578363,1,0.1375,0.7124,0.7324,855,3.418,11.1084,-13.3667,82,1.0835,0,10.3216,47.0221,25,0.7524,8034,4.0128,51.2487
rg,1625112520213614511,1,0.135,0.7156,0.7332,856,3.6011,11.2915,-12.7563,82,1.0835,0,10.3038,47.0432,25,0.7524,8079,4.0128,51.2129
rg,1625112520213634122,1,0.137,0.7183,0.7363,857,3.0518,11.4136,-13.0005,82,1.0785,0,10.2942,47.0403,25,0.7504,8096,4.0128,51.1739
rg,1625112520213652270,1,0.1335,0.7139,0.7378,858,3.418,11.4136,-13.916,82,1.0835,0,10.3183,47.0383,25,0.7514,8119,4.0128,51.108
rg,1625112520213670270,1,0.1311,0.7161,0.7405,859,3.7842,11.2915,-13.916,82,1.0835,0,10.3428,47.0522,25,0.7514,8142,4.0128,51.0387
rg,1625112520213687993,1,0.1318,0.7156,0.7437,860,3.2349,10.6812,-13.0005,82,1.0825,0,10.3234,47.0367,25,0.7504,8187,4.0128,50.9751
rg,1625112520213705641,1,0.1345,0.7148,0.7368,861,3.7842,10.437,-13.1836,82,1.0835,0,10.2966,47.0509,25,0.7524,8180,4.0128,50.9007
rg,1625112520213722715,1,0.1367,0.7183,0.7383,862,3.2349,10.9863,-12.8784,82,1.0835,0,10.3216,47.0582,25,0.7514,8197,4.0128,50.8389
rg,1625112520213740067,1,0.135,0.7195,0.7373,863,3.6621,10.5591,-13.1226,82,1.0835,0,10.2962,47.0744,25,0.7514,8265,4.0128,50.7712
rg,1625112520213757678,1,0.1343,0.7192,0.7336,864,3.6011,11.4136,-14.2212,82,1.0835,0,10.3278,47.0919,25,0.7504,8331,4.0128,50.6997
rg,1625112520558581176,1,0.1382,0.7188,0.729,865,3.0518,11.4136,-14.7095,82,1.0835,0,10.32,47.1384,25,0.7514,25493,4.0128,50.648
rg,1625112520558620917,1,0.134,0.717,0.7417,866,3.7842,11.4746,-13.6719,82,1.0835,0,10.338,47.1478,25,0.7514,8602,4.0128,50.5909
rg,1625112520558640843,1,0.1377,0.7195,0.7324,867,3.6011,11.2915,-13.0005,82,1.0835,0,10.3218,47.1703,25,0.7514,7668,4.0128,50.5503
rg,1625112520558660047,1,0.1357,0.7217,0.7278,868,3.479,11.5356,-13.0005,82,1.0835,0,10.3464,47.1853,25,0.7514,7607,4.0128,50.4859
rg,1625112520558677861,1,0.1343,0.7212,0.7378,869,3.6621,11.1084,-13.3667,82,1.0835,0,10.3441,47.2003,25,0.7514,7691,4.0128,50.4288
rg,1625112520558695010,1,0.1284,0.7266,0.7437,870,3.8452,11.3525,-13.3057,82,1.0835,0,10.3607,47.2229,25,0.7514,7733,4.0128,50.3806
rg,1625112520558735565,1,0.1284,0.7139,0.7368,871,3.1738,11.2305,-12.8174,82,1.0835,0,10.3558,47.2101,25,0.7524,7866,4.0128,50.3406
rg,1625112520558755121,1,0.1245,0.7222,0.7349,872,3.2349,10.9863,-13.2446,82,1.0835,0,10.3679,47.2088,25,0.7514,9323,4.0128,50.2555
rg,1625112520558772380,1,0.1292,0.7214,0.7336,873,3.6011,11.4136,-14.0381,82,1.0835,0,10.4025,47.2254,25,0.7524,7729,4.0128,50.1903
rg,1625112520558789213,1,0.1318,0.7209,0.731,874,3.8452,11.4136,-14.3433,82,1.0835,0,10.4387,47.2531,25,0.7514,7691,4.0128,50.1174
rg,1625112520558806824,1,0.1331,0.7202,0.7314,875,3.3569,10.7422,-12.9395,82,1.0835,0,10.4077,47.2695,25,0.7514,7893,4.0128,50.0648
rg,1625112520558827232,1,0.1313,0.7253,0.7358,876,3.479,11.2915,-13.5498,82,1.0825,0,10.4198,47.2835,25,0.7514,7776,4.0128,50.0101
rg,1625112520558844787,1,0.1348,0.7168,0.7341,877,3.2959,11.3525,-13.0005,82,1.0835,0,10.4081,47.282,25,0.7524,7863,4.0128,49.9705
rg,1625112520558862306,1,0.1365,0.7192,0.738,878,2.9297,10.8643,-13.7329,82,1.0835,0,10.4029,47.2574,25,0.7524,7791,4.0128,49.8958
rg,1625112520558879380,1,0.1348,0.7205,0.7368,879,3.2959,11.2915,-13.6108,82,1.0845,0,10.4093,47.2551,25,0.7504,7874,4.0128,49.8377
rg,1625112520558896398,1,0.1355,0.719,0.7339,880,3.479,11.1694,-14.0991,82,1.0845,0,10.4241,47.2593,25,0.7524,7883,4.0128,49.763
rg,1625112520558912806,1,0.1323,0.7192,0.731,881,3.1128,10.6812,-13.2446,82,1.0825,0,10.4062,47.2553,25,0.7514,7939,4.0128,49.698
rg,1625112520558929287,1,0.134,0.717,0.7319,882,3.418,11.3525,-13.5498,82,1.0835,0,10.4123,47.2608,25,0.7494,7922,4.0128,49.6439
rg,1625112520558946232,1,0.1289,0.717,0.7332,883,3.479,11.5967,-14.1602,82,1.0835,0,10.4331,47.2737,25,0.7514,7927,4.0128,49.5755
rg,1625112520558962510,1,0.1372,0.7202,0.7346,884,4.1504,11.2915,-13.7329,82,1.0825,0,10.4364,47.3073,25,0.7504,7922,4.0128,49.5147
rg,1625112520558979676,1,0.1313,0.718,0.7336,885,3.6621,11.4136,-13.916,82,1.0845,0,10.4599,47.3178,25,0.7524,7939,4.0128,49.4522
rg,1625112520559012936,1,0.1328,0.718,0.7319,886,3.6011,12.0239,-14.4653,82,1.0845,0,10.4769,47.3279,25,0.7524,7982,4.0128,49.4025
rg,1625112520559032380,1,0.1304,0.7251,0.7363,887,3.3569,11.3525,-12.4512,82,1.0825,0,10.4578,47.3395,25,0.7504,8026,4.0128,49.3799
rg,1625112520559050861,1,0.1401,0.7173,0.7295,888,3.7842,11.2305,-13.855,82,1.0825,0,10.4546,47.3585,25,0.7504,8015,4.0095,49.3148
rg,1625112520559069565,1,0.135,0.7195,0.7349,889,3.6011,11.4746,-13.3057,90,1.0835,0,10.4903,47.3455,25,0.7524,8056,4.0095,49.2381
rg,1625112520559088028,1,0.134,0.7183,0.7317,890,3.7842,11.3525,-13.7939,90,1.0825,0,10.5006,47.3631,25,0.7514,8481,4.0095,49.178
rg,1625112520559106250,1,0.1296,0.7126,0.7322,891,3.2349,11.4136,-13.1836,90,1.0835,0,10.5026,47.3518,25,0.7514,8132,4.0095,49.1347
rg,1625112520559124528,1,0.137,0.7146,0.7363,892,3.3569,10.437,-12.5122,90,1.0845,0,10.4444,47.3406,25,0.7514,10500,4.0095,49.0799
rg,1625112520559142639,1,0.1345,0.7178,0.7354,893,3.6011,11.5356,-13.4277,90,1.0835,0,10.4503,47.3476,25,0.7524,8127,4.0095,49.0342
rg,1625112520559159732,1,0.1301,0.7192,0.7346,894,3.54,11.2305,-13.916,90,1.0835,0,10.4762,47.3493,25,0.7524,8909,4.0095,48.9702
rg,1625112520559178065,1,0.1331,0.7188,0.7402,895,3.418,11.1694,-13.2446,90,1.0825,0,10.4698,47.3414,25,0.7504,8213,4.0095,48.9174
rg,1625112520559195769,1,0.1316,0.7209,0.7307,896,4.2725,11.4136,-13.7939,90,1.0845,0,10.4878,47.3848,25,0.7494,8426,4.0095,48.8602
rg,1625112520911937970,1,0.135,0.7173,0.7239,897,3.9673,11.4136,-13.916,90,1.0835,0,10.5064,47.4398,25,0.7524,25300,4.0095,48.7927
rg,1625112520911976692,1,0.1367,0.7253,0.7341,898,3.7842,11.4136,-13.1226,90,1.0835,0,10.4942,47.4651,25,0.7514,8482,4.0095,48.7547
rg,1625112520911996933,1,0.1318,0.7241,0.7314,899,3.479,11.3525,-13.9771,90,1.0835,0,10.5154,47.4747,25,0.7524,7729,4.0095,48.6919
rg,1625112520912016266,1,0.1331,0.7151,0.7356,900,3.1738,11.4746,-13.6108,90,1.0835,0,10.525,47.4535,25,0.7514,9162,4.0095,48.639
rg,1625112520912062433,1,0.1313,0.7183,0.7388,901,3.8452,11.2915,-14.4043,90,1.0835,0,10.5574,47.455,25,0.7514,7662,4.0095,48.5587
rg,1625112520912082785,1,0.1362,0.7227,0.7368,902,3.3569,11.5967,-14.2822,90,1.0835,0,10.5835,47.4493,25,0.7514,8905,4.0095,48.4927
rg,1625112520912101081,1,0.1323,0.7166,0.7275,903,3.9062,11.3525,-13.4277,90,1.0855,0,10.5821,47.4734,25,0.7524,8318,4.0095,48.4437
