name,time,activity,ax,ay,az,batch_val,gx,gy,gz,ibat,index,middle,pitch,roll,temp,thumb,ts,vbat,yaw
lg,1625009849765929082,0,0.2637,-0.1589,0.9648,1,4.3945,5.0049,9.5215,73,1.5287,1.4607,-19.5307,-16.1238,35,0.1431,20141,4.0271,30.8875
lg,1625009849765969323,0,0.2537,-0.1646,0.9958,2,1.8311,-2.2583,11.1694,73,1.5297,1.4617,-19.2794,-15.9327,35,0.1431,8425,4.0271,31.2759
lg,1625009849765989175,0,0.2551,-0.1526,1.0166,3,1.5869,-8.1177,13.6108,73,1.5297,1.4617,-19.2316,-15.7787,35,0.1431,7921,4.0271,31.8239
lg,1625009849766007712,0,0.3276,-0.1716,1.0154,4,1.0986,-17.8833,18.1274,73,1.5297,1.4617,-19.6564,-15.7984,35,0.1431,7936,4.0271,32.6875
lg,1625009849766025600,0,0.3777,-0.175,1.0007,5,0.9766,-19.9585,18.6157,73,1.5297,1.4617,-20.2424,-15.9065,35,0.1431,7920,4.0271,33.6526
lg,1625009849766043434,0,0.4021,-0.1821,1.0183,6,-0.8545,-18.1274,21.4844,73,1.5297,1.4617,-20.7378,-16.0927,35,0.1431,7968,4.0271,34.668
lg,1625009849766061545,0,0.4075,-0.1819,1.0459,7,-1.8921,-12.207,21.6064,73,1.5297,1.4617,-20.9734,-16.2858,36,0.1441,7914,4.0271,35.613
lg,1625009849766079175,0,0.4155,-0.1943,1.0366,8,-0.7324,-9.4604,19.3481,73,1.5287,1.4617,-21.0465,-16.3744,36,0.1431,8016,4.0271,36.4057
lg,1625009849766096323,0,0.4053,-0.2058,1.0046,9,1.6479,-2.8076,19.3481,73,1.5297,1.4617,-20.9531,-16.4122,36,0.1431,8018,4.0271,37.165
lg,1625009849766113823,0,0.3967,-0.1838,1,10,2.8076,5.9814,18.7378,73,1.5297,1.4627,-20.5264,-16.3063,36,0.1431,8599,4.0271,37.7747
lg,1625009849766131600,0,0.364,-0.179,0.9927,11,1.4038,12.8174,15.7471,73,1.5307,1.4627,-19.8318,-16.1742,35,0.1431,8466,4.0271,38.1788
lg,1625009849766149323,0,0.3523,-0.1785,0.9885,12,0.3662,15.3198,14.8315,73,1.5297,1.4627,-18.9634,-16.0279,35,0.1431,8068,4.0271,38.4594
lg,1625009849766166230,0,0.3088,-0.1658,0.99,13,-0.6714,17.0288,16.9678,73,1.5277,1.4617,-18.0503,-15.946,35,0.1431,8023,4.0271,38.8623
lg,1625009849766183619,0,0.3193,-0.1631,1.0127,14,-0.9766,18.2495,13.4277,73,1.5287,1.4617,-17.174,-15.812,35,0.1431,8060,4.0271,39.1085
lg,1625009849766200600,0,0.3223,-0.1726,1.0105,15,-0.7935,18.5547,14.3433,73,1.5297,1.4637,-16.2643,-15.6739,35,0.1431,8223,4.0271,39.3459
lg,1625009849766217212,0,0.312,-0.1782,1.0083,16,-1.1597,22.522,10.437,73,1.5297,1.4627,-15.3134,-15.5388,35,0.1431,8166,4.0271,39.4469
lg,1625009849766233619,0,0.2737,-0.168,1.0068,17,-2.4414,27.9541,8.9111,73,1.5277,1.4627,-14.132,-15.4043,35,0.1431,33606,4.0271,39.4276
lg,1625009849766250897,0,0.2949,-0.1538,1.0085,18,-1.4648,27.0386,6.6528,73,1.5297,1.4627,-13.1013,-15.1885,35,0.1431,8305,4.0271,39.3309
lg,1625009849766267693,0,0.2847,-0.1367,1.0186,19,-0.9155,28.0151,7.3242,73,1.5297,1.4617,-12.0806,-14.8704,35,0.1431,8270,4.0271,39.1037
lg,1625009849766284193,0,0.313,-0.0938,0.9841,20,-1.8921,32.4097,4.1504,73,1.5287,1.4617,-11.0089,-14.5457,35,0.1431,8227,4.0271,38.8524
lg,1625009849766301212,0,0.3,-0.0898,0.9751,21,-9.3384,39.6118,4.0894,73,1.5297,1.4617,-9.6805,-14.515,35,0.1431,8443,4.0271,38.5383
lg,1625009849766317971,0,0.2698,-0.1228,0.9832,22,-14.8926,43.1519,4.2725,73,1.5297,1.4617,-8.1166,-14.9003,35,0.1431,8298,4.0271,38.0636
lg,1625009849766334360,0,0.2495,-0.167,1.0024,23,-20.6909,47.4243,3.6011,73,1.5287,1.4607,-6.4789,-15.4649,35,0.1421,8282,4.0271,37.6715
lg,1625009849766350471,0,0.2305,-0.1838,1.0022,24,-21.0571,49.9878,5.0659,73,1.5287,1.4607,-4.7537,-16.0698,35,0.1421,8325,4.0271,37.298
lg,1625009849766366823,0,0.2183,-0.1589,1.0278,25,-21.2402,48.7671,8.2397,73,1.5297,1.4617,-3.0769,-16.6145,35,0.1431,8338,4.0271,37.0401
lg,1625009849766383323,0,0.1936,-0.1665,1.0352,26,-22.0947,48.0957,7.5073,73,1.5297,1.4617,-1.4477,-17.1899,35,0.1431,8449,4.0271,36.7512
lg,1625009849766400360,0,0.1558,-0.1707,1.0356,27,-22.3389,38.6963,6.7749,73,1.5297,1.4617,-0.1719,-17.7673,35,0.1431,8434,4.0271,36.5364
lg,1625009849766417045,0,0.1975,-0.1609,1.063,28,-20.6299,19.9585,10.8032,73,1.5287,1.4607,0.3147,-18.2297,36,0.1431,8511,4.0271,36.6999
lg,1625009849766433786,0,-0.0408,-0.8572,0.658,29,40.2832,100.708,-56.3965,93,1.4707,1.4127,3.508,-18.1364,35,0.1541,14180,4.0117,33.2892
lg,1625009849766451249,0,-0.0815,-0.9209,0.5881,30,25.0244,103.9429,-84.5337,93,1.4747,1.4067,6.4185,-18.9666,35,0.1501,9440,4.0117,28.6554
lg,1625009849766468675,0,-0.1533,-1.0056,0.3616,31,19.2261,96.6187,-76.1719,93,1.4767,1.4007,9.1709,-20.5367,35,0.1481,9269,4.0117,24.2417
lg,1625009849766485286,0,-0.198,-0.8997,0.2485,32,28.5645,70.9839,-40.1001,93,1.4777,1.4007,11.4836,-21.6785,35,0.1491,8883,4.0117,21.3842
lg,1625009850129870619,0,-0.562,-0.8005,0.4807,33,-42.7246,20.5688,110.4736,93,1.4577,1.4157,13.4163,-23.6598,35,0.1511,30323,4.0117,26.4426
lg,1625009850129918397,0,-0.4033,-0.7803,0.7134,34,-57.1899,-99.8535,165.9546,93,1.4467,1.4097,12.8595,-25.0227,35,0.1521,8821,4.0117,34.124
lg,1625009850129976730,0,-0.1023,-0.5129,0.1599,35,3.9062,-175.0488,6.1035,93,1.4427,1.4067,6.7502,-25.9728,35,0.1501,7972,4.0117,37.0356
lg,1625009850129995711,0,-0.3384,-0.9734,1.0535,36,-79.2847,-105.5298,-12.8784,93,1.4417,1.4077,2.9965,-29.5119,35,0.1501,8094,4.0117,39.4498
lg,1625009850130014860,0,-0.3198,-1.0862,0.5261,37,-39.4897,-148.1934,17.5781,93,1.4417,1.4117,-1.2208,-32.2691,36,0.1511,8030,4.0117,43.0241
lg,1625009850130032637,0,0.0847,-0.9148,0.3767,38,-23.7427,-196.228,0.6714,93,1.4417,1.4127,-7.8607,-34.8676,36,0.1521,8781,4.0117,47.4333
lg,1625009850130051063,0,0.5779,-0.8875,0.5215,39,-7.7515,-149.5361,31.1279,93,1.4407,1.4147,-12.803,-36.8323,36,0.1521,8628,4.0117,52.15
lg,1625009850130071785,0,0.6306,-0.8943,0.5283,40,-0.7324,-71.8384,25.8789,148,1.4417,1.4177,-15.1842,-38.2645,36,0.1541,7994,3.9534,54.9816
lg,1625009850130090285,0,0.2114,-0.9583,0.6311,41,16.7847,90.3931,-30.0903,148,1.4447,1.4187,-12.924,-37.5168,36,0.1531,12341,3.9534,51.8998
lg,1625009850130108230,0,0.0696,-0.939,0.5933,42,18.0664,117.981,-44.6167,148,1.4517,1.4207,-9.9177,-36.7225,36,0.1541,7996,3.9534,47.7207
lg,1625009850130125008,0,-0.1587,-0.9429,0.5457,43,18.1274,134.9487,-74.3408,148,1.4607,1.4207,-6.6788,-36.0701,36,0.1531,8051,3.9534,42.225
lg,1625009850130144582,0,-0.1951,-0.8887,0.5217,44,38.8184,109.4971,-82.5806,148,1.4697,1.4187,-4.3886,-34.9013,35,0.1521,8196,3.9534,37.0815
lg,1625009850130161563,0,-0.1685,-0.8799,0.4971,45,35.0952,99.3652,-91.0645,148,1.4717,1.4127,-2.6657,-34.1402,35,0.1501,8094,3.9534,31.8986
lg,1625009850130179304,0,-0.1917,-0.9954,0.4109,46,20.1416,73.0591,-96.6797,148,1.4737,1.3997,-1.9521,-34.3673,35,0.1461,9118,3.9534,27.1132
lg,1625009850130199322,0,-0.1729,-0.9971,0.1846,47,34.3628,45.8984,-75.7446,148,1.4747,1.3837,-1.7208,-34.4642,35,0.1441,8242,3.9534,23.6306
lg,1625009850130217804,0,-0.095,-0.7131,0.1858,48,45.166,29.1138,-50.9033,148,1.4767,1.3737,-0.7334,-33.9679,36,0.1451,8246,3.9534,22.8823
lg,1625009850130235841,0,-0.0881,-0.5959,0.0659,49,38.5742,33.3862,39.6118,148,1.4777,1.3727,1.6027,-34.1313,36,0.1491,8186,3.9534,23.4657
lg,1625009850130253915,0,-0.2402,-0.6768,0.3792,50,-18.6768,55.0537,104.8584,148,1.4767,1.3817,6.4107,-35.688,36,0.1511,8598,3.9534,25.6054
lg,1625009850130271545,0,-0.6387,-0.9497,0.48,51,-46.936,22.2168,165.8325,148,1.4737,1.3887,12.0378,-37.6876,36,0.1511,8242,3.9534,30.3206
lg,1625009850130289619,0,-0.8071,-1.0449,0.7297,52,-54.9316,-101.1353,214.1113,148,1.4607,1.3937,14.9322,-38.2474,35,0.1481,8294,3.9534,39.6712
lg,1625009850130310934,0,-0.679,-0.9141,0.7046,53,-44.8608,-174.6216,216.4307,148,1.4397,1.3957,15.0927,-37.3286,35,0.1491,8429,3.9534,51.0855
lg,1625009850130329471,0,0.3281,-0.4983,1.5095,54,-53.9551,-310.2417,155.8838,148,1.4337,1.3937,7.9439,-36.2129,35,0.1491,8360,3.9534,63.8854
lg,1625009850130347600,0,0.3044,-0.907,0.8882,55,-100.8301,-315.7959,46.814,148,1.4327,1.3957,-1.5923,-40.0699,35,0.1491,8389,3.9534,73.1079
lg,1625009850130365582,0,0.4263,-1.3748,0.48,56,-114.0747,-291.1377,47.3633,148,1.4337,1.3987,-10.4547,-45.8098,35,0.1491,8348,3.9534,81.5664
lg,1625009850130382471,0,0.4983,-1.3064,0.3313,57,-77.3315,-249.5728,-12.7563,148,1.4327,1.4007,-17.7861,-51.7875,35,0.1491,8465,3.9534,89.1741
lg,1625009850130399822,0,0.6145,-1.0696,0.0576,58,6.7139,-86.2427,3.3569,148,1.4337,1.4017,-20.3209,-53.6767,35,0.1501,8476,3.9534,92.5449
lg,1625009850130416619,0,0.564,-0.8447,0.4448,59,56.9458,85.2051,12.0239,148,1.4337,1.4027,-18.2807,-50.8544,35,0.1511,8486,3.9534,90.0853
lg,1625009850130434545,0,0.2354,-0.7017,0.3008,60,63.2935,177.2461,-0.9766,148,1.4357,1.4047,-12.9008,-47.163,36,0.1511,8467,3.9534,84.6317
lg,1625009850130452119,0,-0.1841,-0.7622,0.6638,61,64.6362,251.5259,10.8032,148,1.4407,1.4067,-4.6876,-43.5946,36,0.1531,8462,3.9534,77.7463
lg,1625009850130469008,0,-0.2764,-0.8066,0.658,62,51.8188,162.7197,-32.8369,148,1.4497,1.4097,-0.0509,-41.5627,36,0.1531,8546,3.9534,72.4081
lg,1625009850130486378,0,-0.1387,-0.8435,0.6892,63,46.814,99.0601,-78.6133,148,1.4617,1.4097,1.166,-40.0918,35,0.1531,8473,3.9534,67.4443
lg,1625009850130503082,0,-0.1509,-0.8782,0.6272,64,41.0767,94.5435,-99.4873,148,1.4697,1.4067,1.8138,-39.2711,35,0.1511,8588,3.9534,61.9577
lg,1625009850497143544,0,-0.3708,-0.8828,0.1736,65,47.4243,38.5132,-47.7295,148,1.4767,1.4087,2.6146,-38.8049,35,0.1571,27006,3.9534,59.4657
lg,1625009850497229007,0,-0.5369,-0.7266,0.3899,66,-27.0386,-0.061,82.0923,148,1.4737,1.4137,5.8582,-40.4329,35,0.1581,10475,3.9534,61.9495
lg,1625009850498340785,0,-0.7036,-0.6931,0.377,67,-41.626,-79.4067,129.6997,148,1.4577,1.4167,8.2339,-41.9591,35,0.1551,8271,3.9534,67.9037
lg,1625009850498378656,0,-0.6755,-0.7368,0.5933,68,-58.7158,-177.6733,172.3633,148,1.4377,1.4147,8.7269,-43.1258,35,0.1561,8051,3.9534,77.823
lg,1625009850498408693,0,-0.0408,-0.5706,1.2583,69,-62.439,-237.0605,174.3164,148,1.4337,1.4077,5.8661,-43.621,36,0.1541,8065,3.9534,89.5386
lg,1625009850498438137,0,0.1868,-0.9233,0.8096,70,-90.0879,-303.4058,28.3203,148,1.4347,1.4077,-2.3611,-47.121,36,0.1531,9044,3.9534,98.9381
lg,1625009850498467489,0,0.5176,-1.4255,0.5581,71,-100.8911,-288.5742,35.2783,148,1.4357,1.4097,-9.2814,-52.926,36,0.1531,8691,3.9534,108.7689
lg,1625009850498658044,0,0.8403,-1.2712,0.2607,72,-31.311,-135.3149,42.9688,148,1.4367,1.4107,-11.9382,-55.9998,35,0.1531,8146,3.9534,114.4226
lg,1625009850498705989,0,0.9866,-1.2871,0.4009,73,5.9204,-40.5273,64.1479,148,1.4367,1.4117,-11.8372,-56.5669,35,0.1541,8399,3.9534,117.3004
lg,1625009850498752896,0,1.0471,-0.9529,0.4939,74,38.4521,101.3184,24.6582,148,1.4387,1.4137,-9.9711,-54.6534,35,0.1551,8212,3.9534,114.4632
lg,1625009850498786711,0,0.2603,-0.9409,0.5125,75,56.1523,302.9175,-20.2026,148,1.4427,1.4157,-3.5407,-51.4708,35,0.1561,8232,3.9534,104.2871
lg,1625009850498820137,0,-0.0059,-0.8948,0.4753,76,56.2744,325.7446,-27.2827,148,1.4497,1.4187,3.3822,-49.7989,36,0.1571,8234,3.9534,93.5386
lg,1625009850498852193,0,-0.3525,-0.8789,0.4802,77,49.4995,279.48,-72.0215,148,1.4597,1.4197,9.0211,-49.3702,36,0.1571,8253,3.9534,83.1071
lg,1625009850498885785,0,-0.3828,-0.8296,0.5317,78,49.1333,197.998,-104.3701,148,1.4687,1.4197,11.4699,-49.268,36,0.1551,8224,3.9534,74.2085
lg,1625009850498917933,0,-0.4197,-0.8796,0.3486,79,38.269,169.1895,-109.314,148,1.4737,1.4167,12.4125,-50.3971,36,0.1541,8290,3.9534,66.6219
lg,1625009850498948174,0,-0.4431,-0.9475,0.28,80,23.9258,122.6196,-100.4028,148,1.4727,1.4117,12.8492,-51.6886,35,0.1541,8311,3.9534,59.9484
lg,1625009850498975174,0,-0.5471,-0.8755,0.1443,81,24.7192,67.9321,-45.7153,148,1.4737,1.4107,13.8495,-52.4325,35,0.1561,8302,3.9534,56.3736
lg,1625009850499001582,0,-0.6013,-0.8184,0.2969,82,-24.4141,29.7852,77.7588,148,1.4747,1.4137,17.8629,-53.7263,35,0.1581,8324,3.9534,57.1691
lg,1625009850499028119,0,-0.6245,-0.7825,0.4412,83,-32.4707,5.4932,124.2065,148,1.4707,1.4177,23.0289,-54.4352,35,0.1601,8357,3.9534,59.9363
lg,1625009850499054822,0,-0.8269,-0.658,0.239,84,-47.0581,-83.0078,163.6353,148,1.4617,1.4207,27.4223,-53.6555,36,0.1601,8368,3.9534,66.9795
lg,1625009850499081563,0,-0.7607,-0.7305,0.5886,85,-63.5376,-205.5054,210.9985,148,1.4467,1.4207,29.4404,-49.7571,36,0.1591,8359,3.9534,80.292
lg,1625009850499108804,0,0.0166,-0.5737,0.575,86,-43.1519,-349.9756,120.7886,148,1.4437,1.4177,22.3803,-44.6975,36,0.1551,12679,3.9534,95.3488
lg,1625009850499136248,0,0.4387,-1.3521,0.9277,87,-142.2729,-412.1094,53.1006,148,1.4457,1.4187,11.1335,-46.7991,36,0.1551,9953,3.9534,108.9705
lg,1625009850499164878,0,0.9497,-1.3513,0.3501,88,-106.8726,-338.3179,9.6436,148,1.4467,1.4217,1.0102,-50.8336,35,0.1561,8517,3.9534,119.2849
lg,1625009850499193896,0,1.0696,-1.2581,0.1851,89,-23.6816,-96.9238,-9.3994,148,1.4477,1.4227,-3.155,-52.6858,35,0.1571,8592,3.9534,122.1071
lg,1625009850499230174,0,1.0186,-1.1965,0.3706,90,22.1558,24.7192,-7.8125,148,1.4497,1.4237,-3.9996,-52.0799,35,0.1591,8568,3.9534,121.1395
lg,1625009850499259933,0,0.5256,-0.9355,0.4702,91,65.1855,226.6846,-37.6587,148,1.4547,1.4267,1.3291,-49.4766,35,0.1591,10210,3.9534,110.7867
lg,1625009850499289767,0,-0.0667,-0.8669,0.4136,92,65.2466,323.1201,-69.7021,148,1.4597,1.4267,7.7728,-48.3783,35,0.1591,8457,3.9534,99.2071
lg,1625009850499317137,0,-0.491,-0.8574,0.4055,93,58.5938,294.3115,-98.0835,148,1.4677,1.4247,13.3505,-48.7374,35,0.1591,8545,3.9534,87.5519
lg,1625009850499344100,0,-0.552,-0.8621,0.5024,94,60.73,202.5146,-111.5112,148,1.4707,1.4187,15.9003,-49.0473,35,0.1581,8707,3.9534,78.1396
lg,1625009850499372507,0,-0.573,-0.8655,0.4673,95,54.9927,157.5928,-115.0513,148,1.4717,1.4107,16.2077,-49.1569,35,0.1561,8562,3.9534,71.9364
lg,1625009850499399785,0,-0.5178,-0.8372,0.2104,96,54.8706,56.7017,-72.1436,148,1.4727,1.4027,16.1406,-48.9155,35,0.1531,8619,3.9534,67.9352
lg,1625009850870249304,0,-0.5122,-0.8057,0.3801,97,-53.9551,-69.458,140.0757,148,1.4667,1.4167,19.1996,-49.5709,36,0.1591,27171,3.9534,75.5549
lg,1625009850870288822,0,-0.6516,-0.8965,0.5278,98,-52.6123,-185.9131,192.2607,148,1.4447,1.4187,20.6382,-48.1495,36,0.1591,10935,3.9534,86.7573
lg,1625009850870308915,0,0.3381,-0.4204,0.8086,99,-51.9409,-232.2998,195.0684,148,1.4387,1.4157,14.0202,-43.993,36,0.1551,7995,3.9534,99.7628
lg,1625009850870328155,0,0.3723,-0.7183,0.7024,100,-60.4858,-323.2422,35.5835,148,1.4387,1.4157,4.5607,-44.8123,36,0.1531,7934,3.9534,109.9088
lg,1625009850870346822,0,0.6157,-1.3354,0.6243,101,-111.2061,-317.8101,-1.4648,148,1.4397,1.4177,-5.0407,-50.0001,35,0.1541,7998,3.9534,119.1709
lg,1625009850870365304,0,0.8049,-1.4023,0.4363,102,-83.9233,-235.2295,-7.6904,148,1.4407,1.4197,-10.2525,-53.4191,35,0.1551,8012,3.9534,123.0971
lg,1625009850870384618,0,0.8806,-1.3013,0.2139,103,-8.5449,-49.9878,-22.3389,148,1.4407,1.4207,-10.1386,-52.1109,35,0.1561,9272,3.9534,121.1377
lg,1625009850870403378,0,0.6013,-0.9497,0.5752,104,67.0776,168.8843,-8.2397,148,1.4417,1.4227,-4.3754,-48.3434,36,0.1571,10036,3.9534,112.9073
lg,1625009850870421563,0,0.032,-0.7732,0.4946,105,65.5518,288.9404,-21.2402,148,1.4457,1.4247,2.8995,-45.9616,36,0.1561,8128,3.9534,103.9061
lg,1625009850870439081,0,-0.2776,-0.7866,0.4192,106,41.687,244.3848,-44.6777,148,1.4517,1.4257,8.9524,-45.7423,36,0.1561,8084,3.9534,95.5886
lg,1625009850870457007,0,-0.447,-0.9272,0.5042,107,21.3013,179.3823,-63.7817,148,1.4627,1.4247,12.5993,-46.7778,36,0.1571,13065,3.9534,88.4271
lg,1625009850870475841,0,-0.365,-0.9099,0.5618,108,30.9448,113.5864,-59.5093,148,1.4707,1.4237,14.195,-47.1504,36,0.1571,8103,3.9534,83.2477
lg,1625009850870494322,0,-0.2305,-0.9377,0.4788,109,33.9966,58.8379,-68.7256,148,1.4747,1.4187,13.7115,-47.3002,36,0.1541,8122,3.9534,79.3943
lg,1625009850870512841,0,-0.1792,-0.9917,0.4736,110,25.0854,37.7197,-71.7773,148,1.4737,1.4097,12.4543,-47.6783,36,0.1521,8191,3.9534,76.1044
lg,1625009850870530841,0,-0.1401,-0.9541,0.217,111,34.8511,4.5776,-61.7065,148,1.4747,1.3997,10.6421,-47.7743,36,0.1521,8186,3.9534,74.0326
lg,1625009850870549378,0,-0.1057,-0.7371,0.0508,112,35.3394,9.8877,12.5122,148,1.4747,1.3957,11.2641,-47.7655,36,0.1561,8570,3.9534,73.8128
lg,1625009850870566878,0,-0.2971,-0.7556,0.4407,113,23.0103,34.9731,59.3872,148,1.4767,1.4007,16.4048,-48.4259,36,0.1581,8737,3.9534,74.9612
lg,1625009850870584044,0,-0.4158,-0.8652,0.4836,114,-42.4194,51.6968,157.2876,148,1.4717,1.4067,22.7481,-49.6723,36,0.1581,8726,3.9534,77.5241
lg,1625009850870601489,0,-0.6206,-0.853,0.4487,115,-45.5322,-45.166,196.167,148,1.4587,1.4117,27.9216,-48.8618,35,0.1571,8987,3.9534,84.509
lg,1625009850870618915,0,-0.6323,-0.8152,0.7739,116,-43.0298,-120.6665,211.4258,148,1.4407,1.4117,30.8902,-45.2256,35,0.1571,8290,3.9534,95.2091
lg,1625009850870636100,0,0.0251,-0.4968,0.5547,117,-20.6909,-272.8271,74.585,148,1.4357,1.4087,23.7757,-40.9342,35,0.1541,8714,3.9534,106.063
lg,1625009850870653489,0,0.1287,-1.0449,1.2209,118,-114.9902,-281.7383,40.4663,148,1.4377,1.4117,15.1976,-43.0394,35,0.1511,9059,3.9534,115.0781
lg,1625009850870671081,0,0.5076,-1.3252,0.5388,119,-102.5391,-303.1006,13.0005,148,1.4397,1.4147,5.7698,-46.3825,35,0.1501,9164,3.9534,123.887
lg,1625009850870688304,0,0.8652,-1.2483,0.2078,120,-44.6777,-150.6958,-6.3477,148,1.4397,1.4167,0.1177,-48.972,35,0.1511,8389,3.9534,128.1035
lg,1625009850870706192,0,0.9207,-1.1011,0.4417,121,29.9683,61.4014,-3.9673,148,1.4417,1.4187,0.2162,-48.3598,35,0.1521,9108,3.9534,126.1388
lg,1625009850870723192,0,0.3088,-0.8672,0.3735,122,54.1992,186.6455,-16.2354,148,1.4437,1.4207,6.2965,-47.0844,35,0.1541,8751,3.9534,116.7709
lg,1625009850870740785,0,-0.3164,-0.8171,0.417,123,61.7065,345.3369,-48.8892,148,1.4497,1.4247,14.69,-47.3447,36,0.1551,8424,3.9534,105.0976
lg,1625009850870758155,0,-0.4954,-0.7939,0.4009,124,56.3354,314.7583,-60.1807,148,1.4577,1.4267,21.7911,-49.288,36,0.1541,8800,3.9534,93.3982
lg,1625009850870775452,0,-0.6509,-0.8259,0.4915,125,41.5039,206.604,-75.9277,148,1.4667,1.4257,25.1627,-51.5781,36,0.1541,8457,3.9534,84.2108
lg,1625009850870792285,0,-0.5344,-0.832,0.4666,126,48.645,96.9238,-80.8105,148,1.4727,1.4227,25.1543,-52.3393,36,0.1541,8473,3.9534,78.4925
lg,1625009850870810044,0,-0.5664,-0.8613,0.2781,127,27.2217,11.7188,-70.7397,148,1.4767,1.4227,23.5052,-52.9041,36,0.1541,9281,3.9534,75.9016
lg,1625009850870832174,0,-0.55,-0.8157,0.2078,128,19.3481,-28.1982,-38.8184,148,1.4787,1.4257,22.9008,-53.0348,36,0.1571,9116,3.9534,77.6737
lg,1625009851239595933,0,-0.5396,-0.7222,0.1965,129,-37.1704,-141.9678,144.8364,148,1.4507,1.4307,23.6529,-50.8616,36,0.1621,27412,3.9534,87.3856
lg,1625009851239648488,0,0.0815,-0.8245,0.575,130,-46.0205,-309.9365,82.8247,148,1.4457,1.4267,17.1471,-48.5689,36,0.1621,13266,3.9534,99.6279
lg,1625009851239681248,0,0.4023,-1.167,0.8606,131,-99.3652,-333.8623,60.6079,148,1.4467,1.4267,9.111,-49.993,36,0.1631,8024,3.9534,111.5428
lg,1625009851239712803,0,1.0146,-1.3865,0.4456,132,-83.4961,-298.9502,29.2358,148,1.4477,1.4277,1.0894,-53.1149,36,0.1621,8024,3.9534,121.5619
lg,1625009851239742470,0,1.2913,-1.3423,0.4026,133,-3.7842,-71.106,9.9487,148,1.4497,1.4287,-1.8416,-53.8303,36,0.1651,8072,3.9534,124.0821
lg,1625009851239772026,0,1.1995,-1.1829,0.4512,134,37.0483,51.0864,-7.4463,148,1.4547,1.4307,-2.2101,-52.6463,36,0.1641,8115,3.9534,122.2572
lg,1625009851239801488,0,0.5383,-0.9758,0.4099,135,75.1953,274.4141,-64.6362,148,1.4627,1.4337,1.6255,-50.1035,36,0.1631,8326,3.9534,112.0859
lg,1625009851239831544,0,-0.0686,-0.8896,0.3579,136,74.3408,341.6138,-102.417,148,1.4707,1.4337,7.4367,-48.8741,35,0.1621,8085,3.9534,99.0389
lg,1625009851239861229,0,-0.3552,-0.8584,0.3669,137,82.5806,293.1519,-132.3853,148,1.4777,1.4297,11.7185,-48.3055,35,0.1581,8133,3.9534,86.5369
lg,1625009851239890914,0,-0.4368,-0.8987,0.2908,138,72.6929,264.0381,-138.7939,148,1.4767,1.4167,15.0373,-49.0078,35,0.1521,8096,3.9534,74.4811
lg,1625009851239919359,0,-0.4685,-0.9807,0.2793,139,67.3828,204.7729,-117.4927,148,1.4747,1.3897,17.3565,-50.3269,36,0.1481,11007,3.9534,64.4803
lg,1625009851239948377,0,-0.5078,-0.7554,0.0569,140,71.4722,131.5918,-74.5239,148,1.4727,1.3777,19.1299,-50.5744,36,0.1501,8157,3.9534,57.8675
lg,1625009851239977137,0,-0.6223,-0.5444,0.1245,141,15.5029,108.8257,50.5981,148,1.4747,1.3827,24.5576,-51.5266,36,0.1561,8134,3.9534,55.3342
lg,1625009851240005637,0,-0.7688,-0.6135,0.3804,142,-25.2686,108.2153,121.3989,148,1.4727,1.3917,32.8924,-53.0281,36,0.1571,8526,3.9534,56.7021
lg,1625009851240033692,0,-1.1365,-0.7874,0.3374,143,-55.0537,21.2402,199.5239,148,1.4647,1.3987,40.524,-52.5114,35,0.1591,8963,3.9534,61.6396
lg,1625009851240062729,0,-1.137,-0.7402,0.4683,144,-46.5698,-207.3975,242.6758,148,1.4447,1.4017,42.6756,-43.2121,35,0.1571,8658,3.9534,78.5153
lg,1625009851240091692,0,-0.3235,-0.6418,1.2053,145,-79.4678,-339.5996,246.0327,148,1.4307,1.4007,36.9001,-32.2642,35,0.1561,9069,3.9534,99.777
lg,1625009851240120414,0,0.4336,-0.928,0.8145,146,-113.3423,-470.2148,113.0981,148,1.4297,1.4027,21.4484,-29.9143,35,0.1531,8338,3.9534,114.7013
lg,1625009851240149544,0,0.7219,-1.4504,1.0083,147,-178.6499,-494.2627,77.5146,148,1.4337,1.4047,4.0478,-34.8575,35,0.1521,9018,3.9534,126.064
lg,1625009851240179322,0,0.9978,-1.491,0.5293,148,-123.8403,-379.2114,25.3906,148,1.4367,1.4077,-8.4837,-41.2867,35,0.1511,8739,3.9534,136.1336
lg,1625009851240207711,0,1.2109,-1.2793,0.1799,149,-26.4893,-102.9663,16.2354,148,1.4367,1.4097,-12.3941,-44.0129,35,0.1531,8398,3.9534,139.6526
lg,1625009851240238896,0,0.9016,-1.0513,0.3481,150,41.3818,134.8877,-42.1143,148,1.4387,1.4127,-10.6917,-42.1796,35,0.1551,8805,3.9534,134.7895
lg,1625009851240268822,0,0.3979,-0.9316,0.2886,151,63.6597,279.4189,-58.5938,148,1.4387,1.4147,0.3292,-39.1434,35,0.1571,8365,3.9534,123.2983
lg,1625009851240298044,0,-0.689,-0.7664,0.3171,152,82.8247,401.9165,-36.6821,148,1.4417,1.4167,13.321,-38.0059,35,0.1571,12997,3.9534,112.1494
lg,1625009851240327266,0,-0.9824,-0.6689,0.3464,153,54.3823,245.5444,-42.7856,148,1.4457,1.4177,21.364,-38.7397,35,0.1581,8402,3.9534,104.226
lg,1625009851240355655,0,-0.9812,-0.6521,0.4238,154,40.2222,157.4707,-39.3066,88,1.4507,1.4177,26.2761,-39.8707,35,0.1601,8454,4.0128,98.3594
lg,1625009851240384988,0,-0.7581,-0.6697,0.5186,155,11.2305,6.3477,-18.5547,88,1.4567,1.4177,26.6103,-40.1815,35,0.1591,8448,4.0128,97.365
lg,1625009851240414118,0,-0.3152,-0.8008,0.6074,156,-1.9531,-93.8721,-16.7236,88,1.4637,1.4147,22.9788,-39.8912,35,0.1581,8469,4.0128,99.2378
lg,1625009851240443803,0,0.0322,-0.9995,0.5608,157,-19.7144,-150.3296,-49.9268,88,1.4697,1.4087,16.243,-40.679,35,0.1581,9643,4.0128,101.4305
lg,1625009851240472655,0,0.344,-1.0994,0.4495,158,0.8545,-154.3579,-75.5005,88,1.4757,1.4037,8.4881,-41.263,36,0.1531,10698,4.0128,102.9717
lg,1625009851240504822,0,0.4822,-1.0898,0.4104,159,25.8789,-62.3779,-85.022,88,1.4777,1.4007,3.252,-41.3055,36,0.1501,8516,4.0128,101.9193
lg,1625009851240532544,0,0.4077,-1.0608,0.1934,160,31.4941,-8.5449,-79.7119,88,1.4797,1.4037,2.2952,-41.6507,36,0.1531,8634,4.0128,99.051
lg,1625009851600771266,0,-0.6528,-0.8333,0.4016,161,-3.8452,140.7471,46.5088,88,1.4747,1.4197,7.2385,-41.8403,35,0.1521,27075,4.0128,98.5855
lg,1625009851600805840,0,-0.9302,-0.4463,0.5864,162,-9.9487,-81.7871,74.707,88,1.4627,1.4197,8.379,-41.5109,35,0.1501,8803,4.0128,103.0564
lg,1625009851600825581,0,-0.5132,-0.4336,0.6252,163,-68.6035,-227.356,121.2769,88,1.4567,1.4187,5.9115,-42.8077,36,0.1481,7984,4.0128,112.838
lg,1625009851600845248,0,-0.0645,-0.5374,0.9143,164,-77.2705,-280.0903,106.0181,88,1.4567,1.4177,-1.7115,-46.7326,36,0.1471,7997,4.0128,123.4327
lg,1625009851600863229,0,0.2131,-1.2351,0.6606,165,-112.6709,-300.354,65.3687,88,1.4577,1.4197,-7.7079,-52.7014,36,0.1451,9043,4.0128,134.3113
lg,1625009851600881840,0,0.813,-1.3867,0.366,166,-61.8286,-226.5015,54.8706,88,1.4577,1.4227,-11.9174,-57.426,36,0.1441,8952,4.0128,143.2439
lg,1625009851600900025,0,1.0544,-1.2686,0.5305,167,7.019,-31.8604,44.6777,88,1.4597,1.4247,-12.067,-57.8735,36,0.1431,8703,4.0128,145.3848
lg,1625009851600918248,0,0.8105,-0.9189,0.4563,168,36.1938,57.7393,38.3301,88,1.4607,1.4267,-9.4989,-55.2591,36,0.1461,8165,4.0128,140.842
lg,1625009851600935636,0,0.467,-0.8955,0.5347,169,48.584,208.6182,-9.7656,88,1.4637,1.4287,-5.507,-52.5322,36,0.1491,8029,4.0128,133.8165
lg,1625009851600952673,0,0.001,-0.9333,0.4509,170,39.917,254.7607,-40.5884,88,1.4687,1.4297,-0.3023,-50.9367,36,0.1511,8054,4.0128,124.8605
lg,1625009851600969914,0,-0.1345,-0.948,0.4473,171,35.7666,247.6807,-57.8003,88,1.4757,1.4297,3.5808,-50.3031,35,0.1491,8034,4.0128,115.9274
lg,1625009851600987025,0,-0.249,-0.9517,0.4233,172,37.5366,200.5005,-82.9468,88,1.4807,1.4287,6.527,-50.1264,35,0.1481,8125,4.0128,107.5843
lg,1625009851601003859,0,-0.25,-1.0435,0.3188,173,33.2642,161.377,-79.5898,88,1.4767,1.4207,8.1931,-50.4831,35,0.1491,12594,4.0128,100.9918
lg,1625009851601020377,0,-0.29,-0.9995,0.1157,174,40.6494,127.5024,-68.8477,88,1.4747,1.4197,9.6307,-50.9455,36,0.1501,8293,4.0128,95.0616
lg,1625009851601038914,0,-0.4082,-0.7869,0.1506,175,26.6724,76.0498,-7.2632,88,1.4757,1.4247,12.0155,-51.3348,36,0.1561,9499,4.0128,92.2972
lg,1625009851601056451,0,-0.4937,-0.7041,0.3501,176,-18.1274,51.2695,98.7549,88,1.4727,1.4297,17.157,-52.2526,36,0.1551,8176,4.0128,93.053
lg,1625009851601073729,0,-0.7712,-0.6941,0.356,177,-31.6772,30.7007,130.5542,88,1.4627,1.4317,22.8601,-52.584,36,0.1521,8175,4.0128,96.9637
lg,1625009851601090803,0,-0.8994,-0.718,0.387,178,-34.0576,-52.3682,158.7524,88,1.4527,1.4297,26.4691,-50.3033,35,0.1521,8510,4.0128,103.5217
lg,1625009851601107562,0,-0.2969,-0.4553,0.6033,179,41.9312,-216.9189,106.7505,88,1.4497,1.4247,23.5291,-43.7717,35,0.1511,8290,4.0128,113.9617
lg,1625009851601124303,0,-0.0884,-0.8154,0.8203,180,-89.8438,-283.0811,30.0903,88,1.4487,1.4247,15.5382,-44.2944,35,0.1491,8252,4.0128,123.1969
lg,1625009851601140655,0,0.167,-1.2275,0.4429,181,-99.3652,-316.8945,17.2729,88,1.4507,1.4257,6.9354,-47.4296,35,0.1481,8535,4.0128,131.7587
lg,1625009851601157303,0,0.2979,-1.3298,0.3398,182,-74.0356,-228.8818,16.5405,88,1.4497,1.4237,0.7738,-50.9214,35,0.1481,8356,4.0128,139.0174
lg,1625009851601174581,0,0.6614,-1.2903,0.4617,183,16.7847,-98.0225,55.9692,88,1.4507,1.4267,-0.9588,-50.9182,35,0.1501,8329,4.0128,143.46
lg,1625009851601191914,0,0.8279,-0.8997,0.7041,184,62.0117,54.6875,34.9731,88,1.4517,1.4277,0.2114,-48.462,35,0.1491,8367,4.0128,142.6596
lg,1625009851601208914,0,0.7288,-0.7732,0.6201,185,58.0444,123.3521,6.2866,88,1.4577,1.4317,2.3661,-46.3047,35,0.1511,8356,4.0128,139.1623
lg,1625009851601225525,0,0.2629,-0.9043,0.5547,186,34.668,215.0269,-53.1616,88,1.4627,1.4347,6.1244,-45.9515,36,0.1511,8404,4.0128,131.4496
lg,1625009851601242229,0,-0.1707,-1.0281,0.4846,187,41.5039,245.1172,-96.8628,88,1.4727,1.4357,10.1868,-46.4222,36,0.1491,8418,4.0128,121.5352
lg,1625009851601298729,0,-0.2893,-0.9766,0.5049,188,60.4248,232.9712,-108.7036,88,1.4757,1.4307,12.5614,-46.1153,36,0.1481,8481,4.0128,111.7686
lg,1625009851601320210,0,-0.3994,-0.959,0.2881,189,65.6738,181.7627,-142.0898,88,1.4737,1.4177,13.8478,-46.6318,36,0.1461,8436,4.0128,102.1377
lg,1625009851601336896,0,-0.5603,-0.7366,0.1213,190,69.7632,101.7456,-104.6753,88,1.4737,1.4067,14.5575,-46.3589,35,0.1451,8490,4.0128,95.8787
lg,1625009851601354081,0,-0.5234,-0.6125,0.1653,191,27.771,83.4351,22.7661,88,1.4747,1.4047,18.5047,-46.6475,35,0.1501,8531,4.0128,93.781
lg,1625009851601372340,0,-0.5916,-0.72,0.4548,192,-16.2354,75.9888,76.6602,88,1.4757,1.4117,23.2194,-47.8392,35,0.1521,8539,4.0128,95.9739
lg,1625009851962967673,0,-0.6868,-0.7947,0.5066,193,-44.6167,-186.1572,174.1943,88,1.4487,1.4237,23.1234,-45.3153,35,0.1481,27129,4.0128,108.1961
lg,1625009851963014803,0,0.0486,-0.6917,0.3682,194,-45.2881,-325.2563,118.5913,88,1.4447,1.4227,15.4051,-45.5612,35,0.1491,11176,4.0128,120.4844
lg,1625009851963043377,0,0.4587,-1.364,0.8599,195,-116.6382,-361.145,66.5283,88,1.4447,1.4237,6.3872,-48.2955,36,0.1491,7949,4.0128,132.9041
lg,1625009851963074562,0,0.8242,-1.3267,0.4565,196,-74.585,-243.4692,3.479,88,1.4467,1.4257,-1.0692,-51.6506,36,0.1501,8015,4.0128,140.3953
lg,1625009851963101877,0,0.7661,-1.3044,0.4282,197,-34.4849,-113.7085,-9.3994,88,1.4477,1.4267,-5.1421,-53.9122,36,0.1511,8030,4.0128,143.8308
lg,1625009851963120710,0,0.5764,-1.0598,0.4226,198,25.3906,51.8799,-13.9771,88,1.4507,1.4297,-5.2094,-53.2102,36,0.1531,8055,4.0128,141.856
lg,1625009851963141692,0,0.2083,-0.8528,0.4614,199,44.8608,164.4287,-42.0532,88,1.4557,1.4307,-2.8137,-51.2936,35,0.1531,8688,4.0128,135.6342
lg,1625009851963163858,0,-0.1782,-0.8628,0.4082,200,40.7715,196.3501,-51.2695,88,1.4627,1.4327,1.1012,-50.2588,35,0.1541,8456,4.0128,127.8544
lg,1625009851963181655,0,-0.3438,-0.8643,0.3713,201,36.9873,199.0356,-63.7817,88,1.4677,1.4327,4.9687,-49.7886,35,0.1541,8055,4.0128,120.1053
lg,1625009851963198655,0,-0.4226,-0.7686,0.4077,202,53.7109,130.0659,-67.2607,88,1.4717,1.4307,7.1223,-48.6688,35,0.1541,8266,4.0128,114.352
lg,1625009851963231099,0,-0.5164,-0.696,0.1814,203,50.293,87.4023,-67.1997,88,1.4717,1.4317,8.0681,-48.4124,36,0.1571,8101,4.0128,111.3523
lg,1625009851963249729,0,-0.5674,-0.658,0.1182,204,3.7231,19.4092,-11.3525,88,1.4717,1.4347,9.4783,-49.3068,36,0.1601,8104,4.0128,110.3232
lg,1625009851963267007,0,-0.6736,-0.9219,0.6284,205,-58.2275,-43.6401,103.5767,88,1.4637,1.4397,12.3809,-51.0705,36,0.1591,8112,4.0128,114.3357
lg,1625009851963284655,0,-0.249,-0.6033,0.8552,206,-58.7769,-69.519,140.3809,88,1.4527,1.4317,13.4841,-49.5169,36,0.1571,8157,4.0128,121.3557
lg,1625009851963302081,0,-0.3132,-0.5112,0.249,207,22.9492,-149.9023,66.4673,88,1.4457,1.4307,12.1498,-47.6731,35,0.1551,8192,4.0128,127.6655
lg,1625009851963319562,0,-0.3091,-0.8525,0.6536,208,-71.0449,-210.5103,43.8232,88,1.4447,1.4297,8.0755,-49.3566,35,0.1511,8306,4.0128,135.2072
lg,1625009851963336970,0,0.2085,-1.2366,0.5862,209,-74.2188,-254.5166,48.7671,88,1.4447,1.4297,2.5377,-52.0601,35,0.1521,8216,4.0128,144.2707
lg,1625009851963353895,0,0.4514,-1.29,0.4766,210,-69.2139,-240.1123,34.1187,88,1.4447,1.4287,-2.7955,-55.4853,35,0.1511,8465,4.0128,152.8009
lg,1625009851963371173,0,0.9651,-1.3032,0.6448,211,-16.9678,-123.3521,28.5645,88,1.4467,1.4307,-5.7391,-56.7661,36,0.1531,8830,4.0128,157.571
lg,1625009851963388636,0,0.948,-1.0994,0.4546,212,26.1841,79.7119,-3.8452,88,1.4487,1.4327,-5.3417,-55.777,36,0.1541,9940,4.0128,154.8351
lg,1625009851963405210,0,0.4697,-0.9727,0.4817,213,42.3584,223.3887,-58.1665,88,1.4537,1.4357,-2.8266,-53.7478,36,0.1531,8386,4.0128,146.1936
lg,1625009851963422136,0,-0.0283,-0.9453,0.3313,214,39.2456,266.9678,-73.5474,88,1.4607,1.4367,1.3414,-52.8256,36,0.1541,8316,4.0128,134.9623
lg,1625009851963438933,0,-0.1956,-0.9858,0.3271,215,30.2124,281.5552,-96.8018,88,1.4667,1.4347,5.3748,-52.9966,35,0.1511,8413,4.0128,123.6423
lg,1625009851963455303,0,-0.2302,-1.0425,0.5342,216,41.5649,221.4355,-117.1265,88,1.4667,1.4267,7.1804,-52.7941,35,0.1501,8418,4.0128,113.6801
lg,1625009851963472321,0,-0.2544,-1.0681,0.1301,217,52.7344,170.0439,-155.0903,88,1.4657,1.4107,6.6002,-52.9095,35,0.1481,8501,4.0128,104.3285
lg,1625009851963502488,0,-0.29,-1.03,0.0217,218,60.3638,135.9863,-151.3672,88,1.4667,1.3837,5.5415,-52.8,35,0.1451,8468,4.0128,96.1433
lg,1625009851963522210,0,-0.1931,-0.6448,-0.0195,219,88.0737,54.1992,-74.4629,88,1.4677,1.3587,5.0152,-50.9725,36,0.1461,8539,4.0128,92.4648
lg,1625009851963540007,0,-0.2078,-0.3455,-0.1929,220,44.6777,117.0654,51.4526,88,1.4687,1.3537,10.5128,-51.3912,36,0.1491,9240,4.0128,89.9089
lg,1625009851963556970,0,-0.5881,-0.603,0.427,221,-27.2217,185.2417,144.3481,88,1.4687,1.3667,20.6144,-53.2388,36,0.1511,8471,4.0128,87.4372
lg,1625009851963576636,0,-0.8396,-0.9404,0.8044,222,-59.2651,131.5308,188.7207,88,1.4657,1.3777,28.7493,-53.7865,35,0.1481,8504,4.0128,92.7335
lg,1625009851963599970,0,-0.9524,-1.0935,0.5386,223,-71.3501,-107.666,235.5347,88,1.4537,1.3867,33.9992,-51.3946,35,0.1451,8959,4.0128,103.2471
lg,1625009851963617303,0,-0.866,-0.8936,0.7402,224,-52.8564,-227.9663,231.7505,88,1.4287,1.3917,34.9187,-44.5227,35,0.1451,9360,4.0128,118.9924
lg,1625009852328993192,0,0.6311,-1.3279,0.6216,225,-160.4614,-526.4893,23.2544,88,1.4267,1.4007,19.91,-44.7041,35,0.1471,27415,4.0128,132.9784
lg,1625009852329038155,0,1.2783,-1.3604,0.0166,226,-49.5605,-143.7378,-12.146,88,1.4277,1.4037,13.6803,-46.6984,35,0.1461,10331,4.0128,136.541
lg,1625009852329067266,0,0.9424,-1.1272,0.4409,227,61.3403,179.5654,-40.9546,88,1.4287,1.4057,15.641,-46.5955,35,0.1471,8135,4.0128,129.8087
lg,1625009852329096043,0,0.4822,-0.8896,0.2915,228,86.6089,331.2988,-62.3169,88,1.4297,1.4097,24.8547,-49.5802,35,0.1481,8159,4.0128,113.8032
lg,1625009852329123006,0,-0.4702,-0.6746,0.2625,229,88.501,476.2573,-61.7676,88,1.4327,1.4127,34.6524,-56.3477,35,0.1481,8021,4.0128,94.4039
lg,1625009852329149414,0,-1.0154,-0.7271,0.3845,230,65.0024,368.7744,-53.6499,88,1.4377,1.4157,40.6159,-64.6876,35,0.1501,8983,4.0128,76.7433
lg,1625009852329175266,0,-1.0923,-0.7205,0.3938,231,30.6396,151.3062,-40.5273,88,1.4457,1.4177,41.9435,-68.777,35,0.1511,8667,4.0128,68.5306
lg,1625009852329226099,0,-0.8726,-0.6814,0.5105,232,19.5923,52.6123,-30.1514,88,1.4517,1.4177,40.5366,-67.3338,35,0.1501,8100,4.0128,69.6134
lg,1625009852329253451,0,-0.4624,-0.7981,0.5024,233,0.3662,-70.1904,-19.2871,88,1.4577,1.4187,38.1577,-65.0146,35,0.1521,8060,4.0128,72.83
lg,1625009852329279395,0,-0.2966,-1.0181,0.3296,234,-11.7188,-108.5815,-3.9062,88,1.4617,1.4167,35.2678,-62.9448,35,0.1541,8120,4.0128,77.4092
lg,1625009852329312951,0,-0.145,-1.0588,0.3149,235,-8.8501,-123.1689,11.2915,88,1.4647,1.4157,32.6412,-59.5892,35,0.1551,8335,4.0128,83.7744
lg,1625009852329339617,0,0.0239,-0.9668,0.3857,236,13.3057,-146.4844,46.3257,88,1.4667,1.4147,29.8517,-55.8553,35,0.1571,8231,4.0128,90.4732
lg,1625009852329365155,0,0.1877,-0.8625,0.4827,237,-10.7422,-105.5298,75.4395,88,1.4707,1.4207,28.4196,-53.6094,35,0.1611,8130,4.0128,96.2756
lg,1625009852329390432,0,0.1062,-1.0022,0.4985,238,-30.9448,-57.251,94.7266,88,1.4677,1.4247,28.8436,-53.0392,35,0.1601,8180,4.0128,100.7256
lg,1625009852329416043,0,0.0229,-1.0039,0.6023,239,-25.2075,-39.4287,85.4492,88,1.4637,1.4267,29.4796,-52.4497,35,0.1581,8198,4.0128,104.394
lg,1625009852329442247,0,0.1311,-0.866,0.5732,240,-12.8784,-62.439,60.791,88,1.4617,1.4267,28.4996,-51.2181,35,0.1571,13557,4.0128,108.2543
lg,1625009852329468951,0,0.4429,-0.9604,0.7068,241,-14.2822,-81.9702,35.5835,88,1.4647,1.4277,24.8394,-50.8063,35,0.1591,8258,4.0128,110.9425
lg,1625009852329493414,0,0.5081,-1.0498,0.6819,242,-13.3667,-48.3398,-28.5645,88,1.4707,1.4287,21.0908,-51.2415,35,0.1611,8298,4.0128,111.7039
lg,1625009852329519117,0,0.4548,-1.0886,0.4785,243,12.3291,36.0718,-82.0923,88,1.4767,1.4277,17.9009,-52.4398,36,0.1561,8433,4.0128,108.1591
lg,1625009852329545006,0,0.2112,-1.1111,0.4282,244,31.311,132.8735,-126.2207,88,1.4797,1.4237,15.9771,-54.0612,36,0.1541,8372,4.0128,100.3722
lg,1625009852329571043,0,0.0303,-1.075,0.2625,245,44.9829,170.8374,-129.8828,88,1.4797,1.4167,15.9758,-55.5062,36,0.1541,9192,4.0128,90.4034
lg,1625009852329597469,0,-0.3066,-0.8252,0.0254,246,71.7773,205.2612,-115.5396,88,1.4787,1.4157,16.9581,-56.6149,36,0.1581,8384,4.0128,80.2972
lg,1625009852329626080,0,-0.7507,-0.7827,0.3867,247,8.4229,186.4624,1.5259,88,1.4757,1.4247,21.8756,-58.7063,36,0.1581,8781,4.0128,73.5691
lg,1625009852329652155,0,-1.1628,-0.7366,0.4792,248,-34.9121,139.9536,144.4702,88,1.4647,1.4307,30.7965,-61.0184,36,0.1561,10045,4.0128,71.3806
lg,1625009852329678395,0,-1.366,-0.6028,0.5862,249,-0.6714,-5.0049,166.5649,88,1.4427,1.4287,37.4802,-58.2215,36,0.1581,8462,4.0128,75.8698
lg,1625009852329703469,0,-0.8557,-0.2217,1.2537,250,-7.9956,-124.5117,158.3862,88,1.4357,1.4187,34.3273,-47.7435,35,0.1551,8495,4.0128,91.9126
lg,1625009852329729784,0,-0.1506,-0.4409,0.312,251,-94.5435,-369.812,69.5801,88,1.4347,1.4167,25.4399,-44.5825,35,0.1501,8595,4.0128,106.1874
lg,1625009852329787025,0,0.0989,-1.3132,0.1907,252,-171.5698,-368.103,59.6313,88,1.4347,1.4157,16.1505,-48.1987,35,0.1481,8511,4.0128,118.6615
lg,1625009852329816636,0,0.792,-1.7839,0.5667,253,-74.7681,-295.2271,78.7964,88,1.4357,1.4157,9.4141,-49.5458,35,0.1441,8626,4.0128,129.6353
lg,1625009852329843469,0,1.1121,-1.6042,0.7366,254,-30.5176,-254.1504,56.5796,88,1.4357,1.4147,5.7019,-49.0628,35,0.1431,8583,4.0128,134.4678
lg,1625009852329869692,0,1.1162,-1.0669,0.5044,255,27.4658,51.3916,39.1846,88,1.4347,1.4157,6.5171,-48.4627,35,0.1451,8694,4.0128,133.8883
lg,1625009852329919729,0,0.5029,-0.8674,0.1555,256,44.7998,219.0552,-9.6436,88,1.4337,1.4157,10.675,-48.7409,35,0.1471,8708,4.0128,126.8635
lg,1625009852697991951,0,-0.4485,-0.8726,0.3076,257,36.499,200.0732,-29.1138,88,1.4457,1.4257,14.4419,-49.2906,36,0.1491,27086,4.0128,120.8344
lg,1625009852698025414,0,-0.3855,-0.8223,0.3633,258,37.0483,100.9521,-40.4053,88,1.4527,1.4287,16.1888,-49.5575,36,0.1481,8802,4.0128,116.4071
lg,1625009852698044951,0,-0.3176,-0.8037,0.4111,259,43.9453,78.6133,-43.396,88,1.4607,1.4277,16.8279,-49.2973,35,0.1451,8150,4.0128,112.6101
lg,1625009852698063673,0,-0.1968,-0.8633,0.5601,260,44.4336,47.5464,-67.1387,88,1.4637,1.4237,15.8065,-48.7625,35,0.1451,7988,4.0128,109.1921
lg,1625009852698081265,0,-0.1963,-0.9978,0.488,261,22.8882,32.7759,-100.5859,88,1.4657,1.4137,13.4116,-49.3891,35,0.1461,9162,4.0128,105.2897
lg,1625009852698098136,0,-0.2117,-0.9934,0.2153,262,29.541,26.001,-98.938,88,1.4677,1.4067,11.329,-49.366,35,0.1441,8076,4.0128,102.2373
lg,1625009852698114784,0,-0.2014,-0.9165,0.2156,263,51.9409,13.0005,-52.2461,88,1.4697,1.4027,10.1693,-48.6576,35,0.1471,7987,4.0128,100.2429
lg,1625009852698131321,0,-0.364,-0.7573,0.3813,264,9.2773,37.5366,34.0576,88,1.4717,1.4067,12.6981,-48.8609,35,0.1501,8156,4.0128,99.9086
lg,1625009852698148673,0,-0.6599,-0.8745,0.5078,265,-38.8184,17.1509,115.2344,88,1.4717,1.4137,17.4325,-50.1098,35,0.1501,9762,4.0128,102.3685
lg,1625009852698165265,0,-0.9058,-0.7014,0.4197,266,-40.6494,-25.0244,129.0283,88,1.4627,1.4197,20.2989,-49.5109,35,0.1491,8611,4.0128,109.0041
lg,1625009852698182654,0,-0.9214,-0.6208,0.5698,267,-27.3438,-155.7617,146.0571,82,1.4467,1.4217,21.5868,-47.2556,36,0.1481,8636,4.015,118.1818
lg,1625009852698200173,0,-0.7222,-0.6042,0.9082,268,-71.7773,-220.2759,188.3545,82,1.4357,1.4207,21.4348,-45.0678,36,0.1471,8356,4.015,130.7793
lg,1625009852698217543,0,0.075,-0.9133,0.5134,269,-91.4917,-398.0713,99.3042,82,1.4347,1.4207,12.1376,-45.1141,36,0.1451,8179,4.015,145.1528
lg,1625009852698235284,0,0.4944,-1.4456,0.8704,270,-155.8228,-446.8994,75.1343,82,1.4367,1.4227,1.3255,-50.0567,36,0.1461,8175,4.015,160.2558
lg,1625009852698254877,0,1.3618,-1.5278,0.3828,271,-123.9014,-363.5254,45.2881,82,1.4397,1.4247,-7.3796,-56.4089,35,0.1461,8244,4.015,-187.0196
lg,1625009852698272210,0,1.3828,-1.4456,0.2183,272,-4.8218,18.9819,21.6064,82,1.4407,1.4257,-7.5934,-57.2408,35,0.1481,8289,4.015,-187.0889
lg,1625009852698289395,0,1.1294,-1.2869,0.23,273,49.0112,154.48,-9.7046,82,1.4417,1.4267,-5.5701,-55.2323,35,0.1491,8329,4.015,167.5727
lg,1625009852698306154,0,0.2957,-0.8574,0.1616,274,82.0923,324.8291,-62.1948,82,1.4427,1.4297,-0.4777,-52.2115,35,0.1491,8374,4.015,155.7208
lg,1625009852698323025,0,-0.481,-0.7346,0.1743,275,79.5898,407.959,-55.9082,82,1.4467,1.4307,9.0765,-50.9022,36,0.1501,8231,4.015,141.6384
lg,1625009852698339691,0,-0.7383,-0.7544,0.2776,276,69.9463,376.2207,-47.9126,82,1.4527,1.4337,16.7452,-51.3408,36,0.1511,8275,4.015,130.8401
lg,1625009852698356784,0,-0.8857,-0.7444,0.3796,277,48.5229,212.5854,-34.668,82,1.4587,1.4347,22.002,-52.3736,36,0.1501,8309,4.015,122.7467
lg,1625009852698373580,0,-0.5864,-0.7161,0.5361,278,28.8086,46.936,-31.4941,82,1.4657,1.4357,22.5823,-52.158,36,0.1511,8362,4.015,120.3029
lg,1625009852698390173,0,-0.2458,-0.8328,0.3657,279,17.1509,-23.1323,-25.8179,82,1.4707,1.4347,20.9306,-52.0003,36,0.1501,8388,4.015,120.1903
lg,1625009852698407136,0,-0.157,-0.9028,0.3667,280,6.1035,-29.0527,-23.9868,82,1.4727,1.4327,19.0288,-52.2779,36,0.1511,8400,4.015,120.3138
lg,1625009852698423710,0,-0.1672,-1.0703,0.4292,281,11.9629,-6.1035,-17.2119,82,1.4717,1.4297,17.935,-52.5127,36,0.1501,8406,4.015,119.8675
lg,1625009852698440080,0,-0.1775,-0.9636,0.3208,282,30.7007,12.146,6.958,82,1.4747,1.4277,18.1672,-52.1155,36,0.1531,8459,4.015,119.4036
lg,1625009852698456784,0,-0.2288,-0.875,0.3293,283,26.8555,6.5918,15.2588,82,1.4757,1.4297,18.8776,-52.1926,35,0.1571,8427,4.015,120.5242
lg,1625009852698493747,0,-0.4155,-0.8125,0.3289,284,-55.7861,-58.8989,99.1211,82,1.4727,1.4377,20.8924,-53.4525,35,0.1551,11234,4.015,124.8692
lg,1625009852698513265,0,-0.6689,-0.8186,0.3513,285,-59.3262,-74.2188,120.9717,82,1.4587,1.4387,23.6165,-53.1913,35,0.1561,9172,4.015,131.4702
lg,1625009852698539506,0,-0.5642,-0.7651,0.7498,286,-35.4004,-120.1172,146.7896,82,1.4537,1.4357,25.4728,-50.9128,35,0.1541,8760,4.015,139.7206
lg,1625009852698557210,0,-0.1726,-0.5088,0.4846,287,0.9155,-226.1353,56.1523,82,1.4497,1.4337,20.8146,-47.1316,35,0.1501,8661,4.015,148.8144
lg,1625009852698574895,0,0.3103,-1.0127,0.7124,288,-98.938,-324.2188,14.9536,82,1.4537,1.4337,11.3362,-48.5027,35,0.1521,8669,4.015,159.0952
lg,1625009853069982895,0,0.748,-1.3481,0.1042,289,-9.2773,-57.0679,-10.2539,82,1.4547,1.4377,10.8933,-48.2319,36,0.1541,26195,4.015,157.4044
lg,1625009853070053432,0,0.1057,-0.7361,0.4834,290,67.627,239.6851,-34.6069,82,1.4597,1.4427,15.551,-47.7651,36,0.1541,15822,4.015,149.0735
lg,1625009853070082932,0,-0.1665,-0.8672,0.4963,291,36.6211,214.9048,-63.2935,82,1.4657,1.4447,19.0771,-49.3304,36,0.1561,9718,4.015,140.4442
lg,1625009853070111450,0,-0.3103,-0.9553,0.4861,292,28.8086,201.416,-74.9512,82,1.4707,1.4447,21.7468,-51.7482,36,0.1541,8049,4.015,131.6031
lg,1625009853070140580,0,-0.3542,-0.9719,0.5215,293,38.6353,170.2881,-72.5708,82,1.4747,1.4437,23.39,-53.5861,36,0.1541,8052,4.015,123.687
lg,1625009853070167932,0,-0.323,-0.9163,0.3225,294,54.9927,121.7651,-72.6318,82,1.4747,1.4397,23.7088,-54.531,36,0.1541,8084,4.015,117.256
lg,1625009853070194395,0,-0.4226,-0.8008,0.3225,295,48.4009,73.6084,-62.2559,82,1.4737,1.4347,23.4811,-54.7888,35,0.1551,10262,4.015,112.858
lg,1625009853070220691,0,-0.4478,-0.6934,0.1387,296,42.0532,56.0913,-28.6255,82,1.4737,1.4347,24.233,-55.0541,35,0.1571,8139,4.015,109.792
lg,1625009853070249561,0,-0.6648,-0.8213,0.6304,297,-32.1655,46.0815,73.8525,82,1.4747,1.4397,28.0262,-56.1576,35,0.1621,8125,4.015,109.9868
lg,1625009853070276358,0,-0.7744,-0.8,0.2932,298,-54.8706,-31.1279,155.2124,82,1.4707,1.4437,33.0544,-56.1406,35,0.1611,8188,4.015,114.9724
lg,1625009853070304284,0,-0.8098,-0.7656,0.2354,299,-54.3213,-95.8862,163.3301,82,1.4567,1.4447,36.7422,-54.0375,36,0.1611,8186,4.015,123.0646
lg,1625009853070336413,0,-0.5432,-0.6687,1.0681,300,-32.1045,-176.1475,170.0439,82,1.4457,1.4397,37.0751,-46.9975,36,0.1591,8271,4.015,135.8324
lg,1625009853070365524,0,-0.2832,-0.6372,0.6079,301,-52.063,-246.8872,114.0137,82,1.4427,1.4407,32.512,-41.973,36,0.1571,10023,4.015,148.2001
lg,1625009853070396061,0,0.3433,-1.1858,0.4983,302,-121.3989,-389.6484,65.3687,82,1.4447,1.4407,21.1856,-41.6272,36,0.1551,8266,4.015,161.3684
lg,1625009853070423654,0,0.8828,-1.5349,0.4326,303,-91.98,-287.7197,40.5273,82,1.4477,1.4417,12.234,-43.6871,35,0.1551,8341,4.015,170.3436
lg,1625009853070512673,0,1.1597,-1.4829,0.3818,304,-49.6216,-179.2603,42.5415,82,1.4477,1.4417,6.685,-45.5697,35,0.1561,8331,4.015,-183.5087
lg,1625009853070563691,0,1.1074,-1.1716,0.333,305,28.6865,74.1577,7.4463,82,1.4497,1.4427,7.2753,-45.4569,35,0.1601,8386,4.015,-185.5355
lg,1625009853070595506,0,0.2893,-0.9604,0.3257,306,59.4482,285.2173,-42.7246,82,1.4527,1.4457,15.0786,-46.1611,35,0.1581,12511,4.015,163.3596
lg,1625009853070623043,0,-0.3523,-0.8701,0.2305,307,62.8662,334.7168,-49.2554,82,1.4577,1.4467,22.9474,-48.5899,35,0.1581,8309,4.015,151.2853
lg,1625009853070648784,0,-0.6863,-0.8384,0.2822,308,55.8472,255.188,-56.2134,82,1.4627,1.4467,28.35,-51.5801,35,0.1571,8310,4.015,140.6966
lg,1625009853070675265,0,-0.6536,-0.7568,0.4146,309,55.542,130.188,-39.978,82,1.4697,1.4457,30.6085,-52.5728,35,0.1571,8320,4.015,134.6765
lg,1625009853070700487,0,-0.415,-0.7578,0.4072,310,37.6587,23.8037,-40.2222,82,1.4737,1.4417,29.7238,-52.4449,35,0.1581,10307,4.015,132.4834
lg,1625009853070744173,0,-0.3999,-0.8796,0.2744,311,18.7378,-5.5542,-39.0625,82,1.4757,1.4387,28.0253,-52.4857,35,0.1591,9634,4.015,132.4459
lg,1625009853070771765,0,-0.4084,-0.8779,0.2329,312,13.4888,-42.7246,-1.4038,82,1.4777,1.4407,26.8632,-52.1484,35,0.1641,8383,4.015,133.5159
lg,1625009853070797265,0,-0.4763,-0.9966,0.5891,313,-34.2407,-63.2935,80.0781,82,1.4767,1.4457,27.6567,-51.7519,35,0.1651,8458,4.015,137.8474
lg,1625009853070825191,0,-0.3879,-0.7988,0.3831,314,-40.4053,-114.0137,127.2583,82,1.4677,1.4487,28.6195,-50.2523,36,0.1621,8478,4.015,145.2574
lg,1625009853070853099,0,-0.4314,-0.7002,0.4058,315,-37.8418,-128.2349,125.1221,82,1.4577,1.4467,27.4993,-46.6084,36,0.1631,8457,4.015,153.7454
lg,1625009853070881191,0,-0.1387,-0.5051,0.4675,316,-6.7749,-185.6079,63.0493,82,1.4537,1.4407,23.4402,-43.5447,36,0.1611,8545,4.015,161.5163
lg,1625009853070906543,0,0.1362,-1.0615,0.6863,317,-93.0176,-246.2769,33.9355,82,1.4517,1.4407,16.2875,-44.9742,36,0.1601,8510,4.015,169.6368
lg,1625009853070934506,0,0.4316,-1.3333,0.6072,318,-67.9321,-189.0259,6.5308,82,1.4527,1.4397,10.0706,-47.1304,35,0.1591,8622,4.015,-184.7865
lg,1625009853070964580,0,0.6807,-1.2488,0.5127,319,-6.7749,-48.7671,5.188,82,1.4527,1.4387,7.5726,-47.8606,35,0.1591,9824,4.015,-183.3066
lg,1625009853070993765,0,0.4866,-0.9509,0.2759,320,34.1797,115.7227,-19.3481,82,1.4527,1.4397,8.8461,-47.9614,35,0.1611,10330,4.015,-187.4269
lg,1625009853444305080,0,-0.4768,-0.7905,0.4146,321,40.7104,216.2476,-23.7427,82,1.4597,1.4457,14.6288,-48.3113,36,0.1611,25522,4.015,165.2738
lg,1625009853444355339,0,-0.3247,-0.8545,0.4519,322,7.3242,36.377,-42.2974,82,1.4687,1.4477,14.4784,-49.1081,36,0.1581,14158,4.015,162.8581
lg,1625009853444375506,0,-0.0693,-0.9331,0.5271,323,1.6479,-1.77,-60.1196,82,1.4717,1.4457,12.1898,-49.8503,35,0.1581,8186,4.015,161.2012
lg,1625009853444394765,0,0.0166,-0.9968,0.3889,324,9.5215,2.9297,-70.4346,82,1.4687,1.4387,9.579,-50.5235,35,0.1571,8055,4.015,159.1339
lg,1625009853444415469,0,-0.0027,-1.1985,0.4426,325,16.6626,37.9639,-98.5107,82,1.4677,1.4287,7.1264,-51.1406,35,0.1541,8035,4.015,155.3124
lg,1625009853444434413,0,-0.0242,-1.0146,0.1382,326,62.8662,39.2456,-72.3877,82,1.4687,1.4197,5.6911,-50.1454,35,0.1511,8129,4.015,152.0992
lg,1625009853444496376,0,-0.0276,-0.6858,0.1262,327,68.1763,55.6641,-8.1177,82,1.4707,1.4147,7.2722,-48.4464,35,0.1561,14237,4.015,150.1109
lg,1625009853444517506,0,-0.4009,-0.7322,0.5786,328,-9.3384,120.7886,78.7964,82,1.4717,1.4197,13.419,-49.2132,35,0.1571,8055,4.015,148.494
lg,1625009853444536783,0,-0.6895,-0.8242,0.3535,329,-41.3818,47.9736,148.1323,82,1.4687,1.4267,20.11,-50.7199,35,0.1541,8798,4.015,150.7787
lg,1625009853444587506,0,-0.9333,-0.7451,0.4045,330,-22.583,-90.8203,141.7236,82,1.4587,1.4297,23.1892,-49.357,35,0.1521,8396,4.015,157.5936
lg,1625009853444608487,0,-1.021,-0.6926,0.5679,331,-21.2402,-121.582,153.4424,82,1.4367,1.4307,25.4931,-46.7239,35,0.1511,8793,4.015,166.0719
lg,1625009853444630635,0,-0.3845,-0.4575,1.3127,332,-53.7109,-219.1772,196.0449,82,1.4297,1.4297,24.4651,-42.2797,35,0.1501,8729,4.015,-180.5381
lg,1625009853444649858,0,0.092,-0.9287,0.6802,333,-121.0327,-382.9956,86.2427,82,1.4277,1.4307,14.5355,-43.0165,35,0.1491,8509,4.015,-167.119
lg,1625009853444668432,0,0.7358,-1.4421,0.4358,334,-144.8975,-437.8662,37.7808,82,1.4297,1.4307,2.026,-47.8545,36,0.1471,8135,4.015,-153.7822
lg,1625009853444687895,0,0.9785,-1.5955,0.4966,335,-116.5161,-322.3267,33.2642,82,1.4317,1.4317,-6.2429,-53.7011,36,0.1461,8169,4.015,-142.9731
lg,1625009853444706635,0,1.0066,-1.1355,0.2542,336,26.123,47.2412,-14.1602,82,1.4337,1.4317,-6.8791,-53.1028,36,0.1481,12008,4.015,-144.7758
lg,1625009853444726821,0,0.677,-0.9324,0.2144,337,53.5889,165.4053,-30.0293,82,1.4337,1.4327,-4.0856,-51.2493,36,0.1491,9019,4.015,-150.669
lg,1625009853444746672,0,-0.2017,-0.822,0.1765,338,63.0493,329.834,-34.1797,82,1.4337,1.4337,3.8604,-49.7095,36,0.1501,8940,4.015,-161.5922
lg,1625009853444766228,0,-0.677,-0.7849,0.2524,339,61.0352,299.4995,-7.9346,82,1.4357,1.4357,12.6672,-49.2941,36,0.1521,8245,4.015,-171.0115
lg,1625009853444784765,0,-0.8657,-0.6943,0.1833,340,47.4243,179.2603,6.897,82,1.4387,1.4367,18.919,-49.5292,36,0.1521,8297,4.015,-176.6292
lg,1625009853444820265,0,-0.8293,-0.6687,0.3955,341,39.4287,113.2812,21.4844,82,1.4437,1.4377,23.5596,-49.3472,35,0.1541,8658,4.015,-179.8173
lg,1625009853444841135,0,-0.3257,-0.7256,0.6636,342,20.5688,-33.3862,16.9067,82,1.4547,1.4377,22.9767,-47.8179,35,0.1531,9288,4.015,-178.207
lg,1625009853444859654,0,0.2642,-0.9753,0.6943,343,-6.4697,-142.6392,-44.5557,82,1.4667,1.4387,16.5326,-47.2636,35,0.1511,9062,4.015,-175.1169
lg,1625009853444877913,0,0.4963,-1.1836,0.5847,344,-4.2114,-96.3745,-146.6064,82,1.4707,1.4317,8.2855,-48.2775,35,0.1491,9078,4.015,-176.3738
lg,1625009853444896487,0,0.2729,-1.3677,0.2568,345,26.8555,39.4287,-205.0171,82,1.4707,1.4217,2.4693,-48.9755,36,0.1491,8414,4.015,-183.1419
lg,1625009853444915283,0,0.1145,-1.2234,-0.033,346,58.3496,96.7407,-185.5469,82,1.4727,1.4147,-0.8339,-48.2784,36,0.1471,8434,4.015,169.0027
lg,1625009853444963783,0,-0.0317,-0.6777,0.1553,347,83.1909,169.7388,-65.918,82,1.4737,1.4167,1.9514,-46.1068,36,0.1511,9218,4.015,162.2529
lg,1625009853444985709,0,-0.4985,-0.7371,0.4602,348,5.188,280.3345,47.4854,82,1.4757,1.4217,12.0253,-47.152,36,0.1511,9207,4.015,155.3473
lg,1625009853445005524,0,-0.9778,-0.9155,0.5732,349,-21.3623,179.6875,98.877,82,1.4747,1.4257,20.8558,-49.1224,35,0.1481,9208,4.015,152.4217
lg,1625009853445025191,0,-1.1968,-0.8267,0.5649,350,-13.855,-33.9355,117.5537,82,1.4687,1.4297,24.5889,-48.1013,35,0.1451,8987,4.015,156.8392
lg,1625009853445043913,0,-1.0925,-0.6243,0.5713,351,-13.0615,-131.4697,130.0659,82,1.4547,1.4317,23.7303,-44.552,35,0.1391,8978,4.015,168.1537
lg,1625009853445062617,0,-0.616,-0.4951,0.4009,352,-67.8711,-287.5977,153.3813,82,1.4437,1.4307,20.4414,-42.4264,36,0.1411,8988,4.015,-178.5968
lg,1625009853812301672,0,0.7512,-1.4443,0.3379,353,-91.1255,-295.4712,45.8984,82,1.4477,1.4327,11.6394,-44.5158,36,0.1391,25811,4.015,-169.177
lg,1625009853812336746,0,1.0891,-1.2271,0.4211,354,33.5693,-4.1504,26.3672,82,1.4497,1.4347,10.5054,-43.7753,35,0.1421,14741,4.015,-168.464
lg,1625009853812357061,0,0.5161,-0.8877,0.3777,355,63.2935,193.1152,-23.9868,82,1.4527,1.4377,14.0181,-43.3609,35,0.1421,8149,4.015,-174.7823
lg,1625009853812381061,0,-0.0645,-0.8923,0.3894,356,60.8521,258.0566,-38.6963,82,1.4597,1.4397,20.2186,-44.7716,35,0.1431,8005,4.015,-184.4652
lg,1625009853812400005,0,-0.2673,-0.884,0.366,357,55.9082,265.9912,-57.6782,82,1.4667,1.4417,25.7579,-47.3831,35,0.1441,8079,4.015,165.1724
lg,1625009853812417580,0,-0.3752,-0.7957,0.4636,358,66.7114,199.4629,-78.3081,82,1.4727,1.4417,28.5513,-49.3419,36,0.1451,8037,4.015,155.9189
lg,1625009853812434357,0,-0.4375,-0.7578,0.322,359,49.5605,144.3481,-79.3457,82,1.4747,1.4407,29.7571,-51.6625,36,0.1421,8509,4.015,148.1723
lg,1625009853812451154,0,-0.4724,-0.7778,0.4084,360,39.2456,126.6479,-68.4204,82,1.4737,1.4387,30.5712,-53.8221,36,0.1471,8702,4.015,141.3814
lg,1625009853812467913,0,-0.7234,-0.834,0.4861,361,3.1128,105.5908,-19.9585,82,1.4757,1.4397,32.558,-56.3222,36,0.1491,8322,4.015,136.6586
lg,1625009853812485265,0,-0.8533,-0.9407,0.6777,362,-37.2925,24.4141,63.3545,82,1.4767,1.4437,35.3458,-57.3309,35,0.1531,7966,4.015,137.3855
lg,1625009853812502172,0,-0.8457,-0.8623,0.5857,363,-46.2646,-42.9688,83.313,82,1.4747,1.4477,36.0399,-55.2757,35,0.1501,8367,4.015,144.7496
lg,1625009853812519043,0,-0.7385,-0.7239,0.3486,364,-67.4438,-185.1196,102.9663,82,1.4657,1.4477,35.2862,-52.226,35,0.1511,8978,4.015,154.9294
lg,1625009853812536691,0,-0.1287,-0.6255,0.6768,365,-60.5469,-270.5078,124.6948,82,1.4647,1.4467,31.0564,-46.7182,35,0.1521,8410,4.015,168.8116
lg,1625009853812553580,0,0.1716,-0.9492,0.2944,366,-96.2524,-292.0532,55.1758,82,1.4647,1.4467,23.3254,-46.5114,35,0.1511,9182,4.015,-180.5429
lg,1625009853812592746,0,0.7029,-1.3225,0.272,367,-85.3882,-306.4575,26.4893,82,1.4647,1.4467,14.1836,-47.7325,35,0.1511,8446,4.015,-170.7627
lg,1625009853812612839,0,0.7231,-1.4475,0.3503,368,-73.4863,-203.7354,6.8359,82,1.4657,1.4467,7.7924,-50.518,35,0.1491,9221,4.015,-164.5528
lg,1625009853812630320,0,0.6162,-1.4167,0.2239,369,13.1836,2.3193,19.2261,82,1.4637,1.4467,7.3113,-50.9881,36,0.1511,8494,4.015,-164.279
lg,1625009853812648080,0,0.5332,-1.0032,0.2349,370,67.1997,104.0039,17.5781,82,1.4647,1.4497,9.2258,-49.5885,36,0.1531,9266,4.015,-167.1981
lg,1625009853812665394,0,0.1489,-0.8721,0.4255,371,76.6602,183.5938,-2.6855,82,1.4687,1.4507,13.2195,-48.622,36,0.1531,9067,4.015,-173.7318
lg,1625009853812682709,0,-0.1189,-0.9141,0.3948,372,61.5234,201.4771,-43.5791,82,1.4727,1.4497,16.9612,-48.8249,35,0.1531,9252,4.015,-181.3572
lg,1625009853812699561,0,-0.2437,-0.8923,0.4424,373,65.3076,201.4771,-49.5605,82,1.4767,1.4477,20.6876,-48.8882,35,0.1511,8602,4.015,170.9556
lg,1625009853812716783,0,-0.3938,-0.7405,0.6106,374,73.6084,182.1289,-45.8374,82,1.4797,1.4437,24.1307,-48.7641,35,0.1511,8239,4.015,163.6994
lg,1625009853812734080,0,-0.5137,-0.7061,0.5938,375,60.4248,132.019,-51.1475,82,1.4787,1.4367,26.234,-48.8883,35,0.1531,9000,4.015,157.8011
lg,1625009853812750857,0,-0.7085,-0.6799,0.3938,376,35.5835,63.8428,-28.0762,82,1.4777,1.4297,27.6748,-49.1774,35,0.1551,10167,4.015,154.6508
lg,1625009853812767524,0,-0.8157,-0.7688,0.6035,377,-5.249,5.4932,39.1235,82,1.4787,1.4327,29.4703,-48.9981,35,0.1601,9113,4.015,155.5894
lg,1625009853812784802,0,-0.7947,-0.8743,0.6572,378,-51.2085,-96.3135,116.394,82,1.4807,1.4387,30.6565,-47.7125,35,0.1611,9091,4.015,162.4242
lg,1625009853812801654,0,-0.5725,-0.7178,0.3845,379,-52.3071,-158.9966,138.0615,82,1.4757,1.4417,30.3735,-45.3046,35,0.1591,8793,4.015,-188.0518
lg,1625009853812818598,0,-0.4751,-0.7097,0.4534,380,-63.5986,-197.0215,138.9771,82,1.4677,1.4437,28.6022,-42.9427,36,0.1601,9161,4.015,-177.4093
lg,1625009853812835357,0,-0.0061,-0.7441,0.4204,381,-46.2036,-230.1025,117.5537,82,1.4627,1.4437,23.9044,-40.7903,36,0.1581,9189,4.015,-167.0568
lg,1625009853812853339,0,0.3232,-1.2478,0.7673,382,-100.8911,-253.2349,92.041,82,1.4617,1.4417,17.4761,-41.9485,36,0.1561,8853,4.015,-157.2519
lg,1625009853812870635,0,0.769,-1.3008,0.5676,383,-70.9839,-200.2563,26.4893,82,1.4627,1.4417,10.7951,-44.0394,35,0.1561,9262,4.015,-151.0554
lg,1625009853812890302,0,0.814,-1.3174,0.4631,384,-54.2603,-105.4077,10.8032,82,1.4647,1.4437,8.983,-45.5607,35,0.1581,8908,4.015,-150.7102
lg,1625009854179065265,0,-0.1282,-0.9771,0.3303,385,45.4712,237.854,-69.8242,82,1.4777,1.4487,13.8376,-46.8342,36,0.1601,28108,4.015,-160.8829
lg,1625009854179101265,0,-0.4412,-0.8945,0.3108,386,39.1846,246.2158,-99.7925,82,1.4807,1.4477,18.0186,-49.0216,36,0.1591,8832,4.015,-171.4706
lg,1625009854179145153,0,-0.4495,-0.853,0.2371,387,52.4902,164.917,-108.2764,82,1.4777,1.4437,19.3522,-50.4817,36,0.1571,8277,4.015,-180.0186
lg,1625009854179164653,0,-0.5371,-0.8142,0.0615,388,45.6543,87.7686,-91.3086,82,1.4757,1.4397,19.3621,-51.5753,36,0.1581,9672,4.015,-185.7315
lg,1625009854179182820,0,-0.5137,-0.8018,0.3394,389,44.9219,65.1245,-11.4136,82,1.4757,1.4367,21.0791,-51.1826,35,0.1581,8132,4.015,-188.3873
lg,1625009854179201339,0,-0.5286,-0.7412,0.2905,390,36.8652,67.1387,20.5688,82,1.4767,1.4357,24.1442,-51.0398,35,0.1611,8631,4.015,171.0906
lg,1625009854179220116,0,-0.6902,-0.9133,0.626,391,-19.104,-4.3335,70.1294,82,1.4797,1.4387,26.5177,-51.0575,35,0.1641,8651,4.015,-186.8785
lg,1625009854179237931,0,-0.6687,-0.8423,0.2595,392,-67.627,-187.7441,139.9536,82,1.4737,1.4467,26.5587,-49.8217,36,0.1581,12603,4.015,-176.7607
lg,1625009854179255376,0,-0.6382,-0.7856,0.2759,393,-64.27,-222.9614,155.8228,82,1.4617,1.4477,25.8888,-47.7548,36,0.1581,8700,4.015,-165.0315
lg,1625009854179273061,0,0.0522,-0.5095,0.7405,394,-52.3071,-299.4385,134.8267,82,1.4577,1.4447,20.3778,-44.0076,36,0.1601,9040,4.015,-151.4341
lg,1625009854179290931,0,0.4182,-1.0688,0.5308,395,-121.3379,-375.3662,59.4482,82,1.4567,1.4447,10.1435,-46.2266,36,0.1591,8147,4.015,-138.9878
lg,1625009854179308190,0,0.957,-1.4209,0.5024,396,-128.6621,-394.6533,40.4053,82,1.4587,1.4457,-0.3489,-50.0029,35,0.1591,8197,4.015,-128.856
lg,1625009854179324931,0,0.9692,-1.4736,0.416,397,-69.7021,-200.9277,-21.3013,82,1.4597,1.4477,-3.9653,-51.7102,35,0.1591,9885,4.015,-127.3342
lg,1625009854179342209,0,0.8149,-1.2627,0.2583,398,31.25,28.7476,-16.2354,82,1.4597,1.4477,-4.8515,-51.2184,35,0.1611,8445,4.015,-128.5906
lg,1625009854179359061,0,0.4019,-0.9272,0.3743,399,71.2891,201.5991,-32.959,82,1.4617,1.4507,-1.3736,-48.593,35,0.1611,8256,4.015,-135.5826
lg,1625009854179376265,0,-0.0935,-0.8318,0.345,400,70.6177,274.5972,-35.0952,82,1.4647,1.4527,5.2162,-46.8088,36,0.1621,8220,4.015,-144.6138
lg,1625009854179393339,0,-0.291,-0.8203,0.3733,401,65.1855,264.5874,-40.6494,82,1.4687,1.4527,11.7813,-46.2138,36,0.1611,8269,4.015,-153.5495
lg,1625009854179410487,0,-0.5635,-0.79,0.3083,402,50.1709,195.1904,-53.3447,82,1.4727,1.4527,16.4463,-46.7364,36,0.1591,8265,4.015,-161.0503
lg,1625009854179427209,0,-0.4924,-0.7329,0.5095,403,44.6167,93.0786,-37.5366,82,1.4787,1.4527,18.389,-46.4196,36,0.1601,8299,4.015,-165.0508
lg,1625009854179456172,0,-0.3716,-0.729,0.48,404,41.3818,47.5464,-36.6211,82,1.4807,1.4497,18.6215,-46.0694,35,0.1621,8295,4.015,-167.7282
lg,1625009854179473598,0,-0.2559,-0.875,0.4983,405,20.4468,7.3242,-33.5083,82,1.4817,1.4467,17.7024,-46.1882,35,0.1621,8343,4.015,-169.1069
lg,1625009854179491227,0,-0.1802,-0.9856,0.3735,406,25.9399,-4.7607,1.8921,82,1.4817,1.4437,17.36,-46.0032,35,0.1621,8346,4.015,-169.1876
lg,1625009854179546913,0,-0.1499,-0.8994,0.3098,407,31.0059,-7.9956,20.6299,82,1.4827,1.4437,17.4567,-45.4963,35,0.1641,10059,4.015,-168.6422
lg,1625009854179567376,0,-0.2861,-0.885,0.5837,408,-12.6343,-7.9346,72.5708,82,1.4847,1.4467,19.2215,-45.6846,35,0.1691,8418,4.015,-166.3992
lg,1625009854179585820,0,-0.408,-0.9585,0.6045,409,-34.9121,-9.5215,108.0322,82,1.4827,1.4507,22.3161,-46.6935,35,0.1661,8430,4.015,-163.2005
lg,1625009854179603783,0,-0.5151,-0.8311,0.2988,410,-40.4663,-57.6782,160.0342,82,1.4687,1.4507,25.7522,-46.4411,35,0.1601,8482,4.015,-156.8834
lg,1625009854179622061,0,-0.2405,-0.6106,0.8877,411,-32.3486,-107.666,179.1382,82,1.4597,1.4497,27.2544,-43.1625,35,0.1621,8454,4.015,-147.6121
lg,1625009854179640820,0,-0.0205,-0.6604,0.5061,412,-39.3677,-212.2803,77.0874,82,1.4557,1.4467,22.1124,-41.4589,35,0.1601,8491,4.015,-139.0175
lg,1625009854179659561,0,0.2991,-1.0999,1.01,413,-102.7222,-256.958,69.8242,82,1.4557,1.4457,15.1648,-42.769,35,0.1591,8487,4.015,-129.6584
lg,1625009854179678690,0,0.5369,-1.3904,0.5593,414,-79.7119,-216.6138,-1.3428,82,1.4577,1.4477,7.7112,-45.6455,35,0.1611,8659,4.015,-123.7544
lg,1625009854179697635,0,0.6865,-1.3298,0.4358,415,-8.8501,-59.8145,-9.7656,82,1.4577,1.4497,4.5446,-46.7291,35,0.1611,8607,4.015,-122.3981
lg,1625009854179715616,0,0.5762,-1.0398,0.4949,416,44.9829,108.9478,-26.2451,82,1.4577,1.4517,5.6134,-45.8942,35,0.1621,8708,4.015,-126.354
lg,1625009854545412283,0,-0.3291,-0.8694,0.3804,417,34.4238,263.0615,-79.2236,82,1.4717,1.4557,10.0914,-46.7002,35,0.1591,26983,4.015,-134.9333
lg,1625009854545449653,0,-0.6553,-0.8953,0.3291,418,29.2969,168.8232,-70.8618,82,1.4767,1.4547,13.5326,-47.7109,35,0.1591,8779,4.015,-142.0959
lg,1625009854545470227,0,-0.4946,-0.7913,0.4485,419,34.2407,71.8994,-62.1948,82,1.4797,1.4527,14.2122,-47.7247,35,0.1601,8031,4.015,-146.1141
lg,1625009854545489524,0,-0.3081,-0.8577,0.4602,420,19.4092,2.9907,-54.3213,82,1.4777,1.4477,12.8298,-47.8529,36,0.1581,8032,4.015,-147.8337
lg,1625009854545508227,0,-0.2551,-0.929,0.5071,421,6.8359,-8.3618,-53.5889,82,1.4757,1.4407,11.0531,-48.3473,36,0.1571,8035,4.015,-149.1533
lg,1625009854545526838,0,-0.177,-0.9531,0.2422,422,15.9912,-29.3579,-36.1938,82,1.4757,1.4337,9.208,-48.7569,36,0.1571,9152,4.015,-149.4276
lg,1625009854545544375,0,-0.082,-0.9214,0.3071,423,25.7568,-29.2969,11.5356,82,1.4777,1.4287,8.6367,-48.4198,36,0.1571,9791,4.015,-148.37
lg,1625009854545562024,0,-0.1023,-0.8572,0.324,424,24.9023,-9.0942,54.4434,82,1.4797,1.4277,9.9475,-47.9488,36,0.1581,10103,4.015,-146.75
lg,1625009854545579505,0,-0.2073,-0.8645,0.2634,425,-8.9722,-17.1509,94.4214,82,1.4817,1.4317,12.4604,-48.6549,36,0.1631,8082,4.015,-143.8395
lg,1625009854545596838,0,-0.3318,-1.0063,0.4951,426,-45.2881,-32.5928,118.1641,82,1.4817,1.4367,16.03,-50.5687,36,0.1601,8115,4.015,-138.086
lg,1625009854545635968,0,-0.5386,-0.9175,0.2104,427,-66.4673,-80.7495,190.3687,82,1.4717,1.4407,20.5286,-51.7323,36,0.1581,8269,4.015,-130.6929
lg,1625009854545654672,0,-0.5967,-0.7693,0.2659,428,-36.7432,-132.9956,243.8354,82,1.4527,1.4387,25.3547,-49.4762,36,0.1541,8124,4.015,-119.7615
lg,1625009854545671857,0,-0.2695,-0.6003,0.7195,429,-31.1279,-161.1328,234.1309,82,1.4447,1.4337,22.2564,-44.0217,36,0.1501,8100,4.015,-106.9959
lg,1625009854545688487,0,0.4773,-0.4836,0.7705,430,-48.0957,-318.0542,76.8433,82,1.4427,1.4347,13.3874,-42.0003,36,0.1481,8158,4.015,-95.436
lg,1625009854545705764,0,0.5437,-1.6138,0.8413,431,-137.8174,-324.5239,23.6206,82,1.4457,1.4357,3.7398,-46.7838,36,0.1491,8130,4.015,-85.7563
lg,1625009854545723264,0,0.8701,-1.5393,0.2231,432,-97.1069,-253.3569,3.0518,82,1.4477,1.4367,-2.405,-49.7673,36,0.1511,8249,4.015,-81.457
lg,1625009854545740561,0,0.9502,-1.323,0.1057,433,6.0425,-69.458,-31.3721,82,1.4467,1.4357,-6.3874,-50.6961,36,0.1521,8299,4.015,-80.0616
lg,1625009854545757246,0,0.6702,-0.874,0.3784,434,87.8296,182.373,-47.1191,82,1.4477,1.4397,-4.1393,-47.0702,36,0.1511,8252,4.015,-86.8046
lg,1625009854545774931,0,-0.1895,-0.7478,0.314,435,83.0688,375.5493,-62.2559,82,1.4477,1.4417,5.1246,-44.637,36,0.1511,8234,4.015,-99.1747
lg,1625009854545792098,0,-0.5515,-0.7456,0.3093,436,74.707,389.2822,-59.1431,82,1.4487,1.4427,15.5787,-44.6976,35,0.1521,8278,4.015,-111.9888
lg,1625009854545809209,0,-1.1453,-0.7444,0.4595,437,63.1714,304.9316,-39.2456,82,1.4527,1.4447,22.4993,-45.1584,35,0.1511,11612,4.015,-119.4824
lg,1625009854545825764,0,-1.0691,-0.6436,0.4443,438,45.7153,122.5586,-10.0708,82,1.4577,1.4447,26.8176,-45.3071,35,0.1541,8355,4.015,-123.7282
lg,1625009854545842283,0,-0.6384,-0.6016,0.4883,439,11.9629,-61.4014,2.1973,82,1.4637,1.4447,25.6415,-44.1239,35,0.1521,8404,4.015,-121.8008
lg,1625009854545859801,0,-0.2075,-0.7966,0.5063,440,-20.9351,-138.855,8.0566,82,1.4687,1.4457,21.3936,-43.7296,35,0.1541,8355,4.015,-117.5798
lg,1625009854545876987,0,-0.0413,-0.9263,0.4019,441,-19.3481,-149.231,8.4839,82,1.4737,1.4447,16.4222,-43.9618,35,0.1541,8417,4.015,-113.2984
lg,1625009854545894412,0,0.1873,-1.187,0.5452,442,-8.4839,-114.624,1.8311,82,1.4767,1.4417,12.2999,-44.3033,35,0.1541,8764,4.015,-110.18
lg,1625009854545911524,0,0.3247,-1.1753,0.5173,443,13.5498,-58.2275,-14.4653,82,1.4767,1.4357,9.2601,-44.359,36,0.1551,10965,4.015,-109.1193
lg,1625009854545928301,0,0.2639,-1.002,0.4006,444,35.8276,13.7329,-8.9111,82,1.4767,1.4337,8.5455,-43.9244,36,0.1561,8548,4.015,-109.9162
lg,1625009854545945746,0,0.1477,-0.9001,0.4458,445,33.7524,76.1719,17.0898,82,1.4797,1.4337,10.5634,-43.609,36,0.1591,8554,4.015,-111.676
lg,1625009854545962894,0,-0.2097,-0.9692,0.585,446,19.043,97.5952,25.8789,82,1.4817,1.4367,14.6136,-44.6024,36,0.1641,8565,4.015,-113.5996
lg,1625009854545993801,0,-0.3672,-0.9817,0.533,447,-11.7798,92.7124,62.5,82,1.4817,1.4397,19.138,-45.9835,36,0.1611,8542,4.015,-114.6926
lg,1625009854546013561,0,-0.5159,-0.8586,0.4395,448,-18.7378,39.917,117.1875,82,1.4707,1.4437,23.9909,-46.5209,36,0.1581,8622,4.015,-112.6659
lg,1625009854913385894,0,-0.1624,-0.738,0.3237,449,-46.0815,-179.4434,29.7241,82,1.4547,1.4427,19.0623,-47.9751,36,0.1541,27416,4.015,-106.2479
lg,1625009854913427875,0,0.1301,-1.2561,0.4692,450,-48.3398,-136.3525,-2.3804,82,1.4557,1.4437,14.5194,-49.5323,36,0.1541,10190,4.015,-102.2956
lg,1625009854913479875,0,0.1379,-1.1294,0.3711,451,8.9111,-6.897,11.2305,82,1.4557,1.4447,13.9047,-49.9215,36,0.1541,8014,4.015,-101.9987
lg,1625009854913503283,0,0.2373,-0.9729,0.4399,452,27.0996,24.5972,23.5596,82,1.4567,1.4457,14.261,-49.4871,36,0.1561,8020,4.015,-102.3021
lg,1625009854913522190,0,0.1709,-0.876,0.5969,453,31.311,89.2944,5.9204,82,1.4597,1.4477,15.8502,-49.168,36,0.1561,8013,4.015,-105.0191
lg,1625009854913540320,0,0.1265,-0.9456,0.543,454,23.6816,106.4453,-22.3389,82,1.4667,1.4497,17.0589,-49.7876,36,0.1561,8822,4.015,-109.1219
lg,1625009854913558227,0,0.0237,-0.9963,0.5432,455,23.0103,110.1685,-46.0205,82,1.4757,1.4517,17.1269,-50.9207,36,0.1551,8615,4.015,-114.9494
lg,1625009854913576375,0,-0.0212,-0.9954,0.5249,456,27.4658,123.9014,-95.3979,82,1.4827,1.4517,16.5829,-52.1727,35,0.1531,8074,4.015,-121.6086
lg,1625009854913594468,0,-0.1682,-1.0034,0.3923,457,42.1753,137.7563,-121.9482,82,1.4847,1.4487,15.7371,-53.2722,35,0.1511,8089,4.015,-129.424
lg,1625009854913612709,0,-0.259,-0.9849,0.1519,458,46.875,129.6387,-122.8027,82,1.4777,1.4397,14.8316,-54.3986,35,0.1511,13304,4.015,-137.0469
lg,1625009854913630320,0,-0.4109,-0.7546,0.0901,459,55.7861,99.2432,-95.2759,82,1.4767,1.4387,14.6134,-54.588,36,0.1551,8348,4.015,-142.9241
lg,1625009854913648690,0,-0.5571,-0.6526,0.3398,460,1.0986,98.999,32.959,82,1.4777,1.4427,18.8112,-55.5438,36,0.1591,9780,4.015,-145.6026
lg,1625009854913666671,0,-0.811,-0.772,0.4507,461,-39.4287,67.4438,128.8452,82,1.4767,1.4467,25.4646,-56.99,36,0.1591,8218,4.015,-145.0037
lg,1625009854913684616,0,-0.9902,-0.8281,0.3936,462,-50.7202,18.2495,146.8506,82,1.4677,1.4487,31.7508,-57.9311,36,0.1581,8365,4.015,-142.2661
lg,1625009854913701671,0,-1.1694,-0.8301,0.3223,463,-39.6118,-137.9395,180.0537,82,1.4547,1.4477,35.4796,-54.0635,35,0.1571,8719,4.015,-132.0771
lg,1625009854913722634,0,-0.3892,-0.2693,0.6069,464,1.5869,-294.5557,143.7988,82,1.4467,1.4417,32.0842,-44.3172,35,0.1551,8893,4.015,-116.1621
lg,1625009854913740968,0,0.0535,-0.9485,0.6362,465,-130.8594,-397.3389,96.0693,82,1.4487,1.4407,22.0608,-43.038,35,0.1551,8334,4.015,-101.1118
lg,1625009854913760079,0,0.365,-1.271,0.4561,466,-144.043,-466.3086,63.0493,82,1.4507,1.4417,9.214,-46.104,35,0.1551,8350,4.015,-87.9945
lg,1625009854913778134,0,0.9395,-1.6033,0.3887,467,-101.5015,-331.7261,25.3906,82,1.4507,1.4417,-0.196,-50.2901,35,0.1541,8325,4.015,-77.5634
lg,1625009854913799246,0,1.3574,-1.4197,0.5344,468,14.4653,-72.4487,31.4941,82,1.4517,1.4427,-2.5767,-50.3053,35,0.1551,8364,4.015,-74.5282
lg,1625009854913818949,0,0.9351,-0.8953,0.3848,469,72.5708,188.4155,-24.6582,82,1.4527,1.4447,0.0919,-47.7275,35,0.1571,8425,4.015,-80.8842
lg,1625009854913836746,0,0.4797,-0.8833,0.397,470,75.3784,289.7949,-53.7109,82,1.4547,1.4477,5.4051,-45.8308,35,0.1561,8309,4.015,-90.8118
lg,1625009854913854727,0,-0.2344,-0.9219,0.301,471,69.1528,375.7324,-74.2188,82,1.4587,1.4507,13.9781,-46.2608,36,0.1561,8405,4.015,-103.897
lg,1625009854913872820,0,-0.7515,-0.8738,0.2512,472,73.8525,337.5854,-93.3838,82,1.4687,1.4527,21.3833,-48.133,36,0.1571,8658,4.015,-117.1185
lg,1625009854913925746,0,-0.7798,-0.7683,0.512,473,78.6133,281.189,-89.7827,82,1.4747,1.4507,25.0779,-48.8113,36,0.1561,8450,4.015,-126.4147
lg,1625009854913955875,0,-0.7043,-0.6833,0.3826,474,71.5942,138.1226,-90.0879,82,1.4777,1.4477,26.6082,-49.4972,36,0.1551,8467,4.015,-133.8402
lg,1625009854913975301,0,-0.5557,-0.7385,0.4644,475,36.499,35.6445,-82.6416,82,1.4757,1.4397,25.2408,-49.9069,35,0.1571,8472,4.015,-137.5573
lg,1625009854913994209,0,-0.4458,-0.8655,0.3625,476,19.2871,4.7607,-47.6074,82,1.4737,1.4297,23.9413,-50.4255,35,0.1541,8490,4.015,-139.3408
lg,1625009854914012579,0,-0.4099,-0.8938,0.2966,477,11.2915,-10.7422,-30.6396,82,1.4727,1.4207,22.9477,-50.6602,35,0.1551,8527,4.015,-138.7198
lg,1625009854914030653,0,-0.4568,-0.8425,0.3589,478,-4.6387,-48.2788,30.0903,82,1.4737,1.4147,22.8261,-50.4974,35,0.1601,8536,4.015,-136.5063
lg,1625009854914052023,0,-0.5229,-0.876,0.4226,479,-28.1982,-74.4629,119.1406,82,1.4757,1.4257,24.8156,-49.7676,36,0.1621,10262,4.015,-130.8709
lg,1625009854914074042,0,-0.562,-0.8147,0.3386,480,-50.8423,-149.7192,156.4941,82,1.4747,1.4317,25.9806,-48.3293,36,0.1631,8646,4.015,-121.5968
lg,1625009855284518338,0,0.3313,-0.7834,0.9214,481,-78.9795,-306.7017,187.3169,82,1.4457,1.4347,21.3374,-45.5659,36,0.1571,27245,4.015,-106.4441
lg,1625009855284555449,0,0.9475,-1.4404,0.7136,482,-117.0044,-323.2422,61.8286,82,1.4477,1.4367,12.5437,-47.4764,36,0.1561,8753,4.015,-95.1199
lg,1625009855284575468,0,1.0547,-1.4893,0.5991,483,-83.9233,-270.6909,27.5879,82,1.4487,1.4387,7.5451,-49.3497,36,0.1561,8005,4.015,-90.8916
lg,1625009855284594560,0,0.936,-1.3901,0.302,484,1.77,-19.7754,-9.3994,82,1.4497,1.4407,5.2933,-50.1357,36,0.1591,8075,4.015,-90.6393
lg,1625009855284613319,0,0.6484,-1.0042,0.2827,485,78.6743,174.2554,-27.2827,82,1.4507,1.4427,7.6281,-48.4634,36,0.1581,8117,4.015,-96.7717
lg,1625009855284632042,0,0.0129,-0.8203,0.3425,486,101.4404,346.1304,-46.3257,82,1.4547,1.4447,15.1409,-47.4986,36,0.1601,10873,4.015,-108.5821
lg,1625009855284650616,0,-0.5266,-0.7415,0.3198,487,96.4966,374.6948,-52.7954,82,1.4617,1.4467,24.2236,-48.8136,36,0.1601,8580,4.015,-122.0408
lg,1625009855284668523,0,-0.6709,-0.7183,0.4287,488,87.0972,341.1865,-59.8755,82,1.4667,1.4457,31.5827,-52.0815,35,0.1591,8019,4.015,-135.7874
lg,1625009855284685505,0,-0.7664,-0.6812,0.4917,489,67.688,223.2666,-76.2329,82,1.4727,1.4467,34.7808,-55.3299,35,0.1601,8123,4.015,-146.5897
lg,1625009855284702134,0,-0.7283,-0.7874,0.5044,490,36.438,113.2812,-76.5991,82,1.4757,1.4447,34.8135,-57.7394,35,0.1611,8156,4.015,-153.2953
lg,1625009855284719116,0,-0.686,-0.8889,0.5498,491,25.9399,66.2842,-64.5752,91,1.4767,1.4437,33.8954,-59.3555,35,0.1641,8358,4.0117,-157.7703
lg,1625009855284758838,0,-0.6814,-0.9111,0.2886,492,15.1978,-9.2773,-36.8652,91,1.4767,1.4437,32.524,-59.5172,35,0.1671,8106,4.0117,-158.5519
lg,1625009855284777690,0,-0.6411,-0.8247,0.365,493,-19.2871,-92.4072,26.6113,91,1.4797,1.4477,31.655,-58.1877,35,0.1711,8144,4.0117,-154.286
lg,1625009855284794542,0,-0.606,-0.678,0.4155,494,-30.5176,-127.1973,60.5469,91,1.4747,1.4507,31.7887,-55.5018,35,0.1671,8155,4.0117,-145.9112
lg,1625009855284811931,0,-0.6035,-0.7078,0.4041,495,-57.4951,-165.2222,125.4883,91,1.4587,1.4517,32.1975,-52.7662,36,0.1641,8144,4.0117,-136.2142
lg,1625009855284829634,0,-0.2937,-0.6479,0.7769,496,-58.0444,-213.3789,150.1465,91,1.4527,1.4447,30.8173,-48.1243,36,0.1641,9547,4.0117,-123.7385
lg,1625009855284846671,0,0.0442,-0.7952,0.6282,497,-71.5332,-302.7954,59.4482,91,1.4497,1.4407,23.105,-45.8112,36,0.1591,8297,4.0117,-112.1226
lg,1625009855284863986,0,0.5354,-1.2114,0.6187,498,-113.3423,-338.3789,47.6685,91,1.4517,1.4407,13.1121,-47.3687,36,0.1561,8212,4.0117,-101.8415
lg,1625009855284881208,0,0.5767,-1.4395,0.6382,499,-97.9614,-244.3237,-0.061,91,1.4547,1.4427,5.5299,-50.7325,36,0.1581,8298,4.0117,-94.5021
lg,1625009855284898227,0,0.8667,-1.3999,0.426,500,-24.0479,-101.5625,0.6714,91,1.4547,1.4427,1.7097,-52.2106,36,0.1581,8263,4.0117,-91.3546
lg,1625009855284914986,0,0.9343,-1.1191,0.4731,501,42.4805,74.7681,-15.0757,91,1.4557,1.4447,1.6474,-51.0486,36,0.1611,8286,4.0117,-94.11
lg,1625009855284932579,0,0.709,-1.0034,0.459,502,60.1196,170.105,-38.6963,91,1.4577,1.4467,3.5053,-49.3953,36,0.1601,8345,4.0117,-100.3716
lg,1625009855284960727,0,-0.1804,-0.9341,0.3142,503,53.894,324.8901,-80.3833,91,1.4647,1.4507,9.7421,-49.486,36,0.1591,13657,4.0117,-112.4192
lg,1625009855284979319,0,-0.5828,-0.8862,0.3037,504,49.9878,282.8979,-97.8394,91,1.4707,1.4527,14.839,-50.6479,36,0.1611,8330,4.0117,-123.9634
lg,1625009855284996042,0,-0.6204,-0.8149,0.446,505,46.9971,235.2905,-93.8721,91,1.4757,1.4517,17.3337,-51.2085,36,0.1571,8493,4.0117,-132.1694
lg,1625009855285012579,0,-0.5496,-0.7646,0.3757,506,54.4434,125.9155,-85.2051,91,1.4757,1.4477,18.4169,-51.4156,36,0.1571,8565,4.0117,-138.6632
lg,1625009855285029523,0,-0.4087,-0.8516,0.51,507,29.48,51.6968,-72.0215,91,1.4717,1.4427,17.6008,-51.6326,35,0.1581,8443,4.0117,-142.3372
lg,1625009855285046060,0,-0.2737,-0.8481,0.364,508,24.6582,9.9487,-46.936,91,1.4707,1.4357,16.3513,-51.6825,35,0.1591,8881,4.0117,-144.0556
lg,1625009855285062671,0,-0.2341,-0.8303,0.322,509,20.2026,-12.146,0.6104,91,1.4707,1.4327,16.03,-51.4236,35,0.1601,9029,4.0117,-143.8307
lg,1625009855285079264,0,-0.2617,-0.7996,0.3069,510,12.7563,-2.1362,33.5693,91,1.4717,1.4347,17.0869,-51.3183,35,0.1631,8524,4.0117,-143.0763
lg,1625009855285096023,0,-0.5171,-0.9177,0.5508,511,-33.3862,-3.2959,101.9897,91,1.4747,1.4397,20.5439,-52.0301,35,0.1651,8500,4.0117,-140.3881
lg,1625009855285112653,0,-0.6584,-0.8162,0.2141,512,-50.354,-94.9707,141.7847,91,1.4737,1.4437,23.4218,-52.173,35,0.1631,8604,4.0117,-133.6768
lg,1625009855644500727,0,0.1375,-0.6162,0.6628,513,-58.8379,-237.793,206.665,91,1.4507,1.4437,18.9312,-48.6635,36,0.1561,24901,4.0117,-119.1273
lg,1625009855644566560,0,1.0005,-1.4182,0.5479,514,-125.7935,-386.8408,32.1655,91,1.4527,1.4457,8.2931,-51.2831,36,0.1561,15608,4.0117,-106.3637
lg,1625009855644587541,0,1.1277,-1.5295,0.5042,515,-100.2197,-274.9023,6.0425,91,1.4537,1.4467,0.4571,-55.3346,36,0.1571,8084,4.0117,-97.4674
lg,1625009855644606967,0,0.9639,-1.4153,0.2483,516,10.3149,13.6719,-10.7422,91,1.4537,1.4477,-0.8683,-55.6813,35,0.1581,8043,4.0117,-98.1665
lg,1625009855644625912,0,0.5938,-0.9324,0.2534,517,88.9282,217.8345,-21.1182,91,1.4537,1.4487,2.3364,-52.8582,35,0.1601,8026,4.0117,-105.7516
lg,1625009855644644264,0,0.2493,-0.7664,0.2512,518,102.7222,305.2979,-28.5034,91,1.4547,1.4507,9.1345,-50.3305,35,0.1611,8247,4.0117,-116.0649
lg,1625009855644662282,0,-0.3989,-0.6875,0.2788,519,92.7734,380.249,-22.583,91,1.4567,1.4517,18.834,-50.3142,36,0.1611,8258,4.0117,-128.7444
lg,1625009855644680597,0,-0.8169,-0.6836,0.3835,520,71.4722,307.6782,-18.2495,91,1.4607,1.4527,26.969,-52.0038,36,0.1601,8105,4.0117,-139.7271
lg,1625009855644698227,0,-0.9072,-0.6677,0.4775,521,46.0205,163.0859,-5.3101,91,1.4637,1.4527,31.5213,-53.1918,36,0.1631,8109,4.0117,-145.8604
lg,1625009855644715449,0,-0.7917,-0.6462,0.5654,522,30.3955,85.5713,1.8311,91,1.4697,1.4527,34.0364,-53.5561,36,0.1631,8190,4.0117,-149.0003
lg,1625009855644732560,0,-0.3894,-0.8167,0.7378,523,7.019,-41.5039,-2.2583,91,1.4747,1.4527,32.3992,-52.1807,35,0.1621,8206,4.0117,-147.3359
lg,1625009855644750208,0,-0.0068,-1.0081,0.6375,524,-11.7798,-103.2715,-31.5552,91,1.4777,1.4507,27.6754,-51.4653,35,0.1611,8146,4.0117,-144.6134
lg,1625009855644767412,0,0.1604,-1.1392,0.5339,525,-7.3242,-77.0264,-74.4019,91,1.4777,1.4457,22.1778,-52.0509,35,0.1611,12478,4.0117,-144.2229
lg,1625009855644784523,0,0.0928,-1.0923,0.2429,526,30.2734,-6.6528,-68.6035,91,1.4777,1.4427,18.8998,-52.4214,35,0.1601,8254,4.0117,-146.1755
lg,1625009855644801523,0,0.0452,-0.9109,0.1624,527,40.2832,19.8364,-49.2554,91,1.4777,1.4427,18.8399,-52.6646,35,0.1651,8280,4.0117,-148.6661
lg,1625009855644820412,0,-0.2759,-0.7546,0.5762,528,-4.8218,76.5381,13.4277,91,1.4797,1.4477,20.9827,-53.6144,35,0.1671,8223,4.0117,-150.9307
lg,1625009855644837467,0,-0.606,-0.8257,0.4885,529,-35.5835,73.9746,88.8672,91,1.4797,1.4517,26.0138,-55.3851,35,0.1661,8252,4.0117,-151.3994
lg,1625009855644854578,0,-0.7964,-0.7341,0.5007,530,-17.5781,-11.6577,92.7124,91,1.4747,1.4547,29.3965,-54.7632,35,0.1611,9358,4.0117,-148.5718
lg,1625009855644872004,0,-0.6626,-0.5779,0.4739,531,-24.353,-131.4087,87.6465,91,1.4637,1.4537,29.5677,-51.9982,36,0.1621,9277,4.0117,-141.2302
lg,1625009855644889245,0,-0.0508,-0.6807,0.6477,532,-63.1104,-226.1963,95.1538,91,1.4597,1.4527,25.8059,-49.3308,36,0.1591,10221,4.0117,-130.512
lg,1625009855644906319,0,0.1057,-0.9258,0.3472,533,-62.561,-249.4507,59.5703,91,1.4587,1.4517,19.9735,-48.817,36,0.1591,8356,4.0117,-121.0218
lg,1625009855644924560,0,0.3108,-1.2979,0.5256,534,-74.585,-183.6548,47.8516,91,1.4587,1.4527,15.5126,-50.3468,35,0.1571,8344,4.0117,-114.0971
lg,1625009855644941912,0,0.521,-1.2942,0.4402,535,-5.9204,-52.9175,51.5747,91,1.4607,1.4527,14.4484,-50.5623,35,0.1571,8431,4.0117,-111.2576
lg,1625009855644959078,0,0.644,-1.2029,0.5576,536,23.1934,0.1221,49.0112,91,1.4627,1.4537,14.8766,-49.6165,35,0.1581,8450,4.0117,-111.6904
lg,1625009855644975967,0,0.6904,-0.9585,0.4543,537,37.5366,88.9282,6.958,91,1.4687,1.4537,15.7153,-49.3141,35,0.1581,8474,4.0117,-114.4515
lg,1625009855644992764,0,0.394,-1.01,0.5447,538,38.147,182.7393,-52.5513,91,1.4747,1.4567,17.5146,-50.3334,35,0.1591,8435,4.0117,-121.8151
lg,1625009855645009745,0,0.1265,-0.9473,0.3606,539,51.0864,230.896,-108.2153,91,1.4787,1.4577,18.9576,-52.3256,35,0.1591,8593,4.0117,-132.4523
lg,1625009855645039893,0,-0.0801,-0.9263,0.0701,540,58.7769,252.1973,-126.6479,91,1.4777,1.4567,20.9091,-55.353,35,0.1601,8487,4.0117,-144.7007
lg,1625009855645059060,0,-0.6133,-0.9036,0.2749,541,62.8662,272.0337,-105.6519,91,1.4777,1.4577,23.7997,-58.1712,35,0.1631,8549,4.0117,-157.2483
lg,1625009855645076264,0,-1.0635,-0.8616,0.4446,542,14.7095,255.7983,25.0244,91,1.4767,1.4607,30.6273,-62.0336,35,0.1661,8539,4.0117,-166.7411
lg,1625009855645093393,0,-1.4268,-0.6895,0.334,543,-17.8223,101.4404,98.5718,91,1.4697,1.4607,37.101,-64.0076,35,0.1641,8627,4.0117,-169.0043
lg,1625009855645111078,0,-1.4961,-0.7158,0.522,544,-5.9814,-5.188,102.8442,91,1.4587,1.4587,41.4206,-61.6558,35,0.1641,8649,4.0117,-165.7959
lg,1625009856013550671,0,-0.1504,-0.8782,0.2434,545,-158.2031,-444.0918,72.4487,91,1.4507,1.4467,32.8844,-56.6522,35,0.1591,26958,4.0117,-145.9702
lg,1625009856013581689,0,0.9807,-1.6665,0.5276,546,-50.9033,-277.4658,54.0771,91,1.4517,1.4467,26.3544,-53.41,35,0.1591,11645,4.0117,-134.5072
lg,1625009856013601208,0,1.2412,-1.4111,0.5408,547,-13.855,-180.2979,40.2832,91,1.4507,1.4467,21.2237,-51.516,35,0.1581,8034,4.0117,-127.4545
lg,1625009856013619782,0,1.0098,-0.9053,0.1865,548,38.7573,85.7544,-3.3569,91,1.4517,1.4477,21.1711,-51.7798,35,0.1601,8195,4.0117,-130.705
lg,1625009856013654893,0,0.2451,-0.9468,0.3027,549,39.6118,229.3091,-26.062,91,1.4547,1.4507,24.5472,-54.3828,35,0.1631,8044,4.0117,-139.6178
lg,1625009856013673337,0,-0.2761,-1.0334,0.2944,550,41.9312,255.7373,-31.7383,91,1.4597,1.4537,28.6726,-58.1834,35,0.1631,8058,4.0117,-150.5264
lg,1625009856013691189,0,-0.4309,-1.0232,0.3135,551,48.1567,239.0747,-41.3818,91,1.4657,1.4557,31.838,-62.0614,36,0.1621,8314,4.0117,-161.3036
lg,1625009856013708208,0,-0.47,-0.8413,0.374,552,62.6221,147.4609,-43.2739,91,1.4697,1.4567,32.7677,-63.5269,36,0.1641,8162,4.0117,-168.5308
lg,1625009856013724967,0,-0.3213,-0.7212,0.4949,553,60.6079,77.6978,-51.5137,91,1.4747,1.4547,31.8212,-63.0874,36,0.1621,8147,4.0117,-172.7152
lg,1625009856013741912,0,-0.3354,-0.7373,0.5427,554,48.3398,61.0962,-60.791,91,1.4747,1.4507,29.9212,-63.0535,36,0.1611,8150,4.0117,-175.861
lg,1625009856013758523,0,-0.3215,-0.8933,0.5725,555,28.4424,29.48,-59.4482,91,1.4747,1.4457,27.8262,-62.834,36,0.1611,8150,4.0117,-178.1611
lg,1625009856013784467,0,-0.2339,-0.9473,0.4697,556,33.2031,-6.3477,-29.48,91,1.4747,1.4397,26.0618,-61.696,36,0.1581,8153,4.0117,-178.5378
lg,1625009856013801356,0,-0.2314,-0.8838,0.3757,557,33.6914,-15.5029,-20.3247,91,1.4757,1.4357,24.9533,-60.4665,36,0.1601,8115,4.0117,-178.2116
lg,1625009856013817726,0,-0.4106,-0.7358,0.4827,558,1.4648,-16.4185,12.8784,91,1.4767,1.4367,25.0746,-59.8591,36,0.1651,8198,4.0117,-177.2309
lg,1625009856013834782,0,-0.5623,-0.8804,0.8052,559,-44.8608,-33.3862,87.2803,91,1.4807,1.4427,27.44,-59.707,35,0.1661,8139,4.0117,-173.7775
lg,1625009856013851337,0,-0.6028,-0.7498,0.4778,560,-47.4243,-60.0586,100.647,91,1.4767,1.4467,29.0966,-58.2587,35,0.1641,8232,4.0117,-167.0182
lg,1625009856013868337,0,-0.5757,-0.7073,0.4941,561,-45.7153,-151.6724,106.1401,91,1.4677,1.4477,29.5568,-55.78,35,0.1611,8281,4.0117,-158.4616
lg,1625009856013885375,0,-0.4565,-0.7454,0.4712,562,-67.2607,-196.8384,115.2344,91,1.4567,1.4497,28.6986,-53.4588,35,0.1611,8295,4.0117,-148.0992
lg,1625009856013902115,0,0.1289,-0.8713,0.6624,563,-80.9326,-248.8403,125,91,1.4527,1.4497,25.2842,-51.091,35,0.1611,8272,4.0117,-135.8694
lg,1625009856013919060,0,0.3489,-0.9634,0.4092,564,-73.3643,-268.0054,81.3599,91,1.4517,1.4497,19.5266,-50.378,35,0.1581,8272,4.0117,-124.976
lg,1625009856013935541,0,0.6238,-1.2808,0.5083,565,-85.5713,-196.7773,53.5278,91,1.4517,1.4507,14.7556,-52.1283,35,0.1551,8324,4.0117,-117.3604
lg,1625009856013951875,0,0.6621,-1.2654,0.4553,566,-30.5176,-55.2368,20.5688,91,1.4527,1.4507,12.6139,-53.4265,35,0.1541,8411,4.0117,-115.1871
lg,1625009856013968800,0,0.4802,-1.2026,0.4089,567,-7.5073,25.0244,8.728,91,1.4537,1.4517,13.6693,-54.0918,36,0.1541,8428,4.0117,-117.6101
lg,1625009856013985208,0,0.0417,-0.9651,0.3379,568,34.0576,135.3149,7.6904,91,1.4547,1.4527,16.4448,-54.5281,36,0.1551,11439,4.0117,-122.1405
lg,1625009856014001800,0,-0.0662,-0.8926,0.2942,569,40.1611,142.5781,10.3149,91,1.4547,1.4527,19.7365,-55.0052,36,0.1551,8460,4.0117,-126.9793
lg,1625009856014018430,0,-0.1768,-0.8225,0.3406,570,42.0532,128.479,20.2637,91,1.4557,1.4517,22.989,-55.3033,36,0.1561,8491,4.0117,-131.1929
lg,1625009856014034634,0,-0.1997,-0.7981,0.3499,571,39.7339,113.5254,25.0244,91,1.4567,1.4527,25.9769,-55.6173,36,0.1571,9233,4.0117,-134.8688
lg,1625009856014050634,0,-0.1753,-0.8108,0.4434,572,42.5415,100.2197,30.4565,91,1.4587,1.4537,28.6286,-55.5104,36,0.1601,8816,4.0117,-137.9333
lg,1625009856014066819,0,-0.1965,-0.8337,0.5598,573,41.8701,94.2993,27.3438,91,1.4637,1.4547,30.2223,-55.1637,36,0.1581,8417,4.0117,-140.7609
lg,1625009856014083282,0,-0.0544,-0.8872,0.7402,574,39.917,74.1577,-8.9111,91,1.4727,1.4547,30.5661,-54.8783,35,0.1561,9072,4.0117,-143.7055
lg,1625009856014099763,0,0.0332,-0.8877,0.6411,575,38.4521,47.6074,-81.4209,91,1.4787,1.4527,27.7656,-55.2132,35,0.1531,8560,4.0117,-147.6008
lg,1625009856014116208,0,0.0007,-1.0291,0.5283,576,39.5508,72.876,-140.625,91,1.4777,1.4447,23.6796,-56.638,35,0.1491,8874,4.0117,-153.9031
lg,1625009856378892245,0,-0.5063,-0.7214,0.3667,577,32.5317,128.2349,-16.3574,91,1.4757,1.4277,26.2133,-57.7385,36,0.1551,26726,4.0117,-159.1493
lg,1625009856378946337,0,-0.9714,-0.6697,0.377,578,-29.3579,26.4893,80.3223,91,1.4777,1.4347,30.4569,-58.5513,36,0.1501,11786,4.0117,-158.2931
lg,1625009856378965819,0,-1.0654,-0.7114,0.5796,579,-32.5317,-53.6499,100.3418,91,1.4737,1.4407,33.4459,-57.1217,36,0.1481,8039,4.0117,-153.5004
lg,1625009856378984060,0,-0.939,-0.679,0.5811,580,-37.9639,-181.3965,131.897,91,1.4647,1.4437,34.1029,-52.3461,36,0.1501,8121,4.0117,-142.5371
lg,1625009856379121541,0,-0.2805,-0.6919,0.3645,581,-84.4727,-330.2002,133.667,91,1.4567,1.4457,29.2435,-47.7845,36,0.1501,8119,4.0117,-126.9134
lg,1625009856379140393,0,0.2273,-0.781,0.502,582,-100.1587,-377.1362,112.1826,91,1.4557,1.4427,20.6997,-45.6432,36,0.1461,8050,4.0117,-111.7265
lg,1625009856379157726,0,0.7729,-1.228,0.3281,583,-117.7368,-332.5806,38.269,91,1.4557,1.4407,11.0958,-48.2401,36,0.1451,8242,4.0117,-100.9075
lg,1625009856379175819,0,0.9756,-1.4695,0.4819,584,-55.1758,-136.8408,16.6016,91,1.4567,1.4437,6.5187,-50.4726,36,0.1441,8105,4.0117,-96.389
lg,1625009856379193541,0,0.5789,-1.3147,0.3098,585,20.5688,76.8433,4.2114,91,1.4577,1.4447,7.4817,-50.8508,36,0.1451,9063,4.0117,-98.7864
lg,1625009856379210726,0,0.3174,-0.9238,0.2983,586,60.3638,162.2925,1.2817,91,1.4587,1.4457,10.6655,-50.0199,36,0.1451,8182,4.0117,-103.9392
lg,1625009856379228152,0,0.1345,-0.8479,0.3049,587,61.6455,189.3311,-4.5776,91,1.4587,1.4477,14.6536,-49.6753,35,0.1461,8112,4.0117,-110.1472
lg,1625009856379245171,0,-0.1638,-0.8442,0.3916,588,49.5605,200.1953,-1.6479,91,1.4607,1.4487,19.5508,-50.212,35,0.1481,8203,4.0117,-116.7634
lg,1625009856379262541,0,-0.3564,-0.8484,0.3865,589,46.0205,174.2554,-2.2583,91,1.4617,1.4507,23.9367,-51.1406,35,0.1491,8176,4.0117,-122.8364
lg,1625009856379279597,0,-0.384,-0.8245,0.4448,590,46.5698,153.3203,0.2441,91,1.4657,1.4517,27.6661,-52.0176,35,0.1501,8174,4.0117,-128.3454
lg,1625009856379296671,0,-0.3701,-0.729,0.4954,591,36.6211,79.0405,9.0942,91,1.4707,1.4537,29.6859,-51.9429,35,0.1501,12121,4.0117,-131.0063
lg,1625009856379313597,0,-0.3062,-0.77,0.6018,592,30.7617,53.1006,9.7046,91,1.4757,1.4537,30.8048,-51.539,35,0.1511,8246,4.0117,-132.6632
lg,1625009856379330374,0,-0.1731,-0.8928,0.697,593,18.7378,2.7466,-17.4561,91,1.4777,1.4527,29.4684,-51.1059,35,0.1531,8365,4.0117,-133.2758
lg,1625009856379347393,0,-0.0173,-1.0134,0.644,594,10.0098,-12.085,-41.1987,91,1.4767,1.4497,26.8002,-51.3342,36,0.1541,8311,4.0117,-134.1514
lg,1625009856379364374,0,-0.0935,-1.05,0.4329,595,21.5454,25.1465,-49.8047,91,1.4757,1.4477,25.0357,-52.1507,36,0.1551,8421,4.0117,-136.7096
lg,1625009856379381041,0,-0.1572,-0.9954,0.4006,596,31.1279,42.9688,-35.4004,91,1.4757,1.4467,25.4372,-52.269,36,0.1571,8908,4.0117,-139.386
lg,1625009856379397800,0,-0.3279,-0.8254,0.4871,597,25.8179,71.8384,0.5493,91,1.4777,1.4477,26.9337,-52.6407,36,0.1601,8632,4.0117,-142.0409
lg,1625009856379434837,0,-0.6052,-0.8315,0.5813,598,-23.3154,36.6211,48.3398,91,1.4767,1.4517,29.4964,-53.6577,35,0.1601,8365,4.0117,-142.1009
lg,1625009856379453208,0,-0.7026,-0.7988,0.4766,599,-46.875,-46.0205,93.8721,91,1.4787,1.4557,31.7243,-53.5165,35,0.1561,8455,4.0117,-137.8871
lg,1625009856379474337,0,-0.7378,-0.7739,0.4946,600,-41.3818,-83.6792,100.4028,91,1.4737,1.4577,32.5171,-51.2192,35,0.1541,8700,4.0117,-130.6978
lg,1625009856379502615,0,-0.6577,-0.7351,0.51,601,-36.8042,-146.4844,106.8115,91,1.4657,1.4577,32.1614,-48.2353,35,0.1521,8533,4.0117,-122.204
lg,1625009856379522208,0,-0.0681,-0.5957,0.605,602,-49.2554,-239.8071,86.6699,91,1.4617,1.4557,27.0635,-44.7295,36,0.1531,8491,4.0117,-111.4086
lg,1625009856379540337,0,0.178,-1.0269,0.4192,603,-92.8955,-255.9204,39.6118,91,1.4617,1.4547,19.7688,-45.7477,36,0.1521,8650,4.0117,-102.7136
lg,1625009856379559541,0,0.4319,-1.2773,0.4375,604,-48.8281,-157.8979,37.9028,91,1.4627,1.4547,15.2064,-46.8735,36,0.1521,9328,4.0117,-97.1446
lg,1625009856379576948,0,0.4744,-1.228,0.5408,605,12.3901,-5.6763,33.7524,81,1.4647,1.4567,14.7721,-46.8119,36,0.1541,8621,4.0172,-96.2147
lg,1625009856379595763,0,0.5911,-1.0945,0.5366,606,30.0903,18.0664,26.2451,81,1.4687,1.4587,14.4979,-46.1351,35,0.1551,8652,4.0172,-96.1727
lg,1625009856379613411,0,0.4368,-0.9407,0.4553,607,34.5459,106.3232,-24.9023,81,1.4727,1.4597,15.3505,-46.4229,35,0.1551,8646,4.0172,-100.2381
lg,1625009856379631430,0,0.0049,-1.0015,0.4238,608,33.8745,176.8188,-57.0068,81,1.4767,1.4607,17.8798,-47.9091,35,0.1541,8652,4.0172,-107.4827
lg,1625009856748409782,0,-0.8457,-0.8264,0.4075,609,-12.4512,96.3135,20.5688,81,1.4697,1.4637,22.7833,-49.1158,36,0.1601,27274,4.0172,-107.5061
lg,1625009856748476911,0,-0.835,-0.5938,0.4707,610,26.062,-34.1187,29.2969,81,1.4637,1.4567,23.7086,-47.3564,36,0.1581,8728,4.0172,-105.5532
lg,1625009856748496522,0,-0.3838,-0.448,0.365,611,-22.2168,-80.4443,21.0571,81,1.4597,1.4537,19.7059,-46.2974,36,0.1531,9420,4.0172,-98.9498
lg,1625009856748514726,0,-0.1824,-0.9915,0.6055,612,-66.8335,-224.9146,19.2261,81,1.4577,1.4517,14.2925,-48.3831,36,0.1511,10177,4.0172,-91.9816
lg,1625009856748532467,0,0.0049,-1.2139,0.5515,613,-77.2095,-199.7681,37.9028,81,1.4587,1.4507,9.7426,-50.6311,36,0.1511,8025,4.0172,-84.9266
lg,1625009856748551078,0,0.551,-1.3296,0.5522,614,-36.6211,-151.1841,43.2129,81,1.4587,1.4507,6.1847,-51.8833,36,0.1521,8056,4.0172,-79.1674
lg,1625009856748568819,0,0.7529,-1.3025,0.6731,615,-11.5967,-100.0366,33.5693,81,1.4597,1.4527,4.6076,-51.9823,35,0.1531,8032,4.0172,-77.9379
lg,1625009856748585967,0,0.8333,-1.0684,0.3833,616,16.4795,49.1333,-3.2349,81,1.4617,1.4547,4.2275,-52.0184,35,0.1541,8073,4.0172,-79.6235
lg,1625009856748603763,0,0.4707,-0.9976,0.4475,617,30.5176,162.7808,-48.4619,81,1.4657,1.4577,5.6463,-51.8367,35,0.1541,9085,4.0172,-86.0088
lg,1625009856748621856,0,0.0422,-1.0215,0.3774,618,27.771,235.8398,-82.3364,81,1.4707,1.4607,8.486,-52.604,35,0.1511,8535,4.0172,-95.6062
lg,1625009856748638782,0,-0.1453,-1.0217,0.3313,619,30.6396,245.7275,-93.5059,81,1.4747,1.4617,11.3191,-53.9016,36,0.1481,8123,4.0172,-105.9624
lg,1625009856748656263,0,-0.2854,-1.011,0.3997,620,44.2505,222.29,-101.1963,81,1.4767,1.4577,13.3263,-54.7836,36,0.1471,8187,4.0172,-115.8643
lg,1625009856748674152,0,-0.3074,-0.9714,0.1868,621,65.0635,170.9595,-112.7319,81,1.4727,1.4507,13.7381,-55.065,36,0.1471,10002,4.0172,-124.4832
lg,1625009856748691393,0,-0.2966,-0.8716,0.1711,622,63.6597,112.3047,-114.1968,81,1.4707,1.4397,12.7886,-54.8903,36,0.1501,8864,4.0172,-131.1566
lg,1625009856748707948,0,-0.384,-0.6465,0.1414,623,63.4155,83.0688,-55.2979,81,1.4707,1.4287,13.6153,-54.0647,36,0.1491,8877,4.0172,-135.4177
lg,1625009856748774022,0,-0.4236,-0.5662,0.1123,624,49.8657,100.647,-0.5493,81,1.4697,1.4227,16.8621,-53.7478,36,0.1521,8140,4.0172,-138.9887
lg,1625009856748791911,0,-0.6567,-0.6536,0.5706,625,7.3242,144.3481,82.4585,81,1.4707,1.4237,23.6702,-54.2932,36,0.1541,8642,4.0172,-141.8688
lg,1625009856748809096,0,-1.0022,-0.9321,0.5386,626,-53.833,-0.061,123.6572,81,1.4727,1.4267,28.4428,-55.2139,36,0.1541,8574,4.0172,-138.7784
lg,1625009856748826522,0,-1.0522,-0.8889,0.3503,627,-72.3267,-212.0361,165.5884,81,1.4707,1.4327,29.5984,-52.5128,36,0.1541,8651,4.0172,-126.6657
lg,1625009856748843337,0,-0.9941,-0.8184,0.3738,628,-59.7534,-270.6909,186.3403,81,1.4617,1.4367,29.168,-47.8831,36,0.1511,8332,4.0172,-111.8362
lg,1625009856748860022,0,-0.6946,-0.6582,0.3916,629,-63.4155,-333.8013,216.1865,81,1.4497,1.4387,26.4777,-42.5452,36,0.1551,8647,4.0172,-94.4609
lg,1625009856748876467,0,0.2463,-0.6492,0.241,630,-83.313,-476.6846,157.8369,81,1.4487,1.4387,14.9389,-40.3687,35,0.1521,8674,4.0172,-76.6033
lg,1625009856748893744,0,1.0803,-1.5107,0.6672,631,-176.5747,-504.7607,118.7744,81,1.4497,1.4407,1.9007,-45.6862,35,0.1531,8721,4.0172,-59.5643
lg,1625009856748910356,0,1.4255,-1.6301,0.748,632,-149.1699,-465.0269,55.8472,81,1.4517,1.4417,-9.846,-53.3105,35,0.1531,8427,4.0172,-44.0422
lg,1625009856748926559,0,1.3738,-1.646,0.3752,633,-40.4053,-83.7402,-3.7842,81,1.4497,1.4437,-13.0117,-56.1286,35,0.1551,8472,4.0172,-41.1871
lg,1625009856748943059,0,0.8457,-1.1951,0.2986,634,80.6274,191.8945,-26.5503,81,1.4537,1.4457,-10.265,-52.1335,35,0.1561,8481,4.0172,-48.0611
lg,1625009856748959893,0,0.157,-0.8176,0.2134,635,104.4312,290.3442,-46.0205,81,1.4547,1.4477,-3.1006,-47.289,35,0.1551,8880,4.0172,-60.2305
lg,1625009856748976282,0,-0.1484,-0.7539,0.1682,636,97.168,378.54,-66.8335,81,1.4587,1.4507,6.6238,-44.7673,35,0.1541,9066,4.0172,-72.8241
lg,1625009856748992967,0,-0.6907,-0.7664,0.2246,637,78.7964,353.2715,-80.9937,81,1.4617,1.4527,15.603,-44.8678,35,0.1541,8495,4.0172,-85.341
lg,1625009856749009800,0,-0.9753,-0.7546,0.3403,638,66.7114,249.3896,-61.8896,81,1.4667,1.4527,22.1032,-45.7578,36,0.1561,8568,4.0172,-94.8114
lg,1625009856749025856,0,-0.8452,-0.6274,0.5452,639,46.5698,103.4546,-40.3442,81,1.4707,1.4497,24.7065,-45.7469,36,0.1561,8544,4.0172,-99.3045
lg,1625009856749044485,0,-0.5862,-0.668,0.4873,640,23.7427,-29.2358,-31.9214,81,1.4737,1.4537,23.4039,-45.1028,36,0.1561,9949,4.0172,-99.4814
lg,1625009857115177374,0,-0.1323,-1.0457,0.5071,641,-6.4087,-104.7363,-2.9297,81,1.4787,1.4527,20.0947,-44.8054,36,0.1601,27071,4.0172,-96.6913
lg,1625009857115232892,0,0.0361,-0.9746,0.4858,642,12.5732,-59.8755,36.0107,81,1.4807,1.4537,18.6148,-43.9542,36,0.1631,12014,4.0172,-94.0379
lg,1625009857115263411,0,-0.0286,-0.927,0.5889,643,-9.7656,-30.8838,58.2275,81,1.4837,1.4567,18.6948,-44.0418,36,0.1641,8040,4.0172,-91.5444
lg,1625009857115291670,0,-0.1558,-0.8694,0.3362,644,-36.5601,-46.4478,79.0405,81,1.4807,1.4597,19.2956,-45.2588,36,0.1631,8035,4.0172,-88.1028
lg,1625009857115319263,0,-0.2932,-0.8477,0.4475,645,-39.978,-44.7388,87.3413,81,1.4697,1.4597,20.4856,-46.1662,36,0.1601,8044,4.0172,-84.3695
lg,1625009857115346226,0,-0.2598,-0.7253,0.8486,646,-26.1841,-46.2036,119.6289,81,1.4647,1.4547,22.3261,-45.1342,36,0.1591,8063,4.0172,-79.2808
lg,1625009857115373096,0,-0.1985,-0.6724,0.5752,647,-21.6064,-125.7935,59.2651,81,1.4607,1.4497,20.0478,-44.1382,35,0.1561,8244,4.0172,-73.7453
lg,1625009857115400781,0,0.2012,-0.9971,0.6062,648,-65.0024,-166.1377,54.1992,81,1.4627,1.4477,13.8177,-45.2346,35,0.1561,8149,4.0172,-67.0887
lg,1625009857115428281,0,0.1482,-1.218,0.6257,649,-73.9746,-158.8745,5.127,81,1.4637,1.4477,8.8705,-47.9086,35,0.1571,8113,4.0172,-62.3846
lg,1625009857115456781,0,0.3196,-1.3728,0.4658,650,-16.2354,-55.4199,11.3525,81,1.4657,1.4517,6.9517,-49.1581,35,0.1581,8215,4.0172,-60.531
lg,1625009857115483892,0,0.6902,-1.0457,0.3547,651,26.4282,1.709,2.0142,81,1.4677,1.4537,5.6472,-48.824,36,0.1591,8215,4.0172,-60.6256
lg,1625009857115544133,0,0.6377,-0.9353,0.4758,652,43.2739,76.4771,-16.8457,81,1.4707,1.4567,5.8077,-47.8424,36,0.1571,8166,4.0172,-63.4376
lg,1625009857115578078,0,0.2427,-0.8682,0.4487,653,45.105,206.9092,-64.209,81,1.4757,1.4587,8.6827,-47.6034,36,0.1521,8192,4.0172,-71.4067
lg,1625009857115604281,0,-0.1826,-0.9355,0.4377,654,36.438,242.8589,-91.2476,81,1.4797,1.4607,12.4807,-48.6306,36,0.1541,8221,4.0172,-81.3263
lg,1625009857115631318,0,-0.3337,-0.9109,0.3723,655,41.748,242.4927,-98.6328,81,1.4827,1.4597,16.0264,-50.2106,35,0.1541,8264,4.0172,-91.7139
lg,1625009857115659059,0,-0.5305,-0.7952,0.3091,656,54.9927,182.4951,-94.4824,81,1.4827,1.4577,18.3426,-51.1332,35,0.1531,8290,4.0172,-100.3019
lg,1625009857115686041,0,-0.7144,-0.6938,0.3086,657,27.0996,84.5947,-29.48,81,1.4817,1.4547,20.4848,-51.6814,35,0.1531,16758,4.0172,-104.0316
lg,1625009857115712078,0,-0.9402,-0.811,0.6003,658,-19.8364,23.6816,42.4805,81,1.4837,1.4567,23.2639,-52.3998,36,0.1611,8222,4.0172,-103.7356
lg,1625009857115739263,0,-1.031,-0.9048,0.6702,659,-39.4897,-23.9868,88.501,81,1.4827,1.4587,26.021,-51.6015,36,0.1601,8265,4.0172,-97.262
lg,1625009857115765189,0,-0.8467,-0.7891,0.4402,660,-45.6543,-160.4614,152.5879,81,1.4757,1.4607,27.3372,-49.2594,36,0.1581,8297,4.0172,-87.4952
lg,1625009857115791929,0,-0.261,-0.5986,0.5854,661,-50.1709,-288.0249,142.334,81,1.4707,1.4617,23.3498,-45.2701,36,0.1621,8273,4.0172,-73.8347
lg,1625009857115818874,0,0.1445,-0.8257,0.2859,662,-96.4355,-339.1724,102.478,81,1.4677,1.4607,15.678,-45.6945,36,0.1601,8668,4.0172,-60.9932
lg,1625009857115869152,0,0.439,-1.071,0.3591,663,-124.5728,-342.8955,104.7974,81,1.4677,1.4617,7.9588,-48.9117,36,0.1581,8854,4.0172,-48.0928
lg,1625009857115902374,0,0.8484,-1.4321,0.5769,664,-92.7124,-271.9727,58.8989,81,1.4677,1.4587,1.5821,-52.4156,36,0.1581,8459,4.0172,-38.2376
lg,1625009857115931392,0,0.8162,-1.3665,0.4546,665,-27.4048,-67.627,41.8701,81,1.4677,1.4577,0.1435,-54.0838,36,0.1591,8482,4.0172,-35.0717
lg,1625009857115957892,0,0.5083,-1.0918,0.3801,666,30.0293,82.3364,25.8789,81,1.4687,1.4587,1.991,-53.5108,36,0.1601,8435,4.0172,-37.134
lg,1625009857115984874,0,0.3145,-0.9885,0.3115,667,41.1377,129.2114,16.7847,81,1.4697,1.4597,4.8738,-52.7916,36,0.1611,8523,4.0172,-40.9123
lg,1625009857116111652,0,0.0115,-0.9473,0.3303,668,52.063,177.3071,15.5029,81,1.4697,1.4617,9.4466,-52.0686,36,0.1621,8445,4.0172,-46.2631
lg,1625009857116203504,0,-0.2046,-0.8889,0.3213,669,57.1289,181.1523,1.77,81,1.4747,1.4637,14.069,-51.6585,35,0.1611,8461,4.0172,-52.1565
lg,1625009857116236670,0,-0.2598,-0.7869,0.3677,670,57.8613,165.2832,-5.4321,81,1.4787,1.4637,17.3261,-51.1789,35,0.1621,8546,4.0172,-57.1073
lg,1625009857116268004,0,-0.2603,-0.7659,0.45,671,54.5654,114.9902,-17.1509,81,1.4827,1.4607,19.6364,-50.6645,35,0.1621,8521,4.0172,-61.4306
lg,1625009857116299337,0,-0.2192,-0.8003,0.6167,672,47.4243,76.6602,-41.0156,81,1.4827,1.4557,20.021,-50.0616,35,0.1591,8562,4.0172,-65.0776
lg,1625009857491925429,0,-0.5383,-0.9192,0.4888,673,13.916,37.1094,-18.1274,81,1.4807,1.4457,20.7042,-50.5368,35,0.1641,26658,4.0172,-66.9418
lg,1625009857491960929,0,-0.6765,-0.6079,0.4089,674,-15.0146,-26.7944,87.2192,81,1.4807,1.4537,23.5519,-50.0525,35,0.1621,16314,4.0172,-63.7035
lg,1625009857491980300,0,-0.6509,-0.613,0.6204,675,-13.1226,-62.0117,93.4448,81,1.4777,1.4557,24.3486,-48.2148,36,0.1611,7939,4.0172,-58.0742
lg,1625009857491999188,0,-0.5664,-0.6746,0.5874,676,-28.1982,-127.1973,83.313,81,1.4727,1.4577,23.6928,-46.6734,36,0.1611,7987,4.0172,-51.5028
lg,1625009857492017670,0,-0.0242,-0.8655,0.627,677,-62.9883,-224.6704,73.6084,81,1.4707,1.4577,18.8128,-46.1741,36,0.1611,7962,4.0172,-42.4784
lg,1625009857492035763,0,0.1978,-1.0334,0.5261,678,-66.5894,-244.2627,44.4946,81,1.4697,1.4587,12.8406,-47.9574,36,0.1631,8011,4.0172,-35.6421
lg,1625009857492054466,0,0.4814,-1.2576,0.501,679,-31.0059,-86.3037,19.8364,81,1.4697,1.4587,9.9749,-49.3049,36,0.1631,11650,4.0172,-32.6177
lg,1625009857492073559,0,0.425,-1.2068,0.5393,680,-5.4321,-14.3433,2.8687,81,1.4717,1.4597,8.7074,-50.1166,36,0.1621,8170,4.0172,-32.2124
lg,1625009857492093207,0,0.3096,-0.9929,0.3892,681,19.9585,61.5845,-14.8926,81,1.4737,1.4607,8.874,-50.3621,36,0.1631,8124,4.0172,-34.6225
lg,1625009857492111781,0,0.0723,-0.949,0.4075,682,23.8647,110.8398,-37.3535,81,1.4767,1.4617,10.0244,-50.7758,36,0.1641,8116,4.0172,-39.1571
lg,1625009857492129374,0,-0.0452,-0.9568,0.3462,683,23.3154,127.7466,-40.5273,81,1.4797,1.4627,12.0098,-51.7483,36,0.1661,8122,4.0172,-44.4161
lg,1625009857492146429,0,-0.426,-0.7756,0.2852,684,32.959,80.4443,-35.4614,81,1.4817,1.4647,13.4887,-51.836,36,0.1671,9916,4.0172,-48.0408
lg,1625009857492182300,0,-0.5068,-0.7502,0.3875,685,17.7612,57.251,-9.5825,81,1.4797,1.4657,15.2757,-52.0177,36,0.1691,8179,4.0172,-50.2346
lg,1625009857492201300,0,-0.5654,-0.7341,0.667,686,-10.3149,26.9775,57.6782,81,1.4767,1.4647,18.3137,-52.0917,36,0.1701,8147,4.0172,-49.6038
lg,1625009857492218392,0,-0.5518,-0.738,0.5029,687,-6.897,-43.8232,37.0483,81,1.4727,1.4617,18.9277,-51.7094,36,0.1681,8238,4.0172,-47.2169
lg,1625009857492235096,0,-0.5256,-0.7603,0.5884,688,-32.7148,-62.9272,41.687,81,1.4677,1.4567,19.0734,-51.9852,36,0.1661,8253,4.0172,-44.0355
lg,1625009857492251726,0,-0.1389,-0.8098,0.5166,689,-37.2925,-139.8315,51.2085,81,1.4647,1.4527,16.8311,-51.848,36,0.1661,8274,4.0172,-38.15
lg,1625009857492268800,0,0.0059,-1.0649,0.6416,690,-49.4385,-118.9575,45.5322,81,1.4637,1.4497,14.7142,-52.7189,35,0.1661,8341,4.0172,-33.1577
lg,1625009857492285726,0,0.0791,-1.1365,0.6172,691,-36.8042,-96.2524,43.2129,81,1.4637,1.4497,12.8884,-53.5392,35,0.1661,8348,4.0172,-29.0065
lg,1625009857492302355,0,0.3218,-1.1038,0.5823,692,-15.8081,-51.3306,33.1421,81,1.4637,1.4497,11.7117,-53.9641,35,0.1681,8376,4.0172,-26.5815
lg,1625009857492319151,0,0.4844,-1.0427,0.5598,693,-1.77,12.9395,12.5732,81,1.4657,1.4507,11.1539,-54.3402,35,0.1691,10665,4.0172,-26.7676
lg,1625009857492336040,0,0.3618,-1.0049,0.4692,694,5.4932,91.3696,-24.5361,81,1.4697,1.4547,11.3413,-55.2221,35,0.1691,8428,4.0172,-30.4633
lg,1625009857492353318,0,0.1287,-1.0093,0.4956,695,5.0049,150.7568,-56.0913,81,1.4737,1.4577,12.1416,-56.6558,35,0.1701,8456,4.0172,-36.9071
lg,1625009857492370874,0,0.0146,-0.9846,0.449,696,6.4697,166.4429,-72.5708,81,1.4767,1.4577,12.9035,-58.3882,35,0.1661,8555,4.0172,-44.331
lg,1625009857492388596,0,-0.1621,-0.9727,0.3794,697,13.5498,183.6548,-95.1538,81,1.4767,1.4557,13.2018,-60.1677,35,0.1641,8439,4.0172,-52.8857
lg,1625009857492405837,0,-0.2983,-1.0364,0.1824,698,16.2964,168.7622,-113.5254,81,1.4727,1.4517,12.5884,-62.1268,35,0.1641,8476,4.0172,-61.3585
lg,1625009857492422892,0,-0.5288,-0.8901,-0.0391,699,44.0674,101.1963,-94.1162,81,1.4697,1.4457,11.8832,-62.5237,35,0.1641,8562,4.0172,-67.0278
lg,1625009857492524281,0,-0.5012,-0.7932,0.0159,700,62.2559,61.8286,-44.0063,81,1.4687,1.4427,12.3124,-61.5437,35,0.1671,8514,4.0172,-70.2728
lg,1625009857492552411,0,-0.54,-0.6931,0.2773,701,41.0767,60.1807,44.1895,81,1.4707,1.4427,15.9199,-60.4227,36,0.1701,8558,4.0172,-71.6001
lg,1625009857492571596,0,-0.582,-0.7876,0.5139,702,-12.0239,-20.2637,113.6475,81,1.4737,1.4467,20.069,-59.796,36,0.1711,8554,4.0172,-68.4487
lg,1625009857492589892,0,-0.4514,-0.7769,0.2947,703,-34.4238,-140.0757,119.3848,81,1.4747,1.4507,21.6682,-58.7358,36,0.1691,8563,4.0172,-60.8058
lg,1625009857492668263,0,-0.4292,-0.7603,0.3062,704,-44.3726,-190.7959,113.3423,81,1.4707,1.4537,21.7445,-57.309,36,0.1661,8554,4.0172,-51.3884
lg,1625009857843289244,0,0.249,-1.03,0.6321,705,-85.9375,-255.3101,62.1948,81,1.4587,1.4567,17.1135,-57.2743,36,0.1621,25951,4.0172,-40.8916
lg,1625009857843329651,0,0.7446,-1.3047,0.6892,706,-61.9507,-239.1968,34.729,81,1.4577,1.4567,12.8104,-57.8981,36,0.1621,9358,4.0172,-35.4789
lg,1625009857843350466,0,0.5996,-1.2708,0.5249,707,9.2773,33.5083,2.1973,81,1.4587,1.4567,12.2469,-58.1163,35,0.1621,10567,4.0172,-36.6768
lg,1625009857843369762,0,0.2017,-0.9822,0.2703,708,46.1426,156.9214,-15.3198,81,1.4587,1.4577,14.1221,-58.2399,35,0.1641,8113,4.0172,-42.6279
lg,1625009857843387781,0,-0.0449,-0.884,0.2476,709,55.6641,200.1953,-14.2212,81,1.4597,1.4587,17.3645,-58.6749,35,0.1661,8020,4.0172,-50.185
lg,1625009857843405503,0,-0.4138,-0.7888,0.3813,710,57.8613,218.75,-3.0518,81,1.4617,1.4607,22.0413,-59.2781,35,0.1671,9482,4.0172,-58.2745
lg,1625009857843422985,0,-0.4424,-0.7207,0.4199,711,39.5508,129.4556,-7.3242,81,1.4657,1.4617,24.6199,-59.6892,35,0.1661,8081,4.0172,-63.304
lg,1625009857843462170,0,-0.2534,-0.7754,0.4131,712,12.0239,31.311,-18.7988,81,1.4717,1.4637,24.2536,-59.9549,35,0.1671,10234,4.0172,-64.943
lg,1625009857843480781,0,-0.0957,-0.9968,0.5793,713,1.3428,7.6294,-22.2778,81,1.4767,1.4627,22.5739,-60.2363,35,0.1651,8151,4.0172,-65.3027
lg,1625009857843498318,0,0.0049,-1.0669,0.6301,714,-2.0752,-10.9863,-32.5317,81,1.4807,1.4607,20.3474,-60.3746,36,0.1651,8132,4.0172,-65.5633
lg,1625009857843515410,0,0.1736,-1.0518,0.3665,715,27.832,1.77,-57.8613,81,1.4817,1.4607,17.2788,-60.0946,36,0.1631,8192,4.0172,-66.9873
lg,1625009857843532540,0,0.1521,-1.1155,0.5095,716,36.2549,64.9414,-81.665,81,1.4787,1.4547,14.8048,-59.9718,36,0.1631,8270,4.0172,-71.0855
lg,1625009857843549892,0,0.0779,-1.0593,0.4548,717,47.2412,97.229,-86.0596,81,1.4757,1.4467,13.0493,-59.6147,36,0.1621,8257,4.0172,-76.3982
lg,1625009857843567225,0,-0.1062,-0.8777,0.2703,718,69.6411,129.6997,-68.5425,83,1.4747,1.4417,13.0919,-58.7171,35,0.1591,8284,4.0139,-82.5301
lg,1625009857843584651,0,-0.24,-0.7073,0.2878,719,60.1807,142.8223,-15.5029,83,1.4747,1.4387,15.7124,-57.9908,35,0.1621,8268,4.0139,-87.9664
lg,1625009857843601522,0,-0.4187,-0.6682,0.314,720,39.6118,148.8647,8.4839,83,1.4757,1.4397,19.6618,-58.2011,35,0.1641,8284,4.0139,-93.1536
lg,1625009857843618355,0,-0.7227,-0.8352,0.6189,721,-16.4795,91.7969,70.9229,83,1.4757,1.4447,24.5572,-59.3612,35,0.1631,8315,4.0139,-94.9138
lg,1625009857843634985,0,-0.9255,-0.7866,0.4155,722,-34.729,-20.874,115.1733,83,1.4777,1.4487,28.9156,-59.2697,35,0.1571,8323,4.0139,-91.5184
lg,1625009857843652336,0,-0.9558,-0.752,0.426,723,-30.0903,-88.9282,125.6714,83,1.4727,1.4517,31.0061,-55.6123,35,0.1571,8373,4.0139,-82.2347
lg,1625009857843669429,0,-0.6584,-0.679,0.5061,724,-65.2466,-237.3047,180.1758,83,1.4607,1.4527,31.4097,-50.8863,35,0.1561,12825,4.0139,-68.2645
lg,1625009857843686873,0,0.2415,-0.8237,0.3379,725,-80.0781,-369.6899,123.9624,83,1.4587,1.4517,23.94,-47.2587,35,0.1541,8556,4.0139,-52.4941
lg,1625009857843703651,0,0.4341,-1.1226,0.3872,726,-118.103,-379.2114,87.7686,83,1.4587,1.4517,15.4053,-48.8594,36,0.1521,8491,4.0139,-39.3095
lg,1625009857843720114,0,1.0415,-1.5254,0.6406,727,-103.7598,-298.5229,57.6782,83,1.4597,1.4517,7.9169,-51.3956,36,0.1511,8564,4.0139,-28.6181
lg,1625009857843747577,0,0.9648,-1.5334,0.6304,728,-24.1089,-27.4658,0.6714,83,1.4617,1.4527,5.8709,-52.772,36,0.1511,8607,4.0139,-27.7886
lg,1625009857843765448,0,0.7385,-1.1084,0.2268,729,45.4102,146.3013,-23.1934,83,1.4657,1.4557,7.2567,-52.3811,36,0.1551,10896,4.0139,-33.1311
lg,1625009857843782522,0,0.3206,-0.8645,0.1394,730,67.0166,267.5171,-74.0967,83,1.4687,1.4587,10.3926,-52.3368,36,0.1541,8653,4.0139,-43.6489
lg,1625009857843799133,0,-0.269,-0.8679,0.1841,731,57.7393,332.5806,-91.7969,83,1.4737,1.4607,15.6748,-53.981,36,0.1541,8723,4.0139,-56.9587
lg,1625009857843906948,0,-0.5186,-0.8506,0.1689,732,55.603,337.2192,-89.2944,83,1.4767,1.4617,21.2956,-56.9315,36,0.1531,8616,4.0139,-70.9794
lg,1625009857843927077,0,-0.811,-0.79,0.2478,733,60.3638,276.001,-62.439,83,1.4787,1.4617,25.832,-59.6651,36,0.1551,8675,4.0139,-82.8258
lg,1625009857843946151,0,-0.7778,-0.7068,0.3601,734,57.8003,137.146,-57.0679,83,1.4797,1.4607,27.2855,-60.3851,36,0.1541,8687,4.0139,-89.4592
lg,1625009857844022651,0,-0.6504,-0.7283,0.3938,735,27.771,15.2588,-42.4194,83,1.4757,1.4577,26.5397,-60.0021,36,0.1541,8710,4.0139,-91.0061
lg,1625009857844043429,0,-0.5542,-0.7693,0.3687,736,18.9209,-25.8179,-26.8555,83,1.4747,1.4547,25.1023,-58.9074,36,0.1551,8674,4.0139,-89.5095
lg,1625009858205515614,0,-0.3933,-0.9524,0.5444,737,-12.2681,-111.8164,91.1255,83,1.4787,1.4597,25.6024,-56.72,35,0.1571,25982,4.0139,-83.1973
lg,1625009858205555021,0,-0.4126,-0.7612,0.3501,738,-39.0625,-189.27,147.3999,83,1.4727,1.4627,26.2087,-53.949,36,0.1571,10934,4.0139,-72.7029
lg,1625009858205575670,0,-0.1306,-0.6814,0.7153,739,-37.2314,-216.6748,171.2646,83,1.4657,1.4627,25.5417,-49.6228,36,0.1601,7982,4.0139,-60.2774
lg,1625009858205594688,0,0.1277,-0.5818,0.7681,740,-18.7378,-225.8301,137.5122,83,1.4607,1.4597,22.396,-45.9993,36,0.1561,8026,4.0139,-49.0766
lg,1625009858205613688,0,0.3635,-1.0383,0.8818,741,-94.1162,-250.3662,89.2334,83,1.4597,1.4597,16.7097,-46.4474,36,0.1531,8047,4.0139,-38.8594
lg,1625009858205631836,0,0.7324,-1.4231,0.7095,742,-88.0737,-236.2061,38.0859,83,1.4607,1.4587,10.0203,-48.664,35,0.1531,8268,4.0139,-30.8051
lg,1625009858205649799,0,0.8162,-1.4902,0.5654,743,-66.1621,-136.9629,20.5688,83,1.4627,1.4587,7.9533,-50.0756,35,0.1551,8282,4.0139,-29.2916
lg,1625009858205668392,0,0.8301,-1.3032,0.3733,744,22.8271,43.8843,8.7891,83,1.4627,1.4597,7.9227,-50.106,35,0.1591,8117,4.0139,-30.5398
lg,1625009858205685540,0,0.5259,-0.9255,0.3044,745,67.627,197.876,-31.25,83,1.4667,1.4627,11.1179,-49.2853,35,0.1561,11499,4.0139,-37.5894
lg,1625009858205703670,0,0.0063,-0.8247,0.3054,746,62.0117,287.0483,-54.8706,83,1.4717,1.4647,16.3954,-50.1197,36,0.1541,8786,4.0139,-48.1975
lg,1625009858205720614,0,-0.4751,-0.856,0.2856,747,50.4761,302.5513,-72.937,83,1.4757,1.4657,22.0843,-52.8256,36,0.1551,8123,4.0139,-60.3435
lg,1625009858205738521,0,-0.7283,-0.8435,0.4214,748,50.0488,280.5176,-75.3174,83,1.4787,1.4637,25.9083,-55.2298,36,0.1541,8089,4.0139,-70.7204
lg,1625009858205755281,0,-0.709,-0.8169,0.4233,749,56.0913,176.6357,-66.8335,83,1.4797,1.4597,28.0562,-56.9857,36,0.1511,8118,4.0139,-79.0899
lg,1625009858205875188,0,-0.5747,-0.8601,0.4622,750,36.8652,64.6973,-68.1763,83,1.4777,1.4537,27.2426,-57.5971,36,0.1511,8740,4.0139,-83.2914
lg,1625009858205962484,0,-0.4226,-0.9143,0.3813,751,31.8604,-4.7607,-47.3022,83,1.4777,1.4477,25.3955,-57.134,36,0.1511,8885,4.0139,-84.4225
lg,1625009858205983707,0,-0.356,-0.8772,0.248,752,37.1704,-29.0527,-28.3813,83,1.4777,1.4427,23.4832,-56.1657,36,0.1521,8188,4.0139,-84.3303
lg,1625009858206001984,0,-0.2087,-0.7646,0.2585,753,31.0669,-50.1709,17.0898,83,1.4777,1.4427,22.5892,-54.67,36,0.1551,8206,4.0139,-82.3613
lg,1625009858206020021,0,-0.3428,-0.8633,0.635,754,-13.4277,-28.7476,86.4868,83,1.4797,1.4457,24.529,-53.8609,35,0.1571,8177,4.0139,-79.1255
lg,1625009858206037558,0,-0.4041,-0.9158,0.6028,755,-33.02,-30.7617,119.6899,83,1.4827,1.4507,27.2477,-53.3538,35,0.1531,8226,4.0139,-73.6929
lg,1625009858206056021,0,-0.4912,-0.8,0.4441,756,-37.6587,-107.8491,123.3521,83,1.4797,1.4537,28.5971,-51.7306,35,0.1511,8244,4.0139,-66.5576
lg,1625009858206077021,0,-0.5696,-0.7451,0.5505,757,-30.8838,-145.6909,130.127,83,1.4717,1.4567,29.0057,-48.7181,35,0.1531,8389,4.0139,-57.6737
lg,1625009858206094818,0,-0.3489,-0.7795,0.6306,758,-44.3726,-155.0903,148.9868,83,1.4627,1.4557,28.2294,-45.7686,36,0.1551,8312,4.0139,-46.4581
lg,1625009858206112836,0,0.0603,-0.7297,0.7803,759,-59.8755,-245.3613,131.1035,83,1.4597,1.4547,23.722,-42.8725,36,0.1561,8302,4.0139,-34.655
lg,1625009858206136725,0,0.3687,-1.1941,0.7634,760,-98.4497,-265.0146,69.0918,83,1.4587,1.4567,16.5895,-43.9627,36,0.1571,8314,4.0139,-25.0061
lg,1625009858206155595,0,0.8242,-1.3364,0.5349,761,-61.8286,-187.7441,30.3345,83,1.4597,1.4577,10.5555,-45.7507,36,0.1571,8447,4.0139,-18.8917
lg,1625009858206234744,0,0.771,-1.3552,0.5847,762,-38.0859,-78.064,2.2583,83,1.4607,1.4587,9.2698,-46.8326,36,0.1581,9196,4.0139,-19.8988
lg,1625009858206282577,0,0.5552,-1.1499,0.3325,763,25.4517,80.5664,-24.353,83,1.4627,1.4607,9.5008,-47.257,36,0.1591,8841,4.0139,-23.1165
lg,1625009858206302095,0,0.2493,-0.9167,0.3208,764,46.2036,185.791,-53.5278,83,1.4647,1.4637,12.0304,-47.6132,36,0.1581,8869,4.0139,-30.307
lg,1625009858206319577,0,-0.2571,-0.8889,0.3098,765,45.8374,250.7324,-65.1245,83,1.4697,1.4647,16.8733,-49.0516,35,0.1561,9398,4.0139,-40.0028
lg,1625009858206337244,0,-0.604,-0.7976,0.2576,766,51.5137,234.4971,-56.5186,83,1.4737,1.4647,21.9142,-50.7976,35,0.1571,10192,4.0139,-49.375
lg,1625009858206354818,0,-0.6472,-0.6895,0.3931,767,44.1284,132.9346,-43.396,83,1.4777,1.4657,24.5443,-51.5821,35,0.1581,8883,4.0139,-55.1901
lg,1625009858206380466,0,-0.5859,-0.6841,0.3945,768,34.9731,75.5005,-42.4194,83,1.4807,1.4667,24.7348,-51.8155,35,0.1611,8920,4.0139,-57.284
lg,1625009858572547503,0,-0.563,-0.9331,0.5042,769,-9.0942,-58.8379,38.3911,83,1.4837,1.4677,24.5373,-50.7965,35,0.1681,27833,4.0139,-52.7579
lg,1625009858572585317,0,-0.3762,-0.8228,0.4634,770,-15.1367,-138.3667,93.689,83,1.4817,1.4687,23.7464,-48.7985,35,0.1681,8725,4.0139,-45.6367
lg,1625009858572605392,0,-0.0603,-0.7178,0.5811,771,-12.5122,-154.2969,88.1348,83,1.4807,1.4667,21.4385,-46.4979,35,0.1681,7958,4.0139,-38.1773
lg,1625009858572648651,0,0.1028,-0.9778,0.6675,772,-32.1045,-161.9263,56.5186,83,1.4817,1.4667,17.615,-45.9373,35,0.1681,8012,4.0139,-31.7002
lg,1625009858572673317,0,0.498,-1.135,0.6318,773,-41.3818,-162.6587,43.457,83,1.4837,1.4667,12.3967,-46.5111,35,0.1671,9595,4.0139,-26.8888
lg,1625009858572692892,0,0.6274,-1.166,0.6387,774,-26.7334,-110.0464,-15.8081,83,1.4857,1.4677,7.5817,-47.605,36,0.1671,8838,4.0139,-24.1514
lg,1625009858572711929,0,0.7507,-1.0916,0.5828,775,4.6387,-13.855,-62.6831,83,1.4877,1.4677,3.9405,-48.0213,36,0.1661,8689,4.0139,-25.4859
lg,1625009858572730984,0,0.6033,-1.0674,0.4746,776,23.9868,111.8774,-123.23,83,1.4887,1.4657,2.084,-48.0281,36,0.1631,8098,4.0139,-32.1542
lg,1625009858572749003,0,0.3904,-1.1204,0.4019,777,26.062,184.8145,-149.8413,83,1.4847,1.4587,3.4201,-48.3851,36,0.1601,8160,4.0139,-44.0902
lg,1625009858572766373,0,-0.1934,-1.0781,0.0583,778,50.7202,289.2456,-167.6025,83,1.4807,1.4497,6.2933,-48.8731,35,0.1591,8146,4.0139,-57.2789
lg,1625009858572784114,0,-0.571,-0.7312,0.0154,779,96.6187,266.1743,-107.1777,83,1.4787,1.4447,11.3631,-47.8475,35,0.1611,8140,4.0139,-68.2905
lg,1625009858572802040,0,-0.6274,-0.6025,0.1387,780,94.9707,229.9805,-57.4951,83,1.4787,1.4437,17.9122,-47.043,35,0.1621,8155,4.0139,-74.7114
lg,1625009858572819577,0,-0.8699,-0.5679,0.4285,781,33.8135,172.3633,39.6118,83,1.4807,1.4467,24.944,-47.4069,35,0.1641,8136,4.0139,-79.0484
lg,1625009858572837114,0,-1.0754,-0.8528,0.6414,782,-42.1753,71.228,121.582,83,1.4807,1.4557,31.2177,-48.6501,36,0.1611,8862,4.0139,-77.8606
lg,1625009858572853873,0,-1.126,-0.8196,0.4338,783,-49.3774,-125.4883,133.9111,83,1.4777,1.4557,32.5682,-46.4324,36,0.1591,9602,4.0139,-69.4235
lg,1625009858572871892,0,-0.708,-0.6665,0.4419,784,-41.9922,-318.1763,137.085,83,1.4717,1.4577,27.5923,-41.0405,36,0.1601,8290,4.0139,-54.8688
lg,1625009858572889799,0,-0.1689,-0.5386,0.5811,785,-40.8936,-389.5264,133.3008,83,1.4677,1.4577,18.2856,-36.852,36,0.1601,8281,4.0139,-39.8792
lg,1625009858572906651,0,0.3621,-0.8806,0.2878,786,-111.9385,-410.0342,81.7871,83,1.4667,1.4587,6.2124,-39.7827,36,0.1601,8340,4.0139,-27.3186
lg,1625009858572924540,0,0.8882,-1.3586,0.3557,787,-112.9761,-357.7271,45.5933,83,1.4657,1.4577,-4.4017,-45.2144,36,0.1591,8311,4.0139,-16.4405
lg,1625009858572942058,0,0.9478,-1.481,0.4836,788,-81.665,-255.188,20.874,83,1.4657,1.4587,-8.0947,-47.9315,36,0.1571,8377,4.0139,-12.405
lg,1625009858572959188,0,0.687,-1.3037,0.4565,789,13.7329,-8.606,20.6909,83,1.4657,1.4587,-8.4417,-48.2866,36,0.1571,8369,4.0139,-11.4767
lg,1625009858572976669,0,0.2444,-0.8503,0.4438,790,59.5703,133.2397,15.8691,83,1.4657,1.4607,-4.6175,-46.0402,36,0.1591,13173,4.0139,-14.9099
lg,1625009858572994077,0,0.1013,-0.8467,0.3901,791,52.6733,152.6489,17.7002,83,1.4657,1.4617,0.0809,-44.5192,36,0.1621,8403,4.0139,-18.7017
lg,1625009858573011892,0,-0.0706,-0.9377,0.5403,792,47.2412,156.4941,13.855,83,1.4677,1.4627,5.0865,-43.4094,36,0.1631,9028,4.0139,-22.6574
lg,1625009858573029854,0,0.0261,-0.8801,0.4832,793,42.9077,122.4976,-8.728,83,1.4707,1.4637,8.1536,-42.8051,36,0.1631,8432,4.0139,-26.3537
lg,1625009858573061262,0,-0.0071,-0.9304,0.4797,794,38.269,118.3472,-37.3535,83,1.4747,1.4637,10.3051,-42.7538,36,0.1631,8463,4.0139,-30.8367
lg,1625009858573081021,0,-0.0486,-0.9285,0.4775,795,39.1846,125.6104,-41.4429,83,1.4807,1.4627,12.9653,-42.748,36,0.1601,8947,4.0139,-35.9826
lg,1625009858573108447,0,-0.1536,-0.8899,0.4775,796,50.8423,143.6157,-43.6401,83,1.4837,1.4597,15.8263,-42.7966,36,0.1591,8978,4.0139,-41.5047
lg,1625009858573212299,0,-0.2947,-0.8877,0.5356,797,54.5654,146.8506,-57.4341,83,1.4837,1.4537,18.5617,-43.0036,36,0.1581,8545,4.0139,-47.6251
lg,1625009858573237614,0,-0.3823,-0.9053,0.5217,798,49.3164,114.6851,-61.3403,83,1.4817,1.4457,20.2916,-43.4295,36,0.1581,8598,4.0139,-53.0638
lg,1625009858573257762,0,-0.448,-0.8242,0.3572,799,52.2461,92.8955,-52.6733,83,1.4817,1.4387,21.8081,-43.1822,36,0.1611,8634,4.0139,-56.2761
lg,1625009858573278354,0,-0.4038,-0.7776,0.4033,800,51.2085,47.4854,-2.4414,83,1.4807,1.4337,23.2822,-42.436,36,0.1601,8640,4.0139,-58.0276
lg,1625009858946900447,0,-0.5085,-0.887,0.5505,801,-30.6396,-41.4429,121.8872,83,1.4837,1.4467,24.8669,-41.7169,36,0.1601,27463,4.0139,-51.762
lg,1625009858946985780,0,-0.5317,-0.75,0.5439,802,-32.1655,-129.5166,133.8501,83,1.4747,1.4487,24.6854,-40.0148,35,0.1601,8713,4.0139,-43.7609
lg,1625009858947006595,0,-0.459,-0.782,0.5576,803,-44.0063,-159.668,152.832,83,1.4627,1.4497,23.6835,-38.3802,35,0.1581,7984,4.0139,-34.383
lg,1625009858947026502,0,-0.1665,-0.7671,0.7332,804,-52.9175,-195.8618,153.8696,83,1.4567,1.4487,20.694,-36.8788,35,0.1581,7937,4.0139,-24.1096
lg,1625009858947047039,0,0.1589,-0.9238,0.4795,805,-55.6641,-239.502,56.3965,83,1.4547,1.4497,13.4496,-37.7713,35,0.1561,7986,4.0139,-16.5226
lg,1625009858947069299,0,0.564,-1.1948,0.5564,806,-66.1621,-201.1108,35.4004,83,1.4547,1.4507,6.823,-40.2636,36,0.1551,9225,4.0139,-10.4669
lg,1625009858947088502,0,0.5901,-1.2371,0.4968,807,-45.8374,-132.9346,16.1743,83,1.4547,1.4527,4.6008,-41.9994,36,0.1551,8526,4.0139,-9.1681
lg,1625009858947106762,0,0.408,-1.134,0.499,808,5.3711,17.8833,3.7231,83,1.4547,1.4537,4.361,-42.6932,36,0.1541,8016,4.0139,-9.6103
lg,1625009858947125373,0,0.1333,-0.9465,0.5029,809,34.3628,107.2998,-6.0425,83,1.4557,1.4547,6.9008,-42.3661,36,0.1541,8190,4.0139,-12.769
lg,1625009858947145299,0,-0.0171,-0.9009,0.4905,810,38.147,129.6997,-8.9111,83,1.4567,1.4547,10.7649,-42.2228,36,0.1541,8014,4.0139,-16.9866
lg,1625009858947165299,0,-0.2112,-0.8811,0.4407,811,38.7573,142.0898,-11.9019,83,1.4577,1.4547,14.699,-42.4344,36,0.1541,8076,4.0139,-21.4296
lg,1625009858947183743,0,-0.2708,-0.8213,0.3799,812,42.1753,112.915,-12.3901,83,1.4587,1.4557,17.7892,-42.6151,36,0.1541,13133,4.0139,-25.2172
lg,1625009858947201669,0,-0.2563,-0.8083,0.3987,813,40.8325,101.4404,-15.1367,83,1.4597,1.4557,20.2889,-42.9345,36,0.1541,8836,4.0139,-28.868
lg,1625009858947218947,0,-0.27,-0.8103,0.4131,814,40.7715,81.543,-20.1416,83,1.4607,1.4557,21.9992,-43.1885,36,0.1541,8457,4.0139,-32.1684
lg,1625009858947237725,0,-0.3142,-0.8062,0.4573,815,40.0391,66.2231,-22.583,83,1.4617,1.4567,23.1995,-43.3014,36,0.1541,8092,4.0139,-35.1081
lg,1625009858947256243,0,-0.3535,-0.8064,0.5281,816,39.3066,53.4058,-18.2495,83,1.4637,1.4567,24.1186,-43.1035,36,0.1541,8106,4.0139,-37.4867
lg,1625009858947272743,0,-0.3147,-0.7786,0.5154,817,36.0107,15.9302,-20.9351,83,1.4657,1.4577,23.815,-42.6677,35,0.1561,9454,4.0139,-38.8544
lg,1625009858947289725,0,-0.1689,-0.7849,0.5132,818,33.9355,-25.3906,-26.4282,83,1.4687,1.4587,21.8477,-41.9393,35,0.1571,9094,4.0139,-39.1988
lg,1625009858947306947,0,-0.0818,-0.7964,0.4954,819,31.311,-23.2544,-31.9824,83,1.4687,1.4587,19.6781,-41.4831,35,0.1581,8240,4.0139,-39.8076
lg,1625009858947323502,0,-0.1101,-0.8533,0.4941,820,37.3535,6.3477,-33.3862,83,1.4727,1.4597,18.5003,-41.1441,35,0.1591,8268,4.0139,-41.3005
lg,1625009858947340965,0,-0.1599,-0.8682,0.4912,821,39.4287,17.1509,-29.541,83,1.4747,1.4607,18.1187,-40.6585,35,0.1601,8266,4.0139,-43.0955
lg,1625009858947357336,0,-0.179,-0.8394,0.4995,822,47.4854,22.2168,-27.771,83,1.4767,1.4607,17.8025,-39.9641,35,0.1611,8260,4.0139,-44.8242
lg,1625009858947374225,0,-0.2061,-0.8149,0.4832,823,52.9785,15.7471,-20.9961,83,1.4777,1.4617,17.5703,-38.9483,35,0.1621,8693,4.0139,-46.1622
lg,1625009858947421595,0,-0.155,-0.7935,0.4875,824,55.481,11.0474,-13.7329,83,1.4797,1.4617,17.2907,-37.7316,35,0.1611,8369,4.0139,-47.1407
lg,1625009858947441465,0,-0.1208,-0.8052,0.4905,825,57.8003,12.8784,-10.6812,83,1.4807,1.4617,17.091,-36.462,36,0.1611,8703,4.0139,-48.0776
lg,1625009858947457836,0,-0.1208,-0.8115,0.5249,826,61.5234,24.6582,-11.8408,83,1.4827,1.4617,17.2588,-35.1285,36,0.1621,8423,4.0139,-49.3334
lg,1625009858947474410,0,-0.1287,-0.7795,0.5203,827,71.3501,34.729,-12.5122,83,1.4837,1.4627,17.7901,-33.5054,36,0.1621,8837,4.0139,-50.8479
lg,1625009858947491151,0,-0.1338,-0.7009,0.4775,828,81.4819,40.7715,-11.4136,83,1.4837,1.4617,18.6156,-31.5576,36,0.1631,8403,4.0139,-52.4572
lg,1625009858947507817,0,-0.1494,-0.6699,0.4922,829,84.0454,44.3115,-11.3525,83,1.4847,1.4617,19.7074,-29.4616,35,0.1631,9181,4.0139,-54.09
lg,1625009858947524225,0,-0.2129,-0.6636,0.5786,830,78.4302,45.5933,-12.0239,83,1.4837,1.4597,20.872,-27.5905,35,0.1631,8879,4.0139,-55.7397
lg,1625009858947553484,0,-0.2527,-0.7249,0.6143,831,71.9604,23.9868,-10.376,83,1.4847,1.4607,21.3584,-25.9106,35,0.1651,9251,4.0139,-56.9202
lg,1625009858947570891,0,-0.2559,-0.7605,0.6589,832,69.397,-5.5542,-13.855,89,1.4857,1.4607,20.7072,-24.2235,36,0.1661,8900,4.0106,-57.699
lg,1625009859315537660,0,-0.1255,-0.7961,0.6575,833,67.749,-32.7148,-7.5073,89,1.4857,1.4607,18.9345,-22.4899,36,0.1651,26730,4.0106,-57.8223
lg,1625009859315615101,0,-0.0796,-0.8076,0.7175,834,74.4019,-22.7661,-22.2168,89,1.4847,1.4597,17.2622,-20.7216,36,0.1641,15074,4.0106,-58.685
lg,1625009859315637016,0,-0.126,-0.7788,0.8013,835,80.0781,-13.855,-35.4614,89,1.4857,1.4597,15.8929,-18.8047,36,0.1651,9595,4.0106,-60.1671
lg,1625009859315655950,0,-0.1775,-0.7739,0.8237,836,80.4443,-16.0522,-46.2646,89,1.4857,1.4597,14.4959,-16.9789,36,0.1651,8040,4.0106,-62.0541
lg,1625009859315674145,0,-0.2239,-0.7759,0.8455,837,78.9185,-35.9497,-69.8242,89,1.4867,1.4607,12.2608,-15.3589,36,0.1661,7992,4.0106,-64.6465
lg,1625009859315691598,0,-0.2334,-0.7539,0.8469,838,76.2939,-65.7349,-88.6841,89,1.4877,1.4607,8.8571,-13.8315,36,0.1651,8059,4.0106,-67.6731
lg,1625009859315709219,0,-0.1863,-0.7539,0.8506,839,76.6602,-83.4351,-98.4497,89,1.4877,1.4607,4.0882,-12.145,36,0.1631,9322,4.0106,-70.936
lg,1625009859315727839,0,-0.1458,-0.7573,0.8523,840,79.4678,-115.3564,-107.0557,89,1.4887,1.4587,-1.0994,-10.1667,36,0.1631,8083,4.0106,-74.314
lg,1625009859315745996,0,-0.0083,-0.7571,0.8152,841,82.0312,-138.1226,-109.5581,89,1.4897,1.4627,-7.1642,-7.8722,36,0.1641,8105,4.0106,-77.7505
lg,1625009859315764635,0,0.1746,-0.7358,0.7932,842,85.9985,-152.0386,-113.0371,89,1.4907,1.4617,-13.8181,-5.0406,36,0.1641,8361,4.0106,-81.453
lg,1625009859315784643,0,0.2634,-0.7314,0.762,843,88.8062,-148.7427,-114.8071,89,1.4907,1.4627,-20.1265,-1.6456,36,0.1651,8111,4.0106,-85.5313
lg,1625009859315803577,0,0.4304,-0.677,0.7251,844,92.8955,-121.8872,-109.7412,89,1.4907,1.4617,-25.2709,2.4204,36,0.1661,8204,4.0106,-89.8148
lg,1625009859315821013,0,0.5732,-0.6382,0.7336,845,89.7827,-74.1577,-103.3936,89,1.4917,1.4627,-28.3369,6.7024,36,0.1661,8155,4.0106,-94.068
lg,1625009859315839447,0,0.6025,-0.6211,0.7498,846,88.3179,-43.5791,-102.5391,89,1.4917,1.4617,-29.8569,11.0368,36,0.1661,8209,4.0106,-98.2683
lg,1625009859315859844,0,0.5864,-0.5991,0.7341,847,85.8154,24.5361,-101.1963,89,1.4927,1.4627,-28.4395,14.8405,36,0.1661,8312,4.0106,-101.695
lg,1625009859315907653,0,0.5264,-0.6218,0.7632,848,80.9937,85.022,-99.3652,89,1.4927,1.4627,-24.4742,17.6869,36,0.1671,8256,4.0106,-104.0272
