name,time,activity,ax,ay,az,batch_val,gx,gy,gz,ibat,index,middle,pitch,roll,temp,thumb,ts,vbat,yaw
lg,1624962852318001773,0,-0.0317,-0.0237,1.064,1,1.3428,-4.2725,15.7471,76,1.5297,1.5307,1.3075,-1.8281,36,0.3001,20893,3.9875,123.7693
lg,1624962852318194773,0,-0.606,-0.804,0.749,2,-43.8232,-20.9961,40.8325,110,1.4457,1.5237,1.6284,-4.9396,36,0.2621,15293,3.9633,125.388
lg,1624962852318224051,0,-0.5601,-0.8894,0.7825,3,-44.6777,-47.4854,39.3677,110,1.4367,1.5247,0.3924,-7.889,36,0.2641,8097,3.9633,127.1186
lg,1624962852318247532,0,-0.2766,-0.7383,0.7693,4,-15.2588,-106.8115,9.4604,110,1.4287,1.5237,-3.1975,-9.8089,36,0.2631,8619,3.9633,128.1335
lg,1624962852318272569,0,-0.2534,-0.8296,0.6428,5,-33.2642,-96.0693,-4.6387,110,1.4267,1.5227,-6.3626,-12.6712,36,0.2631,8681,3.9633,128.7733
lg,1624962852318302477,0,-0.3354,-0.7219,0.3391,6,-6.6528,-62.3169,-1.3428,110,1.4197,1.5217,-7.7689,-14.662,36,0.2631,9480,3.9633,129.4848
lg,1624962852318326403,0,-0.3992,-0.6775,0.519,7,1.3428,-6.0425,26.7334,110,1.4237,1.5227,-6.5438,-16.0132,36,0.2641,10058,3.9633,130.7486
lg,1624962852318346866,0,-0.2578,-0.7153,0.6501,8,-1.2817,-18.2495,40.7104,110,1.4247,1.5227,-5.977,-17.4118,36,0.2651,8902,3.9633,132.6526
lg,1624962852318369273,0,-0.1606,-0.8079,0.7007,9,-1.5259,-14.9536,37.4756,110,1.4277,1.5227,-4.9507,-18.6056,36,0.2661,8943,3.9633,133.9146
lg,1624962852318394866,0,-0.095,-0.8728,0.7849,10,8.9722,31.6162,20.6909,110,1.4337,1.5197,-3.1364,-19.3829,36,0.2661,8657,3.9633,134.3794
lg,1624962852318413884,0,-0.2053,-0.8623,0.9473,11,16.4795,65.7349,-11.9019,110,1.4387,1.5197,-0.3543,-19.5526,36,0.2671,8977,3.9633,133.0992
lg,1624962852318434273,0,-0.2314,-0.8672,0.8188,12,42.0532,68.1763,-26.6113,110,1.4477,1.5127,2.3037,-18.9168,36,0.2541,8623,3.9633,131.203
lg,1624962852318453458,0,-0.4392,-0.8774,0.4248,13,30.7617,46.1426,-49.8047,110,1.4627,1.5067,4.261,-19.3014,36,0.2441,9058,3.9633,128.6502
lg,1624962852318474328,0,-0.4482,-0.8169,0.2781,14,23.9868,1.2207,-44.1895,110,1.4677,1.5047,4.4435,-20.3759,36,0.2431,9050,3.9633,128.0125
lg,1624962852318496143,0,-0.207,-0.6572,0.4004,15,-16.1133,-11.7188,15.7471,110,1.4657,1.5047,4.6886,-22.3137,36,0.2551,9045,3.9633,128.6592
lg,1624962852318520458,0,-0.1851,-0.845,0.5994,16,-46.0815,37.8418,28.8696,110,1.4557,1.5107,6.7725,-25.3023,36,0.2591,9319,3.9633,128.9994
lg,1624962852318540384,0,-0.5159,-0.812,0.6169,17,-49.4385,57.1899,31.1279,110,1.4487,1.5137,10.1651,-28.2024,36,0.2631,9097,3.9633,128.9472
lg,1624962852318565569,0,-0.752,-0.8862,0.7246,18,-55.0537,6.5918,27.2217,110,1.4417,1.5177,11.8407,-30.9765,36,0.2631,9170,3.9633,129.6256
lg,1624962852318591828,0,-0.5554,-0.8545,1.0386,19,-57.4341,-84.7168,13.9771,110,1.4307,1.5177,9.6972,-33.1425,36,0.2661,9181,3.9633,131.8718
lg,1624962852318617791,0,-0.4365,-0.6553,0.1235,20,-25.8789,-140.7471,-6.3477,110,1.4227,1.5147,5.0144,-34.0865,36,0.2671,9221,3.9633,134.9225
lg,1624962852318645495,0,-0.2249,-0.7598,0.5906,21,-45.7153,-145.3857,-7.2632,110,1.4177,1.5137,0.4492,-36.7279,36,0.2671,9183,3.9633,137.9721
lg,1624962852318734440,0,-0.3062,-0.8413,0.1787,22,-18.5547,-97.6562,0.1831,110,1.4137,1.5127,-1.8678,-38.9029,36,0.2671,9151,3.9633,140.3544
lg,1624962852318760828,0,-0.001,-0.8799,0.5667,23,10.8032,-49.6826,40.2222,110,1.4147,1.5157,-2.316,-39.2685,36,0.2691,9346,3.9633,142.8816
lg,1624962852318779328,0,0.093,-0.7615,0.5884,24,15.0757,-10.1929,26.7944,110,1.4147,1.5177,-2.0812,-39.2091,36,0.2701,9298,3.9633,143.9897
lg,1624962852318807773,0,-0.1719,-0.8271,0.5203,25,12.085,53.7109,1.2207,110,1.4197,1.5197,0.073,-39.408,36,0.2721,9580,3.9633,142.6889
lg,1624962852318841569,0,-0.416,-0.8193,0.6768,26,16.7236,65.1855,-4.4556,110,1.4247,1.5187,2.7919,-39.1813,36,0.2741,9296,3.9633,140.8986
lg,1624962852318899754,0,-0.499,-0.7761,0.6975,27,27.6489,11.4746,-12.3901,110,1.4307,1.5187,3.7161,-38.4239,36,0.2731,9412,3.9633,140.2162
lg,1624962852318924217,0,-0.3069,-0.6736,0.6108,28,40.6494,-66.4673,-13.5498,141,1.4317,1.5157,1.8786,-37.0848,36,0.2691,9168,3.9248,141.4076
lg,1624962852318950977,0,-0.2708,-0.7449,0.4546,29,29.6631,-78.5522,-16.8457,141,1.4367,1.5137,-0.3803,-37.284,36,0.2541,8846,3.9248,142.787
lg,1624962852318992866,0,-0.1138,-0.876,0.4385,30,10.9253,-49.6826,0.4883,141,1.4377,1.5097,-1.6606,-37.8539,36,0.2531,8447,3.9248,144.0233
lg,1624962852319021903,0,-0.1367,-0.8774,0.615,31,-22.1558,-8.7891,19.165,141,1.4347,1.5127,-1.1054,-39.412,36,0.2621,8454,3.9248,144.8564
lg,1624962852319051143,0,-0.3115,-0.6602,0.6958,32,-19.043,18.3105,26.2451,141,1.4327,1.5147,0.868,-40.3167,36,0.2651,8539,3.9248,145.1885
lg,1624962852715374476,0,-0.2849,-0.8518,0.5945,33,-30.8838,-52.2461,38.208,141,1.4307,1.5217,0.6619,-42.0025,36,0.2731,30266,3.9248,147.9729
lg,1624962852715423958,0,-0.0532,-0.7556,0.7649,34,-14.4653,-60.6079,38.3911,141,1.4277,1.5217,-0.0014,-42.6583,36,0.2741,8802,3.9248,150.7404
lg,1624962852715445088,0,-0.1885,-0.7703,0.3564,35,0.061,-33.2642,29.48,141,1.4277,1.5217,0.3285,-43.4901,36,0.2751,7876,3.9248,152.5083
lg,1624962852715465106,0,-0.1875,-0.926,0.761,36,0.7324,-4.1504,18.8599,141,1.4297,1.5227,1.0664,-43.7196,36,0.2761,8197,3.9248,153.1667
lg,1624962852715485143,0,-0.2,-0.9263,0.7317,37,14.2822,-14.0991,7.6294,141,1.4327,1.5227,1.2076,-43.4377,36,0.2771,7899,3.9248,153.7731
lg,1624962852715504884,0,-0.0779,-0.7185,0.5098,38,24.1089,-22.7661,0.7935,141,1.4347,1.5227,-0.1324,-42.6261,36,0.2791,9426,3.9248,154.6984
lg,1624962852715524236,0,-0.1157,-0.7078,0.376,39,18.6157,-49.6826,-18.9209,141,1.4357,1.5227,-1.7697,-42.6325,36,0.2801,8791,3.9248,155.4945
lg,1624962852715543717,0,-0.2605,-0.9329,0.53,40,-18.3716,-1.9531,4.5166,141,1.4317,1.5257,-1.1014,-44.0343,36,0.2781,8345,3.9248,155.6941
lg,1624962852715563069,0,-0.2339,-0.5254,1.0271,41,-13.855,-1.709,-0.061,141,1.4177,1.5227,-0.6601,-43.9292,36,0.2801,8681,3.9248,155.7288
lg,1624962852715584088,0,-0.3726,-0.8643,1.0054,42,-42.0532,-2.8076,-14.8926,141,1.4147,1.5197,-0.5191,-45.4695,36,0.2791,10174,3.9248,155.3768
lg,1624962852715601939,0,-0.5317,-0.854,0.4404,43,-21.3623,-18.6157,-28.8696,141,1.4077,1.5157,-1.1489,-46.4747,36,0.2761,8735,3.9248,155.1017
lg,1624962852715620662,0,-0.4004,-0.8386,0.5386,44,-15.0146,-23.6816,-14.7095,141,1.4027,1.5137,-1.3328,-47.4659,36,0.2721,8461,3.9248,155.3976
lg,1624962852715639254,0,0.0237,-0.7739,0.5337,45,4.5776,-11.2915,22.8271,141,1.4007,1.5137,-0.9676,-47.6052,36,0.2701,8039,3.9248,156.3536
lg,1624962852715657791,0,0.2478,-0.8667,0.7419,46,-1.5869,57.1899,16.9678,141,1.4007,1.5157,0.6206,-47.7245,36,0.2691,8783,3.9248,155.1151
lg,1624962852715694643,0,0.1807,-0.9121,0.7432,47,-5.0049,97.4731,8.9111,141,1.3997,1.5157,3.2914,-48.2736,36,0.2671,8804,3.9248,151.3027
lg,1624962852715726606,0,-0.095,-0.9128,0.5786,48,5.9204,140.686,-32.6538,141,1.3967,1.5177,6.0848,-48.8125,36,0.2651,12428,3.9248,146.1804
lg,1624962852715746106,0,-0.2458,-0.9343,0.6121,49,4.1504,152.8931,-47.9736,141,1.3877,1.5207,8.848,-49.7177,36,0.2641,9163,3.9248,140.2105
lg,1624962852715766088,0,-0.1997,-0.9993,0.7695,50,5.127,142.334,-52.1851,141,1.3717,1.5217,10.3539,-50.4396,36,0.2441,9116,3.9248,134.6168
lg,1624962852715785810,0,-0.3347,-0.9692,0.5601,51,48.645,118.4082,-84.7168,141,1.3947,1.5177,11.0179,-49.9506,36,0.2241,10377,3.9248,128.6477
lg,1624962852715804476,0,-0.4004,-0.907,0.3215,52,69.7632,64.9414,-76.355,141,1.4297,1.5117,9.9285,-47.4096,36,0.2151,9182,3.9248,126.8208
lg,1624962852715822717,0,-0.4353,-0.6355,0.0476,53,120.5444,-36.377,-24.5361,141,1.4497,1.5077,10.9953,-43.599,36,0.2121,9931,3.9248,128.4165
lg,1624962852715840791,0,-0.0955,-0.198,0.1812,54,52.1851,-3.2959,69.2139,141,1.4557,1.5077,13.1006,-41.1998,36,0.2161,9228,3.9248,130.5742
lg,1624962852715859365,0,-0.0002,-0.7664,0.2439,55,-68.3594,29.2969,54.8706,141,1.4547,1.5077,14.997,-44.9218,36,0.2231,9324,3.9248,131.136
lg,1624962852715878884,0,-0.324,-1.2588,0.7295,56,-107.4219,123.7793,57.9224,141,1.4297,1.5127,19.9242,-50.4562,36,0.2321,9318,3.9248,128.7729
lg,1624962852715897439,0,-0.8767,-1.0977,0.5269,57,-44.1284,53.5278,45.2271,141,1.4207,1.5147,23.286,-52.9073,36,0.2371,9330,3.9248,127.9915
lg,1624962852715958550,0,-1.0767,-0.7012,0.6914,58,-57.312,-73.7305,83.4351,141,1.4147,1.5177,25.1153,-52.9975,36,0.2401,9385,3.9248,132.8671
lg,1624962852715991180,0,-0.7222,-0.8838,0.8315,59,-74.9512,-234.1919,111.0229,141,1.3987,1.5187,23.1302,-51.2127,36,0.2461,9856,3.9248,144.0479
lg,1624962852716011476,0,0.1829,-0.8223,1.1462,60,-25.3296,-366.2109,84.4727,141,1.3927,1.5167,15.0324,-47.0061,36,0.2481,9379,3.9248,158.242
lg,1624962852716030310,0,0.615,-0.8613,0.6147,61,-40.8325,-235.7178,56.8237,141,1.3917,1.5167,8.6969,-47.0954,36,0.2491,9533,3.9248,166.791
lg,1624962852716048847,0,0.3591,-0.9946,0.2581,62,-14.3433,-70.1904,7.4463,141,1.3907,1.5177,6.009,-48.3808,36,0.2501,9391,3.9248,168.9453
lg,1624962852716067032,0,0.2898,-0.9294,0.2681,63,26.3062,46.3257,28.2593,141,1.3917,1.5197,7.2223,-48.339,36,0.2521,9451,3.9248,168.2009
lg,1624962852716085291,0,0.0552,-0.7339,0.3198,64,50.9644,136.9629,12.207,141,1.3927,1.5207,10.8019,-47.6013,36,0.2531,9452,3.9248,164.3117
lg,1624962853075964291,0,-0.666,-0.7031,0.6428,65,20.5688,184.6313,9.0332,141,1.4037,1.5207,17.0265,-48.1404,36,0.2601,26881,3.9248,158.9023
lg,1624962853076011291,0,-0.7153,-0.7751,0.7554,66,33.6304,68.0542,10.8643,141,1.4107,1.5217,19.8034,-47.2723,36,0.2611,8725,3.9248,157.117
lg,1624962853076032735,0,-0.4563,-0.9443,0.5066,67,-22.2778,-57.251,19.5923,141,1.4147,1.5227,18.9932,-47.9231,36,0.2691,19233,3.9248,159.287
lg,1624962853076053143,0,-0.406,-0.665,0.6123,68,-9.8877,-55.7861,37.7197,141,1.4137,1.5237,18.8142,-47.3698,36,0.2701,7978,3.9248,162.1186
lg,1624962853076072810,0,-0.3818,-0.6282,0.6597,69,-16.2964,-65.918,38.6963,141,1.4107,1.5247,18.0167,-46.8471,36,0.2701,8011,3.9248,165.3239
lg,1624962853076091235,0,-0.27,-0.8652,0.6741,70,-22.2168,-79.4067,30.0293,141,1.4087,1.5247,16.5693,-46.9538,36,0.2711,8012,3.9248,168.5537
lg,1624962853076108421,0,-0.1799,-1.0522,0.9436,71,-3.7231,-51.8799,19.043,141,1.4087,1.5247,15.3399,-46.5567,36,0.2711,8771,3.9248,170.6587
lg,1624962853076125976,0,-0.26,-0.7893,0.6252,72,14.3433,-53.4668,0.6104,141,1.4107,1.5257,13.8546,-45.758,36,0.2731,8080,3.9248,-188.205
lg,1624962853076143198,0,-0.248,-0.7869,0.6477,73,20.0806,-39.5508,-7.9346,141,1.4137,1.5247,12.5158,-44.923,36,0.2741,8610,3.9248,-187.318
lg,1624962853076161347,0,-0.1038,-0.9109,0.7795,74,26.4282,-43.0298,-27.2217,141,1.4157,1.5257,10.233,-43.9537,36,0.2741,8040,3.9248,-186.9175
lg,1624962853076179217,0,-0.0317,-0.8877,0.6738,75,47.3633,-25.8789,-46.7529,141,1.4127,1.5237,7.8675,-42.5119,36,0.2591,8623,3.9248,-187.6408
lg,1624962853076196347,0,-0.1636,-0.9033,0.4177,76,57.8003,14.8315,-86.4868,141,1.4297,1.5177,6.0758,-41.4289,36,0.2451,8877,3.9248,169.2561
lg,1624962853076213272,0,-0.2893,-0.6482,0.1653,77,54.5654,-30.3955,-60.73,141,1.4417,1.5117,4.2845,-40.5157,36,0.2381,9089,3.9248,168.1031
lg,1624962853076229939,0,-0.2532,-0.5085,0.0178,78,43.1519,-26.9165,-17.5781,141,1.4447,1.5097,3.8649,-39.9916,36,0.2431,8885,3.9248,168.1801
lg,1624962853076246606,0,-0.2244,-0.6658,0.4807,79,-49.3164,34.1797,42.6636,141,1.4327,1.5117,6.4619,-42.4538,36,0.2511,8207,3.9248,168.5145
lg,1624962853076264643,0,-0.5549,-1.0815,0.7917,80,-62.2559,75.1953,65.7959,141,1.4277,1.5167,11.064,-45.3762,36,0.2541,8956,3.9248,168.2515
lg,1624962853076281939,0,-0.761,-0.8752,0.6501,81,-40.5273,-23.9868,73.5474,141,1.4227,1.5197,13.433,-46.657,36,0.2571,8333,3.9248,170.986
lg,1624962853076299532,0,-0.8442,-0.6953,0.6887,82,-42.4805,-67.4438,67.5049,141,1.4127,1.5207,14.6163,-47.3466,36,0.2611,8279,3.9248,-185.0755
lg,1624962853076317347,0,-0.2952,-0.7251,1.4592,83,-54.5044,-186.7065,55.7861,141,1.4057,1.5197,11.0759,-47.0985,36,0.2631,8729,3.9248,-177.6918
lg,1624962853076335772,0,0.0857,-1.0674,0.7429,84,-56.7017,-247.9248,38.7573,141,1.4007,1.5187,5.0285,-48.4892,36,0.2631,8727,3.9248,-169.2899
lg,1624962853076353513,0,0.4287,-0.9453,0.4043,85,-13.6108,-169.4946,20.3857,141,1.3977,1.5177,0.1734,-49.4191,36,0.2631,9128,3.9248,-163.6873
lg,1624962853076371161,0,0.5212,-0.8616,0.3186,86,2.3193,-92.4072,20.3857,141,1.3967,1.5187,-2.7838,-49.8788,36,0.2641,8322,3.9248,-160.3387
lg,1624962853076388810,0,0.4902,-0.8464,0.5308,87,12.5732,100.2808,26.9775,141,1.3987,1.5197,-0.2865,-49.5882,36,0.2651,8734,3.9248,-162.702
lg,1624962853076406513,0,0.0569,-0.8535,0.3992,88,13.7939,182.1289,-4.3945,141,1.4007,1.5207,4.1331,-49.8182,36,0.2671,9074,3.9248,-168.3753
lg,1624962853076423902,0,-0.3472,-0.8574,0.541,89,16.9067,245.5444,-5.127,141,1.4047,1.5217,10.8053,-50.4461,36,0.2691,8749,3.9248,-176.1248
lg,1624962853076442958,0,-0.5398,-0.8335,0.572,90,19.3481,235.4126,-5.7373,141,1.4087,1.5227,16.3076,-51.2729,36,0.2711,8442,3.9248,-182.6745
lg,1624962853076461310,0,-0.7361,-0.7463,0.668,91,18.1885,139.1602,-8.2397,141,1.4107,1.5207,20.2523,-51.9387,36,0.2701,9014,3.9248,-187.4605
lg,1624962853076478884,0,-0.5935,-0.7222,0.6003,92,30.2734,1.4648,1.4038,141,1.4117,1.5197,20.8018,-50.6601,36,0.2591,9393,3.9248,-187.44
lg,1624962853076496013,0,-0.3027,-0.791,0.5034,93,16.3574,-59.9365,13.9771,141,1.4187,1.5207,19.5882,-49.4611,36,0.2531,9377,3.9248,-185.1906
lg,1624962853076524884,0,-0.1106,-0.9353,0.4014,94,3.3569,-51.1475,26.3062,141,1.4237,1.5197,18.4696,-49.2708,36,0.2561,12130,3.9248,-183.0657
lg,1624962853076543847,0,-0.0508,-0.9915,0.5942,95,-21.7896,-12.6343,35.7056,141,1.4217,1.5217,18.6139,-50.0948,36,0.2651,9524,3.9248,-181.8094
lg,1624962853076561384,0,-0.2573,-0.8455,0.5417,96,-27.5879,16.9067,38.9404,141,1.4237,1.5217,20.075,-51.3147,36,0.2671,9139,3.9248,-181.4126
lg,1624962853469706402,0,-0.2617,-0.771,0.6135,97,-9.7046,-61.3403,25.6958,141,1.4127,1.5257,18.9994,-50.8389,36,0.2741,27911,3.9248,-178.7168
lg,1624962853469751439,0,-0.3711,-0.9045,0.3892,98,5.8594,-41.8701,-18.5547,141,1.4127,1.5257,17.4625,-50.932,36,0.2741,9277,3.9248,-178.0337
lg,1624962853469772309,0,-0.4507,-0.8228,0.4761,99,19.6533,-25.9399,-11.2915,141,1.4147,1.5267,16.7766,-50.3128,36,0.2761,8855,3.9248,-177.5868
lg,1624962853469792494,0,-0.1868,-0.8096,0.7009,100,33.3862,-37.2925,3.2959,141,1.4187,1.5257,15.6374,-48.5658,36,0.2761,8864,3.9248,-176.3021
lg,1624962853469811976,0,-0.0483,-0.8591,0.7278,101,22.522,-29.541,-25.9399,141,1.4237,1.5237,13.5615,-47.6554,36,0.2791,9596,3.9248,-176.1201
lg,1624962853469831069,0,-0.1174,-0.8213,0.4604,102,45.9595,-8.9111,-46.0815,141,1.4247,1.5207,11.7284,-46.5562,36,0.2791,10074,3.9248,-177.2579
lg,1624962853469850328,0,-0.2173,-0.7671,0.3718,103,45.8374,-9.2163,-54.9316,141,1.4277,1.5167,10.0141,-45.6353,36,0.2731,8572,3.9248,-178.6695
lg,1624962853469868791,0,-0.3965,-0.6919,0.2668,104,19.4092,13.1836,-22.522,141,1.4317,1.5167,10.4664,-45.8371,36,0.2741,8959,3.9248,-179.8304
lg,1624962853469886124,0,-0.395,-0.8889,0.5391,105,-29.541,25.8179,27.0386,141,1.4327,1.5187,12.3696,-47.493,36,0.2791,8976,3.9248,-179.9353
lg,1624962853469903272,0,-0.5579,-0.9373,0.8501,106,-33.7524,18.0664,42.6025,141,1.4357,1.5217,14.5621,-48.6968,36,0.2801,8983,3.9248,-179.3264
lg,1624962853469921420,0,-0.571,-0.7747,0.6396,107,-23.2544,-77.5146,40.7104,141,1.4317,1.5237,14.3402,-48.7973,36,0.2811,8991,3.9248,-175.8206
lg,1624962853469941550,0,-0.5264,-0.7234,0.5403,108,-23.8647,-120.7275,34.9121,141,1.4257,1.5257,12.0736,-48.8002,36,0.2831,9034,3.9248,-170.3554
lg,1624962853469961680,0,-0.0942,-0.7991,0.8105,109,-35.9497,-162.9639,49.8047,141,1.4197,1.5247,9.0195,-48.8955,36,0.2841,9051,3.9248,-163.9925
lg,1624962853469980457,0,0.301,-0.9404,0.4419,110,-27.0996,-166.4429,42.8467,141,1.4167,1.5247,6.1515,-49.953,36,0.2851,11098,3.9248,-159.5756
lg,1624962853469999124,0,0.3442,-0.9473,0.5234,111,-0.7324,27.4048,14.5264,141,1.4187,1.5257,6.3812,-50.4436,36,0.2851,13987,3.9248,-160.0943
lg,1624962853470018828,0,0.0884,-0.9404,0.6978,112,8.0566,109.314,3.2349,141,1.4217,1.5257,8.8177,-50.6691,36,0.2871,9054,3.9248,-163.4364
lg,1624962853470036180,0,-0.1396,-0.9053,0.6025,113,10.498,104.4922,-21.4233,141,1.4257,1.5267,10.7122,-51.1167,36,0.2891,9168,3.9248,-167.3127
lg,1624962853470054513,0,-0.2986,-0.7893,0.4878,114,28.3203,89.9658,-27.71,141,1.4297,1.5267,12.3807,-50.9645,36,0.2901,9120,3.9248,-170.931
lg,1624962853470072439,0,-0.4863,-0.7451,0.2083,115,26.7944,54.0161,-26.9775,141,1.4327,1.5267,13.5107,-51.7014,36,0.2921,9562,3.9248,-172.9269
lg,1624962853470090402,0,-0.4971,-0.9097,0.616,116,-13.1226,40.3442,2.9297,141,1.4337,1.5287,15.3667,-53.0737,36,0.2951,9751,3.9248,-173.2192
lg,1624962853470108680,0,-0.5049,-0.8633,0.6416,117,-24.292,-4.9438,32.4707,141,1.4287,1.5287,16.69,-53.5283,36,0.2951,9215,3.9248,-172.184
lg,1624962853470126106,0,-0.2917,-0.6418,1.0139,118,-23.7427,-46.0205,26.9165,141,1.4227,1.5247,16.378,-53.0013,36,0.2951,9223,3.9248,-169.7286
lg,1624962853470143457,0,-0.3513,-0.8513,0.5413,119,-24.292,-87.7075,-10.9863,141,1.4197,1.5267,14.0518,-53.4411,36,0.2921,9292,3.9248,-167.1292
lg,1624962853470162569,0,-0.1772,-0.9111,0.5637,120,-12.4512,-92.9565,-10.9863,141,1.4117,1.5257,11.317,-53.504,36,0.2901,9322,3.9248,-164.3727
lg,1624962853470179698,0,0.0718,-0.8848,0.5605,121,-4.5776,-54.9927,3.7231,141,1.4127,1.5247,9.5396,-53.4989,36,0.2901,9291,3.9248,-162.5136
lg,1624962853470197198,0,0.1472,-0.8213,0.3999,122,6.5308,15.2588,3.6011,141,1.4127,1.5247,9.2909,-53.7101,36,0.2901,8954,3.9248,-162.9945
lg,1624962853470214957,0,0.0906,-0.8643,0.4971,123,6.1646,56.2134,4.6387,141,1.4137,1.5257,11.0966,-54.1462,36,0.2901,9005,3.9248,-165.8196
lg,1624962853470232698,0,0.0105,-0.9087,0.5835,124,9.4604,114.7461,6.4087,141,1.4157,1.5267,13.4953,-54.6655,36,0.2911,9010,3.9248,-169.5151
lg,1624962853470249994,0,-0.1047,-0.9138,0.6348,125,18.9209,125.9155,-5.4932,141,1.4137,1.5287,15.8695,-55.0335,36,0.2881,9419,3.9248,-173.9111
lg,1624962853470268124,0,-0.1279,-0.8923,0.7529,126,23.1934,107.2998,-25.2075,141,1.3997,1.5257,17.1031,-55.0956,36,0.2721,9408,3.9248,-178.1252
lg,1624962853470285032,0,-0.1289,-0.9453,0.6335,127,42.2363,86.5479,-54.8096,141,1.4207,1.5197,16.8652,-54.6936,36,0.2411,10433,3.9248,-182.4165
lg,1624962853470306624,0,-0.2668,-0.9275,0.2419,128,51.3916,27.8931,-56.7017,141,1.4397,1.5097,15.3109,-53.1168,36,0.2271,11413,3.9248,-182.9416
lg,1624962853857866568,0,-0.3909,-1.135,0.926,129,-79.3457,86.3037,63.5986,141,1.4257,1.5137,19.8985,-56.1653,36,0.2471,28315,3.9248,-184.0769
lg,1624962853857910383,0,-0.8899,-0.7214,0.4895,130,-38.0859,-55.1147,69.0918,141,1.4207,1.5187,21.9577,-56.3739,36,0.2531,11994,3.9248,-180.4664
lg,1624962853857931087,0,-0.8369,-0.7485,0.6958,131,-70.5566,-135.498,97.9614,141,1.4127,1.5207,22.9042,-56.1067,36,0.2571,8910,3.9248,-173.1185
lg,1624962853857950809,0,-0.5635,-0.9307,0.9343,132,-85.6323,-194.7021,102.7832,141,1.4057,1.5197,19.1513,-53.7128,36,0.2611,8500,3.9248,-161.4769
lg,1624962853857970513,0,0.0122,-0.9834,0.4595,133,-24.4751,-292.4194,70.5566,141,1.4007,1.5187,13.6191,-51.9013,36,0.2631,8858,3.9248,-150.1807
lg,1624962853857989216,0,0.5227,-1.0952,0.7942,134,-46.9971,-199.4019,36.0107,90,1.3987,1.5187,8.5985,-52.4252,36,0.2651,10199,3.9732,-142.8815
lg,1624962853858007809,0,0.3545,-0.9585,0.176,135,-4.5776,-40.4663,15.0757,90,1.3967,1.5187,7.0534,-53.3486,36,0.2661,10091,3.9732,-141.3511
lg,1624962853858027216,0,0.2349,-0.9224,0.3384,136,20.752,94.7266,19.4092,90,1.3977,1.5207,9.1322,-53.5104,36,0.2681,8910,3.9732,-144.0429
lg,1624962853858045661,0,-0.1685,-0.7852,0.3037,137,29.3579,161.377,6.4697,90,1.3997,1.5217,13.2273,-53.9263,36,0.2701,8940,3.9732,-149.2905
lg,1624962853858063661,0,-0.4695,-0.6958,0.4468,138,23.3154,161.2549,13.0615,90,1.4027,1.5227,18.0291,-54.4854,36,0.2721,8950,3.9732,-154.4384
lg,1624962853858081216,0,-0.6016,-0.8042,0.5925,139,17.8833,131.7139,13.7329,90,1.4077,1.5237,20.9403,-54.6592,36,0.2731,8991,3.9732,-157.1116
lg,1624962853858099309,0,-0.5024,-0.8022,0.6682,140,27.2827,34.1187,10.376,90,1.4137,1.5227,22.2539,-53.7278,36,0.2721,8998,3.9732,-157.9762
lg,1624962853858117235,0,-0.1912,-0.894,0.6018,141,43.9453,-31.311,0.9766,90,1.4217,1.5187,21.0486,-51.6568,36,0.2661,9029,3.9732,-156.9193
lg,1624962853858134605,0,-0.1157,-0.9082,0.437,142,33.3862,-54.8096,-9.0332,90,1.4277,1.5187,18.8472,-50.3039,36,0.2661,8991,3.9732,-155.5381
lg,1624962853858152013,0,-0.0945,-0.791,0.2646,143,0.3052,-30.0903,19.5923,90,1.4297,1.5187,18.248,-50.6613,36,0.2731,11753,3.9732,-154.3079
lg,1624962853858170846,0,-0.345,-0.7297,0.5681,144,-33.6914,22.3999,47.1191,90,1.4267,1.5217,20.3555,-51.8816,36,0.2771,9062,3.9732,-153.8197
lg,1624962853858188531,0,-0.519,-0.7351,0.5054,145,-56.4575,-17.1509,67.3218,90,1.4147,1.5247,22.4625,-53.4009,36,0.2781,9165,3.9732,-151.5308
lg,1624962853858206216,0,-0.5244,-0.7959,0.842,146,-59.8755,-55.1147,70.8618,90,1.4057,1.5247,23.5284,-53.9173,36,0.2811,9153,3.9732,-147.6244
lg,1624962853858223939,0,-0.3235,-1.04,0.8474,147,-24.1699,-88.0737,47.1802,90,1.4007,1.5237,22.5659,-53.0549,36,0.2811,9184,3.9732,-143.2712
lg,1624962853858240642,0,-0.126,-1.1331,0.7715,148,-39.917,-82.2754,35.8276,90,1.3987,1.5237,20.1664,-52.0725,36,0.2811,9225,3.9732,-139.729
lg,1624962853858257735,0,0.0068,-0.9514,0.6519,149,14.4653,-84.5337,4.8218,90,1.3977,1.5237,17.4249,-50.6919,36,0.2821,8886,3.9732,-136.8645
lg,1624962853858279772,0,0.2163,-0.8591,0.4395,150,25.4517,-48.2178,-3.1738,90,1.3997,1.5247,14.9793,-49.7489,36,0.2831,9214,3.9732,-135.5583
lg,1624962853858298735,0,0.1599,-0.8743,0.3684,151,30.7617,52.4292,-19.5312,90,1.4057,1.5267,14.8104,-49.7645,36,0.2851,9258,3.9732,-137.9192
lg,1624962853858316439,0,-0.2839,-0.8987,0.4604,152,32.6538,153.9917,-43.8843,90,1.4147,1.5267,17.4231,-50.6604,36,0.2891,9496,3.9732,-144.1475
lg,1624962853858333124,0,-0.5071,-0.7646,0.5652,153,58.0444,133.1787,-47.3633,90,1.4257,1.5247,19.7491,-50.2265,36,0.2881,8380,3.9732,-149.7808
lg,1624962853858349679,0,-0.5803,-0.7812,0.4353,154,56.7017,88.7451,-52.2461,90,1.4327,1.5217,19.6534,-49.2297,36,0.2801,8756,3.9732,-152.3794
lg,1624962853858366791,0,-0.4321,-0.7139,0.3538,155,54.8706,-1.1597,-33.5083,90,1.4397,1.5157,18.9865,-47.8534,36,0.2641,8557,3.9732,-153.4494
lg,1624962853858383957,0,-0.1606,-0.7271,0.3264,156,19.4092,-19.3481,0.1221,90,1.4427,1.5167,18.2046,-47.5982,36,0.2591,9175,3.9732,-153.0751
lg,1624962853858400809,0,-0.031,-0.905,0.4509,157,-10.9253,17.9443,19.4702,90,1.4457,1.5167,18.6385,-48.6824,36,0.2691,8805,3.9732,-153.2921
lg,1624962853858417346,0,-0.3875,-0.9583,0.5981,158,-28.3813,87.7075,22.583,90,1.4447,1.5187,21.5886,-50.9435,36,0.2721,8905,3.9732,-155.6501
lg,1624962853858434216,0,-0.614,-0.9216,0.5669,159,-28.3813,87.5244,32.5317,90,1.4427,1.5227,25.0616,-53.1924,36,0.2761,8507,3.9732,-157.9011
lg,1624962853858464976,0,-0.8547,-0.7776,0.6541,160,-38.5742,-9.0942,43.6401,90,1.4337,1.5257,26.8326,-53.9626,36,0.2781,8918,3.9732,-156.3766
lg,1624962854231608272,0,0.2029,-0.8118,0.4917,161,-23.1934,-203.5522,11.3525,90,1.4107,1.5217,20.9194,-52.0923,36,0.2821,29288,3.9732,-149.0795
lg,1624962854231668587,0,0.062,-0.9619,0.2517,162,-6.0425,-15.8081,-26.5503,90,1.4097,1.5217,18.8111,-53.3161,36,0.2821,13269,3.9732,-149.5556
lg,1624962854231761827,0,0.042,-0.9443,0.4124,163,22.7051,65.3076,-5.8594,90,1.4107,1.5237,19.3598,-53.718,36,0.2831,10346,3.9732,-152.1024
lg,1624962854231797735,0,-0.0925,-0.8591,0.5181,164,31.8604,120.9717,-9.8877,90,1.4137,1.5247,21.3118,-54.1899,36,0.2851,8787,3.9732,-156.5978
lg,1624962854231827142,0,-0.1792,-0.8062,0.5364,165,30.1514,136.5356,-9.6436,90,1.4177,1.5257,23.7059,-55.0044,36,0.2861,7947,3.9732,-161.6929
lg,1624962854231855253,0,-0.3586,-0.8401,0.5461,166,19.7754,125.061,-14.1602,90,1.4217,1.5257,25.872,-56.341,36,0.2871,8689,3.9732,-166.629
lg,1624962854231883605,0,-0.4819,-0.8354,0.6069,167,24.7803,69.7021,-20.3857,90,1.4237,1.5257,26.6812,-56.6167,36,0.2861,9665,3.9732,-169.6807
lg,1624962854231911198,0,-0.3391,-0.7371,0.4756,168,47.0581,-14.7095,-7.6904,90,1.4227,1.5257,25.8736,-54.5948,36,0.2741,8971,3.9732,-169.3395
lg,1624962854231938420,0,-0.2087,-0.8081,0.4783,169,39.7339,-33.7524,-3.8452,90,1.4257,1.5237,24.5765,-53.2,36,0.2671,8014,3.9732,-168.3028
lg,1624962854231964198,0,-0.1699,-0.8252,0.3911,170,16.2354,-28.3813,11.4136,90,1.4287,1.5227,23.7228,-52.4967,36,0.2661,8741,3.9732,-167.2104
lg,1624962854231989531,0,-0.1497,-0.9346,0.5518,171,-20.752,-11.4746,35.4614,90,1.4327,1.5247,23.9547,-53.0674,36,0.2791,8018,3.9732,-165.9884
lg,1624962854232016068,0,-0.3044,-0.9438,0.6882,172,-39.1846,11.7798,55.1758,90,1.4337,1.5257,25.632,-54.2215,36,0.2821,8046,3.9732,-164.9771
lg,1624962854232042142,0,-0.457,-0.748,0.572,173,-38.5742,-6.7139,59.3872,90,1.4237,1.5287,26.9984,-54.8177,36,0.2821,8826,3.9732,-162.4296
lg,1624962854232067587,0,-0.3057,-0.7944,0.9446,174,-59.6313,-63.1104,68.1152,90,1.4167,1.5287,27.289,-54.686,36,0.2861,8911,3.9732,-158.0537
lg,1624962854232098753,0,-0.1084,-0.946,0.5999,175,-22.4609,-112.793,44.9219,90,1.4127,1.5277,25.2671,-53.3747,36,0.2861,8881,3.9732,-152.8658
lg,1624962854232128161,0,0.0137,-1.053,0.8972,176,-44.1284,-104.9194,34.5459,90,1.4117,1.5277,22.9113,-53.5008,36,0.2871,8162,3.9732,-148.3732
lg,1624962854232155494,0,-0.001,-0.9272,0.5205,177,5.7983,-64.5752,1.0986,90,1.4127,1.5287,20.5292,-52.7313,36,0.2871,8999,3.9732,-146.2395
lg,1624962854232208253,0,0.1077,-0.9114,0.676,178,20.9351,-14.2212,-4.5776,90,1.4167,1.5277,19.042,-51.7947,36,0.2891,10599,3.9732,-145.8962
lg,1624962854232239587,0,0.0815,-0.8901,0.5073,179,25.5737,29.6631,-37.1094,90,1.4227,1.5267,17.7027,-51.7321,36,0.2911,9227,3.9732,-147.9606
lg,1624962854232266179,0,-0.1816,-0.9304,0.4927,180,27.5879,98.4497,-60.4858,90,1.4297,1.5227,17.8892,-52.5183,36,0.2951,9018,3.9732,-152.9102
lg,1624962854232309013,0,-0.4526,-0.7986,0.3062,181,58.8989,70.5566,-58.4106,90,1.4317,1.5177,18.1766,-51.9486,36,0.2891,9041,3.9732,-156.9392
lg,1624962854232335383,0,-0.5698,-0.5444,0.1985,182,59.1431,49.8657,-50.6592,90,1.4347,1.5137,18.7932,-51.3481,36,0.2821,8676,3.9732,-158.7102
lg,1624962854232361290,0,-0.4871,-0.6086,0.1909,183,12.146,-7.3242,0,90,1.4377,1.5147,19.3687,-51.4648,36,0.2851,9081,3.9732,-158.6872
lg,1624962854232387013,0,-0.4067,-1.0286,0.6089,184,-44.9219,-5.3101,45.5322,90,1.4367,1.5187,20.6558,-53.0919,36,0.2911,8293,3.9732,-157.4269
lg,1624962854232433975,0,-0.564,-0.9524,0.739,185,-28.5034,-28.5645,56.7017,90,1.4347,1.5227,21.9596,-53.2933,36,0.2951,8835,3.9732,-154.9722
lg,1624962854232460809,0,-0.5923,-0.6602,0.5034,186,-22.522,-127.9907,51.1475,90,1.4277,1.5247,21.0299,-52.0598,36,0.2951,8428,3.9732,-149.2397
lg,1624962854232487457,0,-0.3645,-0.6414,0.8225,187,-32.7759,-164.3066,54.1992,90,1.4217,1.5247,18.5823,-50.4613,36,0.2951,8445,3.9732,-142.1431
lg,1624962854232513438,0,-0.043,-0.9863,0.4822,188,-34.4849,-221.6187,45.7764,90,1.4167,1.5227,13.7418,-50.066,36,0.2951,9250,3.9732,-134.0107
lg,1624962854232540864,0,0.4309,-0.978,0.5232,189,-21.9116,-194.2749,44.6777,90,1.4147,1.5237,8.8566,-49.9497,36,0.2951,8967,3.9732,-126.8813
lg,1624962854232568290,0,0.5171,-0.9119,0.5188,190,-0.5493,-42.9077,24.292,90,1.4147,1.5247,7.2016,-50.0557,36,0.2941,9239,3.9732,-124.9803
lg,1624962854232598364,0,0.4646,-0.9829,0.7087,191,9.0942,61.2183,15.564,90,1.4167,1.5247,8.1687,-50.0368,36,0.2961,8831,3.9732,-126.4975
lg,1624962854232625568,0,0.2598,-0.9507,0.5149,192,15.1978,96.1304,-5.0659,90,1.4217,1.5267,10.5883,-50.6506,36,0.2981,9281,3.9732,-131.313
lg,1624962854630702846,0,-0.4458,-0.803,0.5579,193,42.0532,149.7803,-34.0576,90,1.4337,1.5227,12.7864,-50.1558,36,0.2731,27911,3.9732,-135.5942
lg,1624962854630741327,0,-0.4666,-0.7358,0.2312,194,36.1328,-0.3662,-24.5972,90,1.4407,1.5197,13.3475,-49.9467,36,0.2611,11013,3.9732,-135.3229
lg,1624962854630761957,0,-0.1782,-0.8318,0.3027,195,-7.2021,1.4648,37.3535,90,1.4387,1.5187,14.4824,-50.785,36,0.2761,8019,3.9732,-134.571
lg,1624962854630781809,0,-0.2314,-1.0881,0.6758,196,-40.5884,51.0254,62.0728,90,1.4377,1.5207,17.5152,-52.7088,36,0.2811,7903,3.9732,-134.7179
lg,1624962854630800475,0,-0.626,-0.8022,0.5635,197,-23.8647,24.1089,58.8379,90,1.4377,1.5247,20.5537,-53.5065,36,0.2831,8320,3.9732,-134.0695
lg,1624962854630818327,0,-0.7795,-0.584,0.4512,198,-22.4609,-28.9307,57.9834,90,1.4307,1.5257,22.7227,-53.4373,36,0.2861,7938,3.9732,-131.5675
lg,1624962854630836049,0,-0.7412,-0.7556,0.6892,199,-59.8145,-119.9951,69.397,90,1.4217,1.5267,22.6222,-53.3043,36,0.2891,9402,3.9732,-125.5127
lg,1624962854630854031,0,-0.1624,-1.0022,0.7017,200,-22.0947,-239.3799,45.166,90,1.4177,1.5267,17.6322,-51.0742,36,0.2871,7978,3.9732,-116.3207
lg,1624962854630892735,0,0.3755,-1.0862,0.771,201,-32.2266,-222.7173,28.2593,90,1.4127,1.5267,11.6654,-50.4982,36,0.2871,8795,3.9732,-108.5049
lg,1624962854630912790,0,0.4478,-1.002,0.4514,202,8.3008,-160.6445,9.5825,90,1.4117,1.5237,6.6228,-49.8769,36,0.2881,8047,3.9732,-103.377
lg,1624962854630932549,0,0.5154,-0.9094,0.5054,203,13.916,-14.2822,-4.2725,90,1.4127,1.5267,4.8935,-49.6708,36,0.2891,8075,3.9732,-103.0982
lg,1624962854630951642,0,0.2954,-0.8855,0.436,204,23.6206,41.8701,-10.0098,90,1.4157,1.5267,5.9562,-49.5362,36,0.2901,8040,3.9732,-106.9122
lg,1624962854630969401,0,0.0605,-0.8877,0.3894,205,19.043,159.9121,-37.3535,90,1.4187,1.5257,8.5451,-50.1692,36,0.2921,8071,3.9732,-112.8802
lg,1624962854630986901,0,-0.3853,-0.9287,0.4683,206,22.0947,206.543,-43.7012,90,1.4227,1.5247,12.8634,-51.1916,36,0.2931,8095,3.9732,-120.5817
lg,1624962854631004660,0,-0.6885,-0.6233,0.4417,207,34.729,170.5933,-45.6543,90,1.4247,1.5237,15.5858,-50.5288,36,0.2961,8099,3.9732,-125.2728
lg,1624962854631023253,0,-0.6382,-0.447,0.561,208,47.9736,75.8057,-21.2402,90,1.4267,1.5227,17.8828,-49.0942,36,0.2921,8142,3.9732,-128.1488
lg,1624962854631040660,0,-0.5205,-0.7583,0.5312,209,5.7983,-4.8218,6.0425,90,1.4287,1.5207,18.3899,-48.9653,36,0.2891,8913,3.9732,-127.8899
lg,1624962854631057920,0,-0.292,-0.9048,0.6428,210,5.0659,-34.8511,28.5645,90,1.4317,1.5207,18.1873,-48.3827,36,0.2791,8770,3.9732,-126.0616
lg,1624962854631075216,0,-0.1799,-0.9314,0.6953,211,1.8921,-37.8418,36.3159,90,1.4357,1.5197,17.8842,-47.9285,36,0.2751,8557,3.9732,-124.0284
lg,1624962854631092383,0,-0.0515,-0.9221,0.6663,212,-3.54,-26.8555,35.8276,90,1.4367,1.5187,17.6304,-47.7532,36,0.2721,8235,3.9732,-122.2615
lg,1624962854631109827,0,0.0068,-0.8984,0.6157,213,-4.5776,3.418,36.1328,90,1.4407,1.5187,18.0927,-47.9692,36,0.2701,9054,3.9732,-121.4482
lg,1624962854631127309,0,0.0454,-0.8818,0.8718,214,-5.4932,47.7905,29.7852,90,1.4457,1.5147,19.4605,-48.2797,36,0.2631,10651,3.9732,-122.0792
lg,1624962854631157142,0,-0.0042,-0.9529,0.7568,215,4.3945,57.7393,1.2207,90,1.4507,1.5107,20.2637,-48.8436,36,0.2541,8674,3.9732,-123.9309
lg,1624962854631176031,0,-0.1123,-0.9053,0.4849,216,5.9814,54.8706,-21.0571,90,1.4537,1.5077,20.507,-49.9572,36,0.2541,9939,3.9732,-126.4771
lg,1624962854631193142,0,-0.2122,-1.0591,0.5181,217,-22.644,76.0498,-3.6621,90,1.4527,1.5077,21.8948,-52.3813,36,0.2721,9106,3.9732,-129.3156
lg,1624962854631210494,0,-0.5283,-1.0059,0.4146,218,-34.8511,81.9092,-4.3335,90,1.4517,1.5127,23.8419,-55.506,36,0.2751,9285,3.9732,-132.526
lg,1624962854631227401,0,-0.7231,-0.7295,0.5684,219,-25.7568,10.0708,10.6201,90,1.4437,1.5177,24.9695,-56.4488,36,0.2731,9184,3.9732,-132.584
lg,1624962854631244346,0,-0.6826,-0.8328,0.6555,220,-37.2314,-113.0371,-3.7231,90,1.4277,1.5197,22.6638,-56.1241,36,0.2721,9160,3.9732,-128.4744
lg,1624962854631274586,0,-0.1621,-0.8508,0.7581,221,-28.5034,-213.1958,-5.127,90,1.4197,1.5197,17.1135,-54.4341,36,0.2731,8452,3.9732,-121.0224
lg,1624962854631292679,0,-0.0276,-0.7559,-0.0779,222,-0.1221,-213.9893,-17.2729,90,1.4127,1.5167,11.184,-54.3227,36,0.2731,9527,3.9732,-114.7178
lg,1624962854631309994,0,0.1838,-0.801,0.1035,223,-27.5879,-154.4189,-3.7231,90,1.4067,1.5127,8.2091,-55.3638,36,0.2731,9450,3.9732,-111.385
lg,1624962854631329309,0,0.0803,-0.8025,-0.0349,224,-0.4272,-37.9639,22.644,90,1.4037,1.5127,7.6301,-56.5019,36,0.2751,8516,3.9732,-109.7957
lg,1624962855002722623,0,0.1553,-0.8777,0.7205,225,15.1978,12.6343,50.8423,90,1.4047,1.5167,8.9903,-55.5451,36,0.2731,26348,3.9732,-109.0502
lg,1624962855002775049,0,0.2249,-0.8838,0.7397,226,19.4092,11.9629,35.5835,90,1.4087,1.5187,9.6491,-54.474,36,0.2741,9333,3.9732,-108.5981
lg,1624962855002806531,0,0.0874,-0.9165,0.6592,227,23.6816,46.4478,8.9722,90,1.4147,1.5197,10.4663,-53.739,36,0.2761,7999,3.9732,-109.9186
lg,1624962855002836475,0,-0.0449,-0.8118,0.7085,228,39.978,96.9849,-2.8076,90,1.4247,1.5207,12.3653,-52.5765,36,0.2671,12779,3.9732,-113.1257
lg,1624962855002865364,0,-0.2517,-0.7732,0.5435,229,39.1235,109.6191,-24.1699,90,1.4297,1.5187,14.3607,-52.0596,36,0.2611,10520,3.9732,-117.3197
lg,1624962855002893642,0,-0.4089,-0.717,0.2673,230,30.4565,80.8105,-19.4092,90,1.4287,1.5177,16.2754,-52.2884,36,0.2521,8057,3.9732,-120.617
lg,1624962855002922790,0,-0.4807,-0.7734,0.5374,231,-16.8457,108.7036,7.8735,90,1.4247,1.5167,19.5318,-54.1243,36,0.2561,8738,3.9732,-124.1185
lg,1624962855002953234,0,-0.6077,-1.0603,0.6995,232,-49.1943,84.5337,36.0107,90,1.4257,1.5177,22.8481,-56.9373,36,0.2621,8759,3.9732,-126.2766
lg,1624962855002980753,0,-0.8328,-0.9319,0.6304,233,-33.3862,27.2217,40.2832,90,1.4297,1.5207,25.3152,-58.2486,36,0.2711,9866,3.9732,-126.3305
lg,1624962855003007697,0,-0.8989,-0.8081,0.5933,234,-25.5737,-27.1606,40.7715,90,1.4297,1.5237,26.7763,-58.2336,36,0.2741,8569,3.9732,-124.2769
lg,1624962855003053401,0,-0.8145,-0.8418,0.5234,235,-37.9028,-139.8315,51.7578,90,1.4247,1.5257,26.0336,-56.824,36,0.2741,8807,3.9732,-117.7473
lg,1624962855003084197,0,-0.1868,-0.8936,0.8369,236,-39.3066,-248.4131,70.0073,90,1.4207,1.5257,22.0411,-53.614,36,0.2761,8824,3.9732,-106.9041
lg,1624962855003113031,0,0.1892,-0.8828,0.1992,237,-16.6626,-244.5679,48.584,90,1.4177,1.5257,16.528,-52.0774,36,0.2781,8578,3.9732,-97.786
lg,1624962855003142827,0,0.5535,-1.0015,0.3596,238,-19.7144,-137.5732,37.2314,90,1.4167,1.5267,12.791,-52.118,36,0.2781,13022,3.9732,-92.5382
lg,1624962855003171790,0,0.533,-1.0806,0.5276,239,3.9673,4.4556,18.4326,90,1.4197,1.5277,12.1333,-52.318,36,0.2781,10367,3.9732,-92.3181
lg,1624962855003203975,0,0.2856,-1,0.5288,240,34.79,93.4448,-8.1177,90,1.4237,1.5267,13.1523,-52.0117,36,0.2801,8773,3.9732,-95.6372
lg,1624962855003231253,0,-0.0173,-0.8677,0.623,241,46.4478,145.0806,-34.9121,90,1.4287,1.5257,15.1352,-51.6091,36,0.2831,8821,3.9732,-101.2558
lg,1624962855003258512,0,-0.2905,-0.7532,0.4832,242,48.1567,139.8926,-50.0488,90,1.4307,1.5217,17.1347,-51.529,36,0.2791,9189,3.9732,-107.1706
lg,1624962855003287660,0,-0.53,-0.7214,0.2522,243,41.5039,60.4858,-51.7578,90,1.4277,1.5167,17.7249,-51.5063,36,0.2641,10327,3.9732,-110.6916
lg,1624962855003315808,0,-0.4287,-0.73,0.5173,244,30.5176,57.4341,-27.9541,90,1.4257,1.5147,19.3873,-51.8974,36,0.2571,9211,3.9732,-112.5063
lg,1624962855003342771,0,-0.3877,-0.8914,0.5999,245,-16.2964,39.1846,14.0991,87,1.4157,1.5157,20.8344,-53.082,36,0.2601,9238,3.9743,-113.5379
lg,1624962855003369512,0,-0.5359,-0.9233,0.698,246,-28.6255,12.3291,24.5361,87,1.4117,1.5197,22.0672,-54.1324,36,0.2691,9330,3.9743,-113.3362
lg,1624962855003394568,0,-0.6116,-0.8057,0.6445,247,-29.48,-38.6963,58.0444,87,1.4137,1.5247,23.3798,-54.0951,36,0.2711,9275,3.9743,-110.4583
lg,1624962855003421142,0,-0.5674,-0.7603,0.9026,248,-40.8325,-102.2339,46.3257,87,1.4087,1.5237,20.5217,-51.7919,36,0.2761,10944,3.9743,-103.8027
lg,1624962855003447475,0,-0.3245,-0.7532,0.2412,249,-11.4746,-201.1108,20.874,87,1.4057,1.5207,16.2919,-50.7481,36,0.2771,9341,3.9743,-96.9029
lg,1624962855003474105,0,0.0278,-0.9797,0.5259,250,-34.1797,-197.937,2.5635,87,1.4037,1.5177,10.7331,-51.0547,36,0.2781,9129,3.9743,-90.6394
lg,1624962855003501049,0,0.1047,-0.9775,0.2659,251,-11.1084,-114.0747,16.0522,87,1.4037,1.5207,7.7893,-51.7566,36,0.2791,9029,3.9743,-86.785
lg,1624962855003529105,0,0.563,-0.9546,0.5464,252,24.7803,-37.2314,45.8984,87,1.4027,1.5227,6.9981,-50.7589,36,0.2801,9398,3.9743,-84.5112
lg,1624962855003555771,0,0.5068,-0.8572,0.4431,253,18.3105,37.6587,12.6343,87,1.4027,1.5237,7.0478,-50.5414,36,0.2811,9403,3.9743,-85.4216
lg,1624962855003583197,0,0.1946,-0.9133,0.4219,254,20.0806,126.0986,-5.6152,87,1.4067,1.5247,9.3524,-50.8829,36,0.2811,9452,3.9743,-89.5841
lg,1624962855003608105,0,-0.1436,-0.9617,0.4895,255,24.7192,172.7295,-13.1226,87,1.4117,1.5247,13.1781,-51.5075,36,0.2801,9432,3.9743,-95.4898
lg,1624962855003634512,0,-0.2458,-0.8604,0.7024,256,30.9448,171.875,-12.2681,87,1.4157,1.5237,16.7451,-50.9393,36,0.2821,9511,3.9743,-100.7263
lg,1624962855398365893,0,-0.3008,-0.8113,0.3604,257,33.1421,57.6172,-8.606,87,1.4277,1.5067,18.018,-50.8218,36,0.2431,28278,3.9743,-102.9981
lg,1624962855398406037,0,-0.1851,-0.7419,0.554,258,9.8267,76.1108,28.1982,87,1.4377,1.4987,20.5272,-51.0963,36,0.2341,12966,3.9743,-104.7862
lg,1624962855398427127,0,-0.1985,-0.8457,0.6321,259,-10.7422,81.665,40.0391,87,1.4407,1.4947,23.3977,-52.2341,36,0.2421,11258,3.9743,-106.5121
lg,1624962855398447458,0,-0.3787,-0.9839,0.7485,260,-24.4141,86.2427,47.1802,87,1.4387,1.4927,26.7008,-53.9755,36,0.2461,8872,3.9743,-108.3183
lg,1624962855398466549,0,-0.6343,-0.8547,0.5364,261,-24.8413,37.9028,29.7241,87,1.4277,1.4957,28.7482,-55.3924,36,0.2571,8884,3.9743,-109.0097
lg,1624962855398485121,0,-0.7263,-0.8755,0.4575,262,-54.2603,-33.3862,43.8843,87,1.4277,1.5017,29.7583,-56.6295,36,0.2611,8874,3.9743,-106.7372
lg,1624962855398504027,0,-0.7019,-0.8838,0.4707,263,-62.6831,-71.8384,55.0537,87,1.4187,1.5087,29.348,-56.1436,36,0.2641,8844,3.9743,-100.8053
lg,1624962855398522876,0,-0.1401,-0.7786,0.9229,264,-49.3774,-196.8384,65.3687,87,1.4097,1.5127,26.122,-53.2339,36,0.2691,12172,3.9743,-91.5128
lg,1624962855398541189,0,0.0432,-0.7412,0.1125,265,-0.061,-209.2285,25.1465,87,1.4057,1.5107,20.8377,-51.2514,36,0.2711,8596,3.9743,-84.159
lg,1624962855398560298,0,0.2161,-0.8142,0.552,266,-46.2646,-143.1885,19.165,87,1.4037,1.5117,16.9396,-51.9814,36,0.2721,8952,3.9743,-79.1148
lg,1624962855398578204,0,-0.1108,-1.0112,0.207,267,-9.1553,-23.3154,-12.7563,87,1.4017,1.5107,15.6087,-53.2577,36,0.2721,8993,3.9743,-78.9639
lg,1624962855398599146,0,-0.0159,-1.0159,0.678,268,28.3813,45.4712,20.9961,87,1.4017,1.5147,16.7826,-52.5129,36,0.2731,9071,3.9743,-79.9878
lg,1624962855398622477,0,0.0989,-0.7085,0.5527,269,40.5273,43.2129,7.9346,87,1.4047,1.5157,17.1984,-51.2233,36,0.2751,9083,3.9743,-81.2123
lg,1624962855398645512,0,-0.1162,-0.8047,0.5037,270,18.9819,104.126,-15.2588,87,1.4067,1.5157,18.8887,-51.919,36,0.2761,9168,3.9743,-85.1262
lg,1624962855398678156,0,-0.3767,-0.9214,0.6079,271,11.5967,131.4087,-20.5688,87,1.4107,1.5157,21.2892,-53.4125,36,0.2771,8715,3.9743,-90.3142
lg,1624962855398702117,0,-0.4775,-0.8857,0.6062,272,22.9492,112.2437,-24.0479,87,1.4157,1.5127,23.2435,-54.2896,36,0.2691,9115,3.9743,-94.878
lg,1624962855398721244,0,-0.4707,-0.7681,0.5642,273,35.5835,34.1187,-23.0713,87,1.4137,1.5087,23.4118,-53.544,36,0.2671,9161,3.9743,-96.6565
lg,1624962855398738872,0,-0.3193,-0.8291,0.5068,274,32.6538,-17.395,-7.1411,87,1.4107,1.5077,22.5604,-52.2711,36,0.2611,8796,3.9743,-96.3183
lg,1624962855398760666,0,-0.1892,-0.825,0.4321,275,19.6533,-28.2593,1.0376,87,1.4187,1.5057,21.4738,-51.5252,36,0.2561,9191,3.9743,-95.4904
lg,1624962855398778738,0,-0.2012,-0.8765,0.374,276,-10.437,-23.3765,20.2637,87,1.4197,1.5057,21.1825,-52.0776,36,0.2611,8831,3.9743,-94.3906
lg,1624962855398796903,0,-0.3218,-1.0591,0.6355,277,-34.729,-2.6245,40.8325,87,1.4227,1.5097,23.0913,-53.5661,36,0.2721,9201,3.9743,-93.0612
lg,1624962855398817845,0,-0.4116,-1.0078,0.543,278,-44.9829,-15.3809,66.4673,87,1.4177,1.5157,25.0119,-54.5754,36,0.2731,9282,3.9743,-90.8663
lg,1624962855398837769,0,-0.5264,-0.7368,0.5781,279,-45.5322,-56.7017,69.8242,87,1.4087,1.5187,26.1477,-54.6126,36,0.2761,9313,3.9743,-86.9746
lg,1624962855398856174,0,-0.0593,-0.9666,0.6443,280,-34.1187,-159.0576,17.8833,87,1.4017,1.5137,22.1253,-53.5382,36,0.2751,13995,3.9743,-80.9013
lg,1624962855398877598,0,0.0549,-1.0647,0.4985,281,-23.3765,-141.2964,-21.9727,87,1.3987,1.5117,17.1483,-53.4963,36,0.2761,9387,3.9743,-76.8011
lg,1624962855398900762,0,-0.1812,-0.9453,0.1531,282,-6.897,-62.6221,-37.3535,87,1.3967,1.5137,14.2933,-54.4997,36,0.2771,10564,3.9743,-75.9117
lg,1624962855398920094,0,-0.0396,-0.8748,0.2317,283,31.5552,-6.2866,6.3477,87,1.3967,1.5157,13.9226,-53.9673,36,0.2771,9329,3.9743,-75.7543
lg,1624962855398939073,0,0.0144,-0.8086,0.5708,284,35.7666,41.4429,5.0659,87,1.3997,1.5177,14.4853,-52.8687,36,0.2781,8995,3.9743,-77.0187
lg,1624962855398958145,0,-0.085,-0.8328,0.522,285,26.3672,60.73,-11.2305,87,1.4037,1.5177,15.2117,-52.5957,36,0.2791,10249,3.9743,-79.3541
lg,1624962855398977847,0,-0.2202,-0.8687,0.5454,286,25.3296,66.5894,-21.4844,87,1.4097,1.5167,15.8412,-52.5348,36,0.2801,9438,3.9743,-82.4085
lg,1624962855398998011,0,-0.2812,-0.8516,0.6252,287,29.3579,62.1948,-28.6255,87,1.4137,1.5137,16.1443,-51.2325,36,0.2731,9489,3.9743,-84.4425
lg,1624962855399017176,0,-0.2029,-0.7612,0.6711,288,48.3398,27.5269,-17.7612,87,1.4097,1.5057,16.0498,-49.7505,36,0.2651,9688,3.9743,-85.8212
lg,1624962855788917493,0,-0.1697,-0.7664,0.3333,289,24.7192,1.2817,1.5869,87,1.4297,1.4817,16.8085,-50.2917,36,0.2491,28399,3.9743,-85.6548
lg,1624962855788970320,0,-0.2524,-0.7979,0.5469,290,-30.7617,10.8032,39.6729,87,1.4267,1.4847,18.2206,-51.5084,36,0.2541,8684,3.9743,-85.0186
lg,1624962855789001984,0,-0.4248,-0.9792,0.5718,291,-52.6123,-40.2222,72.5708,87,1.4247,1.4977,19.624,-52.8696,36,0.2651,14583,3.9743,-81.896
lg,1624962855789032184,0,-0.4819,-0.6938,0.4519,292,-48.7671,-95.8252,76.355,87,1.4147,1.5047,20.1853,-53.1743,36,0.2651,8890,3.9743,-76.7333
lg,1624962855789060700,0,-0.0566,-0.8247,1.1958,293,-63.9648,-137.6343,75.7446,87,1.4067,1.5087,18.6462,-52.7531,36,0.2691,8867,3.9743,-69.8747
lg,1624962855789088937,0,0.0242,-0.8694,0.7781,294,-29.1138,-175.1709,49.0112,87,1.4027,1.5077,14.8783,-52.6696,36,0.2691,8950,3.9743,-63.5744
lg,1624962855789118119,0,0.3455,-1.1282,0.9565,295,-51.6357,-148.5596,25.2686,87,1.3987,1.5067,11.103,-53.9202,36,0.2701,9637,3.9743,-58.1672
lg,1624962855789145802,0,0.1218,-0.9158,0.2061,296,-2.5024,-59.5093,-12.207,87,1.3977,1.5087,9.0084,-54.7591,36,0.2711,9781,3.9743,-56.6861
lg,1624962855789173280,0,-0.0461,-0.8579,0.2249,297,14.7095,36.377,10.7422,87,1.3977,1.5097,9.8304,-54.7082,36,0.2721,10261,3.9743,-57.7034
lg,1624962855789200314,0,0.0105,-0.7844,0.5117,298,26.062,74.9512,21.1792,87,1.4007,1.5117,11.9101,-54.0317,36,0.2721,9904,3.9743,-59.69
lg,1624962855789227756,0,-0.0925,-0.8022,0.5452,299,18.5547,85.3271,10.0098,87,1.4027,1.5117,13.9679,-53.931,36,0.2731,9020,3.9743,-62.3004
lg,1624962855789254087,0,-0.3594,-0.8596,0.6028,300,21.1792,72.2656,-3.0518,87,1.4077,1.5147,15.7543,-53.7521,36,0.2751,14065,3.9743,-64.7999
lg,1624962855789279936,0,-0.3403,-0.6907,0.5769,301,30.6396,6.0425,6.958,87,1.4117,1.5157,16.3141,-52.3834,36,0.2691,8719,3.9743,-64.7833
lg,1624962855789306470,0,-0.2048,-0.8447,0.5952,302,22.3999,-8.2397,11.5356,87,1.4157,1.5147,16.3734,-51.836,36,0.2671,9117,3.9743,-63.9938
lg,1624962855789331967,0,-0.1658,-0.9373,0.5688,303,3.7842,-14.0381,21.7896,87,1.4187,1.5147,16.4054,-51.6659,36,0.2661,9070,3.9743,-63.0502
lg,1624962855789357261,0,-0.1265,-0.9216,0.6313,304,7.2632,-0.3662,21.9727,87,1.4207,1.5137,16.689,-51.359,36,0.2651,8786,3.9743,-62.5139
lg,1624962855789383314,0,-0.1267,-0.874,0.5901,305,5.6763,2.5635,24.9634,87,1.4247,1.5137,17.1408,-51.1443,36,0.2641,9614,3.9743,-61.9996
lg,1624962855789409163,0,-0.1121,-0.9004,0.6289,306,9.8877,21.7285,20.3247,87,1.4287,1.5107,17.8668,-50.952,36,0.2621,9146,3.9743,-62.2223
lg,1624962855789434530,0,-0.0837,-0.8818,0.6128,307,18.4326,25.8789,8.4229,87,1.4387,1.5077,18.249,-50.5738,36,0.2551,9172,3.9743,-62.8983
lg,1624962855789459917,0,-0.0291,-0.8813,0.5918,308,24.1699,34.2407,-5.8594,87,1.4457,1.5037,18.2832,-50.2276,36,0.2471,9219,3.9743,-64.2422
lg,1624962855789485581,0,-0.0396,-0.8325,0.395,309,18.7988,42.6636,-2.1973,87,1.4497,1.4997,18.6946,-50.5197,36,0.2441,9253,3.9743,-65.8751
lg,1624962855789510948,0,-0.0701,-0.7979,0.3835,310,6.958,26.001,-0.1831,87,1.4497,1.4987,19.3878,-51.4625,36,0.2501,9248,3.9743,-66.8461
lg,1624962855789542704,0,-0.2002,-0.8853,0.6038,311,-29.6631,59.5093,23.2544,87,1.4437,1.5027,21.2144,-53.2962,36,0.2601,9320,3.9743,-68.3075
lg,1624962855789570794,0,-0.5925,-0.9202,0.4558,312,-38.6353,62.0117,30.6396,87,1.4397,1.5077,23.9874,-55.7572,36,0.2621,9322,3.9743,-69.8756
lg,1624962855789597050,0,-0.8254,-0.8655,0.804,313,-44.0674,13.3667,41.0767,87,1.4277,1.5147,26.0823,-56.9776,36,0.2601,9026,3.9743,-69.2399
lg,1624962855789622733,0,-0.6753,-0.8901,0.6565,314,-39.3677,-138.3057,33.9355,87,1.4117,1.5167,24.3842,-55.8755,36,0.2601,9340,3.9743,-63.2434
lg,1624962855789648674,0,-0.0251,-0.769,0.8235,315,-26.9165,-226.8066,16.7236,87,1.4047,1.5087,18.8443,-53.3214,36,0.2631,10881,3.9743,-54.6682
lg,1624962855789723648,0,0.2061,-0.8398,0.2939,316,-33.3862,-177.3071,12.3901,87,1.4007,1.5077,13.8779,-53.5664,36,0.2641,9417,3.9743,-48.6434
lg,1624962855789757626,0,0.2913,-0.9985,0.0801,317,-19.2261,-63.7207,17.8833,87,1.3937,1.5067,11.913,-54.9309,36,0.2641,9459,3.9743,-46.3635
lg,1624962855789787586,0,0.3616,-1.0547,0.4287,318,18.6157,69.2139,50.354,87,1.3947,1.5077,14.0277,-54.9308,36,0.2651,9430,3.9743,-47.6149
lg,1624962855789816990,0,0.0718,-0.8562,0.5437,319,36.377,151.9775,39.1235,87,1.3927,1.5087,18.0705,-54.7479,36,0.2651,9567,3.9743,-51.8861
lg,1624962855789843987,0,-0.145,-0.6501,0.6746,320,26.2451,150.0854,34.3628,87,1.3937,1.5107,22.2695,-54.7509,36,0.2661,9541,3.9743,-56.132
lg,1624962856154678177,0,-0.4812,-0.8696,0.7527,321,23.4985,78.9795,-5.3711,87,1.4097,1.5157,23.9195,-54.7311,36,0.2711,26972,3.9743,-58.9869
lg,1624962856154710896,0,-0.4709,-0.7822,0.6394,322,34.1187,40.4053,-29.3579,87,1.4147,1.5147,23.9385,-54.0865,36,0.2631,9613,3.9743,-61.1034
lg,1624962856154731228,0,-0.4597,-0.9124,0.5291,323,27.5879,30.6396,-37.4756,87,1.4177,1.5117,23.4243,-54.0247,36,0.2581,10238,3.9743,-63.2357
lg,1624962856154750837,0,-0.5332,-0.9688,0.3359,324,30.4565,-5.8594,-51.2085,87,1.4257,1.5097,21.8241,-53.8541,36,0.2481,7974,3.9743,-64.5793
lg,1624962856154768687,0,-0.4124,-0.7158,0.322,325,22.583,-60.1807,-19.2871,87,1.4297,1.5077,20.0256,-52.8212,36,0.2461,8109,3.9743,-63.1572
lg,1624962856154787593,0,-0.3367,-0.6548,0.3032,326,2.6245,-69.1528,7.3242,87,1.4297,1.5077,18.7988,-52.3313,36,0.2501,7996,3.9743,-60.7893
lg,1624962856154807017,0,-0.2651,-0.908,0.4756,327,-37.9639,-75.7446,42.2363,87,1.4227,1.5107,18.1544,-53.0883,36,0.2551,8357,3.9743,-57.2937
lg,1624962856154825626,0,-0.3013,-1.0669,0.5896,328,-46.2646,-91.6748,63.7817,87,1.4257,1.5167,17.8655,-53.7899,36,0.2601,9805,3.9743,-52.6958
lg,1624962856154843439,0,-0.3523,-0.9319,0.5078,329,-42.6636,-154.1748,54.0161,87,1.4217,1.5207,16.0166,-53.8713,36,0.2641,8065,3.9743,-46.247
lg,1624962856154862585,0,-0.2651,-0.9331,0.541,330,-49.5605,-173.2788,59.3262,87,1.4107,1.5197,13.808,-54.2107,36,0.2641,8035,3.9743,-39.0653
lg,1624962856154880528,0,0.3601,-0.853,1.2708,331,-38.0249,-225.708,45.7153,87,1.4057,1.5197,8.9793,-53.2554,36,0.2651,9425,3.9743,-30.3684
lg,1624962856154898304,0,0.353,-0.8914,0.4133,332,-32.7759,-170.5322,10.437,87,1.4017,1.5187,4.2285,-54.3225,36,0.2661,8447,3.9743,-24.6403
lg,1624962856154915395,0,0.1765,-1.0205,0.1211,333,-10.1929,-72.6318,-4.0894,87,1.3997,1.5187,1.911,-55.6785,36,0.2681,8499,3.9743,-22.4219
lg,1624962856154933097,0,0.188,-1.0537,0.2737,334,2.5024,-16.6626,14.7095,87,1.3987,1.5197,1.5708,-56.2985,36,0.2681,8543,3.9743,-21.5641
lg,1624962856154951928,0,0.4163,-0.9055,0.5964,335,46.9971,50.5371,44.7998,87,1.3997,1.5217,3.3112,-54.4509,36,0.2691,8206,3.9743,-22.2337
lg,1624962856154969945,0,0.2632,-0.679,0.563,336,42.5415,114.1357,12.9395,87,1.4017,1.5217,5.6391,-52.849,36,0.2701,8920,3.9743,-25.624
lg,1624962856154986888,0,-0.165,-0.834,0.5054,337,17.7612,178.1616,-13.3057,87,1.4057,1.5217,9.6276,-53.1692,36,0.2721,8926,3.9743,-31.7136
lg,1624962856155054622,0,-0.3833,-0.9248,0.5059,338,13.2446,186.0352,-18.8599,87,1.4097,1.5207,13.7994,-54.2781,36,0.2731,8234,3.9743,-38.3495
lg,1624962856155073786,0,-0.6321,-0.8201,0.6174,339,37.6587,128.2349,-8.7891,87,1.4147,1.5197,17.1898,-53.9264,36,0.2751,8258,3.9743,-42.8624
lg,1624962856155090822,0,-0.5146,-0.6138,0.6311,340,39.4897,19.8975,1.709,87,1.4177,1.5187,18.2377,-52.1778,36,0.2721,8281,3.9743,-43.3717
lg,1624962856155108024,0,-0.3535,-0.8167,0.4956,341,1.3428,-21.9727,13.7329,87,1.4177,1.5187,18.2168,-52.0282,36,0.2661,9471,3.9743,-42.3622
lg,1624962856155125096,0,-0.3472,-0.9248,0.4644,342,-21.0571,-27.0996,19.104,87,1.4187,1.5207,18.1867,-52.8651,36,0.2791,8294,3.9743,-41.1032
lg,1624962856155142335,0,-0.4253,-0.7617,0.6479,343,-27.5269,-17.0288,49.6826,87,1.4157,1.5247,19.5552,-53.2301,36,0.2811,14175,3.9743,-39.2252
lg,1624962856155159945,0,-0.2917,-0.6797,0.6794,344,-22.7051,-70.4956,37.5977,87,1.4117,1.5247,18.9654,-52.6894,36,0.2821,9286,3.9743,-35.7647
lg,1624962856155177054,0,-0.1423,-1.1677,1.0149,345,-34.4849,-51.6357,43.2739,87,1.4097,1.5247,18.5646,-52.9833,36,0.2841,9044,3.9743,-32.8675
lg,1624962856155193775,0,-0.0374,-0.8728,0.4773,346,-5.9814,-61.7676,26.3672,87,1.4107,1.5257,16.392,-52.3326,36,0.2851,9387,3.9743,-30.3571
lg,1624962856155211069,0,0.1162,-0.8657,0.6909,347,6.4087,-52.5513,0.2441,87,1.4137,1.5267,14.6739,-51.6499,36,0.2861,9390,3.9743,-29.6402
lg,1624962856155228086,0,0.2358,-0.989,0.6279,348,8.9722,-13.5498,-18.6157,87,1.4167,1.5277,12.4647,-51.7484,36,0.2861,10355,3.9743,-30.7285
lg,1624962856155245677,0,0.1343,-0.9478,0.4575,349,23.5596,43.0908,-55.2368,87,1.4127,1.5267,12.1667,-52.1445,36,0.2781,9722,3.9743,-35.2837
lg,1624962856155262879,0,-0.207,-0.9609,0.4739,350,32.8369,126.0376,-74.1577,87,1.4087,1.5207,12.836,-52.5702,36,0.2691,10946,3.9743,-41.321
lg,1624962856155279673,0,-0.4165,-0.8843,0.1467,351,41.1377,95.5811,-84.8999,87,1.4197,1.5137,12.1401,-52.2163,36,0.2581,9425,3.9743,-44.5799
lg,1624962856155296616,0,-0.4023,-0.5974,0.1714,352,46.2036,19.7144,-32.0435,94,1.4237,1.5107,12.4503,-51.3927,36,0.2581,9116,3.971,-46.1668
lg,1624962856554296996,0,-0.5261,-0.9211,0.5791,353,-20.0195,-19.5923,51.5137,94,1.4157,1.5227,13.7049,-51.288,36,0.2751,28487,3.971,-43.0707
lg,1624962856554330956,0,-0.7029,-0.7053,0.5913,354,-41.9312,-131.958,57.5562,94,1.4067,1.5237,12.1239,-51.0277,36,0.2771,9613,3.971,-37.215
lg,1624962856554372007,0,-0.0942,-0.8977,0.6975,355,-28.0762,-244.1406,48.584,94,1.4007,1.5207,7.2156,-50.689,36,0.2791,8819,3.971,-28.3088
lg,1624962856554396505,0,0.4802,-1.1362,0.8564,356,-44.0063,-218.689,34.8511,94,1.3967,1.5197,1.8801,-51.9067,36,0.2791,10332,3.971,-20.5975
lg,1624962856554416188,0,0.521,-0.9854,0.3157,357,0.5493,-91.0034,-0.6714,94,1.3937,1.5207,-1.4383,-52.5618,36,0.2801,8559,3.971,-17.7518
lg,1624962856554435316,0,0.3984,-0.9517,0.4827,358,13.855,69.5801,8.3008,94,1.3937,1.5207,-0.2325,-52.3581,36,0.2811,10719,3.971,-19.7552
lg,1624962856554453333,0,-0.0151,-0.7964,0.2832,359,18.0054,129.0283,-13.2446,94,1.3957,1.5227,2.5254,-52.4203,36,0.2821,8851,3.971,-24.1689
lg,1624962856554471201,0,-0.2756,-0.8293,0.5586,360,11.1694,171.2646,-6.4087,94,1.3987,1.5227,6.9685,-52.5669,36,0.2831,9020,3.971,-29.7857
lg,1624962856554488885,0,-0.4927,-0.9299,0.5359,361,7.6904,150.0854,-5.4321,94,1.4027,1.5227,10.0366,-53.0404,36,0.2851,8934,3.971,-33.6046
lg,1624962856554506142,0,-0.4897,-0.936,0.5713,362,13.4888,68.7256,-4.8828,94,1.4077,1.5227,12.0689,-53.1479,36,0.2851,8907,3.971,-36.0005
lg,1624962856554535195,0,-0.144,-0.814,0.5576,363,32.7148,-46.7529,4.3335,94,1.4147,1.5197,10.9217,-51.6044,36,0.2781,13292,3.971,-34.3986
lg,1624962856554553138,0,0.1338,-0.8516,0.447,364,32.8979,-56.9458,5.188,94,1.4167,1.5167,8.9324,-50.372,36,0.2711,8996,3.971,-32.5546
lg,1624962856554570691,0,0.1821,-0.9294,0.3425,365,21.6675,-20.3247,3.0518,94,1.4227,1.5127,7.7761,-50.1432,36,0.2651,9692,3.971,-31.9618
lg,1624962856554587319,0,0.1677,-0.9089,0.2522,366,18.6157,0.7324,11.7798,94,1.4267,1.5107,8.8869,-50.6011,36,0.2661,9018,3.971,-32.5064
lg,1624962856554604669,0,-0.1377,-0.8772,0.6155,367,-5.7983,83.6182,43.335,94,1.4287,1.5127,13.8223,-52.3168,36,0.2811,10161,3.971,-35.0133
lg,1624962856554621353,0,-0.354,-0.8748,0.5986,368,-36.1328,133.9111,69.7021,94,1.4247,1.5177,19.5166,-54.828,36,0.2821,9786,3.971,-37.0753
lg,1624962856554638222,0,-0.8,-0.625,0.5061,369,-55.4199,78.3691,75.8057,94,1.4117,1.5207,24.728,-57.2895,36,0.2811,9146,3.971,-38.0454
lg,1624962856554655424,0,-0.8901,-0.679,0.8467,370,-69.7021,-15.1978,88.8672,94,1.4027,1.5227,28.0149,-58.238,36,0.2831,9142,3.971,-35.0999
lg,1624962856554672959,0,-0.3706,-1.0139,0.7883,371,-31.7993,-157.959,60.73,94,1.3957,1.5197,26.172,-55.8416,36,0.2831,9164,3.971,-27.5395
lg,1624962856554690291,0,0.103,-1.2112,0.9255,372,-30.0903,-159.79,21.1182,94,1.3937,1.5187,22.0976,-54.3276,36,0.2831,9196,3.971,-21.2132
lg,1624962856554707881,0,0.1594,-0.9067,0.3269,373,3.1738,-86.4258,-7.1411,94,1.3937,1.5207,18.6998,-53.8628,36,0.2851,9252,3.971,-18.6486
lg,1624962856554725528,0,0.1968,-0.9346,0.3215,374,9.3994,-4.3335,-7.1411,94,1.3937,1.5217,17.2626,-54.1759,36,0.2861,9214,3.971,-18.8958
lg,1624962856554742989,0,0.1523,-0.9824,0.4023,375,14.8926,45.8374,-8.4229,94,1.3987,1.5237,17.8085,-54.9556,36,0.2871,9231,3.971,-22.2634
lg,1624962856554760654,0,-0.072,-0.9685,0.3967,376,22.644,104.3701,-24.7192,94,1.4017,1.5247,18.8135,-55.8916,36,0.2881,9254,3.971,-26.6352
lg,1624962856554778189,0,-0.2998,-0.9221,0.3777,377,28.7476,112.9761,-33.3862,94,1.4077,1.5247,20.1151,-56.7984,36,0.2901,8950,3.971,-31.5624
lg,1624962856554795428,0,-0.3508,-0.812,0.489,378,43.1519,63.4155,-29.9683,94,1.4147,1.5237,20.5103,-56.177,36,0.2891,9293,3.971,-34.5498
lg,1624962856554813149,0,-0.1904,-0.7898,0.4651,379,56.7627,8.5449,-17.334,94,1.4157,1.5217,19.7865,-54.2865,36,0.2781,9350,3.971,-35.32
lg,1624962856554830851,0,-0.0371,-0.8828,0.469,380,60.1196,-12.6953,-27.832,94,1.4207,1.5177,17.9113,-52.2897,36,0.2681,9335,3.971,-35.7096
lg,1624962856554848423,0,0.0032,-0.7649,0.3252,381,54.3823,-15.3809,-21.7285,94,1.4277,1.5147,16.1677,-50.7306,36,0.2611,9393,3.971,-35.9629
lg,1624962856554865514,0,-0.0195,-0.5994,0.2163,382,16.2964,24.1699,12.085,94,1.4297,1.5137,16.6153,-50.9866,36,0.2651,9394,3.971,-36.6471
lg,1624962856554883012,0,-0.3062,-0.8889,0.6565,383,-52.6123,93.3838,41.1377,94,1.4277,1.5167,20.1287,-53.8269,36,0.2781,10882,3.971,-38.7429
lg,1624962856554903381,0,-0.7075,-0.9529,0.5283,384,-56.5796,59.1431,64.5142,94,1.4237,1.5207,24.0842,-56.5238,36,0.2811,9417,3.971,-39.3557
lg,1624962856943537010,0,-0.0508,-0.928,0.6738,385,-17.1509,-264.5874,55.8472,94,1.3997,1.5227,19.03,-53.1775,36,0.2821,26654,3.971,-28.6645
lg,1624962856943575303,0,0.4229,-1.0044,0.48,386,-7.5684,-145.6299,-7.5073,94,1.3957,1.5227,13.8557,-52.5742,36,0.2821,14837,3.971,-24.1561
lg,1624962856943596541,0,0.3813,-0.9895,0.366,387,-2.8076,-77.3926,-21.9727,94,1.3957,1.5237,11.6828,-53.1655,36,0.2831,8597,3.971,-24.1391
lg,1624962856943628390,0,0.3376,-0.9287,0.2957,388,12.0239,29.2358,-3.54,94,1.3957,1.5247,11.1208,-53.601,36,0.2851,8901,3.971,-25.3279
lg,1624962856943657387,0,0.0684,-0.8433,0.2451,389,20.2026,137.207,-10.0708,94,1.3977,1.5257,13.4024,-54.6015,36,0.2861,8896,3.971,-30.274
lg,1624962856943675645,0,-0.2957,-0.79,0.4167,390,23.8647,191.1011,-4.3945,94,1.4017,1.5257,18.0293,-55.5396,36,0.2871,11931,3.971,-36.9151
lg,1624962856943694013,0,-0.4878,-0.7561,0.5371,391,18.3716,140.3198,-2.8687,94,1.4057,1.5247,21.4253,-56.4508,36,0.2891,9500,3.971,-41.9205
lg,1624962856943711863,0,-0.49,-0.8718,0.5925,392,11.4136,49.3164,1.0376,94,1.4097,1.5247,22.6729,-56.6149,36,0.2911,9003,3.971,-43.6612
lg,1624962856943729750,0,-0.2656,-0.8816,0.5903,393,27.6489,-9.6436,6.2866,94,1.4167,1.5247,22.3216,-55.2905,36,0.2811,8988,3.971,-43.1555
lg,1624962856943747064,0,-0.1104,-0.8792,0.5393,394,33.8745,-21.3623,0.6104,94,1.4197,1.5217,21.213,-53.7799,36,0.2771,8641,3.971,-42.4464
lg,1624962856943764525,0,-0.0276,-0.9104,0.5107,395,37.1704,-12.0239,-1.2207,94,1.4187,1.5187,20.4748,-52.5446,36,0.2701,8952,3.971,-42.8005
lg,1624962856943781282,0,-0.0364,-0.8975,0.4827,396,37.7197,21.6064,-4.2114,94,1.4197,1.5167,20.1579,-51.7069,36,0.2661,9002,3.971,-43.779
lg,1624962856943798595,0,-0.2407,-0.8208,0.3594,397,-13.3057,31.311,8.3008,94,1.4207,1.5167,20.9935,-53.1151,36,0.2751,9054,3.971,-44.8259
lg,1624962856943815538,0,-0.4136,-0.8528,0.499,398,-45.105,43.9453,59.7534,94,1.4197,1.5227,24.014,-55.1717,36,0.2851,10378,3.971,-44.952
lg,1624962856943832314,0,-0.6389,-0.6641,0.4207,399,-50.5371,-14.5264,71.8384,94,1.4097,1.5257,26.644,-56.2669,36,0.2831,10368,3.971,-42.6706
lg,1624962856943861089,0,-0.6306,-0.73,0.8274,400,-67.1997,-58.7158,89.1724,94,1.4007,1.5247,28.46,-56.3079,36,0.2851,9101,3.971,-37.9749
lg,1624962856943879680,0,-0.26,-1.1687,0.9692,401,-27.8931,-142.7002,62.1948,94,1.3967,1.5237,26.5319,-53.967,36,0.2841,9202,3.971,-30.9739
lg,1624962856943897512,0,-0.0181,-1.084,0.6929,402,-6.7139,-172.6074,1.0376,94,1.3947,1.5237,21.4538,-51.9137,36,0.2831,8817,3.971,-24.9917
lg,1624962856943914677,0,0.2759,-0.9441,0.5576,403,9.5825,-116.8213,-14.7705,94,1.3937,1.5257,16.7777,-50.6913,36,0.2841,9204,3.971,-21.6418
lg,1624962856943931693,0,0.3838,-0.9087,0.2812,404,13.1836,-79.895,-14.5874,94,1.3957,1.5267,13.9616,-50.8461,36,0.2861,8843,3.971,-21.5879
lg,1624962856943948303,0,0.0649,-0.917,0.3511,405,16.4795,120.7886,-46.6309,94,1.3997,1.5267,14.8206,-52.1759,36,0.2881,9223,3.971,-26.8612
lg,1624962856943964820,0,-0.3633,-0.9534,0.4021,406,17.2729,175.415,-55.1758,94,1.4057,1.5257,17.4305,-54.0624,36,0.2891,9074,3.971,-34.2289
lg,1624962856943986743,0,-0.5,-0.8271,0.5615,407,39.917,122.9858,-49.3164,94,1.4137,1.5227,19.0505,-54.218,36,0.2931,10627,3.971,-39.6605
lg,1624962856944004186,0,-0.5159,-0.7783,0.3728,408,47.5464,10.437,-40.4663,94,1.4197,1.5167,18.4656,-53.1112,36,0.2911,8314,3.971,-41.1353
lg,1624962856944020888,0,-0.2842,-0.7197,0.3494,409,51.1475,-70.7397,-17.8833,94,1.4257,1.5087,16.2281,-50.9248,36,0.2791,10791,3.971,-39.3845
lg,1624962856944037238,0,-0.0354,-0.6816,0.3057,410,38.4521,-78.9185,-1.0986,94,1.4257,1.5047,13.868,-50.0464,36,0.2711,8957,3.971,-36.6605
lg,1624962856944063588,0,0.0583,-0.7764,0.2991,411,-1.5869,-73.9746,14.4043,94,1.4257,1.5057,11.7192,-50.0392,36,0.2731,9130,3.971,-34.0813
lg,1624962856944081308,0,0.0095,-1.0344,0.6743,412,-45.166,9.2163,44.4946,94,1.4267,1.5087,12.8525,-51.9242,36,0.2881,8441,3.971,-33.2797
lg,1624962856944098121,0,-0.2869,-0.9526,0.4841,413,-32.2266,17.395,67.627,94,1.4267,1.5147,15.509,-53.3605,36,0.2891,9268,3.971,-32.261
lg,1624962856944114842,0,-0.5479,-0.6021,0.4829,414,-39.0015,-21.4844,76.5991,94,1.4197,1.5187,18.2381,-54.0743,36,0.2901,8834,3.971,-29.6295
lg,1624962856944131877,0,-0.4106,-0.8264,0.7773,415,-76.6602,-111.6333,97.7173,94,1.4097,1.5207,18.9058,-54.8461,36,0.2921,9646,3.971,-23.3121
lg,1624962856944148709,0,0.0916,-1.1199,0.7539,416,-58.8989,-169.9219,90.7593,94,1.4047,1.5207,16.013,-53.6903,36,0.2911,8923,3.971,-14.8054
lg,1624962857318607810,0,0.2446,-0.8904,0.3071,417,9.1553,4.4556,-5.3101,94,1.4057,1.5237,14.8144,-54.0605,36,0.2941,27592,3.971,-15.2688
lg,1624962857318656398,0,0.0076,-0.8738,0.3906,418,16.2964,114.1968,-3.3569,94,1.4087,1.5237,16.7474,-54.9562,36,0.2951,11826,3.971,-19.3397
lg,1624962857318677378,0,-0.1465,-0.8796,0.4502,419,17.5171,139.1602,-4.8218,94,1.4127,1.5247,19.3872,-56.1047,36,0.2971,7895,3.971,-24.3769
lg,1624962857318697561,0,-0.3032,-0.8208,0.5852,420,34.3018,127.8687,-7.3242,94,1.4187,1.5237,21.8559,-56.321,36,0.2971,8254,3.971,-29.0737
lg,1624962857318716708,0,-0.3792,-0.7983,0.4451,421,39.3677,64.4531,-18.4937,94,1.4237,1.5217,22.6915,-55.9631,36,0.2881,7911,3.971,-31.8982
lg,1624962857318735539,0,-0.353,-0.782,0.4255,422,36.8042,38.208,-17.5781,94,1.4257,1.5207,22.7164,-55.2671,36,0.2811,8281,3.971,-33.7298
lg,1624962857318753686,0,-0.2014,-0.7583,0.5259,423,21.4233,27.71,-1.0986,94,1.4267,1.5197,22.8957,-54.7921,36,0.2751,8419,3.971,-34.7424
lg,1624962857318772647,0,-0.3171,-0.957,0.5093,424,-18.3105,25.7568,6.958,94,1.4257,1.5217,23.4437,-56.1017,36,0.2841,8305,3.971,-35.6053
lg,1624962857318792830,0,-0.4751,-0.9124,0.5322,425,-33.4473,15.0757,48.8281,94,1.4237,1.5257,25.4273,-57.3089,36,0.2911,13492,3.971,-35.0404
lg,1624962857318812569,0,-0.5791,-0.6846,0.4683,426,-44.3726,-48.9502,62.8662,94,1.4147,1.5267,26.866,-57.5273,36,0.2921,8773,3.971,-31.6637
lg,1624962857318831382,0,-0.2756,-0.7744,0.8528,427,-30.3955,-122.9248,52.7344,94,1.4077,1.5217,25.4319,-55.4909,36,0.2891,8377,3.971,-25.5045
lg,1624962857318851269,0,0.1033,-1.1577,0.8643,428,-51.6968,-171.814,25.2686,94,1.4027,1.5187,21.2429,-54.7646,36,0.2871,8822,3.971,-18.6951
lg,1624962857318870823,0,0.1064,-1.0708,0.5588,429,-11.2915,-149.4751,3.1128,94,1.4017,1.5187,16.8813,-53.8177,36,0.2861,8487,3.971,-13.5994
lg,1624962857318889784,0,0.1328,-0.9709,0.6138,430,5.6152,-50.415,-4.3945,94,1.4007,1.5197,14.6457,-53.3129,36,0.2871,9005,3.971,-12.0676
lg,1624962857318909856,0,0.2205,-0.8423,0.3364,431,19.2871,-35.2173,-5.4321,94,1.4017,1.5217,12.5719,-52.877,36,0.2881,8082,3.971,-11.1932
lg,1624962857318929410,0,0.1973,-0.813,0.2349,432,17.6392,-3.7231,-6.958,94,1.4037,1.5227,12.9044,-53.387,36,0.2891,8121,3.971,-13.1708
lg,1624962857318983590,0,-0.1221,-0.8801,0.4578,433,17.8833,124.8169,-0.1221,94,1.4077,1.5237,15.6026,-54.0539,36,0.2901,10783,3.971,-17.4123
lg,1624962857319007458,0,-0.2622,-0.8606,0.4785,434,19.6533,124.5728,1.4648,94,1.4117,1.5247,18.263,-54.3907,36,0.2901,8498,3.971,-20.9786
lg,1624962857319026586,0,-0.3838,-0.8403,0.5928,435,22.3389,78.9795,4.0283,94,1.4157,1.5257,20.3024,-54.369,36,0.2901,8231,3.971,-23.6069
lg,1624962857319046010,0,-0.2202,-0.8501,0.6689,436,28.8696,16.4795,12.7563,94,1.4217,1.5237,20.7487,-53.1846,36,0.2911,8196,3.971,-23.8181
lg,1624962857319064694,0,-0.1257,-0.9199,0.6023,437,33.9355,-2.4414,11.1694,94,1.4267,1.5207,20.2048,-51.8664,36,0.2801,8220,3.971,-23.5507
lg,1624962857319084544,0,0.0032,-1.0029,0.5752,438,39.856,4.6997,7.2632,94,1.4297,1.5167,19.7632,-50.6033,36,0.2761,8997,3.971,-23.6425
lg,1624962857319102672,0,0.061,-0.8977,0.4751,439,45.5322,38.9404,4.7607,94,1.4317,1.5137,20.0191,-49.6478,36,0.2691,9051,3.971,-24.9577
lg,1624962857319122429,0,-0.1399,-0.7515,0.3315,440,-1.2817,72.5098,11.4136,94,1.4317,1.5127,21.8229,-51.1118,36,0.2781,8677,3.971,-27.2719
lg,1624962857319141520,0,-0.3237,-0.8274,0.5059,441,-48.645,85.6323,53.4058,94,1.4317,1.5157,25.4468,-53.9657,36,0.2871,8698,3.971,-28.9395
lg,1624962857319160074,0,-0.4456,-0.7717,0.4465,442,-55.8472,75.0732,68.9087,94,1.4257,1.5207,29.4096,-56.5851,36,0.2891,9099,3.971,-28.9461
lg,1624962857319178924,0,-0.7336,-0.7178,0.4302,443,-68.3594,36.499,79.4678,94,1.4147,1.5247,33.3194,-59.113,36,0.2891,9106,3.971,-28.4728
lg,1624962857319196626,0,-0.4944,-0.8914,1.3342,444,-61.5845,-43.2129,92.8345,94,1.4057,1.5237,35.0635,-58.1106,36,0.2931,8792,3.971,-23.7318
lg,1624962857319215087,0,-0.1045,-1.1301,1.1511,445,-36.8652,-132.9346,59.6313,94,1.4037,1.5237,32.993,-55.0484,36,0.2941,9277,3.971,-16.4414
lg,1624962857319248732,0,0.1047,-1.0266,0.6541,446,-2.6855,-128.0518,0.4272,94,1.4027,1.5237,28.6222,-52.7926,36,0.2951,9311,3.971,-11.6881
lg,1624962857319268786,0,0.0542,-0.9138,0.3914,447,-2.4414,-99.4263,-14.7705,94,1.4027,1.5247,25.06,-52.5463,36,0.2951,8452,3.971,-10.2807
lg,1624962857319287080,0,0.0586,-0.8948,0.3086,448,11.7188,-39.856,-26.6113,94,1.4057,1.5267,22.1928,-52.6461,36,0.2971,9250,3.971,-9.9577
lg,1624962857696634741,0,-0.2922,-0.8901,0.4487,449,24.231,119.0796,-31.9214,94,1.4187,1.5277,23.8142,-53.8005,36,0.3011,28183,3.971,-14.8608
lg,1624962857696671422,0,-0.4011,-0.8726,0.5349,450,32.1045,8.7891,-31.25,94,1.4197,1.5257,22.9216,-53.1392,36,0.2901,13155,3.971,-16.0492
lg,1624962857696692643,0,-0.3025,-0.8892,0.4883,451,32.8369,-24.353,-27.5269,94,1.4137,1.5227,21.2159,-52.1045,36,0.2821,8011,3.971,-16.0583
lg,1624962857696712474,0,-0.0925,-0.9546,0.4751,452,42.7856,-48.7061,-32.8979,94,1.4157,1.5197,18.3606,-50.6129,36,0.2671,7907,3.971,-15.4874
lg,1624962857696731602,0,0.0232,-0.8689,0.3374,453,51.4526,-54.6875,-21.6675,94,1.4217,1.5157,15.5637,-48.9533,36,0.2571,8746,3.971,-14.5649
lg,1624962857696781597,0,0.073,-0.7031,0.2344,454,53.1006,-59.4482,-9.2163,94,1.4247,1.5157,13.5457,-48.0217,36,0.2581,8005,3.971,-13.0722
lg,1624962857696801873,0,0.0913,-0.5398,0.1628,455,2.4414,-24.1699,24.5972,94,1.4227,1.5157,12.8085,-48.5718,36,0.2621,8571,3.971,-11.8858
lg,1624962857696820353,0,-0.1741,-0.9109,0.4731,456,-55.7251,60.9741,72.5098,94,1.4197,1.5227,16.4647,-51.3425,36,0.2721,8015,3.971,-12.0173
lg,1624962857696837962,0,-0.603,-0.9932,0.5068,457,-65.4297,48.8281,83.1909,94,1.4127,1.5267,20.7533,-54.2152,36,0.2751,8415,3.971,-11.6755
lg,1624962857696854905,0,-0.7092,-0.8674,0.708,458,-60.4858,27.771,88.2568,94,1.4037,1.5227,24.725,-56.0293,36,0.2701,8054,3.971,-10.4441
lg,1624962857696871830,0,-0.5229,-0.5869,0.6353,459,9.5215,-90.3931,58.2886,83,1.4007,1.5217,24.8106,-53.1527,35,0.2701,8867,3.9787,-5.4877
lg,1624962857696889087,0,-0.2939,-1.2183,1.1106,460,-39.7339,-136.5967,15.1367,83,1.3987,1.5227,21.4395,-52.4746,35,0.2671,8057,3.9787,-0.2506
lg,1624962857696907067,0,-0.2571,-1.0935,0.7256,461,-10.6201,-178.6499,-2.5024,83,1.3977,1.5237,16.308,-51.2554,35,0.2691,8531,3.9787,5.5261
lg,1624962857696924399,0,0.1497,-0.8679,0.4397,462,5.5542,-187.9272,1.5259,83,1.3957,1.5247,10.6792,-50.0943,35,0.2761,8183,3.9787,11.4044
lg,1624962857696941953,0,0.4368,-0.8257,0.2683,463,2.5024,-94.6655,0.9766,83,1.3977,1.5247,6.9495,-50.2921,36,0.2791,8539,3.9787,14.2355
lg,1624962857696963932,0,0.3806,-0.8467,0.3132,464,-1.4648,-0.1831,-1.3428,83,1.3987,1.5257,8.0135,-51.3173,36,0.2801,8095,3.9787,11.4686
lg,1624962857696982005,0,0.0525,-0.9307,0.4827,465,-0.3662,132.5073,-11.6577,83,1.3997,1.5267,10.469,-52.4954,36,0.2821,8142,3.9787,6.8878
lg,1624962857696999429,0,-0.2615,-0.9272,0.502,466,9.2163,157.3486,-16.7236,83,1.4037,1.5277,13.8277,-53.6427,36,0.2831,8153,3.9787,1.2629
lg,1624962857697016631,0,-0.48,-0.8823,0.4524,467,13.0615,114.6851,-18.3105,83,1.4077,1.5287,16.3791,-54.5702,36,0.2851,8939,3.9787,-3.1169
lg,1624962857697033555,0,-0.4976,-0.8552,0.4976,468,13.5498,77.3315,-11.6577,83,1.4117,1.5277,18.0941,-55.0642,36,0.2851,8240,3.9787,-6.0971
lg,1624962857697050683,0,-0.1843,-0.8665,0.5591,469,31.8604,-42.0532,4.2725,83,1.4177,1.5247,16.9396,-53.404,36,0.2731,15226,3.9787,-4.5868
lg,1624962857697080921,0,0.054,-0.9333,0.4482,470,34.3018,-81.3599,-5.5542,83,1.4217,1.5227,14.0382,-51.7931,36,0.2681,9316,3.9787,-2.1794
lg,1624962857697100142,0,0.1047,-0.8838,0.2576,471,34.4238,-51.6968,3.7842,83,1.4257,1.5197,12.1151,-50.8798,36,0.2661,9252,3.9787,-0.639
lg,1624962857697118251,0,0.1614,-0.7522,0.3394,472,-1.8311,-7.0801,29.541,83,1.4287,1.5207,11.9765,-51.3194,36,0.2751,9262,3.9787,0.2233
lg,1624962857697135620,0,-0.0549,-0.9563,0.615,473,-42.9688,65.5518,61.2183,83,1.4277,1.5237,15.1369,-53.4023,36,0.2841,9266,3.9787,-0.4262
lg,1624962857697153544,0,-0.4153,-0.7693,0.4126,474,-43.7012,48.1567,68.1763,83,1.4177,1.5277,18.8679,-55.4428,36,0.2831,10640,3.9787,-0.501
lg,1624962857697171283,0,-0.48,-0.636,0.9729,475,-47.7905,22.8271,82.8247,83,1.4097,1.5277,22.3002,-56.0708,36,0.2851,9313,3.9787,0.9539
lg,1624962857697188448,0,-0.3816,-1.0969,0.8518,476,-38.208,-72.6318,47.6685,83,1.4037,1.5267,21.9925,-56.0042,36,0.2861,9302,3.9787,4.7724
lg,1624962857697206391,0,-0.1104,-1.3196,1.2458,477,-52.124,-103.1494,39.6729,83,1.4007,1.5237,18.7544,-54.5815,36,0.2861,9078,3.9787,9.6781
lg,1624962857697223760,0,0.084,-0.9355,0.5559,478,4.9438,-113.7695,-2.9907,83,1.3987,1.5237,15.0855,-53.5663,36,0.2871,9516,3.9787,13.361
lg,1624962857697241055,0,0.0793,-0.8569,0.3535,479,7.5684,-29.7241,2.0142,83,1.3987,1.5247,13.6876,-53.5615,36,0.2891,9452,3.9787,14.2524
lg,1624962857697259738,0,-0.0808,-0.8438,0.2085,480,9.0942,31.6162,-3.1738,83,1.3997,1.5237,14.0293,-54.3519,36,0.2891,9514,3.9787,12.9111
lg,1624962858084192332,0,-0.4187,-0.8477,0.5247,481,10.9253,39.2456,4.3945,83,1.4107,1.5297,15.4235,-54.3591,36,0.2921,28277,3.9787,11.6627
lg,1624962858084234014,0,-0.1138,-0.9128,0.6243,482,23.9258,-59.1431,7.2632,83,1.4177,1.5297,13.885,-52.9005,36,0.2891,15020,3.9787,13.7966
lg,1624962858084256253,0,0.1594,-0.9053,0.488,483,38.147,-83.7402,0.9155,83,1.4187,1.5277,10.9961,-51.1318,36,0.2781,8819,3.9787,16.4299
lg,1624962858084275881,0,0.2505,-0.9446,0.4417,484,44.0063,-52.7344,-19.104,83,1.4227,1.5257,8.1427,-49.7095,36,0.2701,9956,3.9787,17.4747
lg,1624962858084350578,0,0.2939,-0.8406,0.2231,485,51.4526,-13.5498,-7.5684,83,1.4247,1.5247,6.5663,-48.553,35,0.2711,8568,3.9787,17.5453
lg,1624962858084371817,0,0.0503,-0.6763,0.3323,486,-14.2212,62.1338,14.7705,83,1.4257,1.5277,8.2235,-49.9055,35,0.2841,9765,3.9787,15.9668
lg,1624962858084390260,0,-0.1025,-0.7134,0.4468,487,-43.335,110.0464,44.4336,83,1.4227,1.5307,12.7168,-52.3301,35,0.2861,9135,3.9787,13.5623
lg,1624962858084408295,0,-0.5522,-0.8018,0.5918,488,-47.4243,140.0146,59.3262,83,1.4147,1.5277,18.5433,-55.1317,35,0.2881,8910,3.9787,10.2987
lg,1624962858084425905,0,-0.7656,-0.7737,1.0659,489,-37.1704,73.7305,47.1802,83,1.4057,1.5287,19.8894,-54.6759,36,0.2911,11926,3.9787,11.6701
lg,1624962858084445662,0,-0.6873,-0.877,0.7219,490,-15.1367,-83.0688,27.2827,83,1.4027,1.5277,18.7838,-53.7333,36,0.2911,9041,3.9787,15.3342
lg,1624962858084462457,0,-0.3975,-1.0061,0.6736,491,-6.8359,-147.3389,9.3384,83,1.4007,1.5267,15.5471,-52.5617,36,0.2921,9007,3.9787,20.483
lg,1624962858084480030,0,-0.0833,-0.9199,0.5122,492,1.3428,-145.6299,18.3105,83,1.3997,1.5287,12.1393,-51.5898,36,0.2921,9061,3.9787,25.5904
lg,1624962858084496936,0,0.3113,-0.905,0.5195,493,10.9253,-93.5669,24.5361,83,1.4007,1.5307,9.4848,-50.7991,36,0.2931,9729,3.9787,29.1105
lg,1624962858084514490,0,0.3132,-0.9397,0.4377,494,6.1646,5.7983,11.5967,83,1.3997,1.5317,8.9921,-51.066,36,0.2961,10271,3.9787,29.1344
lg,1624962858084533247,0,0.0022,-0.925,0.4485,495,11.5356,87.7686,-3.418,83,1.4067,1.5317,10.7109,-51.6067,36,0.2971,9087,3.9787,26.1809
lg,1624962858084551394,0,-0.2349,-0.8723,0.5254,496,14.9536,101.9287,-3.9062,83,1.4117,1.5307,13.1828,-51.9859,36,0.3001,9134,3.9787,22.75
lg,1624962858084568874,0,-0.2327,-0.8792,0.6265,497,19.3481,81.1768,-0.3662,83,1.4187,1.5297,14.1839,-51.2657,36,0.2941,9263,3.9787,21.2785
lg,1624962858084588131,0,-0.1687,-0.9067,0.542,498,37.2925,10.2539,-5.3101,83,1.4217,1.5257,14.0778,-50.1965,36,0.2821,8858,3.9787,20.7344
lg,1624962858084605630,0,0.0273,-0.8005,0.3667,499,36.8042,-38.0859,-10.2539,83,1.4237,1.5207,12.1833,-49.1198,36,0.2721,9159,3.9787,21.5032
lg,1624962858084636794,0,0.0835,-0.7947,0.2632,500,5.188,4.1504,5.9204,83,1.4227,1.5227,11.8065,-49.7819,36,0.2771,9202,3.9787,21.3469
lg,1624962858084655977,0,-0.1213,-0.9714,0.6064,501,-36.9873,83.0688,47.9126,83,1.4217,1.5257,15.1459,-51.906,36,0.2921,9230,3.9787,19.87
lg,1624962858084673087,0,-0.4829,-0.7261,0.6494,502,-28.6865,84.1064,62.5,83,1.4167,1.5297,19.5954,-53.2628,36,0.2931,10770,3.9787,18.6858
lg,1624962858084690993,0,-0.6829,-0.5757,0.7405,503,-42.6636,11.1084,55.7251,83,1.4107,1.5307,22.3113,-54.0631,36,0.2891,9260,3.9787,19.8878
lg,1624962858084711602,0,-0.5923,-0.9958,0.6438,504,-38.5132,-80.3223,35.8887,83,1.4057,1.5287,21.7716,-54.3065,36,0.2891,9302,3.9787,23.5683
lg,1624962858084729249,0,-0.2043,-1.0891,0.7568,505,-17.5781,-138.1226,21.9727,83,1.4037,1.5257,18.723,-53.1957,36,0.2891,9313,3.9787,28.8608
lg,1624962858084748747,0,-0.0139,-0.8481,0.5239,506,-3.9062,-106.2622,-1.6479,83,1.4027,1.5267,15.4255,-52.5217,36,0.2891,9421,3.9787,32.2998
lg,1624962858084767301,0,0.1143,-0.874,0.4673,507,-3.1128,-89.9048,-1.2207,83,1.4037,1.5287,12.7521,-52.5503,36,0.2901,9460,3.9787,34.3535
lg,1624962858084784892,0,0.2415,-1.0046,0.3589,508,3.3569,-35.8887,-3.1128,83,1.4047,1.5307,10.9185,-52.9209,36,0.2911,9398,3.9787,35.285
lg,1624962858084802853,0,0.1279,-1.0015,0.4089,509,17.5171,54.1992,-15.7471,83,1.4097,1.5307,11.0314,-53.2103,36,0.2921,9447,3.9787,33.0215
lg,1624962858084822259,0,-0.1003,-0.9563,0.3787,510,27.0386,95.2759,-26.8555,83,1.4147,1.5327,12.2256,-53.4863,36,0.2991,9498,3.9787,29.128
lg,1624962858084841109,0,-0.1997,-0.8499,0.5007,511,40.5884,76.2939,-27.8931,83,1.4207,1.5307,13.1208,-52.793,36,0.3001,10118,3.9787,25.8887
lg,1624962858084858793,0,-0.1836,-0.8169,0.3149,512,43.2129,24.353,-35.2783,83,1.4237,1.5317,12.5607,-52.0629,36,0.2881,9459,3.9787,24.0732
lg,1624962858488826029,0,-0.1641,-0.9172,0.5183,513,-12.3291,31.0669,31.3721,83,1.4287,1.5337,15.0446,-53.1166,36,0.2961,28222,3.9787,23.8734
lg,1624962858488866730,0,-0.4346,-0.7927,0.6719,514,-17.7612,22.0947,61.0962,83,1.4237,1.5357,17.8246,-53.461,36,0.2961,9612,3.9787,24.6876
lg,1624962858488887228,0,-0.6499,-0.6235,0.6443,515,-22.9492,-21.6064,45.9595,83,1.4177,1.5357,19.4984,-53.4419,36,0.2991,8803,3.9787,26.6769
lg,1624962858488933594,0,-0.4431,-0.8262,0.6047,516,-23.8037,-109.6802,33.2031,83,1.4147,1.5347,18.101,-52.9232,36,0.2991,8809,3.9787,31.2326
lg,1624962858488955833,0,-0.1182,-1.0073,0.7722,517,-32.7148,-134.8267,33.2642,83,1.4107,1.5347,15.4236,-52.397,36,0.2991,9234,3.9787,36.6247
lg,1624962858488974979,0,0.1216,-0.9299,0.6594,518,-3.1128,-101.5015,24.5972,83,1.4097,1.5357,12.8826,-51.6419,36,0.3001,12408,3.9787,40.5236
lg,1624962858488993644,0,0.3433,-0.998,0.675,519,-0.1831,-30.2734,18.8599,83,1.4107,1.5368,11.6322,-51.4974,36,0.3021,8506,3.9787,41.9354
lg,1624962858489012476,0,0.3232,-1.0168,0.6123,520,4.0894,12.085,10.2539,83,1.4127,1.5368,11.9685,-51.7974,36,0.3021,8823,3.9787,40.2251
lg,1624962858489031215,0,0.1409,-0.9658,0.5381,521,15.8081,83.6792,-11.2305,83,1.4167,1.5357,12.9172,-52.1626,36,0.3041,8977,3.9787,37.1637
lg,1624962858489049325,0,-0.0981,-0.9441,0.491,522,18.7378,117.6758,-28.5034,83,1.4217,1.5347,14.5586,-52.9058,36,0.3061,8950,3.9787,32.5096
lg,1624962858489067675,0,-0.2708,-0.814,0.426,523,33.5693,98.0225,-36.8042,83,1.4257,1.5317,15.8074,-53.0165,36,0.3071,8994,3.9787,28.2547
lg,1624962858489085785,0,-0.3345,-0.7021,0.2812,524,33.4473,22.9492,-37.1094,83,1.4257,1.5277,15.5102,-52.6902,36,0.2931,8985,3.9787,26.4159
lg,1624962858489103246,0,-0.2288,-0.7085,0.3005,525,18.4326,2.4414,-8.728,83,1.4267,1.5227,15.3478,-52.581,36,0.2821,9222,3.9787,25.9691
lg,1624962858489120578,0,-0.1655,-0.7747,0.3008,526,7.6294,-4.6997,9.2163,83,1.4267,1.5217,15.5202,-53.2494,36,0.2791,9018,3.9787,26.5773
lg,1624962858489138521,0,-0.0957,-0.9441,0.6379,527,-27.2827,12.6953,36.438,83,1.4247,1.5237,16.5667,-54.3058,36,0.2921,9043,3.9787,27.0194
lg,1624962858489161648,0,-0.2732,-1.0278,0.7036,528,-27.4048,45.4102,58.5938,83,1.4257,1.5277,19.347,-55.4838,36,0.2961,9100,3.9787,26.8551
lg,1624962858489182424,0,-0.5081,-0.7051,0.5295,529,-18.4937,-3.418,43.8843,83,1.4217,1.5307,21.1301,-55.7134,36,0.2991,9273,3.9787,28.0622
lg,1624962858489200386,0,-0.5469,-0.7017,0.5029,530,-39.6729,-64.209,61.2793,83,1.4197,1.5327,22.1581,-55.8428,36,0.3001,9091,3.9787,31.8516
lg,1624962858489218292,0,-0.1018,-0.8496,0.9224,531,-43.0908,-129.2114,63.6597,83,1.4137,1.5307,20.6637,-54.7581,36,0.3011,12089,3.9787,38.1802
lg,1624962858489236253,0,0.1353,-1.1487,0.8914,532,-41.9312,-115.6616,51.4526,83,1.4117,1.5307,18.6865,-54.5346,36,0.3021,9175,3.9787,43.4912
lg,1624962858489254362,0,0.1707,-0.957,0.4277,533,-0.1831,-82.5195,13.7329,83,1.4107,1.5307,16.1676,-54.053,36,0.3031,9247,3.9787,46.4872
lg,1624962858489290544,0,0.0696,-0.9526,0.4978,534,2.0142,10.0708,13.855,83,1.4117,1.5317,16.0812,-54.3044,36,0.3041,9202,3.9787,46.3896
lg,1624962858489311469,0,0.0071,-0.9565,0.592,535,17.8223,44.4336,4.9438,83,1.4167,1.5337,16.628,-54.1335,36,0.3051,8987,3.9787,44.9589
lg,1624962858489329356,0,-0.0444,-0.9395,0.4663,536,22.522,45.4102,-20.752,83,1.4217,1.5347,16.4594,-54.1947,36,0.3071,11955,3.9787,42.8043
lg,1624962858489346854,0,-0.1099,-0.8447,0.4453,537,40.4053,57.7393,-36.499,83,1.4267,1.5347,16.243,-53.6986,36,0.3082,9411,3.9787,39.8697
lg,1624962858489366927,0,-0.1902,-0.7437,0.2632,538,58.2275,15.686,-45.3491,83,1.4277,1.5317,15.0871,-52.4726,36,0.3061,9370,3.9787,38.0357
lg,1624962858489384203,0,-0.1504,-0.6497,0.3081,539,52.7344,-6.897,-48.0347,83,1.4287,1.5277,13.868,-51.5829,36,0.2881,9358,3.9787,36.9492
lg,1624962858489401498,0,-0.147,-0.7246,0.2981,540,19.043,17.334,-13.1226,83,1.4297,1.5267,13.824,-51.8848,36,0.2891,8998,3.9787,35.8489
lg,1624962858489419496,0,-0.2375,-0.9814,0.5044,541,-26.123,42.6025,22.1558,83,1.4297,1.5257,15.491,-53.5645,36,0.3031,9025,3.9787,34.8961
lg,1624962858489436791,0,-0.532,-0.9524,0.8127,542,-24.7192,64.7583,51.4526,83,1.4287,1.5327,18.9573,-54.6619,36,0.3061,9406,3.9787,33.9953
lg,1624962858489454234,0,-0.665,-0.6846,0.5659,543,-17.5171,-40.4663,45.5322,83,1.4227,1.5337,20.1998,-54.3585,36,0.3071,9417,3.9787,36.5698
lg,1624962858489472103,0,-0.6208,-0.7219,0.54,544,-36.377,-123.5352,55.7251,83,1.4197,1.5347,19.6855,-53.8262,36,0.3102,9496,3.9787,42.2424
lg,1624962858862814803,0,0.4233,-1.1489,0.7454,545,-6.897,-121.46,35.8276,83,1.4127,1.5337,16.5833,-52.6647,36,0.3112,26560,3.9787,47.1857
lg,1624962858862851059,0,0.4197,-1.0159,0.5557,546,-1.5259,-80.8105,14.7705,83,1.4127,1.5347,14.7189,-52.593,36,0.3132,8698,3.9787,48.384
lg,1624962858862871502,0,0.3076,-0.9514,0.4795,547,15.0757,55.7861,-0.1221,83,1.4167,1.5357,14.8991,-52.869,36,0.3142,14386,3.9787,46.4356
lg,1624962858862891130,0,0.0903,-0.9795,0.5557,548,19.7144,120.1782,-16.6016,83,1.4207,1.5357,16.4688,-53.5733,36,0.3152,8829,3.9787,41.9437
lg,1624962858862910221,0,-0.115,-0.9167,0.5908,549,31.7383,133.1177,-35.8276,83,1.4237,1.5357,18.0199,-54.0421,36,0.3162,8915,3.9787,36.5163
lg,1624962858862979696,0,-0.2007,-0.8132,0.3892,550,48.4619,82.7637,-45.8374,83,1.4217,1.5337,18.2676,-53.7491,36,0.3102,8882,3.9787,32.4353
lg,1624962858863000880,0,-0.229,-0.7131,0.2769,551,42.3584,34.4849,-48.7671,83,1.4237,1.5277,17.4702,-53.3714,36,0.2851,10836,3.9787,29.8704
lg,1624962858863018952,0,-0.2173,-0.7583,0.1934,552,9.3384,27.4048,-3.3569,83,1.4227,1.5267,17.971,-54.1678,36,0.2891,9858,3.9787,28.5967
lg,1624962858863036599,0,-0.249,-0.9331,0.5874,553,-32.1655,52.063,42.4805,83,1.4197,1.5297,20.3342,-55.8411,36,0.3011,9003,3.9787,27.7748
lg,1624962858863053597,0,-0.4902,-0.9021,0.7148,554,-22.3999,54.3213,56.7627,83,1.4217,1.5327,23.5204,-56.7766,36,0.3041,9025,3.9787,27.2357
lg,1624962858863071985,0,-0.5962,-0.709,0.5586,555,-17.0288,-46.6919,48.0347,83,1.4207,1.5357,24.4838,-56.0915,36,0.3051,9047,3.9787,30.1836
lg,1624962858863089224,0,-0.425,-0.8035,0.5906,556,-23.3154,-84.9609,50.1709,83,1.4177,1.5357,23.6863,-55.001,36,0.3071,9405,3.9787,35.9288
lg,1624962858863106982,0,-0.083,-0.8225,0.7917,557,-37.5366,-147.2778,64.27,83,1.4137,1.5347,21.3347,-53.9694,36,0.3082,9155,3.9787,42.6922
lg,1624962858863125554,0,0.2405,-0.9778,0.5151,558,-32.4707,-138.5498,52.3682,83,1.4107,1.5307,18.5172,-53.5222,36,0.3082,9435,3.9787,48.6358
lg,1624962858863142849,0,0.3987,-1.0366,0.4961,559,-10.8643,-38.147,42.3584,83,1.4097,1.5317,17.6028,-53.6432,36,0.3092,9085,3.9787,50.8491
lg,1624962858863161273,0,0.2363,-1.0015,0.7312,560,8.8501,82.8857,21.0571,83,1.4107,1.5337,19.1417,-54.0115,36,0.3102,9152,3.9787,48.5462
lg,1624962858863178031,0,0.0781,-0.9099,0.5735,561,21.1792,109.0088,0.4883,83,1.4147,1.5347,20.7809,-54.5951,36,0.3112,9240,3.9787,44.7372
lg,1624962858863195752,0,-0.0898,-0.8755,0.3657,562,19.5312,126.3428,-15.2588,83,1.4177,1.5368,22.5396,-56.129,36,0.3132,9161,3.9787,39.7028
lg,1624962858863213028,0,-0.26,-0.8276,0.4983,563,29.7241,153.9307,-22.1558,83,1.4217,1.5357,24.8397,-57.5238,36,0.3152,9399,3.9787,33.5016
lg,1624962858863229341,0,-0.3372,-0.783,0.4382,564,38.0249,142.7612,-20.6299,83,1.4237,1.5337,27.1468,-58.7734,36,0.3132,8875,3.9787,27.5351
lg,1624962858863246414,0,-0.4309,-0.7361,0.4062,565,35.7056,68.1763,-26.7334,83,1.4257,1.5277,27.6254,-58.9253,36,0.2991,8901,3.9787,24.244
lg,1624962858863275467,0,-0.4404,-0.7615,0.2874,566,6.5918,18.2495,7.3853,86,1.4297,1.5297,28.2892,-59.3097,36,0.3082,9385,3.9765,23.5192
lg,1624962858863293188,0,-0.4492,-0.9956,0.5891,567,-34.3628,9.3994,48.8281,86,1.4287,1.5317,29.8753,-60.3018,36,0.3142,9318,3.9765,24.2727
lg,1624962858863311093,0,-0.511,-0.8274,0.6812,568,-27.5879,-27.0386,64.27,86,1.4267,1.5357,31.3948,-59.6635,36,0.3142,9298,3.9765,27.0609
lg,1624962858863327962,0,-0.5898,-0.6738,0.4275,569,-44.4946,-107.7271,54.0161,86,1.4167,1.5368,31.2427,-58.4134,36,0.3172,9800,3.9765,32.7438
lg,1624962858863345516,0,-0.3567,-0.7891,0.5364,570,-33.6914,-152.71,41.2598,86,1.4087,1.5357,28.9271,-56.1326,36,0.3182,9645,3.9765,39.7776
lg,1624962858863362811,0,0.0432,-1.189,0.9353,571,-53.2837,-184.7534,36.438,86,1.4047,1.5327,24.8046,-54.5606,36,0.3182,9407,3.9765,47.6031
lg,1624962858863379717,0,0.3608,-1.0913,0.771,572,-6.958,-124.4507,11.5967,86,1.4027,1.5317,20.7999,-53.0327,36,0.3172,9085,3.9765,52.2403
lg,1624962858863396753,0,0.3782,-0.9558,0.5266,573,10.6812,-26.123,-12.8174,86,1.4037,1.5327,18.3143,-52.7334,36,0.3192,9142,3.9765,52.6804
lg,1624962858863413603,0,0.303,-0.9451,0.4146,574,14.3433,28.0151,-20.1416,86,1.4047,1.5337,17.2965,-53.2968,36,0.3202,8539,3.9765,51.014
lg,1624962858863430935,0,0.0042,-0.9243,0.3496,575,18.1274,112.7319,-43.6401,86,1.4087,1.5347,17.8536,-54.6978,36,0.3212,8917,3.9765,45.9226
lg,1624962858863447730,0,-0.2959,-0.9365,0.4255,576,24.353,162.7808,-47.1191,86,1.4127,1.5368,19.8934,-56.3519,36,0.3232,8898,3.9765,38.9917
lg,1624962859246638216,0,-0.3601,-0.6536,0.3579,577,41.0156,-48.4619,-29.9072,86,1.4097,1.5347,17.6525,-54.4866,36,0.2991,26289,3.9765,39.935
lg,1624962859246717488,0,-0.0225,-0.8179,0.4138,578,5.8594,-65.0024,0.8545,86,1.4127,1.5327,15.5409,-53.9634,36,0.2901,10333,3.9765,42.0515
lg,1624962859246738227,0,0.0603,-0.8757,0.3594,579,3.0518,-64.4531,10.6201,86,1.4187,1.5307,13.643,-53.7781,36,0.2831,7961,3.9765,44.3153
lg,1624962859246757614,0,0.1335,-0.9294,0.5417,580,-2.4414,-3.7842,32.8369,86,1.4217,1.5307,13.8094,-53.8864,36,0.2821,8003,3.9765,45.1803
lg,1624962859246776668,0,-0.0615,-1.1006,0.7141,581,-20.874,45.5933,35.4614,86,1.4237,1.5317,15.5737,-55.0073,36,0.2891,7956,3.9765,44.468
lg,1624962859246795333,0,-0.2085,-1.0879,0.6775,582,-20.874,40.6494,38.8184,86,1.4267,1.5327,17.4275,-55.5872,36,0.2991,9110,3.9765,44.9223
lg,1624962859246815443,0,-0.2817,-0.7065,0.4565,583,-8.5449,-12.3901,50.1709,86,1.4277,1.5337,18.8404,-55.4694,36,0.3011,8559,3.9765,46.5293
lg,1624962859246932118,0,-0.1892,-0.7144,0.4585,584,-29.2358,-54.5654,67.627,86,1.4257,1.5378,19.5879,-55.5354,36,0.3011,8008,3.9765,50.0332
lg,1624962859246954505,0,-0.0212,-0.9944,0.4883,585,-41.0767,-74.0967,74.8291,86,1.4207,1.5368,19.5214,-56.0476,36,0.2991,8034,3.9765,54.7311
lg,1624962859246973356,0,0.2551,-0.9294,0.5308,586,-32.959,-72.2046,74.585,86,1.4147,1.5357,19.1573,-56.0966,36,0.2991,10505,3.9765,58.9758
lg,1624962859246992113,0,0.4124,-0.8486,0.709,587,-25.5737,-53.2227,56.6406,86,1.4107,1.5337,18.4038,-55.8411,36,0.2971,8414,3.9765,62.2506
lg,1624962859247009704,0,0.2014,-0.887,0.5266,588,-29.8462,11.8408,22.8882,86,1.4057,1.5317,18.3058,-57.122,36,0.2961,8076,3.9765,62.3331
lg,1624962859247028944,0,-0.1484,-0.9946,0.5291,589,-18.3105,75.5615,8.5449,86,1.4027,1.5317,19.7555,-58.863,36,0.2941,8096,3.9765,59.7531
lg,1624962859247047942,0,-0.3201,-0.9348,0.5176,590,-8.0566,79.3457,2.1973,86,1.4007,1.5297,21.2981,-60.268,36,0.2921,8101,3.9765,56.8486
lg,1624962859247066385,0,-0.4297,-0.8669,0.519,591,12.6343,54.7485,6.2866,86,1.3997,1.5317,22.6542,-60.422,36,0.2891,8111,3.9765,54.9477
lg,1624962859247084883,0,-0.4004,-0.8381,0.5801,592,9.5825,4.3945,7.9346,86,1.3987,1.5307,22.966,-59.8178,36,0.2881,8913,3.9765,55.0372
lg,1624962859247104160,0,-0.3521,-0.8831,0.4597,593,4.9438,-18.2495,12.8784,86,1.3967,1.5317,23.0074,-59.2159,36,0.2891,8903,3.9765,56.4497
lg,1624962859247122473,0,-0.2036,-0.8467,0.4507,594,5.9204,-24.1089,29.3579,86,1.3937,1.5327,23.0434,-58.2574,36,0.2891,8934,3.9765,58.2932
lg,1624962859247139860,0,0.093,-0.8633,0.5967,595,15.7471,-27.71,40.0391,86,1.3947,1.5337,22.7276,-56.738,36,0.2901,10518,3.9765,60.2765
lg,1624962859247157544,0,0.3181,-0.9736,0.6956,596,20.6299,5.6152,19.8364,86,1.3987,1.5337,22.1222,-55.7089,36,0.2911,9168,3.9765,60.5736
lg,1624962859247175209,0,0.1782,-1.01,0.6064,597,32.2266,84.9609,-6.5918,86,1.4057,1.5307,22.6398,-55.7707,36,0.2931,9212,3.9765,57.3182
lg,1624962859247192597,0,-0.1191,-0.9924,0.4534,598,37.2925,135.9863,-36.6211,86,1.4117,1.5257,23.7733,-56.974,36,0.2911,9259,3.9765,51.3532
lg,1624962859247234075,0,-0.2917,-0.8328,0.6421,599,53.833,143.1885,-40.6494,86,1.4187,1.5177,25.1666,-57.2127,36,0.2741,10364,3.9765,45.1796
lg,1624962859247262647,0,-0.3308,-0.678,0.3413,600,67.0776,94.6045,-33.8135,86,1.4187,1.5097,26.0178,-56.6416,36,0.2641,9286,3.9765,40.7424
lg,1624962859247283034,0,-0.415,-0.7095,0.345,601,33.6304,76.4771,-35.3394,86,1.4217,1.5007,26.5592,-57.2267,36,0.2541,9315,3.9765,36.897
lg,1624962859247302977,0,-0.397,-0.7205,0.4033,602,18.7988,67.2607,-12.8784,86,1.4257,1.4957,28.0838,-58.1889,36,0.2491,9060,3.9765,34.6723
lg,1624962859247320327,0,-0.3855,-0.8301,0.4272,603,-7.7515,58.8989,26.3062,86,1.4277,1.4957,29.9619,-59.4924,36,0.2561,9366,3.9765,32.8985
lg,1624962859247339863,0,-0.5427,-1.1001,0.7363,604,-36.0718,52.4292,45.6543,86,1.4297,1.4997,32.3435,-60.8231,36,0.2611,11262,3.9765,32.9028
lg,1624962859247356824,0,-0.6025,-1.0164,0.5681,605,-31.4331,-9.2773,62.5,86,1.4277,1.5087,33.3058,-60.255,36,0.2711,9485,3.9765,36.2691
lg,1624962859247376508,0,-0.7581,-0.7698,0.4907,606,-38.147,-76.355,50.1709,86,1.4207,1.5147,33.7341,-59.1993,36,0.2731,9506,3.9765,40.7379
lg,1624962859247395025,0,-0.6628,-0.8333,0.5222,607,-54.6875,-172.3022,67.5049,86,1.4127,1.5177,32.3914,-56.571,36,0.2761,9116,3.9765,49.4596
lg,1624962859247438855,0,0.0015,-0.8408,0.7307,608,-33.6914,-265.2588,51.4526,86,1.4067,1.5147,26.706,-52.0208,36,0.2751,9539,3.9765,60.8677
lg,1624962859635629635,0,0.2876,-1.1011,0.6279,609,-4.4556,-23.6206,-1.1597,86,1.4027,1.5197,26.2189,-52.3978,36,0.2781,28308,3.9765,59.4474
lg,1624962859635662650,0,0.2141,-0.9351,0.5232,610,37.4146,76.7212,-3.54,86,1.4077,1.5217,26.5846,-52.5094,36,0.2801,11555,3.9765,56.4689
lg,1624962859635683426,0,0.0449,-0.8367,0.3418,611,42.1753,110.5347,-25.5737,86,1.4117,1.5237,27.3165,-53.5945,36,0.2821,10550,3.9765,51.519
lg,1624962859635703147,0,-0.1956,-0.8289,0.4021,612,34.4238,148.5596,-35.2783,86,1.4157,1.5227,28.984,-55.6996,36,0.2841,8862,3.9765,44.8918
lg,1624962859635722071,0,-0.415,-0.7344,0.5559,613,50.8423,131.5308,-28.9917,86,1.4197,1.5207,30.743,-56.4219,36,0.2721,8875,3.9765,39.1684
lg,1624962859635739959,0,-0.4731,-0.7249,0.564,614,31.0669,66.9556,-18.6768,86,1.4187,1.5167,31.4441,-56.5892,36,0.2691,11861,3.9765,36.1715
lg,1624962859635757680,0,-0.3718,-0.8503,0.5815,615,20.6909,24.4751,-6.4697,86,1.4187,1.5137,31.3021,-56.2936,36,0.2631,8971,3.9765,35.0733
lg,1624962859635798936,0,-0.3743,-0.8411,0.5076,616,-1.6479,-8.1177,6.897,86,1.4197,1.5137,30.935,-56.2013,36,0.2661,8989,3.9765,35.5158
lg,1624962859635818693,0,-0.4243,-0.9019,0.5913,617,-26.8555,-21.6675,47.3633,86,1.4217,1.5167,31.6485,-56.2011,36,0.2711,9010,3.9765,37.5847
lg,1624962859635837618,0,-0.4299,-0.8823,0.584,618,-33.02,-66.2842,74.2188,86,1.4237,1.5217,32.2292,-55.1044,36,0.2711,9836,3.9765,42.1346
lg,1624962859635855764,0,-0.3872,-0.8076,0.4165,619,-48.7061,-111.5723,80.1392,86,1.4137,1.5257,31.909,-53.9116,36,0.2791,10288,3.9765,48.4496
lg,1624962859635874355,0,-0.1191,-0.856,0.8113,620,-47.7295,-130.188,87.0972,86,1.4117,1.5247,30.5577,-51.6734,36,0.2781,9078,3.9765,55.9302
lg,1624962859635891909,0,0.1172,-0.9863,0.5261,621,-21.4844,-133.2397,56.9458,86,1.4077,1.5247,27.6403,-49.8859,36,0.2811,9093,3.9765,62.053
lg,1624962859635909352,0,0.2913,-1.1438,0.8867,622,-41.1377,-114.8682,40.4053,86,1.4067,1.5257,24.3334,-49.1637,36,0.2801,8711,3.9765,65.3876
lg,1624962859635967792,0,0.269,-1.0039,0.5247,623,4.5166,-48.4619,1.5259,86,1.4087,1.5257,21.7505,-48.8852,36,0.2821,9132,3.9765,66.7947
lg,1624962859635988365,0,0.2485,-0.9834,0.5623,624,18.8599,22.8882,-4.8828,86,1.4107,1.5277,20.9398,-48.9121,36,0.2841,9127,3.9765,65.7404
lg,1624962859636006548,0,0.1194,-0.9382,0.3765,625,26.7334,74.2188,-32.1045,86,1.4167,1.5277,20.8713,-49.8092,36,0.2851,8773,3.9765,62.1536
lg,1624962859636024306,0,-0.1311,-0.8828,0.4153,626,36.5601,130.188,-45.5322,86,1.4217,1.5257,22.2663,-51.0109,36,0.2861,9304,3.9765,56.37
lg,1624962859636041712,0,-0.3938,-0.7666,0.3115,627,45.7764,106.5063,-49.7437,86,1.4247,1.5217,23.5059,-51.7521,36,0.2871,8802,3.9765,51.1628
lg,1624962859636058766,0,-0.4609,-0.6802,0.3235,628,43.1519,75.1953,-46.936,86,1.4257,1.5157,24.2755,-51.5875,36,0.2751,8829,3.9765,48.2827
lg,1624962859636076691,0,-0.4712,-0.6052,0.4392,629,22.583,38.6353,-15.3198,86,1.4237,1.5117,25.0589,-51.4955,36,0.2711,9187,3.9765,46.498
lg,1624962859636094004,0,-0.4709,-0.8464,0.4155,630,-15.3809,2.9907,13.1836,86,1.4247,1.5157,25.6177,-52.4692,36,0.2771,9226,3.9765,46.551
lg,1624962859636111280,0,-0.5999,-1.1453,0.7939,631,-39.1846,17.7002,57.4341,86,1.4267,1.5207,27.775,-53.7231,36,0.2821,9258,3.9765,47.4114
lg,1624962859636128816,0,-0.6963,-0.8674,0.6409,632,-21.7285,-66.9556,67.688,86,1.4207,1.5247,28.5377,-52.5478,36,0.2891,9322,3.9765,51.6972
lg,1624962859636160776,0,-0.3889,-0.4905,0.8767,633,-20.6299,-158.1421,52.9785,86,1.4157,1.5257,25.9924,-49.1923,36,0.2831,8955,3.9765,59.1805
lg,1624962859636179201,0,-0.0752,-1.0588,0.6919,634,-27.2217,-202.8809,39.4287,86,1.4107,1.5257,20.3389,-48.7031,36,0.2831,8962,3.9765,67.292
lg,1624962859636196403,0,0.1118,-1.0701,0.5427,635,-41.3208,-230.1025,26.123,86,1.4077,1.5227,13.8435,-48.5295,36,0.2811,9059,3.9765,75.0467
lg,1624962859636214161,0,0.4194,-1.0552,0.6187,636,-21.8506,-136.1694,17.2729,86,1.4057,1.5237,9.5002,-49.0267,36,0.2811,10018,3.9765,79.5615
lg,1624962859636231493,0,0.4187,-0.9153,0.3799,637,-5.249,-24.7803,0,86,1.4057,1.5247,7.6576,-49.7819,36,0.2811,9469,3.9765,80.2194
lg,1624962859636248103,0,0.3459,-0.96,0.5291,638,5.0049,68.5425,-7.3242,86,1.4077,1.5257,8.2202,-50.3218,36,0.2831,10333,3.9765,77.8491
lg,1624962859636265397,0,0.1113,-0.98,0.4167,639,9.0942,133.728,-22.8271,86,1.4117,1.5277,10.3215,-51.3751,36,0.2851,9463,3.9765,72.9688
lg,1624962859636374685,0,-0.1426,-1.002,0.408,640,15.9302,161.6821,-35.0342,86,1.4157,1.5277,13.0739,-52.6154,36,0.2921,9456,3.9765,66.7673
lg,1624962860022191149,0,-0.2588,-0.7566,0.5227,641,53.6499,41.8091,-18.8599,86,1.4047,1.5107,12.7607,-50.8648,36,0.2651,28196,3.9765,65.9177
lg,1624962860022229757,0,-0.0674,-0.8782,0.4507,642,44.0674,1.0986,-29.9072,86,1.4147,1.4927,11.5292,-49.7474,36,0.2501,9580,3.9765,64.9954
lg,1624962860022250811,0,-0.0173,-0.8406,0.3408,643,44.9829,15.564,-3.1128,86,1.4257,1.4777,11.4484,-48.7782,36,0.2401,8476,3.9765,64.2823
lg,1624962860022270625,0,-0.0383,-0.5959,0.3115,644,29.541,48.8281,24.353,86,1.4337,1.4697,13.1494,-48.3136,36,0.2371,10437,3.9765,63.3296
lg,1624962860022289882,0,-0.2561,-0.7556,0.4424,645,-16.5405,91.9189,54.5654,86,1.4347,1.4687,17.3177,-49.7738,35,0.2431,8541,3.9765,61.8234
lg,1624962860022309010,0,-0.5144,-1.062,0.7783,646,-49.8657,88.4399,78.125,86,1.4297,1.4737,22.105,-52.189,35,0.2471,10819,3.9765,60.9341
lg,1624962860022327713,0,-0.8008,-0.7891,0.5344,647,-35.5225,-9.9487,83.374,86,1.4277,1.4827,25.1969,-52.6876,35,0.2521,8948,3.9765,63.447
lg,1624962860022345545,0,-0.8264,-0.6118,0.4702,648,-42.8467,-67.5659,88.8672,86,1.4217,1.4937,26.1599,-51.8579,35,0.2601,8892,3.9765,70.1957
lg,1624962860022364377,0,-0.7017,-0.7317,0.5669,649,-73.7305,-161.8042,102.7832,86,1.4087,1.5007,25.7994,-51.0807,36,0.2611,8945,3.9765,78.6766
lg,1624962860022383875,0,0.0295,-1.0352,1.061,650,-82.8247,-243.7134,107.4829,86,1.3997,1.5027,21.9007,-49.5598,36,0.2571,9004,3.9765,89.9752
lg,1624962860022402837,0,0.4768,-0.9778,0.5718,651,-28.7476,-195.6177,66.4673,86,1.3947,1.5047,17.211,-48.3674,36,0.2571,9041,3.9765,97.9202
lg,1624962860022445204,0,0.342,-1.0955,0.707,652,-22.7051,-31.0669,27.71,86,1.3927,1.5047,16.0311,-49.1085,36,0.2561,9057,3.9765,99.5619
lg,1624962860022466239,0,0.1292,-1.0867,0.6548,653,-12.8174,16.7236,-16.6016,86,1.3937,1.5077,15.1162,-50.2689,36,0.2581,11924,3.9765,98.4851
lg,1624962860022483886,0,0.0037,-0.9006,0.3335,654,5.188,71.9604,-23.5596,86,1.3927,1.5087,15.6146,-51.6103,36,0.2591,9089,3.9765,95.3511
lg,1624962860022514791,0,-0.1133,-0.8662,0.2742,655,4.9438,99.1211,-28.3813,86,1.3947,1.5107,17.1943,-53.5545,36,0.2601,9067,3.9765,90.9696
lg,1624962860022535752,0,-0.2634,-0.8335,0.1489,656,8.9111,110.3516,-20.1416,86,1.3967,1.5117,19.1402,-55.5361,36,0.2621,8870,3.9765,86.3897
lg,1624962860022554084,0,-0.4058,-0.7659,0.28,657,20.0195,113.5864,-2.1973,86,1.3987,1.5127,21.8829,-56.6973,36,0.2621,8910,3.9765,82.1265
lg,1624962860022571731,0,-0.3823,-0.7424,0.6101,658,18.3105,68.9697,11.0474,86,1.4017,1.5137,23.7478,-56.5773,36,0.2621,8925,3.9765,79.9802
lg,1624962860022589526,0,-0.2236,-0.9629,0.7324,659,13.0005,31.9214,8.667,86,1.4047,1.5137,23.3614,-55.9578,36,0.2591,8379,3.9765,79.9268
lg,1624962860022607451,0,-0.1274,-1.0005,0.729,660,21.5454,-8.2397,-8.8501,86,1.4057,1.5117,22.0901,-55.0603,36,0.2581,9276,3.9765,80.001
lg,1624962860022624634,0,-0.0056,-1.0042,0.5938,661,43.5791,-8.5449,-29.1138,86,1.4057,1.5077,20.1035,-53.6518,36,0.2561,8742,3.9765,79.4965
lg,1624962860022641781,0,-0.1038,-1.0166,0.5088,662,51.2085,20.9961,-56.5796,86,1.4157,1.5007,18.219,-52.7096,36,0.2501,8941,3.9765,77.2099
lg,1624962860022658854,0,-0.0911,-0.886,0.3726,663,71.167,19.8364,-22.8882,86,1.4257,1.4967,17.507,-50.838,36,0.2441,9243,3.9765,75.7676
lg,1624962860022675538,0,-0.134,-0.5007,0.3477,664,50.9033,28.1372,-4.2114,86,1.4307,1.4947,17.8923,-49.2837,36,0.2441,8725,3.9765,74.6927
lg,1624962860022692352,0,-0.2146,-0.4912,0.3892,665,14.5264,36.0107,10.0098,86,1.4337,1.4957,19.1665,-49.0618,36,0.2511,8391,3.9765,73.7909
lg,1624962860022709369,0,-0.3455,-0.9685,0.6182,666,-44.1284,34.3018,43.396,86,1.4337,1.4997,21.2744,-51.1254,36,0.2551,8753,3.9765,73.7432
lg,1624962860023132170,0,-0.637,-1.0579,0.6714,667,-41.0767,14.5264,60.791,86,1.4307,1.5057,23.7619,-52.5662,36,0.2631,9174,3.9765,74.7796
lg,1624962860023169463,0,-0.8152,-0.6646,0.5125,668,-36.8042,-66.7725,65.1245,86,1.4217,1.5107,24.9946,-52.3332,36,0.2641,8879,3.9765,78.8582
lg,1624962860023190684,0,-0.8281,-0.6455,0.5881,669,-49.2554,-112.915,70.3125,86,1.4097,1.5137,23.7235,-51.3853,36,0.2621,8472,3.9765,87.1894
lg,1624962860023214052,0,-0.4202,-0.9026,0.5627,670,-68.6035,-236.9995,92.9565,86,1.4007,1.5127,20.5881,-50.4269,36,0.2641,8866,3.9765,97.5469
lg,1624962860023233921,0,0.4141,-0.8777,0.6497,671,-32.1045,-283.8135,63.1714,86,1.3937,1.5067,13.6949,-48.6577,36,0.2621,9450,3.9765,108.2057
lg,1624962860023255364,0,0.8301,-1.2158,0.8442,672,-54.5654,-152.8931,42.1753,86,1.3927,1.5037,9.4566,-49.8652,36,0.2611,11131,3.9765,114.0174
lg,1624962860405556113,0,0.0317,-0.8525,0.3066,673,38.0249,141.9067,-6.2866,86,1.3987,1.5097,13.0695,-50.1077,36,0.2621,27514,3.9765,108.8184
lg,1624962860405591388,0,-0.3491,-0.8464,0.4106,674,31.4941,181.3965,-7.7515,86,1.4027,1.5117,17.7065,-50.9741,36,0.2631,8726,3.9765,102.6796
lg,1624962860405612294,0,-0.5366,-0.8364,0.584,675,33.5693,141.4185,-13.0005,86,1.4067,1.5127,21.2112,-51.4487,36,0.2581,7996,3.9765,97.6079
lg,1624962860405632071,0,-0.519,-0.7505,0.5593,676,40.5273,42.7246,-14.5264,86,1.4107,1.5137,22.1317,-50.5614,36,0.2551,10441,3.9765,95.7654
lg,1624962860405651495,0,-0.3381,-0.8186,0.5723,677,36.0107,0.061,-11.9629,86,1.4127,1.5127,21.0648,-49.243,36,0.2541,8934,3.9765,96.4933
lg,1624962860405669919,0,-0.2183,-0.8379,0.5042,678,26.6724,-52.4902,-6.2866,86,1.4187,1.5117,19.0796,-48.1305,36,0.2531,8525,3.9765,97.826
lg,1624962860405687474,0,-0.0964,-0.8245,0.4573,679,20.3857,-37.7808,13.0005,86,1.4247,1.5107,17.9498,-47.345,36,0.2541,8881,3.9765,99.2007
lg,1624962860405705491,0,-0.0901,-0.885,0.5808,680,7.2021,13.855,25.8789,86,1.4297,1.5117,18.5742,-47.3379,36,0.2551,8950,3.9765,99.3887
lg,1624962860405725786,0,-0.228,-0.9348,0.6707,681,-2.3193,34.5459,25.6958,86,1.4317,1.5117,19.9675,-47.8207,36,0.2591,10417,3.9765,98.9497
lg,1624962860405745654,0,-0.4124,-1.147,0.7952,682,-30.2124,15.7471,35.4614,86,1.4317,1.5167,21.3041,-49.1387,36,0.2691,8969,3.9765,99.348
lg,1624962860405764523,0,-0.5095,-1.0002,0.5161,683,-36.6211,-58.1665,40.5273,86,1.4267,1.5207,21.1733,-50.0105,36,0.2671,9019,3.9765,102.1905
lg,1624962860405783800,0,-0.4456,-0.7146,0.5076,684,-30.9448,-112.1216,37.2925,86,1.4147,1.5227,19.6691,-49.7686,36,0.2641,9237,3.9765,106.823
lg,1624962860405802076,0,0.0862,-0.6448,0.8059,685,-33.6914,-151.8555,38.7573,86,1.4077,1.5197,14.5876,-48.5021,36,0.2601,9045,3.9765,113.334
lg,1624962860405820389,0,0.0588,-0.7502,0.2434,686,-14.9536,-193.2983,-2.9907,86,1.4037,1.5157,8.7395,-48.8267,36,0.2671,9066,3.9765,118.9523
lg,1624962860405838740,0,0.0957,-0.9299,0.3423,687,-39.0625,-109.6191,-20.1416,86,1.4007,1.5157,6.66,-50.5972,36,0.2681,9600,3.9765,119.7978
lg,1624962860405856016,0,-0.239,-0.9878,0.1716,688,0.4883,-6.2866,-3.54,86,1.3997,1.5177,6.3556,-50.9265,36,0.2681,9074,3.9765,119.8622
lg,1624962860405873163,0,0.0315,-0.9658,0.7576,689,34.6069,25.2075,34.3018,86,1.4007,1.5197,7.7394,-49.5596,36,0.2671,8706,3.9765,119.9533
lg,1624962860405890403,0,0.2737,-0.821,0.5825,690,28.0151,11.1084,22.8271,86,1.4037,1.5217,7.8321,-48.5921,36,0.2681,9159,3.9765,120.1806
lg,1624962860405907235,0,0.1792,-0.9592,0.4763,691,17.0898,87.4634,0.9155,86,1.4077,1.5237,9.4839,-48.8834,36,0.2701,9161,3.9765,117.4602
lg,1624962860405964804,0,-0.1006,-0.9819,0.4922,692,17.7612,148.4375,-14.8315,86,1.4127,1.5237,12.7216,-49.7004,36,0.2671,8778,3.9765,112.3814
lg,1624962860406007486,0,-0.2451,-0.8098,0.6157,693,25.4517,151.4893,-17.7002,86,1.4167,1.5227,15.6307,-49.6443,36,0.2631,9203,3.9765,107.5542
lg,1624962860406026670,0,-0.3101,-0.7302,0.5703,694,35.4004,110.7178,-22.2778,86,1.4187,1.5227,17.981,-49.626,36,0.2591,9239,3.9765,103.368
lg,1624962860406044594,0,-0.3281,-0.7485,0.4478,695,24.8413,60.9131,-12.9395,86,1.4177,1.5207,19.2616,-49.7328,36,0.2561,9253,3.9765,100.9393
lg,1624962860406062704,0,-0.2949,-0.7944,0.4712,696,7.6294,52.1851,1.5869,86,1.4157,1.5197,20.5843,-50.3655,36,0.2571,9288,3.9765,99.1528
lg,1624962860406080314,0,-0.3979,-0.9121,0.5461,697,-30.8838,50.7202,25.2075,86,1.4197,1.5217,22.6273,-52.3112,36,0.2641,9283,3.9765,98.0013
lg,1624962860406098276,0,-0.6375,-1.0015,0.6011,698,-48.0347,54.4434,62.3169,86,1.4197,1.5247,26.1458,-54.5934,36,0.2721,8963,3.9765,97.6005
lg,1624962860406116348,0,-0.8096,-0.7983,0.541,699,-52.6733,14.8926,70.8008,86,1.4127,1.5277,28.1414,-55.0703,36,0.2731,8426,3.9765,101.1735
lg,1624962860406134476,0,-0.5564,-0.625,0.998,700,-45.8374,-97.9614,77.4536,86,1.4067,1.5277,28.3284,-53.2884,36,0.2661,9192,3.9765,107.2775
lg,1624962860406151920,0,-0.2495,-0.9553,0.7334,701,-52.5513,-177.7954,56.2134,86,1.4017,1.5227,25.167,-51.8034,36,0.2671,9172,3.9765,115.1454
lg,1624962860406170066,0,0.1021,-1.1401,0.5298,702,-30.0293,-200.3784,22.1558,86,1.3997,1.5237,19.7788,-50.7387,36,0.2691,8830,3.9765,122.2634
lg,1624962860406188935,0,0.2322,-1.0337,0.4644,703,-12.4512,-106.1401,-10.6812,86,1.4007,1.5247,15.6239,-50.8624,36,0.2691,9341,3.9765,125.2355
lg,1624962860406207878,0,0.2317,-0.9492,0.2515,704,7.6904,-23.2544,-11.5967,86,1.4017,1.5267,13.6358,-51.3717,36,0.2711,8960,3.9765,125.4354
lg,1624962860785978562,0,-0.1399,-0.9175,0.4072,705,22.1558,100.1587,-24.0479,86,1.4117,1.5287,15.2714,-51.9985,36,0.2721,28258,3.9765,121.44
lg,1624962860786014893,0,-0.24,-0.9062,0.4463,706,20.9961,76.2939,-26.7944,86,1.4157,1.5287,15.8179,-52.0468,36,0.2831,8749,3.9765,118.9082
lg,1624962860786035817,0,-0.2253,-0.8665,0.4443,707,37.8418,30.9448,-18.7378,86,1.4177,1.5267,15.8895,-51.3638,36,0.2811,8151,3.9765,117.2988
lg,1624962860786056797,0,-0.1006,-0.7764,0.4204,708,49.0112,-3.418,-13.4888,86,1.4147,1.5237,15.0241,-49.8776,36,0.2721,8318,3.9765,116.9377
lg,1624962860786075555,0,-0.0444,-0.7769,0.417,709,45.4102,4.3945,-12.3901,86,1.4127,1.5207,14.2961,-48.6585,36,0.2651,8674,3.9765,116.3367
lg,1624962860786093979,0,-0.1475,-0.7817,0.4163,710,38.3301,26.001,-10.1318,86,1.4177,1.5167,15.3592,-48.4867,36,0.2611,9341,3.9765,114.7009
lg,1624962860786111867,0,-0.2129,-0.7759,0.4324,711,17.8223,56.9458,14.4043,86,1.4217,1.5137,17.223,-48.646,36,0.2611,8890,3.9765,113.1846
lg,1624962860786130162,0,-0.3396,-0.8254,0.6895,712,-4.0283,59.021,35.0952,86,1.4237,1.5157,19.8285,-49.1409,36,0.2661,7986,3.9765,112.2604
lg,1624962860786215470,0,-0.4978,-0.9929,0.7649,713,-26.6724,23.0713,53.5278,86,1.4267,1.5187,22.1188,-50.0583,36,0.2771,8359,3.9765,112.9475
lg,1624962860786236468,0,-0.53,-0.8901,0.6001,714,-19.2261,-16.3574,56.5796,86,1.4257,1.5217,23.6001,-50.2177,36,0.2771,8011,3.9765,114.9814
lg,1624962860786254782,0,-0.4858,-0.6187,0.5308,715,-18.1885,-73.6694,60.9131,86,1.4207,1.5257,23.8433,-49.2152,36,0.2791,8791,3.9765,119.1801
lg,1624962860786273669,0,-0.3569,-0.8503,0.5671,716,-45.2271,-114.9292,68.2373,86,1.4197,1.5277,22.736,-49.0268,36,0.2791,8458,3.9765,124.798
lg,1624962860786291890,0,-0.2422,-0.9949,0.5437,717,-51.4526,-140.3809,70.6177,86,1.4147,1.5277,20.1102,-48.8293,36,0.2801,8103,3.9765,131.6028
lg,1624962860786309518,0,0.2324,-0.9189,0.7727,718,-33.9966,-144.8364,67.9932,86,1.4117,1.5257,17.1565,-48.1493,36,0.2811,8119,3.9765,138.0603
lg,1624962860786329017,0,0.2881,-0.9485,0.4819,719,-21.5454,-79.5288,31.7383,86,1.4087,1.5257,14.8109,-48.6609,36,0.2811,8882,3.9765,141.2451
lg,1624962860786347626,0,0.1514,-1.0774,0.4827,720,-8.7891,-3.54,14.8315,86,1.4087,1.5237,15.3012,-49.6283,36,0.2821,13446,3.9765,140.1077
lg,1624962860786365495,0,-0.1255,-0.9834,0.3359,721,10.6812,56.1523,3.9062,86,1.4097,1.5247,16.5562,-50.5145,36,0.2811,9166,3.9765,138.192
lg,1624962860786383179,0,-0.166,-0.834,0.3152,722,27.5269,54.3823,17.7002,86,1.4107,1.5267,18.3709,-50.3192,36,0.2831,9315,3.9765,137.026
lg,1624962860786401678,0,-0.1172,-0.73,0.3992,723,27.0996,28.0151,23.3154,86,1.4117,1.5277,19.401,-49.7694,36,0.2841,9133,3.9765,136.6035
lg,1624962860786419565,0,-0.0684,-0.7922,0.5952,724,12.6953,20.6909,28.3203,86,1.4127,1.5267,20.188,-49.353,36,0.2841,9312,3.9765,136.6646
lg,1624962860786437194,0,-0.0908,-0.9233,0.7725,725,-9.5215,28.4424,24.6582,86,1.4117,1.5287,21.0455,-49.8364,36,0.2841,9185,3.9765,136.4125
lg,1624962860786454378,0,-0.356,-0.9353,0.7605,726,-10.1318,51.3306,21.4844,86,1.4077,1.5267,22.8219,-50.6857,36,0.2841,9233,3.9765,135.2864
lg,1624962860786472802,0,-0.4944,-0.8101,0.7224,727,-10.5591,14.5874,8.9111,86,1.4037,1.5217,23.5251,-51.0973,36,0.2851,9265,3.9765,135.0783
lg,1624962860786491782,0,-0.5466,-0.8318,0.6719,728,-7.9956,-29.6631,-5.6763,86,1.4027,1.5187,22.7443,-51.0682,36,0.2871,9274,3.9765,135.9364
lg,1624962860786510151,0,-0.4473,-0.9509,0.6091,729,-1.4648,-42.3584,2.3804,86,1.4027,1.5197,21.713,-50.8008,36,0.2871,9266,3.9765,137.3336
lg,1624962860786527631,0,-0.3862,-0.925,0.4548,730,6.5918,-64.0259,1.6479,86,1.4037,1.5207,19.5963,-49.9478,36,0.2881,8949,3.9765,139.6532
lg,1624962860786545556,0,-0.1001,-0.8628,0.4514,731,21.6064,-65.3687,1.6479,86,1.4057,1.5227,17.4343,-48.9077,36,0.2891,8970,3.9765,141.6223
lg,1624962860786563425,0,0.1484,-0.8989,0.4812,732,18.2495,-32.7148,0.6714,86,1.4107,1.5257,15.625,-48.3979,36,0.2881,9002,3.9765,142.5059
lg,1624962860786612495,0,0.1853,-0.9783,0.4536,733,10.0708,19.4092,-20.9351,86,1.4137,1.5267,14.5542,-48.9592,36,0.2881,9000,3.9765,141.1535
lg,1624962860786640678,0,0.1416,-1.0073,0.5205,734,28.9307,65.1245,-32.2876,86,1.4167,1.5267,14.452,-49.0747,36,0.2871,9028,3.9765,138.1072
lg,1624962860786663954,0,0.0212,-0.9312,0.2542,735,51.0254,61.1572,-51.8188,86,1.4167,1.5247,13.9248,-48.8536,36,0.2731,9504,3.9765,134.5458
lg,1624962860786681897,0,-0.1086,-0.8096,0.2476,736,50.0488,69.8853,-50.4761,86,1.4217,1.5217,14.0228,-48.6506,36,0.2641,9479,3.9765,130.7793
lg,1624962861177538517,0,-0.4285,-0.9463,0.6726,737,-33.8135,121.3989,59.1431,86,1.4227,1.5217,19.1822,-50.8696,36,0.2731,28441,3.9765,128.4365
lg,1624962861177580217,0,-0.9299,-0.9375,0.5901,738,-28.2593,-13.1226,81.2988,86,1.4197,1.5267,22.1869,-51.2846,36,0.2741,10915,3.9765,130.9783
lg,1624962861177600753,0,-0.8706,-0.4866,0.6196,739,-31.7383,-139.8926,98.6328,86,1.4097,1.5297,22.6624,-49.3364,36,0.2781,11433,3.9765,138.5271
lg,1624962861177678210,0,-0.2124,-0.6577,0.7617,740,-36.5601,-273.2544,72.876,86,1.4047,1.5287,17.1575,-46.7935,36,0.2711,8842,3.9765,149.3556
lg,1624962861177698727,0,0.322,-1.1084,0.8342,741,-75.1343,-289.7339,48.584,86,1.4007,1.5267,9.6293,-47.6895,36,0.2701,8891,3.9765,159.3625
lg,1624962861177718078,0,0.4507,-1.0647,0.4919,742,-41.5649,-245.2393,32.6538,86,1.3987,1.5267,4.5358,-48.7877,36,0.2711,8900,3.9765,164.2615
lg,1624962861177736836,0,0.3235,-1.0898,0.4824,743,-15.1978,-69.397,-0.1221,86,1.3977,1.5267,1.9768,-49.9158,36,0.2741,8603,3.9765,166.326
lg,1624962861177755557,0,0.1267,-0.9368,0.4644,744,13.7939,52.6123,1.8921,86,1.3977,1.5247,3.0313,-49.9581,36,0.2781,10129,3.9765,164.74
lg,1624962861177774481,0,-0.1511,-0.864,0.4607,745,16.4185,106.9946,-7.0801,86,1.3977,1.5287,5.7765,-50.0247,36,0.2781,8929,3.9765,161.2412
lg,1624962861177792554,0,-0.22,-0.8506,0.4253,746,15.9912,92.8345,-3.418,86,1.3997,1.5307,8.3262,-50.2557,36,0.2751,8971,3.9765,158.2249
lg,1624962861177810867,0,-0.2551,-0.9126,0.4741,747,16.1133,80.3833,-3.0518,86,1.4027,1.5317,10.496,-50.5012,36,0.2801,8979,3.9765,155.5633
lg,1624962861177829107,0,-0.2795,-0.9182,0.4387,748,16.1743,69.2139,-7.5073,86,1.4057,1.5317,11.7425,-50.5868,36,0.2841,9004,3.9765,153.4377
lg,1624962861177848124,0,-0.2954,-0.8975,0.4836,749,23.5596,37.7197,-9.9487,86,1.4087,1.5307,12.5702,-50.3701,36,0.2821,9048,3.9765,151.9013
lg,1624962861177866678,0,-0.1384,-0.8081,0.6008,750,30.3345,1.709,-4.8828,86,1.4117,1.5297,12.2754,-49.3076,36,0.2721,9059,3.9765,151.693
lg,1624962861177883955,0,-0.0376,-0.8401,0.5479,751,33.8135,-0.5493,-15.9302,86,1.4057,1.5277,11.3852,-48.3377,36,0.2671,9079,3.9765,151.215
lg,1624962861177931877,0,-0.0457,-0.9458,0.5422,752,31.311,26.4282,-34.1797,86,1.4077,1.5237,10.7224,-47.8843,36,0.2631,9078,3.9765,149.3894
lg,1624962861177953191,0,-0.1733,-0.8884,0.4644,753,37.1704,49.6216,-23.3154,86,1.4147,1.5197,11.3385,-47.3704,36,0.2571,8781,3.9765,147.1482
lg,1624962861177971467,0,-0.2434,-0.7444,0.3455,754,33.4473,48.1567,-8.3008,86,1.4177,1.5177,13.3705,-47.3077,36,0.2611,9154,3.9765,146.0113
lg,1624962861177990262,0,-0.4507,-0.6926,0.5774,755,-10.498,40.2832,30.3345,86,1.4187,1.5197,15.8592,-47.9184,36,0.2641,8810,3.9765,145.5978
lg,1624962861178008798,0,-0.5691,-0.9883,0.7241,756,-36.499,9.8877,77.0874,86,1.4187,1.5247,18.792,-49.0927,36,0.2731,9948,3.9765,147.3447
lg,1624962861178025926,0,-0.5237,-0.8667,0.5667,757,-40.4663,-91.6138,78.186,86,1.4127,1.5277,19.0974,-49.328,36,0.2671,9210,3.9765,152.3472
lg,1624962861178043832,0,-0.3347,-0.7144,0.6985,758,-40.9546,-128.6011,81.2378,86,1.4047,1.5287,18.1741,-48.7723,36,0.2671,8862,3.9765,158.7457
lg,1624962861178063553,0,-0.0071,-0.9727,0.5471,759,-31.6772,-170.166,45.4102,86,1.3987,1.5267,14.395,-48.6671,36,0.2671,9237,3.9765,165.1716
lg,1624962861178082478,0,0.2766,-1.0867,0.6504,760,-23.3154,-129.4556,27.8931,86,1.3977,1.5257,10.8329,-48.9586,36,0.2661,9451,3.9765,169.8202
lg,1624962861178100476,0,0.1501,-0.9775,0.4446,761,0.6714,-31.8604,2.0142,86,1.3977,1.5267,9.3492,-49.3926,36,0.2661,9378,3.9765,170.7346
lg,1624962861178118012,0,0.2236,-0.8972,0.5046,762,16.1133,26.4282,10.8643,86,1.3987,1.5297,9.5317,-49.2648,36,0.2681,9028,3.9765,170.1329
lg,1624962861178137344,0,0.2505,-0.9363,0.6382,763,19.5923,38.5132,0.6714,86,1.4027,1.5307,10.0489,-48.9197,36,0.2701,9310,3.9765,168.0136
lg,1624962861178155343,0,0.1924,-0.9849,0.574,764,26.123,85.7544,-21.1182,86,1.4087,1.5327,11.1341,-49.1936,36,0.2701,9303,3.9765,164.6829
lg,1624962861178173341,0,-0.0635,-0.9421,0.3623,765,32.4707,134.2773,-54.3823,86,1.4147,1.5317,12.6709,-49.83,36,0.2731,9418,3.9765,158.9147
lg,1624962861178191655,0,-0.2932,-0.8701,0.3887,766,53.5278,134.7046,-63.5986,86,1.4177,1.5287,14.3798,-49.6874,36,0.2701,9417,3.9765,152.8617
lg,1624962861178221930,0,-0.4299,-0.6492,0.3088,767,58.7158,77.6367,-57.1289,86,1.4167,1.5287,15.3204,-48.87,36,0.2641,9444,3.9765,148.7647
lg,1624962861178253965,0,-0.4031,-0.5791,0.4292,768,25.6958,45.8374,-25.8789,86,1.4157,1.5257,16.2876,-48.5813,36,0.2581,9461,3.9765,146.5835
lg,1624962861602852045,0,-0.4761,-1.0493,0.7375,769,-24.5972,36.2549,51.5137,86,1.4167,1.5337,18.8218,-49.4809,36,0.2631,28030,3.9765,147.5753
lg,1624962861602890765,0,-0.7197,-0.8049,0.5977,770,-5.188,-73.8525,54.8096,86,1.4157,1.5347,19.2049,-48.542,36,0.2631,12328,3.9765,151.4236
lg,1624962861602910893,0,-0.3955,-0.5762,0.8074,771,-15.1978,-174.8047,69.7632,86,1.4127,1.5357,16.6724,-46.3556,36,0.2641,8830,3.9765,158.9924
lg,1624962861602931188,0,-0.0225,-0.8489,0.3845,772,-26.4282,-243.2251,45.5322,86,1.4107,1.5347,10.7412,-46.1544,36,0.2641,9764,3.9765,167.2901
lg,1624962861602952501,0,0.3647,-0.9546,0.4114,773,-44.6167,-235.1685,46.3257,86,1.4097,1.5357,5.33,-46.9392,36,0.2641,8875,3.9765,-185.7453
lg,1624962861602971666,0,0.4038,-0.9629,0.2917,774,-14.0991,-136.8408,33.02,86,1.4097,1.5357,1.6037,-47.7405,36,0.2631,9240,3.9765,-180.8612
lg,1624962861602990646,0,0.4731,-0.9849,0.7297,775,-0.9766,-2.5635,33.3862,86,1.4097,1.5368,1.6486,-47.953,36,0.2621,9124,3.9765,-179.8971
lg,1624962861603008830,0,0.3503,-0.9319,0.5874,776,9.8267,54.9927,13.7329,86,1.4107,1.5378,2.7706,-47.9688,36,0.2631,8885,3.9765,-181.1807
lg,1624962861603026847,0,0.1438,-0.8928,0.457,777,17.334,116.0889,-4.5776,86,1.4137,1.5378,5.293,-48.0985,36,0.2641,8979,3.9765,-184.7985
lg,1624962861603044624,0,-0.1296,-0.8743,0.4763,778,20.9351,170.0439,-3.6621,86,1.4167,1.5368,9.768,-48.4596,36,0.2661,8927,3.9765,169.9306
lg,1624962861603075585,0,-0.4116,-0.7385,0.4993,779,22.644,172.8516,-1.4648,86,1.4187,1.5368,14.3137,-48.6885,36,0.2671,8979,3.9765,165.3301
lg,1624962861603094843,0,-0.4434,-0.6782,0.5815,780,21.9727,115.4785,4.7607,86,1.4217,1.5337,17.9525,-48.7954,36,0.2651,8664,3.9798,161.8362
lg,1624962861603112323,0,-0.3918,-0.8137,0.6426,781,6.958,69.8853,15.1978,85,1.4227,1.5357,20.3371,-49.2148,36,0.2621,9042,3.9798,159.9863
lg,1624962861603130081,0,-0.3716,-1.0403,0.6699,782,-14.7705,33.5693,19.9585,85,1.4237,1.5347,21.6651,-50.3118,36,0.2671,13084,3.9798,159.328
lg,1624962861603147950,0,-0.4019,-1.0278,0.6641,783,-18.3105,18.8599,25.2075,85,1.4257,1.5368,22.5611,-50.7757,36,0.2711,9107,3.9798,159.9718
lg,1624962861603164819,0,-0.428,-0.8276,0.615,784,-14.5264,-17.0898,29.1748,85,1.4247,1.5378,23.0309,-50.9129,36,0.2711,8814,3.9798,161.3102
lg,1624962861603191947,0,-0.4175,-0.7825,0.4888,785,-23.9258,-61.7065,27.9541,85,1.4237,1.5388,22.4083,-51.0326,36,0.2731,8762,3.9798,164.0513
lg,1624962861603209705,0,-0.2944,-0.8347,0.4084,786,-11.0474,-87.0361,24.353,85,1.4237,1.5388,20.8058,-50.6657,36,0.2731,9674,3.9798,167.4259
lg,1624962861603226592,0,-0.126,-0.9482,0.6199,787,-18.0664,-96.9849,25.6958,85,1.4207,1.5388,18.581,-50.3253,36,0.2721,9710,3.9798,171.2133
lg,1624962861603243425,0,0.0247,-0.9248,0.5635,788,-1.2817,-65.6128,20.3857,85,1.4197,1.5388,16.7661,-49.9017,36,0.2721,8808,3.9798,-186.2331
lg,1624962861603260868,0,0.0693,-0.8945,0.4934,789,2.7466,-38.8184,17.0288,85,1.4197,1.5388,15.7436,-49.8213,36,0.2731,8864,3.9798,-185.4166
lg,1624962861603278366,0,0.0947,-0.8884,0.4663,790,11.2305,-3.9673,8.4839,85,1.4227,1.5398,15.5179,-49.8412,36,0.2751,9819,3.9798,-185.8731
lg,1624962861603295717,0,0.0703,-0.887,0.4839,791,18.7988,38.0249,2.3193,85,1.4247,1.5398,15.8143,-49.8604,36,0.2761,9282,3.9798,-187.1473
lg,1624962861603312494,0,-0.002,-0.9346,0.6755,792,23.4985,74.8901,-10.2539,85,1.4267,1.5368,16.8029,-49.8359,36,0.2731,9261,3.9798,170.1399
lg,1624962861603329529,0,-0.0381,-0.8926,0.6011,793,33.3862,72.2656,-29.3579,85,1.4217,1.5317,17.1839,-49.6563,36,0.2641,9351,3.9798,166.963
lg,1624962861603346917,0,-0.1604,-0.8975,0.5027,794,34.79,71.5942,-47.0581,85,1.4197,1.5247,17.2689,-49.7645,36,0.2551,9309,3.9798,163.2689
lg,1624962861603363823,0,-0.2598,-0.7549,0.4094,795,33.8745,54.7485,-36.8652,85,1.4207,1.5197,17.5434,-49.6894,36,0.2521,8971,3.9798,160.3823
lg,1624962861603380692,0,-0.3435,-0.6658,0.4102,796,5.188,60.5469,5.8594,85,1.4207,1.5217,19.5138,-50.374,36,0.2561,9368,3.9798,158.4804
lg,1624962861603398784,0,-0.4451,-0.9473,0.6619,797,-32.6538,45.8984,43.8232,85,1.4217,1.5277,22.0776,-51.9759,36,0.2561,9397,3.9798,158.0595
lg,1624962861603415597,0,-0.5161,-0.9915,0.6162,798,-32.8979,20.3857,56.3965,85,1.4227,1.5317,24.0505,-52.7643,36,0.2561,9385,3.9798,159.7075
lg,1624962861603453983,0,-0.6807,-0.8621,0.6492,799,-17.4561,-24.231,52.5513,85,1.4187,1.5337,25.5038,-52.2049,36,0.2561,9464,3.9798,162.091
lg,1624962861603477037,0,-0.4475,-0.6628,1.0813,800,-11.5967,-113.9526,47.9736,85,1.4147,1.5317,23.9467,-49.6323,36,0.2571,9444,3.9798,167.6849
lg,1624962862004937334,0,0.2205,-0.9038,0.3801,801,-8.728,-151.9165,2.3804,85,1.4057,1.5277,18.7698,-48.8643,36,0.2561,25755,3.9798,-187.6006
lg,1624962862004973701,0,0.3259,-0.877,0.3982,802,3.0518,-59.8755,2.5635,85,1.4047,1.5277,15.9271,-48.7966,36,0.2551,9861,3.9798,-185.8482
lg,1624962862004994718,0,0.1748,-0.8689,0.4131,803,7.3242,26.6113,-7.9956,85,1.4047,1.5257,15.3948,-49.408,36,0.2531,8887,3.9798,-187.0712
lg,1624962862005014236,0,0.0327,-0.8762,0.376,804,8.1177,56.6406,-9.2773,85,1.4057,1.5257,16.8099,-50.5067,36,0.2511,8409,3.9798,170.1569
lg,1624962862005032901,0,-0.2317,-0.7998,0.3384,805,13.3667,85.2051,0.5493,85,1.4057,1.5257,19.0686,-51.3131,36,0.2491,8717,3.9798,167.3738
lg,1624962862005051751,0,-0.218,-0.7698,0.4744,806,16.7847,59.6924,21.5454,85,1.4067,1.5267,21.0034,-51.4039,36,0.2451,10983,3.9798,165.8635
lg,1624962862005070731,0,-0.1499,-0.8213,0.5601,807,10.437,26.001,30.4565,85,1.4077,1.5277,22.1078,-51.1762,36,0.2441,8907,3.9798,165.7421
lg,1624962862005088693,0,-0.0518,-0.8689,0.5693,808,14.0381,10.0098,34.3018,85,1.4097,1.5277,22.6725,-50.6157,36,0.2431,8739,3.9798,166.2465
lg,1624962862005105933,0,0.001,-0.8718,0.5627,809,20.5688,12.8784,31.5552,85,1.4107,1.5287,23.0929,-49.893,36,0.2451,8976,3.9798,166.5762
lg,1624962862005123394,0,-0.0249,-0.8552,0.563,810,26.7334,41.687,27.0996,85,1.4117,1.5297,24.1523,-49.3566,36,0.2441,10051,3.9798,165.8333
lg,1624962862005140523,0,-0.1162,-0.823,0.5498,811,29.1138,54.5654,23.5596,85,1.4137,1.5297,25.7807,-49.019,36,0.2451,8723,3.9798,164.2272
lg,1624962862005157262,0,-0.1853,-0.8101,0.541,812,33.9355,69.8242,19.6533,85,1.4137,1.5297,27.6094,-48.7678,36,0.2461,8527,3.9798,162.3061
lg,1624962862005173817,0,-0.2629,-0.8027,0.5583,813,36.6211,73.2422,22.2778,85,1.4157,1.5317,29.7058,-48.4549,36,0.2471,9255,3.9798,160.3359
lg,1624962862005190945,0,-0.3159,-0.7676,0.5652,814,37.1094,61.4624,21.6675,85,1.4177,1.5317,31.5274,-47.933,36,0.2461,9085,3.9798,158.7589
lg,1624962862005208240,0,-0.3374,-0.7749,0.5312,815,39.2456,41.4429,19.2261,85,1.4177,1.5327,32.7449,-47.1348,36,0.2431,8705,3.9798,157.7466
lg,1624962862005226091,0,-0.3555,-0.811,0.5083,816,40.1001,24.7192,17.7002,85,1.4197,1.5327,33.4605,-46.1536,36,0.2441,9738,3.9798,157.2058
lg,1624962862005265569,0,-0.3457,-0.8396,0.5134,817,46.7529,4.6387,18.8599,85,1.4187,1.5317,33.5955,-44.5699,36,0.2451,9236,3.9798,157.3716
lg,1624962862005286512,0,-0.3298,-0.8213,0.4712,818,56.5186,-16.9067,20.6909,85,1.4217,1.5307,33.1545,-42.2977,36,0.2451,9234,3.9798,158.2578
lg,1624962862005305289,0,-0.2786,-0.7883,0.469,819,64.5142,-31.5552,23.3154,85,1.4227,1.5307,32.234,-39.492,36,0.2471,9259,3.9798,159.6533
lg,1624962862005323510,0,-0.2625,-0.7534,0.4548,820,66.4673,-39.6118,23.8647,85,1.4247,1.5297,30.7782,-36.4738,36,0.2501,9281,3.9798,161.4623
lg,1624962862005340971,0,-0.2397,-0.7214,0.4194,821,68.7866,-58.5938,23.9258,85,1.4267,1.5287,28.936,-33.5041,36,0.2511,9269,3.9798,163.3958
lg,1624962862005358044,0,-0.1995,-0.7209,0.427,822,68.3594,-72.6318,26.123,85,1.4277,1.5287,26.5456,-30.5876,36,0.2531,9432,3.9798,165.6016
lg,1624962862005375173,0,-0.137,-0.7556,0.4624,823,67.5659,-76.2329,30.5176,85,1.4287,1.5277,23.9238,-27.8513,36,0.2551,9249,3.9798,167.8927
lg,1624962862005392134,0,-0.0562,-0.7942,0.4941,824,72.8149,-57.1289,30.5176,85,1.4307,1.5267,21.772,-25.2966,36,0.2561,12688,3.9798,169.668
lg,1624962862005408966,0,-0.0588,-0.7644,0.4958,825,75.8057,-44.6777,29.2358,85,1.4317,1.5277,20.5592,-22.8,36,0.2571,9481,3.9798,170.8629
lg,1624962862005425595,0,-0.0857,-0.7524,0.5259,826,83.4961,-18.4326,28.9307,85,1.4317,1.5277,19.88,-20.2129,36,0.2571,9251,3.9798,-188.1492
lg,1624962862005442649,0,-0.1106,-0.7122,0.5774,827,90.8203,-3.9062,29.2358,85,1.4327,1.5277,19.7796,-17.2507,36,0.2591,10509,3.9798,-187.3633
lg,1624962862005459907,0,-0.1262,-0.7007,0.6279,828,95.52,-3.7842,27.4048,85,1.4337,1.5277,19.5516,-14.2362,36,0.2581,9488,3.9798,-186.6139
lg,1624962862005476962,0,-0.1184,-0.7095,0.6819,829,100.2197,-12.7563,25.4517,85,1.4337,1.5277,18.9018,-11.116,36,0.2591,9406,3.9798,-185.8788
lg,1624962862005495275,0,-0.0916,-0.7268,0.7673,830,103.6377,-19.7144,20.2637,85,1.4337,1.5287,17.835,-7.9524,36,0.2581,9543,3.9798,-185.3274
lg,1624962862005512940,0,-0.0945,-0.7483,0.8455,831,107.1167,-28.4424,13.916,85,1.4347,1.5287,16.3808,-4.7835,36,0.2591,9127,3.9798,-185.0317
lg,1624962862005531328,0,-0.0979,-0.6802,0.8313,832,109.6802,-47.0581,6.7139,85,1.4347,1.5297,14.2034,-1.6386,36,0.2601,10227,3.9798,-185.0312
lg,1624962862855017295,0,-0.0457,-0.5134,0.6553,833,109.9243,-30.9448,20.6909,85,1.4337,1.5287,12.6514,1.5569,36,0.2601,24883,3.9798,-184.5312
lg,1624962862855067643,0,-0.0813,-0.4656,0.6992,834,104.9805,-6.5308,28.3813,85,1.4327,1.5277,13.2065,4.4623,36,0.2571,9625,3.9798,-183.3691
lg,1624962862855088809,0,-0.1294,-0.4514,0.7729,835,90.4541,43.6401,39.2456,85,1.4337,1.5267,14.6759,7.1789,36,0.2561,8031,3.9798,-181.8843
lg,1624962862855109233,0,-0.2729,-0.522,0.9487,836,80.2002,67.0166,40.8325,85,1.4337,1.5267,17.1684,9.6025,36,0.2551,8014,3.9798,-180.1389
lg,1624962862855128750,0,-0.3384,-0.564,0.999,837,79.895,59.7534,40.2222,85,1.4337,1.5267,18.7052,12.1258,36,0.2541,8004,3.9798,-178.5872
lg,1624962862855147194,0,-0.4119,-0.5986,1.0679,838,86.853,19.5312,37.3535,85,1.4337,1.5257,19.2905,14.6466,36,0.2551,8760,3.9798,-177.3415
lg,1624962862855164804,0,-0.3904,-0.6145,1.0081,839,95.3369,-76.355,36.1938,85,1.4337,1.5257,16.1556,16.9992,36,0.2551,11780,3.9798,-177.2962
lg,1624962862855217004,0,-0.2529,-0.5784,1.0027,840,98.877,-119.3237,33.9966,85,1.4347,1.5257,11.2691,19.2255,36,0.2561,11021,3.9798,-177.9665
lg,1624962862855238354,0,-0.1277,-0.5259,0.9248,841,102.5391,-144.2261,27.8931,85,1.4337,1.5257,5.4798,21.4559,36,0.2561,9244,3.9798,-179.2806
lg,1624962862855256705,0,0.0137,-0.3562,0.8572,842,108.9478,-137.5732,25.8179,85,1.4337,1.5257,-0.153,24.1636,36,0.2561,8967,3.9798,-180.6252
lg,1624962862855275592,0,0.1272,-0.2058,0.9558,843,98.0835,-90.5762,25.6348,85,1.4347,1.5257,-4.1363,26.7624,36,0.2531,10454,3.9798,-181.2649
lg,1624962862855307664,0,0.0679,-0.2939,1.176,844,66.6504,-13.2446,19.2871,85,1.4317,1.5247,-4.9622,27.8962,36,0.2501,14853,3.9798,-180.7143
lg,1624962862855326589,0,-0.0469,-0.3738,1.2769,845,61.7065,16.8457,15.8081,85,1.4317,1.5247,-4.4514,28.694,36,0.2501,8772,3.9798,-179.6947
lg,1624962862855345051,0,-0.1306,-0.3154,1.239,846,62.5,19.7144,12.085,85,1.4317,1.5247,-3.5971,29.5846,36,0.2501,9096,3.9798,-178.9213
lg,1624962862855363124,0,-0.1707,-0.3552,1.1924,847,58.8989,17.2729,7.9346,85,1.4317,1.5247,-2.7545,30.271,36,0.2491,9122,3.9798,-178.195
lg,1624962862855381141,0,-0.198,-0.3728,1.1514,848,49.7437,16.7236,15.625,85,1.4317,1.5237,-2.059,30.5429,36,0.2491,9646,3.9798,-177.2347
lg,1624962862855399140,0,-0.1492,-0.3972,1.1104,849,47.4854,5.5542,22.8882,85,1.4317,1.5227,-1.9983,30.6691,36,0.2491,9080,3.9798,-176.2708
lg,1624962862855417990,0,-0.0835,-0.3979,1.0623,850,46.2036,-2.9907,26.2451,85,1.4307,1.5237,-2.4202,30.7087,36,0.2491,9173,3.9798,-175.3675
lg,1624962862855436026,0,-0.0208,-0.4099,1.0508,851,44.0674,-3.6011,25.7568,85,1.4327,1.5227,-2.9679,30.632,36,0.2501,9628,3.9798,-174.4788
lg,1624962862855454728,0,-0.042,-0.4495,1.0374,852,43.6401,1.4038,21.1182,85,1.4327,1.5237,-3.1956,30.4879,36,0.2481,8635,3.9798,-173.6265
