name,time,activity,ax,ay,az,batch_val,gx,gy,gz,ibat,index,middle,pitch,roll,temp,thumb,ts,vbat,yaw
rg,1624962869920743199,1,-0.0657,-0.1426,1.0337,1,-2.0752,-21.1792,13.3057,106,1.1255,1.2686,1.457,3.0238,32,0.8784,21084,4.037,-143.0579
rg,1624962869920778623,1,-0.0483,-0.1824,1.0298,2,2.7466,-9.7656,14.5264,106,1.1255,1.2686,1.0877,2.6326,32,0.8784,9058,4.037,-142.5101
rg,1624962869920799363,1,-0.0659,-0.1604,1.021,3,5.6152,-5.127,15.2588,106,1.1255,1.2686,1.011,2.47,32,0.8784,8552,4.037,-141.9173
rg,1624962869920818992,1,-0.1011,-0.1084,0.9966,4,9.7046,-1.3428,16.0522,106,1.1235,1.2676,1.1172,2.5279,32,0.8784,8571,4.037,-141.2841
rg,1624962869920837565,1,-0.0962,-0.1008,0.9958,5,7.2632,3.6621,17.1509,106,1.1255,1.2696,1.4058,2.506,32,0.8774,8517,4.037,-140.5986
rg,1624962869920856157,1,-0.1267,-0.1104,1.0085,6,5.9204,8.9111,16.5405,106,1.1255,1.2686,1.9582,2.4189,32,0.8784,8579,4.037,-139.9306
rg,1624962869920874249,1,-0.1526,-0.0969,1.0046,7,6.0425,9.7656,16.6626,106,1.1245,1.2666,2.5815,2.3768,32,0.8774,8024,4.037,-139.2586
rg,1624962869920892674,1,-0.1997,-0.0625,0.9922,8,5.8594,5.6152,16.5405,106,1.1266,1.2676,3.1232,2.4113,32,0.8794,7948,4.037,-138.5979
rg,1624962869920909821,1,-0.2117,-0.0535,1.0134,9,0.6104,-6.4697,15.9912,106,1.1255,1.2666,3.1805,2.2592,32,0.8794,7964,4.037,-137.9805
rg,1624962869920928080,1,-0.1841,-0.0588,1.0259,10,-0.2441,-12.6953,14.8315,106,1.1255,1.2676,2.9276,2.0635,32,0.8784,8449,4.037,-137.4187
rg,1624962869920963949,1,-0.1292,-0.0393,1.0312,11,-1.8921,-17.6392,13.4888,106,1.1255,1.2666,2.3722,1.8446,32,0.8784,7995,4.037,-136.912
rg,1624962869920983170,1,-0.0906,-0.0083,1.0364,12,-4.5776,-13.7939,11.7188,106,1.1255,1.2676,1.9117,1.5876,32,0.8784,8179,4.037,-136.4638
rg,1624962869921000003,1,-0.0662,0.0059,1.0305,13,-7.6294,-8.667,10.3149,106,1.1255,1.2666,1.6807,1.2404,32,0.8784,8225,4.037,-136.062
rg,1624962869921017520,1,-0.1189,0.0051,0.9885,14,-11.7798,4.5166,4.0894,106,1.1255,1.2676,2.0619,0.7388,32,0.8784,8116,4.037,-135.8973
rg,1624962869921034797,1,-0.1804,0.0034,1.0059,15,-19.2871,11.7798,1.2817,106,1.1255,1.2676,2.8502,-0.0492,32,0.8784,8039,4.037,-135.8461
rg,1624962869921052463,1,-0.2087,-0.0205,1.0059,16,-23.6816,13.1226,-0.8545,106,1.1255,1.2686,3.7732,-1.121,32,0.8784,8134,4.037,-135.8958
rg,1624962869921069518,1,-0.2627,-0.0845,1.0271,17,-28.4424,12.6343,-1.3428,106,1.1255,1.2696,4.6885,-2.3976,32,0.8774,8127,4.037,-135.979
rg,1624962869921086517,1,-0.3093,-0.1184,1.0505,18,-26.4282,5.7373,-1.2817,106,1.1245,1.2706,5.3702,-3.6102,32,0.8774,8208,4.037,-136.06
rg,1624962869921103646,1,-0.3347,-0.1306,1.0662,19,-25.9399,0.4272,-1.5869,106,1.1255,1.2726,5.6086,-4.7585,32,0.8764,8174,4.037,-136.1248
rg,1624962869921120442,1,-0.3579,-0.1597,1.0811,20,-22.0337,-15.3198,-0.3662,106,1.1255,1.2736,5.4897,-5.7696,32,0.8764,8178,4.037,-136.1005
rg,1624962869921137534,1,-0.3191,-0.1584,1.0786,21,-18.3716,-33.6914,2.2583,106,1.1255,1.2746,4.5889,-6.5786,32,0.8774,8193,4.037,-135.8766
rg,1624962869921154089,1,-0.2612,-0.1399,1.0864,22,-17.5781,-39.7949,2.2583,106,1.1255,1.2756,3.177,-7.1858,32,0.8754,8265,4.037,-135.5259
rg,1624962869921171032,1,-0.2271,-0.1265,1.0981,23,-12.8174,-45.7153,2.1362,106,1.1255,1.2766,1.7127,-7.6573,32,0.8764,8309,4.037,-135.2037
rg,1624962869921188235,1,-0.1875,-0.1064,1.0959,24,-11.1084,-44.9829,-0.1831,106,1.1255,1.2776,0.2488,-8.0117,32,0.8754,8321,4.037,-134.9632
rg,1624962869921204846,1,-0.188,-0.0679,1.063,25,-12.0239,-41.3208,-4.1504,106,1.1255,1.2776,-1.0206,-8.3196,32,0.8744,8282,4.037,-134.892
rg,1624962869921222104,1,-0.1968,-0.0652,1.0579,26,-13.9771,-38.9404,-6.8359,106,1.1266,1.2786,-2.1309,-8.7203,32,0.8744,8388,4.037,-134.9351
rg,1624962869921239622,1,-0.2092,-0.103,1.0586,27,-18.5547,-38.4521,-8.4229,106,1.1255,1.2796,-3.1767,-9.3304,32,0.8744,8407,4.037,-135.0331
rg,1624962869921256492,1,-0.2107,-0.1646,1.0789,28,-22.8271,-35.9497,-12.085,106,1.1255,1.2806,-4.1173,-10.1973,32,0.8734,8396,4.037,-135.2707
rg,1624962869921273565,1,-0.2056,-0.2036,1.1052,29,-23.0103,-36.8652,-15.3198,106,1.1255,1.2806,-5.1063,-11.0944,32,0.8734,8452,4.037,-135.6042
rg,1624962869921303267,1,-0.2024,-0.2197,1.1182,30,-22.0947,-37.9639,-15.625,106,1.1255,1.2816,-6.1188,-11.9425,32,0.8734,8543,4.037,-135.918
rg,1624962869921320841,1,-0.0115,-0.7856,0.469,31,151.6113,86.4868,-3.2959,171,0.8334,0.4942,-2.5604,-7.5138,32,0.8954,21968,3.9952,-136.4488
rg,1624962869921337581,1,-0.3115,-0.5591,0.4375,32,131.3477,122.0093,7.4463,171,0.8564,0.5092,3.2741,-3.7292,32,0.8974,8570,3.9952,-136.5335
rg,1624962870298250601,1,-0.3606,-0.5317,0.3694,33,-82.6416,-129.3335,16.2964,171,0.7944,0.5333,-0.7516,-8.5435,32,0.9004,25330,3.9952,-135.4646
rg,1624962870298302377,1,0.2734,-1.0908,0.8347,34,-213.0127,-234.1309,0.5493,171,0.7474,0.5193,-10.1795,-18.7822,32,0.8984,14780,3.9952,-133.1729
rg,1624962870298324839,1,0.4795,-1.5833,0.4829,35,-163.7573,-176.2695,30.3955,171,0.7374,0.5022,-16.4857,-28.0423,32,0.8964,7694,3.9952,-128.8036
rg,1624962870298345320,1,0.6379,-1.6558,0.5469,36,-126.709,-117.1875,48.3398,171,0.7424,0.4612,-19.6856,-35.9806,32,0.9024,7692,3.9952,-124.0064
rg,1624962870298365819,1,0.2974,-1.4709,0.4849,37,52.4902,63.9038,34.3018,171,0.7394,0.4392,-16.6109,-35.1252,32,0.9014,7894,3.9952,-123.9369
rg,1624962870298386355,1,0.3284,-0.9866,0.446,38,111.8774,41.4429,56.0303,171,0.7394,0.4212,-14.2172,-31.5433,32,0.9014,7758,3.9952,-123.2417
rg,1624962870298405188,1,0.1299,-0.7625,0.3438,39,131.3477,83.374,7.6294,171,0.7404,0.4132,-11.0684,-27.2834,32,0.9014,8036,3.9952,-124.3294
rg,1624962870298424928,1,-0.2415,-0.2839,0.1135,40,136.9629,97.1069,-24.5361,171,0.7424,0.4182,-6.3542,-22.6213,32,0.9014,12224,3.9952,-126.5903
rg,1624962870298443482,1,-0.3215,-0.1858,0.1174,41,130.0659,87.7075,-27.771,171,0.7454,0.4262,-0.855,-19.0987,32,0.9004,8497,3.9952,-128.5561
rg,1624962870298461093,1,-0.4211,-0.1428,0.1912,42,-15.625,22.0337,24.8413,171,0.7494,0.4362,2.2907,-20.0504,32,0.9024,11006,3.9952,-127.926
rg,1624962870298479351,1,-0.3442,-0.3313,0.3398,43,-86.6089,-28.5645,30.8838,171,0.7524,0.4442,2.2748,-24.1986,32,0.9044,8441,3.9952,-126.4013
rg,1624962870298497702,1,-0.04,-1.0869,1.448,44,-199.8901,-107.5439,22.3999,171,0.7564,0.4532,-1.0964,-32.6231,32,0.9054,8560,3.9952,-123.5875
rg,1624962870298515850,1,0.0923,-1.7839,0.8962,45,-101.1963,-50.8423,24.1089,171,0.7594,0.4632,-2.2581,-37.8592,32,0.9084,8507,3.9952,-121.6006
rg,1624962870298534071,1,0.2395,-1.6809,0.8596,46,36.1328,18.8599,32.7759,171,0.7684,0.4752,-1.0684,-37.3803,32,0.9114,8664,3.9952,-120.9891
rg,1624962870298552645,1,0.0657,-1.0837,0.7747,47,123.8403,48.9502,-3.9062,171,0.7924,0.4882,0.3607,-33.0904,32,0.9124,9772,3.9952,-122.2388
rg,1624962870298572903,1,-0.0149,-0.8333,0.5872,48,138.0615,52.7954,-1.5869,171,0.8184,0.5022,2.9433,-28.5366,32,0.9124,8794,3.9952,-123.2153
rg,1624962870298591273,1,-0.1536,-0.5347,0.3845,49,119.2017,83.1909,14.0991,171,0.8394,0.5133,6.5668,-24.8212,32,0.9114,8553,3.9952,-124.2481
rg,1624962870298608994,1,-0.3892,-0.5459,0.4739,50,55.7861,83.0078,8.9722,171,0.8524,0.5253,10.5863,-23.573,32,0.9114,8701,3.9952,-125.3814
rg,1624962870298627105,1,-0.5388,-0.6426,0.436,51,-12.6953,-11.8408,-1.2817,171,0.8604,0.5333,11.1119,-25.0617,32,0.9144,8592,3.9952,-125.4284
rg,1624962870298645104,1,-0.2476,-0.6755,0.4868,52,-51.7578,-76.9043,1.9531,171,0.8264,0.5383,6.9527,-29.8001,32,0.9144,8762,3.9952,-122.9169
rg,1624962870298662381,1,-0.0203,-0.7576,0.6685,53,-159.8511,-177.2461,7.5684,171,0.7714,0.5253,1.0088,-36.6084,32,0.9094,8606,3.9952,-118.8513
rg,1624962870298679510,1,0.2478,-1.0845,0.6221,54,-209.1064,-196.4111,-13.7329,171,0.7404,0.5032,-5.6736,-46.0165,32,0.9044,8815,3.9952,-114.0644
rg,1624962870298722249,1,0.4111,-1.4575,0.4839,55,-153.7476,-142.8223,26.1841,171,0.7424,0.4732,-8.905,-53.7307,32,0.9014,8699,3.9952,-108.8686
rg,1624962870298744785,1,0.5469,-1.6162,0.8391,56,-33.9355,7.019,42.6025,171,0.7404,0.4472,-7.6649,-55.5153,32,0.9044,8873,3.9952,-108.0523
rg,1624962870298762673,1,0.4514,-1.4431,0.4199,57,39.6729,46.814,55.7861,171,0.7404,0.4332,-5.1574,-52.8594,32,0.9014,8783,3.9952,-107.769
rg,1624962870298779932,1,0.3127,-1.2227,0.4016,58,117.8589,61.0352,28.0762,171,0.7394,0.4262,-3.1041,-48.7776,32,0.8984,8943,3.9952,-108.9097
rg,1624962870298797376,1,-0.0774,-0.6201,0.0967,59,186.5845,94.6045,-16.2354,171,0.7404,0.4272,-0.5634,-42.4355,32,0.8974,8806,3.9952,-111.9814
rg,1624962870298815634,1,-0.2666,-0.1929,0.0127,60,209.2896,138.6719,-14.9536,171,0.7434,0.4342,5.1877,-35.1728,32,0.8964,9963,3.9952,-115.7896
rg,1624962870298833430,1,-0.3984,0.0535,-0.0747,61,149.0479,117.0654,1.9531,171,0.7454,0.4412,11.3956,-29.5667,32,0.8964,10776,3.9952,-118.1405
rg,1624962870298851484,1,-0.4436,0.0454,-0.04,62,-15.7471,37.1704,15.3809,171,0.7494,0.4462,15.2438,-30.139,32,0.8984,8921,3.9952,-118.3431
rg,1624962870298869206,1,-0.3474,-0.4648,0.5469,63,-215.1489,-54.3823,24.0479,171,0.7544,0.4472,14.4161,-38.5481,32,0.9014,8258,3.9952,-116.3838
rg,1624962870298889835,1,0.1428,-1.7231,2.1282,64,-279.9683,-102.1118,22.522,171,0.7584,0.4512,11.2246,-48.0229,32,0.9044,8455,3.9952,-112.8099
rg,1624962870654807081,1,0.2732,-1.4207,0.875,65,113.3423,14.8315,13.6719,171,0.8014,0.4802,11.3627,-43.747,32,0.9154,27062,3.9952,-112.9324
rg,1624962870654877115,1,-0.2229,-0.418,0.4011,66,122.2534,79.2847,9.7656,171,0.8304,0.5012,14.3575,-39.3639,32,0.9154,16408,3.9952,-114.7949
rg,1624962870654898485,1,-0.3301,-0.3975,0.4517,67,79.6509,74.8901,11.2915,171,0.8434,0.5092,17.5417,-36.6713,32,0.9164,7735,3.9952,-116.3494
rg,1624962870654918299,1,-0.4917,-0.4661,0.3625,68,-6.8359,-12.085,3.1128,171,0.8464,0.5173,18.1045,-37.2993,32,0.9184,9542,3.9952,-116.0877
rg,1624962870654936650,1,-0.3464,-0.6541,0.4661,69,-111.6333,-135.498,7.3242,171,0.8214,0.5213,14.3487,-41.3205,32,0.9184,7816,3.9952,-112.4784
rg,1624962870654954575,1,-0.1006,-0.7954,0.7234,70,-168.0908,-197.6929,13.2446,171,0.7734,0.5102,7.0567,-48.5409,32,0.9164,7939,3.9952,-105.2492
rg,1624962870654973482,1,0.3525,-1.1675,0.7036,71,-210.6934,-238.0371,6.1035,171,0.7484,0.4892,0.703,-56.7985,32,0.9134,7898,3.9952,-97.5351
rg,1624962870654994333,1,0.4927,-1.5125,0.4321,72,-135.0098,-154.1748,29.9072,171,0.7454,0.4812,-2.0386,-62.8718,32,0.9084,7865,3.9952,-91.5835
rg,1624962870655014462,1,0.5833,-1.5364,0.4116,73,-86.4868,-88.9893,48.0957,171,0.7474,0.4592,-1.2998,-64.27,32,0.9104,7776,3.9952,-90.3109
rg,1624962870655099625,1,0.3933,-1.3752,0.5779,74,34.3018,71.4111,36.438,171,0.7454,0.4402,0.7315,-62.9897,32,0.9074,7964,3.9952,-92.2353
rg,1624962870655125754,1,0.1792,-1.0649,0.4148,75,95.8252,65.3687,32.7148,171,0.7464,0.4252,2.7432,-59.4258,32,0.9074,7818,3.9952,-93.9189
rg,1624962870655150697,1,-0.0032,-0.9243,0.3765,76,111.6333,82.3975,10.6812,171,0.7464,0.4132,5.2692,-55.631,32,0.9054,7875,3.9952,-96.4883
rg,1624962870655169807,1,-0.3276,-0.6855,0.1931,77,136.2305,102.356,-0.2441,171,0.7474,0.4072,8.4445,-51.2406,32,0.9034,8177,3.9952,-99.8366
rg,1624962870655188751,1,-0.4873,-0.4204,0.0977,78,149.9023,94.7876,5.3711,171,0.7474,0.4082,12.5615,-46.409,32,0.9014,9901,3.9952,-102.6263
rg,1624962870655206417,1,-0.4604,-0.127,0.05,79,124.1455,18.0664,26.5503,171,0.7504,0.4112,15.8024,-41.6142,32,0.9014,7982,3.9952,-102.3224
rg,1624962870655225546,1,-0.3896,-0.0396,0.0632,80,74.9512,-29.7852,29.7852,171,0.7544,0.4202,16.2931,-40.1176,32,0.9014,8099,3.9952,-99.3083
rg,1624962870655244156,1,-0.2104,-0.1577,0.2258,81,-69.2139,-103.2104,32.5317,171,0.7574,0.4292,14.8569,-41.6741,32,0.9024,7938,3.9952,-95.4368
rg,1624962870655264118,1,0.1414,-0.8367,1.252,82,-203.3081,-144.7754,34.8511,171,0.7624,0.4412,11.0059,-48.2788,32,0.9064,8093,3.9952,-90.106
rg,1624962870655313468,1,0.4331,-1.4114,1.7068,83,-209.4116,-107.9712,28.7476,171,0.7664,0.4512,10.2439,-54.1297,32,0.9104,8007,3.9952,-88.5268
rg,1624962870655336560,1,0.2097,-1.8013,0.863,84,9.3384,56.9458,21.4844,171,0.7764,0.4712,11.6305,-54.416,32,0.9174,13184,3.9952,-89.9763
rg,1624962870655355170,1,-0.0073,-1.2151,0.8625,85,108.2764,85.8154,2.0142,171,0.7934,0.4852,13.3166,-50.6877,32,0.9194,8229,3.9952,-92.7363
rg,1624962870655372688,1,-0.0903,-0.9255,0.5886,86,135.7422,78.2471,0.9766,171,0.8124,0.4972,15.0713,-46.1301,32,0.9194,8052,3.9952,-95.204
rg,1624962870655390817,1,-0.2278,-0.5874,0.4426,87,110.5347,90.6982,7.1411,171,0.8304,0.5123,17.9316,-42.6719,32,0.9194,8310,3.9952,-97.7087
rg,1624962870655412946,1,-0.4053,-0.5366,0.4932,88,48.0957,74.3408,0.4883,171,0.8394,0.5213,20.5722,-41.6074,32,0.9204,8150,3.9952,-99.8575
rg,1624962870655432482,1,-0.5513,-0.5972,0.4534,89,-29.3579,-11.1084,-11.2915,171,0.8434,0.5273,20.5637,-43.1638,32,0.9215,8941,3.9952,-100.0309
rg,1624962870655456555,1,-0.4927,-0.6711,0.4543,90,-76.2939,-79.1626,-8.0566,171,0.8154,0.5313,16.162,-47.2881,32,0.9215,8697,3.9952,-95.6668
rg,1624962870655478295,1,-0.0347,-0.8845,0.7021,91,-171.3257,-211.853,-1.9531,171,0.7744,0.5193,10.1445,-52.7781,32,0.9204,8336,3.9952,-89.0803
rg,1624962870655497424,1,0.3003,-1.2764,0.6118,92,-176.9409,-211.0596,-6.3477,171,0.7534,0.5072,4.4207,-59.3923,32,0.9134,8195,3.9952,-82.209
rg,1624962870655515442,1,0.5239,-1.5815,0.4507,93,-121.2769,-133.606,37.2314,171,0.7514,0.4752,2.3883,-64.4352,33,0.9124,8384,3.9952,-76.7971
rg,1624962870655532663,1,0.636,-1.5176,0.7612,94,-72.5708,-61.5234,40.8325,171,0.7504,0.4492,1.9909,-67.1647,33,0.9154,8259,3.9952,-73.8631
rg,1624962870655551181,1,0.3708,-1.3804,0.2625,95,93.3838,28.7476,46.5698,171,0.7474,0.4322,3.5001,-63.8971,33,0.9124,8455,3.9952,-74.1814
rg,1624962870655572162,1,0.2644,-0.8655,0.2893,96,138.3667,33.5693,11.1084,171,0.7504,0.4202,3.7659,-58.7159,33,0.9124,8319,3.9952,-75.204
rg,1624962871024057553,1,-0.3369,-0.0503,-0.0261,97,150.5737,124.1455,9.9487,144,0.7544,0.4252,9.287,-54.5584,32,0.9074,29223,4.0183,-77.8545
rg,1624962871024108125,1,-0.2957,-0.0649,0.1196,98,-49.0723,12.0239,37.6587,144,0.7574,0.4352,12.6893,-55.9982,32,0.9094,8640,4.0183,-77.3369
rg,1624962871024161790,1,-0.2712,-0.2886,0.364,99,-144.4702,-37.9028,31.4331,144,0.7624,0.4412,12.8566,-60.4712,32,0.9114,7686,4.0183,-75.1474
rg,1624962871024183863,1,0.1484,-1.4163,2.1045,100,-250.6104,-98.3276,25.3906,144,0.7674,0.4482,11.5379,-68.5541,32,0.9154,7814,4.0183,-70.8057
rg,1624962871024204289,1,0.062,-2.0132,0.616,101,-64.6973,-17.9443,38.5742,144,0.7724,0.4602,12.2138,-71.0379,32,0.9194,7801,4.0183,-69.6003
rg,1624962871024224140,1,0.2036,-1.9724,0.7617,102,25.1465,8.728,38.9404,144,0.7824,0.4722,13.0872,-69.5582,32,0.9235,7997,4.0183,-69.3237
rg,1624962871024243065,1,0.0962,-1.2258,0.8699,103,139.2212,71.5332,7.6904,144,0.7964,0.4872,13.8393,-63.9959,32,0.9245,7969,4.0183,-71.7979
rg,1624962871024262453,1,-0.1272,-0.7019,0.4817,104,168.7622,93.811,5.127,144,0.8234,0.5012,15.6135,-57.7513,32,0.9255,7919,4.0183,-75.0105
rg,1624962871024281526,1,-0.1992,-0.553,0.3999,105,139.2212,99.7925,10.7422,144,0.8414,0.5123,18.2359,-52.9633,32,0.9265,7846,4.0183,-78.1475
rg,1624962871024299544,1,-0.4802,-0.5159,0.4661,106,33.7524,47.0581,-7.5684,144,0.8654,0.5223,19.772,-52.0057,32,0.9275,12130,4.0183,-79.8584
rg,1624962871024318858,1,-0.542,-0.5693,0.459,107,-3.9673,-2.1362,-12.085,144,0.8744,0.5263,19.8457,-52.2997,32,0.9285,8408,4.0183,-80.1189
rg,1624962871024339950,1,-0.3699,-0.6738,0.4941,108,-70.5566,-111.2671,0.7935,144,0.8674,0.5313,17.3767,-53.9514,32,0.9295,8514,4.0183,-76.3523
rg,1624962871024358986,1,0.0718,-0.8577,0.7188,109,-148.6816,-194.3359,18.8599,144,0.8224,0.5353,12.8714,-57.8569,32,0.9295,8433,4.0183,-69.1778
rg,1624962871024399226,1,0.3818,-1.1169,0.5339,110,-183.2886,-198.8525,9.5215,144,0.7674,0.5203,8.2526,-64.0718,32,0.9275,8664,4.0183,-61.9302
rg,1624962871024421577,1,0.3979,-1.2612,0.4182,111,-178.9551,-169.6777,11.9019,144,0.7474,0.5002,6.0728,-70.0547,32,0.9225,9005,4.0183,-56.7555
rg,1624962871024440613,1,0.4736,-1.4163,0.4358,112,-118.8354,-68.1152,32.3486,144,0.7484,0.4552,5.5692,-74.5801,32,0.9144,8448,4.0183,-53.732
rg,1624962871024458964,1,0.3347,-1.4287,0.8772,113,-8.2397,68.4814,39.7949,144,0.7474,0.4282,7.1671,-74.5198,32,0.9154,8758,4.0183,-55.9093
rg,1624962871024477667,1,0.2075,-1.304,0.4524,114,84.6558,45.8984,56.1523,144,0.7484,0.4112,9.2244,-71.1386,32,0.9114,10449,4.0183,-57.0202
rg,1624962871024495870,1,-0.0715,-1.0342,0.3276,115,128.1738,60.73,-4.6387,144,0.7484,0.3912,9.7026,-66.4487,32,0.9094,8791,4.0183,-59.3997
rg,1624962871024514610,1,-0.2703,-0.5994,0.0872,116,173.2788,66.4673,-25.7568,144,0.7484,0.3852,10.532,-60.5797,32,0.9084,8635,4.0183,-62.3397
rg,1624962871024533258,1,-0.3191,-0.3967,0.1167,117,181.2134,66.7114,-29.9683,144,0.7504,0.3872,12.4167,-54.0367,32,0.9064,8790,4.0183,-64.9801
rg,1624962871024550627,1,-0.375,-0.0659,0.1409,118,150.3296,41.3818,-23.2544,144,0.7514,0.3922,14.5977,-48.0272,32,0.9044,8621,4.0183,-66.7014
rg,1624962871024568349,1,-0.3745,0.0474,0.0884,119,51.2695,-6.5918,0.1221,144,0.7524,0.3972,16.5002,-45.3176,32,0.9044,8848,4.0183,-66.2908
rg,1624962871024586552,1,-0.2585,-0.2224,0.2278,120,-106.6895,-65.6128,12.9395,144,0.7594,0.4092,15.9709,-48.8754,32,0.9044,8693,4.0183,-63.9331
rg,1624962871024604144,1,-0.0093,-0.9487,1.3271,121,-238.3423,-113.7695,13.0615,144,0.7624,0.4232,13.0834,-56.7991,32,0.9114,8708,4.0183,-59.6756
rg,1624962871024622958,1,0.2231,-1.5461,1.7937,122,-231.4453,-93.3228,12.5122,144,0.7654,0.4372,11.1066,-65.4725,32,0.9174,8959,4.0183,-56.0952
rg,1624962871024642772,1,0.1628,-1.9451,0.6726,123,-57.0068,-37.9028,19.8364,144,0.7694,0.4542,10.6206,-67.6144,32,0.9204,8817,4.0183,-54.3881
rg,1624962871024660808,1,0.3254,-1.4893,0.876,124,75.9888,15.0757,10.2539,144,0.7874,0.4732,10.4137,-64.3226,32,0.9235,8986,4.0183,-54.7452
rg,1624962871024678474,1,0.1335,-0.8674,0.4792,125,139.8315,49.3164,0.1221,144,0.8124,0.4912,10.6406,-58.9284,32,0.9245,8858,4.0183,-56.519
rg,1624962871024695881,1,-0.0947,-0.5391,0.3438,126,104.3091,73.1812,-4.3335,144,0.8344,0.5052,11.9832,-55.2057,32,0.9275,8948,4.0183,-59.1128
rg,1624962871024713732,1,-0.3218,-0.531,0.4375,127,75.6836,78.6133,-2.9297,144,0.8494,0.5143,14.0418,-53.7148,32,0.9285,9013,4.0183,-61.3787
rg,1624962871024737935,1,-0.4177,-0.5977,0.448,128,16.1743,37.7808,0.4272,144,0.8564,0.5213,15.629,-53.5246,32,0.9295,9053,4.0183,-62.6598
rg,1624962871394855170,1,0.2869,-1.0459,0.6528,129,-182.0679,-216.7969,17.6392,144,0.7454,0.5062,10.5044,-59.2328,32,0.9215,28149,4.0183,-55.7053
rg,1624962871394902983,1,0.4785,-1.583,0.4558,130,-88.1348,-101.3184,53.4668,144,0.7474,0.4482,9.3981,-62.4792,32,0.9215,10754,4.0183,-51.1334
rg,1624962871394924500,1,0.3303,-1.4119,0.4458,131,30.5176,44.7388,74.0967,144,0.7464,0.4292,12.7778,-58.9064,32,0.9204,9543,4.0183,-52.3445
rg,1624962871394945037,1,0.3621,-1.229,0.4502,132,135.498,47.6074,79.2847,144,0.7464,0.4122,15.3948,-53.8879,32,0.9194,8472,4.0183,-52.3258
rg,1624962871394964073,1,0.0049,-0.7898,0.2874,133,173.8281,78.3081,-1.0376,144,0.7474,0.3942,16.7278,-48.3192,32,0.9174,8407,4.0183,-55.095
rg,1624962871394982832,1,-0.2744,-0.3171,0.1443,134,196.3501,119.4458,-29.48,144,0.7484,0.3922,20.077,-42.4368,32,0.9164,8479,4.0183,-59.6566
rg,1624962871395001535,1,-0.376,-0.125,0.135,135,202.9419,150.0854,-23.3154,144,0.7504,0.3952,27.105,-36.2077,32,0.9154,8415,4.0183,-64.1583
rg,1624962871395047514,1,-0.543,0.1819,0.05,136,146.1792,139.8315,18.9819,144,0.7534,0.4052,32.4455,-33.2797,32,0.9134,10103,4.0183,-64.7976
rg,1624962871395069939,1,-0.5259,0.1858,0.1296,137,-49.9878,14.0381,18.1885,144,0.7564,0.4162,35.055,-33.9965,32,0.9134,8507,4.0183,-63.8685
rg,1624962871395101623,1,-0.4941,-0.5522,0.8071,138,-260.498,-102.7832,7.5684,144,0.7604,0.4332,31.7262,-42.5272,32,0.9154,8557,4.0183,-60.5107
rg,1624962871395121234,1,0.0615,-1.9546,1.9985,139,-303.2837,-181.0303,11.5967,144,0.7664,0.4422,25.9657,-51.5383,32,0.9194,8520,4.0183,-54.0596
rg,1624962871395139437,1,0.2019,-2.24,0.6892,140,-42.7246,-109.436,12.8174,144,0.7724,0.4582,22.5724,-52.4082,32,0.9265,8652,4.0183,-50.3126
rg,1624962871395158881,1,0.3545,-1.8994,0.7312,141,48.9502,-52.7344,26.123,144,0.7834,0.4772,20.8963,-50.2217,32,0.9285,8571,4.0183,-48.1233
rg,1624962871395177139,1,0.2844,-1.0127,0.6162,142,156.3721,5.9204,4.3335,144,0.8074,0.4952,19.9155,-44.3687,32,0.9295,8672,4.0183,-48.3777
rg,1624962871395196453,1,0.0723,-0.491,0.2771,143,137.6343,26.6724,-9.3994,144,0.8284,0.5102,19.4473,-39.9089,32,0.9315,8604,4.0183,-49.7045
rg,1624962871395215156,1,-0.1157,-0.4424,0.3777,144,39.6729,44.7998,-6.2866,144,0.8374,0.5213,20.3443,-39.1957,32,0.9335,8681,4.0183,-51.2596
rg,1624962871395233693,1,-0.2361,-0.5437,0.4617,145,-15.3809,31.9214,-7.9346,144,0.8214,0.5273,21.2242,-40.8627,32,0.9355,8620,4.0183,-52.6293
rg,1624962871395252562,1,-0.2732,-0.8054,0.4263,146,-132.9956,-81.8481,-0.2441,144,0.7724,0.5223,18.7174,-46.1729,32,0.9305,8686,4.0183,-50.5306
rg,1624962871395271117,1,0.0005,-1.1096,0.5386,147,-185.9741,-177.124,-8.5449,144,0.7504,0.5052,13.1988,-52.8226,32,0.9235,8664,4.0183,-45.3567
rg,1624962871395289209,1,0.3008,-1.4382,0.6106,148,-102.417,-156.4331,32.1655,144,0.7494,0.4742,9.7257,-56.2564,33,0.9194,8676,4.0183,-39.4989
rg,1624962871395307060,1,0.6152,-1.5481,0.6689,149,22.3999,-51.2695,86.3037,144,0.7484,0.4432,10.3006,-55.0966,33,0.9225,9607,4.0183,-35.8873
rg,1624962871395330800,1,0.5518,-1.2634,0.2891,150,126.6479,-0.061,71.9604,144,0.7494,0.4192,10.8572,-49.6622,33,0.9215,12972,4.0183,-35.8586
rg,1624962871395351781,1,0.2251,-0.7019,0.1885,151,179.0771,43.5791,7.6904,144,0.7494,0.4072,11.2492,-43.6743,33,0.9204,8223,4.0183,-37.1723
rg,1624962871395371613,1,-0.0698,-0.1504,0.0896,152,185.8521,92.2852,-34.0576,144,0.7504,0.4042,13.5761,-37.5894,33,0.9194,8156,4.0183,-40.7762
rg,1624962871395389520,1,-0.3059,0.061,0.0242,153,187.7441,141.1133,-35.7666,144,0.7514,0.4072,21.204,-31.9309,33,0.9194,8292,4.0183,-45.4482
rg,1624962871395408593,1,-0.4097,0.1218,-0.0352,154,108.0933,182.4951,7.6904,144,0.7544,0.4162,29.799,-28.7251,33,0.9194,8161,4.0183,-48.9857
rg,1624962871395427870,1,-0.5537,-0.0083,0.0391,155,-86.3037,99.8535,15.2588,144,0.7584,0.4302,35.3854,-33.1212,32,0.9204,9472,4.0183,-50.8631
rg,1624962871395445796,1,-0.6882,-0.7058,0.9939,156,-268.8599,-47.7905,-7.6904,144,0.7644,0.4392,33.476,-43.2482,32,0.9194,8253,4.0183,-49.7451
rg,1624962871395463684,1,-0.2993,-1.8306,1.5229,157,-268.6768,-184.1431,-2.4414,144,0.7694,0.4512,27.4581,-51.0842,32,0.9255,8427,4.0183,-43.6659
rg,1624962871395507830,1,-0.0525,-2.1335,0.9556,158,-159.9731,-183.1055,3.418,144,0.7724,0.4642,22.235,-55.3089,32,0.9295,8253,4.0183,-37.3729
rg,1624962871395531681,1,0.3586,-1.7415,0.8154,159,34.1797,-91.8579,27.4048,144,0.7794,0.4782,19.7621,-52.9394,32,0.9335,8443,4.0183,-33.6699
rg,1624962871395552236,1,0.3413,-1.0596,0.5742,160,132.2632,-10.376,15.2588,144,0.8034,0.4932,18.6612,-47.7733,32,0.9355,8310,4.0183,-33.1005
rg,1624962871764155231,1,-0.2449,-0.5881,0.386,161,24.292,42.5415,-4.9438,144,0.8424,0.5243,19.1799,-48.7029,32,0.9375,26820,4.0183,-33.735
rg,1624962871764204859,1,-0.3611,-0.6716,0.3792,162,-52.124,-34.9731,2.7466,144,0.8094,0.5233,16.7567,-52.3051,32,0.9385,8602,4.0183,-30.3077
rg,1624962871764225747,1,-0.021,-0.8687,0.5676,163,-158.02,-158.02,9.6436,144,0.7664,0.5112,12.854,-57.3553,32,0.9345,7729,4.0183,-24.7625
rg,1624962871764245950,1,0.2546,-1.2842,0.5962,164,-159.1187,-175.9033,11.9019,144,0.7534,0.5012,8.9026,-62.7746,32,0.9305,7907,4.0183,-18.3484
rg,1624962871764264875,1,0.4031,-1.4778,0.5027,165,-109.6802,-150.6958,35.9497,144,0.7534,0.4662,6.7498,-66.6222,32,0.9275,7868,4.0183,-12.2556
rg,1624962871764285449,1,0.6543,-1.5808,0.7288,166,-6.4087,-35.8276,69.1528,144,0.7514,0.4342,9.0362,-64.1405,32,0.9315,10868,4.0183,-12.5319
rg,1624962871764304467,1,0.5059,-1.3516,0.3367,167,126.2207,47.5464,77.2705,144,0.7494,0.4082,11.5513,-59.5851,32,0.9295,7936,4.0183,-12.8823
rg,1624962871764323762,1,0.2148,-0.8667,0.29,168,176.6968,77.2095,19.2871,144,0.7514,0.3882,12.9428,-53.4726,32,0.9305,7865,4.0183,-15.2323
rg,1624962871764342243,1,-0.0132,-0.6433,0.1333,169,185.1196,99.9146,-9.7046,144,0.7514,0.3752,15.4254,-47.7748,32,0.9285,7753,4.0183,-18.8476
rg,1624962871764361131,1,-0.2693,-0.2317,0.1047,170,184.2041,145.9351,-28.0151,144,0.7494,0.3772,19.915,-42.4815,32,0.9275,7893,4.0183,-24.0837
rg,1624962871764380056,1,-0.4614,0.0176,0.0278,171,178.833,170.8374,9.3994,144,0.7544,0.3812,27.4684,-36.9291,32,0.9255,7804,4.0183,-28.3551
rg,1624962871764398704,1,-0.4624,0.1824,0.0063,172,55.1147,79.7729,36.6821,144,0.7584,0.3912,32.9661,-34.2872,32,0.9255,13352,4.0183,-28.706
rg,1624962871764417425,1,-0.3992,-0.1858,0.353,173,-160.5835,-27.2217,12.8784,144,0.7624,0.4052,32.888,-39.7796,32,0.9275,7837,4.0183,-27.335
rg,1624962871764435943,1,-0.2114,-1.3523,2.1343,174,-249.1455,-72.5098,9.9487,144,0.7674,0.4182,28.8573,-49.169,32,0.9295,7997,4.0183,-22.6157
rg,1624962871764459035,1,0.0249,-1.9819,1.8208,175,-257.9956,-114.8682,14.0991,144,0.7714,0.4332,25.4743,-57.2496,32,0.9345,7920,4.0183,-17.982
rg,1624962871764478738,1,0.1863,-2.2117,0.7913,176,-6.4697,-59.021,26.6724,144,0.7824,0.4542,23.9722,-56.8648,32,0.9385,8776,4.0183,-15.4055
rg,1624962871764496978,1,0.2986,-1.3657,0.8567,177,142.0288,30.0293,23.3154,144,0.8014,0.4742,24.139,-51.4512,32,0.9405,9269,4.0183,-15.9615
rg,1624962871764515440,1,0.0435,-0.6709,0.3994,178,183.0444,44.0674,10.9253,144,0.8244,0.4902,24.6158,-45.1081,32,0.9405,8107,4.0183,-17.7034
rg,1624962871764565735,1,-0.0618,-0.4565,0.3308,179,153.8696,65.2466,3.7231,144,0.8394,0.5022,25.9196,-40.1493,32,0.9405,8031,4.0183,-19.7351
rg,1624962871764588530,1,-0.2783,-0.377,0.467,180,65.6128,67.9932,-0.1831,144,0.8494,0.5112,27.9599,-38.3507,32,0.9395,8115,4.0183,-21.6521
rg,1624962871764606677,1,-0.4995,-0.5601,0.4883,181,10.2539,33.8745,-6.2256,144,0.8454,0.5173,26.9737,-40.5054,32,0.9435,8034,4.0183,-21.1919
rg,1624962871764624158,1,-0.3984,-0.6743,0.4924,182,-120.1782,-120.5444,-4.0283,144,0.8014,0.5163,23.2867,-44.3374,32,0.9405,8021,4.0183,-17.9565
rg,1624962871764642695,1,0.106,-0.9849,0.6858,183,-233.0933,-252.6855,-3.1128,144,0.7584,0.5032,15.435,-51.4567,32,0.9325,8214,4.0183,-10.2381
rg,1624962871764661324,1,0.3801,-1.481,0.6414,184,-167.8467,-208.0078,7.4463,144,0.7484,0.4932,9.7875,-57.1584,32,0.9325,8037,4.0183,-3.2567
rg,1624962871764678990,1,0.4661,-1.6802,0.4604,185,-95.7642,-153.5645,42.8467,144,0.7514,0.4462,9.1335,-58.7656,32,0.9325,8271,4.0183,1.7771
rg,1624962871764697452,1,0.5464,-1.4866,0.4246,186,16.0522,-25.0854,76.4771,144,0.7484,0.4212,10.8508,-55.5004,32,0.9335,10676,4.0183,2.2115
rg,1624962871764716247,1,0.5054,-1.2717,0.3647,187,139.4043,19.104,59.5093,144,0.7484,0.3972,12.0341,-50.4599,32,0.9315,8840,4.0183,2.8595
rg,1624962871764734358,1,0.1753,-0.7896,0.2048,188,179.7485,43.0908,-8.9111,144,0.7464,0.3852,12.0518,-44.5742,32,0.9305,8190,4.0183,1.0655
rg,1624962871764751857,1,-0.1914,-0.4143,0.0461,189,182.1899,96.8628,-42.1143,144,0.7494,0.3802,14.3828,-39.538,32,0.9305,8350,4.0183,-3.1332
rg,1624962871764788263,1,-0.3049,-0.2756,0.0515,190,192.688,122.1924,-35.4004,144,0.7504,0.3822,20.0676,-33.0899,32,0.9295,8181,4.0183,-6.8432
rg,1624962871764809151,1,-0.4287,-0.0027,-0.0056,191,188.3545,134.0332,11.1694,144,0.7524,0.3912,27.0272,-26.5558,32,0.9285,8380,4.0183,-9.2025
rg,1624962871764826854,1,-0.4814,0.1646,-0.0398,192,64.0869,88.0127,43.5791,144,0.7554,0.4022,33.0381,-23.2362,32,0.9235,8237,4.0183,-8.7164
rg,1624962872116514630,1,-0.0925,-1.675,2.252,193,-307.9224,-86.792,29.8462,144,0.7714,0.4502,30.2924,-31.619,32,0.9385,27332,4.0183,-6.8044
rg,1624962872116651552,1,0.2739,-2.0825,0.8342,194,12.085,-18.6768,35.0952,144,0.7864,0.4722,29.2343,-31.7641,32,0.9425,11795,4.0183,-5.7592
rg,1624962872116681013,1,0.2009,-1.2012,0.7629,195,146.6064,59.021,4.5776,144,0.8074,0.4872,30.1113,-27.6452,32,0.9445,7848,4.0183,-7.5335
rg,1624962872116703939,1,0.0425,-0.8308,0.5449,196,178.3447,77.8198,-6.8359,144,0.8274,0.5032,31.9983,-22.5797,33,0.9455,7913,4.0183,-9.9532
rg,1624962872116724234,1,-0.2021,-0.4058,0.4392,197,128.3569,104.7363,-9.7046,144,0.8404,0.5153,35.2927,-19.6023,33,0.9455,7842,4.0183,-12.693
rg,1624962872116742863,1,-0.4541,-0.3425,0.4146,198,48.8281,76.1719,-13.855,144,0.8464,0.5223,38.2045,-19.544,33,0.9465,7896,4.0183,-15.0537
rg,1624962872116761788,1,-0.5503,-0.3784,0.3354,199,-2.5024,23.8647,-16.7236,144,0.8314,0.5293,36.5485,-23.3047,33,0.9475,8398,4.0183,-15.5805
rg,1624962872116780843,1,-0.5051,-0.6191,0.4204,200,-144.9585,-143.1885,-12.8174,144,0.7874,0.5253,31.2613,-28.9074,32,0.9425,8529,4.0183,-13.8209
rg,1624962872116800231,1,0.0107,-0.9568,0.7183,201,-260.8643,-314.5142,-6.2256,144,0.7604,0.5112,19.6106,-37.1337,32,0.9375,7853,4.0183,-6.9583
rg,1624962872116820860,1,0.3342,-1.2698,0.8433,202,-245.8496,-331.665,-1.9531,144,0.7524,0.4892,10.0661,-43.2029,32,0.9295,7940,4.0183,0.8667
rg,1624962872116849174,1,0.8906,-1.7949,0.6086,203,-27.771,-115.4785,73.1201,144,0.7524,0.4442,7.4968,-44.4377,32,0.9335,9856,4.0183,6.0763
rg,1624962872116873303,1,0.8394,-1.7686,0.4993,204,46.875,-12.6953,73.6084,144,0.7504,0.4272,8.0025,-43.2598,32,0.9325,8020,4.0183,8.4198
rg,1624962872116892839,1,0.6223,-1.2742,0.4617,205,146.1182,67.9321,39.3677,144,0.7514,0.4062,9.8853,-38.4678,32,0.9305,7988,4.0183,7.6348
rg,1624962872116969114,1,0.1101,-0.7351,0.1924,206,197.3877,110.2905,-26.2451,144,0.7534,0.4012,12.2253,-32.6419,32,0.9305,8061,4.0183,3.8822
rg,1624962872117000687,1,-0.0876,-0.5193,0.1182,207,196.4111,129.6387,-46.3867,91,0.7524,0.4012,15.7931,-27.4771,32,0.9285,7900,4.0414,-0.789
rg,1624962872117025705,1,-0.4309,-0.2556,0.0635,208,205.6885,181.7017,-43.5791,91,0.7544,0.4022,23.2782,-21.8315,32,0.9285,8013,4.0414,-5.8419
rg,1624962872117046426,1,-0.5881,0.0776,-0.0559,209,184.082,159.1797,7.9956,91,0.7554,0.4052,31.528,-15.1023,32,0.9295,7992,4.0414,-7.5378
rg,1624962872117064852,1,-0.6689,0.2026,-0.0999,210,134.7656,122.1313,17.8833,91,0.7584,0.4142,38.469,-9.2243,32,0.9295,8262,4.0414,-7.4617
rg,1624962872117098721,1,-0.6506,0.2339,-0.0076,211,-64.5752,-10.9253,12.6343,91,0.7594,0.4252,39.8793,-10.3667,32,0.9305,8105,4.0414,-6.1316
rg,1624962872117120313,1,-0.5156,-0.4277,0.5752,212,-271.4233,-112.4878,24.8413,91,0.7674,0.4362,35.7686,-20.5054,32,0.9335,8132,4.0414,-4.0625
rg,1624962872117139220,1,-0.436,-1.0356,1.5225,213,-344.4824,-171.3257,38.0859,91,0.7724,0.4472,29.0235,-32.1026,32,0.9375,8127,4.0414,0.8184
rg,1624962872117157737,1,0.2612,-2.2402,1.261,214,-231.9336,-191.2842,33.9966,91,0.7764,0.4632,22.4786,-39.7826,32,0.9405,8207,4.0414,6.511
rg,1624962872117177626,1,0.4658,-2.1189,0.634,215,41.687,-70.1294,42.9688,91,0.7894,0.4792,20.242,-38.2084,32,0.9455,8163,4.0414,9.3185
rg,1624962872117196218,1,0.4539,-1.1206,0.6826,216,117.8589,-18.1274,37.7197,91,0.8104,0.4932,19.8907,-32.3575,32,0.9465,8503,4.0414,8.8725
rg,1624962872117217624,1,0.2612,-0.7129,0.4924,217,179.9927,49.1943,-6.958,91,0.8374,0.5072,20.1746,-26.5499,32,0.9475,8217,4.0414,7.203
rg,1624962872117236438,1,-0.1423,-0.3313,0.4314,218,53.6499,112.7319,-1.5259,91,0.8514,0.5193,23.9676,-25.6831,32,0.9475,13255,4.0414,4.839
rg,1624962872117253160,1,-0.4363,-0.585,0.4585,219,3.7842,99.6704,-0.9766,91,0.8584,0.5243,26.3878,-28.9014,32,0.9485,8193,4.0414,2.8582
rg,1624962872117270511,1,-0.5391,-0.7202,0.3787,220,-75.4395,1.3428,-11.2305,91,0.8464,0.5293,26.5966,-33.2758,32,0.9495,8237,4.0414,1.863
rg,1624962872117289529,1,-0.2874,-0.873,0.533,221,-153.3813,-138.855,7.4463,91,0.8004,0.5283,21.9576,-38.8166,32,0.9465,8157,4.0414,5.2738
rg,1624962872117307121,1,0.1658,-1.0537,0.5132,222,-200.3174,-228.6377,3.9673,91,0.7554,0.4952,14.2943,-45.7335,32,0.9405,8463,4.0414,11.5391
rg,1624962872117324917,1,0.4375,-1.3447,0.4519,223,-132.2632,-179.3213,27.8931,91,0.7514,0.4682,9.2366,-50.6717,32,0.9315,8459,4.0414,17.562
rg,1624962872117344286,1,0.6343,-1.4739,0.6658,224,-70.1904,-107.2388,47.4243,91,0.7524,0.4282,9.4962,-51.7009,32,0.9355,8431,4.0414,19.4874
rg,1624962872478397286,1,0.1135,-1.2156,0.3591,225,149.0479,96.1304,8.7891,91,0.7524,0.3872,11.5943,-45.1257,32,0.9315,27120,4.0414,14.7034
rg,1624962872478464913,1,-0.3743,-0.4312,0.1118,226,228.1494,132.019,-53.1616,91,0.7524,0.3882,15.2351,-38.1317,32,0.9305,8638,4.0414,9.3691
rg,1624962872478485320,1,-0.5508,-0.0127,0.114,227,226.3794,165.8936,-20.5078,91,0.7544,0.3922,22.2378,-30.3096,32,0.9295,7783,4.0414,4.9464
rg,1624962872478505171,1,-0.604,0.1621,0.0872,228,181.9458,137.5122,4.3335,91,0.7574,0.4002,27.1174,-25.5345,32,0.9305,7693,4.0414,4.4914
rg,1624962872478523411,1,-0.5464,0.239,0.2131,229,-3.1128,-2.6855,12.8174,91,0.7594,0.4082,28.8188,-24.1251,32,0.9325,7819,4.0414,5.6692
rg,1624962872478540873,1,-0.4272,-0.3992,0.7729,230,-211.2427,-122.5586,11.8408,91,0.7634,0.4192,24.6245,-31.2966,32,0.9335,10402,4.0414,8.6402
rg,1624962872478559095,1,0.2871,-1.6221,2.1135,231,-281.311,-195.7397,30.8838,91,0.7664,0.4322,17.9223,-40.5435,32,0.9355,8369,4.0414,14.605
rg,1624962872478619908,1,0.3335,-2.116,0.7339,232,-174.1943,-144.5923,28.9307,91,0.7704,0.4462,15.0465,-42.6834,32,0.9445,7799,4.0414,17.9344
rg,1624962872478638648,1,0.4846,-1.9094,0.6794,233,39.1235,-52.002,34.3018,91,0.7854,0.4612,13.4145,-41.5652,32,0.9455,7889,4.0414,20.1371
rg,1624962872478655851,1,0.4307,-1.1284,0.7415,234,143.6768,10.7422,-8.9722,91,0.8124,0.4752,12.3703,-36.5451,32,0.9475,7809,4.0414,19.3857
rg,1624962872478680776,1,0.24,-0.7759,0.5134,235,158.2031,32.2876,-22.7051,91,0.8354,0.4882,12.213,-31.2663,32,0.9485,7921,4.0414,17.6911
rg,1624962872478699108,1,-0.0486,-0.4075,0.3542,236,100.5859,81.3599,-10.8032,91,0.8504,0.4962,14.5504,-28.4323,32,0.9475,7959,4.0414,15.4809
rg,1624962872478716478,1,-0.2686,-0.4399,0.4492,237,16.7236,74.1577,4.1504,91,0.8654,0.5012,17.5763,-28.7225,32,0.9485,7976,4.0414,14.0015
rg,1624962872478733329,1,-0.3826,-0.5327,0.4192,238,-24.8413,33.5693,2.6245,91,0.8694,0.5062,19.2934,-30.7163,32,0.9505,7861,4.0414,13.1384
rg,1624962872478750292,1,-0.2639,-0.6738,0.3745,239,-113.0371,-109.8633,17.395,91,0.8124,0.5153,13.5438,-36.9996,32,0.9455,7919,4.0414,17.8449
rg,1624962872478768995,1,0.3308,-1.1333,0.5569,240,-210.022,-212.6465,7.6904,91,0.7604,0.5032,6.3748,-45.331,32,0.9425,10963,4.0414,23.5812
rg,1624962872478786587,1,0.333,-1.314,0.4309,241,-169.5557,-180.2979,12.9395,91,0.7484,0.4952,1.3115,-52.9212,32,0.9365,8082,4.0414,29.284
rg,1624962872478803105,1,0.5376,-1.5422,0.2366,242,-70.6787,-88.0127,79.9561,91,0.7524,0.4562,1.1214,-56.6388,32,0.9355,8020,4.0414,33.9991
rg,1624962872478819604,1,0.6233,-1.4695,0.7202,243,30.4565,69.519,70.6177,91,0.7514,0.4372,4.1504,-55.7141,33,0.9395,8093,4.0414,33.2355
rg,1624962872478854566,1,0.4456,-1.4453,0.436,244,89.7827,100.647,72.3877,91,0.7514,0.4292,8.037,-52.9487,33,0.9385,8012,4.0414,31.564
rg,1624962872478872639,1,0.2651,-1.2153,0.3513,245,141.2964,95.0317,33.3252,91,0.7514,0.4132,10.7083,-48.4568,33,0.9375,9639,4.0414,29.2879
rg,1624962872478890213,1,-0.2239,-0.8225,0.1965,246,206.4209,140.686,-30.2734,91,0.7534,0.4092,13.9879,-42.3438,32,0.9365,8150,4.0414,24.1387
rg,1624962872478907860,1,-0.4783,-0.3181,0.125,247,262.085,200.5615,-28.9307,91,0.7544,0.4102,21.012,-34.343,32,0.9375,8095,4.0414,17.962
rg,1624962872478925563,1,-0.5659,-0.0754,0.0603,248,273.9258,216.7969,-7.7515,91,0.7554,0.4152,30.2299,-25.7025,32,0.9355,8037,4.0414,13.0009
rg,1624962872478942044,1,-0.781,0.3757,-0.072,249,195.3735,171.0205,21.9727,91,0.7574,0.4242,38.8527,-18.0449,32,0.9365,8270,4.0414,11.5565
rg,1624962872478958414,1,-0.8103,0.4456,0.0452,250,-40.2832,6.2866,4.8218,91,0.7634,0.4342,40.8205,-18.151,32,0.9385,8148,4.0414,12.5801
rg,1624962872478975858,1,-0.7063,0.0957,0.3081,251,-176.8799,-62.3169,5.127,91,0.7684,0.4412,36.8212,-27.5319,32,0.9405,8253,4.0414,15.6508
rg,1624962872478993635,1,-0.5835,-0.9565,1.6733,252,-354.4922,-178.4668,34.3628,91,0.7724,0.4532,30.8862,-38.3017,32,0.9445,8192,4.0414,21.7048
rg,1624962872479010153,1,0.2354,-2.1426,1.3875,253,-251.0376,-214.3555,18.0054,91,0.7774,0.4652,23.7634,-45.8149,32,0.9465,8345,4.0414,28.4175
rg,1624962872479026449,1,0.47,-2.2117,0.7378,254,13.855,-75.6836,31.25,91,0.7894,0.4842,21.3075,-45.0215,32,0.9525,8252,4.0414,31.2723
rg,1624962872479042893,1,0.585,-1.7373,0.8459,255,88.9893,-28.3203,25.4517,91,0.8114,0.4972,19.8336,-41.6645,32,0.9525,8424,4.0414,32.5745
rg,1624962872479059133,1,0.1931,-0.7905,0.5354,256,165.7715,31.8604,-32.6538,91,0.8294,0.5102,18.8519,-36.2845,32,0.9525,8286,4.0414,30.3958
rg,1624962872835586144,1,-0.4221,-0.5073,0.2878,257,-40.2832,6.8359,-15.8081,91,0.8354,0.5333,19.3883,-38.9167,32,0.9515,27292,4.0414,29.4163
rg,1624962872835661419,1,-0.0532,-0.9512,0.5618,258,-219.8486,-221.8018,-7.6294,91,0.7634,0.5253,12.1333,-46.8519,32,0.9435,16329,4.0414,35.2079
rg,1624962872835695029,1,0.334,-1.4673,0.595,259,-179.1382,-236.2061,3.418,91,0.7544,0.5123,5.3512,-53.6514,32,0.9375,7767,4.0414,42.5036
rg,1624962872835725491,1,0.6838,-1.7024,0.521,260,-28.8086,-111.6333,66.1621,91,0.7554,0.4692,3.9133,-55.0575,32,0.9395,7843,4.0414,47.6331
rg,1624962872835754564,1,0.5325,-1.489,0.366,261,105.7739,48.7061,73.9136,91,0.7524,0.4482,6.5576,-51.5859,32,0.9395,10802,4.0414,47.7457
rg,1624962872835790840,1,0.4617,-1.269,0.4075,262,147.583,46.3867,55.542,91,0.7524,0.4312,8.4754,-46.4501,32,0.9385,8015,4.0414,47.6619
rg,1624962872835821709,1,0.0793,-0.7434,0.209,263,191.4673,64.5752,-17.8833,91,0.7524,0.4132,9.3355,-40.2399,32,0.9365,7766,4.0414,45.1547
rg,1624962872835882541,1,-0.207,-0.27,0.0989,264,207.7637,100.647,-53.894,91,0.7534,0.4102,12.2898,-33.6645,32,0.9355,7879,4.0414,40.8582
rg,1624962872836027906,1,-0.3179,-0.1079,0.1047,265,212.8906,135.6201,-43.8843,91,0.7544,0.4132,17.8668,-26.5075,32,0.9345,7808,4.0414,36.5554
rg,1624962872836081515,1,-0.438,0.1667,0.072,266,146.1182,143.3716,18.9819,91,0.7564,0.4212,25.375,-20.3367,32,0.9335,8275,4.0414,35.2579
rg,1624962872836111829,1,-0.4148,0.1685,0.2019,267,-39.4287,38.6963,25.3296,91,0.7604,0.4302,28.6328,-20.5103,32,0.9355,7814,4.0414,36.2265
rg,1624962872836141254,1,-0.4155,-0.1028,0.4502,268,-152.4658,-27.2827,9.3994,91,0.7634,0.4372,28.3106,-25.9139,32,0.9365,7941,4.0414,37.2084
rg,1624962872836170771,1,-0.3115,-1.1184,1.8591,269,-304.2603,-146.4233,9.8877,91,0.7684,0.4472,22.7934,-36.5905,32,0.9385,7837,4.0414,40.9145
rg,1624962872836199400,1,0.0945,-2.0854,0.916,270,-170.6543,-121.521,34.8511,91,0.7704,0.4612,19.0923,-42.9559,32,0.9435,8018,4.0414,44.9695
rg,1624962872836232362,1,0.2278,-2.1736,0.7295,271,-55.4199,-81.604,43.5181,91,0.7734,0.4722,17.0941,-45.1291,33,0.9475,7972,4.0414,48.3189
rg,1624962872836260861,1,0.363,-1.4226,0.9058,272,93.5059,-4.2114,21.0571,91,0.7924,0.4852,16.459,-41.6777,33,0.9515,8154,4.0414,48.8962
rg,1624962872836288897,1,0.063,-0.7197,0.5107,273,157.5928,15.564,-13.3057,91,0.8154,0.4972,15.8315,-36.1593,33,0.9535,8031,4.0414,47.8693
rg,1624962872836315340,1,0.0088,-0.5186,0.3647,274,137.3291,27.6489,-3.1128,91,0.8354,0.5092,16.064,-31.6462,33,0.9525,8075,4.0414,46.8866
rg,1624962872836342395,1,-0.1584,-0.4211,0.2524,275,61.8286,59.6924,5.0049,91,0.8494,0.5193,18.3393,-30.5427,32,0.9535,8012,4.0414,45.4841
rg,1624962872836368616,1,-0.366,-0.5737,0.3403,276,-13.1226,26.062,1.0986,91,0.8544,0.5283,19.7251,-32.2486,32,0.9555,8208,4.0414,44.6212
rg,1624962872836394430,1,-0.2437,-0.7161,0.407,277,-115.4785,-91.4917,10.5591,91,0.8144,0.5353,16.9136,-37.1176,32,0.9525,10187,4.0414,46.8208
rg,1624962872836422244,1,0.1589,-0.9814,0.6284,278,-167.4805,-153.5034,6.1646,91,0.7684,0.5313,10.253,-44.5526,32,0.9445,8722,4.0414,51.6926
rg,1624962872836449243,1,0.2678,-1.1609,0.6279,279,-178.4668,-185.2417,0.7324,91,0.7514,0.5183,4.5384,-51.5872,32,0.9345,8120,4.0414,57.1926
rg,1624962872836476538,1,0.5164,-1.4827,0.3718,280,-70.4956,-103.2715,68.6035,91,0.7534,0.4682,3.3977,-54.9212,32,0.9375,8198,4.0414,62.1049
rg,1624962872836503019,1,0.687,-1.4731,0.7078,281,29.8462,50.1709,82.5806,91,0.7514,0.4472,6.2378,-54.0397,32,0.9415,8158,4.0414,62.3504
rg,1624962872836529147,1,0.6489,-1.4026,0.5129,282,79.5288,74.2188,83.8623,91,0.7494,0.4312,9.5714,-51.4799,32,0.9415,8280,4.0414,61.9116
rg,1624962872836555017,1,0.3752,-1.0891,0.3879,283,126.8311,99.4263,17.7002,91,0.7474,0.4162,11.6438,-47.6098,32,0.9405,8419,4.0414,59.1386
rg,1624962872836605145,1,-0.1582,-0.6191,0.3137,284,155.2734,168.457,-43.7012,91,0.7514,0.4112,15.1513,-43.458,32,0.9415,8379,4.0414,52.8239
rg,1624962872836634514,1,-0.3564,-0.4062,0.29,285,171.9971,213.623,-44.1895,91,0.7524,0.4122,23.3624,-38.7835,32,0.9405,8225,4.0414,45.1776
rg,1624962872836659847,1,-0.6135,-0.1338,0.2075,286,165.1001,248.5352,7.5684,91,0.7534,0.4172,33.0019,-35.1426,32,0.9395,8538,4.0414,38.7872
rg,1624962872836685809,1,-0.6973,0.0679,0.1631,287,53.4668,126.8921,22.2168,91,0.7574,0.4252,39.3095,-33.9621,32,0.9405,8307,4.0414,36.4629
rg,1624962872836712882,1,-0.7117,-0.2354,0.4934,288,-125,-39.6118,-6.6528,91,0.7614,0.4322,38.401,-38.1047,32,0.9415,8498,4.0414,37.5394
rg,1624962873197764875,1,0.2654,-1.8782,0.8599,289,-85.6323,-172.2412,28.6865,91,0.7694,0.4582,32.2998,-39.0822,33,0.9525,26937,4.0414,43.1433
rg,1624962873197841798,1,0.4194,-1.1809,0.6445,290,106.1401,-43.6401,5.4932,91,0.7984,0.4842,29.416,-35.0988,33,0.9555,15949,4.0414,43.9957
rg,1624962873197866631,1,0.3298,-0.8921,0.4805,291,132.3242,-22.3389,-2.1973,91,0.8214,0.4962,27.0795,-30.7278,33,0.9555,7716,4.0414,43.8541
rg,1624962873197886519,1,0.1414,-0.5349,0.2119,292,99.1211,32.5317,-4.7607,91,0.8414,0.5072,26.8408,-28.7069,32,0.9565,7858,4.0414,42.2232
rg,1624962873197905833,1,-0.0771,-0.5149,0.2778,293,34.729,83.1299,4.0283,91,0.8554,0.5153,29.2114,-29.4866,32,0.9565,7724,4.0414,39.9186
rg,1624962873197924944,1,-0.2205,-0.6189,0.4368,294,2.6245,87.4634,6.2866,91,0.8604,0.5223,32.2186,-31.514,32,0.9585,8745,4.0414,37.5048
rg,1624962873197943443,1,-0.4045,-0.8052,0.3765,295,-65.7959,-1.5869,14.2212,91,0.8264,0.5283,32.3268,-35.1484,32,0.9555,8593,4.0414,37.3937
rg,1624962873197961405,1,-0.1606,-0.9268,0.5828,296,-147.7051,-121.6431,5.3101,91,0.7824,0.5233,27.785,-40.1884,32,0.9495,7874,4.0414,40.5354
rg,1624962873197981923,1,-0.0862,-1.0142,0.623,297,-151.1841,-138.3667,-4.3945,91,0.7564,0.5193,22.9123,-44.1853,32,0.9425,7695,4.0414,44.6273
rg,1624962873198000348,1,0.2283,-1.2986,0.5662,298,-89.6606,-139.9536,45.166,91,0.7514,0.5092,19.1428,-46.6293,32,0.9365,7910,4.0414,49.9275
rg,1624962873198018515,1,0.6316,-1.4858,0.8811,299,-23.3154,-51.0254,71.9604,91,0.7524,0.4772,18.4234,-46.8661,32,0.9425,7825,4.0414,53.4182
rg,1624962873198036829,1,0.458,-1.52,0.6758,300,33.1421,27.9541,59.5703,91,0.7514,0.4632,19.7263,-46.2129,32,0.9425,8002,4.0414,53.9736
rg,1624962873198056569,1,0.3462,-1.3308,0.532,301,114.9902,44.4336,37.4146,91,0.7514,0.4482,20.8471,-42.5778,32,0.9415,7844,4.0414,53.4418
rg,1624962873198074716,1,-0.1326,-0.8831,0.3069,302,175.1709,88.3179,-36.377,91,0.7514,0.4372,22.1861,-38.0765,32,0.9415,8039,4.0414,49.3674
rg,1624962873198093882,1,-0.2734,-0.6172,0.2314,303,186.7676,107.1777,-49.3774,91,0.7514,0.4312,24.6246,-33.5939,32,0.9395,7851,4.0414,44.4465
rg,1624962873198111882,1,-0.4451,-0.1638,0.1396,304,216.2476,144.165,-39.0015,91,0.7524,0.4292,30.2192,-27.463,32,0.9385,8050,4.0414,39.6055
rg,1624962873198129178,1,-0.5945,0.2317,-0.031,305,188.6597,129.6997,0.3662,91,0.7554,0.4302,36.9517,-20.4429,32,0.9395,7890,4.0414,37.659
rg,1624962873198148362,1,-0.6589,0.3652,-0.0906,306,119.6289,87.1582,13.6719,91,0.7594,0.4382,42.321,-14.8333,32,0.9395,8117,4.0414,37.8157
rg,1624962873198198342,1,-0.5974,0.1985,0.04,307,-126.2207,-55.4199,13.6719,91,0.7644,0.4462,41.9769,-17.87,32,0.9405,8020,4.0414,39.983
rg,1624962873198220304,1,0.0796,-1.5305,2.5637,308,-393.9209,-259.8267,51.6357,91,0.7704,0.4512,31.9452,-29.4864,32,0.9435,8309,4.0414,47.2654
rg,1624962873198240081,1,0.4814,-2.189,1.9014,309,-319.0308,-239.8071,40.6494,91,0.7734,0.4662,23.5775,-39.3837,32,0.9485,8048,4.0414,54.5442
rg,1624962873198256970,1,0.5339,-2.4348,0.5969,310,-5.3711,-89.9048,40.4663,91,0.7854,0.4802,20.6755,-39.5588,32,0.9525,8248,4.0414,57.7876
rg,1624962873198284561,1,0.5469,-1.354,0.7915,311,142.4561,32.4097,16.0522,91,0.8074,0.4902,20.691,-34.7858,32,0.9555,8074,4.0414,57.1506
rg,1624962873198305616,1,0.3096,-0.8892,0.6116,312,184.3872,57.312,-12.6953,91,0.8294,0.5032,21.9863,-29.1997,32,0.9565,8252,4.0414,54.2195
rg,1624962873198323264,1,-0.0525,-0.3333,0.3164,313,149.4141,108.5815,-13.1226,91,0.8444,0.5143,25.0263,-25.0424,32,0.9565,9152,4.0414,51.2504
rg,1624962873198341245,1,-0.3689,-0.3601,0.4026,314,46.814,127.6855,-1.4648,91,0.8504,0.5223,29.9978,-24.9301,32,0.9575,10081,4.0414,48.4941
rg,1624962873198361003,1,-0.6172,-0.658,0.3196,315,-65.0024,-5.9204,-3.7231,91,0.8294,0.5313,30.288,-28.8072,32,0.9555,8088,4.0414,47.8065
rg,1624962873198378614,1,-0.3164,-0.864,0.4978,316,-195.4346,-197.3877,-1.6479,91,0.7824,0.5293,23.2687,-35.736,32,0.9485,8351,4.0414,51.8514
rg,1624962873198397632,1,-0.0374,-1.0471,0.7004,317,-231.4453,-260.0708,-1.1597,91,0.7564,0.5163,14.148,-43.5661,32,0.9425,8164,4.0414,58.5251
rg,1624962873198415909,1,0.467,-1.6672,0.7175,318,-133.3618,-212.2803,32.5928,91,0.7524,0.4932,8.1679,-48.3538,32,0.9385,8603,4.0414,65.482
rg,1624962873198462315,1,0.8269,-1.8789,0.7002,319,2.4414,-45.5322,91.0645,91,0.7514,0.4612,8.5469,-48.4484,32,0.9405,8264,4.0414,69.1877
rg,1624962873198494499,1,0.5767,-1.554,0.4734,320,143.7378,62.561,69.5801,91,0.7504,0.4442,11.237,-43.5956,32,0.9425,8475,4.0414,69.1305
rg,1624962873550831268,1,-0.2886,-0.124,0.0398,321,245.9106,116.394,-71.4722,82,0.7514,0.4042,16.3311,-35.4777,32,0.9395,27110,4.0447,62.2611
rg,1624962873550868526,1,-0.7542,0.4719,-0.1409,322,175.415,220.0317,21.9727,82,0.7534,0.4142,26.2451,-29.1741,32,0.9385,17031,4.0447,58.3754
rg,1624962873550889322,1,-0.8274,0.6091,-0.175,323,56.6406,168.5181,39.6729,82,0.7574,0.4242,34.9546,-26.8878,32,0.9395,7677,4.0447,56.8281
rg,1624962873550909414,1,-0.6589,0.166,0.0444,324,-240.0513,-36.9263,14.4653,82,0.7614,0.4342,35.8673,-34.948,32,0.9405,7872,4.0447,58.6064
rg,1624962873550928191,1,-0.6362,-0.96,1.6626,325,-477.5391,-165.7104,18.6157,82,0.7654,0.4412,30.9629,-50.3049,32,0.9425,7857,4.0447,64.8117
rg,1624962873550946672,1,-0.0457,-1.9844,2.7869,326,-485.4126,-240.0513,31.7993,82,0.7704,0.4532,25.765,-65.3346,32,0.9465,8167,4.0447,74.538
rg,1624962873550964838,1,0.2285,-2.7488,0.5676,327,-141.6626,-166.0767,17.7612,82,0.7734,0.4672,22.6774,-68.5811,32,0.9495,8233,4.0447,81.3301
rg,1624962873551007558,1,0.5815,-1.7625,0.8708,328,81.0547,-41.2598,23.7427,82,0.7874,0.4802,21.4548,-64.3744,32,0.9535,8525,4.0447,83.3926
rg,1624962873551027317,1,0.262,-0.8066,0.5444,329,181.5796,15.564,-16.1743,82,0.8174,0.4992,19.8478,-57.1393,32,0.9545,11439,4.0447,82.5122
rg,1624962873551045928,1,-0.0098,-0.3804,0.1387,330,122.5586,58.5327,-11.7798,82,0.8394,0.5092,20.082,-53.5765,32,0.9545,8011,4.0447,79.9718
rg,1624962873551064242,1,-0.2563,-0.4771,0.1946,331,31.0669,75.5005,-7.7515,82,0.8504,0.5203,21.8736,-53.8658,32,0.9555,9479,4.0447,76.9815
rg,1624962873551092685,1,-0.3972,-0.6108,0.2808,332,-8.3008,47.9736,-6.5308,82,0.8524,0.5293,23.1145,-55.3179,32,0.9575,7986,4.0447,74.9643
rg,1624962873551110685,1,-0.4058,-0.7864,0.2764,333,-97.4121,-79.2236,8.4839,82,0.8154,0.5363,21.816,-58.6012,32,0.9545,7810,4.0447,77.8131
rg,1624962873551128777,1,-0.0537,-0.9624,0.4666,334,-185.1807,-191.5283,1.1597,82,0.7684,0.5283,17.4749,-63.8019,32,0.9445,8896,4.0447,84.9036
rg,1624962873551146035,1,0.0493,-1.1204,0.5325,335,-172.5464,-194.0918,-5.0659,82,0.7534,0.5153,14.2414,-66.7304,32,0.9375,8294,4.0447,91.4462
rg,1624962873551163961,1,0.355,-1.425,0.3623,336,-50.293,-133.4229,53.9551,82,0.7534,0.4682,13.124,-67.6708,32,0.9395,8107,4.0447,97.2868
rg,1624962873551181812,1,0.6052,-1.4722,0.6575,337,42.2974,1.2207,87.5854,82,0.7524,0.4512,15.0898,-65.5701,32,0.9425,7992,4.0447,98.6534
rg,1624962873551199256,1,0.5322,-1.4155,0.4294,338,90.5151,35.0342,81.4209,82,0.7524,0.4392,16.5055,-60.9818,32,0.9425,8109,4.0447,98.0959
rg,1624962873551216366,1,0.3176,-1.0916,0.4673,339,138.4277,58.2886,13.5498,82,0.7514,0.4302,16.9901,-56.2094,32,0.9415,8045,4.0447,96.1907
rg,1624962873551233458,1,-0.1401,-0.5015,0.1765,340,179.2603,124.3286,-53.0396,82,0.7524,0.4212,18.1353,-51.2944,32,0.9425,8178,4.0447,90.5082
rg,1624962873551250791,1,-0.2668,-0.2695,0.1736,341,186.7065,166.748,-56.5186,82,0.7544,0.4222,23.9008,-46.3583,32,0.9425,7989,4.0447,82.6548
rg,1624962873551267328,1,-0.5762,-0.0088,0.2036,342,154.9683,226.6235,-16.0522,82,0.7554,0.4262,31.5508,-43.1511,32,0.9415,8226,4.0447,75.2461
rg,1624962873551284197,1,-0.7053,0.041,0.2175,343,13.0615,80.5664,10.5591,82,0.7594,0.4372,35.7875,-43.2117,32,0.9425,8094,4.0447,73.3093
rg,1624962873551300938,1,-0.6243,-0.4246,0.5732,344,-153.5645,-112.793,-9.1553,82,0.7624,0.4472,32.5932,-47.0854,32,0.9465,8313,4.0447,77.0153
rg,1624962873551318011,1,-0.5308,-0.7317,0.876,345,-215.271,-181.9458,1.709,82,0.7644,0.4542,27.6929,-52.1119,32,0.9485,8177,4.0447,83.6534
rg,1624962873551334881,1,0.2341,-1.616,1.4927,346,-206.604,-244.812,26.1841,82,0.7654,0.4662,21.61,-56.1925,32,0.9505,8298,4.0447,93.1793
rg,1624962873551351473,1,0.4705,-1.874,0.6594,347,-24.1089,-139.9536,27.3438,82,0.7734,0.4752,18.1222,-55.809,33,0.9555,8261,4.0447,98.5462
rg,1624962873551369047,1,0.5537,-1.3101,0.6938,348,37.2314,-90.6372,26.1841,82,0.7914,0.4832,15.7074,-52.5028,33,0.9575,8617,4.0447,100.0603
rg,1624962873551385879,1,0.3757,-0.9939,0.5889,349,114.3188,-12.0239,-22.3389,82,0.8114,0.4942,13.4625,-48.2619,33,0.9585,8262,4.0447,99.7361
rg,1624962873551403027,1,0.1265,-0.5559,0.1899,350,118.5303,38.6353,-8.9111,82,0.8344,0.5072,13.3252,-44.7436,32,0.9595,8911,4.0447,98.0921
rg,1624962873551419989,1,-0.0938,-0.4351,0.1484,351,57.4951,105.5908,9.8877,82,0.8444,0.5183,16.5772,-44.18,32,0.9595,9726,4.0447,95.0792
rg,1624962873551436859,1,-0.3242,-0.6235,0.3257,352,-26.001,79.4067,20.9961,82,0.8384,0.5253,19.736,-46.4353,32,0.9615,8609,4.0447,93.1186
rg,1624962873913104060,1,-0.0171,-1.2539,0.5632,353,-120.3003,-131.0425,20.0806,82,0.7544,0.5012,15.8356,-50.6231,32,0.9455,27981,4.0447,97.5569
rg,1624962873913143133,1,0.5027,-1.75,0.7266,354,27.2827,-15.9302,77.8809,82,0.7524,0.4692,16.6794,-49.4601,32,0.9485,11582,4.0447,99.9505
rg,1624962873913163947,1,0.595,-1.7773,0.5605,355,78.3081,7.019,87.0972,82,0.7524,0.4512,18.2237,-46.5556,32,0.9495,7726,4.0447,101.8775
rg,1624962873913210687,1,0.3022,-1.3972,0.5164,356,170.0439,64.6973,24.9634,82,0.7524,0.4352,19.7109,-41.0783,32,0.9505,7941,4.0447,100.3944
rg,1624962873913232204,1,-0.1545,-0.6641,0.2297,357,238.2202,99.6094,-40.4663,82,0.7534,0.4252,21.6887,-34.1735,32,0.9505,7765,4.0447,96.0205
rg,1624962873913251722,1,-0.2549,-0.3357,0.209,358,255.0049,116.6992,-51.2085,82,0.7534,0.4192,27.043,-25.491,32,0.9495,8627,4.0447,91.2667
rg,1624962873913270407,1,-0.4265,0.0962,0.1533,359,255.0659,154.541,-23.0713,82,0.7544,0.4232,34.0367,-16.2041,33,0.9495,8495,4.0447,88.2763
rg,1624962873913288832,1,-0.4968,0.3479,0.0872,360,124.6948,98.6938,25.3906,82,0.7584,0.4312,39.5647,-9.4225,33,0.9505,7907,4.0447,89.4655
rg,1624962873913306257,1,-0.4812,0.1262,0.2229,361,-102.9053,-7.5073,11.8408,82,0.7614,0.4402,40.3708,-12.2228,33,0.9515,7864,4.0447,90.6804
rg,1624962873913323775,1,-0.4666,-0.1726,0.4673,362,-209.1064,-50.6592,6.5308,82,0.7624,0.4472,38.6164,-20.1695,33,0.9525,7930,4.0447,91.5373
rg,1624962873913342386,1,-0.3618,-1.1689,1.8181,363,-331.665,-149.5361,23.4375,82,0.7674,0.4542,32.6308,-31.4046,32,0.9505,7811,4.0447,95.5164
rg,1624962873913360570,1,0.0581,-1.9214,0.8132,364,-282.2266,-173.2788,21.6675,82,0.7684,0.4672,27.1446,-37.3338,32,0.9585,8078,4.0447,99.3851
rg,1624962873913378237,1,0.188,-1.9053,0.729,365,-71.6553,-112.0605,27.1606,82,0.7714,0.4732,23.2537,-39.7626,32,0.9595,7906,4.0447,102.8384
rg,1624962873913395551,1,0.373,-1.2805,0.9585,366,34.1187,-37.2925,14.8926,82,0.7854,0.4802,21.1554,-38.3811,32,0.9615,8064,4.0447,104.1188
rg,1624962873913412921,1,0.1589,-0.8196,0.6069,367,67.627,-23.3765,-8.4229,82,0.8074,0.4892,19.2736,-36.1301,32,0.9625,7921,4.0447,103.783
rg,1624962873913430068,1,0.1013,-0.689,0.324,368,55.9082,0.3662,-4.3945,82,0.8294,0.5012,18.9222,-36.1719,32,0.9625,8900,4.0447,103.0463
rg,1624962873913447142,1,0.0671,-0.7349,0.2693,369,9.7656,25.0854,1.8311,82,0.8424,0.5102,18.9653,-37.2845,32,0.9625,8471,4.0447,102.0471
rg,1624962873913464178,1,-0.0566,-0.8442,0.2769,370,-17.4561,26.8555,-2.4414,82,0.8504,0.5173,19.2589,-39.5888,32,0.9635,8096,4.0447,100.8232
rg,1624962873913481196,1,-0.1526,-0.8774,0.3408,371,-40.6494,10.498,7.5684,82,0.8424,0.5223,19.4568,-42.3734,32,0.9645,7944,4.0447,100.3974
rg,1624962873913498325,1,-0.1533,-0.8894,0.4097,372,-73.4253,-11.8408,11.5967,82,0.7944,0.5213,19.0719,-45.9798,32,0.9585,8140,4.0447,100.804
rg,1624962873913515010,1,-0.0647,-0.9912,0.4509,373,-130.5542,-69.8242,-4.1504,82,0.7604,0.5072,16.5323,-51.3247,32,0.9505,7986,4.0447,102.6621
rg,1624962873913545194,1,0.0359,-1.177,0.5195,374,-83.6792,-62.1338,24.8413,82,0.7534,0.5012,15.1451,-54.5184,32,0.9445,8180,4.0447,105.1949
rg,1624962873913564175,1,0.363,-1.4719,1.0137,375,-14.9536,-15.8081,71.228,82,0.7534,0.4602,16.0767,-54.5345,32,0.9505,12648,4.0447,107.4314
rg,1624962873913581156,1,0.3726,-1.6731,0.6069,376,78.3081,6.958,79.4067,82,0.7534,0.4442,17.7368,-51.5158,32,0.9525,8307,4.0447,108.9854
rg,1624962873913597914,1,0.3049,-1.5684,0.5962,377,124.6948,15.9302,60.5469,82,0.7534,0.4282,18.5212,-45.0513,32,0.9525,8091,4.0447,108.5855
rg,1624962873913627969,1,-0.0671,-1.001,0.3237,378,226.0742,39.978,-0.7935,82,0.7534,0.4152,19.5607,-36.9015,32,0.9525,8346,4.0447,106.141
rg,1624962873913645672,1,-0.2437,-0.3113,0.1687,379,263.4888,74.2188,-34.79,82,0.7534,0.4092,21.9501,-28.2728,32,0.9525,8189,4.0447,102.9602
rg,1624962873913662523,1,-0.4187,0.1301,0.1287,380,262.5122,113.7695,-17.1509,82,0.7564,0.4102,27.6162,-17.9173,32,0.9515,8905,4.0447,100.8528
rg,1624962873913679208,1,-0.4788,0.4333,0.0544,381,141.3574,50.354,30.3955,82,0.7584,0.4182,31.4006,-10.1068,32,0.9515,8836,4.0447,102.5772
rg,1624962873913695726,1,-0.4519,0.4753,0.0342,382,40.6494,-1.8921,32.959,82,0.7614,0.4282,30.9455,-10.7972,32,0.9525,8297,4.0447,105.0764
rg,1624962873913713040,1,-0.2651,0.0632,0.2153,383,-210.3271,-80.8105,21.6675,82,0.7644,0.4392,28.8702,-17.4846,32,0.9525,8409,4.0447,107.3041
rg,1624962873913729780,1,-0.1821,-0.9497,1.7178,384,-403.0762,-130.4321,25.6958,82,0.7694,0.4482,23.7578,-32.371,32,0.9555,8250,4.0447,110.6565
rg,1624962874266911485,1,0.2954,-1.6863,0.9368,385,62.8052,-17.6392,-6.7139,82,0.7984,0.4882,21.8922,-30.9448,32,0.9655,27647,4.0447,110.3247
rg,1624962874266983779,1,0.0327,-0.5317,0.2546,386,152.2827,9.5215,-2.8687,82,0.8314,0.5102,21.3641,-26.339,32,0.9665,15416,4.0447,109.4798
rg,1624962874267005371,1,-0.0208,-0.373,0.085,387,60.73,23.3154,5.188,82,0.8394,0.5203,21.8809,-25.8918,33,0.9675,7768,4.0447,108.5417
rg,1624962874267025426,1,-0.0693,-0.4465,0.0857,388,2.3804,13.1836,3.6621,82,0.8294,0.5253,22.2169,-27.7756,33,0.9675,7843,4.0447,107.6996
rg,1624962874267045629,1,-0.1414,-0.7524,0.3589,389,-137.7563,-35.0952,-5.7373,82,0.7914,0.5263,20.5449,-34.4761,33,0.9605,7758,4.0447,107.7464
rg,1624962874267064592,1,-0.1809,-1.0635,0.4697,390,-161.1938,-75.3784,-9.8267,82,0.7624,0.5193,17.5766,-41.5942,33,0.9495,7902,4.0447,108.9724
rg,1624962874267082517,1,-0.1111,-1.1926,0.5293,391,-114.7461,-83.7402,8.2397,82,0.7574,0.5133,14.6145,-46.3505,32,0.9435,8939,4.0447,111.3904
rg,1624962874267100646,1,0.3767,-1.4053,0.8787,392,-25.8789,-79.3457,75.3174,82,0.7544,0.4882,13.5929,-46.732,32,0.9475,7867,4.0447,115.7875
rg,1624962874267119145,1,0.4819,-1.5366,0.5586,393,55.3589,-13.5498,88.1958,82,0.7554,0.4742,14.647,-44.6892,32,0.9505,7815,4.0447,118.491
rg,1624962874267137904,1,0.4722,-1.4597,0.5486,394,95.7642,10.0708,76.0498,82,0.7544,0.4592,15.8817,-41.2783,32,0.9505,7918,4.0447,120.2313
rg,1624962874267155385,1,0.1018,-1.0125,0.4302,395,153.6255,71.167,18.4326,82,0.7554,0.4492,17.7945,-36.547,33,0.9495,7833,4.0447,118.6428
rg,1624962874267173347,1,-0.2188,-0.3767,0.1941,396,194.458,112.6099,-31.7993,82,0.7554,0.4402,21.2543,-30.9928,33,0.9495,7937,4.0447,114.6021
rg,1624962874267191773,1,-0.4055,0.0354,0.2139,397,182.8003,164.6118,-15.3809,82,0.7564,0.4362,28.2948,-24.5772,33,0.9475,11786,4.0447,111.0067
rg,1624962874267209809,1,-0.5325,0.2173,0.1748,398,50.415,122.4365,19.3481,82,0.7584,0.4432,34.6889,-22.0937,33,0.9475,7984,4.0447,110.1743
rg,1624962874267228679,1,-0.5796,0.116,0.2363,399,-54.5654,66.04,12.4512,82,0.7604,0.4512,38.6366,-23.8306,32,0.9475,7941,4.0447,109.9348
rg,1624962874267246679,1,-0.6731,-0.564,0.8137,400,-241.0278,-61.0962,-3.8452,82,0.7654,0.4602,36.2646,-33.061,32,0.9485,8054,4.0447,110.9752
rg,1624962874267264400,1,-0.2581,-1.5273,1.4778,401,-289.917,-197.8149,14.5874,82,0.7694,0.4712,29.3219,-41.7501,32,0.9515,7983,4.0447,116.9665
rg,1624962874267281585,1,0.0754,-1.8904,1.1357,402,-211.0596,-193.9087,18.7378,82,0.7714,0.4812,23.2459,-47.9005,32,0.9555,8607,4.0447,123.3417
rg,1624962874267298955,1,0.3857,-1.783,0.6646,403,-16.2354,-107.2998,23.9868,82,0.7754,0.4872,19.856,-47.892,32,0.9575,8625,4.0447,127.1118
rg,1624962874267318362,1,0.2808,-1.0813,0.637,404,81.2988,-29.541,-17.2119,82,0.7944,0.4972,17.3485,-44.9906,32,0.9605,8472,4.0447,127.3257
rg,1624962874267336657,1,0.1782,-0.7302,0.3943,405,99.7314,-10.5591,-12.3901,82,0.8174,0.5092,15.6185,-41.6963,32,0.9625,8130,4.0447,127.0222
rg,1624962874267389989,1,0.0686,-0.6787,0.1296,406,80.5664,10.1929,-3.2349,82,0.8354,0.5193,15.6857,-40.9344,32,0.9625,8198,4.0447,125.8262
rg,1624962874267421432,1,-0.0083,-0.7051,0.0962,407,42.9688,30.0903,-2.5635,82,0.8484,0.5253,16.0827,-41.0185,32,0.9625,8128,4.0447,124.4993
rg,1624962874267440913,1,-0.1309,-0.752,0.2371,408,26.4282,35.7056,5.8594,82,0.8574,0.5313,17.1285,-41.4032,32,0.9645,8400,4.0447,123.3602
rg,1624962874267458598,1,-0.2021,-0.7463,0.2852,409,1.0986,7.2021,21.1792,82,0.8514,0.5373,17.858,-42.2831,32,0.9635,8170,4.0447,123.5034
rg,1624962874267477264,1,-0.1694,-0.7571,0.3906,410,-34.4238,-22.522,24.4751,82,0.8104,0.5423,17.6473,-44.035,32,0.9565,8231,4.0447,124.6544
rg,1624962874267510096,1,-0.0647,-0.9287,0.4749,411,-94.1772,-83.4961,15.9912,82,0.7704,0.5413,15.2698,-47.7003,32,0.9495,8189,4.0447,127.4066
rg,1624962874267529133,1,0.2014,-1.197,0.5737,412,-71.7163,-107.7881,42.6636,82,0.7534,0.5373,12.8397,-50.1157,32,0.9435,8333,4.0447,131.7565
rg,1624962874267548132,1,0.3684,-1.3025,0.5964,413,-38.208,-88.0737,62.1948,82,0.7524,0.4922,11.4071,-51.2759,32,0.9415,8292,4.0447,136.0381
rg,1624962874267565891,1,0.4548,-1.3101,0.9597,414,37.2925,17.7002,62.0728,82,0.7504,0.4682,12.7339,-49.6561,32,0.9465,8411,4.0447,137.0545
rg,1624962874267583427,1,0.2168,-1.1453,0.5381,415,123.6572,38.9404,56.3965,82,0.7504,0.4512,14.5926,-45.2316,32,0.9445,8352,4.0447,137.2689
rg,1624962874267601075,1,-0.0352,-0.7739,0.4592,416,138.1836,49.4385,-4.8828,82,0.7484,0.4342,15.4313,-40.6878,32,0.9475,8461,4.0447,135.5607
rg,1624962874624155479,1,-0.5359,0.0425,0.269,417,128.3569,174.6826,-5.127,82,0.7554,0.4322,22.3581,-38.4304,32,0.9465,27456,4.0447,131.704
rg,1624962874624199848,1,-0.6567,-0.1575,0.3818,418,-87.0361,32.5317,-4.3335,82,0.7584,0.4442,24.5634,-41.9659,32,0.9465,10044,4.0447,130.7414
rg,1624962874624222051,1,-0.6331,-0.7339,0.8357,419,-226.3184,-104.187,-10.7422,82,0.7624,0.4532,21.5832,-49.8095,32,0.9475,8841,4.0447,133.6699
rg,1624962874624241402,1,-0.1733,-1.5254,1.3081,420,-238.2812,-179.9316,7.2632,82,0.7664,0.4582,16.934,-57.1872,32,0.9505,7775,4.0447,140.0168
rg,1624962874624260513,1,0.062,-1.7944,1.0496,421,-171.2036,-158.3862,7.6294,82,0.7704,0.4662,13.1871,-62.849,32,0.9545,8124,4.0447,145.7824
rg,1624962874624279883,1,0.3064,-1.6516,0.759,422,-16.5405,-96.7407,1.2817,82,0.7774,0.4772,10.6001,-62.8545,32,0.9575,8552,4.0447,149.3067
rg,1624962874624299512,1,0.2834,-1.1487,0.6233,423,71.5332,-45.5933,-11.8408,82,0.7924,0.4852,8.4353,-59.7068,32,0.9605,8013,4.0447,150.6858
rg,1624962874624318141,1,0.2439,-0.811,0.2783,424,94.7266,-23.1934,-0.061,82,0.8144,0.4952,7.0176,-56.2454,32,0.9605,8940,4.0447,151.3858
rg,1624962874624335973,1,0.1953,-0.7119,0.1501,425,79.3457,2.1973,0.4272,82,0.8304,0.5062,6.2499,-53.8986,32,0.9615,8445,4.0447,151.2035
rg,1624962874624353954,1,0.0144,-0.6675,0.2153,426,30.1514,40.4663,-3.1128,82,0.8344,0.5092,6.8181,-53.557,32,0.9625,7708,4.0447,149.7347
rg,1624962874624371528,1,-0.1643,-0.7654,0.3977,427,-41.3818,25.1465,9.1553,82,0.8194,0.5123,7.8525,-55.6269,32,0.9635,7767,4.0447,149.0767
rg,1624962874624389546,1,-0.1812,-0.8552,0.4136,428,-77.6367,-5.4932,10.376,82,0.7794,0.5123,8.2001,-58.9912,32,0.9575,7975,4.0447,149.4414
rg,1624962874624446618,1,-0.1655,-1.0442,0.4675,429,-101.4404,-60.6079,9.9487,82,0.7574,0.5123,7.3831,-62.9824,32,0.9475,7821,4.0447,151.7394
rg,1624962874624466951,1,0.2031,-1.2581,0.5754,430,-74.585,-79.895,30.9448,82,0.7524,0.5002,7.3613,-63.8347,32,0.9395,8019,4.0447,156.0941
rg,1624962874624484191,1,0.4246,-1.3611,0.635,431,-2.4414,-76.9653,81.8481,82,0.7514,0.4692,8.0402,-63.3936,33,0.9405,7881,4.0447,160.3284
rg,1624962874624501653,1,0.5422,-1.488,0.6372,432,78.064,11.7798,81.543,82,0.7494,0.4592,10.1143,-60.2193,33,0.9405,8088,4.0447,161.4102
rg,1624962874624518801,1,0.5142,-1.4773,0.5696,433,115.2954,35.9497,70.6787,82,0.7494,0.4432,11.7143,-55.2065,33,0.9405,7993,4.0447,160.0057
rg,1624962874624536393,1,0.0718,-1.137,0.5713,434,165.1001,89.7827,-9.3384,82,0.7484,0.4282,13.0131,-49.619,33,0.9375,8121,4.0447,156.7638
rg,1624962874624553522,1,-0.3113,-0.5032,0.2244,435,222.7173,142.9443,-64.0259,80,0.7494,0.4202,15.7575,-42.819,32,0.9365,8012,4.0447,150.6043
rg,1624962874624571503,1,-0.4565,-0.2266,0.2288,436,245.3613,178.6499,-68.8477,80,0.7504,0.4192,22.9747,-34.7507,32,0.9325,8160,4.0447,143.5273
rg,1624962874624588743,1,-0.7683,0.2461,0.1177,437,216.6138,196.9604,-19.7754,80,0.7524,0.4252,31.2219,-27.6496,32,0.9315,8007,4.0447,138.6733
rg,1624962874624606428,1,-0.842,0.4932,0.0835,438,23.9868,44.6167,1.5259,80,0.7564,0.4362,34.6572,-25.8294,32,0.9335,8161,4.0447,138.502
rg,1624962874624624409,1,-0.6826,-0.1165,0.4297,439,-117.0044,-49.3774,-9.8877,80,0.7614,0.4482,30.8311,-33.5652,32,0.9365,8067,4.0447,141.1706
rg,1624962874624642242,1,-0.6101,-0.5557,0.7922,440,-321.228,-194.0308,4.2114,80,0.7654,0.4572,25.0082,-43.766,32,0.9395,8220,4.0447,146.7515
rg,1624962874624660389,1,0.22,-1.8196,1.8491,441,-356.8115,-309.6924,25.0854,80,0.7714,0.4672,16.629,-54.1667,32,0.9415,8091,4.0447,157.4345
rg,1624962874624678037,1,0.5017,-2.2996,0.6653,442,-81.0547,-182.0068,11.1694,80,0.7834,0.4882,11.8219,-56.5348,32,0.9495,11338,4.0447,163.6709
rg,1624962874624695703,1,0.6335,-1.4741,0.5256,443,110.7178,-81.4819,9.5215,80,0.8044,0.5012,8.9945,-52.0926,32,0.9495,8268,4.0447,166.4336
rg,1624962874624714017,1,0.3369,-0.625,0.3706,444,140.4419,-16.3574,-25.6958,80,0.8214,0.5123,6.5354,-46.7744,32,0.9535,8928,4.0447,166.1617
rg,1624962874624732276,1,0.1965,-0.3889,0.2297,445,117.2485,11.1694,-19.5312,80,0.8274,0.5213,5.1749,-42.6399,32,0.9545,8174,4.0447,165.1935
rg,1624962874624750794,1,0.009,-0.3425,0.1328,446,-10.7422,45.2271,13.1836,80,0.8094,0.5293,6.6022,-44.1541,32,0.9545,8539,4.0447,164.2373
rg,1624962874624768701,1,-0.0408,-0.7258,0.3962,447,-175.5981,-7.4463,13.3057,80,0.7734,0.5273,6.6546,-51.7496,33,0.9485,8222,4.0447,164.7493
rg,1624962874624786922,1,-0.0894,-0.9766,0.4944,448,-208.4961,-43.5791,-0.7324,80,0.7544,0.5223,5.0145,-59.4892,33,0.9375,8421,4.0447,167.0217
rg,1624962874985132857,1,0.5042,-1.5063,0.6707,449,52.002,-15.9912,109.0698,80,0.7474,0.4602,7.5486,-55.8903,32,0.9395,26806,4.0447,169.3968
rg,1624962874985195799,1,0.3496,-1.2986,0.4739,450,137.8174,57.9834,37.5977,80,0.7474,0.4472,9.7186,-50.9384,32,0.9395,12766,4.0447,168.3422
rg,1624962874985216725,1,-0.2075,-0.8677,0.4116,451,175.9033,125.1831,-27.0996,80,0.7484,0.4452,12.3402,-45.3182,32,0.9395,7800,4.0447,163.7269
rg,1624962874985237354,1,-0.4565,-0.3496,0.175,452,231.5674,168.457,-36.5601,80,0.7494,0.4442,17.7428,-38.0414,32,0.9385,7859,4.0447,157.9678
rg,1624962874985256723,1,-0.5242,-0.0837,0.1514,453,233.2764,179.8706,-20.5078,80,0.7504,0.4452,25.0017,-30.4303,32,0.9395,7823,4.0447,153.0824
rg,1624962874985276593,1,-0.7117,0.3057,0.1133,454,134.8877,131.897,6.6528,80,0.7534,0.4532,31.6616,-25.1419,32,0.9395,7879,4.0447,151.1067
rg,1624962874985359535,1,-0.7959,0.1616,0.2544,455,-98.877,-16.1133,-10.9863,80,0.7584,0.4642,32.468,-28.3636,32,0.9415,9189,4.0447,151.3627
rg,1624962874985381071,1,-0.7209,-0.6318,0.8533,456,-213.0127,-91.98,-12.8174,80,0.7624,0.4672,27.183,-38.4501,32,0.9445,7884,4.0447,155.2033
rg,1624962874985399275,1,-0.5657,-1.1404,1.2878,457,-343.9941,-241.4551,12.8174,80,0.7674,0.4762,20.3054,-49.1459,32,0.9475,7785,4.0447,162.8335
rg,1624962874985417941,1,0.3811,-2.1396,1.1877,458,-227.5391,-278.1982,14.5874,80,0.7694,0.4882,12.9664,-55.9148,32,0.9515,7929,4.0447,-187.7311
rg,1624962874985436718,1,0.5527,-2.2156,0.7991,459,-96.4355,-212.4634,16.4185,80,0.7824,0.4982,9.3939,-54.5972,32,0.9545,8421,4.0447,-183.1311
rg,1624962874985454662,1,0.5173,-1.0037,0.4348,460,147.0947,-48.645,-6.1035,80,0.8074,0.5143,6.729,-48.9639,32,0.9555,11200,4.0447,-181.8744
rg,1624962874985473254,1,0.3801,-0.6418,0.3091,461,152.2217,-23.5596,-18.2495,80,0.8224,0.5233,5.1084,-44.5747,32,0.9565,7906,4.0447,-182.93
rg,1624962874985491512,1,0.0767,-0.28,0.0217,462,91.0645,50.354,-12.9395,80,0.8284,0.5293,5.4624,-42.5417,32,0.9565,7957,4.0447,-184.8466
rg,1624962874985508827,1,-0.0562,-0.3672,0.0464,463,-39.6729,81.1157,21.2402,80,0.8164,0.5343,8.5367,-45.7803,32,0.9585,7910,4.0447,-186.6597
rg,1624962874985530511,1,-0.1138,-0.5356,0.2734,464,-131.4697,62.0728,28.1372,80,0.7774,0.5303,11.0214,-51.6842,32,0.9515,8017,4.0447,-187.8759
rg,1624962874985549307,1,-0.1079,-1.2556,0.5042,465,-209.7778,-50.0488,4.7607,80,0.7564,0.5243,9.0315,-58.1174,32,0.9395,8000,4.0447,-185.0228
rg,1624962874985567455,1,0.0483,-1.3799,0.4294,466,-85.2051,-93.75,35.3394,80,0.7554,0.5082,9.0147,-58.6792,32,0.9405,8078,4.0447,-180.5735
rg,1624962874985584936,1,0.5784,-1.4514,0.6841,467,27.0386,-36.9263,96.7407,80,0.7534,0.4922,10.4186,-57.2537,32,0.9425,8053,4.0447,-177.2805
rg,1624962874985602398,1,0.5327,-1.2903,0.5125,468,102.5391,50.4761,80.1392,80,0.7524,0.4822,13.0143,-53.5422,32,0.9425,8134,4.0447,-177.2459
rg,1624962874985619379,1,0.1841,-1.1492,0.5378,469,134.0332,104.0649,24.9023,80,0.7524,0.4722,15.5548,-49.3198,32,0.9425,8718,4.0447,-180.1041
rg,1624962874985637101,1,-0.0881,-1.0103,0.4536,470,136.4746,125.7935,-5.188,80,0.7524,0.4652,19.0379,-45.9257,32,0.9425,8223,4.0447,-184.3673
rg,1624962874985656822,1,-0.459,-0.5415,0.1494,471,201.5991,155.7617,-44.7388,80,0.7524,0.4592,23.1623,-40.9315,32,0.9405,8316,4.0447,169.4067
rg,1624962874985716376,1,-0.6106,-0.01,0.1409,472,215.332,164.2456,-15.1367,80,0.7544,0.4562,29.8069,-34.1923,32,0.9415,8215,4.0447,164.6696
rg,1624962874985739801,1,-0.6875,0.1892,0.1404,473,164.978,136.9019,5.5542,80,0.7564,0.4652,34.3264,-30.625,32,0.9405,8145,4.0447,164.0467
rg,1624962874985756801,1,-0.7158,0.1892,0.2705,474,-46.6309,-13.0615,8.5449,80,0.7584,0.4722,35.5291,-31.0327,32,0.9405,8234,4.0447,165.3325
rg,1624962874985775133,1,-0.6062,-0.5396,0.731,475,-248.1689,-167.4805,5.8594,80,0.7634,0.4822,30.1468,-38.5298,33,0.9425,8228,4.0447,169.9931
rg,1624962874985795410,1,0.114,-1.5764,1.7078,476,-299.3774,-289.7949,25.4517,80,0.7684,0.4912,21.1701,-46.4816,33,0.9465,8355,4.0447,-180.5532
rg,1624962874985812706,1,0.4084,-1.9897,1.2756,477,-209.1064,-248.7183,21.5454,80,0.7714,0.4992,14.2619,-52.6208,33,0.9505,8283,4.0447,-172.1502
rg,1624962874985830798,1,0.5801,-1.865,0.5859,478,12.3291,-117.6147,23.5596,80,0.7804,0.5072,11.0072,-51.8947,32,0.9535,8368,4.0447,-167.9402
rg,1624962874985848187,1,0.4929,-1.0999,0.6584,479,112.1826,-28.3813,-23.0103,80,0.8014,0.5183,8.379,-47.6395,32,0.9555,10233,4.0447,-167.7589
rg,1624962874985866556,1,0.2693,-0.6511,0.3279,480,120.3003,21.8506,-17.5171,80,0.8204,0.5283,7.4135,-43.5705,32,0.9565,8427,4.0447,-169.0088
rg,1624962875357377307,1,-0.2664,-0.7522,0.3379,481,-4.0894,72.5708,3.0518,80,0.8524,0.5503,9.9974,-44.8487,32,0.9595,26054,4.0447,-171.0828
rg,1624962875357413120,1,-0.2324,-0.8528,0.333,482,-48.5229,-7.3853,21.0571,80,0.7974,0.5583,8.9584,-48.8392,32,0.9535,13413,4.0447,-168.6225
rg,1624962875357434083,1,-0.1113,-0.8926,0.4075,483,-114.3188,-120.6055,8.606,80,0.7654,0.5523,6.1358,-53.5117,32,0.9445,7799,4.0447,-164.7097
rg,1624962875357453378,1,0.186,-1.072,0.573,484,-77.3926,-146.5454,25.5737,80,0.7534,0.5473,3.0563,-56.4813,32,0.9365,7852,4.0447,-159.3255
rg,1624962875357472100,1,0.4045,-1.2185,0.5596,485,-36.9873,-121.0327,58.1055,80,0.7514,0.5072,1.4384,-58.0363,32,0.9345,7816,4.0447,-154.0004
rg,1624962875357490303,1,0.6692,-1.3772,0.9656,486,14.9536,10.498,80.9326,80,0.7504,0.4862,3.4987,-57.255,32,0.9385,8076,4.0447,-152.6357
rg,1624962875357508488,1,0.2651,-1.301,0.6597,487,115.2954,79.5898,38.147,80,0.7494,0.4662,6.0123,-53.0171,32,0.9385,11686,4.0447,-154.4234
rg,1624962875357527821,1,0.0244,-1.0767,0.5559,488,137.6953,101.2573,-0.8545,80,0.7494,0.4522,8.255,-48.2932,32,0.9375,8068,4.0447,-157.656
rg,1624962875357545228,1,-0.2925,-0.3972,0.2769,489,193.7866,148.7427,-37.4756,80,0.7504,0.4482,12.2523,-41.7457,32,0.9365,8021,4.0447,-162.9779
rg,1624962875357563209,1,-0.4998,0.0417,0.355,490,182.7393,204.3457,-9.3994,80,0.7514,0.4492,19.9698,-34.9633,32,0.9355,7898,4.0447,-168.2251
rg,1624962875358163617,1,-0.5923,0.1484,0.304,491,125.7935,179.4434,11.7798,80,0.7534,0.4562,27.8592,-30.3779,32,0.9355,8075,4.0447,-171.5831
rg,1624962875358196301,1,-0.6711,-0.0093,0.3442,492,-63.3545,21.1792,0.2441,80,0.7574,0.4642,29.934,-32.5726,32,0.9345,8537,4.0447,-171.837
rg,1624962875358230930,1,-0.6655,-0.6636,0.8333,493,-231.2622,-127.6245,-8.3008,80,0.7614,0.4752,25.7543,-40.5406,32,0.9365,8767,4.0447,-168.8141
rg,1624962875358255985,1,-0.5215,-1.0728,1.2041,494,-274.1699,-194.519,6.897,80,0.7654,0.4832,18.701,-48.191,32,0.9405,7966,4.0447,-161.2737
rg,1624962875358322372,1,0.1807,-1.8462,1.0854,495,-175.415,-216.6138,23.5596,80,0.7664,0.4962,12.9883,-53.8517,32,0.9445,8278,4.0447,-153.8754
rg,1624962875358346593,1,0.4758,-1.6775,0.665,496,2.8076,-128.9673,33.9355,80,0.7744,0.4992,9.9874,-53.2682,32,0.9475,8993,4.0447,-148.9493
rg,1624962875358366019,1,0.3201,-1.0503,0.5112,497,102.7832,-54.1992,-10.9863,80,0.7934,0.5082,7.3384,-49.3592,32,0.9515,8293,4.0447,-147.6183
rg,1624962875358385648,1,0.2856,-0.7131,0.292,498,102.417,-15.4419,7.9956,80,0.8154,0.5173,6.1233,-45.8631,32,0.9525,8133,4.0447,-147.0621
rg,1624962875358423924,1,0.1992,-0.6287,0.1526,499,74.0356,23.6816,9.2163,80,0.8334,0.5273,6.1874,-44.0536,32,0.9525,8301,4.0447,-147.6091
rg,1624962875358442942,1,0.0027,-0.6011,0.0754,500,29.8462,70.4346,11.2305,80,0.8474,0.5393,8.3035,-44.4971,32,0.9525,8124,4.0447,-149.4274
rg,1624962875358461294,1,-0.197,-0.7305,0.4009,501,-15.1978,94.2383,25.3906,80,0.8524,0.5463,11.8671,-46.0896,32,0.9555,8321,4.0447,-151.5252
rg,1624962875358480756,1,-0.2917,-0.7959,0.4312,502,-39.856,69.2139,35.8276,80,0.8254,0.5533,13.6631,-49.4797,32,0.9565,8217,4.0447,-150.9755
rg,1624962875358498589,1,-0.2063,-0.937,0.4727,503,-106.0791,-51.5747,30.5786,80,0.7774,0.5583,13.2538,-53.6749,32,0.9495,8414,4.0447,-148.6568
rg,1624962875358518014,1,-0.0256,-1.1211,0.5239,504,-126.4648,-123.7793,15.9302,80,0.7554,0.5563,10.563,-58.2183,32,0.9395,8266,4.0447,-144.1852
rg,1624962875358536588,1,0.3508,-1.2605,0.4812,505,-34.729,-112.7319,66.6504,80,0.7514,0.5323,9.5487,-59.0819,32,0.9365,8538,4.0447,-138.9401
rg,1624962875358555346,1,0.5127,-1.2922,0.4954,506,4.6387,-62.9883,79.5898,80,0.7504,0.4962,9.8488,-58.6087,32,0.9395,8422,4.0447,-135.1555
rg,1624962875358574235,1,0.5879,-1.3281,0.7,507,63.3545,65.0024,76.5381,80,0.7484,0.4812,12.635,-56.3171,32,0.9395,8540,4.0447,-135.7719
rg,1624962875358592586,1,0.342,-1.2834,0.5386,508,93.689,114.2578,29.1748,80,0.7484,0.4682,15.1844,-53.7658,32,0.9385,8387,4.0447,-139.0683
rg,1624962875358610030,1,-0.2712,-0.8665,0.3833,509,155.6396,173.8281,-52.1851,80,0.7494,0.4542,17.8475,-50.0449,32,0.9395,8531,4.0447,-146.2332
rg,1624962875358628492,1,-0.4822,-0.5767,0.2988,510,200.0122,201.8433,-66.1011,80,0.7494,0.4482,22.0346,-45.2898,32,0.9395,8454,4.0447,-154.5453
rg,1624962875358645492,1,-0.6902,-0.0457,0.1643,511,234.6802,229.8584,-21.6064,80,0.7504,0.4482,30.0616,-38.9186,32,0.9375,8554,4.0447,-161.8545
rg,1624962875358663751,1,-0.8098,0.335,0.0933,512,109.6191,135.7422,8.728,80,0.7534,0.4542,36.5114,-35.4795,32,0.9365,8411,4.0447,-164.8846
rg,1624962875702214206,1,-0.4941,-1.353,1.3208,513,-292.5415,-195.6787,-8.0566,80,0.7634,0.4842,27.3882,-43.7118,32,0.9465,25981,4.0447,-156.3272
rg,1624962875702287889,1,0.4053,-2.1172,1.1082,514,-262.207,-322.1436,16.1743,80,0.7644,0.4932,18.6262,-46.9853,32,0.9515,8737,4.0447,-147.6104
rg,1624962875702309351,1,0.5295,-1.2759,0.4583,515,138.3667,-119.6899,-3.9673,80,0.7864,0.5092,13.7088,-41.3954,32,0.9555,15161,4.0447,-144.6031
rg,1624962875702341702,1,0.4998,-0.9141,0.4138,516,164.978,-100.5249,-15.5029,80,0.8084,0.5203,8.7835,-35.2784,32,0.9555,7839,4.0447,-142.8348
rg,1624962875702360961,1,0.2961,-0.4502,0.1516,517,130.9814,-31.3721,-18.7988,80,0.8284,0.5303,5.9101,-31.1924,32,0.9565,7949,4.0447,-143.0023
rg,1624962875702426329,1,0.1199,-0.342,-0.0293,518,96.1304,12.7563,-8.4839,80,0.8424,0.5363,6.9048,-31.0224,32,0.9565,7843,4.0447,-143.9989
rg,1624962875702452884,1,0.0662,-0.415,0.0461,519,5.4932,82.0923,18.4326,80,0.8464,0.5403,9.5487,-32.7562,32,0.9585,8044,4.0447,-145.3351
rg,1624962875702471920,1,-0.0583,-0.7964,0.6262,520,-121.0938,83.1299,39.917,80,0.8104,0.5463,12.9281,-38.4522,32,0.9585,8793,4.0447,-146.105
rg,1624962875702492012,1,-0.156,-1.1738,0.5388,521,-173.7061,-19.4092,14.5264,80,0.7654,0.5483,12.5476,-46.1907,32,0.9515,8929,4.0447,-145.3504
rg,1624962875702514771,1,-0.2004,-1.2649,0.5144,522,-134.3994,-49.3774,-0.2441,80,0.7494,0.5493,11.3102,-49.6729,32,0.9425,7992,4.0447,-143.0484
rg,1624962875702533937,1,0.1707,-1.248,0.5867,523,-35.6445,-64.9414,68.4814,80,0.7494,0.5203,11.0637,-50.9417,32,0.9415,8111,4.0447,-139.3404
rg,1624962875702552770,1,0.5024,-1.1929,0.8215,524,19.2261,6.7749,90.7593,80,0.7494,0.5042,12.888,-49.8915,32,0.9455,7986,4.0447,-137.2424
rg,1624962875702570491,1,0.4736,-1.2764,0.55,525,37.4146,32.8369,84.0454,80,0.7494,0.4922,14.8739,-48.6289,32,0.9475,8187,4.0447,-137.2314
rg,1624962875702589621,1,0.3049,-1.2354,0.4944,526,64.3311,75.5615,20.874,80,0.7484,0.4752,16.4778,-47.2991,32,0.9465,8064,4.0447,-139.2009
rg,1624962875702607453,1,-0.2273,-0.7275,0.2366,527,118.4082,145.2637,-58.3496,80,0.7494,0.4642,18.8364,-45.3722,32,0.9475,8281,4.0447,-145.5694
rg,1624962875702636860,1,-0.5972,-0.2576,0.3308,528,172.6685,227.5391,-58.5938,80,0.7504,0.4632,25.122,-41.5053,32,0.9475,8052,4.0447,-154.0147
rg,1624962875702656563,1,-0.7795,-0.1404,0.3035,529,153.5645,236.0229,-23.5596,80,0.7514,0.4692,33.181,-38.8638,32,0.9465,8344,4.0447,-161.6286
rg,1624962875702675340,1,-0.8936,-0.0483,0.1484,530,24.5972,79.5288,11.0474,80,0.7524,0.4782,37.5668,-38.8631,32,0.9465,8139,4.0447,-163.5651
rg,1624962875702697154,1,-0.7793,-0.479,0.4197,531,-135.5591,-132.5684,-5.5542,80,0.7584,0.4872,33.9438,-42.2078,32,0.9485,8364,4.0447,-159.7114
rg,1624962875702716321,1,-0.3574,-1.0757,1.0237,532,-192.0166,-211.2427,9.5215,80,0.7604,0.4912,25.9612,-46.3766,32,0.9505,8179,4.0447,-149.8076
rg,1624962875702735542,1,0.4724,-1.8264,1.0845,533,-119.9951,-266.7236,35.8887,80,0.7634,0.5022,20.2222,-45.0889,32,0.9565,15602,4.0447,-143.1209
rg,1624962875702753708,1,0.5503,-1.592,0.4006,534,64.27,-132.1411,27.0386,80,0.7714,0.5072,15.8575,-42.2367,32,0.9595,8243,4.0447,-138.8945
rg,1624962875702772374,1,0.4658,-0.9268,0.532,535,136.2305,-42.2363,-16.1743,80,0.7914,0.5163,12.7491,-37.324,32,0.9625,8429,4.0447,-138.5342
rg,1624962875702790670,1,0.2751,-0.5862,0.3242,536,116.4551,38.0249,-8.4229,80,0.8134,0.5273,12.5236,-33.8081,32,0.9625,8250,4.0447,-139.957
rg,1624962875702809503,1,0.1282,-0.5332,0.1858,537,83.313,78.4912,-3.1128,80,0.8334,0.5363,14.2024,-32.2825,32,0.9625,8462,4.0447,-142.1402
rg,1624962875702826058,1,-0.0649,-0.6057,0.2671,538,33.6914,128.2349,8.4229,80,0.8484,0.5423,18.4308,-32.9704,32,0.9615,8626,4.0447,-145.0555
rg,1624962875702878186,1,-0.3816,-0.8008,0.6013,539,3.2349,135.6201,14.9536,80,0.8594,0.5463,23.3749,-34.5776,32,0.9625,8965,4.0447,-148.0085
rg,1624962875702904111,1,-0.5098,-0.8428,0.283,540,8.0566,18.9819,27.8931,80,0.8604,0.5523,25.0343,-35.3297,32,0.9655,8371,4.0447,-148.0033
rg,1624962875702922315,1,-0.3342,-0.7488,0.3557,541,-15.625,-43.1519,41.3208,80,0.8214,0.5603,23.9564,-35.5062,32,0.9605,8541,4.0447,-145.688
rg,1624962875702940740,1,0.0491,-0.7734,0.7344,542,-118.9575,-120.4224,37.4756,80,0.7734,0.5603,20.0478,-39.0328,32,0.9505,8402,4.0447,-141.4098
rg,1624962875702960128,1,0.1348,-0.9968,0.5151,543,-139.1602,-130.4932,18.7988,80,0.7534,0.5513,15.6971,-44.2091,32,0.9445,8588,4.0447,-137.4582
rg,1624962875702996405,1,0.4104,-1.2527,0.5691,544,-59.3262,-66.9556,66.7114,80,0.7494,0.5193,14.5371,-46.3564,32,0.9375,8470,4.0447,-133.7451
rg,1624962876071958538,1,0.0105,-1.5002,0.7068,545,66.5894,57.0068,24.8413,80,0.7494,0.4552,16.278,-44.6922,32,0.9425,27452,4.0447,-134.912
rg,1624962876072050665,1,-0.3857,-1.2385,0.5691,546,139.4043,59.1431,-25.2686,80,0.7494,0.4492,17.6589,-40.6572,32,0.9425,10283,4.0447,-137.5822
rg,1624962876072081664,1,-0.4229,-0.6084,0.2544,547,203.9795,48.5229,-25.3906,91,0.7504,0.4472,19.233,-34.0755,32,0.9415,7766,4.0425,-139.905
rg,1624962876072111459,1,-0.438,-0.1191,0.1514,548,217.8955,37.7197,-25.3906,91,0.7524,0.4452,21.6724,-26.0337,32,0.9435,7849,4.0425,-141.5405
rg,1624962876072139144,1,-0.5107,0.0498,0.0825,549,202.0264,24.231,-16.4795,91,0.7544,0.4502,24.2831,-17.9594,32,0.9445,7996,4.0425,-142.2985
rg,1624962876072167254,1,-0.5869,0.2266,-0.0486,550,95.1538,-47.2412,18.3716,91,0.7584,0.4592,24.7482,-12.7582,32,0.9455,10482,4.0425,-140.5233
rg,1624962876072196031,1,-0.3953,0.0632,0.0303,551,-99.9146,-120.7886,51.6357,91,0.7624,0.4632,22.5603,-14.948,33,0.9475,7712,4.0425,-136.9298
rg,1624962876072223938,1,-0.1262,-0.4126,0.4124,552,-289.856,-183.4106,73.6084,91,0.7644,0.4712,16.4489,-25.7589,33,0.9495,8285,4.0425,-131.7502
rg,1624962876072251141,1,0.4526,-1.0149,1.5752,553,-361.5723,-227.1118,74.707,91,0.7684,0.4732,9.3201,-38.688,33,0.9525,7812,4.0425,-124.2116
rg,1624962876072277344,1,0.4946,-2.073,0.9146,554,-228.0884,-41.687,36.7432,91,0.7724,0.4772,8.3167,-48.4205,33,0.9555,7943,4.0425,-122.079
rg,1624962876072303473,1,0.5078,-2.0239,0.4917,555,-18.3716,35.7056,17.6392,91,0.7834,0.4862,8.9548,-50.2736,32,0.9585,10001,4.0425,-122.8533
rg,1624962876072329416,1,0.2268,-1.2656,0.8723,556,77.8809,153.9917,-12.3291,91,0.7974,0.4902,11.8963,-48.2805,32,0.9595,7962,4.0425,-127.9748
rg,1624962876072355619,1,-0.0273,-0.9531,0.6399,557,109.8633,175.5981,-21.6675,91,0.8114,0.4972,15.6147,-45.6131,32,0.9605,7932,4.0425,-133.943
rg,1624962876072382137,1,-0.3887,-0.6445,0.333,558,90.5151,164.4287,-17.6392,91,0.8164,0.5012,20.2547,-44.2724,32,0.9625,8008,4.0425,-139.5108
rg,1624962876072407673,1,-0.4875,-0.5312,0.2524,559,5.7983,60.791,-8.2397,91,0.7954,0.5022,22.5175,-45.4478,32,0.9635,7907,4.0425,-141.8392
rg,1624962876072434543,1,-0.4924,-0.6267,0.2881,560,-114.0747,-77.6367,-28.8086,91,0.7694,0.4872,20.1318,-50.0725,32,0.9545,10121,4.0425,-140.4738
rg,1624962876072461691,1,-0.4587,-0.7156,0.3103,561,-151.3672,-136.5356,-27.0386,91,0.7614,0.4802,16.4219,-55.4716,32,0.9425,7942,4.0425,-136.798
rg,1624962876072516522,1,-0.0227,-1.1533,0.7195,562,-123.4131,-221.3135,20.3247,91,0.7594,0.4842,11.7177,-58.5185,32,0.9405,8065,4.0425,-128.7124
rg,1624962876072546151,1,0.6208,-1.7253,0.5913,563,-16.4185,-171.3867,77.6978,91,0.7574,0.4782,9.6472,-58.2214,32,0.9435,8082,4.0425,-121.2231
rg,1624962876072573484,1,0.7322,-1.7998,0.321,564,37.5977,-106.5674,87.2803,91,0.7564,0.4722,9.1459,-56.5921,32,0.9435,8140,4.0425,-115.8335
rg,1624962876072601168,1,0.5933,-1.3823,0.3818,565,146.6675,40.6494,44.1895,91,0.7564,0.4712,10.3522,-51.4442,32,0.9425,8058,4.0425,-116.2815
rg,1624962876072627334,1,0.0796,-0.7178,0.2766,566,182.1289,104.0039,-25.5737,91,0.7574,0.4682,11.7109,-45.6108,32,0.9425,8143,4.0425,-120.3015
rg,1624962876072653982,1,-0.1516,-0.4402,0.1934,567,193.9697,125.9766,-52.124,91,0.7574,0.4672,14.2385,-39.7933,32,0.9415,8060,4.0425,-125.517
rg,1624962876072681610,1,-0.4546,-0.0994,0.095,568,226.2573,164.0625,-41.5039,91,0.7564,0.4732,20.4552,-32.4501,32,0.9385,8254,4.0425,-130.8407
rg,1624962876072708128,1,-0.5991,0.1987,-0.0503,569,158.5693,142.8833,22.3389,91,0.7614,0.4802,28.0045,-26.4385,32,0.9415,8864,4.0425,-132.7467
rg,1624962876072734350,1,-0.6553,0.1155,0.1506,570,-67.5049,37.5977,13.4888,91,0.7664,0.4842,31.365,-28.6081,32,0.9435,8934,4.0425,-132.7255
rg,1624962876072789645,1,-0.6946,-0.2046,0.5356,571,-187.0728,-30.6396,-4.6997,91,0.7704,0.4852,30.149,-35.8072,32,0.9465,8220,4.0425,-132.1667
rg,1624962876072825681,1,-0.603,-1.2932,1.8306,572,-306.5796,-203.9795,10.376,91,0.7754,0.4872,23.709,-45.1185,32,0.9505,8348,4.0425,-125.8334
rg,1624962876072860346,1,0.2275,-2.1548,0.9998,573,-148.0713,-233.4595,20.3857,91,0.7824,0.4962,16.93,-49.0753,32,0.9565,8285,4.0425,-118.2583
rg,1624962876072899234,1,0.5305,-1.7827,0.541,574,89.2334,-101.8066,30.5786,91,0.7934,0.5042,13.9048,-45.37,32,0.9585,8334,4.0425,-114.6041
rg,1624962876072925641,1,0.4546,-1.2458,0.4207,575,156.311,-48.5229,18.4937,91,0.8074,0.5123,11.8113,-39.6829,32,0.9585,8327,4.0425,-112.9936
rg,1624962876072968843,1,0.1838,-0.4233,0.293,576,161.0107,13.0615,-13.1226,91,0.8124,0.5183,10.7503,-34.0028,32,0.9605,8432,4.0425,-113.922
rg,1624962876418349928,1,-0.2417,-0.741,0.3638,577,-195.8618,-49.2554,-24.9023,91,0.7564,0.5213,8.858,-42.8229,32,0.9395,27070,4.0425,-113.6937
rg,1624962876418441037,1,0.3149,-1.6008,0.8787,578,-137.8784,-93.2617,37.2925,91,0.7534,0.4952,8.0735,-46.3171,32,0.9425,10453,4.0425,-109.0567
rg,1624962876418462258,1,0.6597,-1.7161,0.4678,579,41.2598,-52.9785,104.126,91,0.7534,0.4862,8.5342,-45.0424,32,0.9435,10022,4.0425,-104.7475
rg,1624962876418565941,1,0.6597,-1.5388,0.4036,580,102.0508,-10.9253,70.3125,91,0.7524,0.4802,9.0227,-41.6757,32,0.9435,7793,4.0425,-102.5747
rg,1624962876418590662,1,0.2258,-0.938,0.3787,581,136.1084,79.2236,-9.8877,91,0.7534,0.4732,10.4003,-37.6403,32,0.9425,7959,4.0425,-105.125
rg,1624962876418609625,1,-0.2419,-0.4019,0.2397,582,156.7383,151.9165,-53.4668,91,0.7534,0.4672,14.7673,-33.3159,32,0.9415,7836,4.0425,-110.6257
rg,1624962876418628254,1,-0.3936,-0.2627,0.2458,583,158.8135,190.7349,-42.8467,91,0.7554,0.4682,21.9978,-28.8588,32,0.9415,8016,4.0425,-116.2661
rg,1624962876418647050,1,-0.6755,-0.1318,0.2197,584,98.3887,213.7451,6.1646,91,0.7564,0.4762,31.2732,-26.8439,32,0.9405,8081,4.0425,-120.466
rg,1624962876418664790,1,-0.9673,-0.3069,0.469,585,-51.6968,77.6978,0,91,0.7604,0.4862,35.061,-30.0279,32,0.9425,8089,4.0425,-122.3519
rg,1624962876418682456,1,-1.0168,-0.5779,0.7607,586,-126.5869,-24.7192,-11.2305,91,0.7644,0.4922,30.8096,-35.8247,32,0.9455,7906,4.0425,-119.6535
rg,1624962876418700085,1,-0.2769,-1.3359,1.1167,587,-189.0259,-271.3013,25.2075,91,0.7684,0.4972,22.1503,-40.2374,32,0.9485,9942,4.0425,-111.6045
rg,1624962876418717566,1,0.1956,-1.5789,1.2378,588,-144.7144,-274.353,26.4893,91,0.7694,0.5002,13.7267,-43.8333,32,0.9525,8197,4.0425,-103.2296
rg,1624962876418735566,1,0.4734,-1.5872,0.7195,589,12.5122,-177.1851,16.0522,91,0.7744,0.5062,7.989,-43.1148,32,0.9545,7952,4.0425,-97.9941
rg,1624962876418753528,1,0.4304,-1.1155,0.4187,590,113.5864,-106.0791,-5.6152,91,0.7924,0.5123,3.6435,-39.2592,32,0.9565,8186,4.0425,-95.5206
rg,1624962876418771046,1,0.4409,-0.9233,0.373,591,127.8687,-83.6792,-13.1226,91,0.8134,0.5193,-0.3536,-35.1061,32,0.9585,8039,4.0425,-94.0145
rg,1624962876418789638,1,0.2993,-0.6201,0.1477,592,109.436,-8.9722,-12.3901,91,0.8314,0.5253,-1.8794,-32.093,32,0.9575,8105,4.0425,-94.2463
rg,1624962876418822563,1,0.1458,-0.5093,-0.0051,593,65.7959,55.7861,3.6621,91,0.8524,0.5263,-0.4992,-31.3041,32,0.9585,8044,4.0425,-95.2415
rg,1624962876418843193,1,0.0862,-0.5186,0.0525,594,37.2925,83.313,9.4604,91,0.8604,0.5263,2.5769,-31.1548,32,0.9605,8259,4.0425,-96.639
rg,1624962876418860507,1,-0.1145,-0.6831,0.436,595,-25.1465,100.0366,28.6865,91,0.8454,0.5303,6.7809,-33.2428,32,0.9585,8426,4.0425,-97.859
rg,1624962876418877729,1,-0.3359,-0.8274,0.3413,596,-82.1533,54.5044,31.9214,91,0.7974,0.5313,9.8617,-37.7577,32,0.9525,8242,4.0425,-98.2582
rg,1624962876418894728,1,-0.2151,-0.9014,0.5396,597,-103.3325,0.1831,24.7803,91,0.7654,0.5293,8.7646,-42.5791,32,0.9455,8118,4.0425,-96.0216
rg,1624962876418912172,1,-0.0103,-0.929,0.6287,598,-94.4824,-94.8486,38.8794,91,0.7514,0.5303,6.8416,-46.3479,32,0.9395,8234,4.0425,-92.289
rg,1624962876418929709,1,0.4121,-1.1045,0.5396,599,-52.4902,-66.9556,79.1016,91,0.7504,0.5263,6.4094,-48.6081,32,0.9355,8206,4.0425,-88.2137
rg,1624962876418951023,1,0.4746,-1.2607,0.9822,600,-19.104,60.5469,54.8096,91,0.7524,0.5092,8.7547,-49.5445,32,0.9405,8432,4.0425,-88.628
rg,1624962876418968837,1,0.0771,-1.4263,0.8132,601,36.499,111.084,45.2271,91,0.7524,0.4972,12.5585,-48.919,32,0.9415,11566,4.0425,-90.9281
rg,1624962876418988115,1,-0.3745,-1.3403,0.655,602,90.0879,90.5762,-29.541,91,0.7524,0.4922,14.1766,-46.7272,32,0.9415,8505,4.0425,-94.6298
rg,1624962876419006799,1,-0.5308,-1.0322,0.4106,603,142.334,78.0029,-61.7676,91,0.7514,0.4872,15.5946,-42.7999,32,0.9425,8367,4.0425,-98.8528
rg,1624962876419025725,1,-0.5774,-0.3564,0.2415,604,212.7075,80.4443,-50.5981,91,0.7524,0.4872,18.185,-35.7126,32,0.9415,8537,4.0425,-102.6017
rg,1624962876419043298,1,-0.541,0.1001,0.1865,605,149.9634,43.396,-4.3335,91,0.7554,0.4932,21.4164,-29.292,32,0.9425,8335,4.0425,-103.3838
rg,1624962876419063649,1,-0.4517,0.1011,0.2031,606,-16.7236,-81.8481,1.5259,91,0.7584,0.5002,20.2628,-28.4254,32,0.9445,9091,4.0425,-101.2804
rg,1624962876419082353,1,-0.2678,-0.4619,0.5171,607,-213.9893,-206.4819,12.9395,91,0.7614,0.4992,13.6528,-35.9843,32,0.9485,8371,4.0425,-96.4113
rg,1624962876419101167,1,0.0208,-0.9185,1.2178,608,-275.7568,-257.9346,23.2544,91,0.7624,0.4982,5.904,-45.2879,32,0.9525,8564,4.0425,-89.144
rg,1624962876782230861,1,0.5193,-1.3071,0.6628,609,63.6597,26.3672,-10.498,91,0.7954,0.5062,6.3642,-41.8724,32,0.9625,27737,4.0425,-91.6853
rg,1624962876782287952,1,-0.0435,-0.5139,0.2935,610,93.1396,123.1079,-7.5684,91,0.8084,0.5082,9.8104,-39.3575,32,0.9615,10472,4.0425,-95.2409
rg,1624962876782309247,1,-0.3516,-0.5464,0.3103,611,32.7759,139.1602,1.4648,91,0.8144,0.5112,14.894,-39.5345,32,0.9645,7746,4.0425,-98.9438
rg,1624962876782367283,1,-0.4763,-0.668,0.2847,612,1.2207,100.647,5.5542,91,0.8074,0.5153,16.973,-42.4048,32,0.9665,7778,4.0425,-99.8784
rg,1624962876782388023,1,-0.4775,-0.8047,0.2781,613,-88.1958,-41.3208,9.2773,91,0.7744,0.5163,16.5991,-46.4761,32,0.9625,7760,4.0425,-98.6981
rg,1624962876782408208,1,-0.259,-0.9292,0.511,614,-144.2871,-154.6631,7.1411,91,0.7554,0.5123,12.6873,-51.5317,32,0.9495,10685,4.0425,-93.8391
rg,1624962876782427726,1,0.2202,-1.1589,0.6565,615,-100.0977,-188.2935,46.2036,91,0.7544,0.5092,8.8154,-54.5115,32,0.9445,8252,4.0425,-86.6479
rg,1624962876782446651,1,0.709,-1.522,0.5288,616,-36.9873,-163.4521,71.9604,91,0.7524,0.4942,8.093,-53.742,32,0.9495,7833,4.0425,-80.9879
rg,1624962876782464910,1,0.8711,-1.509,0.4097,617,40.7104,-57.9224,101.2573,91,0.7514,0.4832,8.5817,-52.2031,32,0.9485,7766,4.0425,-76.7834
rg,1624962876782483020,1,0.6443,-1.2231,0.3965,618,115.8447,86.4258,37.4146,91,0.7524,0.4762,10.6329,-48.5675,32,0.9495,7858,4.0425,-78.673
rg,1624962876782500464,1,0.3638,-0.9734,0.4121,619,129.5776,133.7891,1.5869,91,0.7524,0.4682,13.7148,-44.8301,32,0.9475,7818,4.0425,-82.7493
rg,1624962876782520001,1,-0.1838,-0.4595,0.2556,620,152.1606,207.1533,-54.0771,91,0.7494,0.4652,18.4842,-41.4679,32,0.9435,7899,4.0425,-90.415
rg,1624962876782537797,1,-0.5647,-0.2319,0.2554,621,148.0103,274.7803,-37.0483,91,0.7534,0.4632,27.3081,-39.0509,32,0.9445,7857,4.0425,-99.2898
rg,1624962876782555555,1,-0.7942,-0.1863,0.2646,622,121.2769,273.1323,-17.2119,91,0.7554,0.4682,36.7746,-38.7693,32,0.9435,7918,4.0425,-107.9592
rg,1624962876782594758,1,-1.1912,-0.4973,0.5303,623,-77.5757,-45.5933,-27.771,91,0.7604,0.4822,35.4947,-41.7194,32,0.9465,12034,4.0425,-107.6315
rg,1624962876782617850,1,-0.7263,-0.8552,0.6875,624,-158.9355,-261.5967,7.1411,91,0.7634,0.4862,28.0178,-43.8898,32,0.9485,8104,4.0425,-99.2368
rg,1624962876782634831,1,-0.3655,-1.0505,0.8645,625,-177.5513,-335.3271,29.541,91,0.7664,0.4932,19.0033,-46.7332,32,0.9515,7963,4.0425,-88.1022
rg,1624962876782652442,1,0.7075,-1.7292,1.2905,626,-96.1304,-334.8999,39.917,91,0.7684,0.4982,9.8002,-47.9988,32,0.9565,8099,4.0425,-76.9346
rg,1624962876782670571,1,0.8115,-1.6753,0.4375,627,95.7642,-173.9502,29.6631,91,0.7784,0.5062,4.6085,-44.368,32,0.9595,8044,4.0425,-71.2542
rg,1624962876782690218,1,0.7686,-1.3726,0.2764,628,146.5454,-122.1313,8.4839,91,0.8034,0.5133,-0.1601,-39.3037,32,0.9615,8557,4.0425,-67.8788
rg,1624962876782707625,1,0.5938,-0.6833,0.2266,629,180.8472,-9.7656,-17.334,91,0.8244,0.5173,-2.3174,-33.0166,32,0.9605,8640,4.0425,-68.286
rg,1624962876782725106,1,0.2183,-0.3035,-0.0239,630,125.3662,149.9023,2.1362,91,0.8424,0.5193,1.5381,-29.6123,32,0.9575,8318,4.0425,-71.3096
rg,1624962876782742532,1,-0.0583,-0.2705,0.2925,631,22.8882,242.9199,18.1885,91,0.8494,0.5203,10.5593,-29.6513,32,0.9625,8189,4.0425,-75.5178
rg,1624962876782759402,1,-0.3657,-0.457,0.8135,632,-36.7432,260.1929,20.5078,91,0.8344,0.5243,20.2632,-32.3875,32,0.9625,8045,4.0425,-80.3554
rg,1624962876782777457,1,-0.8074,-0.9526,0.4265,633,-111.3892,104.8584,22.2778,91,0.7894,0.5343,24.9233,-38.6132,32,0.9565,8231,4.0425,-82.63
rg,1624962876782795067,1,-0.6177,-1.1135,0.4561,634,-171.0205,-140.0146,5.4932,91,0.7594,0.5363,21.0941,-44.8395,32,0.9475,8136,4.0425,-78.8612
rg,1624962876782812808,1,-0.3335,-1.0552,0.7209,635,-162.7808,-226.3794,14.0381,91,0.7484,0.5343,15.1502,-49.4574,32,0.9415,8327,4.0425,-71.6316
rg,1624962876782829863,1,0.4446,-1.24,0.7241,636,-58.2275,-233.3984,72.0825,91,0.7464,0.5133,10.1548,-50.1431,32,0.9365,8198,4.0425,-62.5311
rg,1624962876782847029,1,0.822,-1.2393,0.6201,637,5.4932,-83.8623,78.7354,91,0.7484,0.4932,8.9335,-49.5874,32,0.9425,8360,4.0425,-57.9647
rg,1624962876782863714,1,0.6863,-1.2368,0.564,638,36.1938,1.8311,48.584,91,0.7474,0.4792,9.6763,-48.4013,32,0.9435,8238,4.0425,-58.9118
rg,1624962876782882398,1,0.2747,-1.1309,0.6731,639,48.5229,83.9233,-10.5591,91,0.7464,0.4682,10.775,-47.3812,32,0.9425,8448,4.0425,-61.8142
rg,1624962876782920583,1,-0.3052,-0.8655,0.4226,640,95.0928,140.8081,-56.2744,91,0.7464,0.4662,13.2913,-45.4089,32,0.9415,8353,4.0425,-67.6811
rg,1624962877140426382,1,-0.6318,-0.196,0.3496,641,45.3491,48.2788,2.1362,91,0.7534,0.4762,16.3112,-43.5768,32,0.9435,27446,4.0425,-68.9082
rg,1624962877140477381,1,-0.4338,-0.707,0.615,642,-128.3569,-171.4478,1.77,91,0.7564,0.4872,11.9347,-47.6454,32,0.9475,15473,4.0425,-63.8678
rg,1624962877140498899,1,-0.1968,-0.9775,0.9368,643,-156.25,-218.5669,12.5122,91,0.7564,0.4892,6.0681,-52.0457,32,0.9505,7778,4.0425,-56.2452
rg,1624962877140519861,1,0.3706,-1.509,0.9065,644,-74.0356,-180.9082,24.292,91,0.7544,0.4902,1.8666,-54.8072,32,0.9555,7908,4.0425,-49.8559
rg,1624962877140539491,1,0.4326,-1.3152,0.5129,645,35.7056,-82.0923,17.7612,91,0.7584,0.4862,-0.192,-53.8429,32,0.9595,9295,4.0425,-46.7964
rg,1624962877140559157,1,0.3789,-0.9141,0.624,646,89.0503,-27.2217,-11.9629,91,0.7764,0.4842,-1.9601,-50.3566,32,0.9605,7960,4.0425,-46.2527
rg,1624962877140578415,1,0.3145,-0.7458,0.5298,647,91.8579,5.8594,-7.3242,91,0.7964,0.4832,-2.688,-46.8239,33,0.9605,7989,4.0425,-46.6394
rg,1624962877140596545,1,0.0662,-0.582,0.2664,648,58.5938,73.4253,2.3804,91,0.8174,0.4822,-0.7235,-45.134,33,0.9605,8012,4.0425,-48.6593
rg,1624962877140615174,1,-0.1128,-0.6155,0.4363,649,28.0762,108.6426,14.1602,91,0.8344,0.4832,3.1038,-44.4299,33,0.9615,8113,4.0425,-51.3175
rg,1624962877140634340,1,-0.2354,-0.667,0.5342,650,13.6108,110.2905,19.8975,91,0.8484,0.4832,7.5748,-44.6663,33,0.9625,8809,4.0425,-53.8921
rg,1624962877140652358,1,-0.396,-0.7651,0.2659,651,2.9907,38.3301,35.8887,91,0.8484,0.4882,10.4105,-45.4614,32,0.9635,8644,4.0425,-54.0929
rg,1624962877140671024,1,-0.106,-0.738,0.4707,652,-74.707,-54.6265,47.0581,91,0.8144,0.4942,10.1661,-48.3836,32,0.9635,7954,4.0425,-51.2472
rg,1624962877140689227,1,0.1108,-0.855,0.7263,653,-131.5308,-88.0127,32.8369,91,0.7724,0.4862,7.5567,-54.1086,32,0.9585,8113,4.0425,-47.2624
rg,1624962877140707745,1,0.1501,-0.9468,0.6362,654,-146.5454,-105.2246,29.1748,91,0.7524,0.4832,5.6577,-59.5349,32,0.9525,8009,4.0425,-43.0594
rg,1624962877140726134,1,0.4097,-1.1377,0.4807,655,-100.8301,-78.7964,76.6602,91,0.7494,0.4832,5.9312,-63.3975,33,0.9435,8144,4.0425,-38.8106
rg,1624962877140744448,1,0.7231,-1.2915,0.9087,656,-85.9375,-51.8188,79.834,91,0.7504,0.4682,7.1231,-65.4962,33,0.9495,8061,4.0425,-37.8326
rg,1624962877140762966,1,0.5564,-1.5037,0.9434,657,-33.1421,88.3789,47.4854,91,0.7474,0.4562,9.3275,-66.8727,33,0.9485,8419,4.0425,-40.2882
rg,1624962877140780688,1,0.2148,-1.6802,0.717,658,16.3574,131.4087,33.6914,91,0.7474,0.4522,11.9707,-67.0177,33,0.9485,8147,4.0425,-44.6793
rg,1624962877140798854,1,-0.3167,-1.573,0.6816,659,114.6851,116.0889,-36.6821,91,0.7484,0.4512,12.5035,-63.4565,32,0.9505,8311,4.0425,-49.6141
rg,1624962877140816835,1,-0.4741,-1.2654,0.501,660,167.6025,87.2803,-54.9316,91,0.7484,0.4482,12.3749,-55.7482,32,0.9485,8190,4.0425,-53.2946
rg,1624962877140835094,1,-0.4775,-0.2197,0.0845,661,277.1606,41.4429,-43.7012,91,0.7484,0.4392,13.8426,-45.4695,32,0.9485,10194,4.0425,-55.6176
rg,1624962877140852686,1,-0.49,0.0383,0.0337,662,266.4185,36.9873,-25.2075,86,0.7494,0.4362,16.4825,-35.0382,33,0.9475,8150,4.0436,-57.1281
rg,1624962877140870778,1,-0.6028,0.3523,-0.0862,663,172.3022,0.1221,13.9771,86,0.7524,0.4392,18.8616,-27.1638,33,0.9485,8392,4.0436,-56.243
rg,1624962877140889019,1,-0.5286,0.3076,-0.1909,664,-34.1187,-83.6182,48.7061,86,0.7554,0.4442,18.8979,-26.71,33,0.9495,8224,4.0436,-52.5633
rg,1624962877140906796,1,-0.3789,0.0798,-0.1104,665,-156.0059,-117.8589,57.251,86,0.7574,0.4462,16.9593,-36.7306,33,0.9505,8367,4.0436,-47.5833
rg,1624962877140924740,1,-0.1887,-0.5503,0.4983,666,-374.3896,-167.2363,77.2705,86,0.7604,0.4492,14.168,-50.138,32,0.9535,8366,4.0436,-40.6582
rg,1624962877140961498,1,0.6968,-2.3318,2.1907,667,-367.0654,-148.6816,59.4482,86,0.7624,0.4552,11.9132,-63.1062,32,0.9555,8447,4.0436,-34.1232
rg,1624962877140981868,1,0.4675,-2.6721,0.5349,668,-24.5972,-78.064,21.6675,86,0.7664,0.4612,10.4767,-64.0231,32,0.9615,8303,4.0436,-30.9991
rg,1624962877141000071,1,0.5818,-2.1462,0.7566,669,89.8438,-2.9907,9.2773,86,0.7814,0.4632,9.8551,-60.2936,32,0.9645,8555,4.0436,-30.731
rg,1624962877141017941,1,0.2329,-0.9392,0.6787,670,223.0835,100.2197,-6.4697,86,0.8034,0.4622,11.0386,-51.8097,32,0.9645,8614,4.0436,-34.2736
rg,1624962877141035311,1,-0.0713,-0.3245,0.1882,671,192.9932,127.8076,-10.8643,86,0.8234,0.4642,14.0613,-45.341,32,0.9645,8471,4.0436,-38.5516
rg,1624962877141052792,1,-0.3171,-0.2578,0.1562,672,93.2617,137.4512,-12.4512,86,0.8334,0.4642,18.8452,-43.2194,32,0.9655,8357,4.0436,-42.9926
rg,1624962877500627195,1,-0.5896,-0.7422,0.344,673,-148.6206,-96.0083,-26.001,86,0.7714,0.4662,14.0529,-49.6772,32,0.9565,26507,4.0436,-38.9403
rg,1624962877500733896,1,0.4749,-1.3496,0.7361,674,-110.4126,-263.1226,52.3071,86,0.7494,0.4722,7.9664,-52.6718,32,0.9445,16162,4.0436,-29.3593
rg,1624962877500755766,1,0.7251,-1.4438,0.5623,675,-39.7949,-212.5244,73.9746,86,0.7484,0.4662,3.9001,-54.076,32,0.9415,7800,4.0436,-20.8273
rg,1624962877500776988,1,0.8328,-1.189,0.4199,676,61.8286,-36.438,51.9409,86,0.7474,0.4532,3.3153,-51.9786,32,0.9425,7904,4.0436,-18.4763
rg,1624962877500797524,1,0.5547,-0.9807,0.6338,677,45.7153,114.3799,17.334,86,0.7474,0.4422,5.6079,-50.574,32,0.9435,7826,4.0436,-21.6554
rg,1624962877500816135,1,0.2983,-1.0242,0.7517,678,36.8652,158.2031,2.1362,86,0.7464,0.4362,9.7479,-49.9601,32,0.9425,8660,4.0436,-27.8219
rg,1624962877500834097,1,-0.3347,-1.1255,0.5798,679,63.0493,185.9131,-26.001,86,0.7464,0.4312,13.9495,-49.2604,32,0.9415,8408,4.0436,-34.3782
rg,1624962877500852393,1,-0.6155,-0.7288,0.2402,680,161.1328,124.2065,-37.9028,86,0.7484,0.4292,17.1868,-44.8189,32,0.9405,8493,4.0436,-39.3475
rg,1624962877500873782,1,-0.5012,-0.1096,0.2212,681,180.7861,72.0215,0.7935,86,0.7504,0.4302,21.0019,-37.8893,32,0.9415,7844,4.0436,-41.1248
rg,1624962877500893707,1,-0.4426,0.1096,0.2334,682,133.606,41.1987,15.4419,86,0.7514,0.4362,24.3121,-31.5976,32,0.9405,7929,4.0436,-41.0949
rg,1624962877500914836,1,-0.3562,0.0303,0.2886,683,-48.3398,-49.4995,11.8408,86,0.7564,0.4432,24.0185,-31.9107,32,0.9415,7979,4.0436,-39.1078
rg,1624962877500934206,1,-0.3396,-0.6377,0.6907,684,-227.0508,-146.0571,11.2915,86,0.7594,0.4502,19.4324,-39.8656,32,0.9445,8053,4.0436,-35.1944
rg,1624962877500952631,1,-0.0891,-1.1648,1.4404,685,-275.5127,-191.4673,20.9351,86,0.7614,0.4532,13.958,-48.9938,32,0.9485,7922,4.0436,-28.9322
rg,1624962877500970390,1,0.291,-1.9529,0.7761,686,-131.5308,-131.7139,28.0762,86,0.7634,0.4572,10.7482,-53.9129,32,0.9535,8170,4.0436,-24.1504
rg,1624962877500989334,1,0.4404,-1.6023,0.6125,687,40.8325,-47.1802,20.874,86,0.7684,0.4592,9.341,-52.4983,32,0.9585,7942,4.0436,-22.2291
rg,1624962877501006982,1,0.3696,-1.2124,0.6956,688,92.7124,-11.5356,1.0376,86,0.7804,0.4622,8.1579,-49.0292,32,0.9605,8157,4.0436,-21.918
rg,1624962877501024963,1,0.1704,-0.6987,0.4133,689,117.981,13.3667,-5.0659,86,0.8004,0.4652,7.6034,-44.7928,32,0.9625,8000,4.0436,-22.5391
rg,1624962877501042240,1,-0.0378,-0.5024,0.2207,690,62.1948,56.8237,7.5684,86,0.8154,0.4702,9.3126,-43.3442,32,0.9625,8122,4.0436,-24.0342
rg,1624962877501060481,1,-0.2471,-0.6284,0.3511,691,4.6387,62.7441,15.1367,86,0.8244,0.4752,11.9266,-44.0481,32,0.9655,12673,4.0436,-25.4648
rg,1624962877501077221,1,-0.3018,-0.8108,0.2905,692,-52.8564,-17.5781,22.8882,86,0.8114,0.4802,12.4175,-46.872,32,0.9675,8174,4.0436,-24.5036
rg,1624962877501118998,1,-0.2112,-0.8699,0.4133,693,-93.8721,-57.373,21.3623,86,0.7754,0.4812,10.334,-52.0472,32,0.9645,8052,4.0436,-21.4031
rg,1624962877501139423,1,-0.0317,-1.0193,0.5603,694,-145.4468,-112.1216,10.498,86,0.7574,0.4772,7.7698,-57.5786,32,0.9565,8249,4.0436,-17.4959
rg,1624962877501158182,1,0.1853,-1.1365,0.4863,695,-70.8008,-99.7314,47.9736,86,0.7534,0.4762,6.7301,-60.1912,32,0.9505,8177,4.0436,-13.091
rg,1624962877501177015,1,0.6016,-1.2107,0.6594,696,-15.564,-44.1895,90.4541,86,0.7524,0.4612,7.8531,-60.4197,32,0.9525,9103,4.0436,-9.7488
rg,1624962877501194959,1,0.5298,-1.353,0.6172,697,3.418,19.7144,78.0029,86,0.7514,0.4522,10.4689,-59.7133,32,0.9505,9066,4.0436,-10.7733
rg,1624962877501212199,1,0.1633,-1.3669,0.6206,698,48.0347,93.1396,50.1099,86,0.7524,0.4472,12.9597,-57.9208,32,0.9505,9738,4.0436,-14.6565
rg,1624962877501229939,1,-0.1467,-1.2937,0.6235,699,95.2759,138.9771,-13.1836,86,0.7514,0.4442,15.2602,-55.6071,32,0.9485,8282,4.0436,-19.813
rg,1624962877501247624,1,-0.6072,-0.9297,0.4314,700,167.9688,128.7231,-46.5088,86,0.7534,0.4422,17.4425,-50.7665,32,0.9485,8410,4.0436,-25.3208
rg,1624962877501264346,1,-0.5972,-0.3438,0.124,701,227.417,92.1631,-20.0195,86,0.7534,0.4392,20.8613,-43.209,32,0.9495,8436,4.0436,-28.7603
rg,1624962877501281012,1,-0.5151,-0.0708,0.0461,702,222.4731,63.2935,-0.4883,86,0.7544,0.4402,23.864,-35.4821,32,0.9485,8623,4.0436,-28.7891
rg,1624962877501298400,1,-0.4895,0.3118,0.0657,703,105.5298,-9.0332,2.0752,86,0.7574,0.4462,25.5153,-29.8581,32,0.9495,8301,4.0436,-27.8792
rg,1624962877501315400,1,-0.4229,0.0386,0.1399,704,-104.126,-91.2476,7.5073,86,0.7614,0.4552,24.2782,-32.448,32,0.9505,8278,4.0436,-25.2954
rg,1624962877852441093,1,0.4131,-2.2178,0.6938,705,-130.6763,-161.499,26.123,86,0.7674,0.4652,18.5314,-37.3969,33,0.9615,26443,4.0436,-20.996
rg,1624962877852481666,1,0.5095,-1.2163,0.6318,706,135.1318,-7.4463,8.5449,86,0.7854,0.4732,17.1312,-32.8202,33,0.9655,17524,4.0436,-20.8845
rg,1624962877852503110,1,0.2275,-0.5698,0.3362,707,158.6304,33.2031,-12.4512,86,0.8054,0.4792,16.7612,-27.8505,32,0.9675,7805,4.0436,-22.3927
rg,1624962877852523721,1,0.094,-0.4153,0.2046,708,124.8779,64.4531,-7.5073,86,0.8194,0.4822,17.9853,-24.6842,32,0.9675,7793,4.0436,-24.2988
rg,1624962877852543313,1,-0.1484,-0.4346,0.2253,709,40.6494,106.5674,9.8267,86,0.8314,0.4842,22.091,-25.0007,32,0.9675,7809,4.0436,-26.2723
rg,1624962877852562331,1,-0.4128,-0.6482,0.3677,710,6.4697,104.9194,17.9443,86,0.8364,0.4862,25.7614,-27.2663,32,0.9695,7835,4.0436,-27.3259
rg,1624962877852580293,1,-0.4817,-0.7566,0.2886,711,-40.7104,31.25,27.832,86,0.8184,0.4912,27.7779,-30.1565,32,0.9695,8382,4.0436,-27.556
rg,1624962877852598422,1,-0.3071,-0.8481,0.4666,712,-130.3101,-101.9897,22.2778,86,0.7794,0.4872,24.562,-35.1267,32,0.9655,8368,4.0436,-24.8322
rg,1624962877852615626,1,0.0225,-0.9338,0.658,713,-163.0249,-188.4155,12.7563,86,0.7564,0.4812,17.7607,-40.6072,32,0.9555,12917,4.0436,-19.7828
rg,1624962877852633459,1,0.4277,-1.1763,0.532,714,-77.2705,-151.3672,70.7397,86,0.7554,0.4772,13.8661,-42.8756,32,0.9505,8426,4.0436,-13.669
rg,1624962877852651569,1,0.8608,-1.3555,0.7666,715,-31.311,-27.0996,93.0176,86,0.7544,0.4642,14.1104,-43.8719,32,0.9525,7869,4.0436,-10.2573
rg,1624962877852684846,1,0.5862,-1.4612,0.6433,716,17.5781,115.6006,61.3403,86,0.7544,0.4562,17.8722,-44.4228,32,0.9515,7979,4.0436,-11.9902
rg,1624962877852704605,1,0.3391,-1.4377,0.6621,717,40.9546,157.8979,33.7524,86,0.7554,0.4542,22.19,-44.8883,32,0.9495,7943,4.0436,-15.9599
rg,1624962877852722456,1,-0.353,-1.3086,0.7129,718,94.0552,203.064,-28.1372,86,0.7554,0.4552,26.799,-44.7977,32,0.9485,9561,4.0436,-23.3932
rg,1624962877852740641,1,-0.7725,-0.9185,0.3823,719,178.5278,156.5552,-48.2178,86,0.7564,0.4552,30.511,-41.5623,32,0.9485,7967,4.0436,-30.2103
rg,1624962877852758567,1,-0.7268,-0.366,0.0532,720,217.041,122.6807,-37.2925,86,0.7564,0.4552,34.0191,-35.0021,32,0.9485,8098,4.0436,-33.7344
rg,1624962877852776585,1,-0.6614,-0.0906,0.0032,721,209.7778,36.6211,-6.958,86,0.7574,0.4492,36.8651,-27.5755,32,0.9475,8016,4.0436,-34.9858
rg,1624962877852793695,1,-0.6096,0.2441,0.0244,722,93.3838,-78.125,-7.019,86,0.7594,0.4582,35.7641,-22.0297,32,0.9465,8078,4.0436,-32.9606
rg,1624962877852812232,1,-0.3923,0.0103,0.0972,723,-92.5293,-171.5698,18.6768,86,0.7614,0.4652,31.249,-23.2065,32,0.9505,8028,4.0436,-28.7891
rg,1624962877852830824,1,-0.2617,-0.2397,0.2075,724,-182.8003,-201.9043,36.0107,86,0.7634,0.4682,25.0736,-28.7747,32,0.9515,8100,4.0436,-23.783
rg,1624962877852849231,1,0.3757,-1.1104,1.4829,725,-311.0962,-283.6914,50.8423,86,0.7664,0.4722,15.53,-38.503,32,0.9545,8009,4.0436,-15.3696
rg,1624962877852878749,1,0.5691,-2.0767,0.8218,726,-149.4141,-111.6333,31.5552,86,0.7674,0.4782,11.9685,-44.5858,33,0.9595,8218,4.0436,-11.5992
rg,1624962877852897359,1,0.4858,-2.0916,0.366,727,-40.9546,-54.3823,36.3159,86,0.7684,0.4812,10.6222,-47.0002,33,0.9615,8159,4.0436,-9.2316
rg,1624962877852915285,1,0.4958,-1.3472,0.7998,728,66.2842,30.7007,-8.4229,86,0.7764,0.4822,10.1656,-45.0231,33,0.9645,8244,4.0436,-10.4758
rg,1624962877852933506,1,0.1365,-0.7756,0.5513,729,128.2959,92.4072,-10.498,86,0.7924,0.4882,11.8624,-40.832,33,0.9665,8220,4.0436,-13.4505
rg,1624962877852950876,1,0.0381,-0.6741,0.3572,730,108.0322,103.9429,3.7842,86,0.8134,0.4942,14.9244,-38.0559,32,0.9685,8273,4.0436,-16.2499
rg,1624962877852968135,1,-0.1643,-0.7024,0.353,731,43.396,106.8726,-0.4272,86,0.8304,0.4992,18.1876,-38.0926,32,0.9685,8216,4.0436,-19.2754
rg,1624962877852984913,1,-0.3232,-0.7937,0.373,732,21.6675,58.96,-1.77,86,0.8454,0.5022,20.1265,-38.7639,32,0.9695,8271,4.0436,-21.2078
rg,1624962877853002042,1,-0.4067,-0.7822,0.3193,733,21.6064,38.9404,0.6104,86,0.8564,0.5042,21.0481,-39.0407,32,0.9695,8347,4.0436,-21.7989
rg,1624962877853019689,1,-0.2576,-0.6497,0.2278,734,16.8457,-19.2261,15.4419,86,0.8574,0.5092,20.0756,-39.4209,32,0.9705,8701,4.0436,-19.9134
rg,1624962877853037893,1,-0.0142,-0.6641,0.4355,735,-37.5977,-81.543,28.0762,86,0.8144,0.5183,16.8464,-42.79,32,0.9675,9970,4.0436,-16.2001
rg,1624962877853056948,1,0.1089,-0.7534,0.4812,736,-160.2783,-140.1367,21.8506,86,0.7744,0.5112,12.6827,-48.5344,32,0.9545,8467,4.0436,-11.5512
rg,1624962878224536806,1,0.5742,-1.3877,0.623,737,-33.8745,35.7056,102.6001,86,0.7584,0.4672,16.4429,-49.6179,32,0.9405,27332,4.0436,-11.8334
rg,1624962878224578823,1,0.2031,-1.5771,0.6411,738,67.0166,119.873,59.5703,86,0.7584,0.4672,20.4962,-48.3683,32,0.9395,8576,4.0436,-14.2343
rg,1624962878224600119,1,-0.0908,-1.4216,0.5911,739,118.7134,116.394,1.5259,86,0.7584,0.4682,23.0656,-45.7713,32,0.9385,7805,4.0436,-18.1611
rg,1624962878224620767,1,-0.3142,-1.1648,0.4646,740,163.4521,111.2671,-34.668,86,0.7584,0.4652,25.0075,-41.9945,32,0.9385,7812,4.0436,-23.005
rg,1624962878224639618,1,-0.4763,-0.5044,0.2097,741,232.8491,88.4399,-58.4717,86,0.7584,0.4612,26.9959,-35.4838,32,0.9375,7932,4.0436,-27.787
rg,1624962878224658618,1,-0.6167,0.0039,0.075,742,243.9575,96.1914,-33.8745,86,0.7594,0.4562,31.4371,-27.2694,32,0.9365,10336,4.0436,-31.1493
rg,1624962878224677747,1,-0.7107,0.3323,-0.0583,743,135.1929,22.7051,14.9536,86,0.7614,0.4562,34.515,-20.7632,32,0.9395,8309,4.0436,-30.3135
rg,1624962878224718005,1,-0.6729,0.3777,-0.0505,744,31.0669,-43.7012,23.8647,86,0.7644,0.4632,35.0845,-17.2602,32,0.9415,7743,4.0436,-27.7565
rg,1624962878224738227,1,-0.3787,-0.0903,0.2175,745,-205.1392,-170.7764,39.1235,86,0.7674,0.4682,30.1453,-23.1363,32,0.9425,7956,4.0436,-23.3411
rg,1624962878224756801,1,0.1729,-1.0249,1.5386,746,-369.5068,-291.5039,59.8145,86,0.7704,0.4722,19.9474,-34.6223,32,0.9465,7784,4.0436,-14.9943
rg,1624962878224776096,1,0.8713,-1.947,2.4839,747,-352.2339,-272.2778,47.3633,86,0.7714,0.4782,11.6813,-46.3102,32,0.9495,7969,4.0436,-6.1503
rg,1624962878224795966,1,0.426,-2.4514,0.3938,748,-72.6318,-97.3511,22.7051,86,0.7774,0.4852,9.0002,-49.8078,32,0.9535,7834,4.0436,-2.8278
rg,1624962878224817688,1,0.5386,-1.5715,0.7126,749,106.9946,17.334,4.3335,86,0.7854,0.4902,8.597,-46.1933,32,0.9585,7937,4.0436,-3.3602
rg,1624962878224838243,1,0.3477,-1.0571,0.7041,750,157.8369,61.5234,-12.2681,86,0.7984,0.4942,9.1255,-40.6067,32,0.9595,7864,4.0436,-5.5377
rg,1624962878224857446,1,-0.0166,-0.4885,0.2292,751,161.8652,96.6187,-13.1226,86,0.8234,0.5042,11.5692,-35.6058,32,0.9635,9149,4.0436,-8.5456
rg,1624962878224881020,1,-0.2107,-0.4116,0.1624,752,71.4111,103.5767,2.3193,86,0.8384,0.5123,15.6053,-34.4478,32,0.9635,10817,4.0436,-11.1414
rg,1624962878224903964,1,-0.4106,-0.6213,0.2661,753,-0.8545,56.3354,6.958,86,0.8474,0.5163,18.2833,-35.8878,32,0.9665,8003,4.0436,-12.5647
rg,1624962878224923593,1,-0.4614,-0.8113,0.2561,754,-23.6816,9.2773,6.4087,86,0.8434,0.5213,17.6301,-38.4099,33,0.9685,7966,4.0436,-11.511
rg,1624962878224943185,1,-0.386,-0.8342,0.2981,755,-70.4956,-85.8765,17.395,86,0.8084,0.5263,15.7751,-41.5402,33,0.9655,7999,4.0436,-9.0031
rg,1624962878224963833,1,-0.0825,-0.8516,0.4126,756,-138.6108,-171.875,26.4282,86,0.7834,0.5133,11.2193,-46.6214,33,0.9595,8146,4.0436,-3.5346
rg,1624962878224987054,1,0.2485,-0.9431,0.4827,757,-141.4185,-196.4722,22.9492,86,0.7684,0.5082,6.2885,-50.4544,33,0.9535,8008,4.0436,2.5737
rg,1624962878225008054,1,0.3821,-1.0571,0.4224,758,-61.0962,-140.1367,44.6167,86,0.7624,0.5042,3.2983,-53.0723,32,0.9445,8183,4.0436,8.0457
rg,1624962878225027331,1,0.6157,-1.2461,0.8,759,-34.5459,33.02,43.8843,86,0.7614,0.4792,4.4971,-54.5958,32,0.9405,13354,4.0436,8.0115
rg,1624962878225046516,1,0.3545,-1.353,0.78,760,6.3477,98.6328,31.0669,86,0.7614,0.4702,7.7317,-54.0118,32,0.9385,8237,4.0436,5.1107
rg,1624962878225064571,1,-0.0029,-1.3931,0.6255,761,49.9268,118.4692,19.2261,86,0.7624,0.4642,10.8496,-53.0272,32,0.9365,9032,4.0436,1.6403
rg,1624962878225081996,1,-0.4304,-1.2649,0.6204,762,111.5723,104.0649,-25.6958,86,0.7624,0.4612,12.8736,-49.7983,32,0.9355,8283,4.0436,-2.4093
rg,1624962878225101459,1,-0.5718,-0.8391,0.3706,763,172.4243,45.9595,-29.6631,86,0.7624,0.4592,14.0165,-43.978,32,0.9345,8200,4.0436,-4.7018
rg,1624962878225159272,1,-0.4204,-0.3843,0.157,764,183.5938,-1.8921,-5.9814,86,0.7634,0.4582,15.0186,-37.3335,32,0.9345,9748,4.0436,-4.922
rg,1624962878225183420,1,-0.3064,-0.1953,0.123,765,167.5415,-32.1045,2.1973,86,0.7644,0.4582,15.4282,-30.907,32,0.9355,8380,4.0436,-4.1407
rg,1624962878225201105,1,-0.2124,0.0256,0.1707,766,95.459,-82.7026,-5.0049,86,0.7644,0.4612,13.8254,-25.7772,32,0.9355,8306,4.0436,-2.3747
rg,1624962878225220030,1,-0.1248,-0.0933,0.209,767,-26.6113,-113.2812,9.8267,86,0.7674,0.4672,10.5196,-26.2657,32,0.9395,8242,4.0436,0.04
rg,1624962878225238993,1,0.1047,-0.5564,0.6716,768,-92.2241,-123.5962,21.1182,86,0.7694,0.4742,5.7236,-32.3654,32,0.9415,8456,4.0436,3.6482
rg,1624962878572764833,1,0.2507,-1.6223,0.6006,769,-36.499,15.4419,12.3901,86,0.7754,0.4922,6.0029,-35.1719,32,0.9525,25732,4.0436,3.5903
rg,1624962878572814350,1,-0.0083,-0.991,0.7183,770,70.6177,46.6919,-4.3945,86,0.7874,0.5032,7.3846,-33.315,32,0.9565,14265,4.0436,2.2958
rg,1624962878572837220,1,-0.1289,-0.7131,0.4788,771,67.1387,34.1797,1.77,86,0.7924,0.5092,8.6385,-31.6028,32,0.9575,7934,4.0436,1.5013
rg,1624962878572857590,1,-0.2434,-0.667,0.3933,772,12.085,-2.0752,4.0283,86,0.7934,0.5143,9.0353,-32.1091,32,0.9595,8066,4.0436,1.529
rg,1624962878572888404,1,-0.2371,-0.6987,0.3623,773,-27.9541,-36.0107,7.9346,86,0.7854,0.5193,8.1656,-34.1589,32,0.9615,7741,4.0436,2.42
rg,1624962878572908292,1,-0.0813,-0.8391,0.5242,774,-88.3789,-111.7554,-1.77,84,0.7774,0.5223,4.4233,-38.3072,33,0.9575,7899,4.0425,4.898
rg,1624962878572929329,1,0.1396,-0.9446,0.5859,775,-80.3833,-124.7559,15.1367,84,0.7754,0.5123,0.5782,-42.1089,33,0.9575,9198,4.0425,8.5425
rg,1624962878572950662,1,0.4089,-1.2124,0.6555,776,-26.7944,-91.1865,55.7861,84,0.7724,0.5042,-1.2192,-43.9184,33,0.9575,8552,4.0425,12.664
rg,1624962878572970439,1,0.5752,-1.3301,0.5479,777,-6.5308,-88.1348,69.397,84,0.7704,0.4992,-2.5723,-45.1648,33,0.9555,7958,4.0425,17.1411
rg,1624962878572989365,1,0.5054,-1.3503,0.4321,778,49.0112,20.6909,38.7573,84,0.7704,0.4982,-1.5734,-44.1931,32,0.9535,8075,4.0425,17.6941
rg,1624962878573038919,1,0.1467,-1.1047,0.5435,779,94.4214,105.7739,17.7002,84,0.7714,0.4972,1.787,-41.1766,32,0.9535,7915,4.0425,15.3546
rg,1624962878573062048,1,-0.0618,-0.9978,0.5471,780,106.3843,123.4131,4.6997,84,0.7714,0.4952,6.2019,-37.8914,32,0.9505,8156,4.0425,12.3382
rg,1624962878573082122,1,-0.5317,-0.7817,0.3394,781,137.207,72.3877,-8.5449,84,0.7724,0.4892,9.3496,-33.6074,32,0.9505,7976,4.0425,10.2888
rg,1624962878573101547,1,-0.5718,-0.6575,0.2402,782,149.5972,47.3022,-0.5493,84,0.7734,0.4812,12.3307,-28.7927,32,0.9495,8099,4.0425,9.1734
rg,1624962878573119324,1,-0.5,-0.3755,0.1748,783,138.9771,-3.1128,25.8789,84,0.7734,0.4732,14.1367,-23.8809,32,0.9475,7926,4.0425,10.0605
rg,1624962878573137713,1,-0.3555,-0.2063,0.198,784,75.2563,-72.3877,35.2783,84,0.7744,0.4672,13.3997,-20.833,32,0.9445,8012,4.0425,12.445
rg,1624962878573156231,1,-0.2791,-0.23,0.2405,785,27.0996,-111.145,31.311,84,0.7754,0.4642,10.2035,-20.1577,32,0.9415,8144,4.0425,15.0125
rg,1624962878573174842,1,-0.1379,-0.4954,0.4329,786,-64.0869,-172.4243,26.5503,84,0.7754,0.4642,4.3292,-23.3297,32,0.9385,8170,4.0425,18.3891
rg,1624962878573194563,1,0.2498,-0.9939,0.8718,787,-91.9189,-178.6499,22.0947,84,0.7774,0.4672,-2.2699,-27.8742,32,0.9375,8168,4.0425,22.222
rg,1624962878573213378,1,0.4026,-1.2424,0.5891,788,-17.6392,-83.9844,22.1558,84,0.7794,0.4672,-5.3329,-30.0352,32,0.9355,8836,4.0425,24.6935
rg,1624962878573231525,1,0.3186,-0.9282,0.5171,789,38.9404,-3.1738,0.6714,84,0.7814,0.4672,-5.9039,-29.6045,32,0.9365,8300,4.0425,24.8824
rg,1624962878573250951,1,0.2363,-0.7654,0.5945,790,40.7104,20.4468,-14.7095,84,0.7814,0.4652,-5.8034,-28.7294,32,0.9335,8119,4.0425,24.0489
rg,1624962878573272339,1,0.032,-0.6587,0.5925,791,16.6626,48.0347,-19.6533,84,0.7834,0.4642,-4.3663,-28.6669,32,0.9335,8148,4.0425,22.5048
rg,1624962878573291987,1,-0.085,-0.8191,0.5801,792,-11.1084,36.438,-20.0806,84,0.7844,0.4642,-3.1475,-30.0036,32,0.9345,8324,4.0425,21.1585
rg,1624962878573310783,1,-0.0884,-0.9155,0.6272,793,-13.4277,17.4561,-24.8413,84,0.7854,0.4652,-2.7959,-31.4852,32,0.9335,8233,4.0425,19.9989
rg,1624962878573380152,1,-0.0427,-0.9785,0.6201,794,14.0991,-20.0195,-30.3955,84,0.7854,0.4642,-3.9288,-31.8808,32,0.9335,8397,4.0425,19.4348
rg,1624962878573412299,1,0.0073,-0.884,0.5945,795,47.5464,-30.2734,-31.311,84,0.7874,0.4632,-5.4829,-30.8749,32,0.9355,8232,4.0425,19.063
rg,1624962878573431984,1,0.0571,-0.8091,0.5901,796,59.082,-32.959,-22.8882,84,0.7884,0.4632,-7.0065,-29.3877,32,0.9355,8416,4.0425,19.0212
rg,1624962878573452539,1,0.0742,-0.7876,0.5679,797,60.3638,-29.541,-18.9819,84,0.7874,0.4612,-8.3237,-27.9175,32,0.9355,8285,4.0425,19.0411
rg,1624962878573470298,1,0.0259,-0.7859,0.5774,798,57.9834,-22.8882,-17.2119,84,0.7864,0.4602,-9.2129,-26.5665,32,0.9355,8439,4.0425,18.9955
rg,1624962878573489223,1,0.0005,-0.7666,0.5486,799,65.0635,-28.6255,-8.3008,84,0.7904,0.4592,-10.0637,-25.0759,32,0.9375,8317,4.0425,19.3776
rg,1624962878573508334,1,0.0457,-0.7107,0.5508,800,69.519,-32.959,-5.0049,84,0.7904,0.4592,-11.208,-23.3975,32,0.9365,8474,4.0425,20.1744
rg,1624962878944135861,1,0.1108,-0.7043,0.5771,801,58.6548,-32.5928,-3.3569,84,0.7924,0.4612,-12.1087,-22.2575,32,0.9375,27264,4.0425,20.6557
rg,1624962878944209970,1,0.0811,-0.7695,0.6677,802,57.312,-24.6582,-6.7139,84,0.7924,0.4632,-12.8726,-21.037,32,0.9365,10924,4.0425,20.9971
rg,1624962878944233285,1,0.083,-0.7554,0.6736,803,60.4858,-25.9399,-6.958,84,0.7924,0.4642,-13.6708,-19.7077,32,0.9365,7761,4.0425,21.3429
rg,1624962878944253284,1,0.1169,-0.7285,0.6782,804,66.4062,-25.3906,-5.3101,84,0.7934,0.4642,-14.4809,-18.1543,32,0.9375,7694,4.0425,21.7332
rg,1624962878944273006,1,0.1396,-0.7102,0.7026,805,65.8569,-17.7612,-3.9062,84,0.7934,0.4642,-15.0071,-16.6013,32,0.9365,9654,4.0425,22.0686
rg,1624962878944291506,1,0.1277,-0.7104,0.7024,806,64.1479,-13.3057,-3.8452,84,0.7934,0.4642,-15.1108,-15.128,32,0.9365,7778,4.0425,22.2503
rg,1624962878944310635,1,0.0747,-0.7124,0.7239,807,63.4766,-6.0425,-6.2866,84,0.7944,0.4632,-15.0537,-13.6961,32,0.9355,8652,4.0425,22.3674
rg,1624962878944388577,1,0.0366,-0.6924,0.7234,808,64.7583,-12.3291,-8.2397,84,0.7944,0.4632,-15.1777,-12.2306,32,0.9355,8392,4.0425,22.463
rg,1624962878944413595,1,0.0164,-0.676,0.7263,809,65.0024,-30.2734,-16.4185,84,0.7944,0.4622,-16.0173,-10.7274,32,0.9365,7825,4.0425,22.3697
rg,1624962878944433113,1,0.0164,-0.6567,0.7288,810,63.9038,-41.2598,-20.2026,84,0.7944,0.4592,-17.2794,-9.2556,32,0.9345,7814,4.0425,22.1876
rg,1624962878944453391,1,0.0276,-0.6365,0.7354,811,62.1948,-66.04,-25.8789,84,0.7944,0.4582,-19.5242,-7.8177,32,0.9345,7855,4.0425,21.9053
rg,1624962878944472094,1,0.0439,-0.6416,0.7458,812,60.3638,-75.4395,-28.5034,84,0.7944,0.4572,-22.4642,-6.4447,32,0.9345,7811,4.0425,21.6132
rg,1624962878944490204,1,0.115,-0.6611,0.7766,813,61.6455,-90.332,-26.123,84,0.7934,0.4562,-25.67,-5.0652,32,0.9345,7936,4.0425,21.4109
rg,1624962878944508297,1,0.2241,-0.6765,0.7805,814,67.2607,-97.7173,-19.8364,84,0.7944,0.4552,-29.2659,-3.592,32,0.9345,7871,4.0425,21.4979
rg,1624962878944527648,1,0.27,-0.6665,0.7952,815,71.7773,-98.4497,-17.6392,84,0.7944,0.4552,-32.9569,-1.9236,32,0.9345,7982,4.0425,21.6419
rg,1624962878944547462,1,0.3604,-0.6431,0.7988,816,75.3174,-89.0503,-12.3291,84,0.7904,0.4552,-36.2118,-0.1943,32,0.9335,7956,4.0425,21.9871
rg,1624962878944566703,1,0.4182,-0.605,0.7593,817,82.2144,-70.5566,-3.418,84,0.7934,0.4552,-38.7791,1.5765,32,0.9325,8064,4.0425,22.75
rg,1624962878944585313,1,0.4482,-0.5815,0.7478,818,80.4443,-62.9272,-2.0142,84,0.7944,0.4552,-41.0775,3.3042,32,0.9335,7964,4.0425,23.5398
rg,1624962878944603813,1,0.4758,-0.5317,0.7407,819,72.6929,-34.0576,-5.7983,84,0.7934,0.4542,-42.1776,4.791,32,0.9325,8099,4.0425,24.2303
rg,1624962878944621275,1,0.4312,-0.5093,0.748,820,60.0586,7.9956,-7.5073,84,0.7944,0.4542,-41.4873,5.6877,32,0.9335,8014,4.0425,25.0476
rg,1624962878944639682,1,0.374,-0.5244,0.7849,821,50.354,26.4282,-8.4839,84,0.7954,0.4542,-39.1965,5.805,32,0.9335,8132,4.0425,25.9813
rg,1624962878944657849,1,0.208,-0.5933,0.8989,822,39.6729,47.9126,-10.0098,84,0.7934,0.4542,-36.4964,5.7569,32,0.9315,8087,4.0425,26.8632
rg,1624962878944703422,1,0.019,-0.6592,0.9333,823,45.5933,33.6914,-10.5591,84,0.7944,0.4532,-34.129,5.9462,32,0.9295,8159,4.0425,27.6161
rg,1624962878944725366,1,-0.0566,-0.6277,0.9321,824,51.3916,13.0615,-11.5356,84,0.7954,0.4532,-33.5906,6.8699,32,0.9335,8135,4.0425,28.0503
rg,1624962878944743643,1,0.0093,-0.5925,0.9417,825,65.979,-42.4194,-6.4087,84,0.7954,0.4512,-35.1958,8.2413,32,0.9325,8730,4.0425,28.5011
rg,1624962878944761235,1,0.2063,-0.5312,0.9058,826,69.9463,-71.7773,0.5493,84,0.7954,0.4512,-37.3788,9.6042,32,0.9335,8160,4.0425,28.9886
rg,1624962878944779790,1,0.363,-0.51,0.8826,827,66.2231,-81.543,-0.1831,84,0.7944,0.4502,-40.1762,10.958,32,0.9315,8700,4.0425,29.3098
rg,1624962878944798179,1,0.4431,-0.5044,0.8625,828,61.5845,-65.3687,-3.7842,84,0.7944,0.4502,-42.3904,12.1711,32,0.9315,8184,4.0425,29.6054
rg,1624962878944815826,1,0.4751,-0.4934,0.8369,829,60.9131,-48.5229,-3.54,84,0.7934,0.4492,-43.3608,12.9668,33,0.9315,8203,4.0425,30.3189
rg,1624962878944834233,1,0.4766,-0.4895,0.8557,830,54.3823,-16.0522,-5.7983,84,0.7944,0.4492,-43.6134,13.5654,33,0.9315,8377,4.0425,31.1362
rg,1624962878944853103,1,0.3782,-0.4844,0.8838,831,46.2036,17.5171,-10.1318,84,0.7924,0.4492,-42.3285,13.6561,33,0.9315,8246,4.0425,32.1916
rg,1624962878944872288,1,0.239,-0.5042,0.9551,832,45.8374,31.1279,-8.8501,84,0.7954,0.4482,-40.2813,13.5659,33,0.9325,8482,4.0425,33.4585
rg,1624962879301021330,1,0.0654,-0.4297,0.9871,833,52.1851,-11.2305,-3.8452,84,0.7954,0.4432,-39.6395,14.1313,32,0.9305,25490,4.0425,34.2548
rg,1624962879301115643,1,0.2246,-0.3643,0.9749,834,47.1191,-64.6973,0.9766,84,0.7944,0.4422,-41.3425,14.861,32,0.9305,11156,4.0425,34.5262
rg,1624962879301147827,1,0.4263,-0.3696,0.9331,835,41.9922,-86.0596,-1.4648,84,0.7954,0.4402,-44.1802,15.7244,32,0.9305,11467,4.0425,34.3422
rg,1624962879301178475,1,0.5024,-0.3884,0.9231,836,40.7104,-81.4209,-1.2207,84,0.7944,0.4402,-46.4704,16.28,32,0.9295,7813,4.0425,34.4864
rg,1624962879301208178,1,0.5239,-0.3921,0.9265,837,36.5601,-57.4951,3.1738,84,0.7954,0.4382,-48.2798,16.4173,32,0.9305,7956,4.0425,35.0881
rg,1624962879301287102,1,0.5425,-0.4126,0.9724,838,31.0669,-23.1323,0.6104,84,0.7954,0.4382,-48.6823,15.9778,32,0.9305,7853,4.0425,36.1941
rg,1624962879301321027,1,0.4443,-0.4163,1.0217,839,29.8462,-5.0659,0.8545,84,0.7954,0.4382,-47.5671,15.0639,32,0.9305,7979,4.0425,37.7833
rg,1624962879301348193,1,0.3843,-0.4202,1.0627,840,27.2217,17.1509,0.2441,84,0.7954,0.4382,-46.0206,14.0529,32,0.9305,8109,4.0425,39.4634
rg,1624962879301374970,1,0.282,-0.4131,1.0688,841,31.3721,10.0098,0.4272,84,0.7944,0.4372,-44.7083,13.3796,32,0.9285,7929,4.0425,40.9349
rg,1624962879301402951,1,0.2327,-0.3723,1.0242,842,35.0342,-17.2729,-1.2817,84,0.7944,0.4352,-44.3902,13.2611,32,0.9295,11050,4.0425,41.8611
rg,1624962879301429691,1,0.2456,-0.3206,0.9846,843,33.8745,-42.7856,1.3428,84,0.7944,0.4352,-45.105,13.3251,32,0.9295,8167,4.0425,42.5244
rg,1624962879301457042,1,0.3235,-0.3132,0.9719,844,24.7803,-59.6924,3.0518,84,0.7964,0.4352,-46.6047,13.1373,32,0.9295,7937,4.0425,43.0601
rg,1624962879301483245,1,0.3984,-0.3638,0.9575,845,20.752,-66.3452,3.54,84,0.7964,0.4342,-48.6834,12.6321,33,0.9305,8124,4.0425,43.637
rg,1624962879301508578,1,0.4424,-0.3738,0.9568,846,16.5405,-73.8525,3.6621,84,0.7954,0.4312,-50.8584,12.0599,33,0.9285,7983,4.0425,44.2435
rg,1624962879301533911,1,0.5015,-0.4011,0.9351,847,17.5171,-68.9087,2.8687,84,0.7964,0.4332,-52.8869,11.4189,33,0.9295,8207,4.0425,45.0047
rg,1624962879301560855,1,0.5322,-0.4141,0.9495,848,20.3247,-48.4619,5.7373,84,0.7964,0.4322,-53.5549,10.2615,33,0.9295,13372,4.0425,46.5994
rg,1624962879301585669,1,0.5227,-0.4092,0.9546,849,19.7754,-20.5688,7.9956,84,0.7964,0.4312,-53.6386,8.922,32,0.9295,8247,4.0425,48.427
rg,1624962879301612280,1,0.4675,-0.4194,0.9614,850,20.9351,-0.7324,11.2305,84,0.7964,0.4322,-52.8501,7.307,32,0.9295,8099,4.0425,50.6713
