name,time,activity,ax,ay,az,batch_val,gx,gy,gz,ibat,index,middle,pitch,roll,temp,thumb,ts,vbat,yaw
rg,1625009869140459669,1,0.0906,-0.0999,1.032,1,8.3008,-13.1836,7.1411,83,1.0935,1.1155,-5.5284,7.6223,32,0.6213,19515,4.0843,-94.7418
rg,1625009869140505638,1,0.0681,-0.0779,0.9944,2,6.2866,-9.8877,10.3149,83,1.0935,1.1165,-5.9121,7.359,32,0.6213,8267,4.0843,-94.3363
rg,1625009869140526725,1,0.0544,-0.0837,0.9817,3,2.8687,-8.0566,9.5825,83,1.0935,1.1165,-6.1735,6.9535,32,0.6213,7715,4.0843,-93.9445
rg,1625009869140547478,1,0.0361,-0.1003,0.9675,4,-0.4883,-9.0942,12.6953,83,1.0935,1.1185,-6.4369,6.3738,32,0.6213,7698,4.0843,-93.4252
rg,1625009869140567214,1,0.0298,-0.1133,0.9602,5,1.0986,-13.7329,15.8081,83,1.0935,1.1195,-6.9828,5.8547,32,0.6213,7623,4.0843,-92.7564
rg,1625009869140585672,1,0.0386,-0.092,0.9751,6,3.6621,-17.1509,18.4326,103,1.0935,1.1205,-7.5525,5.4693,32,0.6223,7734,4.0722,-92.0311
rg,1625009869140602963,1,0.0625,-0.075,1.0022,7,0.8545,-17.9443,22.7661,103,1.0935,1.1215,-8.1922,4.9992,32,0.6233,7711,4.0722,-91.1311
rg,1625009869140654209,1,0.0798,-0.0779,1.0264,8,-1.9531,-17.4561,23.1934,103,1.0935,1.1225,-8.8151,4.4195,32,0.6233,7725,4.0722,-90.2016
rg,1625009869140675555,1,0.0986,-0.0798,1.0469,9,-2.8687,-14.8926,23.3154,103,1.0945,1.1235,-9.3392,3.8131,32,0.6253,7825,4.0722,-89.2496
rg,1625009869140694068,1,0.0876,-0.0608,1.0449,10,-6.6528,-11.4746,21.9116,103,1.0935,1.1245,-9.6688,3.1203,32,0.6263,7896,4.0722,-88.345
rg,1625009869140712582,1,0.0813,-0.0479,1.0588,11,-9.3994,-9.0332,19.4092,103,1.0945,1.1245,-9.8559,2.3862,32,0.6283,7914,4.0722,-87.5383
rg,1625009869140730928,1,0.0718,-0.043,1.0591,12,-16.2354,-9.0942,19.5923,103,1.0935,1.1255,-10.0062,1.4151,32,0.6303,7908,4.0722,-86.7247
rg,1625009869140748646,1,0.0498,-0.0496,1.0488,13,-18.7378,-10.6201,18.4326,103,1.0945,1.1276,-10.1592,0.1837,32,0.6333,7946,4.0722,-86.0008
rg,1625009869140766271,1,0.0427,-0.0542,1.051,14,-27.2827,-11.3525,16.5405,103,1.0935,1.1276,-10.2946,-1.1493,32,0.6373,7911,4.0722,-85.3059
rg,1625009869140783729,1,0.0288,-0.0603,1.0696,15,-33.8745,-13.6719,15.8081,103,1.0945,1.1276,-10.4701,-2.7011,32,0.6413,8021,4.0722,-84.6344
rg,1625009869140805538,1,0.0076,-0.0654,1.0715,16,-38.0859,-16.9067,15.4419,103,1.0945,1.1276,-10.8468,-4.5066,32,0.6453,7994,4.0722,-83.9801
rg,1625009869140822292,1,0.0042,-0.0735,1.0876,17,-44.3115,-26.001,15.7471,103,1.0945,1.1276,-11.3975,-6.3871,32,0.6493,8062,4.0722,-83.2523
rg,1625009869140840621,1,0.0244,-0.0989,1.0986,18,-47.3633,-33.9966,16.3574,103,1.0955,1.1276,-12.2554,-8.3939,32,0.6513,8066,4.0722,-82.4275
rg,1625009869140858208,1,0.0559,-0.1211,1.1101,19,-48.584,-37.7197,15.8081,103,1.0955,1.1276,-13.4496,-10.462,32,0.6523,8104,4.0722,-81.5147
rg,1625009869140879906,1,0.0642,-0.1282,1.1106,20,-49.1333,-43.8843,13.855,103,1.0955,1.1276,-14.6513,-12.4812,32,0.6533,8103,4.0722,-80.6386
rg,1625009869140900104,1,0.0828,-0.1382,1.0977,21,-48.7061,-43.2739,13.0615,103,1.0945,1.1276,-15.7977,-14.4485,32,0.6533,8214,4.0722,-79.7563
rg,1625009869140920043,1,0.0908,-0.1375,1.0925,22,-50.0488,-41.5039,11.2305,103,1.0955,1.1266,-16.8385,-16.395,32,0.6533,8153,4.0722,-78.9341
rg,1625009869140941889,1,0.0991,-0.1414,1.0967,23,-51.0254,-40.9546,10.0098,103,1.0955,1.1245,-17.8214,-18.3215,32,0.6533,8148,4.0722,-78.1379
rg,1625009869140958292,1,0.0959,-0.1663,1.0964,24,-54.2603,-38.3301,5.5542,103,1.0955,1.1235,-18.6908,-20.3121,32,0.6523,8154,4.0722,-77.5154
rg,1625009869140976880,1,0.1169,-0.1907,1.1025,25,-55.6641,-35.1562,4.5776,103,1.0955,1.1225,-19.439,-22.323,32,0.6503,8229,4.0722,-76.9435
rg,1625009869140995338,1,0.123,-0.1921,1.1113,26,-55.7251,-33.02,2.9297,103,1.0955,1.1215,-20.1195,-24.2359,32,0.6483,8420,4.0722,-76.4593
rg,1625009869141015554,1,0.1392,-0.1956,1.1128,27,-57.9224,-26.3672,-0.2441,103,1.0955,1.1205,-20.5823,-26.1066,32,0.6453,8248,4.0722,-76.2045
rg,1625009869141033679,1,-0.0664,0.1768,-0.0068,28,56.6406,221.0083,-58.1665,251,0.7714,0.3422,-13.0006,-20.2224,32,0.7684,14312,4.015,-82.7278
rg,1625009869141143371,1,-0.3389,-0.1829,-0.2498,29,-122.1924,204.895,-26.6724,251,0.7734,0.3492,-4.4738,-25.7288,32,0.7704,8556,4.015,-86.7246
rg,1625009869141230126,1,-0.4299,-0.3938,-0.1992,30,-230.2246,169.8608,-4.6387,251,0.7774,0.3532,2.7647,-36.4532,32,0.7754,8418,4.015,-90.3949
rg,1625009869141254822,1,-0.1899,-2.3196,3.302,31,-330.5664,89.2334,33.6914,251,0.7824,0.3642,6.253,-49.6429,32,0.7794,8374,4.015,-91.8443
rg,1625009869141298088,1,-0.2734,-1.9622,0.0413,32,2.8687,-72.6318,41.0156,251,0.7874,0.3812,5.7746,-50.5817,32,0.7854,8861,4.015,-88.7009
rg,1625009869497735713,1,0.269,-0.7742,0.6831,33,139.8315,-79.1016,13.3667,251,0.7914,0.4202,3.2627,-44.7072,32,0.7924,24873,4.015,-86.0281
rg,1625009869497814803,1,0.2249,-0.7688,0.208,34,107.2388,-71.6553,-4.0283,251,0.8164,0.4462,0.3517,-41.46,32,0.7904,9674,4.015,-84.2682
rg,1625009869497835242,1,0.0498,-0.7427,0.3027,35,65.0635,14.8315,-9.1553,251,0.8404,0.4712,0.408,-39.8651,32,0.7904,14201,4.015,-84.9416
rg,1625009869497855551,1,-0.1169,-0.6155,0.4011,36,30.4565,-6.4697,-7.1411,251,0.8314,0.4832,0.369,-39.298,32,0.7864,7748,4.015,-84.9982
rg,1625009869497876545,1,-0.0701,-0.5215,0.5415,37,-82.5195,-92.8345,4.9438,251,0.7904,0.4932,-2.0896,-42.8003,32,0.7824,7686,4.015,-82.4132
rg,1625009869497898243,1,0.0955,-0.6213,0.6299,38,-154.8462,-156.6162,16.4185,251,0.7664,0.4802,-6.0888,-49.3953,32,0.7834,7752,4.015,-77.4244
rg,1625009869497918534,1,0.4456,-1.0786,0.4165,39,-205.2002,-240.1733,48.7061,251,0.7654,0.4312,-10.6223,-59.6113,32,0.7794,7951,4.015,-68.2908
rg,1625009869497939121,1,1.1995,-1.5845,0.9019,40,-95.3369,-163.5132,84.1675,251,0.7694,0.3782,-11.5403,-64.8638,32,0.7894,10636,4.015,-60.7671
rg,1625009869497958727,1,1.1445,-1.4568,0.2319,41,75.2563,31.189,108.0322,251,0.7704,0.3642,-8.1471,-62.4822,32,0.7844,8139,4.015,-59.896
rg,1625009869497976259,1,1.0703,-1.1812,0.3569,42,89.4165,93.689,97.6562,251,0.7724,0.3522,-4.133,-59.1983,32,0.7824,8695,4.015,-61.2633
rg,1625009869497994846,1,0.4719,-0.73,0.178,43,102.2339,228.4546,1.77,251,0.7724,0.3482,-0.2495,-55.3853,32,0.7794,8375,4.015,-68.9132
rg,1625009869498012453,1,-0.0461,-0.3547,0.1716,44,94.5435,291.4429,-61.7065,251,0.7744,0.3482,4.8526,-52.3928,32,0.7784,7896,4.015,-79.7495
rg,1625009869498030466,1,-0.321,-0.2844,0.0635,45,92.6514,308.2275,-65.4297,251,0.7754,0.3532,12.4362,-50.6864,32,0.7804,7973,4.015,-91.0968
rg,1625009869498050572,1,-0.6702,-0.1516,0.0608,46,55.3589,197.5098,-42.8467,251,0.7784,0.3572,18.126,-50.5909,32,0.7834,8068,4.015,-98.5763
rg,1625009869498073344,1,-0.8074,-0.2244,0.2556,47,-46.4478,13.916,-16.9678,251,0.7814,0.3632,19.6508,-52.5817,32,0.7864,8084,4.015,-99.4608
rg,1625009869498136623,1,-0.5632,-0.9651,1.0928,48,-122.0703,-65.918,4.6997,251,0.7854,0.3712,17.4768,-57.0968,32,0.7914,8453,4.015,-93.7761
rg,1625009869498164004,1,-0.1895,-1.4565,1.3872,49,-170.2271,-203.8574,49.3774,251,0.7904,0.3792,14.5631,-61.1395,32,0.7964,8421,4.015,-85.3084
rg,1625009869498183184,1,0.2998,-1.8623,0.6714,50,-31.4941,-247.1313,35.5225,251,0.7924,0.3912,10.1511,-60.6988,32,0.8004,8432,4.015,-75.868
rg,1625009869498331458,1,0.6016,-1.4041,0.6897,51,76.5991,-185.73,15.2588,251,0.7934,0.4042,5.6766,-56.8183,32,0.8044,8574,4.015,-69.2028
rg,1625009869498359080,1,0.5879,-0.9321,0.4944,52,142.0898,-84.7168,-4.2725,251,0.7984,0.4232,2.2713,-51.1382,32,0.8074,8529,4.015,-66.6402
rg,1625009869498377946,1,0.4875,-0.7603,0.3035,53,145.5688,-41.1987,-8.0566,251,0.8134,0.4412,-0.2232,-46.1202,32,0.8084,8429,4.015,-65.7011
rg,1625009869498398347,1,0.2488,-0.5093,0.1487,54,93.6279,47.2412,-1.5259,251,0.8174,0.4542,0.1127,-43.3275,32,0.8094,8461,4.015,-67.0989
rg,1625009869498418009,1,0.0593,-0.459,0.353,55,-16.9678,81.665,3.418,251,0.8004,0.4652,2.3133,-44.3976,32,0.8094,8756,4.015,-69.2684
rg,1625009869498441206,1,-0.189,-0.604,0.595,56,-143.9819,0.9155,-11.5967,251,0.7794,0.4662,2.4001,-50.1828,32,0.8074,8279,4.015,-69.6297
rg,1625009869498489323,1,-0.2432,-0.7817,0.634,57,-170.8374,-61.2183,-19.2871,251,0.7744,0.4502,0.4877,-57.342,32,0.8054,8376,4.015,-68.1327
rg,1625009869498514131,1,0.1655,-1.1685,0.5583,58,-173.8892,-179.6875,27.4658,251,0.7754,0.4082,-2.3087,-64.6609,32,0.8054,8349,4.015,-61.3128
rg,1625009869498531996,1,0.771,-1.4622,0.7888,59,-73.1812,-164.4287,46.3257,251,0.7734,0.3882,-4.1103,-67.8358,32,0.8124,8318,4.015,-54.5266
rg,1625009869498554064,1,0.8469,-1.3074,0.3896,60,30.1514,-91.4307,57.373,251,0.7764,0.3742,-4.436,-67.1226,32,0.8134,10847,4.015,-50.259
rg,1625009869498571689,1,0.6299,-0.8684,0.2231,61,57.373,67.8101,32.6538,251,0.7764,0.3612,-3.3149,-64.9604,32,0.8104,8398,4.015,-52.2235
rg,1625009869498590314,1,0.4414,-0.686,0.2439,62,50.4761,107.0557,4.1504,251,0.7774,0.3582,-2.6128,-63.2137,32,0.8104,8554,4.015,-57.4936
rg,1625009869498608420,1,-0.0081,-0.3621,0.0713,63,49.4385,162.9639,-45.6543,251,0.7784,0.3592,-1.0888,-61.6258,32,0.8124,8357,4.015,-64.0862
rg,1625009869498627933,1,-0.3257,-0.252,0.0278,64,32.1045,150.1465,-35.3394,251,0.7824,0.3662,2.3485,-60.9256,32,0.8134,8608,4.015,-70.003
rg,1625009869898149843,1,0.0603,-1.6099,0.7939,65,-47.1802,-141.4795,16.7847,251,0.7954,0.3932,0.1252,-62.7929,32,0.8224,26203,4.015,-64.6961
rg,1625009869898230247,1,0.3655,-1.3701,0.6047,66,48.9502,-138.6108,30.2734,251,0.8004,0.4022,-1.9372,-61.0419,32,0.8254,9693,4.015,-59.245
rg,1625009869898250667,1,0.4683,-0.8635,0.3547,67,131.8359,-61.9507,7.8125,251,0.8124,0.4252,-3.899,-56.1177,32,0.8264,17587,4.015,-57.0006
rg,1625009869898271235,1,0.2317,-0.6531,0.1667,68,128.7842,-28.8696,0.5493,251,0.8244,0.4362,-4.1897,-52.5258,32,0.8274,7752,4.015,-57.4786
rg,1625009869898291360,1,0.1416,-0.6111,0.2844,69,68.7866,49.3164,4.1504,251,0.8254,0.4462,-3.1432,-50.1591,32,0.8274,7840,4.015,-58.894
rg,1625009869898311836,1,-0.0308,-0.5437,0.4575,70,-53.5889,-2.6855,9.4604,251,0.7944,0.4552,-2.6923,-52.2927,32,0.8224,7713,4.015,-58.5783
rg,1625009869898330405,1,0.0093,-0.7126,0.614,71,-172.1191,-123.0469,-20.0806,251,0.7694,0.4532,-6.0113,-59.3023,32,0.8144,9127,4.015,-54.9594
rg,1625009869898349696,1,0.0828,-0.9243,0.6501,72,-187.8052,-150.7568,-6.5308,251,0.7674,0.4322,-8.8522,-67.2942,32,0.8074,7959,4.015,-49.6769
rg,1625009869898367783,1,0.7146,-1.5352,0.729,73,-140.5029,-192.8711,65.1245,251,0.7694,0.3982,-9.4648,-74.1116,32,0.8224,8659,4.015,-41.4379
rg,1625009869898389425,1,0.9199,-1.6362,0.2759,74,12.6953,-99.1211,72.1436,251,0.7684,0.3842,-8.5079,-74.5319,32,0.8244,8258,4.015,-36.7564
rg,1625009869898488658,1,1.0579,-1.5042,0.4177,75,40.5273,-55.603,83.8013,251,0.7704,0.3712,-6.0198,-71.9895,32,0.8224,8218,4.015,-37.7126
rg,1625009869898510059,1,0.7366,-0.9575,0.1948,76,77.1484,134.0332,48.2178,251,0.7704,0.3582,-3.5982,-68.7279,32,0.8204,8319,4.015,-42.1532
rg,1625009869898528036,1,0.1951,-0.3787,0.0654,77,108.6426,214.5386,-36.7432,251,0.7704,0.3552,-2.4638,-64.3384,32,0.8204,8391,4.015,-50.6205
rg,1625009869898546420,1,-0.207,-0.1025,-0.0891,78,116.9434,211.853,-62.0728,251,0.7724,0.3562,1.1248,-60.7122,32,0.8204,8140,4.015,-59.1497
rg,1625009869898564489,1,-0.3494,-0.0327,-0.1135,79,94.0552,179.2603,-55.0537,251,0.7744,0.3602,5.0069,-58.0522,32,0.8214,8228,4.015,-66.3988
rg,1625009869898583224,1,-0.5928,-0.063,-0.1567,80,-36.6211,89.4165,-23.1934,251,0.7784,0.3672,8.2016,-60.542,32,0.8224,7979,4.015,-70.0676
rg,1625009869898600553,1,-0.5181,-0.7578,0.9534,81,-238.3423,-36.6821,33.3252,251,0.7844,0.3732,9.3916,-68.958,32,0.8254,8215,4.015,-68.0845
rg,1625009869898617789,1,-0.0701,-1.8386,2.3982,82,-258.728,-95.3369,54.4434,251,0.7884,0.3852,10.1355,-78.2598,32,0.8274,8028,4.015,-63.702
rg,1625009869898635636,1,0.0881,-1.9019,0.2673,83,-19.7754,-202.8198,47.8516,251,0.7914,0.3942,9.84,-77.7066,32,0.8294,8312,4.015,-55.283
rg,1625009869898654353,1,0.5872,-1.4961,0.729,84,62.9883,-169.0063,33.5693,251,0.7944,0.4032,8.3822,-73.5599,32,0.8304,8119,4.015,-48.2761
rg,1625009869898671848,1,0.7363,-1.0381,0.6206,85,135.5591,-79.4678,28.3813,251,0.8094,0.4202,6.9503,-67.2022,32,0.8314,12326,4.015,-44.8884
rg,1625009869898714374,1,0.4819,-0.7822,-0.0005,86,138.855,0.9155,3.54,251,0.8354,0.4362,5.6991,-62.4087,32,0.8304,8623,4.015,-45.0158
rg,1625009869898735738,1,0.2644,-0.6204,0.1506,87,83.0688,102.7222,-12.3901,251,0.8534,0.4492,6.1606,-59.9912,32,0.8294,9261,4.015,-48.9535
rg,1625009869898754215,1,-0.0852,-0.5942,0.4019,88,17.6392,146.6675,-10.3149,251,0.8514,0.4602,8.7448,-59.8042,32,0.8274,8561,4.015,-54.2647
rg,1625009869898772340,1,-0.2629,-0.6414,0.4795,89,-28.8696,103.9429,-10.0098,251,0.8024,0.4722,11.0815,-61.3643,32,0.8214,8720,4.015,-58.1112
rg,1625009869898791871,1,-0.4365,-0.7065,0.4705,90,-143.7988,-52.9785,-24.1699,251,0.7654,0.4722,9.9273,-66.6404,32,0.8184,9714,4.015,-56.5916
rg,1625009869898809959,1,-0.1228,-1.0352,0.4272,91,-177.5513,-221.7407,11.7798,251,0.7644,0.4442,7.1676,-72.4885,32,0.8134,8512,4.015,-48.0429
rg,1625009869898893214,1,0.783,-1.5144,1.093,92,-121.7041,-254.5166,82.8857,251,0.7674,0.4042,6.4503,-75.3932,32,0.8294,8370,4.015,-37.1962
rg,1625009869898918466,1,0.9927,-1.5574,0.1108,93,58.8989,-155.1514,106.2012,251,0.7674,0.3852,7.4044,-72.5037,32,0.8304,8598,4.015,-30.1016
rg,1625009869898937072,1,1.1479,-1.3098,0.1978,94,91.7358,-99.8535,102.478,251,0.7684,0.3642,8.2445,-68.3978,32,0.8304,8402,4.015,-25.0318
rg,1625009869898955864,1,0.7495,-0.7627,0.0867,95,120.6055,93.3838,9.5215,251,0.7694,0.3522,8.2752,-64.4881,32,0.8264,9120,4.015,-28.469
rg,1625009869899062186,1,0.238,-0.3735,0.2297,96,93.1396,178.2227,-63.2935,251,0.7694,0.3502,7.8658,-61.6196,32,0.8224,8681,4.015,-36.0405
rg,1625009870300764514,1,-0.5703,-0.2922,0.082,97,-21.5454,69.0308,-43.8843,251,0.7744,0.3612,9.4196,-63.2055,32,0.8264,25827,4.015,-39.3885
rg,1625009870300831607,1,-0.5659,-0.4355,0.3958,98,-74.5239,-5.0049,-18.5547,251,0.7804,0.3692,9.2047,-65.4021,32,0.8314,8829,4.015,-39.4059
rg,1625009870300855435,1,-0.2512,-1.1926,1.231,99,-136.4746,-122.4976,32.2876,251,0.7834,0.3802,8.5188,-69.2266,32,0.8334,8305,4.015,-34.1958
rg,1625009870300876615,1,0.2612,-1.7461,0.7261,100,-56.2744,-202.1484,53.7109,251,0.7854,0.3922,7.1218,-70.2471,32,0.8334,8054,4.015,-25.7853
rg,1625009870300895202,1,0.6133,-1.5498,0.6511,101,4.7607,-205.3833,39.4897,251,0.7884,0.4062,4.3407,-67.05,32,0.8374,8245,4.015,-18.5259
rg,1625009870300915642,1,0.6169,-0.9749,0.3984,102,139.2822,-101.5625,-0.7324,251,0.8014,0.4252,1.275,-61.3261,32,0.8454,14029,4.015,-14.9482
rg,1625009870300933822,1,0.4102,-0.5801,0.106,103,136.2915,0.8545,4.2725,251,0.8194,0.4392,0.1051,-56.4622,32,0.8494,8008,4.015,-14.9635
rg,1625009870300951503,1,0.2576,-0.4648,0.2407,104,43.5181,83.7402,11.5356,251,0.8214,0.4532,1.3525,-54.9647,32,0.8514,7852,4.015,-17.4933
rg,1625009870300968758,1,0.1699,-0.5293,0.3767,105,-20.3857,87.4023,12.3901,251,0.7964,0.4612,3.3783,-55.9038,32,0.8484,7853,4.015,-20.0976
rg,1625009870300986457,1,0.0925,-0.8086,0.5818,106,-163.4521,16.1743,8.9111,251,0.7704,0.4672,3.6701,-62.3677,32,0.8374,8041,4.015,-20.449
rg,1625009870301004082,1,0.0549,-1.2007,0.5508,107,-204.4678,-58.8379,-6.1035,251,0.7654,0.4362,2.2802,-70.5238,32,0.8284,10228,4.015,-18.3789
rg,1625009870301026150,1,0.5271,-1.5022,1.0269,108,-109.436,-83.6182,49.6216,251,0.7654,0.3992,2.4505,-74.1567,32,0.8424,8179,4.015,-14.5491
rg,1625009870301043850,1,0.5105,-1.4326,0.4128,109,-17.0898,-54.6265,65.979,251,0.7664,0.3802,3.3053,-74.7399,32,0.8444,7994,4.015,-11.7397
rg,1625009870301063289,1,0.9199,-1.3398,0.3665,110,37.6587,-68.6035,80.5664,251,0.7664,0.3652,4.2806,-72.9886,32,0.8444,8164,4.015,-8.2341
rg,1625009870301116979,1,0.6438,-0.8662,0.0632,111,79.7119,76.0498,7.9956,148,0.7654,0.3582,4.0434,-70.4067,32,0.8434,8016,4.0392,-11.1
rg,1625009870301143787,1,0.1389,-0.3506,-0.0583,112,122.7417,161.9873,-49.2554,148,0.7664,0.3552,3.5868,-66.9801,32,0.8404,8741,4.0392,-17.9612
rg,1625009870301163985,1,-0.0276,-0.1746,-0.0784,113,125.9766,172.1191,-51.7578,148,0.7664,0.3572,4.7563,-64.1162,32,0.8414,8786,4.0392,-25.1915
rg,1625009870301183018,1,-0.2229,-0.0271,-0.1118,114,59.8755,146.4844,-28.6865,148,0.7694,0.3632,8.3216,-63.4076,32,0.8424,8640,4.0392,-31.0558
rg,1625009870301200846,1,-0.3501,-0.248,-0.0562,115,-113.6475,79.834,9.0332,148,0.7734,0.3692,11.5737,-69.2987,32,0.8444,8099,4.0392,-34.0852
rg,1625009870301219730,1,0.0793,-1.8147,2.3328,116,-216.2476,34.3018,29.6021,148,0.7784,0.3752,13.0702,-77.8805,32,0.8474,8272,4.0392,-33.2412
rg,1625009870301249741,1,-0.1018,-2.0352,0.9414,117,-132.6904,-33.02,59.9365,148,0.7804,0.3862,14.8005,-82.2141,32,0.8494,8113,4.0392,-31.348
rg,1625009870301271865,1,0.2778,-1.7371,0.4021,118,50.5371,-146.4844,36.3159,148,0.7834,0.3962,14.3518,-78.4044,32,0.8474,8314,4.0392,-25.1105
rg,1625009870301288805,1,0.4702,-1.0432,0.6492,119,132.8125,-82.2144,29.541,148,0.7864,0.4052,13.3617,-71.4905,32,0.8514,8724,4.0392,-21.4222
rg,1625009870301307745,1,0.3835,-0.7029,0.2129,120,159.668,-67.688,27.6489,148,0.8034,0.4162,11.7124,-64.9088,32,0.8554,8820,4.0392,-19.5302
rg,1625009870301347883,1,0.2629,-0.6328,0.0015,121,130.6152,-19.043,5.8594,148,0.8244,0.4342,10.3416,-60.4439,32,0.8554,8576,4.0392,-18.9665
rg,1625009870301371784,1,0.1318,-0.6616,0.2446,122,61.3403,47.1191,6.2256,148,0.8354,0.4462,10.6962,-58.6297,32,0.8544,8952,4.0392,-20.5731
rg,1625009870301388798,1,-0.0576,-0.7217,0.3936,123,0.6714,30.5786,13.0005,148,0.8174,0.4582,11.5034,-58.8535,32,0.8514,8830,4.0392,-21.3855
rg,1625009870301408978,1,-0.0576,-0.7354,0.5178,124,-110.5957,-72.6318,4.2725,148,0.7784,0.4672,9.9354,-62.5948,32,0.8414,8650,4.0392,-18.675
rg,1625009870301425974,1,0.1084,-1.0518,0.4641,125,-149.4141,-125.6714,-0.7935,148,0.7624,0.4562,7.1654,-68.438,32,0.8324,8877,4.0392,-12.3505
rg,1625009870301446339,1,0.3801,-1.2998,0.5005,126,-166.5649,-197.0825,45.5322,148,0.7634,0.4062,5.2347,-74.1598,32,0.8344,9041,4.0392,-4.2163
rg,1625009870301462946,1,1.01,-1.5791,0.7791,127,-38.208,-138.3667,87.0361,148,0.7624,0.3782,5.8113,-74.695,32,0.8414,8590,4.0392,2.1029
rg,1625009870301488365,1,1.0999,-1.3887,0.1741,128,95.2759,-26.001,106.8726,148,0.7634,0.3592,8.0042,-70.8672,32,0.8414,8660,4.0392,4.2808
rg,1625009870699067511,1,0.1541,-0.4128,0.1189,129,116.0278,235.7178,-56.3965,148,0.7644,0.3472,9.3052,-68.7554,32,0.8354,24771,4.0392,-5.575
rg,1625009870699119053,1,-0.1914,-0.2168,-0.0747,130,105.4688,222.7173,-52.5513,148,0.7654,0.3502,11.8724,-67.3727,32,0.8364,8859,4.0392,-14.9271
rg,1625009870699142269,1,-0.4316,-0.1179,-0.1003,131,48.7061,161.9263,-42.3584,148,0.7694,0.3552,14.7771,-67.6937,32,0.8384,8759,4.0392,-21.8823
rg,1625009870699162505,1,-0.5999,-0.2939,0.1694,132,-91.1255,70.1294,-7.5073,148,0.7734,0.3622,17.0768,-71.965,32,0.8404,7985,4.0392,-24.7452
rg,1625009870699181130,1,-0.5503,-0.7117,0.9192,133,-167.6025,15.3198,21.1792,148,0.7794,0.3722,18.5574,-78.2463,32,0.8454,8158,4.0392,-22.717
rg,1625009870699199181,1,-0.1873,-1.7695,1.228,134,-153.6255,-79.2236,73.0591,148,0.7844,0.3842,20.4299,-82.1357,32,0.8494,8267,4.0392,-18.5683
rg,1625009870699217713,1,0.2781,-1.8579,0.481,135,16.7847,-175.2319,58.5938,148,0.7884,0.4002,20.4914,-78.4524,32,0.8534,8222,4.0392,-10.7213
rg,1625009870699236431,1,0.4683,-1.1562,0.6021,136,113.3423,-103.4546,24.353,148,0.7924,0.4102,18.9355,-71.7911,32,0.8554,8552,4.0392,-6.0812
rg,1625009870699254463,1,0.4529,-0.8938,0.5366,137,136.2915,-67.0776,11.5967,148,0.7984,0.4202,16.8068,-65.1247,32,0.8594,8533,4.0392,-3.2547
rg,1625009870699272384,1,0.2136,-0.6296,0.2681,138,112.4268,6.5308,3.418,148,0.8204,0.4402,16.2817,-62.8063,32,0.8614,9198,4.0392,-4.8854
rg,1625009870699289676,1,0.0173,-0.7676,0.4536,139,1.9531,69.6411,-6.6528,148,0.8234,0.4482,16.6131,-63.3438,32,0.8634,8050,4.0392,-7.5596
rg,1625009870699306191,1,-0.22,-0.8357,0.4236,140,-47.5464,13.4277,-12.7563,148,0.7954,0.4622,16.2462,-65.4269,32,0.8614,9610,4.0392,-8.2849
rg,1625009870699322760,1,-0.0974,-0.8354,0.4978,141,-127.9907,-99.3042,-9.5825,148,0.7704,0.4602,13.9733,-69.313,32,0.8554,7948,4.0392,-4.5493
rg,1625009870699340552,1,-0.0369,-0.8752,0.4333,142,-150.3296,-140.3809,-10.9863,148,0.7644,0.4372,11.3523,-73.9037,32,0.8444,8218,4.0392,0.843
rg,1625009870699358733,1,0.3582,-1.1921,0.4819,143,-126.1597,-176.9409,28.4424,148,0.7664,0.3822,9.6999,-77.3676,32,0.8504,8750,4.0392,8.1667
rg,1625009870699376173,1,0.5886,-1.3774,0.2522,144,2.1973,-103.2104,52.063,148,0.7644,0.3622,9.5866,-76.5809,32,0.8514,8514,4.0392,12.6927
rg,1625009870699394557,1,0.9617,-1.3435,0.2715,145,55.9692,-70.3125,76.5381,148,0.7654,0.3482,10.235,-73.793,32,0.8504,8836,4.0392,16.1846
rg,1625009870699412626,1,0.8503,-1.1489,0.0652,146,86.9751,16.4795,52.2461,148,0.7654,0.3422,10.0322,-70.4025,32,0.8464,8618,4.0392,13.2782
rg,1625009870699430196,1,0.4038,-0.53,0.0503,147,117.0654,120.4834,-23.8647,148,0.7654,0.3402,9.2203,-66.9982,32,0.8464,8458,4.0392,8.2431
rg,1625009870699447765,1,-0.04,-0.1001,-0.0027,148,131.2866,178.894,-64.0869,148,0.7664,0.3402,10.3602,-63.9467,32,0.8444,9003,4.0392,0.4463
rg,1625009870699466872,1,-0.3105,0.0339,-0.0505,149,48.0957,188.4155,-29.7852,148,0.7694,0.3492,14.831,-63.8816,32,0.8454,8699,4.0392,-7.0508
rg,1625009870699517470,1,-0.4973,-0.2878,0.0398,150,-117.9199,99.4263,16.7236,148,0.7744,0.3612,18.5878,-69.9967,32,0.8494,10834,4.0392,-10.7794
rg,1625009870699545574,1,-0.114,-1.8503,2.1936,151,-232.8491,-37.1704,44.0674,148,0.7824,0.3702,19.3444,-77.4081,32,0.8564,8253,4.0392,-8.3346
rg,1625009870699565272,1,0.0173,-1.9766,0.3516,152,-11.4136,-144.4702,43.7012,148,0.7914,0.3852,18.9536,-75.854,32,0.8614,13447,4.0392,-2.0031
rg,1625009870699582916,1,0.3613,-1.3616,0.5962,153,90.271,-125.8545,28.5645,148,0.7934,0.3922,17.3749,-70.1781,33,0.8644,8293,4.0392,3.4736
rg,1625009870699615667,1,0.4146,-0.8323,0.4604,154,136.2915,-77.9419,21.5454,148,0.7984,0.4082,15.4688,-63.4625,33,0.8674,8508,4.0392,6.8237
rg,1625009870699635977,1,0.2214,-0.6262,0.1287,155,130.7983,-52.5513,10.0098,148,0.7984,0.4182,13.9445,-60.1855,33,0.8714,8342,4.0392,7.2641
rg,1625009870699653750,1,0.1543,-0.6262,0.2332,156,33.5083,4.8218,5.6152,148,0.7874,0.4342,13.2109,-59.2227,33,0.8724,8497,4.0392,7.1093
rg,1625009870699670820,1,0.0586,-0.7773,0.4673,157,-107.7881,-18.1885,9.6436,148,0.7754,0.4402,12.5395,-63.3084,32,0.8674,8624,4.0392,7.9812
rg,1625009870699688000,1,-0.1111,-1.0715,0.4333,158,-149.1699,-68.3594,-20.2026,148,0.7744,0.4022,10.4301,-68.9906,32,0.8524,10318,4.0392,10.1776
rg,1625009870699706810,1,0.2844,-1.3965,1.1462,159,-75.0732,-93.5669,40.3442,148,0.7714,0.3672,9.9285,-70.5215,32,0.8534,10425,4.0392,14.4509
rg,1625009870699724695,1,0.5593,-1.447,0.3516,160,33.8745,-151.1841,94.4214,148,0.7724,0.3572,10.194,-68.1367,32,0.8494,8757,4.0392,21.4748
rg,1625009871046475257,1,0.3062,-0.116,-0.0312,161,181.2744,21.7896,-31.6772,148,0.7724,0.3382,7.2324,-61.6308,32,0.8384,26336,4.0392,19.915
rg,1625009871046508231,1,0.1104,0.1816,-0.042,162,103.0884,81.7261,-38.208,148,0.7744,0.3392,6.6504,-57.4465,32,0.8384,8959,4.0392,16.3271
rg,1625009871046528504,1,-0.0869,-0.0789,-0.167,163,14.0381,107.1167,-25.5737,148,0.7774,0.3472,9.819,-63.8405,32,0.8404,8786,4.0392,11.3616
rg,1625009871046546981,1,-0.1338,-0.3127,-0.1226,164,-207.5806,134.8267,11.5356,148,0.7814,0.3522,12.6851,-74.6844,32,0.8444,8477,4.0392,6.0774
rg,1625009871046564977,1,0.0725,-2.3511,2.6558,165,-302.5513,158.5693,41.0767,148,0.7864,0.3612,14.8535,-86.9131,32,0.8494,8119,4.0392,0.2579
rg,1625009871046582658,1,-0.2236,-2,0.0874,166,5.4932,-14.1602,15.3198,148,0.7924,0.3722,15.0899,-86.5199,32,0.8524,8400,4.0392,0.8731
rg,1625009871046599654,1,-0.2117,-1.6912,0.5779,167,47.5464,-51.9409,-13.855,148,0.7954,0.3802,14.2678,-81.814,32,0.8534,8518,4.0392,3.348
rg,1625009871046617316,1,0.0208,-0.8442,0.7878,168,105.1636,-72.1436,9.3384,148,0.7974,0.3872,13.562,-75.5464,32,0.8564,8299,4.0392,6.6403
rg,1625009871046634460,1,0.1953,-0.7705,0.3662,169,102.7222,-110.4736,11.6577,148,0.8024,0.4002,11.7105,-70.0295,32,0.8574,8642,4.0392,11.1571
rg,1625009871046651437,1,0.3386,-0.9468,0.2385,170,53.2227,-104.7974,-3.1738,148,0.8194,0.4142,8.9268,-67.4135,32,0.8574,8403,4.0392,15.0099
rg,1625009871046668322,1,0.3049,-0.9495,0.1382,171,61.4014,-73.9746,-4.7607,148,0.8364,0.4312,6.5735,-65.1607,32,0.8574,8253,4.0392,17.56
rg,1625009871046684541,1,0.2292,-0.8108,0.2549,172,62.9272,2.0752,0.3052,148,0.8414,0.4412,5.7834,-62.9283,32,0.8544,8901,4.0392,17.4398
rg,1625009871046700981,1,-0.02,-0.6165,0.4382,173,-57.7393,-40.7715,0.6104,148,0.7744,0.4522,4.0349,-66.883,32,0.8454,17687,4.0392,20.8303
rg,1625009871046794014,1,0.1038,-0.8201,0.426,174,-148.5596,-126.77,7.1411,148,0.7644,0.4372,2.1491,-72.3677,32,0.8424,8021,4.0392,25.717
rg,1625009871046841188,1,0.4639,-1.3662,0.4824,175,-142.8223,-139.2822,49.3774,148,0.7664,0.3802,1.8677,-77.7819,32,0.8434,8092,4.0392,31.636
rg,1625009871046862072,1,0.7515,-1.4602,0.4993,176,2.3193,-51.2695,86.0596,148,0.7664,0.3602,3.7246,-77.3003,32,0.8494,8236,4.0392,34.3743
rg,1625009871046879753,1,0.989,-1.2717,0.3376,177,73.5474,-30.5786,99.1821,148,0.7674,0.3462,6.1055,-73.1487,32,0.8504,8140,4.0392,36.1389
rg,1625009871046897027,1,0.8596,-1.0193,0.1353,178,115.2954,54.0161,67.1997,148,0.7674,0.3352,7.7503,-68.9196,32,0.8494,8498,4.0392,34.8627
rg,1625009871046914245,1,0.3811,-0.4817,0.1865,179,116.6382,167.0532,-44.7388,148,0.7674,0.3292,7.1043,-65.155,32,0.8474,8521,4.0392,27.9089
rg,1625009871046931685,1,-0.1404,-0.2087,-0.0537,180,120.0562,231.1401,-92.9565,148,0.7694,0.3272,8.8233,-62.9685,32,0.8464,8730,4.0392,17.7737
rg,1625009871046949255,1,-0.4744,-0.0708,-0.0073,181,35.5225,192.688,-58.6548,148,0.7694,0.3322,12.3648,-63.2135,32,0.8474,8732,4.0392,9.6862
rg,1625009871046966380,1,-0.6221,-0.2783,0.1672,182,-84.7168,69.6411,-4.5776,148,0.7744,0.3402,15.0942,-67.1534,32,0.8484,8898,4.0392,6.9649
rg,1625009871046984376,1,-0.5823,-0.6184,0.6763,183,-156.25,-6.2256,16.1133,148,0.7784,0.3462,16.3415,-72.4241,32,0.8504,8556,4.0392,7.626
rg,1625009871047002242,1,-0.1169,-1.7854,1.4917,184,-179.5044,-123.9624,46.6309,148,0.7824,0.3592,16.3839,-77.1262,32,0.8534,8831,4.0392,13.3872
rg,1625009871047019331,1,0.2654,-1.8911,0.4553,185,-0.7324,-187.1338,39.7949,148,0.7854,0.3692,15.2167,-74.947,32,0.8534,8910,4.0392,21.3175
rg,1625009871047036567,1,0.4705,-1.1855,0.6318,186,93.811,-112.6709,23.0713,148,0.7884,0.3802,13.4579,-69.5298,32,0.8574,8995,4.0392,26.103
rg,1625009871047053082,1,0.4695,-0.7703,0.4683,187,126.77,-53.5278,8.9111,148,0.7934,0.3942,11.4602,-63.6219,32,0.8634,8796,4.0392,28.2695
rg,1625009871047070633,1,0.2461,-0.6521,0.1616,188,111.2061,-28.9917,-3.6011,148,0.8074,0.4062,9.6898,-60.5993,32,0.8664,8753,4.0392,28.044
rg,1625009871047087407,1,0.1755,-0.6868,0.2007,189,60.5469,22.3999,-13.4888,148,0.8204,0.4252,8.7773,-58.8499,32,0.8684,8664,4.0392,26.8842
rg,1625009871047118733,1,0.0562,-0.8242,0.4353,190,9.4604,47.5464,-5.249,148,0.8194,0.4402,9.091,-58.8654,32,0.8694,8596,4.0392,25.1044
rg,1625009871047219579,1,-0.0906,-0.8242,0.4197,191,-57.6782,-23.5596,-3.9062,148,0.7854,0.4512,8.3494,-61.2068,32,0.8624,8470,4.0392,25.8314
rg,1625009871047244592,1,-0.0261,-0.8438,0.4277,192,-130.127,-103.4546,-3.418,148,0.7644,0.4482,6.1381,-65.9978,32,0.8504,8737,4.0392,29.5084
rg,1625009871388191355,1,0.6067,-1.3284,0.5688,193,-6.3477,-111.6943,74.8291,148,0.7644,0.3582,5.9568,-65.7066,32,0.8484,24817,4.0392,34.8249
rg,1625009871388252951,1,0.9353,-1.2905,0.2419,194,67.8101,-95.2148,88.562,148,0.7654,0.3472,6.0127,-62.9105,32,0.8484,9018,4.0392,39.725
rg,1625009871388274187,1,0.6099,-0.7993,0.0735,195,92.9565,52.2461,2.5024,148,0.7654,0.3382,5.5496,-60.052,32,0.8474,8788,4.0392,37.8111
rg,1625009871388293386,1,0.1804,-0.2258,0.0181,196,104.7974,98.877,-29.541,148,0.7654,0.3352,4.9466,-56.4288,32,0.8454,8383,4.0392,32.0792
rg,1625009871388311511,1,0.0095,-0.0747,-0.0063,197,112.9761,152.5269,-57.6782,148,0.7684,0.3372,6.0778,-53.9297,32,0.8454,8293,4.0392,25.5965
rg,1625009871388329322,1,-0.2173,-0.0254,-0.0317,198,1.3428,161.8652,-29.6631,148,0.7714,0.3442,11.053,-55.2009,32,0.8464,8207,4.0392,19.5052
rg,1625009871388360185,1,-0.3296,-0.6221,0.6548,199,-183.1055,99.7925,16.4795,148,0.7774,0.3502,14.0177,-62.7404,32,0.8494,8273,4.0392,16.4124
rg,1625009871388378717,1,-0.1763,-1.4702,1.7795,200,-231.2012,47.7295,34.9121,148,0.7814,0.3592,15.6835,-72.0684,32,0.8514,8528,4.0392,15.2205
rg,1625009871388396065,1,-0.1277,-2.0562,0.3711,201,-49.9878,-79.6509,44.6777,148,0.7854,0.3772,15.9712,-73.3434,32,0.8544,8503,4.0392,18.8531
rg,1625009871388413338,1,0.2329,-1.4805,0.6235,202,90.5762,-106.5063,22.644,148,0.7924,0.3982,14.5119,-68.2919,32,0.8614,9357,4.0392,23.3578
rg,1625009871388433926,1,0.3574,-0.7283,0.2527,203,168.7012,-80.9937,26.4282,148,0.8104,0.4172,12.6539,-60.8534,32,0.8634,11668,4.0392,26.7077
rg,1625009871388452014,1,0.2302,-0.5784,0.0564,204,103.8208,-27.771,1.0986,148,0.8164,0.4342,10.8912,-57.3641,32,0.8674,7988,4.0392,27.4755
rg,1625009871388469529,1,0.1331,-0.6523,0.4109,205,-28.1372,21.1182,12.8174,148,0.7964,0.4482,10.9663,-58.5767,32,0.8664,8111,4.0392,27.026
rg,1625009871388486932,1,0.0833,-0.7441,0.5386,206,-100.2197,0.3052,13.916,148,0.7694,0.4542,11.0234,-62.6803,32,0.8574,8054,4.0392,27.2761
rg,1625009871388503780,1,-0.0562,-0.9622,0.3091,207,-150.7568,-82.8247,-11.4746,148,0.7614,0.4362,8.9472,-68.5631,32,0.8434,8194,4.0392,30.0928
rg,1625009871388521664,1,0.2222,-1.2263,0.5391,208,-106.7505,-107.7881,34.3018,148,0.7644,0.3902,8.085,-72.0388,32,0.8494,8426,4.0392,34.6964
rg,1625009871388538309,1,0.5632,-1.3147,0.3875,209,23.6206,-77.2705,93.3838,148,0.7654,0.3682,9.4833,-70.5031,32,0.8554,8640,4.0392,38.8361
rg,1625009871388554693,1,0.9543,-1.314,0.2202,210,59.3872,-107.7881,103.9429,148,0.7664,0.3592,9.6923,-67.0678,32,0.8564,8493,4.0392,43.0542
rg,1625009871388571504,1,0.8586,-1.1311,0.1335,211,93.689,-3.9673,30.2734,148,0.7654,0.3482,9.086,-63.7319,32,0.8554,8488,4.0392,43.5688
rg,1625009871388588500,1,0.3835,-0.5259,0.1936,212,92.1021,142.0288,-44.6167,148,0.7664,0.3442,8.5498,-61.1614,32,0.8544,8718,4.0392,37.5703
rg,1625009871388605533,1,-0.0999,-0.2092,-0.0278,213,96.5576,236.0229,-76.9043,148,0.7674,0.3452,11.1688,-60.24,32,0.8554,8613,4.0392,27.5331
rg,1625009871388622751,1,-0.4287,-0.1362,-0.0508,214,21.1182,218.4448,-50.1709,148,0.7704,0.3502,15.613,-62.03,32,0.8574,8544,4.0392,18.5472
rg,1625009871388639710,1,-0.6567,-0.4797,0.374,215,-44.8608,171.7529,-31.4941,148,0.7754,0.3582,17.9965,-67.6307,32,0.8594,8637,4.0392,14.9054
rg,1625009871388656669,1,-0.616,-0.876,0.9204,216,-172.3633,0,6.1646,148,0.7784,0.3702,18.6044,-73.5969,32,0.8624,8504,4.0392,15.2487
rg,1625009871388673554,1,0.001,-1.7954,0.5559,217,-56.4575,-176.7578,30.6396,148,0.7834,0.3812,17.0768,-73.5071,32,0.8634,12486,4.0392,22.7438
rg,1625009871388690883,1,0.2268,-1.6721,0.5527,218,8.7891,-183.2886,28.0151,148,0.7864,0.3892,14.6924,-69.1001,32,0.8664,8391,4.0392,29.4019
rg,1625009871388707324,1,0.4709,-1.176,0.7048,219,89.5386,-134.2163,15.8691,148,0.7914,0.3962,11.9027,-63.9148,32,0.8724,8568,4.0392,34.7581
rg,1625009871388724394,1,0.4619,-0.8494,0.3352,220,117.8589,-95.6421,1.3428,148,0.8094,0.4112,8.7156,-58.7576,32,0.8754,8677,4.0392,38.0961
rg,1625009871388755738,1,0.3875,-0.7034,0.0635,221,104.9194,-33.6914,-6.1035,148,0.8334,0.4292,6.4389,-55.3162,32,0.8764,10443,4.0392,38.9266
rg,1625009871388864693,1,0.2429,-0.6804,0.3032,222,49.8657,43.6401,-10.498,174,0.8444,0.4402,6.1636,-53.902,32,0.8764,9770,4.0348,37.1902
rg,1625009871388885818,1,0.0107,-0.7102,0.4556,223,-21.6064,42.1753,-1.5869,174,0.8204,0.4532,6.8117,-55.0487,32,0.8714,9207,4.0348,35.7573
rg,1625009871388904813,1,0.0688,-0.7793,0.541,224,-114.4409,-55.542,9.5825,174,0.7754,0.4582,5.5081,-59.384,32,0.8584,8782,4.0348,37.8613
rg,1625009871739830795,1,0.6433,-1.3926,0.5896,225,-117.0654,-141.2964,73.7305,174,0.7594,0.3702,4.1685,-63.4725,32,0.8564,25643,4.0348,44.2917
rg,1625009871739872026,1,0.7717,-1.3743,0.1653,226,65.1245,-58.4717,92.4072,174,0.7604,0.3512,5.1232,-61.2221,32,0.8594,9190,4.0348,48.0065
rg,1625009871739892206,1,1.0273,-1.1306,0.1504,227,91.4917,-13.6719,73.5474,174,0.7594,0.3422,5.7304,-57.9926,32,0.8604,8128,4.0348,49.8616
rg,1625009871739911257,1,0.4851,-0.5876,0.175,228,96.5576,136.1084,-34.2407,174,0.7604,0.3342,5.994,-55.154,32,0.8584,9047,4.0348,44.4455
rg,1625009871739929883,1,0.0056,-0.23,0.0159,229,119.3237,205.2612,-65.2466,174,0.7604,0.3332,8.4373,-52.6011,32,0.8564,8534,4.0348,36.0931
rg,1625009871739947563,1,-0.1416,-0.1145,-0.0376,230,91.4917,218.0786,-51.5747,174,0.7624,0.3362,13.7059,-51.7786,32,0.8574,8211,4.0348,27.6303
rg,1625009871739965504,1,-0.3469,-0.0771,-0.0835,231,-1.4038,190.8569,-14.0381,174,0.7664,0.3422,19.8739,-54.5275,32,0.8594,8959,4.0348,20.6786
rg,1625009871739983055,1,-0.4358,-1.2896,1.636,232,-226.9897,32.3486,24.4751,174,0.7724,0.3532,21.0955,-63.1104,32,0.8624,13517,4.0348,20.2886
rg,1625009871739999995,1,-0.3638,-1.9583,1.5583,233,-189.8193,-25.6348,40.4053,174,0.7764,0.3602,21.6821,-69.5454,32,0.8674,7957,4.0348,22.197
rg,1625009871740030507,1,0.0044,-1.9397,0.4082,234,9.5215,-149.4751,45.8984,174,0.7794,0.3722,20.3674,-67.1164,32,0.8674,8172,4.0348,28.7239
rg,1625009871740051279,1,0.2297,-1.1226,0.6804,235,97.9004,-113.1592,30.3345,174,0.7814,0.3822,18.364,-61.2511,32,0.8694,8013,4.0348,33.6611
rg,1625009871740069442,1,0.2695,-0.8809,0.644,236,127.5635,-102.9663,24.292,174,0.7854,0.3942,15.8102,-54.6417,32,0.8734,8087,4.0348,37.8726
rg,1625009871740086475,1,0.2947,-0.748,0.3167,237,117.3706,-93.0176,7.4463,174,0.8024,0.4072,12.4722,-49.6486,32,0.8774,8564,4.0348,40.9032
rg,1625009871740103359,1,0.2874,-0.7732,0.166,238,79.1626,-64.5752,-4.5776,174,0.8274,0.4272,9.4735,-47.1627,32,0.8784,8413,4.0348,42.5006
rg,1625009871740120411,1,0.1748,-0.76,0.2617,239,56.7627,-1.5869,-2.6855,174,0.8354,0.4422,8.5432,-45.8015,32,0.8784,10001,4.0348,42.3118
rg,1625009871740137629,1,-0.0127,-0.6992,0.373,240,-5.9204,10.1318,6.7749,174,0.8154,0.4522,8.727,-46.68,32,0.8764,8614,4.0348,42.1119
rg,1625009871740154514,1,-0.0146,-0.6689,0.436,241,-62.1948,-24.9634,11.4136,174,0.7724,0.4612,8.102,-49.4013,32,0.8634,8462,4.0348,43.1176
rg,1625009871740183544,1,0.0627,-0.8406,0.4609,242,-150.4517,-111.5112,1.3428,174,0.7594,0.4482,4.9857,-55.4483,32,0.8534,8470,4.0348,46.6667
rg,1625009871740201669,1,0.4656,-1.2678,0.5283,243,-142.8223,-161.8652,55.9082,174,0.7624,0.4012,2.6019,-61.1383,32,0.8544,8531,4.0348,53.3556
rg,1625009871740218684,1,0.9089,-1.4739,0.3926,244,25.6958,-96.6797,104.0039,174,0.7614,0.3742,3.1,-60.2966,32,0.8624,8507,4.0348,58.7272
rg,1625009871740235476,1,1.1047,-1.4973,0.114,245,86.0596,-85.5713,111.145,174,0.7624,0.3582,3.4961,-57.1675,32,0.8644,8708,4.0348,63.8754
rg,1625009871740252324,1,0.9817,-0.9187,0.0984,246,115.1733,68.6035,26.7334,174,0.7624,0.3452,4.1925,-53.3804,32,0.8624,8931,4.0348,62.1145
rg,1625009871740269579,1,0.3438,-0.3804,0.2456,247,94.2993,221.6797,-64.5752,174,0.7624,0.3432,6.0889,-50.5103,32,0.8604,9171,4.0348,53.4678
rg,1625009871740286242,1,-0.2075,-0.1885,0.0139,248,70.4346,325.5615,-76.1719,174,0.7634,0.3442,13.4851,-50.6755,32,0.8594,8582,4.0348,41.2577
rg,1625009871740303386,1,-0.6482,-0.207,-0.011,249,0.6104,284.4238,-33.6914,174,0.7654,0.3532,21.2751,-54.2327,32,0.8594,8424,4.0348,30.8024
rg,1625009871740356225,1,-0.9241,-0.6519,0.6135,250,-117.981,88.562,-2.5635,174,0.7694,0.3602,24.035,-59.9703,32,0.8614,8441,4.0348,27.5511
rg,1625009871740424338,1,-0.8782,-1.0771,1.1826,251,-157.5928,-26.7944,14.6484,174,0.7734,0.3682,24.296,-65.0371,32,0.8634,8349,4.0348,29.1556
rg,1625009871740443981,1,-0.343,-1.6982,0.8333,252,-101.9287,-216.0645,54.5654,174,0.7794,0.3822,22.1323,-65.2872,32,0.8664,9833,4.0348,38.701
rg,1625009871740463329,1,0.2754,-1.6296,0.5159,253,24.0479,-266.1743,51.0254,174,0.7824,0.3892,17.9987,-60.8209,32,0.8674,8721,4.0348,49.6095
rg,1625009871740481287,1,0.5632,-1.0991,0.553,254,106.8726,-209.6558,18.7378,174,0.7834,0.4022,12.6563,-54.6024,32,0.8734,9209,4.0348,57.2482
rg,1625009871740500079,1,0.5193,-0.7756,0.239,255,135.9253,-137.8174,-7.6294,174,0.7934,0.4172,7.4546,-49.0526,32,0.8784,8952,4.0348,61.2436
rg,1625009871740517630,1,0.3457,-0.5972,0.0579,256,90.332,-37.7808,-9.7656,174,0.8074,0.4362,4.8272,-46.4955,32,0.8824,9258,4.0348,61.9257
rg,1625009872082693937,1,0.1895,-0.8364,0.4451,257,-106.3232,-14.7095,4.1504,174,0.7644,0.4572,3.9426,-51.2772,32,0.8694,25478,4.0348,62.455
rg,1625009872082732669,1,0.1206,-1.051,0.3677,258,-149.4751,-59.1431,-1.0376,174,0.7594,0.4282,2.1571,-57.8776,32,0.8524,8896,4.0348,64.332
rg,1625009872082752979,1,0.448,-1.2141,0.6885,259,-91.4307,-71.106,50.6592,174,0.7624,0.3802,1.7051,-61.4927,33,0.8594,8184,4.0348,67.8274
rg,1625009872082772475,1,0.6807,-1.2107,0.2109,260,51.2695,-42.3584,94.2383,174,0.7624,0.3602,3.0091,-59.9345,33,0.8594,9157,4.0348,71.1053
rg,1625009872082790804,1,0.9106,-1.1655,0.3066,261,64.6362,-60.73,91.2476,174,0.7614,0.3502,3.0797,-57.5801,33,0.8594,8105,4.0348,72.262
rg,1625009872082808726,1,0.4341,-0.4912,0.1194,262,81.2988,69.519,0.5493,174,0.7614,0.3402,3.4146,-55.0832,32,0.8564,8763,4.0348,67.1153
rg,1625009872082826648,1,-0.0222,-0.1567,0.0186,263,78.9795,236.7554,-59.3262,174,0.7634,0.3462,7.1491,-53.8349,32,0.8554,10955,4.0348,57.9466
rg,1625009872082845310,1,-0.4045,-0.2212,0.1868,264,-38.6963,267.2729,-27.2827,174,0.7674,0.3522,13.9329,-57.0482,32,0.8564,8628,4.0348,48.355
rg,1625009872082862214,1,-0.6995,-1.0969,1.1687,265,-113.7695,218.0176,-3.0518,174,0.7714,0.3612,17.16,-63.9985,32,0.8574,8018,4.0348,44.5394
rg,1625009872082879210,1,-0.6455,-1.6057,1.2063,266,-152.9541,-2.1973,28.0762,174,0.7764,0.3702,18.1933,-69.4881,32,0.8604,7857,4.0348,45.2158
rg,1625009872082896113,1,-0.2336,-1.8044,0.5454,267,-9.1553,-176.3916,39.4287,174,0.7804,0.3832,16.6776,-67.7457,32,0.8614,8124,4.0348,52.6498
rg,1625009872082912869,1,0.2834,-1.2129,0.6726,268,95.8862,-199.9512,50.293,174,0.7824,0.3912,14.0214,-61.4323,32,0.8644,8384,4.0348,61.0401
rg,1625009872082950360,1,0.4275,-0.8347,0.3845,269,138.0005,-177.6123,24.8413,174,0.7874,0.4052,9.7167,-54.6957,32,0.8674,9144,4.0348,67.6068
rg,1625009872082969912,1,0.448,-0.7664,0.2395,270,134.3384,-164.0015,13.4888,174,0.8014,0.4172,4.7285,-49.2524,32,0.8704,8410,4.0348,72.9719
rg,1625009872082990092,1,0.3538,-0.644,0.0652,271,92.1021,-67.5049,4.2725,174,0.8094,0.4382,1.8399,-46.5887,32,0.8714,8705,4.0348,74.9709
rg,1625009872083008199,1,0.2109,-0.6404,0.2979,272,-14.5874,3.2959,22.644,174,0.7944,0.4502,1.877,-47.8336,32,0.8704,8327,4.0348,75.4719
rg,1625009872083025029,1,0.2539,-0.7544,0.4697,273,-129.6387,-63.2935,12.146,174,0.7674,0.4532,-0.0368,-53.345,32,0.8614,8592,4.0348,77.7559
rg,1625009872083041636,1,0.2219,-0.8464,0.4158,274,-150.4517,-89.7217,-2.9907,174,0.7614,0.4432,-2.6146,-59.9849,32,0.8484,8571,4.0348,80.7184
rg,1625009872083075703,1,0.3889,-1.1069,0.4272,275,-127.0142,-78.3691,34.6069,174,0.7644,0.4112,-3.4131,-65.5553,32,0.8534,8519,4.0348,84.1824
rg,1625009872083093014,1,0.739,-1.3169,0.4478,276,-22.644,-20.2637,94.1772,174,0.7634,0.3832,-1.2429,-66.7386,32,0.8604,9261,4.0348,86.4564
rg,1625009872083109565,1,0.9436,-1.2429,0.251,277,39.917,18.7988,83.4351,174,0.7644,0.3662,0.788,-65.51,32,0.8624,8621,4.0348,87.0987
rg,1625009872083126136,1,0.5679,-0.936,0.249,278,52.6123,92.5293,43.5791,174,0.7634,0.3552,2.338,-63.9626,32,0.8614,8570,4.0348,81.2993
rg,1625009872083142410,1,0.3237,-0.7112,0.2681,279,45.2271,218.9941,-31.7383,174,0.7634,0.3482,4.1183,-62.8214,32,0.8604,8262,4.0348,72.8736
rg,1625009872083160276,1,-0.2554,-0.4402,-0.0107,280,74.9512,304.8096,-65.2466,174,0.7644,0.3492,8.4094,-62.1001,32,0.8594,8459,4.0348,60.7709
rg,1625009872083176643,1,-0.6697,-0.2886,0.0618,281,44.9219,260.6812,-35.4614,174,0.7664,0.3522,13.8847,-62.502,32,0.8604,8347,4.0348,50.6765
rg,1625009872083192769,1,-0.8342,-0.323,0.2249,282,-1.2207,178.833,-23.1323,174,0.7704,0.3632,16.1464,-65.3028,32,0.8614,8556,4.0348,47.7327
rg,1625009872083208636,1,-0.71,-1.1948,0.9692,283,-127.6245,-142.5781,22.583,174,0.7754,0.3752,15.1134,-68.2885,32,0.8644,10636,4.0348,53.6858
rg,1625009872083225539,1,-0.3784,-1.5176,0.9478,284,-112.4878,-221.7407,46.3867,174,0.7814,0.3832,13.1995,-70.4691,32,0.8654,8860,4.0348,62.925
rg,1625009872083331145,1,0.2502,-1.6335,0.4836,285,5.7983,-291.3208,52.4292,174,0.7814,0.3932,10.2305,-67.9391,32,0.8674,9231,4.0348,74.7292
rg,1625009872083356251,1,0.5818,-1.2524,0.5081,286,104.4922,-235.9619,19.4702,174,0.7844,0.4062,5.7664,-62.5073,32,0.8734,9205,4.0348,83.6305
rg,1625009872083375950,1,0.6907,-0.8677,0.3062,287,142.5781,-151.123,0,174,0.8054,0.4202,1.2052,-56.7436,32,0.8774,8778,4.0348,88.7436
rg,1625009872083394316,1,0.4458,-0.6018,-0.0322,288,127.9907,-36.2549,-18.1885,174,0.8294,0.4352,-1.5962,-52.7064,33,0.8754,9021,4.0348,89.4353
rg,1625009872419047453,1,0.0298,-0.6333,0.4138,289,-43.8843,76.1719,14.5264,174,0.8004,0.4602,-0.6084,-56.8818,33,0.8684,25563,4.0348,89.2621
rg,1625009872419082649,1,0.0825,-0.8208,0.5737,290,-141.1133,-44.8608,4.5776,174,0.7624,0.4602,-1.5102,-62.4573,33,0.8534,8916,4.0348,90.9103
rg,1625009872419102459,1,0.1487,-1.0513,0.376,291,-145.9351,-106.9946,14.9536,174,0.7554,0.4462,-2.9547,-68.7405,32,0.8454,8052,4.0348,95.074
rg,1625009872419121695,1,0.9438,-1.29,0.8923,292,-23.0713,-65.8569,74.8901,174,0.7594,0.3942,-2.1671,-69.3533,32,0.8594,12836,4.0348,98.5801
rg,1625009872419139951,1,0.9292,-1.2014,0.3247,293,53.2837,17.7612,86.0596,174,0.7594,0.3732,-0.0037,-67.3997,32,0.8644,8033,4.0348,99.1573
rg,1625009872419158058,1,0.8252,-1.0962,0.2749,294,46.0815,73.9746,53.4058,174,0.7604,0.3612,1.7747,-65.8495,32,0.8644,7812,4.0348,97.2569
rg,1625009872419204029,1,0.3459,-0.7986,0.3157,295,47.9736,184.021,-33.3862,174,0.7604,0.3542,2.7226,-64.3029,32,0.8644,7800,4.0348,90.0005
rg,1625009872419224117,1,-0.1887,-0.4185,0.0212,296,88.3179,263.0615,-67.9321,174,0.7614,0.3532,5.8189,-62.3767,32,0.8644,7938,4.0348,79.3575
rg,1625009872419242983,1,-0.4136,-0.3003,0.002,297,85.8154,280.2124,-60.6689,174,0.7624,0.3612,11.0101,-60.807,32,0.8644,7801,4.0348,68.2753
rg,1625009872419261942,1,-0.7896,-0.2344,0.1816,298,8.667,185.9741,-20.9351,174,0.7664,0.3682,15.7373,-61.9721,32,0.8654,8300,4.0348,61.1646
rg,1625009872419280030,1,-0.8411,-0.7927,0.8098,299,-114.3188,-24.353,11.3525,174,0.7704,0.3812,16.5499,-65.6393,32,0.8674,8282,4.0348,62.4174
rg,1625009872419299581,1,-0.3376,-1.5479,0.9556,300,-143.3105,-130.249,32.2876,174,0.7754,0.3902,14.8577,-68.0206,32,0.8684,8253,4.0348,71.5268
rg,1625009872419317966,1,-0.0173,-1.7146,0.6201,301,-67.627,-265.0757,56.1523,174,0.7764,0.4042,12.4641,-68.199,32,0.8714,8327,4.0348,82.4658
rg,1625009872419336443,1,0.4358,-1.4543,0.4402,302,61.8896,-249.4507,32.8979,174,0.7804,0.4132,8.5921,-64.1139,32,0.8754,8558,4.0348,92.1876
rg,1625009872419353532,1,0.564,-0.9026,0.4219,303,131.6528,-164.7949,8.8501,174,0.7854,0.4222,4.3524,-58.2058,32,0.8814,8229,4.0348,98.0839
rg,1625009872419373324,1,0.5056,-0.6855,0.248,304,136.0474,-118.7134,5.249,174,0.7974,0.4312,1.5386,-53.6124,32,0.8884,8734,4.0348,100.3172
rg,1625009872419390894,1,0.2891,-0.519,0.2327,305,88.1958,-19.8364,7.2632,174,0.8034,0.4442,1.1366,-52.563,33,0.8914,10390,4.0348,100.0669
rg,1625009872419408316,1,0.2415,-0.605,0.3767,306,-20.752,26.001,13.0005,174,0.7864,0.4552,1.4015,-53.5986,33,0.8914,8544,4.0348,99.5459
rg,1625009872419425312,1,0.2766,-0.8818,0.4961,307,-136.2915,-32.1655,15.3809,174,0.7674,0.4582,0.5566,-59.2674,33,0.8774,8622,4.0348,100.9813
rg,1625009872419442086,1,0.2888,-1.1919,0.4675,308,-161.0107,-63.1714,-7.6904,174,0.7644,0.4302,-1.3825,-66.0531,33,0.8614,8642,4.0348,103.1108
rg,1625009872419489872,1,0.5007,-1.262,0.8386,309,-113.4644,-35.1562,10.1929,174,0.7644,0.3932,-0.424,-67.253,32,0.8704,8184,4.0348,104.1258
rg,1625009872419508072,1,0.5032,-1.2266,0.2661,310,27.0386,-1.0986,71.7163,174,0.7644,0.3672,0.8288,-66.0416,32,0.8694,9351,4.0348,106.7301
rg,1625009872419554080,1,0.7368,-1.1191,0.3137,311,38.0859,5.0659,54.7485,174,0.7624,0.3552,1.656,-64.7708,32,0.8654,8216,4.0348,107.4294
rg,1625009872419575797,1,0.4338,-0.8848,0.2705,312,57.312,103.2715,-6.5918,174,0.7614,0.3512,2.2014,-62.8941,32,0.8604,8233,4.0348,103.5725
rg,1625009872419814614,1,0.0269,-0.4114,0.0149,313,96.5576,169.7998,-48.0347,174,0.7624,0.3502,3.4881,-60.3324,33,0.8594,8675,4.0348,96.6393
rg,1625009872419834350,1,-0.2378,-0.1079,-0.001,314,67.5659,188.5986,-39.5508,174,0.7644,0.3492,7.927,-58.8358,33,0.8594,8770,4.0348,89.3095
rg,1625009872419852402,1,-0.3655,-0.115,0.0793,315,15.7471,175.4761,-26.9775,174,0.7684,0.3562,11.9919,-58.8583,33,0.8604,8708,4.0348,82.7199
rg,1625009872419870324,1,-0.5518,-0.7297,0.9033,316,-144.043,71.4722,-0.6714,174,0.7734,0.3672,13.8673,-64.4615,32,0.8634,8846,4.0348,80.2499
rg,1625009872419888356,1,-0.3979,-1.7163,0.9329,317,-131.6528,-82.9468,26.2451,174,0.7774,0.3792,13.4321,-68.7404,32,0.8654,8922,4.0348,83.8453
rg,1625009872419905593,1,0.0557,-1.6636,0.4583,318,16.7847,-198.4863,29.8462,174,0.7804,0.3912,10.9559,-66.6108,32,0.8674,8613,4.0348,91.7514
rg,1625009872419924459,1,0.3745,-1.0671,0.6201,319,103.1494,-187.7441,24.5972,174,0.7814,0.4032,7.5015,-61.0651,32,0.8694,9031,4.0348,99.0064
rg,1625009872419943048,1,0.5706,-0.8928,0.3469,320,132.8125,-175.1099,22.7051,174,0.7934,0.4182,3.4327,-55.329,32,0.8744,8972,4.0348,104.8789
rg,1625009872769996485,1,0.3118,-0.6567,0.0847,321,76.355,40.8936,-0.3662,174,0.8404,0.4492,3.2936,-53.2918,32,0.8774,25302,4.0348,103.4587
rg,1625009872770140416,1,-0.0044,-0.637,0.5051,322,-47.0581,68.5425,24.4141,174,0.7944,0.4662,5.556,-55.2181,32,0.8704,15574,4.0348,101.7994
rg,1625009872770163244,1,-0.0063,-0.8013,0.5352,323,-144.4702,-60.4248,5.127,174,0.7614,0.4652,4.2558,-60.8238,32,0.8584,7786,4.0348,103.9729
rg,1625009872770183887,1,0.0369,-0.9465,0.4592,324,-161.9873,-106.5674,5.9204,174,0.7524,0.4492,2.0498,-67.4298,32,0.8494,7896,4.0348,107.9185
rg,1625009872770203420,1,0.5117,-1.3142,0.447,325,-134.8877,-141.9067,61.8286,174,0.7564,0.3962,1.5992,-72.7454,32,0.8524,7674,4.0348,114.1192
rg,1625009872770224193,1,0.752,-1.3113,0.4641,326,19.043,-32.959,77.0874,174,0.7554,0.3662,2.9978,-71.8016,32,0.8614,9318,4.0348,116.2966
rg,1625009872770243559,1,0.8838,-1.1567,0.3003,327,62.9883,-10.6812,91.1255,174,0.7554,0.3542,5.0347,-69.7075,32,0.8634,7808,4.0348,116.3461
rg,1625009872770262666,1,0.7212,-1.042,0.2605,328,47.6685,102.9663,38.147,174,0.7564,0.3462,6.4881,-68.3342,32,0.8614,7962,4.0348,112.9832
rg,1625009872770280162,1,0.2046,-0.8296,0.3657,329,53.0396,195.3125,-44.4336,174,0.7574,0.3402,7.0309,-67.0625,32,0.8604,8032,4.0348,105.0351
rg,1625009872770298399,1,-0.0688,-0.6875,0.2014,330,77.9419,217.2241,-60.4248,174,0.7584,0.3402,9.3538,-65.2752,32,0.8604,8021,4.0348,95.6205
rg,1625009872770317802,1,-0.4509,-0.3914,0.0203,331,94.4214,210.022,-45.5933,174,0.7594,0.3452,12.7599,-63.6904,32,0.8624,7935,4.0348,87.0449
rg,1625009872770335798,1,-0.6294,-0.1812,0.1641,332,39.3066,101.7456,-14.3433,174,0.7624,0.3522,15.9457,-62.866,32,0.8624,8176,4.0348,83.0972
rg,1625009872770353831,1,-0.6008,-0.5286,0.595,333,-94.4824,-50.415,11.9019,174,0.7664,0.3602,16.3539,-65.3604,32,0.8664,8216,4.0271,85.3792
rg,1625009872770371364,1,-0.46,-0.9197,0.8689,334,-135.5591,-121.2769,29.541,174,0.7704,0.3712,15.7436,-68.6265,32,0.8694,8178,4.0271,90.7038
rg,1625009872770410836,1,0.094,-1.7832,0.9041,335,-101.8066,-195.9839,57.8003,174,0.7724,0.3792,14.4693,-70.2517,32,0.8724,8142,4.0271,99.2061
rg,1625009872770432702,1,0.4202,-1.6501,0.4556,336,40.4663,-190.4907,35.2783,174,0.7754,0.3922,11.9598,-67.0064,32,0.8754,8459,4.0271,106.9415
rg,1625009872770450420,1,0.4963,-1.3416,0.5229,337,92.5903,-154.7852,24.9634,174,0.7794,0.4022,8.8573,-62.0561,33,0.8804,8279,4.0271,113.0244
rg,1625009872770469120,1,0.5671,-0.8516,0.4258,338,144.4092,-78.2471,12.7563,174,0.7964,0.4142,6.2501,-55.9487,33,0.8844,8617,4.0271,115.9062
rg,1625009872770487005,1,0.3555,-0.5957,0.0435,339,127.9907,-9.3384,-0.2441,174,0.8174,0.4242,4.6896,-51.786,33,0.8854,7996,4.0271,116.0449
rg,1625009872770504482,1,0.2053,-0.5647,0.1938,340,99.4873,36.6821,0.9766,174,0.8354,0.4362,5.8777,-50.1521,33,0.8854,8179,4.0271,113.5377
rg,1625009872770522515,1,0.0986,-0.6416,0.3872,341,28.0151,105.7739,5.0049,174,0.8424,0.4462,8.2116,-49.7522,32,0.8864,8016,4.0271,110.3602
rg,1625009872770540381,1,-0.1851,-0.7615,0.4626,342,-30.4565,66.4062,10.6201,174,0.8294,0.4562,10.352,-51.6001,32,0.8854,8102,4.0271,108.4951
rg,1625009872770558081,1,-0.061,-0.8669,0.6238,343,-107.2388,-78.064,14.5874,174,0.7774,0.4652,8.6976,-55.4919,32,0.8754,9063,4.0271,111.3864
rg,1625009872770575670,1,0.0635,-0.905,0.5359,344,-144.2871,-142.6392,13.3667,174,0.7534,0.4582,5.4593,-61.1322,32,0.8644,8398,4.0271,116.5106
rg,1625009872770592759,1,0.4148,-1.1128,0.3765,345,-158.0811,-206.7871,39.7949,174,0.7554,0.4042,2.3739,-67.2541,32,0.8604,9097,4.0271,124.6583
rg,1625009872770609736,1,1.0159,-1.3296,0.9932,346,-45.4712,-105.835,72.3267,174,0.7554,0.3692,2.2029,-68.3745,32,0.8704,8650,4.0271,129.6968
rg,1625009872770626510,1,1.0188,-1.2893,0.3369,347,44.0674,-4.0283,95.8862,174,0.7564,0.3512,4.2324,-66.7339,32,0.8724,8668,4.0271,131.2678
rg,1625009872770644043,1,0.679,-1.0786,0.2097,348,36.377,136.2305,12.5122,174,0.7554,0.3432,5.518,-66.0922,32,0.8704,8903,4.0271,126.4103
rg,1625009872770661039,1,0.4128,-0.8691,0.2585,349,42.9688,187.1948,-35.3394,174,0.7564,0.3402,6.5969,-65.5254,32,0.8694,8856,4.0271,118.9246
rg,1625009872770678887,1,-0.1541,-0.4663,0.0044,350,104.7363,255.5542,-77.6367,174,0.7574,0.3432,8.6254,-63.6394,32,0.8684,8909,4.0271,108.2054
rg,1625009872770696828,1,-0.5273,-0.2307,0.042,351,75.5005,256.6528,-41.8701,174,0.7594,0.3502,13.6313,-62.8302,32,0.8674,8961,4.0271,98.103
rg,1625009872770714713,1,-0.7952,-0.3745,0.3447,352,-39.3066,111.8164,-4.7607,174,0.7634,0.3572,16.9782,-65.169,32,0.8674,8753,4.0271,93.8987
rg,1625009873134541279,1,0.1443,-1.6245,0.4814,353,-8.9111,-256.4697,52.7954,174,0.7744,0.3892,13.3046,-63.0712,32,0.8744,26770,4.0271,104.2873
rg,1625009873134580085,1,0.5796,-0.9773,0.5078,354,106.0181,-184.8145,17.395,174,0.7774,0.3992,8.7863,-57.4976,32,0.8794,12103,4.0271,111.1007
rg,1625009873134600303,1,0.6277,-0.824,0.3347,355,117.4927,-146.9727,4.2114,174,0.7864,0.4052,4.8007,-52.6693,32,0.8844,7729,4.0271,114.4975
rg,1625009873134622354,1,0.541,-0.7583,0.1475,356,106.2012,-50.9033,-4.0894,174,0.8054,0.4152,1.9649,-49.1646,32,0.8864,7806,4.0271,115.8629
rg,1625009873134662790,1,0.2944,-0.676,0.0916,357,72.2046,49.8657,-4.4556,174,0.8234,0.4282,2.1919,-47.4738,32,0.8874,7818,4.0271,114.1951
rg,1625009873134682379,1,0.0759,-0.6665,0.3433,358,32.1045,108.5815,5.3101,174,0.8304,0.4382,4.9668,-46.9686,32,0.8874,9065,4.0271,111.1147
rg,1625009873134699597,1,-0.0247,-0.6714,0.3948,359,7.4463,89.2944,10.1929,174,0.8134,0.4492,7.5561,-47.4147,32,0.8854,7887,4.0271,108.7092
rg,1625009873134716705,1,0.0051,-0.7249,0.5344,360,-92.4683,-23.8647,8.4229,174,0.7714,0.4582,6.8811,-51.2183,32,0.8744,8181,4.0271,109.6391
rg,1625009873134734071,1,0.1243,-0.938,0.4814,361,-175.7202,-106.8726,2.0752,174,0.7554,0.4502,3.9757,-58.3337,32,0.8604,8049,4.0271,113.1703
rg,1625009873134751123,1,0.282,-1.1167,0.4331,362,-173.4009,-122.6807,22.2168,174,0.7564,0.4072,1.798,-65.3992,32,0.8524,8555,4.0271,117.9264
rg,1625009873134767713,1,0.8755,-1.4785,1.115,363,-77.5146,-58.7158,63.4155,174,0.7574,0.3752,2.168,-67.9235,32,0.8614,8225,4.0271,121.1179
rg,1625009873134784246,1,0.8835,-1.4575,0.4829,364,34.4238,10.6812,93.5059,174,0.7584,0.3552,4.5661,-66.6045,32,0.8604,8981,4.0271,122.1373
rg,1625009873134801039,1,0.6416,-1.2622,0.3496,365,52.8564,118.103,15.9912,174,0.7554,0.3492,5.9023,-65.1368,33,0.8584,8768,4.0271,118.0249
rg,1625009873134818220,1,0.3594,-1.105,0.4729,366,72.6929,167.1753,-38.147,174,0.7574,0.3482,7.0412,-63.2521,33,0.8564,8478,4.0271,111.2686
rg,1625009873134834865,1,-0.2329,-0.6411,0.0232,367,146.8506,222.9614,-81.7871,174,0.7574,0.3482,8.9345,-59.6083,33,0.8534,8191,4.0271,101.7159
rg,1625009873134862433,1,-0.4878,-0.1868,-0.0303,368,155.0903,143.8599,-67.0776,174,0.7584,0.3482,11.7511,-55.0764,33,0.8544,8622,4.0271,95.3357
rg,1625009873134880281,1,-0.7009,0.0549,0.0322,369,75.6226,33.8745,-44.2505,174,0.7614,0.3532,13.3511,-52.3233,32,0.8544,8330,4.0271,93.2467
rg,1625009873134896926,1,-0.6909,0.0369,0.0737,370,-8.606,-33.7524,-6.2866,174,0.7654,0.3592,14.5124,-52.1637,32,0.8574,8166,4.0271,94.2636
rg,1625009873134913589,1,-0.4258,-0.5151,0.4851,371,-168.8843,-168.0908,59.2041,174,0.7684,0.3662,13.2228,-57.0192,32,0.8614,8145,4.0271,101.3327
rg,1625009873134930771,1,0.2947,-1.6101,1.3606,372,-199.1577,-257.6294,88.8062,174,0.7734,0.3752,10.3266,-62.4408,32,0.8684,10002,4.0271,112.3076
rg,1625009873134947415,1,0.6001,-1.9297,0.3879,373,-3.7231,-260.9253,39.978,174,0.7764,0.3842,5.8663,-61.7618,32,0.8734,8271,4.0271,122.2408
rg,1625009873134963986,1,0.6897,-1.6191,0.4507,374,61.0352,-209.1064,18.3716,174,0.7794,0.3882,1.1457,-58.9246,32,0.8794,8341,4.0271,129.8357
rg,1625009873134980631,1,0.6694,-0.876,0.5906,375,130.7373,-67.0776,15.1978,174,0.7844,0.3972,-1.0777,-53.5914,32,0.8834,8324,4.0271,132.3437
rg,1625009873134997831,1,0.6438,-0.6897,0.3398,376,104.4312,13.5498,30.7007,174,0.8004,0.4062,-1.2045,-49.7287,32,0.8854,8410,4.0271,132.6303
rg,1625009873135014309,1,0.3977,-0.7209,0.1809,377,30.4565,89.4775,2.6245,174,0.8194,0.4132,0.1507,-49.3629,32,0.8844,8722,4.0271,129.9819
rg,1625009873135030842,1,0.2874,-0.7466,0.2927,378,3.0518,125.3052,-3.3569,174,0.8284,0.4232,3.4235,-50.3462,32,0.8844,8682,4.0271,125.4127
rg,1625009873135058448,1,-0.0486,-0.8149,0.4058,379,-23.0103,145.5688,-3.6011,174,0.8094,0.4272,6.9162,-52.1925,32,0.8824,9094,4.0271,120.7265
rg,1625009873135075907,1,-0.1929,-0.7947,0.5359,380,-91.5527,57.9224,2.3804,174,0.7704,0.4342,8.5121,-56.2313,32,0.8724,8932,4.0271,118.8609
rg,1625009873135187902,1,-0.1248,-0.8342,0.4722,381,-160.0952,-72.1436,6.1035,174,0.7584,0.4282,7.2185,-62.4134,32,0.8614,8709,4.0271,121.4702
rg,1625009873135208305,1,0.3884,-1.1416,0.3613,382,-115.6006,-157.2876,57.6172,174,0.7594,0.3972,5.6532,-66.6406,32,0.8554,9296,4.0271,128.1581
rg,1625009873135228560,1,0.7991,-1.4175,0.48,383,-18.1885,-85.6934,61.8286,174,0.7584,0.3742,5.3287,-67.1167,32,0.8624,9093,4.0271,132.2824
rg,1625009873135246630,1,0.8579,-1.4182,0.3853,384,17.9443,-51.8799,64.0869,174,0.7594,0.3572,6.5113,-66.0725,32,0.8644,8994,4.0271,132.8616
rg,1625009873487760171,1,-0.0518,-0.7874,0.1672,385,102.8442,213.562,-60.2417,174,0.7594,0.3512,7.83,-63.5366,32,0.8624,24138,4.0271,123.9994
rg,1625009873487809790,1,-0.5762,-0.1367,0.0352,386,142.2119,151.2451,-46.875,174,0.7614,0.3542,11.1789,-58.9945,32,0.8624,13913,4.0271,117.7947
rg,1625009873487840117,1,-0.6631,-0.0142,0.062,387,104.126,106.2012,-24.1089,174,0.7644,0.3582,14.8253,-55.6008,32,0.8644,7921,4.0271,113.6974
rg,1625009873487869629,1,-0.6992,-0.1667,0.2253,388,-55.9692,-27.2217,21.4233,174,0.7674,0.3652,16.7699,-57.1548,32,0.8674,7925,4.0271,115.1872
rg,1625009873487896753,1,-0.3845,-1.082,1.1824,389,-185.8521,-187.5,55.1147,174,0.7714,0.3722,14.7934,-61.8398,32,0.8704,7747,4.0271,123.223
rg,1625009873487923803,1,0.0054,-1.676,1.4172,390,-181.2134,-245.4224,68.9697,174,0.7754,0.3782,12.438,-66.1409,32,0.8744,8043,4.0271,133.6554
rg,1625009873487951186,1,0.3997,-1.9211,0.3442,391,-0.1221,-289.978,41.5039,174,0.7764,0.3892,8.2462,-64.6165,32,0.8794,8352,4.0271,144.9168
rg,1625009873487978625,1,0.6887,-1.2598,0.519,392,108.7646,-202.5757,15.4419,174,0.7794,0.3932,3.7321,-59.5855,32,0.8824,8085,4.0271,152.321
rg,1625009873488005915,1,0.7134,-0.9485,0.5601,393,141.2354,-143.0054,10.9863,174,0.7844,0.4002,0.4435,-53.4309,32,0.8854,8616,4.0271,155.7515
rg,1625009873488032132,1,0.6013,-0.6174,0.1743,394,135.9253,-45.7153,6.958,174,0.8044,0.4092,-1.9153,-48.96,32,0.8904,9831,4.0271,157.2843
rg,1625009873488058053,1,0.2988,-0.498,0.0193,395,69.397,61.2793,-1.8921,174,0.8164,0.4192,-1.4624,-47.3492,32,0.8914,8152,4.0271,155.4256
rg,1625009873488083677,1,0.1931,-0.625,0.4224,396,-5.7983,108.5205,11.4136,174,0.8184,0.4272,1.2755,-47.8937,32,0.8934,8806,4.0271,152.5293
rg,1625009873488109616,1,0.0471,-0.7458,0.407,397,-89.9048,38.5132,15.0146,174,0.7884,0.4362,2.5433,-52.0246,33,0.8874,8255,4.0271,151.727
rg,1625009873488135962,1,0.1187,-0.8516,0.5671,398,-129.4556,-18.9209,4.2725,174,0.7634,0.4412,1.89,-57.3968,33,0.8754,8415,4.0271,152.4494
rg,1625009873488161198,1,0.1379,-1.0146,0.4414,399,-153.7476,-67.5659,3.9062,174,0.7604,0.4282,0.3587,-63.8265,33,0.8634,8956,4.0271,154.888
rg,1625009873488188303,1,0.6421,-1.2917,0.8054,400,-91.7969,-72.5708,57.9224,174,0.7614,0.3992,0.3787,-67.2447,33,0.8734,8339,4.0271,158.5096
rg,1625009873488213501,1,0.8457,-1.4353,0.4802,401,11.1084,-5.5542,83.8013,174,0.7604,0.3782,2.2527,-66.9017,32,0.8744,8811,4.0271,160.0029
rg,1625009873488239255,1,0.8491,-1.384,0.4575,402,15.2588,28.0151,79.4067,174,0.7604,0.3652,4.8685,-66.4091,32,0.8734,8137,4.0271,156.9248
rg,1625009873488265398,1,0.522,-1.3179,0.4182,403,30.8228,170.5933,22.3389,174,0.7614,0.3602,7.4276,-66.0236,32,0.8704,8325,4.0271,150.9781
rg,1625009873488291763,1,-0.0371,-1.032,0.3479,404,82.0923,232.4829,-50.2319,174,0.7594,0.3602,9.258,-64.3196,32,0.8684,8586,4.0271,141.5834
rg,1625009873488343289,1,-0.5447,-0.634,-0.0554,405,153.7476,194.9463,-70.4346,174,0.7624,0.3602,11.5583,-60.5728,33,0.8674,8980,4.0271,133.151
rg,1625009873488373597,1,-0.6321,-0.3381,-0.0496,406,169.5557,119.2627,-65.918,174,0.7644,0.3622,12.4165,-54.6008,33,0.8684,8262,4.0271,130.6855
rg,1625009873488405035,1,-0.7014,0.1016,0.0671,407,120.8496,-24.4141,-44.8608,174,0.7664,0.3642,12.6159,-49.4581,33,0.8684,8434,4.0271,130.5379
rg,1625009873488434455,1,-0.5618,0.0312,0.0549,408,-45.2881,-126.5259,31.4941,174,0.7694,0.3712,12.5158,-49.9657,32,0.8704,8281,4.0271,135.3841
rg,1625009873488461690,1,-0.2383,-0.6548,0.4978,409,-206.2378,-234.6191,83.7402,174,0.7724,0.3762,9.7626,-56.4292,32,0.8744,8618,4.0271,145.0182
rg,1625009873488489258,1,0.3145,-1.3962,1.6121,410,-256.1035,-279.6631,96.3135,174,0.7764,0.3812,6.7716,-64.925,32,0.8814,8342,4.0271,156.7667
rg,1625009873488613139,1,0.5996,-2.1079,0.3721,411,-68.1152,-258.9722,48.4619,174,0.7784,0.3902,3.5185,-67.2616,32,0.8844,8534,4.0271,166.9844
rg,1625009873488651687,1,0.7505,-1.4934,0.469,412,80.6274,-176.7578,5.7983,174,0.7804,0.3952,-0.262,-64.0231,32,0.8854,8432,4.0271,-186.5267
rg,1625009873488680477,1,0.7292,-0.7693,0.4917,413,136.2915,-33.5693,27.6489,174,0.7844,0.3992,-1.3419,-58.3881,32,0.8934,8528,4.0271,-184.895
rg,1625009873488822003,1,0.657,-0.6418,0.3259,414,126.5869,10.1929,29.8462,174,0.7974,0.4132,-1.6155,-53.4717,32,0.8964,8404,4.0271,-184.6331
rg,1625009873488853237,1,0.3896,-0.6045,0.092,415,51.4526,77.3926,2.4414,174,0.8144,0.4222,-0.8536,-52.2528,32,0.8964,8565,4.0271,-187.0378
rg,1625009873488936201,1,0.2136,-0.7498,0.3547,416,-0.5493,128.2349,0.1831,174,0.8274,0.4292,1.7185,-52.7672,32,0.8954,8480,4.0271,168.8989
rg,1625009873853382209,1,-0.0215,-0.8003,0.5308,417,-48.1567,17.4561,17.6392,174,0.7634,0.4472,1.2919,-56.3882,32,0.8794,25805,4.0271,170.7694
rg,1625009873853424330,1,0.2239,-1.0061,0.3118,418,-126.2817,-114.1968,37.2925,174,0.7594,0.4172,-0.2678,-62.0021,32,0.8654,11960,4.0271,-184.5387
rg,1625009873853444899,1,0.4895,-1.1921,0.4126,419,-109.0698,-114.9902,62.6221,174,0.7604,0.3772,-1.0208,-66.0858,32,0.8734,7795,4.0271,-179.2826
rg,1625009873853464136,1,0.7136,-1.3447,0.3647,420,11.0474,-14.1602,79.1016,174,0.7594,0.3622,0.6376,-65.946,32,0.8734,7687,4.0271,-177.4866
rg,1625009873853482336,1,0.844,-1.3179,0.2625,421,30.8838,44.0063,83.252,174,0.7594,0.3532,3.156,-65.1351,32,0.8724,7824,4.0271,-177.7389
rg,1625009873853500369,1,0.676,-1.2712,0.2029,422,40.2832,124.5117,47.7905,174,0.7604,0.3492,5.8233,-64.3555,32,0.8704,7798,4.0271,-181.4899
rg,1625009873853518458,1,0.1572,-0.9382,0.3508,423,63.5376,228.3936,-34.6069,174,0.7584,0.3482,8.0138,-63.0861,32,0.8694,8308,4.0271,169.6256
rg,1625009873853535862,1,-0.384,-0.6133,0.0579,424,135.437,226.1963,-62.9883,174,0.7614,0.3512,11.0222,-59.9235,32,0.8684,7781,4.0271,160.2981
rg,1625009873853553488,1,-0.5132,-0.405,-0.0061,425,144.7144,191.5894,-54.3823,174,0.7624,0.3512,14.6887,-56.6191,32,0.8684,7955,4.0271,152.3628
rg,1625009873853571299,1,-0.6733,-0.0742,0.0408,426,98.0835,80.2612,-36.0718,174,0.7654,0.3572,17.427,-53.695,32,0.8684,7814,4.0271,148.8208
rg,1625009873853589276,1,-0.7148,-0.2031,0.2651,427,-46.875,-45.7153,3.7842,174,0.7684,0.3652,18.1715,-54.7748,32,0.8704,7973,4.0271,150.5505
rg,1625009873853621029,1,-0.6223,-0.5173,0.5642,428,-117.3096,-113.5254,27.71,174,0.7714,0.3682,17.409,-57.6466,32,0.8734,7862,4.0271,155.2698
rg,1625009873853639618,1,-0.0964,-1.4673,1.1814,429,-159.668,-232.0557,66.04,174,0.7754,0.3782,14.4326,-61.0842,32,0.8744,8070,4.0271,165.0469
rg,1625009873853657614,1,0.3489,-1.7549,0.4495,430,-96.8628,-263.3667,62.6221,174,0.7774,0.3842,9.7125,-60.0457,32,0.8814,7973,4.0271,-184.5238
rg,1625009873853675684,1,0.5234,-1.5381,0.4846,431,43.0298,-254.6387,28.6865,174,0.7784,0.3882,4.4191,-57.6314,32,0.8864,8094,4.0271,-175.2643
rg,1625009873853693421,1,0.6543,-0.9512,0.5442,432,111.9995,-148.9868,13.1836,174,0.7814,0.3962,0.1811,-53.0248,32,0.8864,7959,4.0271,-170.1243
rg,1625009873853710529,1,0.6497,-0.696,0.2754,433,116.8213,-102.7832,18.9819,174,0.7914,0.4062,-1.9451,-49.5292,32,0.8934,8109,4.0271,-168.2406
rg,1625009873853727729,1,0.499,-0.6343,0.1482,434,65.6738,11.9629,4.0894,174,0.8054,0.4122,-2.8318,-47.7163,32,0.8964,8009,4.0271,-168.4893
rg,1625009873853745466,1,0.2837,-0.6719,0.3079,435,-0.9766,94.2993,-3.6621,174,0.8104,0.4262,-1.1435,-48.2876,32,0.8974,8201,4.0271,-171.3641
rg,1625009873853762666,1,0.0293,-0.8162,0.4246,436,-40.6494,108.7036,-1.1597,174,0.8054,0.4312,1.6053,-50.4704,32,0.8974,7998,4.0271,-174.6879
rg,1625009873853779847,1,-0.0591,-0.8457,0.4333,437,-65.5518,68.7866,1.2817,174,0.7754,0.4352,3.4029,-53.6558,32,0.8904,8072,4.0271,-176.8472
rg,1625009873853796881,1,-0.0356,-0.8909,0.5334,438,-141.1743,-24.1089,0.1831,174,0.7614,0.4302,2.8247,-59.4459,32,0.8704,8933,4.0271,-176.0463
rg,1625009873853814785,1,0.1753,-1.1011,0.5203,439,-129.9438,-65.4907,27.8931,174,0.7634,0.3972,2.1598,-64.7005,32,0.8664,9603,4.0271,-173.2005
rg,1625009873853832170,1,0.5115,-1.3442,0.4915,440,-2.8076,-48.7061,83.0078,174,0.7624,0.3752,3.4912,-64.8379,32,0.8714,11458,4.0271,-170.035
rg,1625009873853849296,1,0.9207,-1.4744,0.2852,441,31.0059,-62.439,97.7783,174,0.7624,0.3642,4.637,-63.786,32,0.8724,9408,4.0271,-166.1329
rg,1625009873853866792,1,0.6636,-1.2048,0.2087,442,79.5288,104.6753,19.8364,174,0.7624,0.3592,6.0124,-61.4813,32,0.8704,8197,4.0271,-169.581
rg,1625009873853884325,1,0.093,-0.5454,0.1548,443,138.3057,210.144,-61.9507,174,0.7624,0.3542,7.5219,-57.4662,32,0.8684,8370,4.0271,-178.1953
rg,1625009873853901600,1,-0.1707,-0.3645,0.0059,444,156.189,232.9102,-71.8384,174,0.7624,0.3552,11.0953,-53.8442,32,0.8674,8208,4.0271,-187.7232
rg,1625009873853919170,1,-0.5298,-0.084,-0.0232,445,116.333,190.3076,-48.9502,174,0.7644,0.3572,16.2904,-51.243,32,0.8684,8368,4.0271,164.8435
rg,1625009873853936185,1,-0.7053,-0.0276,0.0498,446,9.5825,49.9268,-4.8218,174,0.7674,0.3652,19.5006,-51.3173,32,0.8684,9111,4.0271,163.1015
rg,1625009873853954051,1,-0.5264,-0.5295,0.7244,447,-161.3159,-95.6421,42.7856,174,0.7714,0.3722,19.0748,-55.7698,32,0.8714,8479,4.0271,167.6045
rg,1625009873853972529,1,-0.2852,-1.1096,1.4214,448,-205.9937,-147.644,54.7485,133,0.7764,0.3762,17.5291,-61.2071,32,0.8744,8369,4.0425,-185.6432
rg,1625009874213549074,1,0.4761,-1.1667,0.6304,449,57.9224,-159.8511,7.8735,133,0.7834,0.3912,13.1824,-57.3487,32,0.8834,25995,4.0425,-179.829
rg,1625009874213603286,1,0.4414,-0.7771,0.3442,450,80.1392,-92.2852,3.8452,133,0.7874,0.4002,10.2882,-54.6976,32,0.8874,8816,4.0425,-177.4849
rg,1625009874213633780,1,0.426,-0.9224,0.2349,451,26.4282,-23.4375,-6.2866,133,0.8014,0.4122,8.2835,-54.2869,32,0.8874,10225,4.0425,-176.9995
rg,1625009874213663200,1,0.325,-0.918,0.1899,452,27.8931,2.8076,-12.5122,133,0.8124,0.4202,6.9249,-54.0961,32,0.8874,7697,4.0425,-177.5167
rg,1625009874213691435,1,0.1541,-0.8462,0.2825,453,31.189,44.6167,1.0986,133,0.8154,0.4282,7.3619,-53.6948,32,0.8884,8163,4.0425,-179.0317
rg,1625009874213718374,1,0.0972,-0.6948,0.302,454,18.4937,37.5977,10.1318,133,0.7984,0.4352,7.5525,-54.6464,32,0.8884,7733,4.0425,-179.146
rg,1625009874213773363,1,0.093,-0.6528,0.3372,455,-52.3071,-13.0005,13.916,133,0.7644,0.4392,7.1441,-56.9427,32,0.8744,8060,4.0425,-178.4278
rg,1625009874213802617,1,0.083,-0.8018,0.4177,456,-127.3804,-35.0342,22.4609,133,0.7604,0.4252,7.0558,-62.1197,32,0.8594,10685,4.0425,-176.1317
rg,1625009874213828797,1,0.3623,-1.1943,0.4268,457,-96.4966,-42.9077,63.3545,133,0.7634,0.3952,7.6985,-65.927,32,0.8664,8023,4.0425,-173.4738
rg,1625009874213854347,1,0.6462,-1.3596,0.3557,458,20.3247,-7.1411,93.4448,133,0.7604,0.3772,9.7637,-65.1686,33,0.8694,7902,4.0425,-171.7124
rg,1625009874213881157,1,0.8218,-1.3999,0.4307,459,40.5884,-26.6724,100.3418,133,0.7614,0.3662,11.6862,-63.2946,33,0.8714,8116,4.0425,-171.2507
rg,1625009874213906948,1,0.6682,-1.2048,0.2686,460,69.6411,94.6655,43.1519,133,0.7624,0.3592,13.4967,-61.5817,33,0.8714,7929,4.0425,-174.0079
rg,1625009874213932517,1,0.1709,-0.8279,0.4048,461,81.9092,196.3501,-40.8936,133,0.7614,0.3542,14.9221,-60.344,33,0.8704,8115,4.0425,-181.9367
rg,1625009874213957994,1,-0.4087,-0.5149,0.0959,462,134.5825,243.4692,-72.998,133,0.7624,0.3552,18.238,-58.5209,33,0.8704,12675,4.0425,167.6556
rg,1625009874213984303,1,-0.7666,-0.1978,0.0535,463,116.9434,172.8516,-46.1426,133,0.7634,0.3582,22.2641,-56.5225,33,0.8704,8166,4.0425,160.3774
rg,1625009874214017815,1,-0.8481,-0.1069,0.2517,464,67.749,90.4541,-27.71,133,0.7664,0.3642,23.5488,-56.4468,33,0.8714,8016,4.0425,160.4449
rg,1625009874214045717,1,-0.7573,-0.3274,0.45,465,-91.4917,-101.3794,3.2349,133,0.7694,0.3702,21.7797,-58.1596,33,0.8734,9105,4.0425,164.4153
rg,1625009874214071453,1,-0.302,-1.1995,1.1089,466,-181.2134,-264.7095,33.8135,133,0.7724,0.3732,17.2552,-61.4568,33,0.8764,8052,4.0425,-185.0035
rg,1625009874214097670,1,0.3022,-1.8811,0.5732,467,-74.4629,-313.9648,38.9404,133,0.7754,0.3862,11.7281,-61.8352,33,0.8804,10102,4.0425,-173.0035
rg,1625009874214140365,1,0.636,-1.4568,0.3386,468,75.3784,-276.4893,16.5405,133,0.7784,0.3942,5.5146,-57.8636,33,0.8844,8125,4.0425,-163.1801
rg,1625009874214167119,1,0.7332,-1.0828,0.4043,469,115.2344,-216.4917,12.146,133,0.7794,0.3982,0.6573,-52.3175,33,0.8874,8328,4.0425,-158.0138
rg,1625009874214192133,1,0.7612,-0.6738,0.2815,470,131.2866,-94.7266,9.9487,133,0.7894,0.4082,-3.1124,-47.5407,33,0.8904,8145,4.0425,-154.9353
rg,1625009874214230662,1,0.5674,-0.6221,-0.0222,471,74.7681,25.8179,4.2725,133,0.8054,0.4172,-3.7441,-45.6893,33,0.8884,8179,4.0425,-155.5349
rg,1625009874214258805,1,0.3633,-0.6914,0.1548,472,13.5498,122.1313,1.77,133,0.8174,0.4262,-1.2312,-46.0514,33,0.8924,8345,4.0425,-158.9318
rg,1625009874214283781,1,0.2417,-0.7773,0.3521,473,-6.4697,162.6587,6.2256,133,0.8194,0.4292,2.8196,-47.0949,33,0.8944,8218,4.0425,-163.4729
rg,1625009874214390612,1,-0.0723,-0.8916,0.4177,474,-45.4712,136.7798,14.7095,133,0.7884,0.4392,6.9178,-49.9089,33,0.8854,9596,4.0425,-167.2353
rg,1625009874214422680,1,-0.1296,-0.9009,0.533,475,-103.4546,20.6909,4.8218,133,0.7594,0.4432,7.5794,-54.4675,33,0.8704,10168,4.0425,-167.8209
rg,1625009874214517142,1,-0.043,-0.948,0.3965,476,-114.8071,-51.8188,24.1089,133,0.7574,0.4222,7.0598,-59.2525,32,0.8584,8419,4.0425,-165.599
rg,1625009874214547618,1,0.5671,-1.1697,0.9475,477,-46.2036,-92.7734,72.1436,133,0.7584,0.3952,6.6407,-60.2162,32,0.8674,8310,4.0425,-160.8652
rg,1625009874214576409,1,0.6304,-1.2378,0.5698,478,10.6812,-76.2329,80.6885,133,0.7584,0.3772,6.4921,-58.9884,32,0.8704,8614,4.0425,-156.0381
rg,1625009874214604995,1,0.8972,-1.3235,0.335,479,29.7241,-37.7808,71.4111,133,0.7594,0.3662,6.6971,-58.0241,32,0.8724,8349,4.0425,-153.3223
rg,1625009874214632805,1,0.5095,-1.2075,0.417,480,38.3301,155.4565,7.5684,133,0.7594,0.3632,9.1588,-57.6715,32,0.8734,8598,4.0425,-158.542
rg,1625009874564241285,1,-0.6633,-0.3831,0.0938,481,114.1968,142.2729,-57.4951,133,0.7614,0.3652,12.1463,-54.6072,33,0.8704,25878,4.0425,-164.6533
rg,1625009874564281980,1,-0.6748,-0.2871,0.4658,482,-35.7056,-64.7583,0.7324,133,0.7674,0.3762,12.1332,-54.9907,33,0.8724,17488,4.0425,-162.3449
rg,1625009874564302365,1,-0.3352,-0.9766,0.8738,483,-128.3569,-193.7866,35.7056,133,0.7714,0.3832,9.2009,-58.4719,33,0.8764,10955,4.0425,-154.9057
rg,1625009874564321454,1,0.2749,-1.6506,0.7498,484,-79.7119,-263.9771,45.4102,133,0.7724,0.3892,4.7709,-60.6985,33,0.8784,7657,4.0425,-144.863
rg,1625009874564340987,1,0.5505,-1.4307,0.4336,485,43.1519,-245.7886,14.8926,133,0.7744,0.3962,-0.5583,-59.0961,32,0.8824,7861,4.0425,-136.1214
rg,1625009874564359891,1,0.6438,-1.126,0.4844,486,80.5054,-205.4443,8.9111,133,0.7754,0.4002,-5.6337,-56.5203,32,0.8864,7732,4.0425,-128.9978
rg,1625009874564378221,1,0.6936,-0.7607,0.3796,487,111.5723,-106.2622,8.5449,133,0.7814,0.4052,-9.0509,-52.7328,32,0.8904,7746,4.0425,-125.3281
rg,1625009874564395680,1,0.6643,-0.6807,0.2439,488,99.1211,-58.96,10.2539,133,0.7954,0.4132,-10.216,-50.4598,32,0.8944,8276,4.0425,-124.9148
rg,1625009874564476534,1,0.4302,-0.635,0.1497,489,48.7061,42.2363,-0.1221,133,0.8084,0.4272,-10.0631,-49.125,33,0.8974,8420,4.0425,-126.0944
rg,1625009874564502918,1,0.251,-0.7344,0.3967,490,-1.3428,100.708,8.728,133,0.8094,0.4332,-7.453,-49.2084,33,0.8974,7993,4.0425,-128.8724
rg,1625009874564522488,1,0.0515,-0.8506,0.467,491,-50.4761,73.2422,17.4561,133,0.7844,0.4422,-4.8889,-51.4898,33,0.8904,9182,4.0425,-130.641
rg,1625009874564541522,1,0.0713,-0.9858,0.625,492,-118.8965,-15.7471,10.8643,133,0.7644,0.4482,-4.8492,-56.5292,32,0.8754,9918,4.0425,-129.8563
rg,1625009874564560851,1,0.1018,-1.0298,0.5017,493,-123.0469,-44.8608,12.146,133,0.7594,0.4302,-5.3516,-61.8828,32,0.8594,7923,4.0425,-128.035
rg,1625009874564578996,1,0.3442,-1.0789,0.4897,494,-68.0542,-49.6216,52.6733,133,0.7584,0.3922,-4.7766,-64.9708,32,0.8624,8270,4.0425,-125.2887
rg,1625009874564597270,1,0.6611,-1.1648,0.4937,495,14.3433,-30.3955,79.834,133,0.7584,0.3772,-3.2857,-64.6313,32,0.8644,7994,4.0425,-122.831
rg,1625009874564616488,1,0.8496,-1.2458,0.5232,496,13.9771,-45.3491,79.9561,133,0.7594,0.3682,-2.2636,-64.5112,33,0.8654,8183,4.0425,-119.8109
rg,1625009874564633689,1,0.6296,-1.271,0.3606,497,20.2026,100.5249,29.8462,133,0.7554,0.3652,-0.3561,-63.9649,33,0.8634,8024,4.0425,-122.9154
rg,1625009874564651463,1,0.1348,-0.9434,0.3748,498,32.5928,220.8252,-27.4658,133,0.7594,0.3622,2.2866,-62.9688,33,0.8614,8194,4.0425,-131.3036
rg,1625009874564669033,1,-0.1663,-0.7805,0.2957,499,63.0493,236.5723,-56.7017,133,0.7594,0.3642,5.8331,-61.3778,33,0.8594,8064,4.0425,-140.7245
rg,1625009874564687733,1,-0.6543,-0.4553,0.1667,500,93.2007,178.4668,-77.6367,133,0.7604,0.3642,8.3515,-58.8044,32,0.8584,8237,4.0425,-148.4832
rg,1625009874564708081,1,-0.8967,-0.2061,0.1335,501,60.4248,38.8794,-45.105,133,0.7624,0.3682,9.7299,-56.7191,32,0.8604,8107,4.0425,-150.7393
rg,1625009874564726355,1,-0.8564,-0.1987,0.2195,502,5.3101,-51.6968,-11.7798,133,0.7664,0.3732,8.8755,-58.0405,32,0.8624,8267,4.0425,-145.3735
rg,1625009874564745093,1,-0.4888,-0.6912,0.6179,503,-114.563,-229.3701,42.2974,133,0.7694,0.3782,6.4664,-61.0845,32,0.8644,8132,4.0425,-136.5044
rg,1625009874564764126,1,0.3909,-1.6331,1.0579,504,-116.8213,-346.9849,65.4907,133,0.7724,0.3832,1.8251,-64.6167,32,0.8654,8327,4.0425,-122.9585
rg,1625009874564807451,1,0.7244,-1.6272,0.25,505,37.8418,-333.5571,30.5176,133,0.7764,0.3902,-3.7995,-63.9033,32,0.8734,8204,4.0425,-110.4886
rg,1625009874564829131,1,0.8347,-1.3401,0.3174,506,88.6841,-276.7944,21.1792,133,0.7784,0.3952,-9.0885,-61.932,32,0.8794,8398,4.0425,-100.203
rg,1625009874564846961,1,0.9194,-0.7358,0.3564,507,136.3525,-94.8486,20.752,133,0.7824,0.4022,-11.709,-57.1912,32,0.8854,8273,4.0425,-96.5086
rg,1625009874564865069,1,0.7007,-0.5964,0.1094,508,102.1729,42.9688,12.5122,133,0.7964,0.4082,-11.7312,-53.4384,32,0.8844,8429,4.0425,-97.5992
rg,1625009874564883917,1,0.5842,-0.5771,0.1226,509,60.4248,94.3604,2.6855,133,0.8124,0.4202,-9.3904,-52.11,32,0.8844,8457,4.0425,-102.4516
rg,1625009874564902487,1,0.2253,-0.6633,0.3345,510,0.4883,191.7725,-8.5449,133,0.8204,0.4252,-5.2607,-51.6986,32,0.8854,8458,4.0425,-108.6873
rg,1625009874564921206,1,-0.1445,-0.8345,0.5369,511,-19.104,197.998,7.8125,133,0.8134,0.4342,0.3498,-52.4087,32,0.8834,8655,4.0425,-114.7296
rg,1625009874564939276,1,-0.3333,-0.8533,0.5,512,-57.9834,53.833,9.5215,133,0.7784,0.4412,2.6328,-55.0187,32,0.8774,9469,4.0425,-116.2599
rg,1625009874925904328,1,0.6577,-1.3511,0.7092,513,-123.5962,-152.71,45.3491,133,0.7584,0.3892,0.4802,-57.7505,33,0.8594,25401,4.0425,-110.1008
rg,1625009874925941746,1,0.9648,-1.3406,0.4478,514,28.4424,-4.2725,86.6699,133,0.7594,0.3632,2.009,-57.0076,33,0.8614,16789,4.0425,-108.1118
rg,1625009874925962076,1,0.8362,-1.271,0.3608,515,31.7993,94.9707,62.5,133,0.7594,0.3592,4.8872,-56.4038,33,0.8604,7748,4.0425,-109.9592
rg,1625009874925980887,1,0.3376,-1.1548,0.4963,516,26.001,223.7549,-14.0991,133,0.7604,0.3582,8.5433,-56.6719,33,0.8594,7906,4.0425,-117.8207
rg,1625009874925999328,1,-0.342,-0.9927,0.2688,517,46.0815,252.4414,-50.7812,133,0.7594,0.3582,12.0037,-55.6134,32,0.8594,7726,4.0425,-127.9324
rg,1625009874926017065,1,-0.585,-0.8167,0.0662,518,132.5684,210.6323,-81.2378,133,0.7594,0.3602,15.1765,-53.3672,32,0.8584,8092,4.0425,-137.0836
rg,1625009874926035598,1,-0.6973,-0.1807,0.0129,519,168.2739,45.6543,-69.8242,133,0.7624,0.3592,16.1634,-47.8281,32,0.8604,9005,4.0425,-140.36
rg,1625009874926053817,1,-0.6775,0.1992,0.1001,520,89.4165,-62.1338,-26.8555,133,0.7654,0.3642,15.8003,-43.2522,32,0.8614,8023,4.0425,-139.0034
rg,1625009874926071776,1,-0.4214,-0.0559,0.0415,521,2.1362,-107.9102,19.2871,133,0.7694,0.3712,15.0656,-45.5852,32,0.8654,7965,4.0425,-132.9749
rg,1625009874926089236,1,-0.2546,-0.437,0.2729,522,-195.4346,-205.0781,77.0874,133,0.7714,0.3742,12.4551,-51.8265,32,0.8684,8045,4.0425,-124.7013
rg,1625009874926106584,1,0.7585,-2.2585,2.0593,523,-250.2441,-252.5635,75.5615,133,0.7754,0.3802,8.3257,-59.782,32,0.8744,7918,4.0425,-114.4342
rg,1625009874926124007,1,0.6567,-1.9951,0.1584,524,-88.9893,-228.8208,41.1377,133,0.7784,0.3892,2.5055,-58.8408,32,0.8804,8152,4.0425,-105.5694
rg,1625009874926161370,1,0.7412,-1.5505,0.4084,525,83.4351,-200.8667,-7.9346,133,0.7794,0.3932,-3.0823,-56.1091,33,0.8854,7959,4.0425,-99.0229
rg,1625009874926180514,1,0.7319,-0.6902,0.4934,526,137.3901,-45.2881,17.8223,133,0.7814,0.3982,-4.9677,-50.6896,33,0.8894,8175,4.0425,-97.2132
rg,1625009874926197659,1,0.6775,-0.5698,0.3389,527,134.0942,3.1128,26.7944,133,0.7904,0.4052,-4.6792,-47.3062,33,0.8934,7925,4.0425,-98.0157
rg,1625009874926227320,1,0.4177,-0.5295,0.0859,528,48.0957,75.5615,9.4604,133,0.7984,0.4192,-3.6133,-46.2282,33,0.8974,8155,4.0425,-99.9035
rg,1625009874926246464,1,0.072,-0.8306,0.4055,529,-40.8936,130.249,11.5356,133,0.7864,0.4312,0.1946,-48.4348,32,0.8984,15414,4.0425,-103.3852
rg,1625009874926264220,1,-0.0452,-0.8875,0.5122,530,-104.3701,60.3027,24.1699,133,0.7654,0.4352,2.5483,-53.0726,32,0.8874,8247,4.0425,-104.6516
rg,1625009874926281883,1,-0.0203,-0.9363,0.6018,531,-131.0425,5.9204,19.2261,133,0.7614,0.4232,2.4134,-58.483,32,0.8714,8057,4.0425,-103.2588
rg,1625009874926299157,1,0.1633,-1.0706,0.5864,532,-96.0083,-48.4009,36.7432,133,0.7614,0.3852,2.3453,-62.312,32,0.8784,8219,4.0425,-100.8421
rg,1625009874926316246,1,0.6165,-1.2195,0.4343,533,11.2915,-85.5103,94.5435,133,0.7604,0.3712,3.0369,-61.9129,32,0.8814,8138,4.0425,-96.0712
rg,1625009874926333632,1,0.9067,-1.2371,0.2378,534,23.9258,-41.1987,74.3408,133,0.7604,0.3602,3.455,-61.3319,32,0.8824,8680,4.0425,-93.2495
rg,1625009874926350740,1,0.7632,-1.2317,0.2488,535,35.0952,61.4624,45.9595,133,0.7614,0.3562,4.9535,-60.5911,32,0.8814,8687,4.0425,-94.5648
rg,1625009874926368421,1,0.3091,-0.8689,0.3267,536,28.5034,221.0693,-1.77,133,0.7604,0.3542,8.292,-60.6777,32,0.8794,8365,4.0425,-102.3854
rg,1625009874926385807,1,-0.2935,-0.6248,0.1013,537,69.2139,251.3428,-50.9033,133,0.7614,0.3542,12.0919,-60.3866,32,0.8794,8285,4.0425,-112.3746
rg,1625009874926403137,1,-0.7334,-0.4604,0.1379,538,80.0781,214.7827,-56.0913,133,0.7634,0.3602,14.9967,-59.0859,32,0.8794,8412,4.0425,-118.694
rg,1625009874926469624,1,-0.8398,-0.426,0.2886,539,44.3115,61.0352,-30.2124,133,0.7654,0.3642,16.7895,-58.0057,32,0.8814,8293,4.0425,-121.4754
rg,1625009874926525668,1,-0.6199,-0.679,0.6335,540,-44.3726,-128.6621,27.771,133,0.7684,0.3712,15.692,-57.9419,32,0.8844,8479,4.0425,-116.1986
rg,1625009874926547997,1,-0.0129,-1.2197,0.7979,541,-70.1904,-252.8076,65.979,133,0.7714,0.3752,12.033,-58.231,32,0.8844,8317,4.0425,-105.9265
rg,1625009874926566845,1,0.2888,-1.415,0.6882,542,-44.6167,-272.2778,64.5752,133,0.7734,0.3832,7.0083,-57.0937,32,0.8854,8578,4.0425,-96.3092
rg,1625009874926587304,1,0.5432,-1.3342,0.4375,543,41.748,-225.5859,21.7285,133,0.7754,0.3882,1.6888,-55.3468,32,0.8894,8394,4.0425,-88.3971
rg,1625009874926607893,1,0.5728,-0.8975,0.4583,544,90.4541,-119.3237,1.2207,133,0.7744,0.3932,-2.2556,-51.9986,33,0.8914,8634,4.0425,-84.5659
rg,1625009875289861300,1,0.2024,-0.8035,0.3132,545,39.3677,70.8008,5.7983,133,0.8014,0.4192,-0.214,-51.3843,33,0.9014,25480,4.0425,-87.454
rg,1625009875289902737,1,-0.0286,-0.7686,0.4062,546,15.5029,49.8047,5.127,133,0.8074,0.4322,1.2662,-51.1907,33,0.9024,16928,4.0425,-88.8819
rg,1625009875289923141,1,0.073,-0.6597,0.4949,547,-42.1143,-24.5972,6.897,133,0.7874,0.4392,0.6326,-52.9202,33,0.8954,7923,4.0425,-87.9337
rg,1625009875289942989,1,0.166,-0.7148,0.6023,548,-97.3511,-48.9502,7.3853,133,0.7664,0.4442,-0.6676,-56.6751,33,0.8804,7834,4.0425,-86.148
rg,1625009875289962189,1,0.2793,-0.9734,0.3828,549,-162.5366,-94.1772,15.8081,133,0.7604,0.4312,-2.5332,-63.7011,33,0.8644,7691,4.0425,-82.5301
rg,1625009875289981352,1,0.45,-1.1602,0.3906,550,-143.9819,-95.459,33.2642,133,0.7594,0.3952,-3.6611,-69.6958,33,0.8624,7702,4.0425,-78.4533
rg,1625009875289999812,1,0.7832,-1.3037,0.3638,551,26.6724,19.4092,73.6084,133,0.7594,0.3672,-1.6511,-68.7929,33,0.8694,11782,4.0425,-78.1468
rg,1625009875290017956,1,0.7971,-1.2544,0.4341,552,22.0337,40.2222,68.6646,133,0.7594,0.3552,0.3707,-67.9668,33,0.8714,7808,4.0425,-78.6502
rg,1625009875290035879,1,0.3872,-1.2034,0.4207,553,26.5503,186.3403,10.9253,133,0.7594,0.3562,2.9112,-67.1919,32,0.8714,7912,4.0425,-85.3842
rg,1625009875290053079,1,-0.1606,-1.0352,0.3806,554,57.6782,247.1313,-24.7803,133,0.7594,0.3542,6.1236,-65.7353,32,0.8714,7844,4.0425,-94.8559
rg,1625009875290088554,1,-0.4387,-0.8982,0.2358,555,95.52,223.938,-42.4194,133,0.7594,0.3572,9.1488,-63.4343,32,0.8704,8000,4.0425,-103.7545
rg,1625009875290108977,1,-0.7434,-0.4329,0.0791,556,144.7754,99.6094,-54.8096,133,0.7614,0.3592,10.8908,-58.7602,32,0.8724,10518,4.0425,-108.3385
rg,1625009875290126566,1,-0.731,-0.019,0.2007,557,80.2002,-49.3164,-20.6299,133,0.7654,0.3622,11.2041,-54.811,32,0.8724,8806,4.0425,-106.9391
rg,1625009875290144414,1,-0.4868,-0.2371,0.2935,558,-71.9604,-179.9927,31.7993,133,0.7674,0.3692,9.6955,-56.063,32,0.8754,7907,4.0425,-100.1118
rg,1625009875290161893,1,-0.3115,-0.5798,0.4873,559,-135.376,-239.8071,47.7295,133,0.7714,0.3752,5.4226,-61.4338,32,0.8794,8083,4.0425,-88.9916
rg,1625009875290179186,1,0.4224,-1.6416,1.1953,560,-166.9922,-301.0254,61.8286,86,0.7724,0.3802,1.7949,-67.0448,32,0.8854,7942,4.0689,-77.0485
rg,1625009875290197294,1,0.6521,-1.811,0.3323,561,1.709,-283.8135,22.583,86,0.7734,0.3872,-2.5406,-67.4918,32,0.8884,8147,4.0689,-66.2718
rg,1625009875290228325,1,0.7822,-1.5413,0.4072,562,62.0728,-248.4131,9.8267,86,0.7744,0.4012,-6.5761,-63.8862,32,0.8914,8015,4.0689,-59.5115
rg,1625009875290246340,1,0.8408,-0.8809,0.4307,563,127.1973,-118.7744,7.4463,86,0.7794,0.4052,-9.8143,-59.4113,32,0.8954,8145,4.0689,-55.2012
rg,1625009875290263874,1,0.6411,-0.6057,0.1248,564,101.0132,7.6904,9.3384,86,0.7864,0.4122,-10.6922,-55.8701,33,0.9014,8007,4.0689,-55.2224
rg,1625009875290281371,1,0.3599,-0.5803,0.0596,565,41.8091,101.0742,1.5259,86,0.7934,0.4202,-9.2075,-54.5418,33,0.9044,9166,4.0689,-58.4044
rg,1625009875290298460,1,0.1521,-0.6948,0.2913,566,-20.874,134.1553,5.6763,86,0.7884,0.4292,-6.0546,-55.2853,33,0.9044,9684,4.0689,-62.6307
rg,1625009875290318734,1,0.0791,-0.7222,0.3367,567,-62.9883,115.0513,12.207,86,0.7704,0.4362,-3.1203,-57.8827,33,0.8954,8267,4.0689,-66.1805
rg,1625009875290336675,1,-0.011,-0.8538,0.52,568,-128.6011,39.7949,8.9722,86,0.7664,0.4342,-1.8823,-62.9792,32,0.8754,8120,4.0689,-67.3962
rg,1625009875290358079,1,0.1594,-1.0496,0.5115,569,-93.9941,-18.7988,34.8511,86,0.7674,0.4242,-1.1715,-66.7937,32,0.8674,8303,4.0689,-66.1189
rg,1625009875290376001,1,0.4045,-1.1626,0.6985,570,-46.3257,-38.3911,55.4199,86,0.7664,0.4092,-0.3112,-68.3644,32,0.8714,8181,4.0689,-63.8587
rg,1625009875290394257,1,0.7676,-1.2146,0.4702,571,15.3198,-53.0396,71.6553,86,0.7664,0.3972,0.4157,-67.7534,32,0.8734,8373,4.0689,-60.8363
rg,1625009875290412809,1,0.6028,-1.0696,0.3706,572,32.4707,86.6089,33.1421,86,0.7654,0.3922,1.8826,-66.6078,32,0.8724,8251,4.0689,-63.538
rg,1625009875290430343,1,0.4167,-0.9993,0.4084,573,23.3154,157.1045,18.3105,86,0.7664,0.3872,4.703,-66.6112,32,0.8724,8280,4.0689,-71.2164
rg,1625009875290447488,1,-0.1001,-0.8137,0.3198,574,18.1885,237.6099,-23.9258,86,0.7664,0.3862,7.6064,-66.9366,32,0.8714,8403,4.0689,-80.3726
rg,1625009875290464837,1,-0.637,-0.6736,0.272,575,49.8657,185.4858,-51.7578,86,0.7674,0.3922,9.89,-66.1365,32,0.8714,8269,4.0689,-88.0729
rg,1625009875290483444,1,-0.9485,-0.5505,0.3594,576,36.1938,29.7852,-34.1797,86,0.7704,0.3982,10.7565,-64.7623,32,0.8724,8544,4.0689,-89.6864
rg,1625009875640971819,1,0.0461,-1.1504,0.7517,577,-53.2227,-304.5044,53.6499,86,0.7814,0.4152,7.052,-64.7048,32,0.8794,25262,4.0689,-77.5904
rg,1625009875641012071,1,0.7222,-1.3286,0.4114,578,47.1802,-293.0298,29.1748,86,0.7814,0.4232,1.6259,-62.2594,33,0.8894,13627,4.0689,-66.6497
rg,1625009875641032715,1,0.8416,-1.0005,0.3394,579,106.5674,-155.5176,11.2915,86,0.7844,0.4292,-2.5014,-58.3018,33,0.8904,10238,4.0689,-61.0895
rg,1625009875641052137,1,0.6931,-0.7195,0.1736,580,104.6143,5.249,14.5264,86,0.7934,0.4332,-3.3829,-54.6353,33,0.8904,7853,4.0689,-60.9746
rg,1625009875641070800,1,0.5984,-0.6423,0.2246,581,75.0122,59.082,9.7656,86,0.8044,0.4352,-3.0689,-52.0104,32,0.8924,7902,4.0689,-62.6521
rg,1625009875641088667,1,0.3357,-0.6597,0.3555,582,0.7935,118.2861,-4.0283,86,0.8064,0.4412,-1.1248,-52.1754,32,0.8944,7792,4.0689,-66.475
rg,1625009875641106275,1,0.1106,-0.7542,0.4038,583,-63.4766,109.375,5.127,86,0.7824,0.4502,1.3681,-55.082,32,0.8904,10458,4.0689,-69.8679
rg,1625009875641123883,1,0.0166,-0.8745,0.4634,584,-124.5728,39.2456,0.7324,86,0.7654,0.4542,2.1315,-60.3566,32,0.8794,8470,4.0689,-71.1834
rg,1625009875641141047,1,0.0117,-0.9375,0.4729,585,-137.146,3.1738,1.5869,86,0.7614,0.4382,2.1046,-65.4896,33,0.8644,7969,4.0689,-70.0034
rg,1625009875641158951,1,0.332,-1.1428,0.5464,586,-86.853,-44.2505,44.9829,86,0.7604,0.4032,2.4234,-68.8117,33,0.8734,7838,4.0689,-67.6571
rg,1625009875641177096,1,0.7505,-1.3438,0.5217,587,22.583,-33.3862,84.4727,86,0.7604,0.3862,3.9345,-67.7581,33,0.8724,8062,4.0689,-65.1849
rg,1625009875641194111,1,0.9468,-1.3906,0.5549,588,24.5361,-33.9355,92.1631,86,0.7614,0.3742,5.4487,-66.8983,33,0.8724,8044,4.0689,-62.5502
rg,1625009875641210904,1,0.7488,-1.3704,0.3479,589,44.1895,141.0522,40.2832,86,0.7614,0.3702,7.908,-65.9652,32,0.8744,8084,4.0689,-67.1591
rg,1625009875641228716,1,0.1658,-1.1443,0.5337,590,55.9082,277.832,-28.8696,86,0.7614,0.3702,10.7826,-65.4432,32,0.8704,7973,4.0689,-77.8793
rg,1625009875641247934,1,-0.2122,-1.054,0.4553,591,89.6606,299.2554,-54.5654,86,0.7614,0.3722,13.9363,-62.9722,32,0.8704,8145,4.0689,-89.3311
rg,1625009875641266468,1,-0.752,-0.635,-0.0132,592,176.2085,219.6045,-73.4253,86,0.7624,0.3742,16.9551,-59.1522,32,0.8724,7997,4.0689,-98.8711
rg,1625009875641285890,1,-0.9199,0.0002,0.075,593,174.1333,29.7852,-73.9136,86,0.7644,0.3752,17.2977,-52.8021,32,0.8704,8181,4.0689,-101.4461
rg,1625009875641303720,1,-0.9507,0.2061,0.1418,594,122.1313,-42.2363,-52.9175,86,0.7674,0.3782,16.2455,-49.6141,32,0.8714,8053,4.0689,-97.5539
rg,1625009875641321606,1,-0.6819,0.0479,0.2024,595,-69.519,-191.1011,39.3066,86,0.7704,0.3842,14.5389,-49.886,32,0.8734,8227,4.0689,-90.2739
rg,1625009875641339288,1,-0.1848,-0.866,0.8477,596,-233.7036,-341.6748,86.5479,86,0.7754,0.3882,8.9525,-56.3469,32,0.8774,8086,4.0689,-77.0262
rg,1625009875641357044,1,0.7148,-2.1658,1.0278,597,-260.376,-390.1978,94.1162,86,0.7794,0.3982,2.8329,-61.963,32,0.8854,8217,4.0689,-62.6836
rg,1625009875641410830,1,0.938,-1.9214,0.2334,598,64.27,-328.6133,3.7231,86,0.7814,0.4062,-4.4169,-60.2687,32,0.8904,8781,4.0689,-51.2045
rg,1625009875641433196,1,0.9512,-0.8298,0.429,599,166.8701,-120.9106,-1.5869,86,0.7834,0.4082,-8.5524,-54.1006,32,0.8944,8325,4.0689,-47.2322
rg,1625009875641455081,1,0.8789,-0.5344,0.3049,600,170.5933,-44.2505,9.9487,86,0.7914,0.4092,-11.0604,-48.0242,32,0.8944,8199,4.0689,-45.6093
rg,1625009875641472911,1,0.6304,-0.4949,-0.0325,601,85.3882,63.2324,6.6528,86,0.8094,0.4162,-10.705,-45.3072,32,0.8914,8330,4.0689,-47.1465
rg,1625009875641504091,1,0.459,-0.6689,0.1113,602,3.418,139.0381,-13.4277,86,0.8324,0.4222,-8.1684,-45.54,32,0.8894,8507,4.0689,-51.3467
rg,1625009875641524031,1,0.1626,-0.7612,0.3594,603,-20.9961,217.7124,0.1831,86,0.8384,0.4242,-2.2834,-46.5333,32,0.8884,10767,4.0689,-57.5314
rg,1625009875641541528,1,-0.1992,-0.8516,0.4207,604,-18.7378,178.4668,8.3618,86,0.8204,0.4332,3.3243,-47.9697,33,0.8864,8260,4.0689,-62.5292
rg,1625009875641558617,1,-0.3193,-0.813,0.5579,605,-41.1987,121.521,11.4746,86,0.7754,0.4402,5.5729,-51.9607,33,0.8754,8325,4.0689,-63.8007
rg,1625009875641577170,1,-0.2009,-0.7686,0.572,606,-136.0474,-41.0767,22.3389,86,0.7584,0.4362,5.6016,-57.2486,33,0.8634,8445,4.0689,-61.9513
rg,1625009875641595055,1,0.2732,-0.9478,0.4707,607,-128.2959,-159.8511,62.1948,86,0.7574,0.4192,3.763,-62.0476,33,0.8564,8323,4.0689,-55.159
rg,1625009875641613663,1,1.0403,-1.4172,0.9724,608,-43.335,-131.7749,83.0688,86,0.7584,0.3852,3.0048,-63.1723,33,0.8644,8494,4.0689,-48.9233
rg,1625009876005081115,1,0.6545,-1.2642,0.4377,609,26.7944,209.1675,39.2456,86,0.7604,0.3632,7.1559,-63.2666,32,0.8644,25960,4.0689,-58.8014
rg,1625009876005112924,1,-0.731,-1.0928,0.3088,610,117.5537,236.6943,-72.1436,86,0.7594,0.3702,10.0318,-60.3961,32,0.8644,16901,4.0689,-68.6098
rg,1625009876005132772,1,-0.8599,-0.7734,0.0439,611,167.9077,148.3154,-77.6978,86,0.7614,0.3712,12.4083,-55.5291,32,0.8644,7712,4.0689,-75.4066
rg,1625009876005151288,1,-0.8127,-0.0361,0.0881,612,182.373,-53.2837,-71.5332,86,0.7634,0.3722,11.0008,-48.0932,32,0.8644,7811,4.0689,-75.3116
rg,1625009876005168525,1,-0.6987,0.2932,0.1443,613,74.2798,-161.1328,-15.564,86,0.7654,0.3762,8.1664,-43.5022,33,0.8664,7759,4.0689,-70.7952
rg,1625009876005186003,1,-0.5408,0.1726,0.082,614,-14.2212,-212.4023,34.2407,86,0.7694,0.3802,5.1112,-43.8293,33,0.8694,7984,4.0689,-63.9709
rg,1625009876005203278,1,-0.177,-0.4446,0.1113,615,-200.7446,-307.4341,94.9707,86,0.7684,0.3842,0.4351,-52.4038,33,0.8734,7959,4.0689,-52.4858
rg,1625009876005220182,1,1.0823,-2.0552,2.0022,616,-264.6484,-344.4824,103.8208,86,0.7754,0.3882,-4.152,-63.1557,33,0.8794,7983,4.0689,-38.6565
rg,1625009876005237660,1,0.9041,-2.2329,0.5273,617,-126.2817,-293.6401,63.8428,86,0.7754,0.3952,-7.1317,-69.8338,33,0.8844,7828,4.0689,-26.7892
rg,1625009876005254250,1,0.9797,-1.7205,0.2231,618,89.6606,-213.623,4.6997,86,0.7784,0.3972,-10.8653,-67.9399,33,0.8934,7873,4.0689,-18.6246
rg,1625009876005271062,1,0.8633,-0.6875,0.3892,619,152.9541,-0.7324,18.6157,86,0.7854,0.4022,-10.3541,-62.0509,33,0.8974,12818,4.0689,-20.6702
rg,1625009876005287429,1,0.5654,-0.4692,0.0764,620,92.041,113.0371,20.6909,86,0.7974,0.4132,-8.8677,-58.2391,32,0.8984,7860,4.0689,-24.2057
rg,1625009876005304019,1,0.3384,-0.6113,0.2705,621,-13.0615,171.3257,-5.127,86,0.8084,0.4192,-6.1663,-58.2444,32,0.9004,8058,4.0689,-30.1557
rg,1625009876005320145,1,0.0393,-0.874,0.4539,622,-48.584,197.3877,-0.7324,86,0.8094,0.4262,-2.0127,-59.8601,32,0.9014,7881,4.0689,-36.9424
rg,1625009876005336068,1,-0.1042,-0.9382,0.4241,623,-47.6074,172.6685,4.9438,86,0.7914,0.4332,1.795,-61.964,32,0.8994,8085,4.0689,-42.8797
rg,1625009876005352454,1,-0.2285,-0.9446,0.5422,624,-90.332,74.2798,7.0801,86,0.7674,0.4382,3.7437,-65.6085,33,0.8874,8454,4.0689,-45.4348
rg,1625009876005368729,1,-0.0303,-0.9556,0.4707,625,-134.1553,-63.7207,12.6343,86,0.7624,0.4282,3.1909,-70.7218,33,0.8714,8647,4.0689,-42.8686
rg,1625009876005385281,1,0.4585,-1.1694,0.8076,626,-111.5723,-88.562,34.2407,86,0.7634,0.3982,3.3985,-72.418,33,0.8734,8009,4.0689,-38.5024
rg,1625009876005419293,1,0.5527,-1.2041,0.5872,627,1.6479,-72.8149,76.9653,86,0.7634,0.3802,4.4487,-71.7751,33,0.8744,8245,4.0689,-34.7734
rg,1625009876005437346,1,0.8677,-1.3301,0.3281,628,21.4844,-52.8564,86.1816,86,0.7614,0.3702,5.6762,-70.777,33,0.8724,8132,4.0689,-31.6883
rg,1625009876005454120,1,0.5637,-1.2603,0.3442,629,42.4805,122.0703,20.1416,86,0.7624,0.3672,6.9605,-69.6926,33,0.8764,8271,4.0689,-36.0698
rg,1625009876005471228,1,0.3259,-1.0864,0.4207,630,44.5557,178.1616,-7.3242,86,0.7624,0.3672,8.3105,-68.7772,33,0.8754,8119,4.0689,-42.9003
rg,1625009876005487651,1,-0.2412,-0.6836,0.1396,631,107.2998,202.0874,-57.8613,86,0.7614,0.3672,9.6686,-66.1732,33,0.8764,8274,4.0689,-51.3807
rg,1625009876005504296,1,-0.593,-0.2747,0.0596,632,135.6812,138.855,-59.021,86,0.7624,0.3682,11.8075,-62.0768,32,0.8744,8065,4.0689,-57.4635
rg,1625009876005520590,1,-0.7109,-0.0979,0.1094,633,110.4736,87.8906,-41.9312,86,0.7644,0.3722,13.8314,-59.6236,32,0.8754,8936,4.0689,-58.3355
rg,1625009876005536975,1,-0.7095,-0.0518,0.2061,634,-14.1602,-57.312,18.5547,86,0.7694,0.3782,15.3114,-59.0874,32,0.8754,8795,4.0689,-55.7727
rg,1625009876005553158,1,-0.3906,-0.6753,0.6321,635,-155.1514,-205.0171,65.0024,86,0.7724,0.3812,13.9366,-62.6208,32,0.8824,9025,4.0689,-46.9662
rg,1625009876005579430,1,0.4404,-1.7573,1.1912,636,-157.8369,-285.5835,78.4302,86,0.7764,0.3882,10.8861,-66.0804,32,0.8864,8799,4.0689,-34.9899
rg,1625009876005596724,1,0.6111,-1.6997,0.3347,637,3.7842,-265.4419,23.1934,86,0.7804,0.3932,6.2234,-64.8769,32,0.8884,9075,4.0689,-24.9588
rg,1625009876005613091,1,0.7776,-1.0991,0.5771,638,65.7349,-135.9253,22.644,86,0.7824,0.3952,3.2015,-61.709,32,0.8954,8962,4.0689,-19.7114
rg,1625009876005629606,1,0.6719,-0.7444,0.3616,639,70.6177,-12.0239,20.5078,86,0.7844,0.4002,2.1486,-58.916,32,0.8984,11028,4.0689,-18.9337
rg,1625009876005645733,1,0.4519,-0.835,0.2156,640,22.3389,59.6313,-3.7231,86,0.7924,0.4092,2.1224,-58.6679,32,0.9014,8899,4.0689,-21.0824
rg,1625009876381493605,1,-0.0854,-0.8174,0.3228,641,3.6621,64.27,-4.7607,86,0.7844,0.4312,3.4158,-59.0053,33,0.8944,27683,4.0689,-23.4003
rg,1625009876381545188,1,0.0344,-0.8367,0.4214,642,-79.4067,-14.5264,3.6621,86,0.7664,0.4362,2.6128,-63.6871,33,0.8784,15335,4.0689,-21.5106
rg,1625009876381565018,1,0.1394,-1.0059,0.3977,643,-126.9531,-64.6973,22.7661,86,0.7644,0.4142,2.0207,-68.8162,33,0.8634,8334,4.0689,-18.7671
rg,1625009876381584533,1,0.5391,-1.3091,0.6833,644,-36.0107,-63.4155,62.1338,86,0.7634,0.3852,2.6042,-69.8724,33,0.8684,8455,4.0689,-15.5057
rg,1625009876381604086,1,0.7571,-1.3083,0.3982,645,52.063,-19.7144,85.6934,86,0.7634,0.3742,4.3231,-67.7733,33,0.8704,8391,4.0689,-13.5686
rg,1625009876381623064,1,0.6458,-1.2285,0.3484,646,45.3491,100.3418,43.396,86,0.7634,0.3692,6.2875,-66.4595,33,0.8694,11070,4.0689,-16.6465
rg,1625009876381641949,1,0.1389,-1.1033,0.499,647,53.7109,204.9561,-26.2451,86,0.7634,0.3672,8.1436,-65.2774,33,0.8684,8633,4.0689,-24.6152
rg,1625009876381694255,1,-0.1787,-1.0098,0.4299,648,82.8247,221.2524,-51.4526,86,0.7634,0.3672,10.0427,-61.9715,33,0.8674,8534,4.0689,-33.0899
rg,1625009876381717436,1,-0.6267,-0.6001,0.093,649,160.4614,150.4517,-68.2983,86,0.7634,0.3642,12.0469,-57.3606,33,0.8674,8485,4.0689,-39.8057
rg,1625009876381736951,1,-0.6746,0.0007,0.0845,650,158.5083,10.6812,-46.5088,86,0.7654,0.3642,12.9497,-51.0767,33,0.8684,8553,4.0689,-41.089
rg,1625009876381755689,1,-0.6404,0.2158,0.1541,651,32.8979,-103.3936,2.6245,86,0.7684,0.3712,12.4588,-48.1652,33,0.8704,8588,4.0689,-37.5294
rg,1625009876381773908,1,-0.4778,0.0342,0.1816,652,-72.0825,-169.9829,42.2363,86,0.7734,0.3752,9.4437,-53.0114,32,0.8744,8576,4.0689,-28.3816
rg,1625009876381793479,1,0.1025,-0.957,1.196,653,-248.0469,-288.3301,82.8857,86,0.7764,0.3792,5.4789,-60.8318,32,0.8794,8560,4.0689,-16.7566
rg,1625009876381812364,1,0.6758,-2.1951,0.7153,654,-134.2163,-268.1274,54.3213,86,0.7764,0.3872,1.8126,-65.913,32,0.8864,8656,4.0689,-6.2188
rg,1625009876381830731,1,0.8137,-1.7166,0.3752,655,48.8281,-220.7031,-3.7842,86,0.7824,0.3922,-3.0111,-64.4423,32,0.8944,9023,4.0689,1.6922
rg,1625009876381849210,1,0.7715,-0.7705,0.4963,656,108.5205,-35.7056,17.5171,86,0.7844,0.3952,-4.4186,-59.9717,32,0.8964,9796,4.0689,3.2147
rg,1625009876381867318,1,0.5283,-0.5652,0.1531,657,75.5005,53.4668,10.376,86,0.7914,0.4062,-4.3494,-57.2556,32,0.8994,8589,4.0689,1.5922
rg,1625009876381885278,1,0.4185,-0.5955,0.1282,658,27.5879,80.7495,-6.897,86,0.8054,0.4122,-3.4759,-56.4936,32,0.8994,8735,4.0689,-1.2393
rg,1625009876381904015,1,0.1521,-0.8162,0.3064,659,-18.4937,133.3008,-18.8599,86,0.8174,0.4182,-1.4829,-57.5094,32,0.8994,8618,4.0689,-6.0977
rg,1625009876381922975,1,-0.0896,-0.9736,0.3818,660,-9.0942,119.0186,-6.2256,86,0.8204,0.4222,1.0678,-58.2801,32,0.8994,8801,4.0689,-10.2564
rg,1625009876381941453,1,-0.2043,-0.8958,0.3567,661,-24.231,17.5781,0.061,86,0.8004,0.4272,1.8587,-59.6371,32,0.8954,8666,4.0689,-10.8696
rg,1625009876381959728,1,0.022,-0.7805,0.3926,662,-56.6406,-36.5601,11.8408,86,0.7754,0.4302,0.84,-63.3685,32,0.8834,8809,4.0689,-7.6081
rg,1625009876381978076,1,0.1162,-0.8086,0.3396,663,-108.0933,-108.2153,23.1323,86,0.7714,0.4272,-0.4204,-67.8057,33,0.8694,8729,4.0689,-3.2769
rg,1625009876381997906,1,0.7107,-1.1406,0.4495,664,-24.4751,-104.4312,69.3359,86,0.7694,0.3982,-0.4997,-68.8344,33,0.8674,12124,4.0689,1.6298
rg,1625009876382016644,1,0.8328,-1.1594,0.3372,665,33.3862,-10.2539,67.9321,86,0.7674,0.3802,0.5949,-67.6497,33,0.8664,9965,4.0689,2.9943
rg,1625009876382035529,1,0.7949,-1.1003,0.3564,666,34.5459,41.4429,66.4062,86,0.7674,0.3692,3.265,-66.3671,33,0.8654,8828,4.0689,-0.6003
rg,1625009876382075300,1,0.4272,-1.0452,0.3484,667,34.668,182.312,38.9404,86,0.7674,0.3642,6.676,-65.6892,33,0.8634,9084,4.0689,-6.6776
rg,1625009876382099592,1,-0.0474,-1.0427,0.4441,668,31.5552,252.1362,2.3193,86,0.7684,0.3622,10.6849,-65.8752,33,0.8614,9041,4.0689,-15.9359
rg,1625009876382118718,1,-0.5398,-0.9976,0.4485,669,85.6323,174.2554,-20.0195,86,0.7684,0.3612,13.4977,-63.8577,33,0.8594,9895,4.0689,-22.7168
rg,1625009876382137789,1,-0.6084,-0.4771,0.0901,670,140.1978,24.8413,-17.5171,86,0.7684,0.3612,14.759,-58.9266,33,0.8604,9057,4.0689,-23.9831
rg,1625009876382155786,1,-0.4211,-0.0503,0.093,671,103.8818,-63.6597,14.8315,86,0.7724,0.3632,15.853,-53.7882,33,0.8574,8935,4.0689,-21.2681
rg,1625009876382175024,1,-0.1621,-0.167,0.3982,672,-58.5327,-137.207,40.7715,86,0.7744,0.3662,14.2039,-53.5275,33,0.8644,9124,4.0689,-15.3713
rg,1625009876766327796,1,0.4324,-1.5713,0.2983,673,-7.1411,-128.7231,-10.0708,86,0.7834,0.3782,10.2883,-52.3619,32,0.8774,27764,4.0722,-13.3354
rg,1625009876766369567,1,0.2495,-0.5779,0.5061,674,45.0439,-8.2397,-12.0239,86,0.7864,0.3802,8.6333,-50.427,32,0.8804,8767,4.0722,-13.3718
rg,1625009876766390322,1,0.1958,-0.5088,0.4207,675,19.7754,2.5635,-8.8501,86,0.7884,0.3832,7.4613,-49.6707,32,0.8854,8345,4.0722,-13.6874
rg,1625009876766409337,1,0.1243,-0.8564,0.469,676,-40.4663,-9.5825,-18.0664,86,0.7904,0.3852,6.0893,-51.7493,32,0.8904,8320,4.0722,-13.8967
rg,1625009876766427316,1,0.179,-1.157,0.4011,677,-19.8364,-32.7148,-8.0566,86,0.7924,0.3892,4.4892,-53.1908,32,0.8944,8425,4.0722,-13.1212
rg,1625009876766445868,1,0.2412,-1.0068,0.2856,678,31.8604,-49.7437,-7.2632,86,0.7934,0.3952,2.3951,-52.6176,32,0.8994,9194,4.0722,-11.7702
rg,1625009876766463236,1,0.2266,-0.8643,0.252,679,48.645,-42.2363,-3.418,86,0.7934,0.4002,0.5257,-51.4399,32,0.9014,8764,4.0722,-10.5623
rg,1625009876766480677,1,0.2507,-0.6997,0.2493,680,33.1421,-31.7993,8.606,86,0.7944,0.4052,-0.7436,-50.8073,32,0.9024,8353,4.0722,-9.3673
rg,1625009876766501821,1,0.2544,-0.8201,0.3345,681,-15.5029,-31.7993,10.376,86,0.7934,0.4102,-1.8065,-52.0824,32,0.8994,8345,4.0722,-8.0992
rg,1625009876766520522,1,0.3049,-0.9705,0.3284,682,-22.8271,-35.3394,15.2588,86,0.7924,0.4042,-2.747,-53.5736,32,0.8974,8399,4.0722,-6.6195
rg,1625009876766538778,1,0.3086,-0.9646,0.3357,683,1.77,-29.2358,12.8784,86,0.7924,0.3972,-3.5716,-54.2069,32,0.8984,8555,4.0722,-5.3364
rg,1625009876766557627,1,0.3406,-0.895,0.2825,684,51.0254,-17.7002,20.1416,86,0.7904,0.3942,-3.9877,-52.8984,32,0.9024,8426,4.0722,-4.2545
rg,1625009876766574790,1,0.4265,-0.8789,0.2649,685,52.2461,-34.2407,20.1416,86,0.7904,0.3942,-5.0028,-51.6435,32,0.9034,11567,4.0722,-2.6348
rg,1625009876766617135,1,0.3335,-0.8655,0.2544,686,60.6079,13.0005,8.9722,86,0.7904,0.3922,-5.0099,-49.9977,33,0.9044,8450,4.0722,-2.7545
rg,1625009876766637909,1,0.198,-0.8145,0.3232,687,61.0352,40.0391,10.0708,86,0.7894,0.3922,-3.9784,-48.1763,33,0.9064,8651,4.0722,-3.6524
rg,1625009876766657109,1,0.0769,-0.803,0.3684,688,63.3545,43.0298,9.3384,86,0.7894,0.3912,-2.7257,-46.2593,33,0.9064,8518,4.0722,-4.3827
rg,1625009876766674403,1,0.051,-0.8059,0.4031,689,63.6597,23.0713,12.6343,86,0.7894,0.3892,-1.7468,-44.3671,32,0.9074,8729,4.0722,-4.6548
rg,1625009876766691474,1,0.0327,-0.8218,0.4404,690,65.4297,-5.9204,12.9395,86,0.7894,0.3882,-1.5761,-42.443,32,0.9064,8934,4.0722,-4.096
rg,1625009876766708526,1,0.0564,-0.8037,0.4202,691,66.8335,-31.9214,13.1836,86,0.7894,0.3872,-2.26,-40.5829,32,0.9074,10886,4.0722,-2.8333
rg,1625009876766725412,1,0.1162,-0.7983,0.4541,692,63.0493,-49.8657,9.6436,86,0.7894,0.3852,-3.7401,-38.9046,32,0.9074,8613,4.0722,-1.2303
rg,1625009876766742576,1,0.1396,-0.8235,0.4575,693,58.7158,-58.2275,0,86,0.7904,0.3852,-5.7564,-37.5183,33,0.9064,8785,4.0722,0.271
rg,1625009876766759018,1,0.1147,-0.8181,0.4233,694,62.1948,-64.6973,-9.5215,86,0.7914,0.3842,-8.1194,-36.1444,33,0.9074,8678,4.0722,1.6267
rg,1625009876766777218,1,0.1033,-0.7937,0.4087,695,63.7207,-71.7163,-12.7563,86,0.7914,0.3822,-11.1923,-34.7821,33,0.9064,8859,4.0722,3.114
rg,1625009876766796344,1,0.1101,-0.761,0.4084,696,65.979,-93.2617,-24.7803,86,0.7924,0.3812,-14.7111,-33.484,33,0.9084,8718,4.0722,4.6319
rg,1625009876766813767,1,0.1646,-0.7629,0.4468,697,69.2749,-110.2905,-30.2734,86,0.7924,0.3802,-18.9458,-32.1574,32,0.9064,8862,4.0722,6.3377
rg,1625009876766831542,1,0.262,-0.7893,0.4922,698,70.1294,-118.5303,-32.2266,86,0.7924,0.3792,-23.5793,-30.9134,32,0.9064,8830,4.0722,8.1616
rg,1625009876766849039,1,0.3352,-0.8162,0.5071,699,72.0215,-110.5347,-33.6914,86,0.7924,0.3782,-27.9749,-29.638,32,0.9064,8948,4.0722,9.7912
rg,1625009876766866721,1,0.3635,-0.8074,0.5027,700,77.8809,-99.8535,-34.3018,86,0.7934,0.3792,-31.5691,-27.8359,33,0.9054,8782,4.0722,10.9358
rg,1625009876766898864,1,0.3774,-0.7356,0.467,701,87.0972,-74.0967,-33.0811,86,0.7934,0.3792,-34.6181,-25.6939,33,0.9064,9041,4.0722,11.7784
rg,1625009876766919323,1,0.3091,-0.6379,0.4368,702,91.1255,-46.2036,-30.9448,86,0.7944,0.3772,-36.4622,-23.0929,33,0.9054,8902,4.0722,12.0817
rg,1625009876766937098,1,0.2317,-0.5862,0.448,703,87.7075,-34.5459,-27.0386,86,0.7934,0.3752,-37.5722,-20.5685,33,0.9044,9076,4.0722,12.2846
rg,1625009876766954946,1,0.2085,-0.6201,0.4968,704,82.7026,-51.1475,-29.7241,86,0.7944,0.3712,-39.1969,-18.3621,32,0.9044,8955,4.0722,12.6229
rg,1625009877141123753,1,0.3396,-0.7371,0.6655,705,92.5293,-96.6797,-33.9355,86,0.7944,0.3632,-42.6602,-15.9516,32,0.9024,26758,4.0722,13.3332
rg,1625009877141199518,1,0.4194,-0.665,0.6558,706,98.4497,-94.3604,-31.4331,86,0.7944,0.3562,-46.0706,-13.2045,32,0.9004,14776,4.0722,13.9565
rg,1625009877141219200,1,0.48,-0.6252,0.6267,707,97.1069,-103.5767,-31.8604,86,0.7944,0.3522,-49.8883,-10.4759,32,0.9004,10286,4.0722,14.5237
rg,1625009877141239253,1,0.5664,-0.583,0.5979,708,96.4355,-106.2622,-32.959,86,0.7944,0.3512,-53.887,-7.5311,32,0.8994,8336,4.0722,14.8176
rg,1625009877141257953,1,0.6323,-0.55,0.5891,709,90.9424,-92.9565,-36.3159,86,0.7944,0.3492,-57.3549,-4.2092,32,0.8994,8532,4.0722,14.4464
rg,1625009877141276450,1,0.6558,-0.5466,0.614,710,90.9424,-77.2095,-37.0483,86,0.7944,0.3482,-59.2693,-0.7127,32,0.8994,8401,4.0722,13.6043
rg,1625009877141294133,1,0.6353,-0.5881,0.7437,711,75.5005,-36.1938,-37.6587,86,0.7944,0.3462,-59.3253,2.3175,32,0.8974,9827,4.0722,12.6197
rg,1625009877141312074,1,0.5938,-0.6169,0.7908,712,66.7114,-3.9673,-36.1328,86,0.7924,0.3442,-58.7158,4.9055,32,0.8974,8405,4.0722,11.9523
rg,1625009877141329627,1,0.5073,-0.655,0.8228,713,67.688,3.7231,-34.6069,86,0.7954,0.3402,-57.6859,7.0945,32,0.8994,8791,4.0722,11.6969
rg,1625009877141347272,1,0.4446,-0.6094,0.8186,714,72.1436,-9.2163,-35.6445,86,0.7934,0.3382,-57.0759,9.5461,32,0.8974,8456,4.0722,11.2892
rg,1625009877141364288,1,0.4045,-0.5251,0.7749,715,73.6694,-35.2783,-36.5601,86,0.7934,0.3372,-57.4176,12.4304,32,0.8974,8615,4.0722,10.4206
rg,1625009877141381655,1,0.4094,-0.4805,0.7576,716,71.3501,-51.0254,-36.1328,86,0.7924,0.3362,-58.3853,15.5679,32,0.8974,8519,4.0722,9.1616
rg,1625009877141398653,1,0.4607,-0.4534,0.7229,717,65.7959,-78.186,-38.6353,86,0.7934,0.3352,-60.3238,19.3295,32,0.8974,8150,4.0722,6.9276
rg,1625009877141415409,1,0.5266,-0.4656,0.7141,718,63.2324,-96.3135,-40.4053,86,0.7934,0.3332,-62.8715,24.0128,32,0.8954,7923,4.0722,3.5867
rg,1625009877141458550,1,0.5679,-0.4609,0.7012,719,64.0869,-101.6846,-39.4897,86,0.7924,0.3302,-65.6636,29.6793,32,0.8964,8075,4.0722,-0.6282
rg,1625009877141478621,1,0.6741,-0.4619,0.7312,720,66.8945,-106.2622,-30.9448,86,0.7914,0.3282,-68.3618,36.2032,33,0.8954,8066,4.0722,-5.5753
rg,1625009877141496600,1,0.7449,-0.4282,0.7427,721,71.5332,-87.7686,-22.2168,86,0.7914,0.3272,-70.4159,42.361,33,0.8944,8160,4.0722,-9.7771
rg,1625009877141513486,1,0.9038,-0.4419,0.7554,722,67.627,-74.4019,-10.8643,86,0.7914,0.3242,-72.2576,46.1294,33,0.8944,8022,4.0722,-11.7146
rg,1625009877141530761,1,0.9446,-0.4534,0.7478,723,56.8237,-52.4292,-10.9253,86,0.7914,0.3212,-73.4956,49.2774,33,0.8944,8206,4.0722,-13.1558
rg,1625009877141547425,1,0.8997,-0.4219,0.7004,724,49.8657,4.0283,-14.9536,86,0.7914,0.3222,-73.1459,46.7449,32,0.8934,8064,4.0722,-8.8397
rg,1625009877141565014,1,0.7729,-0.4199,0.7515,725,44.9829,52.4902,-13.6108,86,0.7914,0.3202,-71.2572,39.6375,32,0.8934,8220,4.0722,0.115
rg,1625009877141582586,1,0.6294,-0.4185,0.7832,726,43.6401,69.8853,-15.0146,86,0.7914,0.3202,-68.3893,33.049,32,0.8934,11229,4.0722,8.4997
rg,1625009877141600453,1,0.5288,-0.4041,0.7942,727,45.105,67.0166,-16.0522,86,0.7904,0.3192,-65.5655,28.8053,32,0.8924,8282,4.0722,14.5008
rg,1625009877141618876,1,0.4968,-0.3967,0.8035,728,47.5464,46.875,-12.6343,86,0.7904,0.3192,-63.0875,26.038,32,0.8944,8118,4.0722,18.9706
rg,1625009877141638669,1,0.5483,-0.3938,0.8267,729,53.1006,16.8457,-11.5967,86,0.7904,0.3142,-62.2828,25.3609,32,0.8924,8452,4.0722,21.4383
rg,1625009877141657074,1,0.5942,-0.3774,0.8521,730,57.5562,-2.7466,-5.6152,86,0.7894,0.3112,-61.7928,24.964,32,0.8914,8259,4.0722,23.795
rg,1625009877141675719,1,0.6724,-0.3611,0.8975,731,56.5186,-0.1221,-1.2817,86,0.7894,0.3092,-61.2534,24.4153,33,0.8914,8419,4.0722,26.264
rg,1625009877141694697,1,0.7273,-0.3738,0.9016,732,51.6357,9.8877,4.5166,86,0.7884,0.3082,-60.511,23.124,33,0.8904,8313,4.0722,29.3827
rg,1625009877141712435,1,0.7373,-0.3813,0.8887,733,45.8374,17.2119,4.5166,86,0.7884,0.3071,-59.5204,21.5649,33,0.8904,8510,4.0722,32.5679
rg,1625009877141761001,1,0.6865,-0.3953,0.9001,734,42.9077,22.7661,2.3804,86,0.7884,0.3041,-58.0613,19.8784,32,0.8904,9043,4.0722,35.5359
rg,1625009877141783979,1,0.6431,-0.4099,0.9236,735,33.3862,27.4048,-3.2349,86,0.7884,0.3051,-56.3897,18.3068,32,0.8894,9022,4.0722,38.1474
rg,1625009877141805531,1,0.5496,-0.4202,0.9285,736,28.5645,22.1558,-10.3149,86,0.7884,0.3051,-54.785,17.2171,32,0.8894,8385,4.0722,39.9549
rg,1625009877500591230,1,0.5203,-0.3506,0.8057,737,26.4282,-50.0488,-18.7988,86,0.7884,0.3031,-55.9031,17.925,32,0.8884,24790,4.0722,39.4819
rg,1625009877500641778,1,0.5618,-0.3325,0.7683,738,22.0947,-66.4062,-22.0337,86,0.7884,0.3021,-57.6528,19.0831,32,0.8874,9965,4.0722,38.3126
rg,1625009877500671662,1,0.584,-0.3381,0.7466,739,16.7847,-82.0312,-26.2451,86,0.7894,0.3011,-59.9193,20.7604,32,0.8874,10928,4.0722,36.3303
rg,1625009877500701083,1,0.6025,-0.3279,0.7288,740,15.9912,-96.0083,-31.6162,86,0.7894,0.3011,-62.5431,23.4933,33,0.8874,9913,4.0722,33.1909
rg,1625009877500727708,1,0.647,-0.3469,0.7544,741,16.1743,-107.1777,-33.8135,86,0.7884,0.3001,-65.3838,27.3562,33,0.8874,7839,4.0722,28.8957
rg,1625009877500753815,1,0.6694,-0.3557,0.7708,742,18.4326,-109.2529,-34.0576,86,0.7884,0.3001,-68.0573,32.3331,33,0.8864,7904,4.0722,23.5979
rg,1625009877500779200,1,0.7168,-0.3372,0.7786,743,23.8037,-108.4595,-28.4424,86,0.7874,0.2991,-70.5507,38.3523,33,0.8864,8642,4.0722,17.5466
rg,1625009877500804177,1,0.7627,-0.3452,0.7551,744,26.6724,-103.5767,-14.0991,86,0.7874,0.2981,-73.0338,44.3293,32,0.8864,7946,4.0722,11.7731
rg,1625009877500829766,1,0.8936,-0.374,0.7876,745,27.6489,-102.478,-5.127,86,0.7864,0.2991,-75.5305,50.8881,32,0.8864,8992,4.0722,5.5679
rg,1625009877500855262,1,0.9434,-0.4365,0.8369,746,26.3672,-97.7783,-0.061,86,0.7874,0.2981,-77.7728,59.0273,32,0.8854,8105,4.0722,-2.2865
rg,1625009877500880887,1,1.1257,-0.4463,0.9868,747,27.1606,-77.5757,18.8599,86,0.7854,0.2961,-79.8845,64.4303,32,0.8844,7858,4.0722,-7.2595
rg,1625009877500906068,1,1.033,-0.1667,0.6941,748,39.1235,-53.5278,22.0947,86,0.7844,0.2951,-81.3726,68.1714,33,0.8844,7904,4.0722,-9.9656
rg,1625009877500956652,1,0.9133,-0.0415,0.5403,749,33.0811,-31.0059,18.9209,86,0.7854,0.2961,-82.2438,67.1999,33,0.8854,8120,4.0722,-8.0325
rg,1625009877500984537,1,0.738,-0.0439,0.5532,750,-2.9297,12.207,22.1558,86,0.7864,0.2971,-82.3084,47.2729,33,0.8844,7869,4.0722,12.0689
rg,1625009877501010829,1,0.7915,-0.2974,0.7212,751,-23.1323,-10.3149,19.7754,86,0.7884,0.2991,-82.5892,31.2663,33,0.8854,12970,4.0722,27.7203
rg,1625009877501037102,1,0.738,-0.3564,0.6121,752,-6.958,-7.8125,13.5498,86,0.7884,0.3011,-82.3858,15.0612,33,0.8854,7947,4.0722,44.1197
rg,1625009877501063246,1,0.6714,-0.249,0.6672,753,2.2583,8.8501,11.4746,86,0.7894,0.3011,-81.12,3.9377,33,0.8844,9661,4.0722,55.6939
rg,1625009877501089242,1,0.6006,-0.2402,0.6675,754,0.6714,13.916,10.8643,86,0.7894,0.3011,-79.3831,-2.9724,33,0.8844,7974,4.0722,62.7799
rg,1625009877501115053,1,0.5957,-0.2744,0.6938,755,-0.1221,9.3994,12.2681,86,0.7884,0.3001,-77.9649,-9.0276,33,0.8844,8184,4.0722,68.9505
rg,1625009877501140845,1,0.6394,-0.3506,0.731,756,4.6387,-10.437,14.6484,86,0.7894,0.3011,-76.8972,-14.1575,33,0.8844,9127,4.0722,74.3475
rg,1625009877501166489,1,0.7183,-0.3455,0.7222,757,14.5264,-30.5176,12.6953,86,0.7894,0.3011,-76.6179,-18.614,33,0.8844,8597,4.0722,79.4989
rg,1625009877501192059,1,0.7478,-0.2874,0.6853,758,21.3623,-31.8604,16.7847,86,0.7894,0.3011,-76.3597,-22.8061,33,0.8834,8243,4.0722,84.7045
rg,1625009877501217036,1,0.7585,-0.2544,0.6721,759,20.813,-30.5786,14.5264,86,0.7894,0.3011,-76.1025,-25.6476,33,0.8844,8149,4.0722,88.4914
rg,1625009877501242291,1,0.7646,-0.2488,0.6602,760,19.4092,-27.5879,11.6577,86,0.7894,0.3021,-75.7682,-28.0062,33,0.8834,8302,4.0722,91.7695
rg,1625009877501266806,1,0.7852,-0.2676,0.6531,761,14.9536,-19.5923,14.2212,86,0.7884,0.3041,-75.1241,-30.2095,33,0.8834,8140,4.0722,94.7033
rg,1625009877501291209,1,0.7781,-0.2876,0.6519,762,14.4653,-7.1411,10.9863,86,0.7884,0.3051,-74.1174,-30.8942,32,0.8834,9795,4.0722,96.037
rg,1625009877501428353,1,0.7476,-0.2966,0.6646,763,17.1509,2.2583,7.5073,86,0.7894,0.3061,-72.8402,-30.2654,32,0.8834,8230,4.0722,96.1155
rg,1625009877501490140,1,0.7163,-0.2795,0.6814,764,18.2495,4.5776,6.5918,86,0.7894,0.3061,-71.4283,-29.3565,32,0.8844,8369,4.0722,95.9836
rg,1625009877501519302,1,0.7249,-0.2551,0.6824,765,21.4844,4.3335,12.9395,86,0.7894,0.3071,-70.0404,-28.8069,32,0.8864,8236,4.0722,96.3683
rg,1625009877501545297,1,0.751,-0.1975,0.6716,766,27.6489,4.3945,22.0947,86,0.7894,0.3071,-68.6163,-28.5991,33,0.8834,8408,4.0722,97.4257
rg,1625009877501573200,1,0.8057,-0.1487,0.6487,767,26.6724,10.7422,32.5928,86,0.7894,0.3071,-66.9662,-28.7996,33,0.8844,8355,4.0722,98.9259
rg,1625009877501599326,1,0.8259,-0.1536,0.6414,768,21.7896,17.0288,33.3252,86,0.7894,0.3082,-64.7895,-28.6792,33,0.8844,8501,4.0722,99.4558
rg,1625009877851967395,1,0.6775,-0.2839,0.7114,769,-1.2817,70.5566,26.2451,86,0.7914,0.3102,-60.9595,-27.4863,33,0.8834,26047,4.0722,98.126
rg,1625009877852006629,1,0.5996,-0.302,0.7625,770,7.3242,64.5752,28.7476,86,0.7904,0.3102,-57.2085,-26.5826,33,0.8834,15533,4.0722,97.4972
rg,1625009877852026719,1,0.6028,-0.2927,0.7646,771,16.6016,46.875,30.9448,86,0.7904,0.3102,-54.2372,-25.9788,33,0.8824,9658,4.0722,97.685
rg,1625009877852045864,1,0.645,-0.271,0.7598,772,20.5078,36.499,31.4941,86,0.7904,0.3112,-51.8201,-25.4761,33,0.8834,9675,4.0722,98.225
rg,1625009877852066601,1,0.6672,-0.2522,0.7612,773,21.5454,39.4287,30.3345,86,0.7914,0.3122,-49.4158,-24.7923,33,0.8834,7929,4.0722,98.6201
rg,1625009877852085006,1,0.6675,-0.2415,0.7478,774,19.2261,44.5557,29.1748,86,0.7914,0.3122,-46.9647,-24.0721,33,0.8834,7794,4.0722,98.8596
rg,1625009877852103299,1,0.6587,-0.2341,0.7581,775,17.395,47.9126,28.3203,86,0.7914,0.3142,-44.4488,-23.3106,33,0.8834,7922,4.0722,98.9853
rg,1625009877852120741,1,0.627,-0.2297,0.7881,776,12.5122,53.894,26.9165,86,0.7914,0.3142,-41.777,-22.6418,33,0.8834,7837,4.0722,98.9663
rg,1625009877852137664,1,0.5933,-0.249,0.7988,777,10.8032,55.3589,26.001,86,0.7924,0.3152,-39.0876,-22.0806,33,0.8834,7925,4.0722,98.9625
rg,1625009877852154254,1,0.5635,-0.262,0.8179,778,8.4229,55.2368,24.9634,86,0.7924,0.3172,-36.4538,-21.6576,33,0.8834,8852,4.0722,98.9232
rg,1625009877852196987,1,0.533,-0.2634,0.8342,779,5.9204,55.1147,24.1699,86,0.7934,0.3182,-33.8523,-21.3093,32,0.8834,10221,4.0722,98.9259
rg,1625009877852218169,1,0.5229,-0.2686,0.8406,780,5.4321,52.2461,23.7427,86,0.7944,0.3192,-31.4381,-21.0251,32,0.8844,7937,4.0722,98.9927
rg,1625009877852236277,1,0.5027,-0.2615,0.8479,781,8.4839,43.5181,21.3623,86,0.7944,0.3212,-29.4345,-20.6312,32,0.8834,8163,4.0722,99.1135
rg,1625009877852253663,1,0.4861,-0.2317,0.8638,782,10.437,34.9731,20.9351,92,0.7954,0.3212,-27.7989,-20.1494,32,0.8844,7916,4.0689,99.3371
rg,1625009877852270661,1,0.4873,-0.2354,0.8708,783,5.8594,28.9917,21.3623,92,0.7964,0.3232,-26.4411,-19.9211,33,0.8844,8010,4.0689,99.6956
rg,1625009877852288880,1,0.479,-0.2817,0.8538,784,0.7324,20.0195,16.6016,92,0.7954,0.3232,-25.5224,-19.9927,33,0.8794,7937,4.0689,100.0532
rg,1625009877852307488,1,0.4624,-0.293,0.8743,785,2.0142,14.5874,15.625,92,0.7964,0.3232,-24.8004,-20.0314,33,0.8844,8048,4.0689,100.4531
rg,1625009877852326781,1,0.4646,-0.2832,0.8792,786,4.8828,10.7422,15.1978,92,0.7974,0.3222,-24.2601,-19.9402,33,0.8844,7956,4.0689,100.8807
rg,1625009877852344852,1,0.4871,-0.2632,0.8616,787,7.3242,-4.3945,14.8315,92,0.7974,0.3262,-24.3813,-19.8088,33,0.8804,8161,4.0689,101.5093
rg,1625009877852363886,1,0.4954,-0.259,0.8655,788,6.8359,-7.3242,12.5732,92,0.7984,0.3262,-24.7446,-19.7382,33,0.8854,8011,4.0689,102.0347
rg,1625009877852381198,1,0.5071,-0.2537,0.8655,789,3.2959,-10.1929,11.5356,92,0.7974,0.3272,-25.1477,-19.7378,33,0.8864,8228,4.0689,102.609
rg,1625009877852398677,1,0.4949,-0.2502,0.8645,790,1.0986,-16.0522,10.0098,92,0.7984,0.3282,-25.7533,-19.8332,33,0.8844,8078,4.0689,103.2064
rg,1625009877852416155,1,0.4734,-0.2461,0.8745,791,-0.7935,-25.2686,6.4697,92,0.7994,0.3272,-26.6767,-19.9875,33,0.8854,8276,4.0689,103.7899
rg,1625009877852437485,1,0.4614,-0.2393,0.8865,792,-2.6855,-30.9448,5.6152,92,0.7994,0.3262,-27.753,-20.222,33,0.8854,8086,4.0689,104.417
rg,1625009877852456945,1,0.4688,-0.2454,0.8694,793,-4.4556,-42.1753,2.4414,92,0.7994,0.3282,-29.2752,-20.5847,33,0.8854,8108,4.0689,105.1068
rg,1625009877852508659,1,0.4773,-0.2673,0.8601,794,-6.1646,-50.354,1.2817,92,0.7994,0.3282,-31.0701,-21.1349,33,0.8854,8559,4.0689,105.926
rg,1625009877852535599,1,0.488,-0.269,0.8594,795,-4.8828,-54.3213,1.2817,92,0.8004,0.3272,-33.1251,-21.7283,33,0.8854,8270,4.0689,106.8755
rg,1625009877852555910,1,0.5232,-0.2749,0.8403,796,-4.5166,-61.5234,0.4272,92,0.8004,0.3262,-35.2811,-22.3918,33,0.8854,8402,4.0689,107.9314
rg,1625009877852574833,1,0.5571,-0.2698,0.8232,797,-2.2583,-66.1011,-0.6104,92,0.7984,0.3282,-37.6087,-23.0364,33,0.8874,8787,4.0689,109.072
rg,1625009877852594941,1,0.5889,-0.262,0.8052,798,-1.6479,-66.2842,-1.8921,92,0.8004,0.3272,-39.9418,-23.6745,32,0.8854,8312,4.0689,110.2046
rg,1625009877852614586,1,0.6094,-0.2549,0.793,799,-2.7466,-66.1011,-0.9766,92,0.8004,0.3272,-42.2036,-24.4364,32,0.8854,10021,4.0689,111.4285
rg,1625009877852633305,1,0.6323,-0.2546,0.7812,800,-1.9531,-64.6362,-0.1831,92,0.8014,0.3282,-44.3079,-25.1881,32,0.8864,8613,4.0689,112.694
rg,1625009878213311201,1,0.6782,-0.2324,0.7566,801,-0.6714,-55.4199,3.9673,92,0.8004,0.3292,-45.9859,-25.9831,33,0.8854,26172,4.0689,113.9871
rg,1625009878213375340,1,0.6992,-0.2388,0.7427,802,-1.3428,-43.8232,5.6152,92,0.8014,0.3292,-47.2829,-26.7149,33,0.8854,13625,4.0689,115.16
rg,1625009878213397503,1,0.7095,-0.2432,0.7373,803,0,-32.8369,8.606,92,0.8014,0.3292,-48.0969,-27.3314,33,0.8844,7762,4.0689,116.2291
rg,1625009878213416667,1,0.7158,-0.2434,0.7329,804,1.1597,-22.8271,11.5967,92,0.8024,0.3302,-48.4802,-27.821,33,0.8854,8016,4.0689,117.1864
rg,1625009878213434553,1,0.718,-0.2383,0.7329,805,2.1973,-17.8223,13.1836,92,0.8014,0.3302,-48.6458,-28.2023,33,0.8854,7852,4.0689,118.0686
rg,1625009878213452180,1,0.7112,-0.2378,0.728,806,3.418,-9.0942,16.0522,92,0.8024,0.3292,-48.439,-28.4498,33,0.8854,7948,4.0689,118.8431
rg,1625009878213470677,1,0.7012,-0.2351,0.7371,807,3.418,-0.2441,18.0054,92,0.8024,0.3292,-47.868,-28.5444,33,0.8854,9140,4.0689,119.4361
rg,1625009878213489304,1,0.6833,-0.2327,0.7454,808,4.0283,5.5542,20.3247,92,0.8024,0.3302,-47.0356,-28.545,33,0.8854,7934,4.0689,119.9597
rg,1625009878213551535,1,0.6831,-0.2322,0.7461,809,4.5776,10.2539,19.5923,92,0.8024,0.3312,-45.9257,-28.4645,33,0.8854,7856,4.0689,120.4061
rg,1625009878213573847,1,0.6799,-0.2371,0.7603,810,4.8218,17.0288,23.7427,92,0.8024,0.3312,-44.6776,-28.305,33,0.8854,8058,4.0689,120.7804
rg,1625009878213591455,1,0.667,-0.252,0.7693,811,5.188,23.7427,24.1699,92,0.8024,0.3312,-43.1938,-28.048,33,0.8854,7911,4.0689,121.0265
rg,1625009878213608193,1,0.6426,-0.2498,0.7722,812,6.4697,27.2217,24.7192,92,0.8024,0.3312,-41.4958,-27.6704,33,0.8844,8109,4.0689,121.1816
rg,1625009878213625691,1,0.6333,-0.2502,0.7849,813,7.019,30.8838,26.2451,92,0.8044,0.3312,-39.7748,-27.2805,33,0.8864,7931,4.0689,121.3735
rg,1625009878213642725,1,0.6113,-0.249,0.7859,814,7.9346,32.8979,27.4658,92,0.8024,0.3312,-37.9904,-26.867,33,0.8804,8116,4.0689,121.5971
rg,1625009878213660407,1,0.6006,-0.2483,0.7947,815,8.4229,33.0811,28.3203,92,0.8024,0.3312,-36.2061,-26.4681,32,0.8844,7983,4.0689,121.8529
rg,1625009878213681293,1,0.593,-0.2463,0.814,816,8.2397,33.8745,28.1372,92,0.8024,0.3322,-34.4545,-26.0403,32,0.8844,11164,4.0689,122.1197
rg,1625009878213698976,1,0.5862,-0.2439,0.8142,817,7.8125,33.9966,27.5269,92,0.8024,0.3322,-32.7546,-25.6288,32,0.8844,8102,4.0689,122.3865
rg,1625009878213716973,1,0.5654,-0.2361,0.8213,818,7.6904,31.8604,26.9165,92,0.8034,0.3322,-31.1828,-25.2083,33,0.8834,12450,4.0689,122.6777
rg,1625009878213734341,1,0.5459,-0.2344,0.8318,819,7.6904,32.4097,25.9399,92,0.8034,0.3322,-29.6808,-24.752,33,0.8834,8105,4.0689,122.8688
rg,1625009878213751097,1,0.5303,-0.2476,0.8518,820,4.0283,31.0059,23.1934,92,0.8034,0.3332,-28.2231,-24.4342,33,0.8834,8189,4.0689,123.0712
rg,1625009878213770354,1,0.4993,-0.2664,0.844,821,3.9062,28.6865,23.5596,92,0.8034,0.3342,-26.842,-24.2043,33,0.8834,8041,4.0689,123.3728
rg,1625009878213787129,1,0.4905,-0.2705,0.8601,822,4.9438,22.522,24.4751,92,0.8034,0.3342,-25.6908,-23.9986,32,0.8834,8349,4.0689,123.835
rg,1625009878213804978,1,0.4841,-0.272,0.8572,823,6.0425,18.0664,23.1323,92,0.8034,0.3352,-24.7605,-23.7657,32,0.8844,8462,4.0689,124.3345
rg,1625009878213860858,1,0.4958,-0.2603,0.8721,824,6.3477,7.6904,21.4233,92,0.8034,0.3362,-24.2876,-23.535,32,0.8834,8829,4.0689,124.9424
rg,1625009878213887262,1,0.4946,-0.2671,0.8647,825,5.127,0.5493,20.5078,92,0.8034,0.3362,-24.1125,-23.416,32,0.8834,8189,4.0689,125.6539
rg,1625009878213904333,1,0.4888,-0.2632,0.8538,826,4.0894,-0.9766,19.3481,92,0.8044,0.3372,-24.1243,-23.2975,33,0.8844,8281,4.0689,126.3272
rg,1625009878213921257,1,0.4927,-0.2615,0.8674,827,2.8687,-6.2866,17.4561,92,0.8044,0.3352,-24.252,-23.2611,33,0.8854,8198,4.0689,127.0343
rg,1625009878213942846,1,0.4983,-0.2676,0.8628,828,1.709,-9.4604,17.2119,92,0.8044,0.3362,-24.5073,-23.3117,33,0.8844,8388,4.0689,127.7956
rg,1625009878213959528,1,0.5032,-0.2795,0.8635,829,1.0376,-14.4043,15.8081,92,0.8044,0.3372,-24.9582,-23.4319,33,0.8834,8203,4.0689,128.5988
rg,1625009878213979007,1,0.51,-0.2769,0.8596,830,1.2207,-15.9302,14.7095,92,0.8054,0.3382,-25.5095,-23.5479,33,0.8834,8422,4.0689,129.388
rg,1625009878213997578,1,0.5288,-0.2654,0.8442,831,2.8687,-18.6768,13.4888,92,0.8054,0.3382,-26.1851,-23.5813,33,0.8854,8301,4.0689,130.1678
rg,1625009878214016112,1,0.5396,-0.2583,0.8503,832,1.8311,-18.0664,13.4888,92,0.8054,0.3382,-26.8279,-23.6403,33,0.8834,8473,4.0689,130.9295
rg,1625009878574305307,1,0.5479,-0.2539,0.835,833,1.8921,-17.8833,12.7563,92,0.8044,0.3392,-27.4989,-23.7082,32,0.8824,25548,4.0689,131.6691
rg,1625009878574351189,1,0.5642,-0.26,0.8311,834,2.2583,-16.2964,14.5874,92,0.8044,0.3382,-28.0712,-23.7937,32,0.8824,16728,4.0689,132.4569
rg,1625009878574371630,1,0.5669,-0.251,0.8298,835,3.2349,-14.5874,14.5264,92,0.8044,0.3392,-28.4991,-23.7815,32,0.8834,7698,4.0689,133.184
rg,1625009878574390794,1,0.5693,-0.2437,0.8337,836,4.0283,-12.0239,16.5405,92,0.8044,0.3392,-28.8584,-23.7693,32,0.8824,7876,4.0689,133.9568
rg,1625009878574409587,1,0.5718,-0.2454,0.8335,837,2.3193,-7.8125,16.2964,92,0.8044,0.3392,-29.058,-23.7919,32,0.8834,7750,4.0689,134.6444
rg,1625009878574428566,1,0.5649,-0.2551,0.8296,838,0.9155,-6.1646,16.1133,92,0.8054,0.3392,-29.1277,-23.8957,32,0.8834,7888,4.0689,135.3144
rg,1625009878574511701,1,0.5371,-0.27,0.845,839,2.2583,-3.6621,15.8691,92,0.8054,0.3392,-29.0836,-23.9159,32,0.8834,8295,4.0689,135.926
rg,1625009878574535883,1,0.5376,-0.2615,0.8425,840,3.54,-4.6387,16.9678,92,0.8054,0.3392,-29.0957,-23.8733,32,0.8834,12533,4.0689,136.5585
rg,1625009878574554880,1,0.542,-0.2568,0.8408,841,4.2725,-6.2866,17.6392,92,0.8054,0.3392,-29.1397,-23.8469,32,0.8834,7913,4.0689,137.2805
rg,1625009878574573636,1,0.5513,-0.248,0.8333,842,3.6011,-5.0659,16.8457,92,0.8054,0.3392,-29.1802,-23.8084,33,0.8824,7782,4.0689,137.9405
rg,1625009878574591633,1,0.5413,-0.2549,0.8457,843,0.9155,-2.9297,16.0522,92,0.8054,0.3392,-29.1191,-23.8475,33,0.8834,9573,4.0689,138.5305
rg,1625009878574608890,1,0.5327,-0.2568,0.8438,844,0.9766,-1.1597,14.5874,92,0.8054,0.3392,-29.0046,-23.8409,33,0.8834,7857,4.0689,139.0276
rg,1625009878574638923,1,0.5205,-0.2666,0.855,845,1.0376,-3.6011,14.7705,92,0.8054,0.3392,-28.9415,-23.8693,33,0.8834,9187,4.0689,139.5841
rg,1625009878574657290,1,0.5276,-0.2637,0.8494,846,2.5635,-6.4087,15.8691,92,0.8054,0.3402,-28.9856,-23.8816,32,0.8834,8533,4.0689,140.2375
rg,1625009878574674787,1,0.5334,-0.2627,0.8428,847,2.6245,-6.1646,14.4043,92,0.8064,0.3402,-29.061,-23.8636,32,0.8834,8117,4.0689,140.8269
rg,1625009878574693044,1,0.5344,-0.2627,0.8494,848,3.2959,-6.3477,14.8926,92,0.8054,0.3382,-29.1275,-23.8267,32,0.8854,7993,4.0689,141.4381
rg,1625009878574710708,1,0.5352,-0.2617,0.8457,849,2.8687,-6.4087,15.4419,92,0.8064,0.3402,-29.1905,-23.8216,32,0.8844,8126,4.0689,142.0746
rg,1625009878574728724,1,0.5339,-0.2571,0.8411,850,2.5635,-5.3711,15.686,92,0.8064,0.3402,-29.214,-23.8177,32,0.8834,8026,4.0689,142.6985
rg,1625009878574746591,1,0.5286,-0.2527,0.8491,851,3.0518,-5.0659,15.7471,92,0.8064,0.3402,-29.2081,-23.7755,32,0.8834,8177,4.0689,143.3107
