name,time,activity,ax,ay,az,batch_val,gx,gy,gz,ibat,index,middle,pitch,roll,temp,thumb,ts,vbat,yaw
lg,1625569128173862229,0,-0.1831,-0.2905,1.0117,1,-6.7749,-61.5234,9.3384,70,1.5498,1.5938,19.2585,-17.2907,30,0.2671,20804,3.982,-154.0241
lg,1625569128173907210,0,-0.0923,-0.2993,1.0225,2,-5.6763,-73.7915,10.8643,70,1.5498,1.5938,15.8829,-17.0381,30,0.2671,8452,3.982,-152.6504
lg,1625569128173928599,0,0.0623,-0.2734,1.0442,3,-2.8687,-79.1016,12.6953,70,1.5498,1.5948,12.2663,-16.7002,30,0.2671,8968,3.982,-151.1754
lg,1625569128173948266,0,0.1865,-0.2964,1.0168,4,-0.061,-55.481,8.4839,70,1.5498,1.5938,9.3829,-16.4974,30,0.2671,8557,3.982,-150.1947
lg,1625569128173967506,0,0.2458,-0.2971,0.9934,5,0,-33.9355,7.3242,70,1.5488,1.5948,8.1997,-16.4604,30,0.2671,7814,3.982,-149.9883
lg,1625569128173987081,0,0.2449,-0.2896,0.9751,6,-0.5493,16.9067,-1.4038,70,1.5498,1.5938,7.9878,-16.5161,30,0.2681,8911,3.982,-150.2374
lg,1625569128174006118,0,0.1895,-0.2791,0.9414,7,-1.2817,64.7583,-6.5918,70,1.5498,1.5938,9.6491,-16.7168,30,0.2681,9550,3.982,-151.2438
lg,1625569128174023969,0,-0.3706,-0.3625,0.8857,8,0.1831,-83.9233,62.1338,108,1.4667,1.5658,7.6039,-16.4048,30,0.2601,14098,3.9215,-147.8978
lg,1625569128174041636,0,-0.1406,-0.625,0.9692,9,-20.9961,-98.8159,58.8379,108,1.4657,1.5668,4.5082,-17.5158,30,0.2611,9176,3.9215,-144.5585
lg,1625569128174059821,0,0.0117,-0.7393,1.0076,10,-16.0522,-84.8389,55.7251,108,1.4657,1.5668,1.7967,-18.7057,30,0.2631,7944,3.9215,-141.4351
lg,1625569128174078321,0,0.1729,-0.6689,0.8848,11,3.2349,-27.3438,28.4424,108,1.4657,1.5678,0.7198,-19.248,30,0.2651,8857,3.9215,-140.0234
lg,1625569128174096395,0,-0.0525,-0.6111,0.8127,12,10.0098,83.8013,5.3711,108,1.4727,1.5688,4.0294,-19.5702,30,0.2681,9264,3.9215,-140.9475
lg,1625569128174114136,0,-0.3389,-0.6133,0.9087,13,19.7144,140.3809,-15.5029,108,1.4797,1.5668,9.6064,-19.618,30,0.2671,10227,3.9215,-143.4729
lg,1625569128174132155,0,-0.4485,-0.6226,0.7815,14,27.3438,131.5918,-33.5083,108,1.4827,1.5668,14.6719,-19.8634,30,0.2641,8671,3.9215,-146.6993
lg,1625569128174149655,0,-0.5837,-0.5566,0.6069,15,25.6958,121.0938,-37.4756,108,1.4847,1.5638,18.7669,-20.6189,30,0.2621,9009,3.9215,-149.8056
lg,1625569128174167062,0,-0.6653,-0.5149,0.5911,16,11.7798,82.8857,-24.1089,108,1.4857,1.5618,22.3602,-21.5775,31,0.2631,8864,3.9215,-152.2594
lg,1625569128174184358,0,-0.6545,-0.5596,0.7732,17,-11.5356,51.6968,27.2217,108,1.4847,1.5618,25.1651,-22.4353,31,0.2691,8748,3.9215,-152.2019
lg,1625569128174201840,0,-0.7817,-0.5566,0.894,18,-23.0713,17.8833,38.0249,108,1.4887,1.5638,26.8615,-23.1339,31,0.2731,8471,3.9215,-151.0941
lg,1625569128174219192,0,-0.7305,-0.5679,0.8833,19,-30.2124,-51.6968,58.5938,108,1.4867,1.5668,26.209,-23.1955,31,0.2731,8823,3.9215,-147.9281
lg,1625569128174236099,0,-0.7153,-0.5862,0.8828,20,-36.6211,-82.4585,54.3823,108,1.4817,1.5668,23.263,-23.6219,30,0.2731,8969,3.9215,-144.2536
lg,1625569128174253729,0,-0.448,-0.4927,1.0339,21,-38.0859,-139.7705,46.3257,108,1.4747,1.5678,18.8296,-23.6896,30,0.2721,8830,3.9215,-140.054
lg,1625569128174270988,0,-0.3591,-0.4626,0.3745,22,-9.3994,-163.3911,-1.0986,108,1.4697,1.5658,13.4152,-24.2308,30,0.2711,8903,3.9215,-137.6292
lg,1625569128174288395,0,-0.2329,-0.5261,0.5603,23,-7.019,-103.2715,9.5215,108,1.4677,1.5658,9.9906,-24.7975,30,0.2691,9083,3.9215,-135.6883
lg,1625569128174305877,0,-0.4419,-0.4717,0.6528,24,1.709,-13.7939,6.7749,108,1.4647,1.5658,10.34,-25.0254,30,0.2671,8979,3.9215,-135.2691
lg,1625569128174322784,0,-0.3267,-0.4497,0.8718,25,7.6904,-7.9956,24.353,108,1.4637,1.5668,10.2284,-24.6847,30,0.2681,8910,3.9215,-133.5549
lg,1625569128174339747,0,-0.2444,-0.5713,0.8867,26,-1.5259,-32.2266,34.0576,108,1.4637,1.5678,9.7443,-24.7429,30,0.2701,8930,3.9215,-131.8058
lg,1625569128174358395,0,-0.2195,-0.6582,0.8457,27,4.1504,3.1738,25.7568,108,1.4657,1.5688,10.3712,-24.9285,30,0.2711,8972,3.9215,-130.9978
lg,1625569128174375969,0,-0.302,-0.54,0.8284,28,9.0942,33.9966,20.752,108,1.4677,1.5678,12.2111,-24.8377,30,0.2751,8996,3.9215,-130.8712
lg,1625569128174392840,0,-0.3716,-0.6089,0.8923,29,10.0708,37.6587,20.3857,108,1.4727,1.5678,14.1849,-24.7668,30,0.2781,9123,3.9215,-130.838
lg,1625569128174410099,0,-0.2236,-0.5747,0.9473,30,21.6675,27.71,13.3057,108,1.4797,1.5658,15.3001,-24.1493,30,0.2791,9107,3.9215,-130.8767
lg,1625569128174427414,0,-0.1567,-0.6907,0.7854,31,26.2451,33.3862,3.9673,108,1.4847,1.5628,16.7876,-24.2653,30,0.2771,9566,3.9215,-132.2299
lg,1625569128174444192,0,-0.3459,-0.6023,0.6138,32,12.6953,70.6177,-1.2817,108,1.4867,1.5618,19.5574,-24.9198,30,0.2801,9540,3.9215,-133.7426
lg,1625569128554341673,0,-0.7483,-0.5015,0.8132,33,-30.5786,16.2964,50.9033,108,1.4797,1.5688,21.6526,-25.8178,30,0.2841,27864,3.9215,-132.1714
lg,1625569128554396099,0,-0.5188,-0.4338,0.7646,34,-4.9438,-67.5049,17.4561,108,1.4737,1.5688,19.8781,-25.4621,30,0.2821,11499,3.9215,-130.2912
lg,1625569128554428043,0,-0.4941,-0.582,0.7358,35,-15.564,-73.1201,13.5498,108,1.4707,1.5688,17.9427,-25.8119,30,0.2801,8541,3.9215,-128.5293
lg,1625569128554458080,0,-0.4727,-0.4133,0.512,36,0.8545,-59.9976,13.855,108,1.4687,1.5688,16.7328,-25.7267,30,0.2781,8201,3.9215,-127.0425
lg,1625569128554489025,0,-0.52,-0.5491,0.8933,37,-1.2817,-25.5127,20.0195,108,1.4677,1.5698,16.5427,-25.6391,30,0.2791,8132,3.9215,-125.8865
lg,1625569128554518173,0,-0.3196,-0.585,0.8618,38,1.0376,-58.7769,26.001,108,1.4677,1.5698,14.9008,-25.3758,30,0.2811,12668,3.9215,-123.9508
lg,1625569128554589358,0,-0.1875,-0.6118,0.8142,39,4.5776,-20.5078,24.292,108,1.4687,1.5698,14.4096,-25.3268,30,0.2831,8562,3.9215,-122.7979
lg,1625569128554619173,0,-0.2937,-0.5754,0.803,40,8.728,23.8037,13.4888,108,1.4717,1.5708,15.587,-25.3532,30,0.2851,9022,3.9215,-122.8159
lg,1625569128554703543,0,-0.4314,-0.6113,0.8635,41,9.9487,41.0767,10.1318,108,1.4747,1.5698,17.6298,-25.3936,30,0.2861,8622,3.9215,-123.4026
lg,1625569128554734395,0,-0.4226,-0.5869,0.9036,42,15.564,42.3584,6.897,108,1.4797,1.5688,19.4232,-25.2204,30,0.2861,8620,3.9215,-123.9939
lg,1625569128554762969,0,-0.2856,-0.5657,0.8521,43,25.5127,31.8604,-2.5635,108,1.4827,1.5718,20.3817,-24.7635,30,0.2841,9509,3.9215,-124.7795
lg,1625569128554790803,0,-0.2959,-0.6389,0.7217,44,22.522,50.354,-15.3809,108,1.4837,1.5638,21.8359,-25.0721,30,0.2771,8858,3.9215,-126.5234
lg,1625569128554818858,0,-0.3542,-0.4883,0.6797,45,16.0522,65.0024,-3.1738,108,1.4837,1.5618,24.1736,-25.3634,30,0.2761,7968,3.9215,-128.0108
lg,1625569128554847062,0,-0.429,-0.5244,0.7188,46,0.1831,72.0215,11.8408,108,1.4837,1.5618,27.0294,-26.1676,30,0.2821,7960,3.9215,-129.104
lg,1625569128554874395,0,-0.6482,-0.6372,0.8347,47,-25.9399,73.9746,31.7383,108,1.4827,1.5668,30.4175,-27.7374,30,0.2841,9832,3.9215,-129.5447
lg,1625569128554904117,0,-0.8196,-0.5198,0.7903,48,-34.2407,33.6914,50.6592,108,1.4817,1.5678,32.9613,-28.5812,30,0.2821,10113,3.9215,-128.2955
lg,1625569128554933006,0,-0.7886,-0.4868,0.9238,49,-40.4663,-40.4053,50.0488,108,1.4767,1.5678,32.6588,-28.5217,30,0.2811,9311,3.9215,-125.2581
lg,1625569128554962340,0,-0.4941,-0.4756,0.438,50,-1.5259,-109.5581,12.6343,108,1.4717,1.5678,29.2866,-27.7424,30,0.2751,8887,3.9215,-122.6815
lg,1625569128554991877,0,-0.356,-0.5444,0.6108,51,-11.1694,-79.2236,12.2681,108,1.4687,1.5658,26.5194,-27.7366,30,0.2701,8859,3.9215,-120.7918
lg,1625569128555020043,0,-0.408,-0.4441,0.4255,52,3.418,-57.9834,1.77,108,1.4667,1.5658,24.8239,-27.7091,30,0.2671,8111,3.9215,-119.8165
lg,1625569128555048154,0,-0.5688,-0.4702,0.8677,53,3.2349,14.2212,12.9395,108,1.4667,1.5638,25.7618,-27.5081,30,0.2661,9260,3.9215,-119.61
lg,1625569128555076173,0,-0.407,-0.5217,0.8445,54,1.0986,-41.0156,25.7568,108,1.4657,1.5688,24.6385,-26.8425,30,0.2661,8936,3.9215,-117.8382
lg,1625569128555105858,0,-0.2842,-0.6362,0.8271,55,2.1362,-13.0005,18.0664,108,1.4667,1.5688,24.1414,-26.7987,30,0.2681,8917,3.9215,-117.0575
lg,1625569128555133728,0,-0.3311,-0.5696,0.7708,56,8.9111,16.2964,7.6294,108,1.4687,1.5708,24.663,-26.8413,30,0.2701,8596,3.9215,-117.2431
lg,1625569128555163006,0,-0.387,-0.5496,0.8203,57,8.7891,36.499,5.9814,108,1.4717,1.5688,26.1013,-27.0126,30,0.2721,8990,3.9215,-117.872
lg,1625569128555190117,0,-0.5066,-0.5999,0.8425,58,10.2539,42.2974,4.2725,128,1.4757,1.5648,27.6794,-27.2459,30,0.2721,9012,3.9138,-118.7156
lg,1625569128555216895,0,-0.4329,-0.5566,0.8535,59,18.6768,29.9683,0.5493,128,1.4777,1.5678,28.5641,-27.018,30,0.2691,9069,3.9138,-119.4266
lg,1625569128555245525,0,-0.3279,-0.616,0.7866,60,24.8413,34.79,-15.4419,128,1.4817,1.5648,29.1178,-27.1443,30,0.2621,9033,3.9138,-121.0049
lg,1625569128555272858,0,-0.3457,-0.7183,0.748,61,26.6724,58.1665,-26.8555,128,1.4827,1.5618,30.2873,-27.9431,30,0.2551,9118,3.9138,-123.6892
lg,1625569128555300821,0,-0.3147,-0.6287,0.6555,62,27.5879,65.5518,-25.4517,128,1.4847,1.5568,32.0406,-28.8633,30,0.2521,8766,3.9138,-126.3949
lg,1625569128555328358,0,-0.3406,-0.4663,0.6104,63,15.9302,69.458,-6.3477,128,1.4847,1.5528,34.0091,-29.6123,30,0.2531,9039,3.9138,-128.4749
lg,1625569128555358173,0,-0.4438,-0.5112,0.6907,64,-15.0757,85.3882,23.6816,128,1.4847,1.5528,37.148,-31.1512,30,0.2611,9132,3.9138,-129.7631
lg,1625569128958564913,0,-1.0181,-0.6057,0.7979,65,-49.8047,-13.0615,55.3589,128,1.4727,1.5648,36.6522,-31.2414,30,0.2631,30023,3.9138,-125.7861
lg,1625569128958610636,0,-0.6147,-0.3054,0.552,66,-4.5166,-149.1089,20.4468,128,1.4657,1.5598,31.2147,-29.823,30,0.2561,15212,3.9138,-121.6287
lg,1625569128958632617,0,-0.2898,-0.6743,1.0745,67,-27.832,-156.7383,20.0195,128,1.4637,1.5578,25.4606,-28.9893,30,0.2511,8495,3.9138,-117.3853
lg,1625569128958652969,0,-0.3943,-0.5117,0.4177,68,-8.2397,-136.7798,-15.9912,128,1.4607,1.5578,20.6601,-29.1998,30,0.2481,8533,3.9138,-115.4298
lg,1625569128958671821,0,-0.1873,-0.5056,0.8147,69,10.9253,-61.5845,22.8271,128,1.4597,1.5588,18.5651,-28.1587,30,0.2471,8485,3.9138,-113.3609
lg,1625569128958698413,0,-0.1782,-0.4912,0.7009,70,2.6245,-31.6162,18.4326,128,1.4577,1.5608,17.5323,-27.92,31,0.2471,9969,3.9138,-112.1378
lg,1625569128958724487,0,-0.2852,-0.5994,0.7607,71,5.6152,46.6309,22.0947,128,1.4587,1.5628,19.5472,-28.1317,31,0.2491,9508,3.9138,-112.3657
lg,1625569128958743265,0,-0.3743,-0.6035,0.8457,72,12.7563,71.4111,13.5498,128,1.4607,1.5658,22.3192,-28.2428,31,0.2511,8963,3.9138,-113.4007
lg,1625569128958761284,0,-0.5444,-0.5444,0.8555,73,16.1743,67.3828,5.7983,128,1.4647,1.5658,25.0211,-28.2208,31,0.2541,8631,3.9138,-114.6332
lg,1625569128958780450,0,-0.5747,-0.634,0.8738,74,17.0288,44.1895,6.7139,128,1.4707,1.5658,26.8179,-28.1247,30,0.2571,7944,3.9138,-115.426
lg,1625569128958799284,0,-0.4385,-0.5764,0.8821,75,24.1699,17.6392,1.5259,128,1.4767,1.5648,27.2972,-27.5011,30,0.2571,9049,3.9138,-115.8284
lg,1625569128958817784,0,-0.3398,-0.5625,0.801,76,31.25,12.7563,-3.0518,128,1.4817,1.5628,27.3482,-26.9661,30,0.2541,9055,3.9138,-116.4635
lg,1625569128958836339,0,-0.3274,-0.6777,0.7385,77,23.8647,42.0532,-24.4751,128,1.4837,1.5588,28.051,-27.5234,30,0.2511,9086,3.9138,-118.6186
lg,1625569128958855913,0,-0.3201,-0.5659,0.6177,78,25.2686,61.9507,-22.644,128,1.4847,1.5588,29.5498,-28.2112,30,0.2501,9103,3.9138,-121.1515
lg,1625569128958873673,0,-0.4429,-0.5051,0.6475,79,2.3193,75.6226,2.5635,128,1.4847,1.5578,32.1921,-29.3221,30,0.2561,9142,3.9138,-122.942
lg,1625569128958892080,0,-0.5747,-0.6384,0.7971,80,-20.5078,84.1064,25.5737,128,1.4857,1.5588,35.4862,-31.0595,30,0.2581,9176,3.9138,-124.1257
lg,1625569128958909728,0,-0.8345,-0.5481,0.6653,81,-28.8086,52.9785,35.3394,128,1.4857,1.5618,37.5043,-31.9028,30,0.2591,14388,3.9138,-123.0847
lg,1625569128958927080,0,-0.917,-0.5696,0.7329,82,-34.729,-63.5986,49.9878,128,1.4817,1.5648,36.6724,-31.1872,30,0.2601,10799,3.9138,-119.391
lg,1625569128958945710,0,-0.6648,-0.4863,1.0222,83,-32.4707,-106.6284,57.1289,128,1.4777,1.5658,34.1231,-29.353,30,0.2621,8991,3.9138,-114.2044
lg,1625569128958963839,0,-0.6294,-0.4578,0.3938,84,-9.1553,-141.6626,29.0527,128,1.4747,1.5658,30.2585,-27.983,30,0.2601,8959,3.9138,-110.121
lg,1625569128958982006,0,-0.4177,-0.5149,0.6316,85,-4.5166,-133.1787,35.0952,128,1.4717,1.5658,26.0846,-26.6224,30,0.2591,8922,3.9138,-106.1498
lg,1625569128958999599,0,-0.3325,-0.5129,0.7444,86,-0.7324,-116.8823,29.3579,128,1.4697,1.5678,22.1946,-25.5721,30,0.2601,10298,3.9138,-102.8765
lg,1625569128959017321,0,-0.0969,-0.6318,0.895,87,3.7842,-80.7495,32.7759,128,1.4717,1.5678,19.1833,-24.8531,30,0.2631,9331,3.9138,-100.2912
lg,1625569128959035691,0,-0.0776,-0.6245,0.7686,88,10.0098,-2.1973,21.9116,128,1.4717,1.5688,18.9146,-24.7486,30,0.2631,9009,3.9138,-99.6049
lg,1625569128959053117,0,-0.3262,-0.5776,0.8115,89,15.0757,71.8384,8.1787,128,1.4747,1.5678,21.6234,-24.9035,30,0.2651,9352,3.9138,-100.7165
lg,1625569128959072302,0,-0.4519,-0.5874,0.8408,90,15.1978,82.9468,4.0894,128,1.4787,1.5668,24.774,-25.2238,30,0.2671,8664,3.9138,-102.2341
lg,1625569128959090043,0,-0.5063,-0.5293,0.9072,91,23.2544,65.979,-2.8076,128,1.4837,1.5618,27.138,-25.0852,30,0.2681,9400,3.9138,-103.6809
lg,1625569128959107784,0,-0.4697,-0.644,0.7327,92,24.9023,49.8657,-14.5874,128,1.4857,1.5638,28.6561,-25.4636,30,0.2651,9413,3.9138,-105.5404
lg,1625569128959125450,0,-0.4949,-0.5425,0.6697,93,18.3716,41.4429,-13.855,128,1.4857,1.5628,29.9672,-25.9371,30,0.2691,9073,3.9138,-107.1938
lg,1625569128959142747,0,-0.6155,-0.647,0.7283,94,-25.3906,23.9868,24.0479,128,1.4857,1.5638,31.3667,-27.2903,30,0.2731,9091,3.9138,-106.9977
lg,1625569128959160117,0,-0.688,-0.5129,0.7532,95,-32.4707,6.1035,49.5605,128,1.4847,1.5668,32.7202,-27.8057,30,0.2711,9567,3.9138,-105.1906
lg,1625569128959177839,0,-0.717,-0.5037,0.8208,96,-36.9873,-13.1226,52.6123,128,1.4787,1.5688,33.4676,-28.0438,30,0.2711,8471,3.9138,-102.7511
lg,1625569129327137487,0,-0.3284,-0.6394,0.8467,97,-17.9443,-83.1909,20.0806,128,1.4667,1.5618,31.0128,-27.723,30,0.2661,28224,3.9138,-101.4134
lg,1625569129327254524,0,-0.4722,-0.4956,0.771,98,-7.6904,-27.9541,-3.54,128,1.4647,1.5628,30.1047,-27.4883,30,0.2651,10479,3.9138,-100.5653
lg,1625569129327289561,0,-0.2512,-0.6343,0.9216,99,-0.2441,-43.7012,17.7002,128,1.4647,1.5638,28.2043,-27.0048,30,0.2671,13013,3.9138,-99.082
lg,1625569129327319154,0,-0.2593,-0.6704,0.7383,100,14.0381,7.6904,-3.6621,128,1.4677,1.5658,27.9043,-27.2361,30,0.2671,10803,3.9138,-99.6974
lg,1625569129327348821,0,-0.4004,-0.5911,0.7502,101,23.1323,57.9834,-24.9634,128,1.4717,1.5678,29.2945,-27.8289,30,0.2691,10037,3.9138,-102.1424
lg,1625569129327376932,0,-0.5742,-0.6289,0.7886,102,23.0713,70.6177,-32.5317,128,1.4767,1.5688,31.1731,-28.7769,30,0.2711,8551,3.9138,-105.2316
lg,1625569129327404376,0,-0.5381,-0.509,0.7866,103,36.1328,23.9868,-35.5225,128,1.4817,1.5678,31.2727,-28.53,30,0.2721,8234,3.9138,-107.3127
lg,1625569129327431635,0,-0.4636,-0.5508,0.6992,104,38.6353,9.0332,-38.3301,128,1.4817,1.5648,30.7301,-28.5333,30,0.2661,8997,3.9138,-109.4164
lg,1625569129327460339,0,-0.4465,-0.6045,0.5654,105,25.7568,-0.3052,-44.1284,128,1.4827,1.5578,29.8169,-29.1286,30,0.2611,9015,3.9138,-111.5721
lg,1625569129327487950,0,-0.3523,-0.5505,0.6943,106,11.2915,8.728,-11.9629,128,1.4837,1.5438,29.5709,-29.3972,30,0.2581,10090,3.9138,-112.4419
lg,1625569129327516098,0,-0.3574,-0.5764,0.7734,107,-8.3008,35.7666,20.3857,128,1.4857,1.5488,30.8462,-30.032,30,0.2641,8284,3.9138,-112.5965
lg,1625569129327546006,0,-0.5376,-0.614,0.8169,108,-22.2778,48.5229,34.6069,128,1.4847,1.5518,33.0858,-31.0665,30,0.2661,8710,3.9138,-112.501
lg,1625569129327585487,0,-0.7102,-0.575,0.7805,109,-25.4517,49.6826,41.9312,128,1.4847,1.5558,35.9207,-32.0478,30,0.2661,8365,3.9138,-112.166
lg,1625569129327618302,0,-0.7839,-0.5564,0.7078,110,-39.5508,-28.8086,64.1479,128,1.4837,1.5568,36.5024,-31.7962,30,0.2651,8753,3.9138,-108.8347
lg,1625569129327646932,0,-0.7185,-0.6206,0.7646,111,-51.4526,-85.3882,77.2095,128,1.4797,1.5628,35.1938,-30.9286,30,0.2651,9153,3.9138,-103.5443
lg,1625569129327685561,0,-0.1416,-0.553,1.2781,112,-40.7104,-147.7661,83.1909,128,1.4747,1.5628,30.6243,-28.4369,30,0.2671,8811,3.9138,-96.4275
lg,1625569129327713358,0,-0.0735,-0.5742,0.6643,113,-24.6582,-129.3335,40.5884,128,1.4707,1.5618,25.8862,-27.8817,30,0.2661,8891,3.9138,-92.3102
lg,1625569129327740543,0,0.0356,-0.6487,0.8291,114,-27.3438,-81.1768,37.4756,128,1.4697,1.5618,23.9638,-28.0035,30,0.2651,9209,3.9138,-91.0631
lg,1625569129327768376,0,-0.147,-0.6602,0.6575,115,2.5635,12.6953,-0.1831,128,1.4697,1.5628,23.8505,-28.7244,30,0.2661,8723,3.9138,-91.625
lg,1625569129327796802,0,-0.354,-0.5713,0.6343,116,23.6816,74.7681,2.9907,128,1.4707,1.5648,26.4777,-28.9337,30,0.2701,9775,3.9138,-93.3226
lg,1625569129327825339,0,-0.4929,-0.4656,0.7339,117,25.2686,83.1909,-2.6855,128,1.4717,1.5648,29.4379,-28.9582,30,0.2721,10841,3.9138,-95.3161
lg,1625569129327856858,0,-0.6772,-0.5759,0.7974,118,20.9351,67.9932,-5.188,128,1.4747,1.5678,31.8998,-29.2692,30,0.2731,9271,3.9138,-97.1973
lg,1625569129327889580,0,-0.7329,-0.5334,0.7727,119,24.9023,19.7144,-7.2021,128,1.4787,1.5668,32.681,-28.8664,30,0.2761,8973,3.9138,-98.05
lg,1625569129327919247,0,-0.5413,-0.4829,0.8516,120,29.1748,-26.123,-0.9155,128,1.4837,1.5648,31.5913,-27.4346,30,0.2751,8998,3.9138,-97.5163
lg,1625569129327945821,0,-0.3767,-0.5959,0.751,121,23.9258,-31.311,-5.7983,128,1.4867,1.5628,29.9912,-26.7269,30,0.2761,9040,3.9138,-97.3373
lg,1625569129327972728,0,-0.3018,-0.5681,0.8079,122,24.231,-21.6064,-4.5776,128,1.4887,1.5618,29.6002,-26.2961,30,0.2751,8993,3.9138,-97.3961
lg,1625569129327999561,0,-0.395,-0.6436,0.7441,123,-5.7373,20.0195,10.8643,128,1.4897,1.5638,30.2256,-27.1112,30,0.2811,9003,3.9138,-97.6643
lg,1625569129328027098,0,-0.5793,-0.5874,0.8669,124,-23.8647,40.9546,33.2642,128,1.4887,1.5668,32.2327,-28.0823,30,0.2821,9597,3.9138,-97.3161
lg,1625569129328054302,0,-0.7314,-0.5022,0.7334,125,-40.5884,8.7891,45.105,128,1.4857,1.5698,33.6816,-29.0033,30,0.2791,9596,3.9138,-95.7498
lg,1625569129328081006,0,-0.6221,-0.5701,1.0952,126,-44.4336,-44.0674,43.8232,128,1.4807,1.5698,32.7185,-29.1365,30,0.2801,9114,3.9138,-92.8495
lg,1625569129328108543,0,-0.4951,-0.6709,0.7163,127,-19.8975,-75.9277,19.5312,128,1.4757,1.5678,30.2503,-29.1706,30,0.2781,8861,3.9138,-90.6163
lg,1625569129328142543,0,-0.2961,-0.6008,0.6301,128,-4.2725,-78.125,14.3433,128,1.4737,1.5648,27.3867,-28.8359,30,0.2741,9372,3.9138,-88.6171
lg,1625569129747684339,0,-0.3794,-0.5591,0.614,129,5.7983,-17.1509,4.1504,128,1.4707,1.5678,27.1356,-28.7592,30,0.2741,27309,3.9138,-88.3018
lg,1625569129747747487,0,-0.4062,-0.5935,0.7151,130,10.7422,21.7285,12.7563,128,1.4717,1.5698,28.0095,-28.7525,30,0.2761,11291,3.9138,-88.4722
lg,1625569129747769265,0,-0.4968,-0.5815,0.7925,131,12.9395,25.2686,11.8408,128,1.4737,1.5708,29.0721,-28.5681,30,0.2771,9978,3.9138,-88.6927
lg,1625569129747789339,0,-0.5127,-0.5645,0.8103,132,12.3901,13.4277,13.916,128,1.4767,1.5708,29.3723,-28.1744,30,0.2791,8700,3.9138,-88.2105
lg,1625569129747807468,0,-0.4312,-0.6306,0.8232,133,9.7656,-9.5825,20.6909,128,1.4797,1.5708,28.8352,-27.3895,30,0.2801,10172,3.9138,-87.1618
lg,1625569129747826283,0,-0.2346,-0.554,0.835,134,16.0522,-12.146,23.3154,128,1.4837,1.5688,28.214,-26.4432,30,0.2811,8880,3.9138,-86.0983
lg,1625569129747845820,0,-0.1792,-0.6541,0.7561,135,15.1978,26.6724,11.4746,128,1.4857,1.5678,28.6922,-26.4979,30,0.2781,7814,3.9138,-86.4731
lg,1625569129747865913,0,-0.2507,-0.6514,0.7332,136,19.2871,75.8667,5.6763,128,1.4857,1.5638,30.9551,-27.0495,30,0.2731,9629,3.9138,-88.1364
lg,1625569129747886006,0,-0.2944,-0.5916,0.7385,137,20.6909,92.8955,4.9438,128,1.4857,1.5598,34.3459,-27.9844,30,0.2681,8357,3.9138,-90.4732
lg,1625569129747906061,0,-0.4236,-0.582,0.7266,138,13.0005,109.0698,8.606,128,1.4867,1.5558,37.9356,-29.2376,30,0.2661,9013,3.9138,-92.9598
lg,1625569129747925561,0,-0.4814,-0.4944,0.7283,139,5.188,101.2573,27.0386,128,1.4877,1.5538,41.5929,-30.1306,30,0.2691,9040,3.9138,-94.4897
lg,1625569129747943524,0,-0.5894,-0.6426,0.835,140,-22.3389,87.7686,40.9546,128,1.4867,1.5548,44.9327,-31.7339,30,0.2741,9068,3.9138,-95.2728
lg,1625569129747964024,0,-0.7852,-0.5518,0.6929,141,-31.8604,52.002,49.9268,128,1.4907,1.5588,47.5995,-32.6724,30,0.2731,8348,3.9138,-94.6377
lg,1625569129747981598,0,-0.8318,-0.5168,0.6421,142,-38.208,20.1416,52.3682,128,1.4877,1.5618,49.3475,-32.8735,30,0.2721,8368,3.9138,-92.773
lg,1625569129748000006,0,-0.8813,-0.5864,0.7537,143,-45.8374,-38.8794,54.9316,128,1.4827,1.5638,48.9476,-31.7928,30,0.2681,8713,3.9138,-88.8098
lg,1625569129748019413,0,-0.5159,-0.6069,0.9641,144,-46.0815,-119.3237,54.4434,128,1.4767,1.5648,45.0134,-29.0458,30,0.2691,8760,3.9138,-82.5262
lg,1625569129748037413,0,-0.291,-0.6331,0.9924,145,8.3618,-127.8076,10.5591,128,1.4717,1.5628,41.3437,-28.0518,30,0.2671,13385,3.9138,-79.8831
lg,1625569129748054987,0,-0.2764,-0.5647,0.813,146,5.5542,-63.7817,5.249,128,1.4707,1.5638,38.212,-27.0242,30,0.2661,8816,3.9138,-78.3259
lg,1625569129748073468,0,-0.4617,-0.4985,0.5947,147,9.2773,-26.001,-21.6064,128,1.4697,1.5638,36.6233,-27.4209,30,0.2661,8491,3.9138,-79.0298
lg,1625569129748090876,0,-0.468,-0.4971,0.6633,148,15.3198,5.6763,-3.6011,128,1.4697,1.5658,36.4806,-27.3777,30,0.2681,9223,3.9138,-79.558
lg,1625569129748108191,0,-0.5684,-0.4602,0.6387,149,14.6484,29.541,6.5918,128,1.4707,1.5668,37.6204,-27.3557,30,0.2701,9373,3.9138,-80.1457
lg,1625569129748129506,0,-0.6855,-0.5022,0.7996,150,11.5967,40.7715,10.437,128,1.4727,1.5678,39.1796,-27.3809,30,0.2721,9836,3.9138,-80.7494
lg,1625569129748148857,0,-0.7229,-0.6152,0.8354,151,9.2773,4.5776,9.5825,128,1.4757,1.5688,39.3504,-27.1682,30,0.2741,9741,3.9138,-80.6524
lg,1625569129748167894,0,-0.52,-0.5842,0.8518,152,16.7847,-39.3677,9.0942,128,1.4797,1.5688,37.6202,-26.0029,30,0.2741,9331,3.9138,-79.5423
lg,1625569129748186228,0,-0.333,-0.6606,0.7812,153,22.2168,-49.9878,-1.2207,128,1.4837,1.5688,35.0797,-25.169,30,0.2741,9364,3.9138,-78.9277
lg,1625569129748203894,0,-0.1904,-0.6729,0.7288,154,24.1699,-40.1611,-4.0283,128,1.4857,1.5678,33.3633,-25.0704,30,0.2721,9201,3.9138,-79.4553
lg,1625569129748222080,0,-0.1743,-0.6401,0.666,155,21.0571,4.3335,-13.9771,128,1.4867,1.5668,32.4904,-25.4362,30,0.2711,9045,3.9138,-80.6056
lg,1625569129748239691,0,-0.1868,-0.573,0.644,156,15.3198,54.0161,0.061,128,1.4877,1.5658,33.6776,-26.1678,30,0.2711,9440,3.9138,-82.1235
lg,1625569129748257339,0,-0.3904,-0.5881,0.738,157,-5.188,104.0649,15.564,128,1.4887,1.5648,37.219,-27.867,30,0.2791,9412,3.9138,-84.0724
lg,1625569129748274931,0,-0.7019,-0.6294,0.8018,158,-23.9258,107.4219,24.5361,128,1.4897,1.5678,41.3218,-30.2465,30,0.2811,9097,3.9138,-85.9286
lg,1625569129748292987,0,-0.8835,-0.5952,0.7546,159,-40.2222,38.147,32.3486,128,1.4867,1.5698,43.332,-31.8616,30,0.2801,9540,3.9138,-85.7034
lg,1625569129749076172,0,-0.8774,-0.5803,0.7964,160,-53.2227,-46.1426,42.9077,128,1.4807,1.5708,42.6068,-31.8708,30,0.2821,8799,3.9138,-82.4792
lg,1625569130226541283,0,-0.4702,-0.5513,0.5593,161,-24.6582,-94.0552,24.1089,128,1.4727,1.5638,38.9891,-30.4776,30,0.2791,26136,3.9138,-79.8734
lg,1625569130226600709,0,-0.5693,-0.5391,0.5598,162,-9.7046,-85.144,-10.2539,128,1.4707,1.5648,35.7366,-30.1961,30,0.2791,8720,3.9138,-78.3828
lg,1625569130226633839,0,-0.4277,-0.5325,0.73,163,2.1362,-69.0308,25.2075,128,1.4697,1.5658,33.4339,-28.8169,30,0.2801,7781,3.9138,-75.8091
lg,1625569130226665561,0,-0.3149,-0.5906,0.7664,164,-0.2441,-58.4717,22.4609,128,1.4697,1.5668,31.2205,-28.0061,30,0.2811,8522,3.9138,-73.7691
lg,1625569130226695005,0,-0.26,-0.6086,0.7917,165,1.6479,-43.8232,18.3105,92,1.4717,1.5688,29.9932,-27.7036,30,0.2831,8489,3.9578,-72.9435
lg,1625569130226723153,0,-0.3625,-0.5938,0.7947,166,4.9438,15.7471,2.5635,92,1.4737,1.5698,30.2093,-28.0046,30,0.2841,14127,3.9578,-73.3717
lg,1625569130226750709,0,-0.481,-0.6262,0.8252,167,4.5776,28.4424,0.2441,92,1.4767,1.5698,31.0053,-28.5096,30,0.2871,10799,3.9578,-74.1796
lg,1625569130226777709,0,-0.4421,-0.5784,0.8206,168,11.0474,15.3809,2.5024,92,1.4817,1.5688,31.3042,-28.4675,30,0.2871,7838,3.9578,-74.564
lg,1625569130226804950,0,-0.3354,-0.6418,0.7336,169,12.7563,20.752,-7.2021,92,1.4847,1.5688,31.4248,-28.9008,30,0.2861,7906,3.9578,-75.6134
lg,1625569130226832561,0,-0.3799,-0.6914,0.6841,170,8.8501,31.4331,-12.146,92,1.4867,1.5688,31.894,-29.8217,30,0.2861,8637,3.9578,-77.1688
lg,1625569130226860079,0,-0.376,-0.626,0.7058,171,2.9907,41.626,5.6763,92,1.4877,1.5678,33.0519,-30.6102,30,0.2861,9550,3.9578,-78.1983
lg,1625569130226888542,0,-0.4407,-0.6482,0.7192,172,-11.1694,45.2271,16.9678,92,1.4887,1.5698,34.6137,-31.7763,30,0.2881,8542,3.9578,-78.8954
lg,1625569130226916487,0,-0.481,-0.592,0.7063,173,-9.5825,41.748,24.5361,92,1.4897,1.5708,36.2627,-32.541,30,0.2891,9389,3.9578,-79.1665
lg,1625569130226943135,0,-0.5334,-0.6208,0.6904,174,-10.6812,24.5361,28.1372,92,1.4907,1.5718,37.4437,-33.048,30,0.2911,8384,3.9578,-78.8852
lg,1625569130226972950,0,-0.564,-0.6013,0.6399,175,-10.1929,15.0757,32.0435,92,1.4897,1.5718,38.3241,-32.9807,30,0.2941,8786,3.9578,-77.888
lg,1625569130227001876,0,-0.6052,-0.5391,0.6829,176,-7.3853,-0.5493,32.7759,92,1.4907,1.5708,38.8711,-32.5948,30,0.2951,8797,3.9578,-76.594
lg,1625569130227029153,0,-0.5886,-0.5562,0.7529,177,-7.3242,-35.7056,32.959,92,1.4907,1.5718,38.0963,-31.5498,30,0.2961,8025,3.9578,-74.2931
lg,1625569130227056468,0,-0.4673,-0.6431,0.8083,178,-10.3149,-60.8521,37.7197,92,1.4907,1.5718,36.259,-30.3362,30,0.2961,8486,3.9578,-71.2866
lg,1625569130227084042,0,-0.4578,-0.709,0.7808,179,-19.5312,-67.1387,35.0952,92,1.4867,1.5728,33.8563,-30.0615,30,0.2911,8874,3.9578,-68.1395
lg,1625569130227135005,0,-0.3774,-0.7114,0.8083,180,-39.978,-75.9277,45.7764,92,1.4777,1.5728,31.6069,-30.1451,30,0.2921,8659,3.9578,-64.7138
lg,1625569130227164024,0,-0.291,-0.2109,0.4946,181,5.6152,-57.4341,-0.3052,92,1.4707,1.5688,29.4868,-28.9655,30,0.2901,8588,3.9578,-63.251
lg,1625569130227191116,0,-0.3179,-0.6855,1.1936,182,-38.8794,5.5542,-11.1694,92,1.4697,1.5638,28.8052,-30.8193,30,0.2891,8834,3.9578,-63.8262
lg,1625569130227218357,0,-0.623,-0.6099,0.4504,183,-10.9253,15.0146,-10.0098,92,1.4677,1.5608,29.2226,-32.6786,30,0.2881,8552,3.9578,-65.6637
lg,1625569130227244561,0,-0.7563,-0.5732,0.498,184,-0.7935,54.5654,-21.3013,92,1.4657,1.5598,31.1949,-34.3474,30,0.2861,8197,3.9578,-68.1493
lg,1625569130227271339,0,-0.6958,-0.4487,0.8357,185,9.8877,46.7529,15.686,92,1.4637,1.5598,33.2815,-34.0481,30,0.2861,8646,3.9578,-68.6575
lg,1625569130227357172,0,-0.6934,-0.4358,0.5789,186,-11.4136,-22.2778,19.8364,92,1.4607,1.5588,33.393,-33.8313,30,0.2871,9932,3.9578,-67.3198
lg,1625569130227390116,0,-0.5569,-0.6899,0.8865,187,-13.5498,-41.3208,27.0996,92,1.4597,1.5598,32.3413,-33.3577,30,0.2881,8963,3.9578,-65.2425
lg,1625569130227416320,0,-0.2744,-0.677,0.8447,188,0.3052,-89.6606,23.1934,92,1.4597,1.5628,29.1336,-31.9628,30,0.2891,10707,3.9578,-62.2086
lg,1625569130227443505,0,-0.1541,-0.6692,0.7151,189,0.7935,-51.9409,0.8545,92,1.4607,1.5658,26.6295,-31.8163,30,0.2911,10009,3.9578,-61.1677
lg,1625569130227475894,0,-0.2761,-0.7249,0.616,190,8.728,20.2637,-7.9956,92,1.4637,1.5668,26.769,-32.5589,30,0.2931,8582,3.9578,-62.2875
lg,1625569130227508116,0,-0.3792,-0.6965,0.655,191,16.1743,49.6216,-11.1084,92,1.4687,1.5688,28.5457,-32.9458,30,0.2921,8898,3.9578,-64.4904
lg,1625569130227537727,0,-0.4233,-0.6099,0.8169,192,28.9917,65.5518,-13.4888,92,1.4757,1.5678,30.1972,-32.9991,30,0.2911,8626,3.9578,-66.7263
lg,1625569130506342801,0,-0.3384,-0.7209,0.6992,193,25.2686,59.2041,-23.1323,92,1.4817,1.5618,31.2643,-33.8441,30,0.2771,23465,3.9578,-69.4592
lg,1625569130506394987,0,-0.4165,-0.5889,0.6294,194,17.7612,89.5996,-21.6675,92,1.4817,1.5538,33.4941,-35.2577,30,0.2681,10864,3.9578,-72.9168
lg,1625569130506416431,0,-0.4392,-0.5535,0.6707,195,13.0615,95.8252,-13.9771,92,1.4827,1.5468,35.9744,-36.7871,30,0.2651,8565,3.9578,-76.3146
lg,1625569130506437653,0,-0.5793,-0.5376,0.708,196,-4.0283,83.4351,17.4561,92,1.4847,1.5438,38.9049,-38.0838,30,0.2701,8182,3.9578,-78.1864
lg,1625569130506456709,0,-0.7432,-0.7244,0.7808,197,-24.4141,67.1387,31.7993,92,1.4857,1.5438,41.6083,-39.8394,30,0.2731,8781,3.9578,-79.2333
lg,1625569130506474801,0,-0.9673,-0.606,0.7056,198,-28.2593,53.2837,34.4849,92,1.4867,1.5468,43.0892,-40.2438,30,0.2751,8217,3.9578,-77.7556
lg,1625569130506492727,0,-0.9819,-0.5911,0.6482,199,-43.457,-44.1284,53.894,92,1.4837,1.5518,43.2477,-39.4915,30,0.2751,8738,3.9578,-74.0185
lg,1625569130506511116,0,-0.7708,-0.6997,0.707,200,-60.4858,-114.624,75.1953,92,1.4757,1.5558,40.146,-36.3305,30,0.2731,8711,3.9578,-65.433
lg,1625569130506530005,0,-0.4563,-0.6116,0.9507,201,-54.8096,-197.8149,87.4023,92,1.4697,1.5578,34.9349,-32.6899,30,0.2701,8331,3.9578,-56.0494
lg,1625569130506548227,0,-0.1792,-0.5112,0.3979,202,0.2441,-222.8394,22.2778,92,1.4667,1.5578,27.1658,-30.264,30,0.2671,8647,3.9578,-50.2259
lg,1625569130506569301,0,0.1152,-0.6414,0.6938,203,-22.1558,-166.8701,16.9067,92,1.4647,1.5588,20.5105,-29.9324,30,0.2661,8819,3.9578,-46.1696
lg,1625569130506589135,0,-0.0623,-0.6365,0.3823,204,-8.7891,-41.9922,-15.1978,92,1.4637,1.5598,18.3904,-31.1885,30,0.2661,13075,3.9578,-46.1744
lg,1625569130506607135,0,-0.1616,-0.6667,0.54,205,16.3574,74.9512,7.9346,92,1.4617,1.5608,20.8305,-31.7919,30,0.2661,9189,3.9578,-47.807
lg,1625569130506625727,0,-0.3589,-0.4475,0.6101,206,26.2451,145.6299,13.9771,92,1.4617,1.5618,26.2165,-32.0457,30,0.2671,8714,3.9578,-50.7172
lg,1625569130506644598,0,-0.6824,-0.4958,0.8264,207,8.4229,145.6299,18.7378,92,1.4627,1.5628,31.8485,-33.0528,30,0.2701,8725,3.9578,-53.5721
lg,1625569130506663209,0,-0.865,-0.6697,0.8315,208,2.2583,64.5142,12.6953,92,1.4657,1.5648,34.546,-33.8213,30,0.2721,10948,3.9578,-54.8829
lg,1625569130506681653,0,-0.666,-0.6038,0.7939,209,10.2539,-18.4937,23.9258,92,1.4687,1.5648,34.417,-32.7101,30,0.2761,10298,3.9578,-53.4904
lg,1625569130506719968,0,-0.3574,-0.6094,0.7839,210,11.3525,-51.3306,23.0713,92,1.4737,1.5638,32.5993,-31.243,30,0.2781,9332,3.9578,-51.3766
lg,1625569130506752709,0,-0.1616,-0.6699,0.762,211,17.0288,-23.0713,7.1411,92,1.4787,1.5638,31.0651,-30.5741,30,0.2771,9290,3.9578,-50.7815
lg,1625569130506771968,0,-0.1489,-0.6877,0.7041,212,17.7612,41.0767,-1.2207,92,1.4827,1.5618,31.6026,-31.0188,30,0.2771,10483,3.9578,-52.1381
lg,1625569130506790635,0,-0.3662,-0.6677,0.6509,213,12.7563,107.1167,-6.8359,92,1.4837,1.5608,34.6974,-32.7708,30,0.2791,9334,3.9578,-55.4586
lg,1625569130506809338,0,-0.6321,-0.688,0.7285,214,-15.3809,107.7881,15.3809,92,1.4857,1.5618,38.4977,-35.226,30,0.2861,9182,3.9578,-58.085
lg,1625569130506827764,0,-0.8293,-0.6064,0.6077,215,-27.8931,90.9424,27.6489,92,1.4867,1.5638,41.793,-37.3791,30,0.2841,9024,3.9578,-58.8487
lg,1625569130506845542,0,-0.874,-0.5425,0.6604,216,-42.6636,37.5366,44.7388,92,1.4827,1.5638,44.2057,-38.6919,30,0.2801,8682,3.9578,-58.2388
lg,1625569130506864172,0,-0.9612,-0.5566,0.7808,217,-39.4287,-22.2168,46.814,92,1.4777,1.5668,44.6998,-38.1367,30,0.2801,9421,3.9578,-55.3047
lg,1625569130506882635,0,-0.5417,-0.584,0.6968,218,-12.207,-119.2627,21.4844,92,1.4717,1.5648,40.8692,-35.4182,30,0.2761,9079,3.9578,-50.5218
lg,1625569130506900746,0,-0.2998,-0.7368,0.7905,219,-22.2778,-127.4414,7.019,92,1.4707,1.5628,35.9092,-34.1794,30,0.2721,9179,3.9578,-46.7496
lg,1625569130506919061,0,-0.3933,-0.5435,0.3269,220,-0.9766,-88.501,-14.8315,92,1.4687,1.5618,32.6001,-34.1666,30,0.2711,9250,3.9578,-45.5004
lg,1625569130506936394,0,-0.52,-0.552,0.4983,221,7.9956,-9.3994,3.9062,92,1.4647,1.5638,32.4922,-34.1462,30,0.2711,10948,3.9578,-45.3757
lg,1625569130506954264,0,-0.4854,-0.531,0.7732,222,14.0381,-13.916,20.3857,92,1.4687,1.5658,32.2702,-32.9647,30,0.2711,9695,3.9578,-44.21
lg,1625569130506971505,0,-0.356,-0.646,0.7688,223,14.2212,-36.1328,14.4043,92,1.4717,1.5668,30.8676,-31.9245,30,0.2721,9240,3.9578,-42.8929
lg,1625569130506988746,0,-0.3069,-0.6658,0.7432,224,19.8364,-10.3149,5.3101,92,1.4767,1.5678,30.0995,-31.3269,30,0.2741,9223,3.9578,-42.6552
lg,1625569130917086746,0,-0.2603,-0.5483,0.8164,225,31.1279,40.9546,-8.8501,92,1.4857,1.5638,31.1316,-31.7421,30,0.2721,26715,3.9578,-44.9162
lg,1625569130917158320,0,-0.3398,-0.7322,0.6953,226,20.1416,71.9604,-26.3672,92,1.4867,1.5608,32.5155,-33.0839,30,0.2681,8659,3.9578,-48.1136
lg,1625569130917179949,0,-0.4429,-0.6626,0.635,227,22.3999,93.4448,-24.6582,92,1.4857,1.5588,34.8,-34.6729,30,0.2701,8539,3.9578,-51.9051
lg,1625569130917199357,0,-0.6672,-0.6968,0.6394,228,-18.0054,75.9888,1.5259,92,1.4877,1.5608,37.3079,-37.1531,30,0.2751,11136,3.9578,-54.3474
lg,1625569130917218616,0,-0.8452,-0.5837,0.5857,229,-38.0249,4.3945,38.6963,92,1.4867,1.5648,38.7143,-38.0551,30,0.2701,13000,3.9578,-53.0904
lg,1625569130917236542,0,-0.8923,-0.5637,0.6956,230,-36.1938,-59.3262,45.7764,92,1.4817,1.5668,38.1991,-37.2118,30,0.2711,11275,3.9578,-49.3905
lg,1625569130917257857,0,-0.4915,-0.4871,0.8843,231,-4.8218,-139.4653,31.9824,92,1.4787,1.5668,33.9532,-33.9068,30,0.2661,9043,3.9578,-43.8547
lg,1625569130917276246,0,-0.3271,-0.7002,0.7969,232,-27.5269,-152.2827,9.0332,92,1.4757,1.5658,28.4542,-33.1018,30,0.2591,8636,3.9578,-39.7446
lg,1625569130917295838,0,-0.2871,-0.6047,0.542,233,-6.2256,-139.6484,5.188,92,1.4747,1.5658,23.8088,-32.5824,30,0.2531,8611,3.9578,-36.5542
lg,1625569130917341857,0,-0.3838,-0.5884,0.4573,234,-2.8687,-69.2749,-7.6294,92,1.4737,1.5658,21.5018,-32.9016,30,0.2511,8273,3.9578,-35.4974
lg,1625569130917372394,0,-0.3142,-0.6162,0.7007,235,9.8267,-17.2729,21.7896,92,1.4727,1.5668,21.2821,-32.4057,30,0.2481,9273,3.9578,-34.4306
lg,1625569130917392468,0,-0.2708,-0.5525,0.7715,236,9.4604,4.3335,27.6489,92,1.4717,1.5678,21.8001,-31.8174,30,0.2481,9166,3.9578,-33.57
lg,1625569130917411171,0,-0.3074,-0.6465,0.8286,237,0.4883,28.9917,25.7568,92,1.4737,1.5678,23.1049,-31.9331,31,0.2501,10104,3.9578,-33.3804
lg,1625569130917430134,0,-0.3347,-0.6833,0.7734,238,1.0986,33.6914,20.6299,92,1.4737,1.5688,24.5636,-32.3539,31,0.2531,8002,3.9578,-33.5845
lg,1625569130917448209,0,-0.4194,-0.668,0.7295,239,6.2256,49.8047,16.1133,92,1.4757,1.5688,26.5237,-32.7571,31,0.2551,8748,3.9578,-34.3425
lg,1625569130917466857,0,-0.4775,-0.6211,0.7432,240,7.5073,48.3398,16.5405,92,1.4757,1.5688,28.486,-32.9911,31,0.2581,9148,3.9578,-35.0287
lg,1625569130917485171,0,-0.4934,-0.6506,0.7336,241,14.6484,34.2407,10.1318,92,1.4827,1.5678,29.7816,-32.9707,30,0.2591,8413,3.9578,-35.6592
lg,1625569130917502838,0,-0.4478,-0.7122,0.7302,242,21.9116,25.5737,3.479,92,1.4867,1.5668,30.3588,-33.0454,30,0.2601,9191,3.9578,-36.9942
lg,1625569130917519912,0,-0.4514,-0.7639,0.6797,243,20.1416,31.5552,-17.395,92,1.4867,1.5648,30.7946,-33.6237,30,0.2571,8878,3.9578,-38.7975
lg,1625569130918302875,0,-0.4543,-0.6135,0.6594,244,21.6064,27.1606,-18.3105,92,1.4857,1.5628,31.1323,-33.8633,30,0.2561,8531,3.9578,-40.4068
lg,1625569130918413412,0,-0.522,-0.6609,0.6655,245,-10.498,21.2402,13.4888,92,1.4857,1.5628,32.0618,-34.7345,30,0.2641,9308,3.9578,-40.6734
lg,1625569130918439690,0,-0.5999,-0.6812,0.7568,246,-28.9307,7.8125,37.6587,92,1.4867,1.5648,33.1183,-35.4968,30,0.2651,8203,3.9578,-39.577
lg,1625569130918462134,0,-0.6672,-0.5837,0.6833,247,-31.3721,-1.77,44.9219,92,1.4867,1.5678,33.6449,-35.6653,30,0.2631,8973,3.9578,-37.106
lg,1625569130918489542,0,-0.7798,-0.5488,0.6355,248,-38.269,-47.5464,44.9219,92,1.4827,1.5688,33.5146,-35.6519,30,0.2621,9084,3.9578,-34.1114
lg,1625569130918614857,0,-0.7495,-0.6582,0.7007,249,-38.0249,-99.0601,54.8706,92,1.4767,1.5688,31.7386,-34.8209,30,0.2651,8662,3.9578,-29.407
lg,1625569130918642209,0,-0.4692,-0.5745,0.5017,250,-3.7842,-148.0103,31.189,92,1.4737,1.5658,27.5718,-33.0281,30,0.2651,8312,3.9578,-24.6837
lg,1625569130918662412,0,-0.1699,-0.6301,0.6741,251,-6.4087,-144.043,25.3906,92,1.4727,1.5668,22.6248,-31.8567,30,0.2631,9012,3.9578,-20.5219
lg,1625569130918684227,0,-0.1162,-0.7515,0.739,252,-1.6479,-87.5244,17.9443,92,1.4717,1.5668,19.4201,-31.5421,30,0.2611,12245,3.9578,-18.1122
lg,1625569130918703727,0,0.0779,-0.7302,0.8447,253,13.5498,-28.1372,25.5737,92,1.4717,1.5678,18.0966,-30.8869,30,0.2621,9460,3.9578,-16.705
lg,1625569130918749060,0,-0.0083,-0.6558,0.7102,254,19.9585,58.1055,11.1084,92,1.4737,1.5688,19.6349,-30.852,30,0.2641,9508,3.9578,-17.7196
lg,1625569130918771783,0,-0.2722,-0.5928,0.6401,255,26.7944,122.2534,-2.5635,92,1.4757,1.5698,23.6664,-31.2954,30,0.2671,9416,3.9578,-20.6979
lg,1625569130918791468,0,-0.5381,-0.4758,0.647,256,30.7007,147.522,-3.2349,92,1.4797,1.5708,28.9915,-31.8324,30,0.2721,11208,3.9578,-24.349
lg,1625569131229891282,0,-0.7148,-0.6003,0.7483,257,23.9258,91.7969,-16.6016,92,1.4827,1.5688,32.0273,-32.6113,30,0.2701,24570,3.9578,-27.4039
lg,1625569131229972579,0,-0.8225,-0.5901,0.6318,258,-2.2583,38.6353,-1.709,92,1.4837,1.5698,33.7343,-33.6331,30,0.2741,8655,3.9578,-28.6715
lg,1625569131229998523,0,-0.8376,-0.6799,0.6943,259,-28.6865,-10.7422,24.4141,92,1.4837,1.5708,34.2098,-34.4469,30,0.2751,7838,3.9578,-27.618
lg,1625569131230019468,0,-0.8872,-0.5872,0.6218,260,-31.9214,-28.6255,37.4756,92,1.4827,1.5708,34.6783,-34.6597,30,0.2731,9026,3.9578,-25.4632
lg,1625569131230039819,0,-0.9299,-0.5288,0.678,261,-29.2358,-89.3555,37.9028,92,1.4807,1.5708,33.077,-33.7249,30,0.2761,9289,3.9578,-21.5729
lg,1625569131230058486,0,-0.5181,-0.6333,0.6958,262,-5.5542,-183.5327,37.9028,92,1.4777,1.5688,27.5759,-31.2256,30,0.2751,8772,3.9578,-15.7029
lg,1625569131230077190,0,-0.1367,-0.793,0.7539,263,-19.2871,-209.2285,23.3154,92,1.4757,1.5688,20.1517,-30.3855,30,0.2721,9897,3.9578,-10.4431
lg,1625569131230096171,0,-0.0098,-0.6924,0.4648,264,-8.9111,-145.3857,14.3433,92,1.4747,1.5678,14.7751,-30.6756,30,0.2701,9941,3.9578,-7.1785
lg,1625569131230115375,0,0.2163,-0.7354,0.6746,265,20.0195,-3.7842,31.311,92,1.4747,1.5688,14.2714,-30.2338,30,0.2681,16063,3.9578,-6.159
lg,1625569131230133894,0,0.0769,-0.6255,0.6516,266,27.5879,109.7412,20.2026,92,1.4757,1.5698,17.7217,-30.112,30,0.2691,8674,3.9578,-7.8724
lg,1625569131230153097,0,-0.095,-0.5837,0.6414,267,30.5786,162.7808,12.4512,92,1.4767,1.5698,23.7159,-30.275,30,0.2721,8304,3.9578,-11.0152
lg,1625569131230171986,0,-0.5889,-0.4919,0.7305,268,25.2075,223.0835,7.6904,92,1.4787,1.5708,31.8657,-31.6898,31,0.2731,7975,3.9578,-15.9734
lg,1625569131230190838,0,-0.9856,-0.5159,0.8352,269,17.334,179.2603,6.2866,92,1.4817,1.5708,38.5036,-33.5732,31,0.2761,8009,3.9578,-20.4654
lg,1625569131230209116,0,-0.9924,-0.5093,0.9397,270,19.2871,65.3076,13.1836,92,1.4847,1.5708,41.1208,-33.4351,31,0.2761,9244,3.9578,-21.6519
lg,1625569131230233931,0,-0.8521,-0.584,0.8879,271,17.7002,21.4844,12.6953,92,1.4867,1.5698,41.9887,-33.0531,31,0.2751,8917,3.9578,-21.9049
lg,1625569131230255690,0,-0.6296,-0.6589,0.7849,272,-18.2495,-45.0439,22.2168,92,1.4877,1.5718,40.5557,-32.5675,30,0.2811,15012,3.9578,-19.8092
lg,1625569131230276523,0,-0.6743,-0.5505,0.6934,273,-28.1372,-43.0908,17.0898,92,1.4867,1.5728,39.3482,-32.6569,30,0.2801,9254,3.9578,-17.9901
lg,1625569131230296153,0,-0.7131,-0.5298,0.6763,274,-29.9683,-55.1147,12.2681,92,1.4847,1.5738,37.7792,-32.7705,30,0.2791,9816,3.9578,-16.058
lg,1625569131230315208,0,-0.5732,-0.6606,0.7549,275,-17.9443,-81.2988,7.8735,102,1.4837,1.5728,34.9131,-32.3495,30,0.2801,9539,3.9424,-13.7619
lg,1625569131230334449,0,-0.4246,-0.6624,0.6248,276,-14.7705,-95.8862,4.7607,102,1.4827,1.5728,31.4286,-32.0932,30,0.2811,8610,3.9424,-11.4629
lg,1625569131230353690,0,-0.4126,-0.5703,0.5042,277,-3.0518,-63.1714,5.8594,102,1.4817,1.5728,29.3402,-31.9572,30,0.2811,9310,3.9424,-10.0125
lg,1625569131230372597,0,-0.3933,-0.636,0.7476,278,-1.1597,-41.2598,7.3853,102,1.4827,1.5738,27.6297,-31.5388,30,0.2811,9285,3.9424,-8.8933
lg,1625569131230395931,0,-0.24,-0.7136,0.8027,279,4.6997,-58.0444,4.1504,102,1.4837,1.5748,25.1646,-31.1078,30,0.2831,8917,3.9424,-7.5848
lg,1625569131230414671,0,-0.1272,-0.7314,0.7615,280,7.4463,-30.9448,-13.6719,102,1.4857,1.5748,23.1333,-31.2697,30,0.2831,9311,3.9424,-7.6224
lg,1625569131230470282,0,-0.1533,-0.7085,0.6841,281,16.6626,19.8364,-21.9116,102,1.4877,1.5738,22.9168,-31.7104,30,0.2831,11851,3.9424,-9.1273
lg,1625569131230497653,0,-0.2468,-0.6606,0.6528,282,19.2261,60.9131,-30.2124,102,1.4877,1.5728,24.028,-32.5056,30,0.2821,9616,3.9424,-11.8755
lg,1625569131230519505,0,-0.4204,-0.6108,0.6211,283,15.8081,77.6978,-19.4702,102,1.4877,1.5698,26.2766,-33.4385,30,0.2811,9396,3.9424,-14.6619
lg,1625569131230538505,0,-0.5823,-0.6897,0.6797,284,-5.9814,69.7632,8.7891,102,1.4837,1.5718,28.9674,-34.7925,30,0.2851,8712,3.9424,-16.3087
lg,1625569131230559468,0,-0.6919,-0.6958,0.7771,285,-23.8647,26.3672,36.7432,102,1.4887,1.5748,30.8499,-35.6614,30,0.2881,8775,3.9424,-15.7566
lg,1625569131230577319,0,-0.686,-0.5535,0.6848,286,-29.7241,-39.4897,48.8892,102,1.4877,1.5758,30.9814,-35.4507,30,0.2851,9188,3.9424,-12.8838
lg,1625569131230620708,0,-0.5193,-0.5186,0.8967,287,-30.0903,-82.9468,51.6357,102,1.4847,1.5748,29.2801,-34.332,30,0.2851,9574,3.9424,-8.6055
lg,1625569131230641856,0,-0.3567,-0.5361,0.9065,288,-17.7612,-98.8159,42.3584,102,1.4817,1.5718,26.1071,-34.0341,30,0.2831,9550,3.9424,-5.2387
lg,1625569131596449875,0,-0.3049,-0.6179,0.5093,289,-0.061,-26.9165,18.4937,102,1.4767,1.5718,25.4578,-34.1076,30,0.2771,26337,3.9424,-4.1789
lg,1625569131596506541,0,-0.1836,-0.5845,0.7134,290,8.667,1.2207,36.2549,102,1.4767,1.5718,25.745,-33.4139,30,0.2781,8904,3.9424,-2.9712
lg,1625569131596529227,0,-0.2144,-0.668,0.7603,291,8.4229,48.9502,26.3062,102,1.4767,1.5728,27.4109,-33.5108,30,0.2791,14622,3.9424,-3.3479
lg,1625569131596549819,0,-0.3479,-0.6191,0.7292,292,11.7798,73.1201,15.0757,102,1.4787,1.5738,29.87,-33.9334,30,0.2791,11826,3.9424,-4.7631
lg,1625569131596569671,0,-0.4917,-0.613,0.738,293,9.5825,89.5386,14.6484,102,1.4817,1.5728,33.0272,-34.7202,30,0.2801,8533,3.9424,-6.6877
lg,1625569131596589412,0,-0.5554,-0.6023,0.7578,294,10.376,85.8154,15.564,102,1.4837,1.5728,36.1135,-35.4341,30,0.2831,8200,3.9424,-8.5403
lg,1625569131596607875,0,-0.5298,-0.5671,0.8154,295,15.0757,64.27,16.0522,102,1.4867,1.5728,38.2379,-35.5314,30,0.2831,8220,3.9424,-9.744
lg,1625569131596626708,0,-0.5652,-0.7144,0.7471,296,11.2305,54.1992,1.0376,102,1.4877,1.5718,39.6281,-36.4394,30,0.2811,8622,3.9424,-11.5651
lg,1625569131596646412,0,-0.72,-0.7029,0.6838,297,-9.2773,24.1699,12.3291,102,1.4877,1.5728,40.562,-37.3426,30,0.2851,10573,3.9424,-12.054
lg,1625569131596664486,0,-0.7527,-0.5415,0.6575,298,-15.564,-12.146,23.1934,102,1.4887,1.5748,40.7644,-37.1452,30,0.2881,9122,3.9424,-10.7368
lg,1625569131596682856,0,-0.7212,-0.5588,0.646,299,-26.001,-63.1104,30.7007,102,1.4877,1.5758,39.456,-36.2123,30,0.2841,9095,3.9424,-7.5553
lg,1625569131596700430,0,-0.6516,-0.6226,0.6875,300,-26.1841,-74.4629,31.7383,102,1.4857,1.5758,37.3296,-35.2143,30,0.2851,8735,3.9424,-4.1144
lg,1625569131596718153,0,-0.4355,-0.5969,0.6382,301,-5.8594,-88.7451,30.2734,102,1.4857,1.5728,34.6823,-33.598,30,0.2861,8785,3.9424,-0.5999
lg,1625569131596737486,0,-0.3782,-0.6379,0.6863,302,-6.897,-57.9834,25.3906,102,1.4847,1.5758,32.8202,-32.856,30,0.2861,8696,3.9424,1.7234
lg,1625569131596755616,0,-0.3149,-0.6646,0.7866,303,5.3101,-35.7056,13.1836,102,1.4857,1.5758,31.2907,-32.2042,30,0.2871,8389,3.9424,2.9794
lg,1625569131596774449,0,-0.2876,-0.6885,0.8044,304,8.0566,-28.7476,4.7607,102,1.4867,1.5768,30.1395,-32.0707,30,0.2861,8790,3.9424,3.0776
lg,1625569131596791986,0,-0.2554,-0.6851,0.7341,305,13.4888,8.5449,-9.7046,102,1.4877,1.5758,30.3264,-32.554,30,0.2871,8823,3.9424,1.4165
lg,1625569131596809727,0,-0.3594,-0.6238,0.6604,306,20.6299,43.8843,-22.3999,102,1.4897,1.5758,30.9719,-33.1931,30,0.2881,8925,3.9424,-0.7983
lg,1625569131596829560,0,-0.4929,-0.5981,0.5999,307,18.6157,55.6641,-22.7661,102,1.4887,1.5748,32.2899,-34.1381,30,0.2881,9210,3.9424,-3.3821
lg,1625569131596906134,0,-0.6079,-0.5989,0.7266,308,11.9019,50.354,-8.1787,102,1.4897,1.5738,33.7727,-34.784,30,0.2901,9264,3.9424,-5.1788
lg,1625569131596935690,0,-0.7703,-0.7498,0.74,309,-19.7754,3.2349,10.498,102,1.4907,1.5748,34.2215,-35.7879,30,0.2881,8958,3.9424,-5.0791
lg,1625569131596954282,0,-0.7849,-0.6096,0.6846,310,-29.2358,-59.5703,38.8794,102,1.4877,1.5768,33.4468,-35.3756,30,0.2851,9009,3.9424,-1.9939
lg,1625569131596994412,0,-0.5459,-0.4729,1.0671,311,-28.6865,-87.0972,41.2598,102,1.4837,1.5748,30.4397,-33.7038,30,0.2851,8991,3.9424,1.7074
lg,1625569131597018634,0,-0.5505,-0.665,0.8252,312,-28.1372,-134.3384,6.6528,102,1.4797,1.5688,26.0119,-33.3084,30,0.2811,9038,3.9424,5.2354
lg,1625569131597041690,0,-0.3428,-0.6975,0.4314,313,-14.5874,-169.1895,-0.5493,102,1.4717,1.5658,20.3245,-33.2593,31,0.2751,8947,3.9424,8.8425
lg,1625569131597061153,0,-0.3074,-0.6763,0.5342,314,-8.667,-105.896,5.3101,102,1.4727,1.5638,16.9272,-33.4648,31,0.2691,8213,3.9424,11.2472
lg,1625569131597078782,0,-0.074,-0.6479,0.7268,315,7.6904,-69.5801,29.9683,102,1.4707,1.5628,14.7719,-32.7705,31,0.2651,9041,3.9424,13.7743
lg,1625569131597095967,0,-0.0125,-0.6274,0.6995,316,5.6763,-57.0068,23.4375,102,1.4697,1.5628,12.8339,-32.5433,31,0.2641,9058,3.9424,15.7273
lg,1625569131597114819,0,-0.0291,-0.6812,0.6309,317,5.0049,14.0381,21.7285,102,1.4697,1.5608,13.3515,-32.8253,30,0.2641,9069,3.9424,16.0353
lg,1625569131597134801,0,-0.1323,-0.7678,0.8064,318,14.2212,79.5288,11.0474,102,1.4727,1.5648,15.9939,-33.0411,30,0.2661,9100,3.9424,14.5258
lg,1625569131597152319,0,-0.2788,-0.6382,0.6848,319,24.1089,101.3794,-2.8687,102,1.4727,1.5668,19.3377,-33.2013,30,0.2681,9125,3.9424,11.9863
lg,1625569131597173912,0,-0.4419,-0.6165,0.7239,320,25.0854,117.981,-6.5308,102,1.4767,1.5688,23.3336,-33.5704,30,0.2691,9152,3.9424,8.8668
lg,1625569131982665782,0,-0.3755,-0.5715,0.7285,321,38.7573,63.2324,-24.7192,102,1.4807,1.5678,24.8378,-33.1903,30,0.2601,27665,3.9424,6.3641
lg,1625569131982738430,0,-0.4626,-0.6924,0.5974,322,29.1748,88.3179,-33.8745,102,1.4817,1.5638,27.1145,-34.1456,30,0.2541,12692,3.9424,2.6643
lg,1625569131982784967,0,-0.4595,-0.4973,0.5823,323,19.2261,84.8999,-7.6904,102,1.4837,1.5608,29.8737,-34.7976,30,0.2521,8862,3.9424,0.0716
lg,1625569131982817171,0,-0.4963,-0.4646,0.585,324,8.9722,90.1489,1.4038,102,1.4847,1.5578,32.9709,-35.819,30,0.2531,8127,3.9424,-2.3943
lg,1625569131982901838,0,-0.6838,-0.7168,0.7676,325,-20.2637,93.75,17.4561,102,1.4847,1.5588,36.3662,-38.0819,30,0.2561,8202,3.9424,-4.6229
lg,1625569131982933745,0,-0.9263,-0.7749,0.8557,326,-33.5083,64.27,25.8789,102,1.4847,1.5618,39.0822,-40.2021,30,0.2581,9206,3.9424,-5.7606
lg,1625569131982962115,0,-0.947,-0.5432,0.5493,327,-38.8794,-59.8145,49.0723,102,1.4837,1.5658,38.9653,-39.4123,30,0.2591,9182,3.9424,-1.9176
lg,1625569131982992226,0,-0.9619,-0.5352,0.5615,328,-46.0815,-86.9141,59.2041,102,1.4797,1.5678,37.6876,-38.0156,30,0.2571,9046,3.9424,4.2256
lg,1625569131983019782,0,-0.8982,-0.7727,0.6848,329,-70.8008,-147.2778,86.4258,102,1.4727,1.5678,35.2648,-36.5319,30,0.2611,9061,3.9424,11.8681
lg,1625569131983047652,0,-0.2253,-0.5159,1.1787,330,-19.7754,-226.0132,91.6748,102,1.4687,1.5638,28.928,-31.6631,30,0.2571,8343,3.9424,21.7318
lg,1625569131983078467,0,0.0027,-0.6328,1.0098,331,-38.6963,-195.6177,36.499,102,1.4647,1.5628,21.9202,-30.6963,30,0.2531,8718,3.9424,27.5844
lg,1625569131983107912,0,-0.1401,-0.7209,0.5515,332,-22.7051,-115.2344,-1.4038,102,1.4647,1.5628,17.5024,-31.6395,30,0.2481,9137,3.9424,29.7454
lg,1625569131983137578,0,-0.0955,-0.7786,0.6472,333,-19.2261,-81.7261,0.9155,102,1.4647,1.5628,14.3216,-32.6423,31,0.2471,8755,3.9424,31.3691
lg,1625569131983168560,0,0.0928,-0.7224,0.644,334,8.4229,-34.1187,14.2212,102,1.4637,1.5618,12.7343,-32.632,31,0.2491,9101,3.9424,32.4649
lg,1625569131983196041,0,-0.0959,-0.6543,0.6062,335,17.1509,100.4028,-2.2583,102,1.4637,1.5648,15.7933,-33.0984,31,0.2501,8776,3.9424,30.0043
lg,1625569131983226060,0,-0.3872,-0.6641,0.761,336,28.6865,171.6309,-17.0288,102,1.4647,1.5668,21.2187,-33.5126,30,0.2531,13280,3.9424,25.4112
lg,1625569131983289060,0,-0.6064,-0.5239,0.708,337,28.6865,144.7144,-22.3389,102,1.4677,1.5688,26.0181,-34.2031,30,0.2561,9130,3.9424,21.0364
lg,1625569131983321652,0,-0.7695,-0.5742,0.6948,338,14.2212,102.0508,-24.5361,102,1.4707,1.5708,29.3512,-35.4603,30,0.2581,8810,3.9424,17.4031
lg,1625569131983349356,0,-0.7456,-0.6777,0.7224,339,19.104,33.7524,-7.6294,102,1.4747,1.5718,30.5671,-35.5657,30,0.2591,9239,3.9424,16.0737
lg,1625569131983378800,0,-0.47,-0.5674,0.7195,340,36.377,-23.2544,2.9297,102,1.4797,1.5708,29.7328,-33.8521,30,0.2611,9394,3.9424,16.7464
lg,1625569131983406486,0,-0.2822,-0.6487,0.6658,341,23.2544,-15.2588,-14.8315,102,1.4837,1.5698,28.4067,-33.4517,30,0.2611,9842,3.9424,16.3478
lg,1625569131983433893,0,-0.3306,-0.6912,0.5525,342,17.1509,15.686,-13.3057,102,1.4847,1.5688,28.3585,-33.93,30,0.2611,9479,3.9424,15.0956
lg,1625569131983460689,0,-0.4026,-0.7122,0.6824,343,-17.8833,51.3916,27.832,102,1.4867,1.5688,30.4412,-35.2879,30,0.2681,9776,3.9424,14.562
lg,1625569131983489763,0,-0.6653,-0.637,0.8042,344,-23.3765,72.6318,39.1235,102,1.4877,1.5708,33.787,-36.6071,30,0.2711,9139,3.9424,13.9768
lg,1625569131983517893,0,-0.738,-0.5356,0.7927,345,-19.5312,46.6919,41.1377,102,1.4877,1.5728,36.5317,-37.1812,30,0.2711,9070,3.9424,14.2445
lg,1625569131983544986,0,-0.8181,-0.5925,0.6689,346,-27.5879,-22.7051,37.0483,102,1.4877,1.5738,36.9227,-37.394,30,0.2691,9675,3.9424,16.1616
lg,1625569131983573949,0,-0.78,-0.7427,0.6509,347,-30.2124,-74.585,50.9033,102,1.4857,1.5748,35.844,-36.4983,30,0.2691,9132,3.9424,20.1634
lg,1625569131983604078,0,-0.5356,-0.5981,0.7529,348,-17.6392,-120.6665,68.2983,102,1.4847,1.5738,33.2208,-33.8218,30,0.2691,9489,3.9424,26.2101
lg,1625569131983636171,0,-0.2207,-0.6162,0.8464,349,-6.1646,-136.8408,49.8657,102,1.4837,1.5738,28.8806,-31.3787,30,0.2711,8422,3.9424,31.5506
lg,1625569131983664578,0,0.0742,-0.7693,0.855,350,3.1738,-115.1123,12.6343,102,1.4857,1.5738,24.0039,-30.3241,30,0.2741,9478,3.9424,34.4424
lg,1625569131983693875,0,0.1104,-0.7756,0.7456,351,5.7373,-70.9229,-5.4932,102,1.4877,1.5748,21.8912,-30.8396,30,0.2771,8419,3.9424,33.8261
lg,1625569131983723023,0,-0.0161,-0.7256,0.5911,352,18.0664,32.7148,-29.0527,102,1.4897,1.5738,21.6367,-31.6141,30,0.2801,9192,3.9424,31.7164
lg,1625569132350064356,0,-0.9473,-0.7515,0.5967,353,-28.9917,76.6602,7.5073,102,1.4847,1.5748,24.7856,-33.3341,30,0.2781,28190,3.9424,31.6072
lg,1625569132350094708,0,-0.9412,-0.3984,1.3433,354,-19.7754,-46.4478,43.6401,102,1.4787,1.5728,24.5641,-32.3746,30,0.2781,11537,3.9424,34.5946
lg,1625569132350115856,0,-0.7219,-0.7507,0.8516,355,-28.7476,-204.0405,11.5967,102,1.4747,1.5688,18.2603,-31.9763,30,0.2751,7777,3.9424,39.5606
lg,1625569132350140967,0,-0.3835,-0.6384,0.3606,356,-9.0332,-250.4883,14.7705,102,1.4707,1.5658,10.5595,-31.832,30,0.2661,11170,3.9424,45.2347
lg,1625569132350160189,0,-0.1121,-0.6418,0.6338,357,-7.3242,-167.1753,34.668,102,1.4697,1.5648,5.5136,-31.9785,30,0.2601,8438,3.9424,49.8977
lg,1625569132350178819,0,0.3293,-0.6863,0.8838,358,2.1973,-109.6191,47.1802,102,1.4687,1.5648,1.9599,-31.8491,30,0.2571,8579,3.9424,53.8042
lg,1625569132350197560,0,0.3577,-0.6626,0.7444,359,-5.5542,-62.3169,30.5176,102,1.4687,1.5658,-0.2988,-32.6575,30,0.2561,8265,3.9424,56.1517
lg,1625569132350215356,0,0.2354,-0.7488,0.5884,360,-6.4697,81.2378,12.2681,102,1.4677,1.5658,2.1442,-33.653,30,0.2571,8488,3.9424,54.7875
lg,1625569132350233245,0,-0.1016,-0.7803,0.6353,361,5.6763,202.6978,-4.0894,102,1.4687,1.5658,8.8742,-34.5419,30,0.2571,8690,3.9424,50.0573
lg,1625569132350251060,0,-0.4617,-0.6785,0.6394,362,20.0806,242.0044,-9.8267,102,1.4687,1.5678,17.2097,-35.5402,30,0.2581,8523,3.9424,43.9552
lg,1625569132350268930,0,-0.7795,-0.5076,0.6597,363,20.4468,230.2246,-8.2397,102,1.4707,1.5698,24.3945,-36.7731,30,0.2611,8569,3.9424,38.825
lg,1625569132350286430,0,-0.8784,-0.5308,0.7168,364,9.5825,150.2075,0.1221,102,1.4727,1.5708,29.9039,-38.2506,30,0.2641,8614,3.9424,34.705
lg,1625569132350303985,0,-0.884,-0.7319,0.7852,365,5.3711,36.0718,15.4419,102,1.4767,1.5728,31.7831,-38.4405,30,0.2661,7939,3.9424,34.1422
lg,1625569132350321189,0,-0.5002,-0.6543,0.8298,366,23.3154,-51.8799,27.6489,102,1.4797,1.5718,30.5502,-36.2002,30,0.2651,8779,3.9424,36.6495
lg,1625569132350338300,0,-0.2329,-0.6287,0.6775,367,27.9541,-65.918,17.8833,102,1.4827,1.5698,28.0225,-34.6719,30,0.2631,9182,3.9424,38.0956
lg,1625569132350356097,0,-0.1775,-0.6865,0.6785,368,23.3154,-33.9355,-13.7329,102,1.4807,1.5668,25.9261,-34.0391,30,0.2611,8403,3.9424,38.2295
lg,1625569132350373782,0,-0.2029,-0.7122,0.5957,369,27.4048,46.0205,-19.8975,102,1.4837,1.5638,26.4888,-34.4549,30,0.2591,8823,3.9424,36.0413
lg,1625569132350390374,0,-0.303,-0.6096,0.6218,370,19.2871,99.0601,-4.0283,102,1.4847,1.5608,29.3443,-35.3689,30,0.2581,8462,3.9424,33.1334
lg,1625569132350408060,0,-0.3821,-0.5732,0.6621,371,14.8926,120.1172,5.3101,102,1.4857,1.5578,33.3132,-36.5118,30,0.2561,8119,3.9424,29.9603
lg,1625569132350474560,0,-0.6755,-0.6279,0.7002,372,-2.3804,131.958,14.8926,102,1.4867,1.5548,37.9121,-38.7844,30,0.2621,8875,3.9424,26.4441
lg,1625569132350549837,0,-0.9946,-0.8181,0.8372,373,-31.25,86.3037,19.3481,102,1.4867,1.5578,41.1147,-41.5897,30,0.2611,8189,3.9424,24.1778
lg,1625569132350569004,0,-1.1025,-0.6221,0.6719,374,-31.9824,-24.292,30.9448,102,1.4877,1.5608,41.5638,-41.5063,30,0.2601,8991,3.9424,26.2573
lg,1625569132350587245,0,-1.0291,-0.6631,0.6729,375,-42.1753,-116.5161,44.9219,102,1.4847,1.5648,39.4371,-39.517,30,0.2571,9689,3.9424,31.997
lg,1625569132350607689,0,-0.7285,-0.7158,0.6272,376,-43.8232,-223.3276,58.5938,102,1.4767,1.5668,33.8036,-36.1611,30,0.2571,10420,3.9424,40.9183
lg,1625569132350626189,0,-0.2063,-0.4419,0.7112,377,5.7373,-277.0386,43.5181,102,1.4737,1.5658,24.8518,-31.4746,30,0.2551,9271,3.9424,49.7151
lg,1625569132350647060,0,-0.1226,-0.4553,0.3459,378,10.6201,-283.2642,23.6816,102,1.4697,1.5628,14.626,-29.0184,30,0.2531,9097,3.9424,56.4809
lg,1625569132350696485,0,0.0703,-0.5872,0.4966,379,-31.311,-191.5894,18.6768,102,1.4677,1.5608,7.6281,-30.1944,30,0.2511,9330,3.9424,60.802
lg,1625569132350716560,0,0.0479,-0.7651,0.385,380,-24.7192,-57.4341,15.625,102,1.4667,1.5628,5.6135,-32.2148,30,0.2501,8324,3.9424,62.3809
lg,1625569132350736874,0,0.0747,-0.8789,0.6597,381,13.4888,59.8145,43.2739,102,1.4657,1.5618,8.189,-32.4609,30,0.2481,9148,3.9424,62.48
lg,1625569132350755874,0,-0.072,-0.5918,0.6396,382,28.7476,94.2993,40.1001,102,1.4647,1.5638,12.9087,-31.7657,30,0.2481,8412,3.9424,60.7164
lg,1625569132350773078,0,-0.1663,-0.4927,0.6804,383,31.6162,155.2124,27.0996,102,1.4647,1.5638,18.6665,-31.3208,30,0.2471,8825,3.9424,58.2567
lg,1625569132350790893,0,-0.4089,-0.5369,0.7996,384,12.2681,172.7905,22.0947,102,1.4657,1.5668,25.1421,-32.0836,30,0.2491,9179,3.9424,55.1126
lg,1625569132733405911,0,-0.8064,-0.5825,0.7722,385,18.2495,64.7583,3.54,84,1.4767,1.5668,26.9409,-31.5876,30,0.2571,27282,3.9611,54.4179
lg,1625569132733455782,0,-0.6196,-0.6423,0.7803,386,22.1558,-22.1558,-8.9722,84,1.4817,1.5668,26.1839,-30.9148,30,0.2581,8690,3.9611,54.4611
lg,1625569132733488337,0,-0.5706,-0.6719,0.7087,387,21.6675,-24.5361,-18.4326,84,1.4847,1.5648,24.8998,-30.7897,30,0.2581,7781,3.9611,53.9489
lg,1625569132733518059,0,-0.4448,-0.7151,0.655,388,25.6958,-21.9116,-22.0947,84,1.4837,1.5618,23.7198,-30.5503,30,0.2591,8546,3.9611,53.3342
lg,1625569132733545763,0,-0.415,-0.6785,0.6233,389,21.6064,16.7847,-27.1606,84,1.4837,1.5598,23.7892,-30.8994,30,0.2571,8554,3.9611,51.675
lg,1625569132733573022,0,-0.4534,-0.6365,0.6252,390,8.667,33.6304,-16.4185,84,1.4837,1.5578,24.7351,-31.6737,30,0.2591,9156,3.9611,50.0654
lg,1625569132733673485,0,-0.5481,-0.7659,0.7065,391,-17.8833,25.9399,11.1694,84,1.4847,1.5598,25.9864,-33.0627,30,0.2631,9152,3.9611,49.6145
lg,1625569132733705282,0,-0.7871,-0.8047,0.6975,392,-31.6772,23.0103,29.9072,84,1.4877,1.5638,27.8451,-34.6402,30,0.2611,10869,3.9611,49.8988
lg,1625569132733732522,0,-0.8652,-0.7607,0.6638,393,-37.4146,-7.4463,35.0952,84,1.4857,1.5668,28.0597,-35.5508,30,0.2571,8623,3.9611,52.2336
lg,1625569132733760652,0,-1.0081,-0.6545,0.6025,394,-45.2881,-88.0737,45.9595,84,1.4767,1.5678,27.0886,-35.8402,31,0.2551,8680,3.9611,56.0819
lg,1625569132733788059,0,-0.6575,-0.5798,1.0779,395,-40.4663,-193.7256,63.6597,84,1.4707,1.5648,22.2836,-34.1521,31,0.2511,8332,3.9611,63.4096
lg,1625569132733819004,0,-0.3745,-0.4495,0.4441,396,3.0518,-268.7378,29.6021,84,1.4677,1.5608,14.3293,-32.1483,31,0.2471,9124,3.9611,70.4968
lg,1625569132733846874,0,-0.2014,-0.5303,0.7422,397,-34.1797,-256.958,18.5547,84,1.4657,1.5598,6.7652,-32.7957,31,0.2461,8365,3.9611,75.8234
lg,1625569132733874819,0,-0.1992,-0.6816,0.4485,398,-27.4048,-203.3691,16.0522,84,1.4637,1.5598,0.6768,-34.4436,30,0.2451,8773,3.9611,80.7646
lg,1625569132733902578,0,0.3428,-0.8857,0.8252,399,4.5776,-168.5181,52.4292,84,1.4637,1.5618,-4.2885,-34.9024,30,0.2451,8771,3.9611,86.3213
lg,1625569132733930541,0,0.4705,-0.7402,0.6499,400,12.3901,-24.7803,22.9492,84,1.4637,1.5628,-2.3554,-34.6186,30,0.2461,13081,3.9611,85.1537
lg,1625569132733957652,0,0.2439,-0.7434,0.7317,401,19.043,153.0151,1.9531,84,1.4647,1.5648,4.3118,-34.3511,31,0.2471,9863,3.9611,80.0008
lg,1625569132733983930,0,-0.2117,-0.7036,0.5964,402,24.4751,251.2207,-18.6768,84,1.4667,1.5668,12.451,-34.8945,31,0.2491,9026,3.9611,73.5707
lg,1625569132734010874,0,-0.6196,-0.5515,0.6121,403,29.1138,281.311,-12.8784,84,1.4697,1.5688,22.1883,-36.1389,31,0.2511,8946,3.9611,66.2412
lg,1625569132734037004,0,-0.9375,-0.4827,0.7493,404,17.2729,216.7358,-5.9204,84,1.4747,1.5698,29.8398,-37.9854,31,0.2561,8564,3.9611,60.2405
lg,1625569132734063189,0,-0.9292,-0.6484,0.8521,405,16.8457,82.5195,1.709,84,1.4807,1.5698,32.8822,-38.4867,31,0.2571,9099,3.9611,57.9179
lg,1625569132734089356,0,-0.687,-0.7366,0.6875,406,18.0664,-4.8218,0.4272,84,1.4847,1.5678,32.8012,-37.9988,31,0.2591,8975,3.9611,57.9025
lg,1625569132734146226,0,-0.5293,-0.7119,0.6885,407,19.165,-27.9541,0.2441,84,1.4867,1.5678,31.5895,-37.1534,31,0.2581,8595,3.9611,58.5252
lg,1625569132734177356,0,-0.335,-0.6326,0.6194,408,15.5029,-22.9492,1.2817,84,1.4867,1.5648,30.4678,-36.5343,31,0.2611,8696,3.9611,59.0279
lg,1625569132734204504,0,-0.293,-0.646,0.6458,409,-4.0894,-0.7324,15.686,84,1.4857,1.5648,30.3248,-36.7502,30,0.2661,9086,3.9611,59.4482
lg,1625569132734230911,0,-0.4648,-0.7981,0.7695,410,-31.25,37.4756,29.4189,84,1.4897,1.5648,31.9263,-38.3667,30,0.2681,9152,3.9611,59.2737
lg,1625569132734257615,0,-0.8042,-0.6333,0.6194,411,-38.9404,29.6021,44.4946,84,1.4887,1.5668,34.3614,-39.7496,30,0.2671,8408,3.9611,59.8928
lg,1625569132734283837,0,-0.959,-0.4961,0.6384,412,-40.7104,-33.7524,54.8706,84,1.4837,1.5698,35.3241,-39.5218,30,0.2631,8980,3.9611,63.0472
lg,1625569132734310133,0,-0.927,-0.6035,0.6914,413,-50.8423,-70.0684,62.8052,84,1.4777,1.5698,33.1433,-37.7863,30,0.2611,8792,3.9611,69.2555
lg,1625569132734337004,0,-0.4663,-0.6289,0.8391,414,-15.0146,-158.5693,52.6733,84,1.4747,1.5688,28.9513,-35.0477,30,0.2571,9193,3.9611,75.6566
lg,1625569132734363596,0,-0.1575,-0.7874,0.9424,415,-31.189,-177.1851,32.0435,84,1.4717,1.5668,23.0392,-34.0214,30,0.2531,8795,3.9611,81.199
lg,1625569132734392189,0,-0.0535,-0.6685,0.5203,416,-7.4463,-143.9209,4.9438,84,1.4707,1.5658,17.6837,-33.8037,30,0.2511,9240,3.9611,84.5116
lg,1625569133116580522,0,-0.2349,-0.7212,0.6482,417,30.4565,74.5239,6.1035,84,1.4717,1.5688,20.1409,-33.6519,30,0.2561,27108,3.9611,82.7975
lg,1625569133116615818,0,-0.4473,-0.5339,0.7175,418,33.02,92.5903,-8.3618,84,1.4737,1.5718,23.277,-33.3659,30,0.2581,16927,3.9611,80.2549
lg,1625569133116636485,0,-0.5359,-0.6794,0.7925,419,25.1465,80.3833,-8.4839,84,1.4787,1.5708,25.9114,-33.5763,30,0.2621,8556,3.9611,77.8789
lg,1625569133116655485,0,-0.4744,-0.6299,0.8066,420,36.0107,54.5044,-9.5825,84,1.4847,1.5698,27.4674,-33.0724,30,0.2621,10970,3.9611,76.1007
lg,1625569133116673133,0,-0.4087,-0.6116,0.6946,421,29.7852,53.833,-17.7002,84,1.4877,1.5678,28.7331,-33.1607,30,0.2621,8202,3.9611,73.9362
lg,1625569133116691226,0,-0.4192,-0.6768,0.6646,422,22.583,61.5845,-19.4702,84,1.4887,1.5648,30.1657,-33.8973,30,0.2631,8978,3.9611,71.3798
lg,1625569133116708615,0,-0.4353,-0.677,0.6504,423,20.5688,92.041,-13.6108,84,1.4877,1.5618,32.6766,-35.1293,30,0.2621,8259,3.9611,68.1473
lg,1625569133116736004,0,-0.5791,-0.6292,0.6531,424,4.5776,98.8159,-12.3291,84,1.4877,1.5608,35.5532,-37.1423,30,0.2651,9028,3.9611,64.6517
lg,1625569133116755078,0,-0.6768,-0.7405,0.7595,425,-26.6724,69.3359,15.564,84,1.4887,1.5608,37.9766,-39.4093,30,0.2691,9742,3.9611,62.942
lg,1625569133116772985,0,-0.8528,-0.7622,0.6418,426,-40.2832,48.4009,36.7432,84,1.4877,1.5638,40.4946,-41.5234,30,0.2651,9871,3.9611,62.5074
lg,1625569133116790041,0,-0.9854,-0.6531,0.7534,427,-45.7764,-6.2256,44.8608,84,1.4877,1.5668,41.6569,-41.9981,30,0.2641,8353,3.9611,64.5267
lg,1625569133116807596,0,-0.8594,-0.7158,0.8879,428,-47.3633,-52.4292,48.0347,84,1.4817,1.5688,39.288,-40.1155,30,0.2651,8804,3.9611,70.3867
lg,1625569133116825096,0,-0.5593,-0.5681,1.1123,429,-17.4561,-161.8652,34.729,84,1.4797,1.5678,34.5231,-36.3906,30,0.2621,8803,3.9611,77.1389
lg,1625569133116842652,0,-0.479,-0.5576,0.6313,430,-28.0151,-207.8247,1.1597,84,1.4767,1.5668,27.6429,-34.7619,30,0.2591,9238,3.9611,82.7281
lg,1625569133116860133,0,-0.4097,-0.5793,0.2397,431,-9.5825,-198.7305,-6.4697,84,1.4767,1.5668,21.341,-34.3042,30,0.2551,8037,3.9611,86.933
lg,1625569133116877226,0,-0.2793,-0.7744,0.6582,432,-11.0474,-174.1943,-13.6719,84,1.4767,1.5678,16.6251,-34.0586,30,0.2541,8411,3.9611,89.9201
lg,1625569133116894263,0,-0.1484,-0.8267,0.7642,433,10.498,-122.8027,16.9067,84,1.4757,1.5678,12.5883,-33.3053,30,0.2531,8820,3.9611,93.1684
lg,1625569133116911207,0,0.1365,-0.6804,0.7312,434,21.2402,-114.0747,13.5498,84,1.4757,1.5698,8.2819,-32.2941,30,0.2541,8117,3.9611,96.0586
lg,1625569133116928522,0,0.123,-0.6409,0.5598,435,14.7705,3.8452,-8.1177,84,1.4767,1.5708,7.6046,-32.3938,30,0.2561,8135,3.9611,95.6051
lg,1625569133116945948,0,0.0178,-0.7009,0.5837,436,12.5122,72.937,-16.7236,84,1.4777,1.5718,11.5207,-33.1408,30,0.2591,8895,3.9611,91.8263
lg,1625569133116962855,0,-0.3259,-0.7729,0.6682,437,20.0195,166.9312,-25.3296,84,1.4797,1.5718,16.7471,-34.0942,30,0.2611,9306,3.9611,87.0165
lg,1625569133116979596,0,-0.575,-0.5959,0.6956,438,30.7617,162.1094,-11.1694,84,1.4817,1.5728,22.4203,-34.5231,30,0.2641,8942,3.9611,82.674
lg,1625569133116996374,0,-0.7183,-0.4976,0.7598,439,13.5498,111.145,-0.6714,84,1.4847,1.5728,26.6496,-35.0996,30,0.2651,9321,3.9611,79.8699
lg,1625569133117013300,0,-0.6716,-0.6875,0.7891,440,15.0146,31.311,6.8359,84,1.4887,1.5728,28.0623,-34.971,30,0.2661,8938,3.9611,79.2131
lg,1625569133117040781,0,-0.6052,-0.7334,0.7202,441,17.7002,5.4932,6.3477,84,1.4917,1.5708,27.6013,-34.4923,30,0.2661,8658,3.9611,79.6006
lg,1625569133117058966,0,-0.4336,-0.7268,0.6711,442,20.6299,-33.9355,7.2021,84,1.4917,1.5688,26.3241,-33.6124,30,0.2661,9444,3.9611,80.5107
lg,1625569133117076578,0,-0.2671,-0.666,0.6841,443,18.5547,-22.0947,11.2915,84,1.4907,1.5678,25.4271,-32.8936,30,0.2641,9470,3.9611,81.2713
lg,1625569133117093559,0,-0.217,-0.7,0.6575,444,7.8125,5.7373,6.7139,84,1.4897,1.5658,25.2877,-33.1136,30,0.2621,9065,3.9611,81.1308
lg,1625569133117110744,0,-0.3335,-0.6606,0.6936,445,-4.9438,39.0625,25.4517,84,1.4907,1.5648,26.9119,-33.7411,30,0.2671,11727,3.9611,80.9317
lg,1625569133117127800,0,-0.4805,-0.8186,0.7229,446,-31.4941,60.8521,56.2134,84,1.4927,1.5648,30.0729,-35.3343,30,0.2651,9496,3.9611,81.1909
lg,1625569133117144670,0,-0.7788,-0.6204,0.6355,447,-46.5698,46.3867,58.4106,84,1.4907,1.5688,33.3767,-37.0081,30,0.2611,9237,3.9611,81.9533
lg,1625569133117161244,0,-1.052,-0.5374,0.5408,448,-59.021,-20.9351,62.6221,84,1.4827,1.5708,35.0343,-37.873,30,0.2581,9612,3.9611,84.8523
lg,1625569133501319244,0,-0.0879,-0.752,0.9973,449,-33.3252,-241.4551,36.438,84,1.4717,1.5658,26.2943,-34.7917,30,0.2411,28135,3.9611,92.5773
lg,1625569133501378096,0,0.0518,-0.603,0.3728,450,-19.165,-135.498,-24.9023,84,1.4717,1.5668,20.237,-35.5259,30,0.2391,11941,3.9611,94.6675
lg,1625569133501398966,0,0.0371,-0.7527,0.4329,451,-6.1646,4.2114,-7.4463,84,1.4717,1.5668,19.3843,-36.8856,30,0.2391,8525,3.9611,93.968
lg,1625569133501418911,0,-0.1113,-0.7388,0.4136,452,17.7002,120.3003,-2.7466,84,1.4727,1.5688,22.6959,-38.3083,30,0.2401,8948,3.9611,90.402
lg,1625569133501437577,0,-0.2397,-0.7432,0.5635,453,28.1372,173.7671,-3.6621,84,1.4737,1.5698,27.6547,-39.8996,30,0.2401,8624,3.9611,85.1934
lg,1625569133501455522,0,-0.5198,-0.6501,0.7375,454,45.7764,225.9521,-1.3428,84,1.4747,1.5708,34.4155,-41.7137,30,0.2441,9001,3.9611,78.2191
lg,1625569133501472763,0,-0.7698,-0.3333,0.855,455,27.71,164.5508,1.6479,84,1.4757,1.5728,39.5519,-43.1479,30,0.2471,9632,3.9611,73.1364
lg,1625569133501490411,0,-0.8845,-0.6982,0.7617,456,-6.4087,64.5142,0.3662,84,1.4767,1.5738,41.4317,-44.8908,30,0.2501,9006,3.9611,70.8038
lg,1625569133501507948,0,-0.6038,-0.8372,0.7859,457,16.3574,-4.6997,17.0898,84,1.4837,1.5738,41.2301,-43.772,30,0.2531,9020,3.9611,71.5727
lg,1625569133501575355,0,-0.4714,-0.6841,0.7146,458,31.5552,-26.9775,-6.4697,84,1.4877,1.5728,39.6457,-42.0417,30,0.2551,9057,3.9611,72.2912
lg,1625569133501593966,0,-0.3918,-0.6323,0.6663,459,34.1797,-27.2827,-4.2114,84,1.4887,1.5728,37.8934,-40.4138,30,0.2581,8704,3.9611,72.9101
lg,1625569133501611614,0,-0.2983,-0.7124,0.626,460,25.3296,8.3008,-14.8315,84,1.4877,1.5708,36.9757,-40.2978,30,0.2581,9093,3.9611,71.8307
lg,1625569133501629226,0,-0.3704,-0.6782,0.6208,461,19.5923,37.4756,-11.6577,84,1.4887,1.5708,37.2909,-40.7914,30,0.2591,10922,3.9611,69.9975
lg,1625569133501646818,0,-0.4436,-0.6956,0.6582,462,-8.0566,52.3071,26.8555,84,1.4907,1.5698,39.0652,-41.8141,30,0.2631,8533,3.9611,69.1085
lg,1625569133501663929,0,-0.9053,-0.7073,0.6421,463,-50.354,55.8472,37.1094,84,1.4927,1.5708,41.8591,-44.4151,30,0.2561,12891,3.9611,68.3748
lg,1625569133501689892,0,-1.0417,-0.635,0.6248,464,-49.3164,11.7188,51.0254,84,1.4887,1.5728,43.9723,-45.261,30,0.2541,8838,3.9611,69.9469
lg,1625569133501707763,0,-1.1208,-0.644,0.7217,465,-38.9404,-92.4683,66.7725,84,1.4817,1.5738,43.3674,-42.3688,30,0.2521,8782,3.9611,76.278
lg,1625569133501725670,0,-0.5571,-0.6169,1.1423,466,-10.8032,-233.6426,55.1147,84,1.4777,1.5728,36.7936,-35.7583,30,0.2491,8547,3.9611,86.6377
lg,1625569133501742985,0,-0.1665,-0.6631,0.824,467,-25.3296,-295.9595,22.1558,84,1.4737,1.5698,26.5019,-32.3797,30,0.2461,8207,3.9611,95.1604
lg,1625569133501759911,0,0.0562,-0.5496,0.3191,468,-7.8125,-275.3906,-0.2441,84,1.4717,1.5678,16.1437,-31.5278,30,0.2471,9809,3.9611,100.8908
lg,1625569133501777300,0,0.0664,-0.5679,0.2437,469,-13.1226,-203.7354,-11.5356,84,1.4707,1.5658,8.2792,-32.5161,30,0.2471,8515,3.9611,104.5482
lg,1625569133501795744,0,0.1995,-0.7859,0.6685,470,-5.3711,-10.498,13.9771,84,1.4707,1.5698,7.4951,-33.2838,30,0.2471,9316,3.9611,105.1611
lg,1625569133501813040,0,0.0457,-0.7576,0.6921,471,15.3809,96.1914,-4.5776,84,1.4707,1.5708,10.2012,-33.5827,30,0.2461,8571,3.9611,102.7827
lg,1625569133501831374,0,-0.2273,-0.6694,0.6843,472,24.8413,169.8608,-16.6626,84,1.4717,1.5708,15.5751,-33.9989,30,0.2471,8940,3.9611,98.2595
lg,1625569133501848651,0,-0.5251,-0.6143,0.6697,473,25.7568,192.749,-17.8833,84,1.4727,1.5728,22.0691,-35.1721,30,0.2501,8995,3.9611,92.8458
lg,1625569133501865374,0,-0.6504,-0.5527,0.6692,474,14.6484,177.4902,-15.0146,84,1.4757,1.5738,28.1251,-36.8833,30,0.2511,9353,3.9611,87.6408
lg,1625569133501882207,0,-0.8132,-0.6338,0.7358,475,3.479,106.3843,-3.479,84,1.4787,1.5718,31.8432,-38.4368,30,0.2551,9046,3.9611,84.4357
lg,1625569133501916114,0,-0.6665,-0.7227,0.78,476,9.2773,16.6016,15.9912,84,1.4797,1.5748,32.7611,-38.1723,30,0.2571,8744,3.9611,84.4535
lg,1625569133501933985,0,-0.3899,-0.6982,0.7395,477,20.2637,-30.9448,13.9771,84,1.4867,1.5738,31.6597,-36.8283,30,0.2591,9486,3.9611,85.747
lg,1625569133501951281,0,-0.24,-0.7124,0.6523,478,21.4844,-29.2358,8.5449,84,1.4897,1.5738,30.2511,-35.86,30,0.2591,9546,3.9611,86.6249
lg,1625569133501967892,0,-0.1431,-0.7246,0.637,479,19.3481,19.2261,6.2866,84,1.4897,1.5718,30.197,-35.7998,30,0.2611,12293,3.9611,86.0475
lg,1625569133501984911,0,-0.2812,-0.7068,0.6157,480,12.2681,83.374,9.1553,84,1.4897,1.5698,32.5724,-36.904,30,0.2641,9585,3.9611,83.7839
lg,1625569133875559114,0,-0.9587,-0.5928,0.646,481,-43.0908,56.9458,62.0117,84,1.4867,1.5728,35.0958,-37.4558,31,0.2591,28335,3.9611,86.1695
lg,1625569133875634744,0,-1.1396,-0.5603,0.6504,482,-52.1851,-94.1772,80.7495,84,1.4797,1.5738,34.7253,-36.2295,31,0.2581,12033,3.9611,92.0462
lg,1625569133875656836,0,-0.5623,-0.644,0.7722,483,-13.0005,-226.3184,70.0684,84,1.4737,1.5718,28.6501,-32.31,31,0.2511,10392,3.9611,100.6758
lg,1625569133875677410,0,0.0139,-0.7729,0.9187,484,-29.4189,-271.6675,55.2979,84,1.4707,1.5698,19.4859,-30.4503,31,0.2481,7816,3.9611,108.7456
lg,1625569133875746614,0,0.1938,-0.6057,0.5537,485,-18.0054,-197.0215,12.7563,84,1.4697,1.5678,11.7944,-30.5855,30,0.2451,8999,3.9611,113.1329
lg,1625569133875767170,0,0.1887,-0.668,0.6619,486,-27.5269,-124.3286,-1.2207,84,1.4707,1.5678,9.0079,-31.9093,30,0.2441,9108,3.9611,113.8155
lg,1625569133875786244,0,0.115,-0.7483,0.5686,487,-10.8032,5.5542,-16.6626,84,1.4707,1.5688,8.2305,-33.2465,30,0.2441,8248,3.9611,113.0059
lg,1625569133875805003,0,-0.1475,-0.6782,0.29,488,7.6294,100.4639,-33.02,84,1.4717,1.5698,10.9779,-34.7494,30,0.2461,9708,3.9611,109.4319
lg,1625569133875823522,0,-0.4456,-0.7349,0.4453,489,24.5972,209.6558,-25.2075,84,1.4737,1.5718,17.8588,-36.0734,30,0.2471,9206,3.9611,103.4
lg,1625569133875842559,0,-0.7859,-0.6204,0.6646,490,50.2319,219.7876,-19.2261,84,1.4757,1.5738,25.3245,-36.5965,30,0.2501,8655,3.9611,97.0638
lg,1625569133875861688,0,-0.9148,-0.3464,0.7446,491,47.8516,172.7295,-13.0615,84,1.4797,1.5748,31.4859,-36.7179,30,0.2531,8699,3.9611,92.0745
lg,1625569133875878485,0,-0.9666,-0.5569,0.7798,492,3.479,45.2271,1.4648,80,1.4827,1.5758,33.4867,-37.192,30,0.2541,8376,3.9644,90.8592
lg,1625569133875896299,0,-0.5901,-0.8506,0.7451,493,17.2119,-48.3398,18.5547,80,1.4867,1.5758,32.1664,-35.849,30,0.2581,8035,3.9644,92.679
lg,1625569133875914522,0,-0.4324,-0.8015,0.7107,494,24.353,-70.6787,14.1602,80,1.4897,1.5758,29.6002,-33.9686,30,0.2621,8043,3.9644,94.8253
lg,1625569133875931948,0,-0.1924,-0.6631,0.6267,495,28.5034,-55.7251,11.4136,80,1.4897,1.5748,27.3297,-32.5109,30,0.2611,8870,3.9644,96.3726
lg,1625569133875992188,0,-0.1509,-0.7239,0.635,496,16.9067,13.7329,1.709,80,1.4887,1.5738,27.1446,-32.6554,30,0.2621,8402,3.9644,95.7808
lg,1625569133876013299,0,-0.4304,-0.7434,0.5686,497,2.9297,72.5708,11.1084,80,1.4897,1.5728,29.7481,-33.993,30,0.2661,8426,3.9644,94.0183
lg,1625569133876031077,0,-0.6213,-0.6902,0.6824,498,-22.3999,67.2607,42.9688,80,1.4917,1.5728,33.0445,-35.3896,30,0.2661,8832,3.9644,93.6542
lg,1625569133876049373,0,-0.8782,-0.6663,0.7073,499,-42.9688,40.0391,51.8799,80,1.4917,1.5738,35.905,-36.8727,30,0.2621,9147,3.9644,94.3815
lg,1625569133876067355,0,-0.9507,-0.5815,0.582,500,-47.7905,-6.7139,63.2935,80,1.4877,1.5758,37.8327,-37.3754,30,0.2581,8828,3.9644,96.966
lg,1625569133876086540,0,-1.0244,-0.5811,0.5627,501,-57.9834,-85.5103,76.9043,80,1.4797,1.5748,37.5049,-36.4443,30,0.2581,8198,3.9644,102.5292
lg,1625569133876104281,0,-0.5225,-0.5676,1.0325,502,-20.1416,-197.998,72.8149,80,1.4747,1.5758,32.1101,-32.1349,30,0.2571,9071,3.9644,111.0918
lg,1625569133876124281,0,0.0293,-0.8196,1.0671,503,-28.3203,-252.6245,42.2363,80,1.4727,1.5728,23.1459,-30.0225,30,0.2531,9055,3.9644,118.453
lg,1625569133876143744,0,0.1812,-0.678,0.6072,504,-4.9438,-161.499,-0.6714,80,1.4717,1.5728,16.3184,-29.7953,30,0.2521,9066,3.9644,121.5616
lg,1625569133876161948,0,0.0906,-0.666,0.5437,505,-11.5356,-81.2988,-18.0054,80,1.4717,1.5748,12.564,-30.9573,30,0.2531,9011,3.9644,122.3541
lg,1625569133876178688,0,-0.0579,-0.7581,0.5618,506,-0.7935,35.8887,-21.4233,80,1.4727,1.5748,13.008,-32.2065,30,0.2551,9048,3.9644,120.6426
lg,1625569133876196410,0,-0.3389,-0.7764,0.5637,507,14.5264,127.0752,-28.6255,80,1.4697,1.5758,16.9208,-33.4366,30,0.2561,8459,3.9644,116.6027
lg,1625569133876214022,0,-0.5771,-0.5942,0.6362,508,28.1982,149.5361,-21.8506,80,1.4747,1.5768,22.0319,-34.073,30,0.2571,9184,3.9644,112.203
lg,1625569133876233096,0,-0.8171,-0.5332,0.6794,509,10.1929,108.7036,-15.4419,80,1.4777,1.5778,26.0621,-35.1185,30,0.2601,9171,3.9644,108.8839
lg,1625569133876269281,0,-0.8623,-0.6545,0.6802,510,1.9531,61.2793,-12.3291,80,1.4797,1.5768,26.9103,-35.3948,30,0.2621,8444,3.9644,108.3229
lg,1625569133876288781,0,-0.6438,-0.7505,0.7605,511,14.6484,-29.1138,7.9956,80,1.4827,1.5768,26.3153,-34.6822,30,0.2641,8461,3.9644,109.2131
lg,1625569133876306466,0,-0.3655,-0.7224,0.7102,512,25.0244,-77.0874,-2.5024,80,1.4867,1.5768,23.4742,-33.355,30,0.2671,9257,3.9644,110.8333
lg,1625569134262419427,0,-0.1062,-0.7625,0.594,513,34.729,5.127,-31.1279,80,1.4877,1.5698,22.4144,-33.2408,30,0.2661,28085,3.9644,109.2657
lg,1625569134262492553,0,-0.1628,-0.5647,0.5222,514,20.752,65.3687,18.0664,80,1.4877,1.5678,24.5922,-33.3516,30,0.2701,11802,3.9644,108.131
lg,1625569134262513423,0,-0.3601,-0.6904,0.6558,515,-23.8037,105.957,41.0156,80,1.4897,1.5678,28.8536,-35.3523,30,0.2691,8169,3.9644,106.7391
lg,1625569134262536755,0,-0.5532,-0.7585,0.7539,516,-35.2173,120.8496,51.4526,80,1.4907,1.5698,33.8743,-37.9001,30,0.2651,8182,3.9644,105.0919
lg,1625569134262557681,0,-0.8525,-0.5435,0.7446,517,-33.5693,91.6138,72.0825,80,1.4887,1.5718,38.8513,-39.1863,30,0.2611,8975,3.9644,105.0797
lg,1625569134262575810,0,-1.1187,-0.5364,0.7737,518,-45.3491,18.9209,60.3638,80,1.4807,1.5728,41.3888,-39.665,30,0.2581,8679,3.9644,106.986
lg,1625569134262593457,0,-0.7683,-0.6753,1.2732,519,-35.6445,-112.5488,63.5986,80,1.4757,1.5738,38.9268,-36.5088,30,0.2561,9307,3.9644,113.6023
lg,1625569134262614975,0,-0.3823,-0.7881,0.9717,520,-28.8086,-184.2041,34.6069,80,1.4717,1.5728,32.8962,-33.8803,31,0.2541,9111,3.9644,120.1629
lg,1625569134262633733,0,-0.1445,-0.6287,0.5925,521,-14.8315,-190.1245,27.8931,80,1.4707,1.5708,26.5922,-32.1727,31,0.2521,8710,3.9644,124.8131
lg,1625569134262651807,0,-0.1116,-0.6106,0.5564,522,-11.9629,-121.3379,6.7139,80,1.4697,1.5698,21.9427,-32.032,31,0.2511,8667,3.9644,127.6041
lg,1625569134262669917,0,-0.0876,-0.7202,0.6919,523,-8.9722,-39.4287,-9.8877,80,1.4677,1.5718,19.7655,-32.775,30,0.2511,8692,3.9644,127.9387
lg,1625569134262777191,0,-0.2029,-0.7073,0.499,524,-0.5493,18.6157,-18.7988,80,1.4707,1.5718,19.7568,-34.042,30,0.2511,8344,3.9644,126.5396
lg,1625569134262798171,0,-0.4766,-0.7478,0.5198,525,0.4272,66.4673,-21.0571,80,1.4707,1.5728,23.0307,-35.7539,30,0.2521,8709,3.9644,123.1001
lg,1625569134262817560,0,-0.5728,-0.7585,0.6289,526,14.2212,109.9243,-10.8032,80,1.4717,1.5718,26.5896,-37.0926,30,0.2531,8348,3.9644,119.6182
lg,1625569134262836522,0,-0.6599,-0.5024,0.6912,527,12.3901,22.7051,10.376,80,1.4727,1.5748,27.9905,-36.6595,30,0.2551,13274,3.9644,119.4002
lg,1625569134262858114,0,-0.5283,-0.7439,0.6338,528,-2.3193,-40.2832,25.3906,80,1.4747,1.5758,27.339,-36.3147,30,0.2581,8827,3.9644,121.1736
lg,1625569134262876020,0,-0.4141,-0.8059,0.6636,529,1.1597,-56.5186,32.2876,80,1.4777,1.5758,26.0765,-35.6445,30,0.2591,8854,3.9644,123.5687
lg,1625569134262893964,0,-0.1558,-0.7705,0.8347,530,19.4702,-63.1104,35.3394,80,1.4837,1.5758,24.113,-33.9497,30,0.2621,8540,3.9644,126.3013
lg,1625569134262911704,0,0.0452,-0.7117,0.7522,531,36.5601,-32.2266,6.2866,80,1.4877,1.5738,22.1714,-32.5026,30,0.2631,9727,3.9644,127.1214
lg,1625569134262930278,0,-0.0242,-0.7041,0.5435,532,36.8042,31.311,-23.9868,80,1.4877,1.5708,21.9544,-32.4597,30,0.2621,10179,3.9644,125.2054
lg,1625569134262963499,0,-0.1372,-0.6821,0.5408,533,34.6069,128.6621,-17.8223,80,1.4907,1.5678,25.3925,-33.362,30,0.2621,8595,3.9644,121.1944
lg,1625569134262983053,0,-0.4282,-0.6021,0.6248,534,26.6724,196.8994,-17.0898,80,1.4887,1.5618,31.5055,-35.4361,30,0.2601,9125,3.9644,115.3029
lg,1625569134263001312,0,-0.6169,-0.5828,0.6917,535,17.8223,201.7822,-12.3291,80,1.4897,1.5568,37.9737,-38.3964,30,0.2591,8651,3.9644,108.8866
lg,1625569134263019367,0,-0.8687,-0.5706,0.801,536,-1.9531,144.2261,18.9209,80,1.4887,1.5528,42.9831,-41,30,0.2631,9047,3.9644,104.8588
lg,1625569134263037218,0,-0.9502,-0.7544,0.8044,537,-24.9634,62.9883,31.3721,80,1.4897,1.5508,45.5767,-42.8028,30,0.2661,8684,3.9644,103.7474
lg,1625569134263054958,0,-1.0322,-0.7109,0.7219,538,-38.5742,-12.8174,41.626,80,1.4927,1.5528,46.3182,-42.767,30,0.2611,9138,3.9644,105.9701
lg,1625569134263073272,0,-0.9866,-0.6121,0.6936,539,-42.3584,-96.9849,52.4292,80,1.4917,1.5588,44.8302,-40.1491,30,0.2601,9186,3.9644,111.9595
lg,1625569134263091031,0,-0.8125,-0.6501,0.6582,540,-37.6587,-133.8501,49.8657,80,1.4877,1.5628,40.3924,-36.253,30,0.2581,8802,3.9644,120.0322
lg,1625569134263109863,0,-0.6848,-0.7007,0.6311,541,-38.4521,-221.0083,52.7344,80,1.4807,1.5648,34.2211,-33.0875,30,0.2581,8807,3.9644,128.2449
lg,1625569134263128492,0,-0.116,-0.6116,0.8391,542,-7.5073,-257.9346,36.3159,80,1.4797,1.5678,25.1762,-29.7568,30,0.2561,9221,3.9644,135.7501
lg,1625569134263145603,0,-0.0012,-0.6523,0.5547,543,-28.9917,-247.3145,1.4648,80,1.4777,1.5678,15.771,-29.8697,30,0.2561,8785,3.9644,140.701
lg,1625569134263163232,0,0.0933,-0.7017,0.217,544,-12.7563,-161.9263,7.5073,80,1.4767,1.5688,9.6405,-31.1357,30,0.2561,9241,3.9644,143.9179
lg,1625569134634365959,0,0.0049,-0.625,0.5771,545,40.7715,87.5244,12.8784,80,1.4767,1.5708,12.518,-30.4085,30,0.2581,26766,3.9644,142.4278
lg,1625569134634415068,0,-0.2842,-0.6169,0.7158,546,30.3345,165.8936,11.2305,80,1.4787,1.5718,18.6063,-30.4235,30,0.2611,17535,3.9644,139.2495
lg,1625569134634437882,0,-0.5894,-0.532,0.7935,547,22.2778,168.7622,16.1743,80,1.4807,1.5728,25.1073,-30.8077,30,0.2651,12970,3.9644,136.3747
lg,1625569134634458622,0,-0.6379,-0.6091,0.8123,548,13.6108,148.6206,19.165,80,1.4847,1.5718,30.8267,-31.7794,30,0.2671,8579,3.9644,133.5123
lg,1625569134634478085,0,-0.7781,-0.6394,0.7407,549,17.6392,95.52,5.3711,80,1.4877,1.5718,34.4581,-32.5879,30,0.2671,8989,3.9644,131.1327
lg,1625569134634497065,0,-0.7334,-0.6199,0.7646,550,18.0054,54.9927,10.6812,80,1.4897,1.5708,36.6135,-32.7028,30,0.2681,9006,3.9644,129.9717
lg,1625569134634516398,0,-0.6052,-0.6777,0.7615,551,15.686,25.4517,10.9863,80,1.4907,1.5688,37.4727,-32.5846,30,0.2701,9022,3.9644,129.5197
lg,1625569134634628060,0,-0.6033,-0.7393,0.7236,552,8.9722,29.1138,8.728,80,1.4907,1.5668,38.3682,-33.0405,30,0.2731,9963,3.9644,128.7503
lg,1625569134634651522,0,-0.6938,-0.7131,0.708,553,1.5259,22.2778,16.5405,80,1.4917,1.5658,39.113,-33.4336,30,0.2781,9080,3.9644,129.5643
lg,1625569134634671762,0,-0.6697,-0.7537,0.7871,554,-32.0435,-9.2773,44.8608,80,1.4927,1.5678,39.5085,-33.7528,30,0.2741,8724,3.9644,131.4863
lg,1625569134634691836,0,-0.7942,-0.5527,0.6067,555,-40.8325,-47.7295,48.8892,80,1.4897,1.5718,39.1915,-33.4779,30,0.2701,8343,3.9644,134.7731
lg,1625569134634713057,0,-0.9446,-0.5571,0.5442,556,-46.6309,-90.21,50.7202,80,1.4847,1.5728,37.7526,-32.7907,30,0.2681,8369,3.9644,139.2379
lg,1625569134634731316,0,-0.6399,-0.6699,0.9067,557,-18.6157,-165.9546,36.6211,80,1.4807,1.5718,32.573,-30.3493,30,0.2621,8761,3.9644,144.9319
lg,1625569134634750574,0,-0.5381,-0.8049,0.7678,558,-20.4468,-208.374,18.1274,80,1.4757,1.5668,25.5163,-29.1535,30,0.2571,8409,3.9644,150.0429
lg,1625569134634787943,0,-0.0876,-0.6677,0.6904,559,-3.8452,-250.1831,18.0664,80,1.4727,1.5658,16.3715,-27.854,30,0.2551,8739,3.9644,155.5556
lg,1625569134634810294,0,-0.0085,-0.6079,0.3804,560,-11.4746,-163.0859,0,80,1.4717,1.5658,10.1225,-28.7394,30,0.2531,9182,3.9644,158.4097
lg,1625569134634828164,0,0.0938,-0.7463,0.4944,561,-10.8643,-102.9053,7.1411,80,1.4707,1.5668,8.7338,-29.9404,30,0.2531,8019,3.9644,159.3573
lg,1625569134634847867,0,0.0605,-0.8025,0.6262,562,-1.77,36.2549,14.2212,80,1.4697,1.5658,9.8117,-30.9063,30,0.2541,9059,3.9644,158.9795
lg,1625569134634866051,0,-0.1167,-0.7241,0.7346,563,18.1885,112.5488,5.249,80,1.4717,1.5658,13.6336,-31.162,30,0.2541,9235,3.9644,156.6945
lg,1625569134634884051,0,-0.313,-0.6426,0.7441,564,23.0713,136.1694,-6.2256,80,1.4727,1.5678,18.295,-31.4821,30,0.2541,8866,3.9644,153.4342
lg,1625569134634902680,0,-0.4866,-0.5996,0.6272,565,13.0615,118.8965,-9.2773,80,1.4757,1.5708,22.5511,-32.4569,30,0.2571,10988,3.9644,150.2626
lg,1625569134634920309,0,-0.6179,-0.6404,0.6306,566,9.4604,92.3462,-0.6714,80,1.4757,1.5718,26.0996,-33.4538,30,0.2591,9276,3.9644,147.8465
lg,1625569134634939086,0,-0.5784,-0.624,0.7395,567,13.2446,59.1431,15.9302,80,1.4827,1.5728,28.5995,-33.574,30,0.2621,9271,3.9644,146.8584
lg,1625569134634957974,0,-0.4375,-0.6296,0.7771,568,21.6675,27.8931,9.9487,80,1.4867,1.5718,29.5455,-33.0831,30,0.2631,8938,3.9644,146.4285
lg,1625569134634975992,0,-0.4067,-0.6748,0.7131,569,24.353,25.5127,5.188,80,1.4897,1.5698,30.1996,-32.8368,30,0.2641,8621,3.9644,145.7337
lg,1625569134634993787,0,-0.4001,-0.6899,0.6548,570,20.874,43.7012,-5.0049,80,1.4897,1.5678,31.2768,-33.2375,30,0.2651,8723,3.9644,144.1383
lg,1625569134635011824,0,-0.4685,-0.6899,0.6494,571,19.8364,74.0967,-7.1411,80,1.4877,1.5638,33.3908,-34.1923,30,0.2631,9455,3.9644,141.6133
lg,1625569134635029101,0,-0.6528,-0.6851,0.6672,572,11.7188,82.3364,-3.418,80,1.4877,1.5608,36.0428,-35.5576,30,0.2631,9470,3.9644,138.9262
lg,1625569134635047193,0,-0.8301,-0.6165,0.6479,573,-1.4038,46.0815,21.4844,80,1.4877,1.5568,38.2965,-36.1865,30,0.2691,9308,3.9644,138.2695
lg,1625569134635082062,0,-0.8335,-0.7671,0.7622,574,-35.6445,-18.6768,48.5229,80,1.4897,1.5578,38.8211,-36.353,30,0.2651,9138,3.9644,140.6212
lg,1625569134635102672,0,-0.9011,-0.625,0.6326,575,-39.4897,-46.9971,49.0723,80,1.4907,1.5608,37.3706,-35.2619,30,0.2621,9186,3.9644,145.1088
lg,1625569134635121023,0,-0.886,-0.5684,0.5056,576,-40.8325,-131.897,52.5513,80,1.4877,1.5648,34.7628,-33.8587,30,0.2581,9211,3.9644,150.719
lg,1625569135022489015,0,0.093,-0.731,0.6829,577,-20.2026,-276.9165,57.373,80,1.4697,1.5658,25.5831,-31.6812,30,0.2471,28197,3.9644,157.584
lg,1625569135022527865,0,0.4456,-0.7114,0.7354,578,-11.6577,-191.5283,21.0571,80,1.4687,1.5648,17.809,-30.7537,30,0.2471,8700,3.9644,162.4093
lg,1625569135022548661,0,0.2488,-0.7129,0.4211,579,-4.0894,-20.752,-16.5405,80,1.4687,1.5658,15.546,-32.0313,30,0.2471,8544,3.9644,161.9512
lg,1625569135022570141,0,-0.0547,-0.7534,0.4058,580,12.8174,122.6196,-19.3481,80,1.4697,1.5668,18.8288,-33.7089,30,0.2491,8848,3.9644,158.1687
lg,1625569135022590326,0,-0.3848,-0.6963,0.4934,581,33.6304,207.5806,-11.3525,80,1.4707,1.5678,25.6275,-35.239,30,0.2501,9972,3.9644,152.4223
lg,1625569135022608918,0,-0.6335,-0.4172,0.7712,582,42.3584,210.022,0.2441,80,1.4727,1.5698,32.8161,-36.0286,30,0.2531,9418,3.9644,146.9259
lg,1625569135022628454,0,-0.8394,-0.4961,0.8174,583,28.4424,171.2646,2.5024,80,1.4757,1.5708,36.9346,-37.2129,30,0.2551,9008,3.9644,143.8551
lg,1625569135022646750,0,-0.8206,-0.6619,0.8145,584,6.8359,63.4155,10.0098,80,1.4787,1.5708,39.2071,-37.9693,30,0.2581,8632,3.9644,142.2437
lg,1625569135022666397,0,-0.5088,-0.751,0.8345,585,14.4653,-1.8311,23.1323,80,1.4827,1.5718,39.1258,-36.9363,30,0.2601,9022,3.9644,143.13
lg,1625569135022684971,0,-0.3098,-0.6313,0.7917,586,18.7378,-2.7466,14.2212,80,1.4847,1.5708,38.513,-35.8429,30,0.2631,8647,3.9644,143.7471
lg,1625569135022703100,0,-0.2434,-0.6912,0.7522,587,12.9395,29.7241,5.3101,80,1.4877,1.5708,38.631,-36.0678,30,0.2651,8699,3.9644,142.8687
lg,1625569135022720821,0,-0.2888,-0.7397,0.7402,588,12.3291,51.8188,1.3428,80,1.4897,1.5698,40.1764,-37.5233,30,0.2671,9092,3.9644,140.231
lg,1625569135022738413,0,-0.4788,-0.7407,0.6975,589,7.0801,89.0503,0.4272,80,1.4897,1.5698,42.3669,-39.5998,30,0.2721,9124,3.9644,137.0137
lg,1625569135022757024,0,-0.741,-0.6697,0.5972,590,-25.7568,50.9033,23.0713,80,1.4897,1.5718,44.3856,-41.5665,30,0.2721,13984,3.9644,135.9082
lg,1625569135022775171,0,-0.875,-0.5837,0.6094,591,-36.0718,-5.5542,37.3535,80,1.4867,1.5738,45.2662,-41.8157,30,0.2681,8427,3.9644,137.6413
lg,1625569135022794189,0,-0.8743,-0.645,0.8513,592,-35.8887,-23.3154,45.9595,80,1.4827,1.5728,44.549,-39.8758,30,0.2661,8822,3.9644,142.2686
lg,1625569135022811948,0,-0.6335,-0.5674,0.9963,593,-16.4795,-115.5396,46.0205,80,1.4787,1.5708,41.458,-36.0391,30,0.2611,8844,3.9644,148.4864
lg,1625569135022830206,0,-0.386,-0.7422,0.8267,594,-27.9541,-177.7344,24.9634,80,1.4757,1.5678,35.3772,-33.5636,30,0.2581,8850,3.9644,154.5253
lg,1625569135022847928,0,-0.2661,-0.5947,0.3733,595,-5.6152,-161.6211,9.1553,80,1.4767,1.5658,29.7204,-32.3711,30,0.2561,9253,3.9644,158.4697
lg,1625569135022866038,0,-0.2019,-0.6697,0.5012,596,0.1221,-75.8667,17.6392,80,1.4757,1.5668,26.978,-32.0536,30,0.2561,8839,3.9644,160.5487
lg,1625569135022884630,0,-0.0618,-0.7183,0.7385,597,5.6152,-43.1519,27.4658,80,1.4747,1.5678,25.837,-31.5312,30,0.2541,8461,3.9644,161.7261
lg,1625569135022902185,0,-0.0791,-0.6719,0.6489,598,13.4277,5.9204,16.1133,80,1.4747,1.5698,25.7033,-31.3574,30,0.2561,9263,3.9644,161.9472
lg,1625569135022920314,0,-0.3408,-0.7334,0.7991,599,17.7612,99.7314,-0.6714,80,1.4777,1.5708,28.745,-32.2059,30,0.2601,12260,3.9644,159.3492
lg,1625569135023008996,0,-0.5073,-0.687,0.7261,600,18.5547,85.8154,-4.1504,80,1.4797,1.5708,31.4657,-33.0678,30,0.2611,9252,3.9644,156.8231
lg,1625569135023042162,0,-0.5371,-0.6914,0.71,601,18.5547,74.3408,-2.8076,80,1.4837,1.5708,33.6753,-33.7851,30,0.2641,9159,3.9644,154.5764
lg,1625569135023061291,0,-0.4404,-0.6653,0.7832,602,21.9116,52.3682,-0.9766,87,1.4867,1.5688,34.9673,-34.0111,30,0.2671,9424,3.9644,152.9601
lg,1625569135023079660,0,-0.3494,-0.6462,0.644,603,26.3672,53.5278,-14.2822,87,1.4877,1.5648,35.8661,-34.6443,30,0.2681,9383,3.9644,150.6118
lg,1625569135023100400,0,-0.3584,-0.6379,0.5986,604,22.583,81.543,-17.1509,87,1.4877,1.5648,37.5931,-36.1124,30,0.2671,9474,3.9644,147.2324
lg,1625569135023118955,0,-0.4656,-0.6326,0.6106,605,16.1743,117.981,-17.5781,87,1.4847,1.5628,40.5107,-38.6786,30,0.2691,9226,3.9644,142.5477
lg,1625569135023160028,0,-0.7561,-0.6189,0.6604,606,1.8311,118.2861,-2.9297,87,1.4867,1.5608,43.9857,-41.6361,30,0.2711,9490,3.9644,138.1707
lg,1625569135023214341,0,-0.8892,-0.7292,0.7798,607,-19.043,69.2139,27.5269,87,1.4877,1.5628,46.5696,-43.5168,30,0.2751,9173,3.9644,136.6136
lg,1625569135023236562,0,-0.9866,-0.7412,0.8057,608,-29.2969,-7.5684,35.1562,87,1.4887,1.5648,47.1239,-43.3141,30,0.2711,9211,3.9644,138.4539
lg,1625569135398493672,0,-0.3872,-0.5547,1.1021,609,-25.2686,-201.5991,43.396,87,1.4807,1.5698,41.3825,-38.1282,30,0.2621,28297,3.9644,147.4727
lg,1625569135398529004,0,-0.176,-0.6182,0.6196,610,-34.4238,-235.4126,-10.8643,87,1.4787,1.5678,32.5401,-35.833,30,0.2581,11367,3.9644,153.8972
lg,1625569135398550077,0,-0.313,-0.666,0.1602,611,-20.9961,-206.0547,-22.583,87,1.4787,1.5678,26.5723,-36.5812,30,0.2571,7819,3.9644,156.3186
lg,1625569135398569336,0,-0.3442,-0.7285,0.2979,612,-15.9302,-115.5396,-28.9917,87,1.4787,1.5688,22.2166,-37.5451,30,0.2561,8606,3.9644,157.842
lg,1625569135398588372,0,-0.1833,-0.8135,0.6743,613,22.3389,-70.4346,6.1035,87,1.4787,1.5688,19.6571,-36.4533,30,0.2551,7774,3.9644,159.6669
lg,1625569135398606557,0,-0.0054,-0.6516,0.731,614,36.377,-51.1475,11.6577,87,1.4787,1.5708,17.5222,-34.6885,30,0.2551,8966,3.9644,161.2409
lg,1625569135398624908,0,0.0588,-0.6113,0.717,615,27.4658,13.4277,11.9019,87,1.4807,1.5728,17.415,-33.7964,30,0.2561,10767,3.9644,161.2572
lg,1625569135398643741,0,-0.0317,-0.7419,0.7285,616,19.043,54.1992,10.7422,87,1.4817,1.5718,19.7939,-34.3571,30,0.2581,8849,3.9644,159.1086
lg,1625569135398661573,0,-0.144,-0.7454,0.6858,617,15.9302,111.5723,-3.2959,87,1.4837,1.5738,22.9154,-35.2951,30,0.2611,9022,3.9644,156.0685
lg,1625569135398679462,0,-0.2827,-0.6311,0.7385,618,27.1606,142.7002,8.4839,87,1.4837,1.5728,27.46,-35.854,31,0.2631,8280,3.9644,152.612
lg,1625569135398696776,0,-0.4126,-0.5486,0.7612,619,17.0898,146.3623,5.3101,87,1.4877,1.5718,32.1097,-37.054,31,0.2681,8315,3.9644,148.7956
lg,1625569135398734404,0,-0.5505,-0.6897,0.7495,620,15.9912,136.9629,0.5493,87,1.4907,1.5708,35.9422,-38.7273,31,0.2681,8735,3.9644,145.023
lg,1625569135398753274,0,-0.5701,-0.7285,0.7744,621,14.3433,113.7695,3.418,87,1.4917,1.5698,39.1961,-40.4946,31,0.2681,7990,3.9644,141.3727
lg,1625569135398770699,0,-0.5833,-0.6819,0.7449,622,17.0288,88.9893,7.9346,87,1.4907,1.5678,41.6933,-41.6838,30,0.2711,8419,3.9644,138.5521
lg,1625569135398788810,0,-0.6675,-0.6309,0.7136,623,7.1411,74.2188,17.5781,87,1.4907,1.5638,44.0695,-42.7465,30,0.2721,8781,3.9644,136.5426
lg,1625569135398806457,0,-0.7095,-0.6514,0.7798,624,-15.7471,39.917,41.748,87,1.4907,1.5638,45.9921,-43.0899,30,0.2771,9425,3.9644,136.8292
lg,1625569135398824345,0,-0.7297,-0.7617,0.8408,625,-32.8979,20.1416,50.0488,87,1.4927,1.5638,47.4099,-43.3744,30,0.2731,8514,3.9644,138.1918
lg,1625569135398841734,0,-0.8093,-0.6875,0.6807,626,-42.1143,-19.5923,60.1196,87,1.4927,1.5668,48.1696,-42.5878,30,0.2671,8861,3.9644,141.5578
lg,1625569135398859437,0,-0.8406,-0.5481,0.5776,627,-48.2788,-81.9702,76.1108,87,1.4877,1.5698,47.6407,-39.5904,30,0.2601,8163,3.9644,148.2039
lg,1625569135398876584,0,-0.7983,-0.718,0.7966,628,-61.5845,-143.4937,72.937,87,1.4817,1.5708,44.4919,-36.0899,30,0.2581,8900,3.9644,156.5413
lg,1625569135398893750,0,-0.5266,-0.6096,0.9141,629,-27.4048,-194.2139,64.1479,87,1.4767,1.5698,38.8207,-32.0857,30,0.2541,8935,3.9644,164.7381
lg,1625569135398910824,0,-0.1338,-0.7966,0.9131,630,-39.6118,-256.3477,40.6494,87,1.4737,1.5678,29.717,-29.5697,30,0.2511,8203,3.9644,-187.5134
lg,1625569135398928082,0,0.0933,-0.6738,0.5525,631,-13.6108,-234.6191,11.5967,87,1.4707,1.5668,20.5438,-28.6696,30,0.2501,8938,3.9644,-182.4798
lg,1625569135398946082,0,0.1116,-0.749,0.4761,632,-7.9956,-122.6196,-8.1787,87,1.4717,1.5678,15.153,-29.4415,30,0.2511,9330,3.9644,-180.6689
lg,1625569135398963674,0,0.1692,-0.748,0.5369,633,1.5869,-75.1343,-4.7607,87,1.4717,1.5688,13.3978,-29.8641,31,0.2511,8956,3.9644,-180.7425
lg,1625569135398981136,0,-0.0234,-0.7017,0.4636,634,29.48,107.1167,-19.8364,87,1.4737,1.5708,16.2732,-30.4862,31,0.2521,10998,3.9644,-183.928
lg,1625569135398999358,0,-0.3052,-0.6748,0.6541,635,41.4429,199.9512,-23.5596,87,1.4757,1.5718,22.7048,-31.1735,31,0.2541,9545,3.9644,170.6931
lg,1625569135399016579,0,-0.4604,-0.6199,0.7649,636,46.0205,211.5479,-20.9961,87,1.4777,1.5728,29.5159,-32.1744,30,0.2561,8265,3.9644,164.8251
lg,1625569135399033838,0,-0.6892,-0.4199,0.7393,637,24.7803,171.1426,-11.0474,87,1.4747,1.5738,35.3493,-33.6872,30,0.2571,8315,3.9644,160.0099
lg,1625569135399062189,0,-0.7991,-0.6345,0.7837,638,7.9346,110.5347,-4.1504,87,1.4827,1.5738,38.9798,-35.5795,30,0.2621,9135,3.9644,156.5535
lg,1625569135399081558,0,-0.6851,-0.7473,0.8286,639,13.6719,51.6968,1.709,87,1.4847,1.5718,40.3857,-36.268,30,0.2661,8777,3.9644,154.8693
lg,1625569135399098947,0,-0.4993,-0.6147,0.7637,640,20.6909,29.6021,0.1221,87,1.4887,1.5728,40.4235,-35.8792,30,0.2691,9230,3.9644,154.3015
lg,1625569135792639371,0,-0.5518,-0.6865,0.7026,641,3.479,52.3682,3.0518,87,1.4917,1.5698,41.9538,-37.1376,30,0.2781,28080,3.9644,152.9484
lg,1625569135792699998,0,-0.7874,-0.6633,0.6985,642,-28.9307,14.9536,36.2549,87,1.4927,1.5708,43.1934,-37.8184,30,0.2751,17605,3.9644,153.8448
lg,1625569135792722183,0,-0.8159,-0.5823,0.6572,643,-27.4658,-12.2681,48.7671,87,1.4907,1.5718,42.9186,-36.4515,30,0.2711,8185,3.9644,157.7129
lg,1625569135792741719,0,-0.8281,-0.6086,0.6118,644,-34.6069,-81.9702,51.5137,87,1.4877,1.5728,41.5122,-34.8801,30,0.2691,8939,3.9644,162.3584
lg,1625569135792760274,0,-0.7732,-0.7063,0.6079,645,-35.7666,-148.3154,65.0024,87,1.4837,1.5728,38.0006,-32.3178,30,0.2661,8569,3.9644,169.0945
lg,1625569135792778495,0,-0.387,-0.6895,0.6208,646,-13.855,-213.2568,56.5796,87,1.4837,1.5728,31.3271,-29.1947,30,0.2631,9494,3.9644,-183.6681
lg,1625569135792796476,0,0.0615,-0.741,0.7917,647,-17.395,-237.6709,44.0674,87,1.4787,1.5728,22.596,-27.4194,30,0.2601,9513,3.9644,-177.2139
lg,1625569135792814716,0,0.2859,-0.6833,0.6658,648,-10.9863,-166.748,26.5503,87,1.4787,1.5738,15.7901,-27.1767,30,0.2601,8618,3.9644,-173.2567
lg,1625569135792832401,0,0.3464,-0.7083,0.624,649,-8.8501,-95.2148,20.6909,87,1.4787,1.5738,11.5129,-27.7161,30,0.2611,8228,3.9644,-170.905
lg,1625569135792849919,0,0.0784,-0.7275,0.521,650,18.8599,102.5391,-10.7422,87,1.4807,1.5758,14.31,-28.5287,30,0.2621,11547,3.9644,-173.4874
lg,1625569135792867529,0,-0.0779,-0.6636,0.4661,651,26.3672,161.6821,-15.7471,87,1.4807,1.5748,19.3312,-29.6338,30,0.2641,8633,3.9644,-177.6089
lg,1625569135792884732,0,-0.4631,-0.5703,0.6533,652,30.2734,251.77,-18.4326,87,1.4837,1.5758,27.9338,-31.3787,30,0.2681,8718,3.9644,-184.0274
lg,1625569135792901491,0,-0.7861,-0.5254,0.7449,653,19.165,216.3086,-12.7563,87,1.4877,1.5768,35.3905,-33.891,30,0.2721,9093,3.9644,169.9059
lg,1625569135792918583,0,-0.9683,-0.7043,0.7273,654,14.3433,129.5776,-22.2778,87,1.4897,1.5748,38.043,-35.4266,30,0.2741,13316,3.9644,166.6414
lg,1625569135792935231,0,-0.8049,-0.6816,0.6885,655,19.4702,43.0908,-6.6528,87,1.4897,1.5738,39.3468,-35.9818,30,0.2731,8509,3.9644,164.8504
lg,1625569135792953267,0,-0.5903,-0.6584,0.6809,656,17.8833,-2.6855,-0.8545,87,1.4887,1.5738,38.9501,-35.5788,30,0.2741,8464,3.9644,164.6786
lg,1625569135792970322,0,-0.5107,-0.6902,0.6343,657,7.6904,-3.7231,2.3193,87,1.4887,1.5738,38.492,-35.6562,30,0.2771,8470,3.9644,164.5608
lg,1625569135793008487,0,-0.5979,-0.7954,0.6948,658,-21.9727,-13.3057,28.9917,87,1.4907,1.5748,38.4099,-36.1011,30,0.2821,9651,3.9644,165.8075
lg,1625569135793026690,0,-0.7607,-0.6794,0.5703,659,-31.8604,-22.3999,45.4102,87,1.4897,1.5758,38.4902,-36.2108,30,0.2721,9775,3.9644,168.7797
lg,1625569135793043449,0,-0.9023,-0.5808,0.5664,660,-47.0581,-53.1616,57.4951,87,1.4827,1.5768,38.3732,-35.4778,30,0.2681,9286,3.9644,-187.1552
lg,1625569135793070337,0,-0.6255,-0.4319,1.1987,661,-20.874,-116.9434,68.7256,87,1.4767,1.5688,35.5778,-31.9359,30,0.2601,8960,3.9644,-180.6086
lg,1625569135793087966,0,-0.4412,-0.8149,0.9929,662,-46.2036,-208.6182,34.9121,87,1.4727,1.5638,28.5793,-30.6367,30,0.2541,8998,3.9644,-174.2751
lg,1625569135793105076,0,-0.2905,-0.6399,0.4011,663,-10.376,-221.9238,6.897,87,1.4707,1.5608,20.9129,-29.9346,30,0.2481,8917,3.9644,-169.5912
lg,1625569135793122446,0,-0.0671,-0.7285,0.6694,664,0,-151.5503,16.2964,87,1.4707,1.5618,15.366,-29.4688,30,0.2451,9314,3.9644,-166.0882
lg,1625569135793140446,0,0.1648,-0.6807,0.6838,665,-2.8687,-105.4688,10.6201,87,1.4697,1.5618,10.9817,-29.6115,30,0.2451,9353,3.9644,-163.7293
lg,1625569135793159149,0,0.1689,-0.7102,0.6812,666,-0.9766,-47.4243,6.1646,87,1.4707,1.5618,10.8428,-30.3598,30,0.2461,9270,3.9644,-164.2989
lg,1625569135793176092,0,-0.0054,-0.7771,0.6294,667,4.2725,67.8711,-14.0381,87,1.4717,1.5628,12.4832,-31.3844,30,0.2491,8633,3.9644,-166.3675
lg,1625569135793194129,0,-0.4038,-0.7644,0.613,668,17.0898,147.2168,-33.9355,87,1.4737,1.5668,17.7829,-32.4842,30,0.2511,12059,3.9644,-171.4862
lg,1625569135793212221,0,-0.4954,-0.73,0.6133,669,27.0996,171.6919,-36.6821,87,1.4767,1.5688,23.0979,-33.9035,30,0.2521,9052,3.9644,-177.0138
lg,1625569135793230220,0,-0.6553,-0.6038,0.6758,670,28.1982,128.6621,-31.311,87,1.4797,1.5708,27.1134,-34.8976,30,0.2531,9089,3.9644,-181.4837
lg,1625569135793248886,0,-0.6782,-0.614,0.6018,671,11.7798,64.0869,-19.5312,87,1.4807,1.5718,29.1827,-35.9324,30,0.2541,9126,3.9644,-184.0683
lg,1625569135793266941,0,-0.5437,-0.7026,0.7317,672,18.9819,23.4375,-3.1738,87,1.4857,1.5728,29.8258,-35.8516,30,0.2591,9676,3.9644,-184.9713
lg,1625569136176149642,0,-0.269,-0.6619,0.6204,673,25.1465,24.4141,-4.6997,87,1.4867,1.5668,29.9938,-35.7359,30,0.2641,26509,3.9644,-186.0459
lg,1625569136176187049,0,-0.4768,-0.6616,0.6147,674,8.728,81.4819,4.8218,87,1.4847,1.5628,32.6408,-36.9223,30,0.2621,16332,3.9644,-188.3613
lg,1625569136176208381,0,-0.6514,-0.6304,0.7046,675,-7.7515,78.3691,43.2129,87,1.4847,1.5608,36.2321,-37.7765,30,0.2681,8667,3.9644,170.8876
lg,1625569136176228436,0,-0.7114,-0.7363,0.7554,676,-26.6113,60.9741,58.4106,87,1.4877,1.5618,38.9925,-39.1707,30,0.2621,8967,3.9644,-188.2247
lg,1625569136176247621,0,-0.9829,-0.7349,0.7219,677,-48.2788,12.3901,62.7441,87,1.4877,1.5648,41.1453,-39.9559,30,0.2561,8209,3.9644,-186.2561
lg,1625569136176265731,0,-1.0649,-0.4409,0.4722,678,-53.2227,-101.9897,93.5669,87,1.4817,1.5678,40.9935,-37.3552,30,0.2491,9005,3.9644,-179.0087
lg,1625569136176283656,0,-1.0112,-0.5972,0.6558,679,-70.0073,-184.2651,112.9761,87,1.4697,1.5698,37.9647,-33.7253,30,0.2461,10661,3.9644,-168.7677
lg,1625569136176301434,0,-0.3928,-0.7869,0.6609,680,-22.2168,-322.3267,82.5195,87,1.4697,1.5668,28.1598,-29.1176,30,0.2431,8639,3.9644,-157.8738
lg,1625569136176343988,0,0.355,-0.7915,0.8284,681,-18.1885,-346.1914,60.1807,87,1.4667,1.5668,15.5872,-26.9706,30,0.2411,8999,3.9644,-148.9283
lg,1625569136176364654,0,0.5039,-0.6882,0.686,682,-5.5542,-301.0864,33.9355,87,1.4667,1.5668,4.0025,-26.6707,30,0.2411,8235,3.9644,-142.3886
lg,1625569136176383301,0,0.6106,-0.7861,0.7395,683,-17.8223,-103.3936,13.9771,87,1.4667,1.5678,-0.644,-27.9715,30,0.2411,8678,3.9644,-140.0249
lg,1625569136176409837,0,0.3806,-0.7949,0.4824,684,-3.1128,64.209,-22.2778,87,1.4677,1.5688,0.7725,-29.5386,30,0.2451,10392,3.9644,-142.0229
lg,1625569136176428300,0,-0.0989,-0.7483,0.3096,685,11.5356,226.2573,-47.4854,87,1.4687,1.5698,7.8438,-30.9305,30,0.2471,8661,3.9644,-148.2535
lg,1625569136176446540,0,-0.5215,-0.77,0.5608,686,34.2407,317.0166,-35.2173,87,1.4707,1.5708,18.6643,-32.2137,30,0.2481,8718,3.9644,-156.3939
lg,1625569136176464410,0,-0.8018,-0.4827,0.6631,687,56.4575,262.2681,-23.2544,87,1.4727,1.5718,27.927,-32.8387,30,0.2481,8730,3.9644,-163.4185
lg,1625569136176482280,0,-0.96,-0.2112,0.6709,688,42.1143,209.8999,-16.4185,87,1.4737,1.5718,35.5162,-34.0717,30,0.2501,8748,3.9644,-169.3838
lg,1625569136176500094,0,-1.0142,-0.6023,0.6709,689,-5.188,83.5571,-5.7983,87,1.4767,1.5698,38.5925,-36.1242,31,0.2531,8814,3.9644,-172.1976
lg,1625569136176518389,0,-0.7764,-0.8428,0.7756,690,12.207,-7.6294,14.0991,87,1.4807,1.5728,38.5137,-35.5889,31,0.2581,8169,3.9644,-171.6727
lg,1625569136176536037,0,-0.4346,-0.6323,0.7893,691,29.1748,-61.3403,13.916,87,1.4827,1.5728,36.2135,-33.1565,31,0.2621,8536,3.9644,-169.4422
lg,1625569136176554240,0,-0.2341,-0.6355,0.7405,692,29.1748,-61.8896,11.4136,87,1.4857,1.5728,33.8909,-31.9177,31,0.2631,9266,3.9644,-168.3822
lg,1625569136176578295,0,-0.1978,-0.7114,0.6753,693,15.7471,-13.7329,-2.9907,87,1.4867,1.5708,32.5297,-31.8274,30,0.2661,8890,3.9644,-168.5286
lg,1625569136176596220,0,-0.342,-0.7786,0.6094,694,14.4043,56.0303,-6.5918,87,1.4877,1.5708,33.7985,-33.0564,30,0.2681,8175,3.9644,-170.7062
lg,1625569136176614571,0,-0.5496,-0.7251,0.6404,695,-6.2866,82.1533,18.9209,87,1.4887,1.5708,36.7885,-34.7977,30,0.2731,8206,3.9644,-172.55
lg,1625569136176632700,0,-0.802,-0.7046,0.6755,696,-25.3296,78.7964,28.5645,87,1.4927,1.5728,39.7159,-36.8345,30,0.2691,8898,3.9644,-173.315
lg,1625569136176650218,0,-0.9329,-0.5178,0.623,697,-26.3672,-6.2256,51.6357,87,1.4867,1.5738,41.1044,-36.4302,30,0.2611,12308,3.9644,-170.9953
lg,1625569136176667292,0,-1.0876,-0.6838,0.7144,698,-44.9829,-70.6177,51.8799,87,1.4817,1.5738,40.3133,-35.5867,30,0.2591,8699,3.9644,-166.7367
lg,1625569136176684495,0,-0.8076,-0.6621,0.5642,699,-30.2734,-127.2583,57.4951,87,1.4777,1.5728,35.2677,-31.9902,30,0.2551,9152,3.9644,-159.7184
lg,1625569136176702402,0,-0.5471,-0.7708,0.9045,700,-36.438,-231.6284,45.0439,87,1.4737,1.5698,27.8969,-29.9129,30,0.2521,9092,3.9644,-152.5175
lg,1625569136176720049,0,-0.1536,-0.6519,0.5977,701,-10.9863,-267.5781,32.5928,87,1.4717,1.5668,18.5904,-28.3545,30,0.2491,9081,3.9644,-145.969
lg,1625569136176756844,0,-0.001,-0.6426,0.5107,702,-16.0522,-191.8335,23.4375,87,1.4707,1.5668,11.6636,-28.6918,30,0.2471,10924,3.9644,-141.6131
lg,1625569136176777307,0,0.2339,-0.7412,0.665,703,-5.8594,-99.6094,23.4375,87,1.4707,1.5688,7.625,-29.2146,30,0.2461,10995,3.9644,-138.9733
lg,1625569136176795751,0,0.2124,-0.7942,0.6599,704,-0.4272,31.0059,7.9956,87,1.4717,1.5688,8.1253,-30.0776,30,0.2471,9148,3.9644,-139.4169
lg,1625569136550923564,0,-0.533,-0.6838,0.6458,705,23.2544,185.3638,-24.231,87,1.4777,1.5718,14.8354,-30.6512,30,0.2521,26832,3.9644,-144.179
lg,1625569136550976469,0,-0.679,-0.644,0.6426,706,14.0991,132.3242,-13.855,87,1.4817,1.5728,18.9704,-31.3941,30,0.2561,8677,3.9644,-146.6436
lg,1625569136551007524,0,-0.5435,-0.6748,0.6978,707,13.855,37.7197,3.6621,87,1.4847,1.5728,20.7425,-31.5345,30,0.2611,10375,3.9644,-147.4996
lg,1625569136551037338,0,-0.4763,-0.6733,0.6333,708,19.165,20.0195,1.2817,87,1.4867,1.5718,21.3101,-31.3382,30,0.2641,8539,3.9644,-147.9522
lg,1625569136551095521,0,-0.3564,-0.6558,0.6223,709,21.6675,15.4419,2.9297,87,1.4877,1.5708,21.9259,-31.1468,30,0.2661,9025,3.9644,-148.4049
lg,1625569136551125390,0,-0.325,-0.6377,0.6462,710,17.0288,46.875,4.7607,87,1.4867,1.5698,23.5469,-31.3383,30,0.2681,10225,3.9644,-149.4868
lg,1625569136551152760,0,-0.5254,-0.6255,0.6558,711,2.6245,82.5806,14.5264,87,1.4857,1.5778,26.9135,-32.2772,30,0.2721,9589,3.9644,-151.058
lg,1625569136551179222,0,-0.7527,-0.7363,0.7502,712,-27.6489,68.6646,45.166,87,1.4887,1.5708,30.5366,-33.8077,31,0.2711,8500,3.9644,-151.2503
lg,1625569136551206202,0,-0.9966,-0.6929,0.6562,713,-39.917,13.4277,58.1055,87,1.4877,1.5728,32.9088,-34.7993,31,0.2601,9135,3.9644,-149.5616
lg,1625569136551232257,0,-1.104,-0.4397,0.593,714,-45.0439,-77.6367,72.7539,87,1.4827,1.5738,32.8912,-33.935,31,0.2561,9315,3.9644,-144.6164
lg,1625569136551258645,0,-0.9319,-0.4922,0.9915,715,-49.0112,-116.0278,77.0874,87,1.4787,1.5728,30.8849,-32.8508,31,0.2531,8789,3.9644,-138.6523
lg,1625569136551284903,0,-0.5876,-0.8201,0.7844,716,-34.4849,-232.666,49.1943,87,1.4737,1.5678,23.9822,-31.3138,30,0.2491,8381,3.9644,-131.473
lg,1625569136551311810,0,-0.0305,-0.6357,0.5681,717,-7.0801,-268.1274,23.9868,87,1.4707,1.5658,15.3117,-30.8924,30,0.2431,8864,3.9644,-126.5683
lg,1625569136551338883,0,0.0515,-0.696,0.7405,718,-21.4233,-180.3589,2.7466,87,1.4707,1.5658,8.224,-31.4855,30,0.2431,8662,3.9644,-122.7942
lg,1625569136551366086,0,0.2556,-0.709,0.626,719,-10.8643,-96.7407,3.0518,87,1.4707,1.5658,4.1326,-32.3219,30,0.2441,9728,3.9644,-120.716
lg,1625569136551393770,0,0.0703,-0.7344,0.4023,720,-5.3711,47.6074,-23.6206,87,1.4707,1.5668,4.8729,-33.7707,30,0.2441,8088,3.9644,-122.6295
lg,1625569136551420177,0,-0.2864,-0.8008,0.5271,721,7.2021,162.5366,-29.4189,87,1.4717,1.5678,10.0223,-34.9343,30,0.2461,8138,3.9644,-127.3873
lg,1625569136551446805,0,-0.5088,-0.7883,0.7136,722,19.8975,178.5278,-23.8037,87,1.4737,1.5688,15.7375,-35.1349,30,0.2471,9118,3.9644,-132.0982
lg,1625569136551473582,0,-0.5669,-0.7039,0.6904,723,40.1611,142.8833,-19.9585,87,1.4747,1.5698,20.483,-35.1882,30,0.2491,8995,3.9644,-136.3521
lg,1625569136551499693,0,-0.6277,-0.4578,0.6323,724,24.353,69.458,-9.0332,87,1.4777,1.5728,23.2434,-34.9916,30,0.2511,8212,3.9644,-138.3992
lg,1625569136551526377,0,-0.606,-0.7148,0.645,725,7.8125,20.0806,0.4272,87,1.4797,1.5738,24.2716,-35.3396,30,0.2531,8611,3.9644,-139.0756
lg,1625569136551552413,0,-0.5105,-0.7625,0.7212,726,11.7188,1.709,10.437,87,1.4817,1.5748,23.9992,-34.665,30,0.2561,8575,3.9644,-138.3198
lg,1625569136551578301,0,-0.3015,-0.7075,0.7444,727,24.9634,-24.9023,9.9487,87,1.4847,1.5748,23.1067,-33.6408,30,0.2601,8890,3.9644,-137.4988
lg,1625569136551603911,0,-0.175,-0.6409,0.6409,728,34.9731,-11.1694,8.1177,87,1.4867,1.5738,22.4457,-32.4991,30,0.2631,8680,3.9644,-137.1296
lg,1625569136551740925,0,-0.1497,-0.6746,0.6477,729,25.8179,49.3774,1.2817,87,1.4867,1.5738,23.6252,-32.4698,30,0.2671,9075,3.9644,-138.4589
lg,1625569136551771054,0,-0.2881,-0.6772,0.6196,730,20.5078,113.6475,-2.1973,87,1.4847,1.5708,27.1463,-33.4755,30,0.2651,8698,3.9644,-141.5343
lg,1625569136551800775,0,-0.3904,-0.6523,0.6335,731,16.9067,136.2305,6.897,87,1.4847,1.5708,31.6378,-34.9012,30,0.2661,8410,3.9644,-145.0283
lg,1625569136551828367,0,-0.6445,-0.6489,0.6604,732,1.4038,162.6587,28.2593,87,1.4847,1.5708,37.6501,-37.2333,30,0.2701,8813,3.9644,-148.7888
lg,1625569136551854421,0,-0.9375,-0.7795,0.7583,733,-33.9966,131.3477,37.5366,87,1.4867,1.5708,42.7603,-40.7259,30,0.2661,9216,3.9644,-151.814
lg,1625569136551883291,0,-1.1775,-0.7144,0.7461,734,-45.5933,48.5229,47.1191,87,1.4877,1.5718,45.67,-42.5267,30,0.2561,9246,3.9644,-151.7298
lg,1625569136551938400,0,-1.1616,-0.5547,0.5732,735,-50.9033,-75.8667,62.5,87,1.4847,1.5738,45.4509,-40.6092,31,0.2511,8585,3.9644,-146.1778
lg,1625569136551969436,0,-1.2024,-0.5518,0.5425,736,-52.3071,-120.6665,56.3965,87,1.4787,1.5748,41.7238,-36.4935,31,0.2491,8987,3.9644,-137.1602
lg,1625569136935510973,0,-0.0627,-0.6946,0.6189,737,-30.8838,-305.7251,25.4517,87,1.4707,1.5678,31.5188,-33.3403,30,0.2441,27006,3.9644,-129.585
lg,1625569136935547750,0,0.0632,-0.7224,0.439,738,-26.4282,-127.8687,-9.4604,87,1.4697,1.5658,25.8505,-34.0934,30,0.2411,13434,3.9644,-127.2697
lg,1625569136935568786,0,0.1057,-0.8181,0.5801,739,-7.019,-13.6108,0,87,1.4697,1.5668,24.2627,-35.0921,30,0.2431,8004,3.9644,-127.2997
lg,1625569136935609914,0,-0.147,-0.7734,0.5249,740,7.6904,96.4355,-12.085,87,1.4697,1.5668,26.5303,-36.9158,30,0.2441,8513,3.9644,-130.6028
lg,1625569136935630025,0,-0.3425,-0.748,0.678,741,14.2822,123.5962,-11.5967,87,1.4707,1.5678,30.2788,-38.4451,30,0.2451,8181,3.9644,-134.8373
lg,1625569136935648709,0,-0.4314,-0.7109,0.7234,742,23.8037,128.7842,-7.5684,87,1.4707,1.5698,33.7641,-39.9288,30,0.2451,8601,3.9644,-139.0895
lg,1625569136935667264,0,-0.5356,-0.6182,0.7178,743,19.165,78.8574,-8.728,87,1.4727,1.5708,35.7471,-40.7907,30,0.2471,9108,3.9644,-141.9213
lg,1625569136935685949,0,-0.5288,-0.6606,0.6123,744,8.5449,24.9634,2.0752,87,1.4747,1.5728,36.3367,-41.1388,30,0.2501,9139,3.9644,-142.8085
lg,1625569136935703911,0,-0.4426,-0.7053,0.6218,745,13.6108,-1.4038,13.4277,87,1.4767,1.5738,36.2095,-40.5912,30,0.2521,8358,3.9644,-142.4531
lg,1625569136935721077,0,-0.3372,-0.6995,0.6946,746,18.6157,-5.6152,22.3389,87,1.4797,1.5738,35.7492,-39.3364,30,0.2541,8352,3.9644,-141.4906
lg,1625569136935738910,0,-0.2278,-0.6785,0.7539,747,22.3389,7.0801,11.2915,87,1.4827,1.5748,35.3555,-38.4414,30,0.2571,8740,3.9644,-141.3557
lg,1625569136935756761,0,-0.1882,-0.6729,0.667,748,23.3154,40.1001,4.0894,87,1.4867,1.5748,35.7799,-38.4486,30,0.2611,8795,3.9644,-142.6147
lg,1625569136935774001,0,-0.2939,-0.6753,0.6248,749,18.2495,88.4399,-1.9531,87,1.4867,1.5728,37.7559,-39.833,30,0.2611,8401,3.9644,-145.7181
lg,1625569136935790908,0,-0.3574,-0.6709,0.6106,750,17.1509,110.2295,1.1597,87,1.4877,1.5728,41.2605,-42.1186,30,0.2631,8822,3.9644,-150.0559
lg,1625569136935807815,0,-0.5898,-0.6663,0.7183,751,11.8408,140.625,8.4839,87,1.4887,1.5718,45.1174,-45.078,30,0.2661,8812,3.9644,-155.0681
lg,1625569136935824722,0,-0.8662,-0.6858,0.6809,752,-9.1553,110.5347,17.7612,87,1.4897,1.5718,48.4915,-48.3489,30,0.2721,8468,3.9644,-159.0772
lg,1625569136935842184,0,-0.967,-0.7354,0.7388,753,-27.4658,31.6772,34.2407,87,1.4907,1.5728,50.1103,-49.3295,30,0.2721,8510,3.9644,-159.0351
lg,1625569136935859332,0,-0.947,-0.6675,0.6169,754,-36.8042,-58.2886,49.1943,87,1.4907,1.5748,49.8668,-47.0427,30,0.2641,9152,3.9644,-154.1912
lg,1625569136935876683,0,-0.9126,-0.6965,0.4971,755,-44.9219,-132.3242,62.9272,87,1.4857,1.5758,47.8109,-42.785,30,0.2601,8194,3.9644,-145.9912
lg,1625569136935894312,0,-0.8657,-0.6433,0.5327,756,-38.6963,-163.5132,71.8384,87,1.4807,1.5758,44.658,-37.8858,30,0.2581,8567,3.9644,-136.8827
lg,1625569136935911904,0,-0.3982,-0.6055,0.6836,757,-2.5635,-231.3232,55.0537,87,1.4767,1.5738,37.5778,-31.9782,30,0.2541,8662,3.9644,-127.6067
lg,1625569136935929218,0,-0.053,-0.7466,0.7639,758,-27.8931,-268.3105,27.0996,87,1.4747,1.5718,27.7233,-29.5595,30,0.2521,8203,3.9644,-120.3668
lg,1625569136935946218,0,0.064,-0.6907,0.5723,759,-9.7656,-255.4321,14.0381,87,1.4717,1.5698,19.5982,-29.4376,30,0.2521,8210,3.9644,-116.3608
lg,1625569136935964051,0,0.0752,-0.6865,0.3572,760,-16.9067,-141.2354,1.9531,87,1.4707,1.5688,13.9201,-30.5134,30,0.2521,8979,3.9644,-113.7629
lg,1625569136935993938,0,0.1108,-0.7878,0.5061,761,2.3804,-7.9346,8.8501,87,1.4707,1.5698,13.0833,-31.343,30,0.2521,8659,3.9644,-113.5301
lg,1625569136936012567,0,-0.1965,-0.7043,0.6299,762,25.9399,125.1831,3.2959,87,1.4707,1.5718,17.3645,-31.6486,30,0.2511,14368,3.9644,-116.2818
lg,1625569136936036382,0,-0.2844,-0.658,0.6775,763,30.8838,141.6626,1.2817,87,1.4727,1.5728,22.5935,-31.8874,30,0.2511,8672,3.9644,-119.6122
lg,1625569136936151785,0,-0.4863,-0.5447,0.7312,764,23.7427,134.3994,1.3428,87,1.4737,1.5738,26.8254,-32.4451,30,0.2541,8672,3.9644,-122.1912
lg,1625569136936172673,0,-0.5894,-0.6443,0.7332,765,10.9863,91.4917,6.5918,87,1.4767,1.5748,30.196,-33.2992,30,0.2571,9096,3.9644,-124.3606
lg,1625569136936192062,0,-0.5256,-0.7271,0.7693,766,12.9395,54.4434,13.5498,87,1.4827,1.5758,32.1576,-33.6436,30,0.2601,9640,3.9644,-125.4484
lg,1625569136936234690,0,-0.3889,-0.688,0.8276,767,17.5171,44.0063,12.3901,87,1.4827,1.5758,33.4041,-33.5676,30,0.2621,9697,3.9644,-126.2623
lg,1625569136936254615,0,-0.3647,-0.6777,0.7119,768,20.6299,60.9741,-2.5024,87,1.4867,1.5758,34.8569,-34.1608,30,0.2651,9186,3.9644,-128.2533
lg,1625569137322756419,0,-0.6953,-0.7173,0.5442,769,8.0566,112.6709,-6.1035,87,1.4877,1.5738,38.5116,-36.6464,30,0.2701,26292,3.9644,-132.1841
lg,1625569137322792362,0,-0.8718,-0.6853,0.6843,770,-15.0146,73.7915,23.9258,87,1.4897,1.5738,41.5511,-38.4321,30,0.2721,8933,3.9644,-133.7524
lg,1625569137322813547,0,-1.0193,-0.645,0.688,771,-31.4331,-57.251,55.9082,87,1.4877,1.5758,41.3372,-37.0335,31,0.2641,15083,3.9644,-129.6128
lg,1625569137322833120,0,-0.9614,-0.5591,0.6311,772,-32.7148,-143.4937,65.4907,87,1.4817,1.5768,38.4983,-33.8898,31,0.2601,11162,3.9644,-122.5513
lg,1625569137322854212,0,-0.5317,-0.7075,0.7053,773,-18.4326,-226.4404,52.9175,87,1.4787,1.5748,31.6234,-30.4537,31,0.2591,8948,3.9644,-114.768
lg,1625569137322873230,0,-0.3733,-0.7664,0.6592,774,-30.4565,-258.606,40.5273,87,1.4747,1.5708,23.1175,-29.0498,30,0.2561,8236,3.9644,-107.8181
lg,1625569137322891229,0,-0.0142,-0.6333,0.4436,775,-12.3901,-253.2349,22.9492,87,1.4727,1.5678,13.9809,-28.6707,30,0.2551,8606,3.9644,-102.2345
lg,1625569137322908692,0,0.0457,-0.7302,0.5002,776,-19.3481,-127.1362,13.9771,87,1.4717,1.5668,9.2297,-29.864,30,0.2521,9593,3.9644,-99.4428
lg,1625569137322927728,0,0.1873,-0.7791,0.6399,777,3.9673,-24.8413,19.7754,87,1.4717,1.5678,8.0243,-30.3182,30,0.2511,9682,3.9644,-98.3723
lg,1625569137322945931,0,-0.0122,-0.7302,0.53,778,13.916,86.9141,0,87,1.4737,1.5688,10.7389,-30.9737,30,0.2511,9018,3.9644,-100.3015
lg,1625569137322963764,0,-0.1638,-0.7563,0.5623,779,16.1743,140.1978,-7.1411,87,1.4737,1.5698,15.7061,-31.7975,30,0.2521,8717,3.9644,-103.6956
lg,1625569137322981412,0,-0.4719,-0.718,0.7065,780,24.7803,177.002,-12.207,87,1.4757,1.5718,21.7791,-32.7395,30,0.2541,8740,3.9644,-108.2685
lg,1625569137322998948,0,-0.6509,-0.6099,0.7068,781,21.4233,131.958,-13.0615,87,1.4757,1.5738,26.3983,-33.6515,30,0.2571,9098,3.9644,-112.028
lg,1625569137323016337,0,-0.5784,-0.6953,0.6799,782,14.2822,70.0684,-8.1177,87,1.4827,1.5748,28.0604,-33.9959,30,0.2591,13392,3.9644,-113.5493
lg,1625569137323033984,0,-0.4836,-0.6858,0.6931,783,23.4985,31.311,-0.4883,87,1.4857,1.5758,29.0256,-33.8693,30,0.2621,9150,3.9644,-114.5668
lg,1625569137323051391,0,-0.3567,-0.6716,0.6511,784,24.9023,24.1089,-5.3101,87,1.4867,1.5758,29.3979,-33.7723,30,0.2661,8753,3.9644,-115.6302
lg,1625569137323068316,0,-0.3149,-0.6987,0.6282,785,22.3389,50.1709,-6.4697,87,1.4877,1.5748,30.5036,-34.255,30,0.2681,9160,3.9644,-117.476
lg,1625569137323085520,0,-0.3726,-0.6821,0.6345,786,20.752,84.7778,-6.6528,87,1.4867,1.5748,32.7936,-35.2939,30,0.2701,9225,3.9644,-120.2874
lg,1625569137323102612,0,-0.5549,-0.6428,0.6672,787,11.8408,106.5674,0.6714,87,1.4857,1.5748,36.1574,-36.8778,30,0.2721,9797,3.9644,-123.5072
lg,1625569137323119389,0,-0.7795,-0.7742,0.7131,788,-15.5029,84.2285,18.7988,87,1.4867,1.5698,39.2739,-39.0508,30,0.2721,12223,3.9644,-125.6345
lg,1625569137323136814,0,-0.948,-0.6902,0.6626,789,-24.4751,29.1748,28.1372,87,1.4867,1.5768,41.0932,-40.1735,30,0.2641,8947,3.9644,-125.641
lg,1625569137323153980,0,-1.0103,-0.5974,0.6221,790,-29.7852,-54.8096,38.8184,87,1.4877,1.5768,40.7326,-39.2159,30,0.2601,8651,3.9644,-122.2667
lg,1625569137323190683,0,-0.8628,-0.6492,0.6169,791,-31.5552,-144.9585,59.9365,87,1.4827,1.5768,37.7726,-36.2649,30,0.2551,9400,3.9644,-115.3774
lg,1625569137323210201,0,-0.4099,-0.5549,0.887,792,-16.9678,-213.0127,51.3916,87,1.4797,1.5768,31.2924,-32.2834,31,0.2541,9374,3.9644,-107.3859
lg,1625569137323227811,0,-0.322,-0.5767,0.5034,793,-2.3193,-239.8682,30.3345,87,1.4777,1.5748,22.8604,-29.6772,31,0.2521,9058,3.9644,-100.8789
lg,1625569137323244811,0,-0.0059,-0.6372,0.6526,794,-28.2593,-221.2524,19.2871,87,1.4767,1.5758,14.7553,-29.6795,31,0.2511,9409,3.9644,-95.7793
lg,1625569137323261496,0,0.0544,-0.7979,0.5374,795,-27.832,-124.8779,9.3384,87,1.4757,1.5728,10.0106,-31.1781,30,0.2511,9416,3.9644,-93.11
lg,1625569137323361178,0,0.1309,-0.8804,0.637,796,-8.606,2.1362,25.3906,87,1.4757,1.5728,9.9849,-32.2612,30,0.2511,8319,3.9644,-92.4298
lg,1625569137323383140,0,-0.1038,-0.7454,0.5366,797,13.1836,101.8066,7.6904,87,1.4757,1.5738,13.4479,-32.9918,30,0.2511,9447,3.9644,-94.5625
lg,1625569137323403139,0,-0.4067,-0.6707,0.5527,798,17.2119,140.3809,7.9346,87,1.4767,1.5738,19.6162,-33.8475,30,0.2521,8727,3.9644,-98.0102
lg,1625569137323420787,0,-0.5125,-0.6799,0.6748,799,20.2637,160.8276,13.0005,87,1.4767,1.5738,25.5323,-34.7889,30,0.2531,9109,3.9644,-101.6261
lg,1625569137323438879,0,-0.657,-0.5093,0.7642,800,18.5547,101.7456,16.4795,87,1.4787,1.5748,29.6165,-34.9326,30,0.2551,9545,3.9644,-103.6281
lg,1625569137705063551,0,-0.2898,-0.7678,0.7178,801,11.9019,-4.7607,11.5356,87,1.4847,1.5768,29.1842,-34.6971,30,0.2621,27004,3.9644,-103.3261
lg,1625569137705103513,0,-0.2319,-0.7117,0.6296,802,23.9258,34.2407,-0.3052,87,1.4877,1.5768,29.7154,-34.7845,30,0.2681,9403,3.9644,-104.5306
lg,1625569137705146308,0,-0.4072,-0.7639,0.6025,803,18.9209,111.4502,-5.9204,87,1.4877,1.5748,32.9351,-36.433,30,0.2681,15567,3.9644,-108.1553
lg,1625569137705168455,0,-0.687,-0.6711,0.6155,804,11.5356,122.2534,3.7231,87,1.4887,1.5748,37.0497,-38.3888,30,0.2741,10792,3.9644,-111.8825
lg,1625569137705187899,0,-0.9053,-0.6665,0.6926,805,-18.7378,78.125,29.0527,87,1.4897,1.5748,40.4221,-40.1984,30,0.2731,8264,3.9644,-113.4013
lg,1625569137705207472,0,-1.0222,-0.6177,0.6799,806,-29.0527,-6.5308,37.5977,87,1.4897,1.5758,41.4844,-40.2702,30,0.2661,8598,3.9644,-111.6952
lg,1625569137705227342,0,-1.0374,-0.5586,0.6633,807,-28.3203,-51.6357,45.105,87,1.4877,1.5778,41.3832,-38.9813,30,0.2581,8625,3.9644,-108.0561
lg,1625569137705246804,0,-0.9719,-0.6116,0.6316,808,-33.5693,-125.6714,57.373,87,1.4847,1.5778,39.0832,-36.3334,30,0.2551,9943,3.9644,-101.735
lg,1625569137705266285,0,-0.5146,-0.5891,0.8284,809,-10.498,-199.646,52.7344,87,1.4827,1.5768,33.225,-32.1514,30,0.2521,8295,3.9644,-93.9866
lg,1625569137705285729,0,-0.1123,-0.7175,0.7427,810,-29.3579,-233.2153,34.6069,87,1.4787,1.5768,25.0249,-30.4912,30,0.2521,8743,3.9644,-87.3884
lg,1625569137705315654,0,0.0127,-0.6882,0.4329,811,-19.2871,-155.7617,13.3057,87,1.4787,1.5768,19.0755,-30.8948,30,0.2501,9026,3.9644,-83.932
lg,1625569137705334839,0,0.0134,-0.7273,0.5039,812,-22.583,-94.7266,9.5215,87,1.4787,1.5758,15.3441,-32.0525,30,0.2481,7961,3.9644,-81.8307
lg,1625569137705352931,0,-0.0391,-0.771,0.5891,813,-2.8076,22.522,2.9907,87,1.4777,1.5768,15.6853,-33.0884,30,0.2481,9078,3.9644,-82.4459
lg,1625569137705370801,0,-0.2266,-0.7297,0.6426,814,11.4136,80.4443,-7.1411,87,1.4787,1.5778,18.1135,-33.8551,30,0.2471,9101,3.9644,-84.7208
lg,1625569137705388763,0,-0.4077,-0.7004,0.5227,815,13.9771,113.3423,-8.606,87,1.4797,1.5778,21.9377,-35.0562,30,0.2491,9099,3.9644,-87.9878
lg,1625569137705407022,0,-0.6206,-0.6934,0.606,816,12.6343,120.9717,-4.8218,87,1.4817,1.5788,26.2164,-36.3708,30,0.2511,9135,3.9644,-91.4486
lg,1625569137705425114,0,-0.6755,-0.7029,0.6692,817,12.8174,104.248,-3.1738,87,1.4837,1.5788,29.794,-37.6094,30,0.2521,8806,3.9644,-94.5777
lg,1625569137705442280,0,-0.6667,-0.6975,0.6951,818,11.2305,36.3159,0.9155,87,1.4847,1.5788,31.1275,-37.9428,30,0.2541,8425,3.9633,-95.7183
lg,1625569137705459705,0,-0.4692,-0.7092,0.7168,819,13.4277,-12.5122,6.6528,86,1.4887,1.5788,30.6523,-37.3703,30,0.2571,9236,3.9633,-95.2585
lg,1625569137705477149,0,-0.2874,-0.689,0.605,820,19.5312,-23.6816,5.8594,86,1.4897,1.5778,29.5372,-36.6362,30,0.2601,8891,3.9633,-94.6332
lg,1625569137705494074,0,-0.2498,-0.7058,0.6599,821,15.564,19.5312,3.7231,86,1.4917,1.5778,29.6709,-36.6543,30,0.2641,9507,3.9633,-95.2547
lg,1625569137705512889,0,-0.4998,-0.7896,0.6384,822,5.9814,46.2646,7.019,86,1.4917,1.5778,31.7048,-38.1725,31,0.2691,9074,3.9633,-96.565
lg,1625569137705531277,0,-0.6438,-0.7817,0.6602,823,-23.3765,59.4482,27.832,86,1.4907,1.5798,34.5195,-39.6345,31,0.2581,9331,3.9633,-96.7639
lg,1625569137705551684,0,-0.8008,-0.4321,0.9785,824,-23.3765,-16.6016,46.5088,86,1.4847,1.5788,35.2999,-38.6479,31,0.2561,13328,3.9633,-94.1383
lg,1625569137705570220,0,-0.833,-0.7234,0.801,825,-24.7192,-73.6084,15.5029,86,1.4807,1.5768,33.4798,-38.1649,31,0.2521,9035,3.9633,-91.3921
lg,1625569137705589016,0,-0.4873,-0.6887,0.5444,826,-1.8921,-157.2876,10.1318,86,1.4777,1.5738,28.5987,-36.2832,30,0.2481,8709,3.9633,-86.8582
lg,1625569137705607941,0,-0.3875,-0.6399,0.5496,827,-4.8218,-145.4468,-2.6855,86,1.4767,1.5718,24.6153,-35.5208,30,0.2461,9059,3.9633,-83.9281
lg,1625569137705626237,0,-0.3015,-0.6279,0.5435,828,-0.1831,-99.3652,10.1929,86,1.4757,1.5708,21.4576,-34.9468,30,0.2441,9111,3.9633,-81.2938
lg,1625569137705643866,0,-0.2102,-0.6367,0.5701,829,-1.8921,-65.6738,1.2207,86,1.4757,1.5708,19.0587,-34.9796,30,0.2451,9284,3.9633,-79.8368
lg,1625569137705662310,0,-0.2778,-0.7175,0.5916,830,-1.5259,-7.9956,0.9766,86,1.4757,1.5718,18.7456,-35.5718,30,0.2451,9978,3.9633,-79.8065
lg,1625569137705703679,0,-0.3396,-0.7146,0.6467,831,4.5776,22.1558,-2.7466,86,1.4757,1.5718,19.4327,-36.0725,30,0.2451,9081,3.9633,-80.6047
lg,1625569137705724327,0,-0.4358,-0.6538,0.6062,832,7.5073,24.353,-0.7935,86,1.4757,1.5728,20.4638,-36.3996,30,0.2471,9206,3.9633,-81.3837
lg,1625569138082410193,0,-0.2507,-0.7959,0.6375,833,3.2349,-28.3813,5.5542,86,1.4807,1.5768,19.4455,-36.5548,31,0.2511,26686,3.9633,-80.6833
lg,1625569138082458229,0,-0.1521,-0.8252,0.7107,834,15.0146,11.8408,5.9814,86,1.4857,1.5778,19.5276,-36.5036,30,0.2531,8664,3.9633,-80.9539
lg,1625569138082480191,0,-0.1191,-0.7146,0.6724,835,30.3345,78.3691,-10.7422,86,1.4877,1.5778,21.2901,-36.5349,30,0.2541,12020,3.9633,-83.46
lg,1625569138082501098,0,-0.166,-0.7405,0.6255,836,28.5034,97.5952,-20.2026,86,1.4877,1.5758,23.6461,-37.305,30,0.2581,8934,3.9633,-86.9471
lg,1625569138082521171,0,-0.291,-0.7485,0.552,837,25.0854,129.6997,-21.9727,86,1.4857,1.5758,26.9434,-38.8056,30,0.2581,8539,3.9633,-91.5233
lg,1625569138082540726,0,-0.4614,-0.7134,0.53,838,28.2593,166.0156,-12.6343,86,1.4837,1.5738,31.7227,-40.8624,30,0.2601,9050,3.9633,-97.1212
lg,1625569138082559874,0,-0.7703,-0.5662,0.5715,839,8.728,155.5176,15.8691,86,1.4847,1.5728,37.1961,-43.1819,30,0.2621,9819,3.9633,-101.6933
lg,1625569138082578559,0,-0.9653,-0.7327,0.6704,840,-32.7759,100.2808,60.1807,86,1.4887,1.5748,41.9826,-45.539,30,0.2521,10613,3.9633,-103.2162
lg,1625569138082597021,0,-1.1106,-0.5796,0.6863,841,-32.6538,-6.6528,60.1807,86,1.4867,1.5758,43.8501,-44.8839,30,0.2461,9034,3.9633,-100.5064
lg,1625569138082615909,0,-1.21,-0.5005,0.5281,842,-31.0059,-105.4688,63.3545,86,1.4827,1.5768,43.1133,-41.5432,30,0.2421,9138,3.9633,-93.8947
lg,1625569138082634131,0,-0.8044,-0.553,1.0359,843,-22.3999,-223.6938,72.876,86,1.4797,1.5768,37.6266,-35.1897,30,0.2421,9339,3.9633,-83.2056
lg,1625569138082653945,0,-0.4087,-0.6704,0.6033,844,-15.9302,-308.0444,48.4619,86,1.4757,1.5758,27.9543,-30.9906,30,0.2411,13984,3.9633,-73.6358
lg,1625569138082672389,0,0.009,-0.6331,0.5239,845,-4.7607,-285.5225,39.6118,86,1.4747,1.5758,17.8972,-28.9984,30,0.2411,7971,3.9633,-66.367
lg,1625569138082691296,0,0.2214,-0.7043,0.5315,846,-15.564,-155.7617,29.2969,86,1.4727,1.5758,11.9062,-29.4462,30,0.2411,9115,3.9633,-62.4414
lg,1625569138082710647,0,0.1887,-0.8125,0.5857,847,-7.5073,-0.1221,18.3716,86,1.4727,1.5758,11.4359,-30.5583,30,0.2401,10608,3.9633,-61.9799
lg,1625569138082730480,0,-0.1619,-0.8022,0.6248,848,8.3008,119.5679,2.9297,86,1.4727,1.5758,15.5029,-31.6329,30,0.2391,9130,3.9633,-64.59
lg,1625569138082748757,0,-0.4609,-0.7268,0.6538,849,17.4561,157.5928,3.1738,86,1.4737,1.5748,21.2786,-32.6196,30,0.2381,10233,3.9633,-68.1816
