name,time,activity,ax,ay,az,batch_val,gx,gy,gz,ibat,index,middle,pitch,roll,temp,thumb,ts,vbat,yaw
rg,1625569145154066912,1,0.1733,0.1155,1.0166,1,0.1221,-10.6812,13.7939,63,1.1606,1.5428,-21.3212,0.8183,28,1.0655,19500,4.0722,-138.9968
rg,1625569145154150522,1,0.1724,0.1101,1.0222,2,0,-12.085,15.0757,63,1.1606,1.5438,-21.3452,0.8084,28,1.0665,8181,4.0722,-138.4384
rg,1625569145154184484,1,0.1704,0.1201,1.0193,3,-0.4272,-10.7422,14.3433,63,1.1606,1.5438,-21.3118,0.817,28,1.0665,7619,4.0722,-137.9198
rg,1625569145154308630,1,0.1765,0.126,1.0281,4,-0.7935,-11.7798,15.564,63,1.1606,1.5438,-21.3315,0.8028,28,1.0665,7627,4.0722,-137.3531
rg,1625569145154347444,1,0.1536,0.1133,1.032,5,-2.5635,-7.8125,15.4419,78,1.1616,1.5438,-21.142,0.6913,28,1.0655,7623,4.0656,-136.7793
rg,1625569145154454035,1,0.1348,0.1123,1.0398,6,-4.4556,-8.4839,17.4561,78,1.1616,1.5428,-20.9223,0.5118,28,1.0665,7707,4.0656,-136.1767
rg,1625569145154496627,1,0.1216,0.1135,1.0454,7,-4.4556,-8.4229,15.625,78,1.1606,1.5428,-20.6999,0.3367,28,1.0665,7725,4.0656,-135.5975
rg,1625569145154697197,1,0.1165,0.1008,1.0354,8,-2.9907,-15.686,17.0288,78,1.1616,1.5428,-20.7654,0.1805,28,1.0665,7738,4.0656,-134.9511
rg,1625569145154772362,1,0.1345,0.1045,1.0137,9,-2.3193,-18.8599,17.2119,78,1.1606,1.5418,-20.9976,0.0654,28,1.0655,7752,4.0656,-134.3019
rg,1625569145154806621,1,0.1907,0.1074,1.0188,10,-2.6245,-23.2544,16.9678,78,1.1616,1.5418,-21.5117,-0.0548,28,1.0655,7824,4.0656,-133.6637
rg,1625569145154837324,1,0.2275,0.1011,1.0305,11,-0.4883,-22.2168,17.2729,78,1.1616,1.5418,-22.0347,-0.1155,28,1.0655,7819,4.0656,-133.0052
rg,1625569145154866379,1,0.2327,-0.0659,0.0225,12,114.8071,-62.5,-29.7241,219,0.7534,0.6983,-26.4097,4.3954,28,0.8394,13799,3.9864,-134.2388
rg,1625569145154896341,1,0.2043,-0.073,-0.011,13,-7.9956,1.1597,-3.2349,219,0.7564,0.7033,-28.3343,3.2858,28,0.8414,8020,3.9864,-133.9783
rg,1625569145154924026,1,0.4595,-0.4565,0.2759,14,-91.2476,10.5591,17.1509,219,0.7594,0.7093,-28.6948,-5.8628,28,0.8464,7914,3.9864,-131.9278
rg,1625569145154955489,1,0.8552,-0.9197,1.0569,15,-227.417,44.3726,26.123,219,0.7634,0.7204,-26.987,-16.531,28,0.8534,7862,3.9864,-130.5284
rg,1625569145154991192,1,0.5659,-1.7886,0.896,16,-138.7939,184.8145,22.522,219,0.7754,0.7384,-19.6055,-23.0689,28,0.8634,8051,3.9864,-131.554
rg,1625569145155024487,1,0.0388,-1.8369,0.8044,17,12.4512,129.2114,-12.9395,219,0.7964,0.7664,-14.5622,-23.4143,28,0.8734,8977,3.9864,-133.6418
rg,1625569145155065653,1,-0.1348,-1.5557,0.8223,18,78.3081,93.689,-25.2075,219,0.8164,0.7974,-10.8863,-21.2085,28,0.8774,8101,3.9864,-135.6797
rg,1625569145155098282,1,-0.0896,-0.8853,0.458,19,152.1606,-2.8687,-16.1743,219,0.8374,0.8454,-10.6949,-16.5552,28,0.8834,8008,3.9864,-135.9532
rg,1625569145155129393,1,-0.0229,-0.5002,0.3162,20,114.6851,-63.5376,-14.2212,219,0.8554,0.8804,-12.889,-13.5287,28,0.8884,8107,3.9864,-135.5423
rg,1625569145155168281,1,-0.0527,-0.4551,0.272,21,76.2939,-76.5991,-17.6392,219,0.8584,0.9044,-15.452,-12.1488,28,0.8914,7942,3.9864,-135.1653
rg,1625569145155195577,1,-0.1562,-0.6257,0.4375,22,-50.9033,-109.7412,3.6621,219,0.8394,0.9164,-18.7666,-16.1191,28,0.8954,8122,3.9864,-133.4991
rg,1625569145155226150,1,0.1294,-1.0435,0.563,23,-145.6299,-209.1675,17.2729,219,0.7964,0.8744,-25.9844,-25.1216,28,0.8954,8226,3.9864,-129.0818
rg,1625569145155352722,1,0.2803,-1.3218,0.563,24,-155.2734,-234.6191,17.4561,219,0.7614,0.7874,-33.4251,-36.0711,28,0.8934,8258,3.9864,-122.1663
rg,1625569145155394017,1,0.5703,-1.6064,0.5979,25,-91.3086,-198.1201,37.9028,219,0.7384,0.7184,-37.9231,-45.6871,28,0.8794,8165,3.9864,-113.5972
rg,1625569145155419239,1,0.7141,-1.1899,0.6206,26,31.3721,-151.3672,58.7769,219,0.7434,0.6763,-39.8434,-50.0549,28,0.8714,8317,3.9864,-105.3475
rg,1625569145155456053,1,0.5793,-0.854,0.1941,27,190.1855,-149.0479,42.9077,219,0.7434,0.6623,-42.281,-48.5429,28,0.8624,9240,3.9864,-97.1247
rg,1625569145155483386,1,0.6321,-0.595,0.093,28,187.0728,-167.6025,46.4478,219,0.7444,0.6493,-46.1806,-48.1305,28,0.8574,8314,3.9864,-87.7591
rg,1625569145155512293,1,0.5771,-0.2324,-0.0881,29,178.0396,-110.9619,0.7935,219,0.7454,0.6513,-50.28,-45.8623,28,0.8544,8236,3.9864,-82.0004
rg,1625569145155540718,1,0.6035,-0.0376,-0.1846,30,117.0044,-53.0396,-11.2915,219,0.7484,0.6443,-53.7278,-43.5763,28,0.8554,8384,3.9864,-79.4171
rg,1625569145155570255,1,0.5493,-0.0349,-0.2051,31,-14.5264,56.5186,7.2021,219,0.7504,0.6533,-53.5366,-43.3943,28,0.8574,8253,3.9864,-80.8363
rg,1625569145155605421,1,0.5515,-0.1379,-0.1216,32,-94.1772,102.0508,23.9258,219,0.7524,0.6543,-50.4037,-45.3049,28,0.8614,8488,3.9864,-83.6235
rg,1625569145687683185,1,0.4094,-1.7256,0.7859,33,-164.0625,393.7378,28.0151,219,0.7684,0.6873,-37.2319,-43.1631,28,0.8764,24561,3.9864,-96.8451
rg,1625569145688118436,1,-0.4268,-1.8179,0.9202,34,2.1362,287.4756,-1.9531,219,0.7824,0.7184,-27.0548,-39.182,28,0.8834,8556,3.9864,-105.2311
rg,1625569145688156084,1,-0.5488,-1.5171,0.8845,35,85.7544,199.4019,0.3052,219,0.8044,0.7564,-19.2724,-34.6229,28,0.8894,7795,3.9864,-109.9573
rg,1625569145688179158,1,-0.1777,-0.8474,0.4827,36,158.5083,8.667,-3.54,219,0.8274,0.7984,-18.0181,-29.2293,28,0.8944,7734,3.9864,-109.8864
rg,1625569145688212527,1,0.0103,-0.5181,0.3447,37,116.7603,-37.2314,4.5776,219,0.8484,0.8354,-18.6638,-25.9457,28,0.8994,7708,3.9864,-108.6303
rg,1625569145688234397,1,0.0364,-0.4509,0.3027,38,88.0127,-38.269,8.667,219,0.8594,0.8654,-19.4182,-23.9704,28,0.9034,7897,3.9864,-107.2156
rg,1625569145688256063,1,-0.0837,-0.5713,0.4856,39,-14.0991,-39.6729,7.8125,219,0.8514,0.8874,-19.7971,-25.8974,28,0.9054,8483,3.9864,-105.8715
rg,1625569145688423634,1,0.1233,-0.8716,0.6189,40,-114.9902,-134.1553,22.3999,219,0.8144,0.8754,-23.5511,-32.9865,28,0.9064,7972,3.9864,-101.824
rg,1625569145688466097,1,0.2847,-1.0486,0.6143,41,-142.7002,-169.9219,19.5923,219,0.7754,0.7944,-28.0779,-42.0564,28,0.9044,7808,3.9864,-96.1247
rg,1625569145688483707,1,0.5295,-1.4363,0.627,42,-130.3711,-182.6782,26.5503,219,0.7464,0.7013,-31.9343,-51.7551,28,0.8954,7994,3.9864,-88.6732
rg,1625569145688500781,1,0.6423,-1.4011,0.4749,43,-40.8936,-124.6948,64.209,219,0.7404,0.6353,-32.3948,-57.6803,28,0.8864,7856,3.9864,-81.6911
rg,1625569145688537743,1,0.7864,-1.1829,0.6201,44,29.9072,-97.3511,69.519,219,0.7394,0.6153,-31.9487,-59.6685,28,0.8794,8115,3.9864,-75.9586
rg,1625569145688562465,1,0.6914,-0.9114,0.2329,45,155.7007,-88.7451,66.5283,219,0.7394,0.6003,-31.753,-56.7863,28,0.8684,8119,3.9864,-70.458
rg,1625569145688581483,1,0.6052,-0.4321,0.0884,46,159.3628,-61.5845,8.667,219,0.7404,0.5903,-33.7879,-52.4054,28,0.8584,8674,3.9864,-67.5661
rg,1625569145688602001,1,0.2466,-0.0549,-0.0381,47,98.6938,20.9351,-29.1138,219,0.7424,0.5943,-35.8726,-48.1383,28,0.8554,11101,3.9864,-68.9567
rg,1625569145688845256,1,0.1406,-0.0859,-0.001,48,-26.5503,84.1675,8.9722,219,0.7444,0.6053,-34.4328,-48.5617,28,0.8564,7983,3.9864,-71.1797
rg,1625569145688884552,1,0.1843,-0.2271,0.0674,49,-110.3516,85.9375,28.8696,219,0.7454,0.6183,-31.5886,-52.6034,28,0.8584,8105,3.9864,-72.9694
rg,1625569145688912366,1,0.7356,-1.0024,1.2253,50,-236.3281,122.1924,34.5459,219,0.7484,0.6203,-27.5392,-59.6002,28,0.8634,7981,3.9864,-77.0607
rg,1625569145688938477,1,0.2493,-1.7986,0.7878,51,-131.7139,222.4121,32.5317,219,0.7544,0.6403,-21.3223,-61.8876,28,0.8704,8149,3.9864,-84.7678
rg,1625569145688958791,1,-0.1394,-1.7756,0.8308,52,-49.1943,169.7998,18.4937,219,0.7684,0.6633,-18.2261,-59.5786,28,0.8804,9123,3.9864,-89.0143
rg,1625569145688981624,1,-0.2039,-1.4382,0.9026,53,97.8394,84.1675,-13.4277,219,0.7914,0.6913,-15.9003,-54.6462,28,0.8884,8438,3.9864,-92.2583
rg,1625569145688998494,1,0.0735,-0.8142,0.5691,54,166.0156,-13.0005,6.958,219,0.8214,0.7384,-15.5444,-48.2016,28,0.8944,8551,3.9864,-91.6269
rg,1625569145689019290,1,0.1626,-0.5791,0.3254,55,128.3569,-44.5557,-1.3428,219,0.8514,0.7944,-16.7548,-43.9284,28,0.9004,8742,3.9864,-90.1939
rg,1625569145689052308,1,0.1416,-0.5081,0.3057,56,74.2798,-14.2212,7.1411,219,0.8754,0.8354,-16.8649,-41.7342,28,0.9054,8786,3.9864,-89.3972
rg,1625569145689081770,1,0.1057,-0.5474,0.4407,57,36.8042,-6.1035,6.7749,219,0.8814,0.8664,-16.5466,-40.7503,28,0.9084,8409,3.9864,-88.9033
rg,1625569145689205824,1,0.0359,-0.7136,0.6355,58,-52.6733,-44.9219,17.7002,219,0.8534,0.8844,-16.8304,-43.6684,28,0.9104,8818,3.9864,-87.0207
rg,1625569145689233545,1,0.375,-0.9629,0.6616,59,-116.7603,-117.8589,29.4189,219,0.8094,0.8544,-19.2093,-50.1629,27,0.9104,8912,3.9864,-82.4188
rg,1625569145689268156,1,0.4778,-1.2634,0.6123,60,-111.084,-112.5488,25.6958,219,0.7714,0.7754,-21.0356,-56.6847,27,0.9104,8567,3.9864,-77.7363
rg,1625569145689297766,1,0.5569,-1.3259,0.5388,61,-86.9751,-93.689,38.0249,219,0.7424,0.6843,-20.5772,-60.6567,27,0.9014,8788,3.9864,-74.3914
rg,1625569145689321636,1,0.3853,-0.9873,0.4519,62,-34.2407,-24.5361,50.5371,219,0.7354,0.6193,-19.2879,-61.8067,28,0.8774,8517,3.9864,-72.7055
rg,1625569145689354321,1,0.2686,-0.7312,0.4084,63,33.5693,-24.231,32.4707,219,0.7364,0.5953,-18.7892,-58.324,28,0.8684,8933,3.9864,-71.9367
rg,1625569145689383043,1,0.2891,-0.6394,0.2559,64,97.168,-28.6865,36.1938,219,0.7374,0.5733,-18.3674,-55.3997,28,0.8584,9011,3.9864,-69.9767
rg,1625569145997259720,1,0.1287,-0.3147,0.0894,65,21.6675,-12.3291,-7.6294,219,0.7444,0.5663,-19.0502,-55.3195,28,0.8574,24273,3.9864,-69.5063
rg,1625569145997308534,1,0.2283,-0.4111,0.3179,66,-12.7563,6.1035,-1.5259,219,0.7474,0.5793,-18.4742,-57.3167,28,0.8604,8638,3.9864,-69.9755
rg,1625569145997340330,1,0.3572,-0.6152,0.5107,67,-98.5107,27.9541,18.4326,219,0.7504,0.5953,-17.4987,-60.782,28,0.8654,7796,3.9864,-70.6715
rg,1625569145997370274,1,0.5269,-1.2307,0.9209,68,-122.8027,50.5981,8.1787,219,0.7594,0.6223,-16.3558,-64.8703,28,0.8744,7873,3.9864,-72.4922
rg,1625569145997398310,1,0.4331,-1.5039,0.9019,69,-96.0083,67.1997,0,219,0.7724,0.6493,-14.8449,-65.8977,28,0.8824,7875,3.9864,-75.5549
rg,1625569145997425699,1,0.1877,-1.6277,0.8721,70,6.8359,77.8198,2.3193,219,0.7954,0.6813,-13.1162,-64.7491,28,0.8924,8043,3.9864,-78.4758
rg,1625569145997453309,1,0.1526,-1.1956,0.5811,71,105.4688,42.4805,8.4839,219,0.8224,0.7324,-11.7767,-60.2016,28,0.8984,9192,3.9864,-79.8588
rg,1625569145997480198,1,0.1462,-0.6995,0.3167,72,128.9062,19.165,9.2163,219,0.8404,0.7724,-11.022,-55.1697,28,0.9034,8575,3.9864,-80.2771
rg,1625569145997505975,1,0.1453,-0.5364,0.3247,73,101.6235,19.2261,11.9629,219,0.8434,0.7954,-10.1374,-52.9236,28,0.9064,8457,3.9864,-80.6021
rg,1625569145997532826,1,0.0613,-0.438,0.4917,74,-16.5405,2.5635,13.916,219,0.8234,0.8074,-9.4472,-53.1682,28,0.9074,8594,3.9864,-80.4284
rg,1625569145997559066,1,0.1736,-0.8113,0.6477,75,-120.4834,-63.9648,16.6626,219,0.7914,0.7704,-10.326,-58.3266,28,0.9074,8093,3.9864,-77.9144
rg,1625569145997585696,1,0.3848,-1.2903,0.5815,76,-127.9297,-109.0698,32.1045,219,0.7644,0.6993,-11.4569,-64.5656,28,0.9044,8610,3.9864,-73.3311
rg,1625569145997611954,1,0.575,-1.3606,0.5481,77,-86.5479,-106.0181,41.9922,219,0.7504,0.6423,-11.3408,-66.7209,28,0.8994,8492,3.9864,-69.5426
rg,1625569145997637824,1,0.6143,-1.1858,0.5762,78,16.7847,-49.6826,56.2134,219,0.7494,0.6223,-10.5968,-66.4673,28,0.8984,8257,3.9864,-66.8042
rg,1625569145997664564,1,0.5312,-0.9102,0.3679,79,95.7031,-21.4233,45.7153,219,0.7474,0.6103,-10.003,-62.9658,28,0.8944,8257,3.9864,-65.244
rg,1625569145997691805,1,0.429,-0.5195,0.2671,80,90.8203,-21.6064,8.3618,219,0.7494,0.5993,-11.1255,-59.4878,28,0.8914,8549,3.9864,-64.3469
rg,1625569145997718989,1,0.1274,-0.2637,0.0037,81,92.3462,11.1084,-23.6206,219,0.7534,0.5973,-12.3214,-56.641,28,0.8904,13523,3.9864,-65.0592
rg,1625569145997746100,1,0.0125,-0.1516,-0.0383,82,28.6255,54.3823,-5.7373,219,0.7564,0.6153,-11.1756,-56.7913,28,0.8914,8264,3.9864,-66.6831
rg,1625569145997772155,1,0.0537,-0.2859,0.0522,83,-101.0742,67.0166,27.832,219,0.7604,0.6303,-8.8557,-61.3879,28,0.8934,8067,3.9864,-68.2734
rg,1625569145997800599,1,0.2349,-0.5261,0.4131,84,-170.4102,59.021,33.2642,219,0.7684,0.6513,-6.9278,-68.7157,28,0.8974,8277,3.9864,-70.5053
rg,1625569145997828154,1,0.4778,-1.6301,1.468,85,-179.1992,117.1875,25.3906,219,0.7834,0.6783,-4.7484,-74.6427,28,0.9064,8177,3.9864,-74.7424
rg,1625569145997854691,1,-0.012,-1.9258,0.585,86,-21.9116,72.8149,-0.061,219,0.8114,0.7143,-3.8031,-75.2281,28,0.9124,8925,3.9864,-77.5719
rg,1625569145998631028,1,0.0691,-1.4275,0.6165,87,104.3701,31.4941,-16.0522,219,0.8374,0.7594,-4.0007,-70.6096,28,0.9164,8312,3.9864,-78.9875
rg,1625569145998681527,1,0.1648,-1.0845,0.5063,88,147.1558,15.8081,-15.9912,219,0.8614,0.7964,-4.7803,-64.0916,28,0.9204,8421,3.9864,-79.6122
rg,1625569145998724785,1,0.1301,-0.5378,0.3088,89,141.5405,8.8501,-20.9961,219,0.8804,0.8354,-5.6219,-58.2099,28,0.9215,8519,3.9864,-80.3572
rg,1625569145998765063,1,0.0142,-0.3762,0.3108,90,57.7393,-2.9297,-15.686,219,0.8804,0.8604,-6.0537,-55.5591,28,0.9225,8672,3.9864,-80.629
rg,1625569145998796562,1,0.103,-0.615,0.6008,91,-92.7734,-63.2935,22.0337,219,0.8444,0.8564,-6.702,-59.1513,28,0.9235,8603,3.9864,-78.047
rg,1625569145998830043,1,0.251,-0.8406,0.6223,92,-138.7329,-106.8726,24.292,219,0.7984,0.7914,-8.5928,-66.1226,28,0.9215,8519,3.9864,-72.9828
rg,1625569145998859579,1,0.4626,-1.3979,0.5769,93,-146.5454,-136.4136,32.1655,219,0.7614,0.7043,-9.6057,-72.909,28,0.9184,8931,3.9864,-67.3344
rg,1625569145998889097,1,0.6455,-1.5969,0.533,94,-56.2744,-76.4771,59.3872,219,0.7384,0.6343,-8.5874,-75.6652,28,0.9034,8682,3.9864,-63.7085
rg,1625569145998921856,1,0.6274,-1.1501,0.5276,95,64.209,-34.1797,52.124,219,0.7424,0.5963,-7.6459,-72.983,28,0.8994,9204,3.9864,-61.8923
rg,1625569145998955559,1,0.377,-0.7671,0.2698,96,177.2461,-22.644,17.5781,219,0.7424,0.5643,-7.9724,-65.9566,28,0.8914,11319,3.9864,-60.8476
rg,1625569146182389259,1,-0.0198,-0.2114,0.0144,97,107.8491,1.2207,-31.311,219,0.7474,0.5203,-8.0618,-62.281,28,0.8864,23308,3.9864,-61.3052
rg,1625569146182431851,1,-0.0684,-0.1528,0.0164,98,53.9551,6.8359,5.5542,219,0.7514,0.5423,-6.554,-60.8717,28,0.8874,8419,3.9864,-61.3163
rg,1625569146182454129,1,0.0896,-0.1912,0.1064,99,-54.0771,-28.6255,33.02,219,0.7554,0.5623,-6.5354,-63.2075,28,0.8894,8185,3.9864,-59.6678
rg,1625569146182474314,1,0.5327,-0.5818,0.6748,100,-110.2905,-52.7344,31.25,219,0.7584,0.5783,-7.4002,-68.7992,28,0.8914,7812,3.9864,-57.3856
rg,1625569146182493461,1,0.7451,-0.9792,0.9846,101,-163.6963,-5.9814,18.6768,219,0.7654,0.5943,-7.599,-74.5682,28,0.8974,7885,3.9864,-56.9905
rg,1625569146182512572,1,0.5159,-1.4915,0.7061,102,-105.7739,103.3325,-2.0752,219,0.7794,0.6203,-7.1019,-77.8827,28,0.9054,7799,3.9864,-61.0991
rg,1625569146182555034,1,0.0989,-1.6292,1.1064,103,-17.0288,133.1177,-22.7051,219,0.8024,0.6573,-6.7027,-77.034,28,0.9124,8524,3.9864,-66.6373
rg,1625569146182575793,1,-0.0889,-1.4761,0.9543,104,39.4897,111.8164,-10.437,219,0.8264,0.6983,-5.6466,-74.182,28,0.9184,7960,3.9864,-71.1811
rg,1625569146182594274,1,-0.0244,-1.0217,0.5168,105,111.3892,24.231,-0.7935,219,0.8524,0.7394,-5.1065,-69.1959,28,0.9225,8452,3.9864,-72.1473
rg,1625569146182612644,1,0.1248,-0.6511,0.4275,106,93.811,-18.0664,-6.2866,219,0.8694,0.7734,-5.7756,-65.0023,28,0.9255,8106,3.9864,-71.627
rg,1625569146182630607,1,0.1348,-0.5439,0.3735,107,69.8242,-25.5127,-5.6152,219,0.8764,0.7994,-6.6808,-61.8948,28,0.9275,8201,3.9864,-70.857
rg,1625569146182740531,1,0.1562,-0.5437,0.4768,108,-14.2822,-38.8184,2.6245,219,0.8664,0.8134,-7.5343,-62.1199,28,0.9295,8515,3.9864,-69.4852
rg,1625569146182788049,1,0.312,-0.8137,0.5703,109,-103.3936,-88.1958,22.7051,219,0.8144,0.7994,-8.6246,-66.4714,28,0.9295,8072,3.9864,-65.9015
rg,1625569146182808382,1,0.4185,-1.1799,0.509,110,-142.6392,-114.0137,24.5361,219,0.7744,0.7123,-9.6385,-72.9069,28,0.9275,10040,3.9864,-61.2116
rg,1625569146182826622,1,0.5408,-1.3967,0.5144,111,-89.8438,-79.3457,41.2598,160,0.7374,0.6003,-8.5052,-75.2225,28,0.9044,13528,4.0095,-58.9161
rg,1625569146182846270,1,0.5518,-1.1724,0.5757,112,-16.9067,-30.3345,63.8428,160,0.7424,0.5783,-6.9097,-75.7127,28,0.8974,8287,4.0095,-57.1553
rg,1625569146182862973,1,0.3606,-1.0208,0.2715,113,108.2153,-15.1367,38.6963,160,0.7394,0.5633,-6.0666,-71.4664,28,0.8844,8028,4.0095,-56.1593
rg,1625569146182880010,1,0.4746,-0.6636,0.2788,114,102.8442,-59.021,26.3672,160,0.7394,0.5413,-6.9395,-67.4949,28,0.8764,8238,4.0095,-53.6209
rg,1625569146182898102,1,0.2668,-0.5227,0.1631,115,112.7319,-37.4146,-11.9629,160,0.7404,0.5233,-8.7294,-63.3231,28,0.8714,8031,4.0095,-52.4545
rg,1625569146182915472,1,0.0674,-0.239,0.0227,116,115.1733,-33.3862,-19.4092,160,0.7434,0.5283,-10.3398,-59.6499,28,0.8714,8274,4.0095,-51.5266
rg,1625569146182934546,1,0.0293,-0.1267,0.0251,117,52.3071,-0.4883,3.2959,160,0.7454,0.5453,-10.3547,-58.3033,28,0.8714,8430,4.0095,-51.3113
rg,1625569146182952546,1,0.1765,-0.2639,0.0713,118,-81.2378,-12.7563,34.3018,160,0.7494,0.5663,-10.2919,-62.2982,28,0.8754,8821,4.0095,-50.0463
rg,1625569146182970490,1,0.4287,-0.49,0.4319,119,-152.6489,-20.813,35.5225,160,0.7544,0.5793,-10.2468,-68.1742,28,0.8814,8423,4.0095,-48.7178
rg,1625569146183043600,1,0.7175,-1.3933,1.1521,120,-173.4009,86.0596,19.7144,160,0.7614,0.6023,-8.8721,-73.9281,28,0.8894,8506,4.0095,-51.8575
rg,1625569146183063396,1,0.1848,-1.8042,0.7527,121,-70.0073,137.6343,3.2959,160,0.7774,0.6223,-7.1899,-75.7007,28,0.8984,8736,4.0095,-57.2328
rg,1625569146183083118,1,-0.1157,-1.5781,0.8853,122,63.2324,95.8862,-3.2959,160,0.8034,0.6613,-5.8489,-72.1433,28,0.9064,8503,4.0095,-61.0409
rg,1625569146183377335,1,-0.0681,-1.2559,0.6177,123,120.6665,54.9316,6.0425,160,0.8304,0.6973,-4.6081,-66.8913,28,0.9124,8711,4.0095,-63.0374
rg,1625569146183401649,1,0.0352,-0.5159,0.3291,124,119.1406,0.9155,3.9673,160,0.8534,0.7434,-4.3979,-61.752,28,0.9184,11451,4.0095,-63.0308
rg,1625569146183421390,1,0.0234,-0.4551,0.3215,125,82.7637,-15.3198,-1.8921,160,0.8544,0.7654,-4.5095,-57.9402,28,0.9215,8228,4.0095,-62.5694
rg,1625569146183440630,1,0.0181,-0.5667,0.5801,126,-57.4951,-54.3823,13.7939,160,0.8234,0.7774,-5.0291,-59.866,28,0.9215,8404,4.0095,-60.4581
rg,1625569146183480926,1,0.2756,-0.9705,0.5564,127,-145.813,-128.2959,24.353,160,0.7804,0.7344,-6.8121,-66.2085,28,0.9194,8250,4.0095,-55.4031
rg,1625569146183508129,1,0.4597,-1.4143,0.5837,128,-158.9355,-134.5825,21.0571,160,0.7494,0.6493,-7.9902,-72.6092,28,0.9134,8487,4.0095,-50.0749
rg,1625569146519454471,1,0.552,-1.2292,0.3201,129,109.6802,-29.7241,63.7817,160,0.7404,0.5603,-6.5867,-68.5639,28,0.8944,25820,4.0095,-48.1087
rg,1625569146519490415,1,0.5771,-0.7109,0.2661,130,135.9253,-71.5332,23.4375,160,0.7414,0.5433,-8.0355,-63.533,28,0.8884,8948,4.0095,-45.1449
rg,1625569146519510933,1,0.1609,-0.2749,0.001,131,165.0391,-51.6357,-43.5181,160,0.7424,0.5353,-11.4389,-57.9721,28,0.8874,8216,4.0095,-44.0978
rg,1625569146519530544,1,0.0225,-0.0249,0.0042,132,151.4893,-40.5273,-43.8232,160,0.7454,0.5433,-13.8783,-53.6323,28,0.8884,8138,4.0095,-44.4628
rg,1625569146519549192,1,0.0037,-0.0024,-0.0264,133,69.1528,15.2588,-6.7749,160,0.7484,0.5563,-14.3156,-52.7013,28,0.8904,8096,4.0095,-44.6591
rg,1625569146519567765,1,0.1348,-0.1538,-0.0234,134,-98.6938,-11.9629,41.1377,160,0.7524,0.5663,-14.3561,-58.2565,28,0.8954,8112,4.0095,-42.9251
rg,1625569146519585987,1,0.8276,-0.8411,1.1235,135,-265.9302,-33.8745,36.0718,160,0.7564,0.5863,-14.3483,-68.6022,28,0.8994,8093,4.0095,-41.143
rg,1625569146519603561,1,1.0715,-1.6013,1.8691,136,-255.6763,63.4155,26.001,160,0.7644,0.6123,-13.065,-77.2678,28,0.9054,8221,4.0095,-43.5447
rg,1625569146519621283,1,0.2209,-1.9558,0.335,137,-72.3877,141.9678,18.3716,160,0.7834,0.6433,-10.9389,-79.1043,28,0.9114,8658,4.0095,-49.0532
rg,1625569146519638560,1,-0.0078,-1.6106,0.9026,138,72.5098,114.4409,-12.146,160,0.8154,0.6863,-9.964,-74.6205,28,0.9184,8444,4.0095,-53.8197
rg,1625569146519655560,1,0.0474,-0.5969,0.2695,139,152.5879,22.8882,-2.8076,160,0.8544,0.7424,-9.5507,-68.0052,28,0.9255,14860,4.0095,-54.7859
rg,1625569146519673560,1,0.0376,-0.4246,0.2168,140,125.3052,21.4844,-1.2817,160,0.8664,0.7674,-9.0416,-62.657,28,0.9285,7840,4.0095,-55.6251
rg,1625569146519690948,1,-0.0671,-0.354,0.2947,141,26.7334,-1.5869,-7.0801,160,0.8634,0.7804,-8.6494,-61.0753,28,0.9295,8001,4.0095,-55.771
rg,1625569146519708022,1,0.0005,-0.6707,0.6162,142,-122.6196,-77.7588,18.8599,160,0.8284,0.7894,-9.022,-65.8966,28,0.9295,7894,4.0095,-52.7115
rg,1625569146519725207,1,0.179,-0.8748,0.6401,143,-154.2969,-130.5542,23.6816,160,0.7874,0.7834,-9.9977,-72.4427,28,0.9275,8071,4.0095,-47.5039
rg,1625569146519742411,1,0.4365,-1.3318,0.4805,144,-138.2446,-153.1372,29.48,160,0.7524,0.7023,-10.6253,-79.0006,28,0.9194,8817,4.0095,-41.1883
rg,1625569146519784688,1,0.6226,-1.4985,0.5,145,-91.0034,-92.6514,56.0913,160,0.7404,0.6213,-9.4116,-83.0522,28,0.9134,8516,4.0095,-37.1645
rg,1625569146519805335,1,0.5996,-1.2583,0.5627,146,52.9175,-10.9253,55.542,160,0.7404,0.5793,-7.8465,-80.4121,28,0.9144,8247,4.0095,-36.5313
rg,1625569146519823020,1,0.4983,-1.1016,0.2583,147,106.7505,-15.8691,54.3213,160,0.7414,0.5513,-6.7441,-75.9177,28,0.9094,8633,4.0095,-35.5512
rg,1625569146519840613,1,0.4275,-0.6389,0.2361,148,111.8164,-46.6309,4.9438,160,0.7404,0.5343,-8.041,-71.4633,28,0.9064,8262,4.0095,-33.7584
rg,1625569146519857612,1,0.062,-0.3054,0.0469,149,120.8496,-37.3535,-39.2456,160,0.7424,0.5263,-10.1619,-67.1422,28,0.9034,8615,4.0095,-32.8526
rg,1625569146519877297,1,0.0151,-0.1091,0.0098,150,91.6138,-31.189,-13.3057,160,0.7444,0.5383,-11.0816,-64.3423,28,0.9024,8427,4.0095,-31.7912
rg,1625569146519895038,1,0.0525,-0.0942,-0.011,151,47.9126,-27.2827,7.9956,160,0.7464,0.5513,-12.5074,-63.6038,28,0.9034,8433,4.0095,-30.4751
rg,1625569146519912796,1,0.2314,-0.2756,0.0168,152,-101.1353,-42.5415,31.6772,160,0.7504,0.5663,-13.0801,-70.8089,28,0.9054,10213,4.0095,-28.2712
rg,1625569146519930000,1,0.9141,-1.0696,1.2881,153,-216.6138,-0.8545,23.1934,160,0.7554,0.5863,-12.8848,-78.4583,28,0.9104,8890,4.0095,-28.1875
rg,1625569146519947222,1,0.4373,-1.7085,0.5667,154,-114.7461,133.2397,23.6816,160,0.7684,0.6143,-11.0909,-81.6754,28,0.9164,8913,4.0095,-33.4492
rg,1625569146519964277,1,0.082,-1.6877,0.8425,155,14.2822,116.8823,-9.5215,160,0.7944,0.6593,-10.3962,-79.4763,28,0.9235,10563,4.0095,-38.3414
rg,1625569146519981184,1,0.0181,-1.0942,0.5745,156,122.8638,64.4531,0.8545,160,0.8244,0.6933,-9.4049,-73.4394,28,0.9295,8323,4.0095,-40.9821
rg,1625569146519998202,1,0.0562,-0.6814,0.2808,157,124.2065,6.0425,-2.0142,160,0.8504,0.7304,-9.2016,-68.1915,28,0.9335,8505,4.0095,-41.2708
rg,1625569146520015035,1,0.0486,-0.5654,0.2114,158,106.3843,-0.4883,-2.2583,160,0.8664,0.7614,-8.8978,-65.015,28,0.9365,8314,4.0095,-41.2867
rg,1625569146520032202,1,-0.0271,-0.5449,0.3684,159,29.9683,-17.0288,0.9766,160,0.8614,0.7784,-8.7146,-63.5406,28,0.9385,9212,4.0095,-40.6993
rg,1625569146520062109,1,0.0688,-0.7366,0.5825,160,-90.9424,-98.5718,12.3901,160,0.8164,0.7884,-9.7169,-67.3001,28,0.9375,8610,4.0095,-36.9362
rg,1625569146824848421,1,0.6104,-1.4766,0.4551,161,-70.4346,-105.4688,54.5654,160,0.7384,0.5973,-9.6249,-71.1159,28,0.9154,25628,4.0095,-32.1078
rg,1625569146824879587,1,0.7029,-1.2778,0.5237,162,61.2793,-46.0815,57.4341,160,0.7404,0.5613,-8.7682,-68.9386,28,0.9134,9674,4.0095,-29.6019
rg,1625569146824900327,1,0.5784,-1.1851,0.1897,163,128.3569,-47.7905,45.166,160,0.7394,0.5343,-8.783,-64.4696,28,0.9084,8054,4.0095,-27.1043
rg,1625569146824919882,1,0.5098,-0.6755,0.1509,164,152.9541,-79.1016,-5.5542,160,0.7404,0.5102,-11.512,-59.2428,28,0.9044,8324,4.0095,-24.3659
rg,1625569146824937956,1,0.0535,-0.2349,-0.0264,165,182.251,-44.4946,-59.8145,160,0.7414,0.5012,-14.6232,-53.3687,28,0.9014,8410,4.0095,-23.9341
rg,1625569146824955882,1,0.0247,0.0029,-0.0107,166,180.0537,-32.7148,-42.1143,160,0.7424,0.5123,-17.6526,-47.8195,28,0.9024,8023,4.0095,-23.7477
rg,1625569146825012621,1,0.0969,0.0435,-0.0371,167,86.6089,-4.6387,18.5547,160,0.7454,0.5373,-19.4573,-44.5279,28,0.9034,8402,4.0095,-23.1483
rg,1625569146825032325,1,0.2708,-0.156,-0.0117,168,-105.3467,-13.5498,47.9126,160,0.7484,0.5543,-19.999,-50.28,28,0.9074,8276,4.0095,-20.9615
rg,1625569146825050176,1,1.0369,-1.5208,1.5417,169,-246.8872,141.5405,21.0571,160,0.7564,0.5833,-16.2897,-58.5604,28,0.9134,14567,4.0095,-25.346
rg,1625569146825067880,1,0.5676,-1.7983,0.9097,170,-174.1943,242.0654,28.2593,160,0.7674,0.6143,-10.2705,-64.2714,28,0.9194,7968,4.0095,-33.3435
rg,1625569146825085102,1,-0.0591,-1.9348,0.9045,171,-28.8086,196.2891,2.2583,160,0.7884,0.6503,-6.3495,-64.3916,28,0.9255,7978,4.0095,-40.4496
rg,1625569146825102361,1,-0.2554,-1.3059,0.7305,172,117.0044,98.3276,-11.2305,160,0.8254,0.6903,-4.2768,-59.2222,28,0.9315,8261,4.0095,-44.1303
rg,1625569146825119601,1,0.0422,-0.7434,0.4014,173,146.9116,-5.7983,-0.8545,160,0.8614,0.7364,-4.3763,-53.4578,28,0.9375,11409,4.0095,-43.9463
rg,1625569146825137193,1,0.125,-0.467,0.2361,174,98.7549,-13.3057,-0.9766,160,0.8864,0.7684,-5.094,-49.9119,28,0.9405,8229,4.0095,-43.5351
rg,1625569146825158341,1,0.134,-0.4812,0.3018,175,57.4951,-21.6064,-7.1411,160,0.8974,0.7924,-5.9588,-47.6691,28,0.9435,8006,4.0095,-43.0703
rg,1625569146825176452,1,0.0776,-0.6636,0.5742,176,-59.5093,-44.7998,1.0376,160,0.8774,0.8104,-7.0592,-50.2477,28,0.9435,8086,4.0095,-41.6758
rg,1625569146825193618,1,0.3042,-0.9387,0.5562,177,-137.8784,-122.4976,20.3857,160,0.8244,0.8154,-9.631,-56.7394,28,0.9415,8243,4.0095,-37.1472
rg,1625569146825211099,1,0.4138,-1.3232,0.4062,178,-145.6299,-138.1836,11.4746,160,0.7774,0.7304,-12.2585,-63.8659,28,0.9375,8156,4.0095,-31.6179
rg,1625569146825228229,1,0.5171,-1.4524,0.4419,179,-113.9526,-135.8643,28.9917,160,0.7464,0.6403,-13.556,-70.0066,28,0.9265,8697,4.0095,-25.9412
rg,1625569146825244988,1,0.6252,-1.3789,0.3989,180,-13.2446,-78.6133,61.4624,160,0.7374,0.5673,-12.6533,-71.5463,28,0.9204,8441,4.0095,-22.0319
rg,1625569146825262173,1,0.6245,-1.0422,0.4893,181,97.5342,-38.4521,47.7295,160,0.7364,0.5523,-12.0122,-67.8549,28,0.9184,8475,4.0095,-19.9609
rg,1625569146825279432,1,0.5845,-0.8081,0.22,182,120.7886,-69.8242,36.5601,160,0.7384,0.5173,-12.6935,-63.9327,28,0.9124,8776,4.0095,-16.7316
rg,1625569146825296524,1,0.4507,-0.6555,0.1548,183,116.6992,-54.1992,1.5869,160,0.7374,0.4932,-14.0419,-60.4645,28,0.9074,8786,4.0095,-14.5806
rg,1625569146825313857,1,0.0352,-0.3586,0.0239,184,121.521,-4.4556,-41.1987,160,0.7384,0.4902,-15.2611,-56.4341,28,0.9034,8371,4.0095,-15.0541
rg,1625569146825331264,1,-0.0723,-0.0806,0.1155,185,105.3467,9.7046,-6.4087,160,0.7394,0.5042,-13.7403,-51.3535,28,0.9024,8693,4.0095,-15.6662
rg,1625569146825358338,1,0.0745,-0.0383,0.0981,186,18.5547,-24.0479,35.4614,160,0.7424,0.5273,-14.136,-50.0517,28,0.9034,8188,4.0095,-14.219
rg,1625569146825376022,1,0.1807,-0.1248,0.0981,187,-58.3496,-49.0723,41.0767,160,0.7454,0.5403,-15.3451,-53.1006,28,0.9064,8428,4.0095,-11.5322
rg,1625569146825393300,1,0.783,-0.718,0.8201,188,-204.3457,-56.0303,31.189,160,0.7494,0.5653,-16.2972,-61.5855,28,0.9114,8730,4.0095,-8.9253
rg,1625569146825410003,1,0.8059,-1.6619,1.0176,189,-172.3022,137.4512,27.0996,160,0.7594,0.5983,-13.217,-67.1518,28,0.9184,8516,4.0095,-13.5911
rg,1625569146825427003,1,0.2729,-1.7764,0.6809,190,-49.9878,184.021,9.0942,160,0.7774,0.6353,-9.8937,-67.8418,28,0.9275,8399,4.0095,-20.3762
rg,1625569146825443892,1,0.0347,-1.6235,0.8726,191,16.7236,175.293,-5.4321,160,0.8064,0.6693,-6.811,-65.9489,28,0.9345,8568,4.0095,-27.0139
rg,1625569146825460502,1,-0.124,-0.9709,0.4192,192,116.333,80.0781,-0.6104,160,0.8324,0.7013,-4.8867,-61.0248,28,0.9405,8388,4.0095,-29.8808
rg,1625569147195994450,1,0.1577,-0.7039,0.5476,193,-87.5244,-85.3271,12.3901,160,0.8274,0.7594,-6.2007,-64.4752,28,0.9465,25360,4.0095,-26.6285
rg,1625569147196037079,1,0.3093,-1.1379,0.4182,194,-125.061,-124.5117,11.7798,160,0.7904,0.7424,-8.4327,-70.7706,28,0.9445,8890,4.0095,-21.1615
rg,1625569147196058634,1,0.3525,-1.3225,0.3862,195,-121.3989,-141.2354,7.2021,160,0.7654,0.6683,-9.9511,-76.6119,28,0.9395,8044,4.0095,-15.5659
rg,1625569147196078689,1,0.6411,-1.3127,0.4041,196,16.4795,-106.9336,56.7017,160,0.7484,0.5823,-9.3138,-76.5979,28,0.9345,14564,4.0095,-10.847
rg,1625569147196097504,1,0.5984,-1.0464,0.3062,197,121.8872,-64.9414,40.5884,160,0.7454,0.5663,-9.1986,-72.088,28,0.9315,7785,4.0095,-7.9264
rg,1625569147196116318,1,0.6479,-0.8882,0.2273,198,134.3994,-86.0596,46.3867,160,0.7454,0.5593,-9.6338,-67.4618,28,0.9285,7847,4.0095,-4.0365
rg,1625569147196134133,1,0.4922,-0.4771,0.0344,199,147.3999,-57.9834,-3.6011,160,0.7454,0.5533,-12.0877,-62.4575,28,0.9255,7914,4.0095,-1.9388
rg,1625569147196151799,1,0.2561,-0.1074,-0.0447,200,137.6343,0.8545,-30.8838,160,0.7484,0.5593,-15.0348,-57.5249,28,0.9245,9479,4.0095,-2.5356
rg,1625569147196186280,1,0.1255,-0.0215,-0.0283,201,95.459,45.4102,-23.1323,160,0.7504,0.5773,-15.4723,-56.3615,28,0.9235,8395,4.0095,-5.4122
rg,1625569147196205243,1,0.1143,-0.1091,0.0059,202,-68.1152,101.3184,18.3716,160,0.7544,0.5953,-13.9182,-59.1063,28,0.9255,8109,4.0095,-8.3103
rg,1625569147196238946,1,0.4475,-0.6431,0.7183,203,-243.4082,102.0508,34.9731,160,0.7604,0.6173,-11.3283,-67.5101,28,0.9305,8463,4.0095,-11.5238
rg,1625569147196269353,1,0.2788,-1.8921,1.3938,204,-195.8618,222.7783,31.4331,160,0.7734,0.6433,-7.0529,-73.4783,28,0.9365,8470,4.0095,-19.7045
rg,1625569147196301334,1,-0.1365,-2.0684,0.603,205,-89.5996,184.6313,31.4941,160,0.7974,0.6843,-3.5281,-76.4112,28,0.9445,8137,4.0095,-26.5434
rg,1625569147196321130,1,-0.1389,-1.759,0.7666,206,70.0073,51.8188,-10.376,160,0.8304,0.7163,-3.0881,-73.0791,28,0.9475,8612,4.0095,-28.6707
rg,1625569147196339500,1,0.04,-0.8611,0.3787,207,175.2319,-15.7471,-12.5122,160,0.8584,0.7564,-3.7466,-65.8288,28,0.9525,8683,4.0095,-28.2682
rg,1625569147196358500,1,0.0862,-0.3691,0.2163,208,126.3428,-15.9302,-1.5869,160,0.8694,0.7854,-4.3881,-60.5673,28,0.9555,8418,4.0095,-27.7579
rg,1625569147196375962,1,0.0703,-0.2644,0.292,209,49.5605,-26.9165,4.2114,160,0.8514,0.7974,-5.0225,-57.9505,28,0.9555,8205,4.0095,-26.8037
rg,1625569147196394536,1,0.0991,-0.5376,0.5403,210,-135.2539,-96.8628,3.1128,160,0.8074,0.7974,-6.9007,-63.1817,28,0.9525,8075,4.0095,-23.3906
rg,1625569147196412073,1,0.2141,-1.1963,0.397,211,-184.082,-155.7617,14.0381,160,0.7704,0.7113,-8.8527,-71.6801,28,0.9455,8041,4.0095,-17.3323
rg,1625569147196429961,1,0.3865,-1.4846,0.4587,212,-163.0859,-164.1846,29.8462,160,0.7474,0.6333,-9.5188,-79.2999,28,0.9365,8168,4.0095,-10.5876
rg,1625569147196447424,1,0.801,-1.5969,0.6953,213,-35.5835,-132.9956,72.0215,160,0.7434,0.5853,-8.1739,-81.1305,28,0.9405,8158,4.0095,-4.8694
rg,1625569147196464405,1,0.8362,-1.4189,0.3025,214,145.4468,-82.8857,80.2002,160,0.7434,0.5613,-6.5357,-75.6973,28,0.9395,8213,4.0095,-1.021
rg,1625569147196481942,1,0.8796,-1.1306,0.2366,215,177.4292,-101.9897,71.8994,160,0.7454,0.5303,-7.9272,-68.8227,28,0.9355,8177,4.0095,2.7653
rg,1625569147196499238,1,0.4998,-0.5476,0.0549,216,200.0122,-63.9648,-22.0337,160,0.7454,0.5052,-11.0689,-61.6011,28,0.9325,8270,4.0095,4.7215
rg,1625569147196516793,1,0.0908,-0.1086,0.0085,217,192.8711,2.3804,-48.7671,160,0.7474,0.4952,-13.7889,-54.3594,28,0.9315,8226,4.0095,3.6485
rg,1625569147196534238,1,0.0098,0.0178,-0.1067,218,184.3262,25.1465,-28.5034,160,0.7494,0.5173,-13.4954,-49.5689,28,0.9315,8308,4.0095,3.3613
rg,1625569147196551534,1,0.1741,0.022,-0.1567,219,17.8223,6.7139,54.1992,160,0.7534,0.5413,-13.7478,-49.9268,28,0.9325,14723,4.0095,4.7714
rg,1625569147196581755,1,0.3208,-0.208,0.0781,220,-205.8105,7.5073,45.166,160,0.7564,0.5663,-13.6168,-58.7918,28,0.9355,8893,4.0095,5.8178
rg,1625569147196600903,1,0.9717,-1.1343,1.3982,221,-322.2046,124.7559,31.1279,160,0.7614,0.5863,-10.9982,-70.0811,28,0.9385,8292,4.0095,1.6695
rg,1625569147196618236,1,0.1538,-1.8853,0.554,222,-184.8755,318.6646,39.3677,160,0.7694,0.6123,-5.5668,-75.8886,28,0.9425,8450,4.0095,-10.106
rg,1625569147196636606,1,-0.2573,-1.9829,0.5889,223,-110.3516,276.9165,17.9443,160,0.7844,0.6473,-1.7376,-79.0328,28,0.9465,8412,4.0095,-20.8246
rg,1625569147196654439,1,-0.7061,-1.5364,0.9907,224,52.9785,119.5068,-33.6914,160,0.8124,0.6793,-1.1545,-75.9676,28,0.9515,8492,4.0095,-25.7776
rg,1625569147594166104,1,0.3027,-0.6338,0.3093,225,58.1055,-141.7236,-5.3101,164,0.8864,0.7644,-3.6849,-73.4259,28,0.9605,25753,4.0029,-20.3931
rg,1625569147594201085,1,0.4526,-0.7297,0.1792,226,23.3154,-109.2529,3.8452,164,0.9044,0.7864,-5.8293,-72.9283,28,0.9625,8702,4.0029,-16.1526
rg,1625569147594241917,1,0.5256,-0.7769,0.2268,227,-4.0894,-90.1489,10.6812,164,0.8994,0.8014,-7.4829,-73.5242,28,0.9625,7992,4.0029,-12.5484
rg,1625569147594262325,1,0.686,-0.8596,0.4561,228,-79.5288,-73.2422,26.123,164,0.8504,0.8014,-8.2759,-76.7493,28,0.9615,8116,4.0029,-9.4453
rg,1625569147594281028,1,0.5276,-1.1904,0.3442,229,-100.5859,-25.8179,30.3345,164,0.7754,0.7184,-7.8652,-80.828,28,0.9545,14530,4.0029,-8.1864
rg,1625569147594299231,1,0.5461,-1.3074,0.3716,230,-89.4165,-11.0474,47.6074,164,0.7484,0.6293,-6.5845,-84.2266,28,0.9435,7734,4.0029,-7.5235
rg,1625569147594316935,1,0.5505,-1.3296,0.4197,231,-29.2969,26.3672,76.4771,164,0.7424,0.5793,-4.0444,-84.8797,28,0.9405,7856,4.0029,-8.347
rg,1625569147594334916,1,0.3992,-1.155,0.5188,232,96.2524,72.2656,65.7349,164,0.7404,0.5593,-1.6165,-80.1822,28,0.9375,7736,4.0029,-10.9565
rg,1625569147594353619,1,0.3413,-1.0586,0.3206,233,131.1035,41.0156,71.6553,164,0.7404,0.5343,0.913,-74.659,28,0.9315,8043,4.0029,-11.982
rg,1625569147594371601,1,0.2056,-0.675,0.2612,234,136.9629,0.1221,14.3433,164,0.7404,0.5293,0.8039,-68.9528,28,0.9275,8725,4.0029,-11.8405
rg,1625569147594392211,1,-0.1177,-0.2637,0.125,235,165.8936,-11.7798,-29.4189,164,0.7404,0.5283,0.3601,-62.1625,28,0.9235,8005,4.0029,-11.8408
rg,1625569147594411211,1,-0.1765,-0.0208,0.1804,236,150.3906,-6.4087,-19.8975,164,0.7424,0.5383,2.1056,-56.3509,28,0.9225,8205,4.0029,-12.1625
rg,1625569147594430266,1,-0.1458,0.0029,0.1799,237,49.4385,7.6904,22.3999,164,0.7454,0.5473,4.4019,-52.8653,28,0.9225,8222,4.0029,-11.7947
rg,1625569147594448359,1,0.0088,-0.2231,0.1848,238,-116.2109,-52.6733,36.8042,164,0.7484,0.5633,4.165,-57.1973,28,0.9255,8325,4.0029,-9.2024
rg,1625569147594466451,1,0.5273,-1.1179,1.4568,239,-251.8311,-74.7681,17.2119,164,0.7524,0.5843,2.6052,-66.3158,28,0.9295,8241,4.0029,-6.1312
rg,1625569147594484339,1,0.4934,-1.7117,1.5381,240,-216.2476,-13.7329,10.6812,164,0.7624,0.6063,2.4901,-75.107,28,0.9365,8358,4.0029,-5.4577
rg,1625569147594501228,1,0.1738,-1.9243,0.5552,241,-61.8896,-1.709,3.0518,164,0.7824,0.6473,2.2975,-77.5075,28,0.9445,9640,4.0029,-5.3547
rg,1625569147594570801,1,0.1609,-1.4001,0.7334,242,70.0073,5.4932,-8.3008,164,0.8104,0.6813,1.7116,-74.1144,28,0.9505,8148,4.0029,-5.6344
rg,1625569147594595949,1,0.2329,-0.8118,0.3274,243,129.2114,-26.5503,-1.5259,164,0.8404,0.7133,0.6712,-68.6878,28,0.9555,8058,4.0029,-4.6725
rg,1625569147594614745,1,0.2002,-0.6377,0.1851,244,117.5537,-22.0947,-0.6104,164,0.8664,0.7444,-0.4658,-64.2927,28,0.9595,8072,4.0029,-3.9068
rg,1625569147594645818,1,0.2209,-0.5464,0.1821,245,51.2695,-9.9487,7.6904,164,0.8764,0.7684,-1.1633,-62.508,28,0.9615,8031,4.0029,-3.4264
rg,1625569147594663985,1,0.2385,-0.72,0.4875,246,-71.7773,-40.2832,10.9863,164,0.8544,0.7794,-2.0299,-65.1543,28,0.9625,8471,4.0029,-1.7796
rg,1625569147594681281,1,0.3025,-1.0129,0.4197,247,-111.8774,-70.0684,12.4512,164,0.8094,0.7804,-3.4489,-70.5214,28,0.9595,8450,4.0029,1.7161
rg,1625569147594698762,1,0.3364,-1.196,0.322,248,-123.9014,-89.5386,17.0288,164,0.7734,0.7103,-4.2794,-75.8709,28,0.9505,8725,4.0029,5.3758
rg,1625569147594715706,1,0.4805,-1.3687,0.4253,249,-68.7866,-61.0352,44.2505,164,0.7514,0.6283,-3.6447,-78.6807,28,0.9415,8902,4.0029,8.1505
rg,1625569147594732835,1,0.7258,-1.2312,0.6519,250,28.6865,-23.4375,76.1108,164,0.7484,0.5933,-1.7939,-77.0178,28,0.9435,8469,4.0029,9.6456
rg,1625569147594750798,1,0.6169,-1.1157,0.2607,251,109.1309,-3.54,69.2749,164,0.7444,0.5693,-0.1763,-72.6532,28,0.9385,8984,4.0029,10.4553
rg,1625569147594768205,1,0.3982,-0.781,0.2151,252,104.9805,-8.1787,41.5039,164,0.7454,0.5513,-1.2575,-68.328,28,0.9345,8598,4.0029,9.9602
rg,1625569147594785668,1,0.1277,-0.5525,0.123,253,126.0376,30.4565,-43.5181,164,0.7464,0.5413,-2.8025,-63.5687,28,0.9315,8572,4.0029,8.1295
rg,1625569147594802538,1,-0.1548,-0.197,0.0969,254,134.2163,52.6733,-47.5464,164,0.7494,0.5463,-2.0457,-58.0951,28,0.9305,8667,4.0029,5.4371
rg,1625569147594819482,1,-0.1887,-0.0632,0.1494,255,54.5654,56.3965,-2.2583,164,0.7524,0.5653,0.8731,-55.0387,28,0.9305,8300,4.0029,3.5243
rg,1625569147594837574,1,-0.0901,-0.2566,0.2122,256,-98.0225,-13.5498,15.0757,164,0.7564,0.5813,1.6426,-58.745,28,0.9335,10347,4.0029,4.2931
rg,1625569147880701454,1,0.3643,-1.9106,0.5635,257,-32.2876,-58.3496,2.7466,164,0.7934,0.6553,0.0977,-60.5623,28,0.9475,26790,4.0029,6.3555
rg,1625569147880750824,1,0.5393,-1.7307,0.7725,258,38.3301,-46.9971,-4.5776,164,0.8264,0.6993,-1.6539,-56.7258,28,0.9535,8639,4.0029,7.1978
rg,1625569147880772416,1,0.4644,-0.9915,0.3342,259,143.6157,-25.9399,-13.9771,164,0.8564,0.7384,-3.57,-51.5321,28,0.9595,8483,4.0029,7.687
rg,1625569147880791953,1,0.3279,-0.49,0.0232,260,144.6533,-0.6104,-4.0283,164,0.8754,0.7634,-4.8709,-46.8497,28,0.9635,8564,4.0029,7.6182
rg,1625569147880811008,1,0.2766,-0.3274,0.1294,261,34.1187,31.3721,15.1978,164,0.8784,0.7804,-4.8277,-46.097,28,0.9645,7987,4.0029,7.1663
rg,1625569147880829545,1,0.3005,-0.3826,0.3538,262,-57.1899,19.165,22.0337,164,0.8384,0.7934,-4.4152,-48.415,28,0.9645,8293,4.0029,7.2149
rg,1625569147880847507,1,0.3882,-0.8711,0.625,263,-174.0112,-23.1934,25.7568,164,0.7874,0.7524,-4.774,-55.6758,28,0.9585,8735,4.0029,8.6345
rg,1625569147880866859,1,0.4153,-1.4883,0.4673,264,-153.1982,-22.522,45.166,164,0.7524,0.6433,-4.0881,-62.5462,28,0.9515,10839,4.0029,10.4097
rg,1625569147880884784,1,0.7029,-1.5332,0.6885,265,59.082,30.7007,93.3228,164,0.7464,0.5873,-0.9593,-60.3242,28,0.9505,15707,4.0029,11.0962
rg,1625569147880901988,1,0.6428,-1.1104,0.3389,266,138.4888,2.0142,71.6553,164,0.7454,0.5593,0.437,-55.2301,28,0.9455,7893,4.0029,12.5041
rg,1625569147880919580,1,0.2166,-0.6418,0.2212,267,145.6299,15.5029,-34.9121,164,0.7454,0.5353,-1.0007,-49.9903,28,0.9415,7855,4.0029,11.1281
rg,1625569147880936969,1,-0.0117,-0.3923,0.1487,268,141.9067,31.7993,-61.7676,164,0.7474,0.5243,-1.8649,-45.0025,28,0.9395,7843,4.0029,8.5433
rg,1625569147880953931,1,-0.3696,-0.1853,0.0791,269,141.2964,71.0449,-49.1943,164,0.7484,0.5273,0.9148,-39.7414,28,0.9385,8047,4.0029,5.2891
rg,1625569147880971413,1,-0.3289,-0.0732,0.0447,270,76.7212,15.7471,25.0854,164,0.7494,0.5453,4.2111,-36.8437,28,0.9375,9492,4.0029,5.7415
rg,1625569147880997746,1,-0.0984,-0.1777,0.0657,271,10.7422,-35.8276,39.917,164,0.7524,0.5673,3.2948,-40.9656,28,0.9395,8594,4.0029,9.1715
rg,1625569147881017449,1,0.009,-0.3186,0.1462,272,-179.6265,-140.564,35.0952,164,0.7554,0.5843,0.1551,-48.9068,28,0.9415,8342,4.0029,14.0869
rg,1625569147881036060,1,0.7695,-1.3059,1.582,273,-277.0386,-143.7378,13.4888,164,0.7574,0.6043,-3.5217,-59.7372,28,0.9435,8013,4.0029,19.1287
rg,1625569147881054485,1,0.3811,-1.8059,0.3125,274,-113.8306,-3.2959,5.9814,164,0.7684,0.6233,-3.6998,-65.0454,28,0.9485,8039,4.0029,19.4184
rg,1625569147881072948,1,0.4216,-1.7622,0.4265,275,-53.4668,-8.9111,-10.498,164,0.7844,0.6463,-4.6184,-66.9941,28,0.9535,8229,4.0029,19.568
rg,1625569147881119318,1,0.3235,-1.21,0.792,276,37.2925,24.4751,-30.7617,164,0.8084,0.6693,-5.6627,-64.9695,28,0.9585,8093,4.0029,18.1301
rg,1625569147881146150,1,0.3286,-0.8264,0.4104,277,86.5479,7.6904,-7.7515,164,0.8384,0.6983,-6.3463,-61.4031,28,0.9595,8289,4.0029,17.6887
rg,1625569147881164595,1,0.3542,-0.7119,0.1289,278,67.0166,9.5215,2.8076,164,0.8674,0.7244,-6.8396,-59.3278,28,0.9675,8550,4.0029,17.4646
rg,1625569147881183039,1,0.3662,-0.7058,0.1006,279,53.2227,17.5781,1.6479,164,0.8854,0.7534,-7.2269,-57.9013,28,0.9695,8251,4.0029,16.9729
rg,1625569147881202557,1,0.2964,-0.7405,0.2917,280,13.855,32.1655,0,164,0.8904,0.7684,-7.0671,-57.5934,28,0.9705,8117,4.0029,15.9198
rg,1625569147881220001,1,0.2244,-0.7825,0.4788,281,-44.2505,8.7891,27.0996,164,0.8584,0.7794,-6.2249,-59.4154,28,0.9715,8283,4.0029,16.1913
rg,1625569147881237686,1,0.3167,-0.875,0.5994,282,-80.5054,-20.813,40.0391,164,0.8014,0.7854,-5.6749,-62.7659,28,0.9665,8202,4.0029,17.7085
rg,1625569147881255871,1,0.3931,-1.1411,0.4924,283,-93.0176,-54.5044,42.6025,164,0.7644,0.7174,-5.5197,-66.8805,28,0.9585,8341,4.0029,20.4444
rg,1625569147881273352,1,0.5532,-1.4482,0.4539,284,-65.6128,-23.8647,74.8291,164,0.7434,0.6213,-3.6597,-69.8625,28,0.9475,8282,4.0029,22.4651
rg,1625569147881291148,1,0.6799,-1.3318,0.7959,285,15.7471,35.7666,92.5293,164,0.7424,0.5753,-0.4847,-68.8307,28,0.9475,8446,4.0029,22.384
rg,1625569147881309777,1,0.4539,-1.1436,0.2942,286,137.6953,4.8828,83.0688,164,0.7404,0.5323,1.8288,-63.5566,28,0.9365,10808,4.0029,23.4981
rg,1625569147881328333,1,0.2695,-0.6609,0.2153,287,150.0244,-20.752,-11.1694,164,0.7414,0.5022,0.1535,-57.8593,28,0.9305,8508,4.0029,23.9487
rg,1625569147881346055,1,-0.1301,-0.2275,0.1162,288,165.7715,-20.813,-69.7632,164,0.7434,0.4962,-1.5708,-51.4055,28,0.9285,9414,4.0029,23.0819
rg,1625569148348842704,1,-0.0544,-0.0198,0.1064,289,-3.7842,-29.1748,42.1143,164,0.7484,0.5323,0.0618,-50.2473,28,0.9305,23995,4.0029,25.0256
rg,1625569148348932147,1,0.5581,-0.802,1.0139,290,-276.9165,-97.5952,27.5269,164,0.7524,0.5543,-2.1114,-60.916,28,0.9345,12875,4.0029,28.9357
rg,1625569148348955536,1,0.4907,-1.8584,0.927,291,-180.9082,49.8657,14.7095,164,0.7584,0.5803,-1.1729,-68.1636,28,0.9395,7594,4.0029,27.4164
rg,1625569148348974813,1,0.2639,-1.9385,0.22,292,-90.332,43.1519,15.3198,164,0.7674,0.5953,-1.2685,-69.5557,28,0.9435,7685,4.0029,26.4196
rg,1625569148349024701,1,0.1426,-1.4932,0.823,293,25.8789,43.8232,-23.9258,164,0.7824,0.6263,-1.6729,-68.1244,28,0.9485,7840,4.0029,24.43
rg,1625569148349045090,1,0.1143,-0.8525,0.5315,294,102.1118,10.376,-10.5591,164,0.8094,0.6523,-2.0801,-63.6201,28,0.9545,7659,4.0029,23.8592
rg,1625569148349065479,1,0.186,-0.6809,0.2681,295,98.6328,-17.395,-3.54,164,0.8384,0.6883,-3.2512,-60.617,28,0.9605,8995,4.0029,25.0178
rg,1625569148349085867,1,0.2004,-0.6941,0.1941,296,63.3545,-35.0952,0.9155,164,0.8614,0.7153,-4.4093,-58.6787,28,0.9635,8309,4.0029,26.2715
rg,1625569148349108663,1,0.2424,-0.8257,0.2954,297,19.7754,-24.7192,5.0049,164,0.8684,0.7394,-5.1885,-58.4,28,0.9675,8079,4.0029,27.2547
rg,1625569148349126033,1,0.2268,-0.9041,0.4719,298,-40.1611,-47.6685,9.1553,164,0.8494,0.7514,-6.1271,-60.3293,28,0.9665,8044,4.0029,29.1097
rg,1625569148349143385,1,0.2715,-0.939,0.5283,299,-69.5801,-63.5376,15.3198,164,0.8024,0.7574,-7.0906,-63.4004,28,0.9635,8194,4.0029,31.6651
rg,1625569148349161310,1,0.3132,-1.127,0.4094,300,-95.5811,-69.9463,18.1274,164,0.7614,0.6593,-7.8714,-67.8351,28,0.9505,10182,4.0029,34.5773
rg,1625569148349180847,1,0.396,-1.2905,0.4731,301,-50.293,-44.1284,42.4805,164,0.7454,0.5803,-7.2356,-70.209,28,0.9425,8040,4.0029,36.8644
rg,1625569148349200051,1,0.6558,-1.2075,0.7412,302,24.292,-12.207,74.4629,164,0.7454,0.5513,-5.309,-68.966,28,0.9435,7909,4.0029,38.2961
rg,1625569148349218680,1,0.4983,-1.2676,0.3931,303,85.5103,-1.2817,63.8428,164,0.7424,0.5213,-3.5755,-65.7578,28,0.9385,8068,4.0029,39.3147
rg,1625569148349238791,1,0.5959,-1.0188,0.2534,304,120.9106,-64.209,22.1558,164,0.7434,0.4992,-4.9094,-61.4694,28,0.9315,7914,4.0029,41.9959
rg,1625569148349257031,1,0.103,-0.5115,0.0703,305,168.335,-47.8516,-74.2798,164,0.7434,0.4872,-8.6907,-55.5434,28,0.9305,8135,4.0029,42.1392
rg,1625569148349274642,1,-0.0266,-0.2412,0.0823,306,180.7861,-44.2505,-77.3926,164,0.7444,0.4892,-11.648,-48.858,28,0.9275,7884,4.0029,41.7701
rg,1625569148349294031,1,-0.0762,0.0073,0.1428,307,136.2915,-11.2915,-21.8506,164,0.7454,0.4982,-11.2735,-41.7728,28,0.9255,8104,4.0029,41.2318
rg,1625569148349312993,1,0.0703,-0.0547,0.0618,308,-8.0566,-31.9214,42.4194,164,0.7474,0.5193,-12.1807,-42.5179,28,0.9295,12533,4.0029,43.393
rg,1625569148349331160,1,0.3303,-0.4287,0.2324,309,-204.3457,-85.8154,40.8936,164,0.7514,0.5293,-14.1403,-52.1478,28,0.9335,8512,4.0029,47.3182
rg,1625569148349348752,1,1.0166,-1.6113,1.6079,310,-241.6382,19.5312,20.752,164,0.7554,0.5563,-13.4209,-61.458,28,0.9375,8984,4.0029,47.0751
rg,1625569148349372122,1,0.3628,-1.8074,0.2476,311,-69.2749,95.52,25.2686,164,0.7654,0.5833,-10.7391,-64.3809,28,0.9435,8932,4.0029,44.2455
rg,1625569148349391585,1,0.1611,-1.3396,0.8179,312,-11.5356,62.9883,-4.2114,164,0.7844,0.6183,-10.4516,-61.9826,28,0.9505,8696,4.0029,41.3935
rg,1625569148349409566,1,0.0708,-1.0161,0.6907,313,81.9092,53.833,-20.2637,164,0.8134,0.6473,-9.8022,-58.0465,28,0.9565,8384,4.0029,39.0503
rg,1625569148349426917,1,0.1338,-0.6846,0.2866,314,90.7593,-10.498,7.1411,164,0.8404,0.6823,-9.8157,-54.863,28,0.9615,8248,4.0029,39.6251
rg,1625569148349463528,1,0.1514,-0.6326,0.1709,315,51.4526,-27.2217,8.7891,164,0.8604,0.7073,-10.3091,-53.7603,28,0.9655,8354,4.0029,40.8608
rg,1625569148349484824,1,0.2021,-0.6633,0.2568,316,26.3672,-20.752,17.0898,164,0.8654,0.7344,-10.4794,-53.4709,28,0.9675,8152,4.0029,42.0532
rg,1625569148349502509,1,0.2463,-0.812,0.5396,317,-49.3164,-36.438,25.8789,164,0.8454,0.7464,-10.6169,-55.8751,28,0.9685,8786,4.0029,43.8928
rg,1625569148349531694,1,0.4036,-1.0532,0.5732,318,-104.126,-86.1206,31.9214,164,0.7994,0.7254,-11.6327,-60.9423,28,0.9635,8556,4.0029,47.614
rg,1625569148349551286,1,0.4385,-1.2932,0.5076,319,-98.2666,-79.9561,33.2031,164,0.7674,0.6303,-12.0964,-65.8746,28,0.9545,8914,4.0029,51.2082
rg,1625569148349569989,1,0.5718,-1.2507,0.385,320,1.5869,-54.0771,70.5566,164,0.7544,0.5593,-10.8325,-66.6914,28,0.9495,8746,4.0029,54.435
rg,1625569148702105713,1,0.7419,-0.9172,0.2378,321,97.4121,-25.6348,41.1377,164,0.7464,0.5082,-10.814,-63.3724,28,0.9425,24966,4.0029,56.1006
rg,1625569148702140861,1,0.3003,-0.6389,0.0588,322,104.7363,21.1182,-33.5083,164,0.7474,0.5082,-12.1782,-59.6593,28,0.9385,8867,4.0029,54.8147
rg,1625569148702161323,1,0.0054,-0.2598,0.0728,323,106.6895,58.2275,-41.8091,164,0.7494,0.5153,-11.9286,-55.3696,28,0.9375,8389,4.0029,52.0293
rg,1625569148702180416,1,-0.0549,-0.1575,0.105,324,84.4727,79.5898,-23.7427,164,0.7494,0.5233,-9.5224,-50.9437,28,0.9365,7840,4.0029,48.8114
rg,1625569148702199193,1,-0.0527,-0.156,0.134,325,-23.7427,87.4634,30.0903,164,0.7514,0.5393,-5.4908,-51.5566,28,0.9375,7892,4.0029,46.7973
rg,1625569148702216804,1,0.145,-0.5916,0.5244,326,-174.8657,39.7339,39.978,164,0.7544,0.5553,-3.475,-58.3675,28,0.9385,8043,4.0029,46.4057
rg,1625569148702233822,1,0.3267,-1.6362,1.3862,327,-188.3545,61.0962,27.6489,164,0.7624,0.5903,-1.5719,-65.459,28,0.9445,12501,4.0029,44.7569
rg,1625569148702250359,1,0.0535,-1.8667,0.6035,328,-43.8232,16.8457,17.2729,164,0.7744,0.6153,-0.673,-67.4491,28,0.9495,7990,4.0029,44.4192
rg,1625569148702267229,1,0.1223,-1.3623,0.7834,329,16.7847,-0.9155,0.1221,164,0.7974,0.6483,-0.9484,-64.0767,28,0.9555,8561,4.0029,44.4425
rg,1625569148702284451,1,0.2107,-1.0371,0.5837,330,118.2251,-23.6206,7.4463,164,0.8264,0.6813,-1.489,-59.23,28,0.9615,7864,4.0029,45.3965
rg,1625569148702301840,1,0.2322,-0.6538,0.2356,331,120.4834,-40.4053,6.5918,164,0.8524,0.7123,-2.8031,-54.8746,28,0.9655,8244,4.0029,46.8809
rg,1625569148702318339,1,0.2249,-0.5554,0.1235,332,71.4111,-29.2358,11.5967,164,0.8654,0.7504,-3.8505,-52.8962,28,0.9705,9791,4.0029,48.1263
rg,1625569148702334765,1,0.2832,-0.6458,0.4407,333,-51.8188,-39.3677,17.7612,164,0.8404,0.7644,-4.8208,-55.1864,28,0.9695,8394,4.0029,49.8406
rg,1625569148702351339,1,0.2998,-0.9971,0.481,334,-120.5444,-71.3501,8.9722,164,0.8004,0.7434,-6.4274,-60.5897,28,0.9655,8199,4.0029,52.5082
rg,1625569148702368376,1,0.2505,-1.1799,0.4067,335,-120.7886,-72.6929,10.8032,164,0.7674,0.6723,-7.5578,-66.2272,28,0.9575,7886,4.0029,55.3859
rg,1625569148702384820,1,0.4326,-1.3433,0.4199,336,-44.3726,-81.0547,48.0347,164,0.7474,0.5893,-7.3908,-68.7224,28,0.9495,8272,4.0029,59.1831
rg,1625569148702401282,1,0.7288,-1.1213,0.6714,337,45.7764,-47.9736,64.9414,152,0.7454,0.5543,-6.5512,-66.882,28,0.9485,9064,4.0073,61.894
rg,1625569148702466374,1,0.717,-1.0293,0.3118,338,113.1592,-45.166,62.8052,152,0.7424,0.5243,-6.0768,-62.8546,28,0.9435,8174,4.0073,64.5884
rg,1625569148702485540,1,0.7192,-0.8909,0.2527,339,111.8164,-41.3818,36.1328,152,0.7424,0.5062,-6.6996,-59.1627,28,0.9395,8559,4.0073,66.7656
rg,1625569148702503448,1,0.2671,-0.4895,0.0825,340,128.9673,17.0288,-45.4102,152,0.7434,0.4962,-8.6992,-54.5211,28,0.9355,8235,4.0073,65.2397
rg,1625569148702519762,1,-0.0342,-0.0984,0.1179,341,128.0518,72.4487,-48.8281,152,0.7454,0.5022,-7.6153,-48.3426,28,0.9335,8260,4.0073,61.6838
rg,1625569148702536910,1,-0.0886,-0.0247,0.1199,342,44.7388,108.8867,7.5684,152,0.7474,0.5183,-2.9155,-45.1777,28,0.9325,8429,4.0073,58.5997
rg,1625569148702554484,1,-0.0742,-0.0942,0.1077,343,-32.4707,99.8535,29.4189,152,0.7484,0.5263,1.8398,-46.3048,28,0.9335,8272,4.0073,56.5374
rg,1625569148702575946,1,0.0308,-0.5286,0.4639,344,-218.9331,37.3535,29.2969,152,0.7524,0.5453,3.5088,-55.1355,28,0.9355,8642,4.0073,56.129
rg,1625569148702592650,1,0.3066,-1.835,1.7595,345,-217.3462,42.1753,14.0381,152,0.7584,0.5673,4.4367,-63.5145,28,0.9385,8862,4.0073,55.0121
rg,1625569148702609150,1,0.1362,-1.9336,0.4177,346,-18.0054,-25.5127,10.1929,152,0.7734,0.6013,4.0345,-64.6961,28,0.9465,8803,4.0073,56.0711
rg,1625569148702627464,1,0.2947,-1.2661,0.739,347,113.3423,-10.0708,-13.1226,152,0.8024,0.6423,2.7831,-59.9599,28,0.9555,9303,4.0073,56.1739
rg,1625569148702644297,1,0.3298,-0.9285,0.5657,348,148.8647,-22.0337,-7.019,152,0.8384,0.6823,1.1374,-54.1615,28,0.9615,8740,4.0073,56.7042
rg,1625569148702661001,1,0.2869,-0.585,0.1768,349,134.8877,-33.2642,-8.4839,152,0.8684,0.7194,-0.9456,-49.4385,28,0.9645,8630,4.0073,57.4846
rg,1625569148702677519,1,0.2405,-0.4941,0.0671,350,73.8525,0.3052,1.4648,152,0.8964,0.7504,-1.8516,-47.5932,28,0.9655,8193,4.0073,57.5144
rg,1625569148702695204,1,0.2095,-0.6685,0.4844,351,-4.3945,23.0103,3.2349,152,0.9134,0.7794,-1.6279,-47.988,28,0.9675,8254,4.0073,56.9258
rg,1625569148702713315,1,0.1003,-0.821,0.5894,352,-35.0952,11.2915,8.1787,152,0.9034,0.7834,-1.2463,-49.6239,28,0.9685,8369,4.0073,56.8087
rg,1625569149050890057,1,0.4443,-1.3323,0.4778,353,-110.9619,-104.0039,21.7285,152,0.7614,0.6753,-3.7172,-54.9711,28,0.9545,24652,4.0073,60.6786
rg,1625569149050931556,1,0.5437,-1.3264,0.4604,354,-27.9541,-50.7202,52.7954,152,0.7394,0.5783,-3.7838,-56.8453,28,0.9465,9255,4.0073,63.5926
rg,1625569149050952704,1,0.6965,-1.1233,0.6294,355,3.8452,-28.5034,69.6411,152,0.7374,0.5413,-2.9373,-56.9081,28,0.9475,7965,4.0073,66.0713
rg,1625569149050976741,1,0.4956,-1.0198,0.3569,356,93.9941,3.54,49.3774,152,0.7354,0.5133,-2.0785,-53.6813,28,0.9425,7988,4.0073,67.0738
rg,1625569149051022092,1,0.4695,-0.8372,0.2495,357,87.5854,-26.3062,-2.3193,152,0.7364,0.4952,-3.7949,-50.8895,28,0.9375,8333,4.0073,67.849
rg,1625569149051042481,1,0.0015,-0.4946,0.083,358,98.8159,-5.7983,-48.645,152,0.7384,0.4862,-5.5529,-47.2753,28,0.9335,8125,4.0073,65.943
rg,1625569149051061332,1,-0.1292,-0.3057,0.1057,359,122.3145,20.2637,-61.6455,152,0.7394,0.4912,-5.7086,-43.013,28,0.9335,8536,4.0073,63.7455
rg,1625569149051080258,1,-0.1758,-0.0891,0.1697,360,84.7778,30.5176,-7.2021,152,0.7404,0.5052,-3.2955,-39.1061,28,0.9335,8235,4.0073,62.7393
rg,1625569149051098591,1,-0.0276,-0.1582,0.1558,361,-33.7524,-24.7192,31.6772,152,0.7434,0.5163,-2.8278,-40.7781,28,0.9355,8308,4.0073,64.3563
rg,1625569149051116276,1,0.063,-0.3296,0.2209,362,-113.5864,-60.1807,30.8838,152,0.7464,0.5313,-5.107,-48.5102,28,0.9385,8492,4.0073,67.5944
rg,1625569149051133942,1,0.623,-1.2273,1.353,363,-205.6274,-65.7959,20.3857,152,0.7524,0.5583,-6.582,-56.7266,28,0.9435,8421,4.0073,70.2054
rg,1625569149051151035,1,0.468,-1.6838,0.5208,364,-18.1885,18.6768,13.7329,152,0.7704,0.6103,-6.055,-58.0131,28,0.9515,14504,4.0073,69.9402
rg,1625569149051169331,1,0.3682,-1.1399,0.7502,365,54.4434,37.7197,-11.9629,152,0.7914,0.6323,-5.9911,-55.6122,28,0.9575,7935,4.0073,68.3907
rg,1625569149051186886,1,0.3228,-0.9282,0.6086,366,84.8999,29.48,-12.6343,152,0.8244,0.6693,-6.1099,-52.1208,28,0.9645,8096,4.0073,67.1229
rg,1625569149051204053,1,0.3137,-0.7317,0.3071,367,87.5244,15.0146,2.4414,152,0.8564,0.6963,-6.2684,-49.1252,28,0.9685,8008,4.0073,66.7575
rg,1625569149051221052,1,0.2258,-0.666,0.2275,368,49.5605,29.7852,1.4648,152,0.8834,0.7244,-5.9099,-47.8604,28,0.9715,8135,4.0073,65.9793
rg,1625569149051238534,1,0.1277,-0.7041,0.4727,369,30.3955,34.3018,-0.7324,152,0.8964,0.7454,-5.2424,-47.6826,28,0.9725,8649,4.0073,65.1953
rg,1625569149051256367,1,0.0256,-0.7324,0.4856,370,-20.813,2.8076,5.3101,152,0.8814,0.7604,-4.8693,-48.8547,28,0.9735,8453,4.0073,65.2824
rg,1625569149051274681,1,0.1968,-0.8672,0.6375,371,-114.3188,-91.0645,31.6162,152,0.8254,0.7684,-6.3539,-53.9506,28,0.9715,8735,4.0073,68.9589
rg,1625569149051292273,1,0.3782,-1.1355,0.5259,372,-140.3809,-142.8833,26.1841,152,0.7734,0.7314,-8.9439,-60.6941,28,0.9635,8485,4.0073,74.4466
rg,1625569149051327440,1,0.5269,-1.3286,0.3748,373,-122.5586,-139.4653,35.3394,152,0.7454,0.6333,-9.6433,-65.5262,28,0.9525,8408,4.0073,79.7929
rg,1625569149051346847,1,0.6311,-1.2388,0.3857,374,-37.2925,-97.7173,70.8618,152,0.7444,0.5703,-9.4354,-67.7744,28,0.9545,8776,4.0073,84.5731
rg,1625569149051365532,1,0.8047,-1.1821,0.3691,375,74.707,-45.5322,77.4536,152,0.7404,0.5493,-8.2232,-65.3909,28,0.9495,8501,4.0073,87.5052
rg,1625569149051383568,1,0.9507,-1.0322,0.2749,376,93.689,-26.7334,51.6968,152,0.7404,0.5303,-8.0942,-62.1916,28,0.9435,10728,4.0073,89.3924
rg,1625569149051400994,1,0.428,-0.6567,0.0828,377,100.647,56.8237,-40.1001,152,0.7404,0.5283,-9.3374,-58.4118,28,0.9395,8963,4.0073,86.6529
rg,1625569149051419198,1,-0.0371,-0.2534,0.0571,378,113.0981,123.8403,-68.0542,152,0.7424,0.5303,-8.1919,-53.7587,28,0.9385,8921,4.0073,81.1101
rg,1625569149051450882,1,-0.2451,-0.1345,0.1067,379,49.9268,169.1895,-15.7471,152,0.7434,0.5463,-2.5764,-51.1755,28,0.9375,9607,4.0073,75.3806
rg,1625569149051468660,1,-0.2893,-0.3088,0.1621,380,-72.0825,113.6475,35.6445,152,0.7444,0.5633,2.8087,-54.3832,28,0.9395,8521,4.0073,72.5933
rg,1625569149051486623,1,-0.269,-0.5381,0.4265,381,-147.7661,54.3823,33.8745,152,0.7494,0.5803,5.1949,-59.7351,28,0.9415,8399,4.0073,71.5237
rg,1625569149051504622,1,0.0596,-1.5703,1.6548,382,-182.1899,-56.4575,20.3247,152,0.7534,0.6063,4.6472,-66.1476,28,0.9455,8544,4.0073,73.9829
rg,1625569149051521863,1,0.2356,-1.7773,0.4207,383,-10.6201,-95.8252,29.6631,152,0.7644,0.6383,3.7441,-66.6784,28,0.9495,8490,4.0073,77.9489
rg,1625569149051540029,1,0.5146,-1.2073,0.6707,384,89.5996,-50.5371,7.5684,152,0.7864,0.6533,2.2335,-62.7741,28,0.9565,8868,4.0073,79.8893
rg,1625569149384949643,1,0.2554,-0.5312,0.22,385,82.5195,-2.6855,0,152,0.8604,0.7214,1.7561,-60.9011,28,0.9715,25516,4.0073,79.5886
rg,1625569149384985013,1,0.1572,-0.6406,0.3831,386,16.7236,15.8691,6.8359,152,0.8714,0.7484,1.7674,-60.1641,28,0.9735,8970,4.0073,79.1661
rg,1625569149385005643,1,0.0339,-0.8232,0.5054,387,-44.1895,-25.8179,17.334,152,0.8534,0.7634,1.7264,-61.8096,28,0.9735,7939,4.0073,80.4098
rg,1625569149385025327,1,0.2976,-0.9802,0.6431,388,-114.3188,-117.6758,20.0195,152,0.8064,0.7724,-0.2247,-66.1045,28,0.9715,8233,4.0073,85.0164
rg,1625569149385044494,1,0.3965,-1.0686,0.6509,389,-120.3003,-140.8691,12.3901,152,0.7704,0.7304,-2.5428,-71.0539,28,0.9645,7845,4.0073,90.4696
rg,1625569149385063327,1,0.5537,-1.3052,0.4727,390,-84.2896,-123.5352,32.5317,152,0.7424,0.6573,-3.4857,-74.6399,28,0.9525,7895,4.0073,95.596
rg,1625569149385081901,1,0.8169,-1.187,0.5271,391,-16.4795,-76.4771,64.5752,152,0.7404,0.5933,-2.8724,-75.2001,28,0.9505,8637,4.0073,99.2039
rg,1625569149385100086,1,0.7739,-1.1326,0.3337,392,44.0063,-27.4658,56.8237,152,0.7364,0.5683,-1.9053,-71.7947,28,0.9475,8000,4.0073,99.8173
rg,1625569149385118845,1,0.8472,-1.0256,0.3518,393,84.3506,-2.3804,52.8564,152,0.7374,0.5443,-1.2916,-68.4125,28,0.9415,8555,4.0073,100.5749
rg,1625569149385137048,1,0.1655,-0.5732,0.0813,394,97.9004,75.5615,-63.7207,152,0.7384,0.5313,-3.0157,-64.8573,28,0.9355,12360,4.0073,96.7854
rg,1625569149385155048,1,-0.2134,-0.2358,0.1086,395,108.7036,119.6289,-65.7959,152,0.7394,0.5353,-1.6343,-60.3015,28,0.9345,10531,4.0073,91.396
rg,1625569149385172862,1,-0.3406,-0.1384,0.1404,396,94.4214,132.3242,-36.8042,152,0.7404,0.5403,2.7507,-57.6476,28,0.9335,7918,4.0073,87.5704
rg,1625569149385190992,1,-0.313,-0.167,0.1604,397,7.0801,67.4438,25.1465,152,0.7434,0.5553,5.0533,-59.9503,28,0.9345,9437,4.0073,88.1036
rg,1625569149385208492,1,-0.1831,-0.4875,0.4077,398,-132.0801,-70.4346,23.9258,152,0.7464,0.5703,5.0362,-64.5755,28,0.9375,8087,4.0073,91.0701
rg,1625569149385225973,1,0.4585,-1.4551,1.5298,399,-167.8467,-141.4795,21.9116,152,0.7524,0.5973,3.0291,-70.0733,28,0.9405,8114,4.0073,96.7365
rg,1625569149385243306,1,0.4739,-1.7529,0.9258,400,-88.0737,-105.2246,25.7568,152,0.7624,0.6173,2.6186,-70.3149,28,0.9465,8100,4.0073,100.0755
rg,1625569149385260843,1,0.6167,-1.5842,0.5361,401,51.6968,-59.3872,26.9775,152,0.7844,0.6483,1.9103,-68.1707,28,0.9555,8306,4.0073,102.6593
rg,1625569149385279009,1,0.4629,-0.9026,0.53,402,129.8828,-13.6719,-20.0195,152,0.8144,0.6763,-0.0258,-62.6607,28,0.9625,8246,4.0073,102.7863
rg,1625569149385297046,1,0.238,-0.4702,0.2368,403,116.0278,16.5405,-5.3711,152,0.8384,0.7013,-0.821,-58.0341,28,0.9675,8543,4.0073,102.0645
rg,1625569149385314397,1,0.1812,-0.417,0.22,404,72.876,34.1797,4.0894,152,0.8504,0.7254,-0.5999,-54.9476,28,0.9705,8484,4.0073,100.9904
rg,1625569149385332027,1,0.2048,-0.5774,0.5415,405,-50.5981,2.5635,17.1509,152,0.8404,0.7394,-0.5215,-56.6483,28,0.9715,8249,4.0073,101.2927
rg,1625569149385349286,1,0.3191,-0.9578,0.646,406,-155.0903,-75.7446,18.1274,152,0.7994,0.7474,-1.9907,-62.8646,28,0.9715,8384,4.0073,104.3032
rg,1625569149385369341,1,0.4531,-1.3425,0.592,407,-162.4756,-109.0088,9.8267,152,0.7614,0.6883,-3.9572,-69.6815,28,0.9645,8551,4.0073,108.4912
rg,1625569149385387248,1,0.481,-1.3826,0.532,408,-117.5537,-96.5576,18.7988,152,0.7414,0.6143,-5.0477,-74.7925,28,0.9505,8666,4.0073,112.4418
rg,1625569149385404378,1,0.6375,-1.1284,0.4084,409,-3.418,-72.998,57.1289,152,0.7394,0.5773,-4.4801,-75.0361,28,0.9465,8522,4.0073,115.8452
rg,1625569149385422155,1,0.7837,-1.0354,0.3826,410,71.7773,-40.7104,51.8799,152,0.7364,0.5513,-4.1137,-72.1427,28,0.9375,8479,4.0073,117.9456
rg,1625569149385439933,1,0.7314,-0.9397,0.2358,411,64.7583,1.5259,18.7988,152,0.7364,0.5483,-4.6192,-69.6755,28,0.9325,8320,4.0073,118.109
rg,1625569149385456821,1,0.2454,-0.6636,0.0027,412,90.1489,45.8984,-41.2598,152,0.7374,0.5383,-6.0955,-66.5791,28,0.9295,8531,4.0073,115.8237
rg,1625569149385474173,1,0.0684,-0.4504,0.0049,413,105.1636,55.0537,-50.0488,152,0.7394,0.5423,-6.4037,-62.458,28,0.9275,8284,4.0073,113.0256
rg,1625569149385491062,1,-0.074,-0.1724,0.1365,414,73.7915,73.6084,-17.5171,152,0.7404,0.5503,-4.6249,-58.8143,28,0.9275,9140,4.0073,110.0887
rg,1625569149385508987,1,-0.0125,-0.2673,0.2268,415,-42.7246,62.6221,31.8604,152,0.7434,0.5673,-2.0053,-60.0586,28,0.9285,8430,4.0073,108.5385
rg,1625569149385525931,1,0.3511,-0.9624,0.9792,416,-165.9546,33.2642,40.6494,152,0.7474,0.5893,-0.452,-66.0676,28,0.9305,9178,4.0073,108.0862
rg,1625569149737313652,1,0.2705,-1.5703,0.7139,417,31.9824,6.8359,-0.9155,152,0.7904,0.6613,-0.8875,-62.6801,28,0.9515,24948,4.0073,107.3134
rg,1625569149737351614,1,0.2244,-0.988,0.561,418,108.3984,10.5591,-4.0894,152,0.8234,0.6913,-1.2278,-58.243,28,0.9575,8735,4.0073,106.8468
rg,1625569149737372336,1,0.1675,-0.6516,0.2539,419,117.3096,-6.4087,2.6245,152,0.8504,0.7133,-1.7642,-53.9576,28,0.9625,8218,4.0073,107.107
rg,1625569149737391984,1,0.1025,-0.5127,0.167,420,68.4814,2.6855,12.3291,152,0.8714,0.7364,-1.6657,-51.9096,28,0.9635,7968,4.0073,107.331
rg,1625569149737410187,1,0.094,-0.4934,0.259,421,29.9683,-8.2397,16.6626,152,0.8744,0.7534,-1.6616,-51.1257,28,0.9665,7963,4.0073,108.0117
rg,1625569149737428483,1,0.1189,-0.6221,0.4893,422,-69.397,-61.8286,27.771,152,0.8414,0.7634,-2.5446,-54.0076,28,0.9655,8297,4.0073,110.6594
rg,1625569149737446705,1,0.4363,-0.9709,0.6914,423,-165.5884,-149.1699,34.729,152,0.7904,0.7664,-5.2327,-61.0221,28,0.9615,8098,4.0073,116.4821
rg,1625569149737464353,1,0.6582,-1.4827,0.2986,424,-85.3271,-133.728,50.415,152,0.7394,0.6633,-6.5286,-65.6336,28,0.9465,15686,4.0073,122.2747
rg,1625569149737482649,1,0.7603,-1.4312,0.2512,425,-37.2925,-100.769,65.0024,152,0.7364,0.6093,-6.5278,-68.1579,28,0.9475,7867,4.0073,127.0995
rg,1625569149737500334,1,0.926,-1.2251,0.4846,426,73.0591,-2.3804,63.9038,152,0.7334,0.5813,-5.3058,-65.3473,28,0.9435,7978,4.0073,128.1634
rg,1625569149737517556,1,0.7451,-0.9753,0.2893,427,89.9658,40.2832,46.6309,152,0.7334,0.5593,-4.0965,-61.9498,28,0.9385,8246,4.0073,127.523
rg,1625569149737557259,1,0.2874,-0.7075,0.1292,428,96.2524,78.4912,-27.771,152,0.7344,0.5433,-4.2096,-58.4984,28,0.9335,9449,4.0073,124.2601
rg,1625569149737577278,1,0.0454,-0.4766,0.0928,429,102.9053,97.7783,-51.2695,152,0.7344,0.5343,-2.5847,-54.6945,28,0.9305,8669,4.0073,119.9467
rg,1625569149737595148,1,-0.2856,-0.2004,0.1152,430,114.9902,123.4131,-36.499,152,0.7374,0.5403,1.07,-50.1727,28,0.9305,8225,4.0073,115.2304
rg,1625569149737612629,1,-0.2896,-0.1348,0.1365,431,43.7622,79.4678,26.7334,152,0.7404,0.5523,5.805,-48.3977,28,0.9315,8699,4.0073,113.5462
rg,1625569149737630721,1,-0.2002,-0.3752,0.2285,432,-101.8677,-26.5503,32.1655,152,0.7434,0.5703,6.8521,-52.6421,28,0.9325,8579,4.0073,115.1298
rg,1625569149737648036,1,-0.0481,-0.6606,0.6201,433,-178.0396,-87.7686,27.4048,152,0.7474,0.5893,5.6569,-59.1134,28,0.9375,8231,4.0073,118.705
rg,1625569149737665202,1,0.4165,-1.7178,1.3083,434,-155.9448,-86.1816,20.0806,152,0.7564,0.6133,4.1137,-64.776,28,0.9425,8646,4.0073,122.1907
rg,1625569149737682591,1,0.3789,-1.7317,0.364,435,15.3809,-60.2417,24.231,152,0.7674,0.6433,3.335,-64.4943,28,0.9485,8401,4.0073,124.749
rg,1625569149737700017,1,0.4216,-1.0642,0.6543,436,92.2241,-26.6113,-14.8315,152,0.7884,0.6653,1.4747,-60.5443,28,0.9555,8490,4.0073,125.4048
rg,1625569149737717998,1,0.3367,-0.801,0.5452,437,116.0278,-25.2075,-20.752,152,0.8214,0.6923,-0.4448,-55.5823,28,0.9615,8835,4.0073,125.9846
rg,1625569149737735127,1,0.2573,-0.561,0.1978,438,107.9102,-19.6533,-1.5259,152,0.8484,0.7153,-1.8397,-51.8158,28,0.9665,8826,4.0073,126.5556
rg,1625569149737752183,1,0.2419,-0.5488,0.177,439,41.0156,13.7939,11.5967,152,0.8694,0.7354,-1.9494,-50.8905,28,0.9695,8506,4.0073,126.4268
rg,1625569149737769330,1,0.231,-0.7051,0.4495,440,-18.4326,14.0991,13.916,152,0.8754,0.7564,-1.6949,-51.8635,28,0.9725,8940,4.0073,126.3429
rg,1625569149737786571,1,0.2834,-0.8486,0.522,441,-46.2036,-4.2725,22.1558,152,0.8434,0.7674,-2.198,-55.8296,28,0.9725,8199,4.0073,128.4217
rg,1625569149737803645,1,0.4648,-0.9697,0.6951,442,-130.7983,-79.7119,30.7617,152,0.7764,0.7654,-3.5429,-61.1527,28,0.9665,8394,4.0073,131.8145
rg,1625569149737836626,1,0.5332,-1.2666,0.3552,443,-87.9517,-80.8105,30.9448,152,0.7464,0.7023,-4.6022,-65.381,28,0.9555,11848,4.0073,135.3186
rg,1625569149737855496,1,0.5969,-1.2642,0.3047,444,-72.0215,-56.7017,46.4478,152,0.7384,0.6303,-4.5462,-68.8701,28,0.9555,8501,4.0073,138.1879
rg,1625569149737872736,1,0.718,-1.2146,0.5933,445,15.8081,21.6675,51.8799,152,0.7354,0.5903,-3.2081,-68.0501,28,0.9515,8286,4.0073,138.1123
rg,1625569149737889995,1,0.7278,-1.175,0.488,446,46.936,42.0532,63.2935,152,0.7344,0.5643,-1.2486,-66.119,28,0.9455,8520,4.0073,137.5168
rg,1625569149737908162,1,0.3237,-1.063,0.3066,447,60.4248,60.4858,28.1372,152,0.7354,0.5493,-1.0858,-63.3011,28,0.9405,8339,4.0073,135.0088
rg,1625569149737925939,1,-0.1526,-0.5957,0.1479,448,97.1069,60.6689,-38.7573,152,0.7354,0.5413,-1.3875,-58.5452,28,0.9375,8967,4.0073,132.1219
rg,1625569150251792589,1,-0.1445,-0.1387,0.1343,449,60.1807,-56.9458,22.7661,176,0.7404,0.5623,-0.4474,-55.7746,28,0.9395,25697,3.9919,134.5583
rg,1625569150251833551,1,0.1082,-0.4001,0.2405,450,-95.2759,-141.8457,39.0625,176,0.7434,0.5843,-2.6191,-59.8416,28,0.9425,8991,3.9919,140.2074
rg,1625569150251854551,1,0.7891,-1.2805,1.1855,451,-156.8604,-123.3521,29.6021,176,0.7484,0.6023,-4.6334,-65.9526,28,0.9465,7748,3.9919,145.1637
rg,1625569150251874902,1,0.7764,-1.6238,0.9648,452,-102.0508,-48.7671,31.9214,176,0.7574,0.6273,-4.7321,-70.5175,28,0.9505,8638,3.9919,147.4987
rg,1625569150251894310,1,0.5305,-1.4768,0.3723,453,19.2261,13.7939,18.7988,176,0.7704,0.6463,-4.4089,-69.9144,28,0.9555,7777,3.9919,147.241
rg,1625569150251913161,1,0.3867,-0.9019,0.6694,454,68.6035,32.1655,-22.2778,176,0.7984,0.6673,-5.3373,-66.4157,28,0.9635,8348,3.9919,145.6435
rg,1625569150251932179,1,0.1868,-0.6267,0.219,455,68.3594,47.3633,13.916,176,0.8534,0.7163,-4.4519,-63.7095,28,0.9715,17267,3.9919,144.1545
rg,1625569150251950864,1,0.1626,-0.7122,0.3696,456,18.0054,49.6216,17.5781,176,0.8724,0.7384,-3.2167,-62.8344,28,0.9725,7734,3.9919,142.6828
rg,1625569150251968975,1,0.1157,-0.7881,0.4756,457,-0.061,45.6543,17.7612,176,0.8814,0.7524,-1.7634,-62.6843,28,0.9755,7862,3.9919,141.3734
rg,1625569150252003956,1,0.0466,-0.8694,0.4612,458,-24.1699,-4.8218,23.3154,176,0.8764,0.7654,-1.0564,-63.6257,28,0.9755,7801,3.9919,141.9635
rg,1625569150252023789,1,0.3232,-0.9165,0.6365,459,-87.5244,-79.1626,39.1846,176,0.8284,0.7704,-1.5401,-66.8684,28,0.9735,7778,3.9919,145.5023
rg,1625569150252042585,1,0.4858,-0.9675,0.6616,460,-117.3096,-109.9854,35.8887,176,0.7774,0.7504,-3.0284,-71.6132,28,0.9675,8771,3.9919,150.3193
rg,1625569150252060567,1,0.502,-1.093,0.4478,461,-91.7358,-105.7129,32.5317,176,0.7464,0.6993,-3.7432,-75.3855,28,0.9545,8137,3.9919,154.7614
rg,1625569150252078789,1,0.7007,-1.1631,0.2966,462,-63.9648,-50.5981,63.1714,176,0.7354,0.6233,-2.7614,-78.0857,28,0.9485,8341,3.9919,157.328
rg,1625569150252097011,1,0.8035,-1.2561,0.6533,463,-36.7432,-2.3193,62.0117,176,0.7324,0.6093,-0.9019,-77.0909,28,0.9445,8092,3.9919,155.2633
rg,1625569150252117658,1,0.6226,-1.3152,0.469,464,29.7852,108.0322,50.9033,176,0.7304,0.5773,1.1802,-75.6526,28,0.9355,10367,3.9919,151.5176
rg,1625569150252141695,1,0.3804,-1.313,0.4094,465,54.0771,115.3564,7.3853,176,0.7304,0.5643,2.0221,-73.4862,28,0.9295,8566,3.9919,147.1329
rg,1625569150252159528,1,-0.2373,-0.8765,0.2881,466,129.0283,87.5854,-60.9741,176,0.7304,0.5563,1.3402,-68.3751,28,0.9245,8468,3.9919,143.0592
rg,1625569150252177676,1,-0.5002,-0.3276,0.1685,467,182.1899,19.5923,-65.0024,176,0.7334,0.5573,1.1181,-61.0073,28,0.9215,8357,3.9919,141.3735
rg,1625569150252196583,1,-0.3684,-0.0181,0.1528,468,178.3447,-20.4468,-36.377,176,0.7344,0.5633,1.7706,-54.4318,28,0.9194,8250,3.9919,143.7374
rg,1625569150252217083,1,-0.2346,-0.0168,0.1089,469,87.5854,-116.333,29.8462,176,0.7354,0.5733,1.916,-50.0968,28,0.9204,8360,3.9919,148.2548
rg,1625569150252263916,1,0.0415,-0.2241,0.0386,470,-88.501,-207.0312,57.251,176,0.7384,0.5943,-1.7582,-54.7374,28,0.9215,9558,3.9919,156.1797
rg,1625569150252284323,1,0.7852,-0.8481,0.8894,471,-242.9199,-256.5918,54.1992,176,0.7424,0.6113,-6.1672,-64.7525,28,0.9245,8285,3.9919,166.1916
rg,1625569150252306156,1,1.1233,-1.8657,0.9077,472,-122.5586,-52.124,51.5137,176,0.7484,0.6253,-5.9226,-69.8735,28,0.9305,8322,3.9919,168.9521
rg,1625569150252326211,1,0.8113,-1.7527,0.1213,473,-31.8604,9.2163,54.5654,176,0.7604,0.6493,-4.4867,-71.7458,28,0.9375,8346,3.9919,169.3842
rg,1625569150252344359,1,0.7927,-1.1711,0.5215,474,55.6641,25.0244,-20.2637,176,0.7864,0.6673,-5.949,-68.8537,28,0.9465,10060,3.9919,168.092
rg,1625569150252364007,1,0.4519,-0.6514,0.3887,475,92.5903,110.6567,-8.1787,176,0.8144,0.6853,-5.4655,-64.3896,28,0.9555,9236,3.9919,163.802
rg,1625569150252383118,1,0.2822,-0.5698,0.116,476,55.1758,131.0425,24.5972,176,0.8374,0.7103,-3.0585,-62.3554,28,0.9605,8429,3.9919,159.5689
rg,1625569150252404469,1,0.2532,-0.7646,0.4409,477,-15.1367,133.4839,26.6724,176,0.8474,0.7304,-0.1838,-62.7376,28,0.9605,8403,3.9919,155.3088
rg,1625569150252422599,1,0.0645,-1.0229,0.5823,478,-37.6587,125.4272,31.4331,176,0.8384,0.7434,2.8058,-64.8193,28,0.9635,9031,3.9919,152.3844
rg,1625569150252444210,1,0.0168,-1.0947,0.6074,479,-68.9697,54.5654,44.3115,176,0.8004,0.7544,5.1542,-67.4962,28,0.9645,8398,3.9919,151.1054
rg,1625569150252465487,1,0.1687,-1.1782,0.6108,480,-81.1157,-36.9263,43.396,176,0.7594,0.7374,5.7578,-70.3358,28,0.9555,8899,3.9919,153.1422
rg,1625569150427030227,1,0.4187,-1.1277,0.626,481,10.437,-27.5269,50.9644,176,0.7334,0.6123,6.5013,-68.1952,28,0.9285,24452,3.9919,153.6311
rg,1625569150427081504,1,0.3491,-1.1221,0.4534,482,52.9175,4.1504,39.4897,176,0.7324,0.5913,7.1441,-66.0074,28,0.9215,8465,3.9919,154.0741
rg,1625569150427103985,1,0.1589,-0.9841,0.321,483,78.4912,-33.9966,-12.085,176,0.7324,0.5723,5.5091,-62.9816,28,0.9164,7878,3.9919,155.0562
rg,1625569150427124281,1,-0.0828,-0.4846,0.1099,484,135.8032,-66.2231,-59.5703,176,0.7334,0.5623,2.3131,-58.023,28,0.9134,8191,3.9919,156.1551
rg,1625569150427144244,1,-0.1641,-0.2461,0.1101,485,150.0244,-68.0542,-62.6221,176,0.7364,0.5593,-0.1806,-52.277,28,0.9134,8289,3.9919,157.0148
rg,1625569150427163966,1,-0.1721,-0.062,0.126,486,105.2246,-59.8755,-12.8784,176,0.7404,0.5703,-0.3458,-47.449,28,0.9134,7746,3.9919,158.5947
rg,1625569150427181577,1,0.0271,-0.1768,0.0825,487,-38.147,-107.3608,47.4854,176,0.7444,0.5943,-2.044,-49.7311,28,0.9154,7784,3.9919,163.0822
rg,1625569150427200669,1,0.166,-0.3438,0.136,488,-126.4038,-148.0713,57.373,176,0.7504,0.6103,-4.6316,-55.7902,28,0.9194,7752,3.9919,169.253
rg,1625569150427218706,1,1.1475,-1.387,1.481,489,-194.8242,-128.9062,44.6777,176,0.7564,0.6253,-6.6239,-63.6486,28,0.9255,8846,3.9919,-185.3525
rg,1625569150427236594,1,0.825,-1.8191,0.3633,490,-47.9736,25.9399,42.0532,176,0.7744,0.6543,-5.3498,-66.0657,28,0.9345,8130,3.9919,-185.51
rg,1625569150427255428,1,0.7896,-1.6707,0.3745,491,10.5591,46.9971,14.8315,176,0.7994,0.6733,-4.7793,-65.4609,28,0.9415,7878,3.9919,-187.0015
rg,1625569150427274020,1,0.4727,-1.0261,0.5549,492,99.1821,123.3521,-19.9585,176,0.8254,0.6933,-3.9614,-60.9786,28,0.9485,8203,3.9919,168.1798
rg,1625569150427326538,1,0.1101,-0.554,0.178,493,111.3281,153.6865,-0.1831,176,0.8464,0.7184,-1.0862,-56.725,28,0.9505,7908,3.9919,162.9275
rg,1625569150427348926,1,-0.0176,-0.4834,0.1907,494,79.5288,156.5552,4.9438,176,0.8624,0.7344,3.1217,-53.5561,28,0.9525,7959,3.9919,157.9132
rg,1625569150427369333,1,-0.2544,-0.6155,0.5493,495,-14.3433,95.52,14.5874,176,0.8564,0.7494,6.3787,-54.1423,28,0.9545,7871,3.9919,155.1673
rg,1625569150427400148,1,-0.1504,-0.8694,0.54,496,-133.3618,-79.4067,35.4614,176,0.8144,0.7584,5.9089,-59.2387,28,0.9545,8038,3.9919,158.5977
rg,1625569150427419611,1,0.0754,-1.022,0.574,497,-163.7573,-152.4048,31.25,176,0.7744,0.7414,3.8277,-65.3117,28,0.9495,7909,3.9919,164.6006
rg,1625569150427438721,1,0.4734,-1.3936,0.5547,498,-107.5439,-180.481,31.6162,176,0.7444,0.7073,1.4163,-69.3761,28,0.9415,8115,3.9919,-188.2336
rg,1625569150427456647,1,0.7539,-1.4153,0.4382,499,-28.0151,-119.2627,77.2095,176,0.7344,0.6523,1.6117,-70.4508,28,0.9385,8005,3.9919,-182.6951
rg,1625569150427474332,1,0.9338,-1.302,0.571,500,31.311,-79.834,78.4912,176,0.7304,0.6233,2.1544,-68.9171,28,0.9385,8168,3.9919,-178.6334
rg,1625569150427494017,1,0.8303,-1.0872,0.3662,501,104.4312,-18.4326,60.3638,176,0.7304,0.5933,2.6823,-64.7486,28,0.9355,8050,3.9919,-177.0696
rg,1625569150427512739,1,0.5054,-0.8259,0.2292,502,104.248,20.813,1.0986,176,0.7294,0.5763,1.8576,-60.9368,28,0.9305,8361,3.9919,-177.8521
rg,1625569150427532053,1,-0.1758,-0.3682,0.0437,503,112.7319,69.458,-54.8096,176,0.7314,0.5583,2.3021,-57.3312,28,0.9295,15213,3.9919,-181.3532
rg,1625569150427550461,1,-0.2778,-0.2705,0.0791,504,101.1963,67.9932,-32.7759,176,0.7334,0.5633,4.2731,-53.9084,28,0.9295,8159,3.9919,-184.3095
rg,1625569150427568590,1,-0.2378,-0.1841,0.1487,505,37.2314,10.3149,32.4097,176,0.7364,0.5793,7.0374,-52.2866,28,0.9305,8150,3.9919,-183.8306
rg,1625569150427586553,1,0.0115,-0.3682,0.2986,506,-87.4634,-100.9521,50.8423,176,0.7394,0.6003,5.9708,-55.2018,28,0.9325,8140,3.9919,-179.3292
rg,1625569150427605738,1,0.2947,-0.6472,0.6614,507,-142.4561,-137.5122,46.4478,176,0.7434,0.6123,3.5416,-60.0567,28,0.9345,8234,3.9919,-173.5968
rg,1625569150427625163,1,0.7263,-1.4448,1.0015,508,-125.1831,-76.2939,35.3394,176,0.7474,0.6293,2.3959,-64.6855,28,0.9385,9280,3.9919,-170.1874
rg,1625569150427644070,1,0.5083,-1.439,0.3606,509,-23.8037,10.6812,25.1465,176,0.7574,0.6483,2.661,-66.0421,28,0.9435,8741,3.9919,-170.1697
rg,1625569150427661904,1,0.3406,-0.9878,0.6343,510,5.8594,51.3306,-19.8975,176,0.7734,0.6613,2.0373,-65.5528,28,0.9485,10291,3.9919,-172.3598
rg,1625569150427680051,1,0.1963,-0.8066,0.5254,511,19.2261,55.4199,-10.8643,176,0.7974,0.6783,2.0388,-64.5152,28,0.9555,8567,3.9919,-174.5496
rg,1625569150427699736,1,0.2173,-0.8823,0.3645,512,15.5029,24.1089,3.0518,176,0.8234,0.6993,1.9809,-64.029,28,0.9615,8531,3.9919,-175.3755
rg,1625569150773460373,1,0.2275,-0.9272,0.4236,513,14.9536,32.2876,12.2681,176,0.8624,0.7404,2.4139,-63.5097,28,0.9665,23899,3.9919,-176.3266
rg,1625569150773499483,1,0.1768,-0.8809,0.4788,514,-24.7192,-3.1128,26.9165,176,0.8434,0.7534,2.8366,-64.3768,28,0.9675,9013,3.9919,-175.7379
rg,1625569150773520613,1,0.3616,-0.9321,0.5967,515,-59.4482,-33.8745,33.9966,176,0.8014,0.7604,2.3296,-67.2052,28,0.9655,7821,3.9919,-173.2465
rg,1625569150773541149,1,0.3594,-0.988,0.5532,516,-85.022,-53.2227,25.5127,176,0.7614,0.7544,1.7417,-70.2594,28,0.9585,8056,3.9919,-170.8639
rg,1625569150773560408,1,0.541,-1.2029,0.554,517,-67.0166,-34.1797,50.2319,176,0.7394,0.6773,2.2904,-72.6713,29,0.9525,13516,3.9919,-168.9106
rg,1625569150773579297,1,0.5745,-1.2942,0.7341,518,-14.4653,0,44.6777,176,0.7334,0.6513,3.1887,-73.0038,29,0.9505,7825,3.9919,-168.3796
rg,1625569150773597852,1,0.499,-1.283,0.4958,519,56.4575,4.5166,69.6411,176,0.7324,0.6073,4.9907,-70.5311,29,0.9475,8856,3.9919,-167.6997
rg,1625569150773616278,1,0.2432,-1.0928,0.2849,520,115.3564,-24.1699,7.3242,176,0.7334,0.5843,4.2402,-66.0206,29,0.9445,7734,3.9919,-166.7343
rg,1625569150773634167,1,-0.0178,-0.5806,0.1389,521,135.376,-49.1333,-22.2778,176,0.7344,0.5703,1.4566,-60.2214,28,0.9425,7947,3.9919,-165.4008
rg,1625569150773652685,1,-0.1665,-0.3452,0.0913,522,176.3306,-59.5703,-54.9927,176,0.7354,0.5623,-0.763,-53.7036,28,0.9395,8644,3.9919,-164.5539
rg,1625569150773694629,1,-0.1951,-0.1079,0.0566,523,174.6826,-72.2656,-1.5869,176,0.7374,0.5663,-0.7068,-46.9432,28,0.9405,8154,3.9919,-162.2461
rg,1625569150773715332,1,0.0256,-0.1008,-0.0474,524,75.3784,-115.7837,56.8237,176,0.7404,0.5823,-2.7243,-46.1357,28,0.9425,8566,3.9919,-157.2983
rg,1625569150773732813,1,0.1572,-0.1531,-0.0115,525,-14.6484,-140.564,65.979,176,0.7424,0.6003,-6.5711,-51.9703,28,0.9435,8461,3.9919,-150.8609
rg,1625569150773751221,1,0.6895,-0.52,0.5964,526,-205.9326,-152.0996,52.6733,176,0.7474,0.6163,-9.448,-60.7381,28,0.9465,8224,3.9919,-144.528
rg,1625569150773768591,1,1.1597,-1.5876,1.2239,527,-181.0913,52.063,40.7104,176,0.7534,0.6323,-7.8893,-67.4809,28,0.9495,8255,3.9919,-145.7127
rg,1625569150773788350,1,0.5149,-1.5752,0.2065,528,-49.7437,152.832,23.9258,176,0.7654,0.6613,-5.1855,-69.4061,28,0.9535,8432,3.9919,-151.0035
rg,1625569150773806924,1,0.4006,-1.3767,0.5232,529,-11.4746,142.6392,-14.6484,176,0.7834,0.6783,-3.9806,-68.8238,28,0.9605,8248,3.9919,-156.6172
rg,1625569150773825608,1,0.1306,-0.97,0.8176,530,39.1846,168.7622,-17.9443,176,0.8114,0.6983,-2.1688,-66.16,28,0.9665,8537,3.9919,-163.1889
rg,1625569150773843830,1,-0.0918,-0.7937,0.3259,531,65.5518,109.2529,9.4604,176,0.8354,0.7224,0.3386,-63.5263,28,0.9715,8316,3.9919,-166.9773
rg,1625569150773862164,1,-0.1074,-0.77,0.3516,532,36.9263,39.6729,9.4604,176,0.8584,0.7494,1.6648,-62.1359,28,0.9745,8593,3.9919,-168.2157
rg,1625569150773881200,1,-0.0288,-0.8718,0.5083,533,-1.3428,-32.2876,9.0942,176,0.8564,0.7644,1.3852,-62.0466,28,0.9755,9704,3.9919,-166.8997
rg,1625569150773941181,1,0.1907,-0.9839,0.5698,534,-81.1157,-103.7598,32.8979,176,0.8144,0.7744,0.3033,-65.1249,28,0.9755,8304,3.9919,-162.5859
rg,1625569150773971051,1,0.3508,-1.0652,0.6167,535,-104.3701,-135.0098,30.3345,176,0.7754,0.7454,-1.3666,-69.1899,28,0.9685,8124,3.9919,-157.1188
rg,1625569150773993125,1,0.407,-1.2432,0.5237,536,-67.5659,-118.7134,16.9067,176,0.7474,0.6853,-2.893,-71.9728,28,0.9575,8246,3.9919,-152.403
rg,1625569150774014995,1,0.5454,-1.2158,0.4846,537,-10.6812,-90.8203,55.9082,176,0.7384,0.6193,-2.6308,-72.4504,28,0.9545,8477,3.9919,-148.2678
rg,1625569150774033735,1,0.6501,-1.165,0.4373,538,70.9839,-54.6265,57.1899,176,0.7324,0.6083,-2.1321,-69.611,28,0.9485,8995,3.9919,-145.4941
rg,1625569150774052772,1,0.5964,-0.9395,0.2144,539,89.8438,-57.8003,57.1899,176,0.7314,0.5863,-2.8279,-65.9216,28,0.9435,8862,3.9919,-143.117
rg,1625569150774071846,1,0.4617,-0.7852,0.1592,540,108.7646,-42.5415,-2.9297,176,0.7324,0.5693,-4.7086,-62.0938,28,0.9395,8776,3.9919,-141.6514
rg,1625569150774117864,1,0.1003,-0.3264,0.1431,541,110.2905,-13.7939,-52.9175,176,0.7324,0.5543,-7.2427,-57.778,28,0.9365,8813,3.9919,-142.2362
rg,1625569150774138382,1,-0.1091,-0.1357,0.1365,542,76.2939,23.6206,-24.9023,176,0.7354,0.5593,-6.1863,-54.1241,28,0.9365,8686,3.9919,-143.5947
rg,1625569150774159382,1,-0.0623,-0.2415,0.1262,543,-38.6353,14.1602,35.7056,176,0.7384,0.5773,-3.9548,-56.0054,28,0.9365,8771,3.9919,-143.2209
rg,1625569150774179159,1,0.3318,-0.7639,0.7083,544,-169.4946,-48.584,47.4854,176,0.7414,0.5993,-3.8484,-62.6029,28,0.9395,8796,3.9919,-140.5748
rg,1625569152597518413,1,0.4399,-1.5994,0.4453,545,5.8594,6.7139,13.6719,176,0.7654,0.6553,-3.7217,-62.4601,28,0.9495,25937,3.9919,-140.5585
rg,1625569152597549709,1,0.3757,-1.0454,0.6755,546,66.8335,33.2642,-11.3525,176,0.7904,0.6753,-3.9907,-59.4814,28,0.9565,8988,3.9919,-141.9747
rg,1625569152597570579,1,0.1892,-0.7263,0.3352,547,90.1489,43.2129,-3.3569,176,0.8334,0.7033,-3.5563,-55.9897,28,0.9665,8715,3.9919,-143.5107
rg,1625569152597590301,1,0.0806,-0.6265,0.1677,548,39.2456,53.833,20.5078,176,0.8534,0.7384,-1.8183,-55.0848,28,0.9685,14442,3.9919,-144.7848
rg,1625569152597608708,1,0.0625,-0.6836,0.3752,549,13.0615,57.9224,23.0103,176,0.8624,0.7544,0.2574,-54.5238,28,0.9715,7772,3.9919,-146.1539
rg,1625569152597626653,1,0.0081,-0.8726,0.5574,550,-33.7524,6.897,29.6631,176,0.8534,0.7504,1.3589,-55.9676,28,0.9715,7790,3.9919,-145.7075
rg,1625569152597644393,1,0.3308,-1.021,0.6584,551,-109.6191,-93.5669,36.2549,176,0.8134,0.7594,-0.0171,-60.3297,28,0.9695,7722,3.9919,-141.7434
rg,1625569152597661967,1,0.4648,-1.1274,0.6877,552,-122.8638,-113.5864,27.5879,176,0.7754,0.7384,-1.8478,-65.2319,28,0.9615,7901,3.9919,-137.1714
rg,1625569152597679485,1,0.4719,-1.3096,0.4441,553,-73.2422,-84.4727,28.5034,176,0.7494,0.6733,-2.7776,-68.5145,28,0.9515,9094,3.9919,-133.5911
rg,1625569152597697244,1,0.6526,-1.1184,0.2773,554,8.4229,-61.9507,60.6079,176,0.7394,0.6283,-2.4445,-68.5721,28,0.9515,10176,3.9919,-130.3904
rg,1625569152597715207,1,0.6519,-0.9126,0.3621,555,59.1431,1.8311,39.6729,176,0.7354,0.5943,-2.1287,-66.2112,28,0.9505,8166,3.9919,-129.8812
rg,1625569152597733281,1,0.5249,-0.8809,0.2808,556,27.2827,38.4521,18.3105,176,0.7354,0.5703,-1.885,-65.281,28,0.9465,8767,3.9919,-130.9917
rg,1625569152597750725,1,0.3381,-0.9014,0.2495,557,25.6348,61.9507,-9.8877,176,0.7354,0.5543,-1.733,-64.378,28,0.9445,8551,3.9919,-134.4751
rg,1625569152597767799,1,-0.1394,-0.7756,0.3157,558,41.1987,102.2339,-37.2925,176,0.7354,0.5453,-0.8228,-62.7584,28,0.9425,8239,3.9919,-138.7896
rg,1625569152597785188,1,-0.4382,-0.5459,0.2629,559,85.9375,55.6641,-13.5498,176,0.7394,0.5513,1.1267,-59.3712,28,0.9415,8295,3.9919,-140.9558
rg,1625569152597802928,1,-0.2871,-0.3342,0.1892,560,85.083,-2.2583,2.1973,176,0.7434,0.5603,1.58,-56.9245,28,0.9435,8045,3.9919,-138.5589
rg,1625569152597820280,1,-0.1377,-0.3354,0.2432,561,14.1602,-115.1123,20.3857,176,0.7464,0.5693,0.3965,-56.1648,28,0.9455,8240,3.9919,-134.2547
rg,1625569152597838039,1,0.3132,-0.7012,0.6069,562,-84.8999,-178.1006,32.0435,176,0.7534,0.5953,-3.0252,-59.4361,28,0.9485,8438,3.9919,-127.5261
rg,1625569152597855335,1,0.8018,-1.3628,0.7822,563,-68.2983,-117.5537,39.6118,176,0.7634,0.6173,-4.8265,-62.5094,28,0.9545,8493,3.9974,-122.6135
rg,1625569152597891316,1,0.8083,-1.436,0.4099,564,-26.6113,-55.8472,39.978,155,0.7804,0.6503,-4.8672,-62.4852,28,0.9595,8137,3.9974,-122.0118
rg,1625569152597910001,1,0.7632,-1.2681,0.4482,565,38.6963,40.0391,2.6855,155,0.8104,0.6773,-4.9051,-60.9462,28,0.9665,7999,3.9974,-123.3827
rg,1625569152597927501,1,0.4158,-0.8616,0.3501,566,80.4443,112.793,-17.395,155,0.8364,0.7063,-3.9646,-57.6428,28,0.9715,8178,3.9974,-127.6347
rg,1625569152597944760,1,0.1023,-0.6052,0.1726,567,71.8384,164.2456,2.2583,155,0.8574,0.7314,-0.4992,-55.1857,28,0.9735,7981,3.9974,-133.0268
rg,1625569152597961834,1,-0.032,-0.5745,0.2275,568,48.2178,173.7671,11.7798,155,0.8684,0.7514,4.2226,-54.7443,28,0.9755,8156,3.9974,-137.8537
rg,1625569152597978908,1,-0.2983,-0.7102,0.6165,569,-19.3481,110.1074,24.231,155,0.8614,0.7664,8.0366,-55.6178,28,0.9765,8280,3.9974,-140.9262
rg,1625569152597995908,1,-0.2188,-0.9038,0.5735,570,-99.3652,-62.0117,36.1938,155,0.8144,0.7574,8.0674,-59.2429,28,0.9755,8648,3.9974,-138.043
rg,1625569152598012741,1,0.3613,-1.1873,0.7573,571,-144.5312,-195.8618,33.8745,155,0.7674,0.7314,4.7106,-64.0902,28,0.9665,8491,3.9974,-130.4269
rg,1625569152598029685,1,0.5691,-1.4312,0.5076,572,-61.7065,-166.5649,40.5273,155,0.7404,0.6643,2.4461,-66.3498,28,0.9585,8667,3.9974,-123.6942
rg,1625569152598046333,1,0.6577,-1.322,0.4114,573,-7.2021,-143.5547,57.4951,155,0.7354,0.6143,0.9784,-66.4709,28,0.9605,8974,3.9974,-117.5182
rg,1625569152598063536,1,0.8374,-1.1606,0.4438,574,73.3032,-74.0967,56.4575,155,0.7304,0.6013,0.482,-63.5717,28,0.9545,8622,3.9974,-113.9208
rg,1625569152598080888,1,0.7178,-0.9673,0.3379,575,76.7212,-21.9727,23.8037,155,0.7314,0.5783,-0.4014,-60.7289,28,0.9505,8580,3.9974,-112.7394
rg,1625569152598097943,1,0.2732,-0.6382,0.1692,576,78.9795,16.1743,-44.8608,155,0.7314,0.5673,-2.4697,-58.0498,28,0.9475,8570,3.9974,-114.2251
rg,1625569152810060970,1,0.7041,-1.2512,0.6238,577,6.7139,-79.5288,59.082,84,0.7404,0.6613,-3.7032,-67.8055,28,0.9665,20155,4.0458,-29.646
rg,1625569152810116765,1,0.8586,-1.2451,0.4001,578,65.7959,-36.9873,70.8008,84,0.7384,0.6313,-2.8099,-65.4508,28,0.9615,8324,4.0458,-27.1858
rg,1625569152810138895,1,0.5386,-1.0398,0.1956,579,81.4209,3.9062,45.5322,84,0.7364,0.6023,-2.7851,-62.0956,28,0.9575,7854,4.0458,-28.3464
rg,1625569152810159080,1,0.3506,-0.8623,0.2498,580,88.4399,56.1523,-20.874,84,0.7374,0.5873,-3.1366,-58.8602,28,0.9535,7818,4.0458,-30.7176
rg,1625569152810203264,1,-0.155,-0.5029,0.2532,581,94.9097,95.3369,-49.8657,84,0.7384,0.5733,-2.0215,-55.0363,28,0.9515,7848,4.0458,-34.9681
rg,1625569152810225912,1,-0.3542,-0.2903,0.1658,582,104.3701,51.7578,-6.6528,84,0.7404,0.5733,0.7031,-50.9852,28,0.9505,9251,4.0458,-36.713
rg,1625569152810244579,1,-0.3147,-0.2251,0.1411,583,90.332,10.2539,15.9302,84,0.7414,0.5763,3.1638,-47.5445,28,0.9495,7872,4.0458,-36.5557
rg,1625569152810264171,1,-0.1255,-0.2288,0.1687,584,-5.5542,-86.0596,39.4287,84,0.7434,0.5873,2.8242,-47.786,28,0.9485,7789,4.0458,-32.9536
rg,1625569152810282985,1,0.2754,-0.6313,0.676,585,-80.0171,-127.8076,44.2505,84,0.7454,0.5993,-0.442,-53.3901,28,0.9515,7913,4.0458,-26.9075
rg,1625569152810301633,1,0.6655,-1.1055,1.2034,586,-172.9126,-145.2637,43.5791,84,0.7484,0.6123,-2.9865,-60.057,28,0.9535,7774,4.0458,-21.0582
rg,1625569152810320374,1,0.5688,-1.6604,0.5754,587,-64.0259,-34.4238,42.9077,84,0.7534,0.6233,-2.7161,-63.1038,28,0.9575,7873,4.0458,-18.9964
rg,1625569152810340133,1,0.5034,-1.542,0.3574,588,-7.6904,-21.1792,30.8838,84,0.7614,0.6463,-2.6187,-63.6703,28,0.9615,8048,4.0458,-17.6758
rg,1625569152810358688,1,0.4187,-1.0095,0.6614,589,38.5742,0.9766,-13.2446,84,0.7744,0.6573,-3.716,-61.8423,28,0.9685,7873,4.0458,-17.9768
rg,1625569152810377595,1,0.282,-0.7952,0.5049,590,53.1006,30.7617,-2.3193,84,0.8014,0.6783,-3.7068,-59.4736,28,0.9765,8055,4.0458,-19.1221
rg,1625569152810399651,1,0.2969,-0.8027,0.3745,591,44.6167,22.8271,11.6577,84,0.8524,0.6973,-3.4194,-57.8532,28,0.9805,7866,4.0458,-19.6603
rg,1625569152810418836,1,0.2307,-0.8848,0.3501,592,19.3481,47.1191,15.3198,84,0.8654,0.7314,-1.9209,-57.6158,28,0.9815,22630,4.0458,-21.0096
rg,1625569152810437539,1,0.0806,-0.8662,0.4717,593,-7.1411,36.8652,24.5972,84,0.8584,0.7424,-0.4189,-58.0238,28,0.9825,7872,4.0458,-21.7336
rg,1625569152810456743,1,0.1733,-0.8381,0.5928,594,-73.4863,-47.9126,32.2876,84,0.8184,0.7524,-0.637,-60.8371,28,0.9835,8012,4.0458,-19.4211
rg,1625569152810477076,1,0.2434,-0.9138,0.6169,595,-98.8159,-81.4209,25.3296,84,0.7774,0.7504,-1.7356,-64.8288,28,0.9785,7967,4.0458,-16.0451
rg,1625569152810496020,1,0.3459,-1.0994,0.4739,596,-96.1914,-115.6006,33.4473,84,0.7474,0.7003,-2.8669,-68.9199,28,0.9675,7919,4.0458,-11.247
rg,1625569152810515446,1,0.5696,-1.1821,0.262,597,-42.1753,-101.6846,50.293,84,0.7384,0.6543,-3.2154,-71.1406,28,0.9645,8380,4.0458,-6.7066
rg,1625569152810534853,1,0.887,-1.2195,0.5112,598,29.6631,-24.4751,55.8472,84,0.7334,0.6293,-2.593,-69.8992,28,0.9635,8114,4.0458,-5.0667
rg,1625569152810576686,1,0.9297,-1.1836,0.481,599,32.1045,24.353,60.9131,84,0.7324,0.6083,-1.2292,-68.5379,28,0.9595,8241,4.0458,-5.1437
rg,1625569152810606871,1,0.5178,-1.1321,0.2708,600,46.0815,113.5864,7.0801,84,0.7324,0.6103,-0.1431,-66.9242,28,0.9555,8105,4.0458,-9.2543
rg,1625569152810627722,1,0.0503,-0.9797,0.4036,601,45.3491,150.6958,-42.4805,84,0.7314,0.5983,0.6279,-65.152,28,0.9515,9849,4.0458,-15.4505
rg,1625569152810646629,1,-0.5037,-0.6912,0.3313,602,106.5063,129.2114,-41.2598,84,0.7354,0.5933,2.7015,-61.0187,28,0.9515,8083,4.0458,-20.7539
rg,1625569152810665999,1,-0.5378,-0.5208,0.2048,603,134.7046,67.5049,-21.1792,84,0.7384,0.5953,5.0373,-55.9778,28,0.9515,8122,4.0458,-23.4321
rg,1625569152810685129,1,-0.3528,-0.2297,0.1479,604,110.7788,-53.2227,3.54,84,0.7404,0.6083,5.5638,-51.4062,28,0.9515,8319,4.0458,-21.5535
rg,1625569152810703629,1,-0.115,-0.2251,0.189,605,-10.7422,-138.2446,27.6489,84,0.7444,0.6223,3.6159,-51.368,28,0.9535,8129,4.0458,-16.5152
rg,1625569152810736832,1,0.313,-0.6516,0.6321,606,-81.8481,-165.9546,39.4287,84,0.7474,0.6393,-0.0318,-56.2889,28,0.9565,8303,4.0458,-9.5966
rg,1625569152810757684,1,0.6609,-1.0908,0.9829,607,-143.9819,-161.2549,46.6919,84,0.7504,0.6493,-2.6458,-61.8755,28,0.9585,8226,4.0458,-3.0701
rg,1625569152810777443,1,0.687,-1.5566,0.5498,608,-58.8379,-35.1562,46.4478,84,0.7594,0.6633,-2.3922,-64.6168,28,0.9615,8295,4.0458,-0.9492
rg,1625569153195956892,1,0.241,-0.8396,0.3057,609,40.1611,58.1665,-13.1836,84,0.8334,0.7153,-1.9405,-62.7239,28,0.9815,25697,4.0458,-2.7242
rg,1625569153196007688,1,0.1904,-0.8259,0.2537,610,39.4287,42.2974,2.4414,84,0.8564,0.7304,-1.4844,-61.4864,28,0.9835,8515,4.0458,-4.1697
rg,1625569153196029373,1,0.1692,-0.8069,0.2869,611,35.1562,45.6543,6.0425,84,0.8724,0.7254,-0.777,-60.387,28,0.9835,7549,4.0458,-5.648
rg,1625569153196049409,1,0.0769,-0.8027,0.3936,612,22.4609,30.4565,14.3433,84,0.8784,0.7444,0.2602,-59.6012,28,0.9835,7901,4.0458,-6.4183
rg,1625569153196068094,1,0.0818,-0.7473,0.4805,613,-33.2642,-31.5552,34.79,84,0.8504,0.7544,0.6254,-60.8099,28,0.9845,7626,4.0458,-4.6313
rg,1625569153196086946,1,0.3105,-0.9226,0.6729,614,-104.4922,-101.0132,28.1982,84,0.8094,0.7594,-0.8243,-64.7114,28,0.9825,7567,4.0458,-0.5021
rg,1625569153196106242,1,0.3186,-1.061,0.585,615,-109.5581,-117.3096,21.4844,84,0.7744,0.7504,-2.4017,-69.0667,28,0.9775,7599,4.0458,4.1669
rg,1625569153196124483,1,0.4836,-1.2771,0.3286,616,-65.6738,-120.6055,49.1333,84,0.7504,0.7013,-2.8256,-72.1578,28,0.9685,7864,4.0458,9.3955
rg,1625569153196143019,1,0.5901,-1.2417,0.2778,617,-29.6631,-102.6001,53.7109,84,0.7394,0.6493,-3.0218,-73.6645,28,0.9615,7720,4.0458,13.965
rg,1625569153196161112,1,0.8418,-0.9788,0.5095,618,43.6401,-43.7622,50.4761,84,0.7354,0.6233,-2.8956,-71.6743,28,0.9605,8862,4.0458,16.1894
rg,1625569153196179334,1,0.7231,-0.9404,0.3728,619,32.7759,46.936,41.3208,84,0.7354,0.6153,-1.9564,-70.1929,28,0.9595,7678,4.0458,14.9211
rg,1625569153196198574,1,0.3872,-1.0835,0.2798,620,11.9629,101.0132,-18.0664,84,0.7364,0.5943,-1.9363,-69.7631,28,0.9585,7897,4.0458,10.8762
rg,1625569153196216037,1,0.1755,-1.0803,0.3403,621,13.7329,121.6431,-38.6963,84,0.7374,0.5933,-1.4298,-68.9491,28,0.9555,7785,4.0458,5.7764
rg,1625569153196233833,1,-0.3384,-0.76,0.3716,622,74.8291,130.127,-48.0347,84,0.7364,0.5903,-0.3171,-65.6784,28,0.9545,8083,4.0458,0.2619
rg,1625569153196253648,1,-0.4214,-0.3765,0.2493,623,115.5396,39.7949,-18.0054,84,0.7434,0.5983,1.3057,-60.8058,28,0.9555,7738,4.0458,-1.4123
rg,1625569153196272500,1,-0.3506,-0.2507,0.2312,624,87.0361,-10.9863,-5.3101,84,0.7464,0.6053,2.4874,-56.9423,28,0.9565,7947,4.0458,-1.0774
rg,1625569153196289925,1,-0.187,-0.2795,0.2434,625,-23.6206,-109.1309,9.3994,84,0.7504,0.6203,1.3903,-57.4605,28,0.9575,7802,4.0458,2.8131
rg,1625569153196308592,1,0.2095,-0.7666,0.7146,626,-135.7422,-168.0908,31.9824,84,0.7564,0.6333,-1.3365,-62.4626,28,0.9615,7991,4.0458,9.2962
rg,1625569153196326925,1,0.5469,-1.2151,1.1028,627,-143.5547,-158.2031,39.5508,84,0.7644,0.6543,-3.2014,-67.8882,28,0.9645,7878,4.0458,15.7151
rg,1625569153196345851,1,0.717,-1.7007,0.6272,628,-44.8608,-87.7075,41.1377,84,0.7814,0.6783,-3.6311,-69.9631,28,0.9675,8116,4.0458,19.5985
rg,1625569153196364554,1,0.7373,-1.4099,0.5181,629,11.1084,-60.6079,24.8413,84,0.8044,0.6953,-4.836,-67.6054,28,0.9785,7971,4.0458,20.9619
rg,1625569153196382313,1,0.6636,-1.1116,0.4397,630,101.3794,-11.1694,-5.6152,84,0.8294,0.7113,-6.1516,-63.5998,28,0.9835,8143,4.0458,21.244
rg,1625569153196400906,1,0.4038,-0.6465,0.1362,631,120.1782,39.1846,-2.8687,84,0.8514,0.7304,-6.483,-59.1162,28,0.9825,8008,4.0458,19.8136
rg,1625569153196418794,1,0.2395,-0.4727,0.0576,632,69.519,84.5337,12.6953,84,0.8694,0.7464,-5.0812,-56.8932,28,0.9885,8167,4.0458,17.271
rg,1625569153196466942,1,0.1914,-0.4976,0.1738,633,25.2075,93.2617,16.3574,84,0.8764,0.7414,-3.0834,-56.1909,28,0.9875,8026,4.0458,14.5454
rg,1625569153196490238,1,0.0391,-0.7441,0.5054,634,-53.7109,78.064,27.71,84,0.8664,0.7584,-0.4521,-58.2449,28,0.9895,8206,4.0458,12.5111
rg,1625569153196508793,1,0.0952,-1.0466,0.6431,635,-118.4082,-26.4282,47.1802,84,0.8204,0.7624,0.5167,-62.9638,28,0.9885,8082,4.0458,14.3593
rg,1625569153196526737,1,0.2126,-1.178,0.624,636,-131.0425,-78.2471,37.3535,84,0.7834,0.7504,0.2142,-68.1243,28,0.9815,8134,4.0458,17.8385
rg,1625569153196544422,1,0.3696,-1.3862,0.5005,637,-69.8853,-95.3369,28.3203,84,0.7554,0.7003,-0.6028,-70.9936,28,0.9735,8169,4.0458,21.8175
rg,1625569153196562052,1,0.6172,-1.248,0.3887,638,10.0708,-65.4297,70.8008,84,0.7414,0.6563,0.2684,-70.6495,28,0.9655,8642,4.0458,25.2074
rg,1625569153196579978,1,0.6345,-1.0378,0.4607,639,83.1909,8.1787,43.5181,84,0.7374,0.6143,0.8888,-67.1527,28,0.9605,9736,4.0458,25.4862
rg,1625569153196598033,1,0.625,-1.0107,0.3757,640,58.2275,30.8228,22.4609,84,0.7374,0.6243,1.0354,-64.9125,28,0.9615,8237,4.0458,24.6928
rg,1625569153519791703,1,-0.2061,-0.3542,0.1116,641,120.1172,74.8291,-57.7393,84,0.7384,0.6113,1.4127,-60.447,28,0.9555,25062,4.0458,21.0193
rg,1625569153519854017,1,-0.3257,-0.1873,0.2251,642,60.73,81.4819,-7.2632,84,0.7424,0.6233,4.4776,-57.6256,28,0.9585,9171,4.0458,18.129
rg,1625569153519875221,1,-0.239,-0.3633,0.3293,643,-63.7207,-8.5449,26.001,84,0.7444,0.6353,6.0231,-59.7322,28,0.9585,7747,4.0458,18.9783
rg,1625569153519895943,1,0.0088,-0.9397,0.9121,644,-125.9766,-61.5845,20.3857,84,0.7474,0.6473,4.5708,-65.1914,28,0.9615,7944,4.0458,23.1998
rg,1625569153519915572,1,0.4338,-1.5198,0.5381,645,-93.6279,-119.1406,32.0435,84,0.7554,0.6693,3.5599,-66.4428,28,0.9645,15890,4.0458,27.4123
rg,1625569153519934387,1,0.5312,-1.3481,0.4858,646,5.6152,-83.252,29.6631,84,0.7644,0.6813,2.3997,-66.1611,28,0.9685,9185,4.0458,30.9297
rg,1625569153519952701,1,0.5066,-0.9275,0.5261,647,36.9873,-57.1899,-7.8125,84,0.7744,0.6933,0.1108,-64.4238,28,0.9715,8004,4.0458,32.8704
rg,1625569153519971090,1,0.4482,-0.7773,0.4211,648,19.6533,-27.0386,-8.606,84,0.7904,0.7033,-1.6977,-63.5362,28,0.9775,7706,4.0458,33.6827
rg,1625569153520004349,1,0.4631,-0.8398,0.3706,649,10.1929,-10.6812,-3.6621,84,0.8144,0.7244,-2.9804,-63.2235,28,0.9835,7788,4.0458,33.9971
rg,1625569153520025034,1,0.4668,-0.9988,0.2939,650,5.5542,20.0806,3.6621,84,0.8344,0.7444,-3.3136,-63.3279,28,0.9865,9741,4.0458,33.3603
rg,1625569153520043904,1,0.3098,-0.9973,0.2705,651,23.0103,50.415,-0.7324,84,0.8534,0.7584,-2.9613,-62.7315,28,0.9895,7742,4.0458,31.5647
rg,1625569153520062552,1,0.2437,-0.9619,0.2974,652,32.1655,57.0679,2.6855,84,0.8654,0.7574,-1.97,-61.3655,28,0.9915,7996,4.0458,29.7784
rg,1625569153520080348,1,0.1216,-0.8816,0.3518,653,38.8794,40.0391,10.0708,84,0.8664,0.7714,-1.0535,-60.0381,28,0.9915,7755,4.0458,28.5811
rg,1625569153520097737,1,0.0879,-0.8057,0.3516,654,15.2588,-18.1274,22.3999,84,0.8644,0.7834,-0.8254,-59.6852,28,0.9935,7959,4.0458,29.6602
rg,1625569153520115773,1,0.1343,-0.8174,0.3877,655,-8.1787,-44.7388,31.6162,84,0.8294,0.7884,-0.9221,-60.2258,28,0.9905,7860,4.0458,31.845
rg,1625569153520133329,1,0.2817,-0.9534,0.3914,656,-50.0488,-85.8765,41.687,84,0.7814,0.7574,-2.1332,-62.8599,28,0.9855,10806,4.0458,36.1921
rg,1625569153520151014,1,0.438,-1.1003,0.3501,657,-33.0811,-98.5107,37.0483,84,0.7564,0.7103,-3.2555,-64.7172,28,0.9755,7837,4.0458,40.4076
rg,1625569153520169125,1,0.5667,-1.0547,0.4207,658,22.9492,-42.9077,49.1943,84,0.7484,0.6603,-3.1155,-64.0471,28,0.9705,8093,4.0458,42.8045
rg,1625569153520186976,1,0.5364,-1.0269,0.5503,659,59.2041,33.0811,58.0444,84,0.7424,0.6553,-1.2905,-61.5844,28,0.9645,12501,4.0458,42.6544
rg,1625569153520205050,1,0.3799,-1.02,0.4075,660,76.8433,29.4189,41.8701,84,0.7424,0.6373,0.0461,-58.7501,28,0.9595,8161,4.0458,42.4468
rg,1625569153520223624,1,0.1157,-0.9094,0.3386,661,107.2388,32.4097,11.2915,84,0.7424,0.6283,0.8569,-54.8875,28,0.9565,8059,4.0458,41.5961
rg,1625569153520241994,1,0.0068,-0.7808,0.3618,662,112.854,30.4565,5.0659,84,0.7424,0.6203,1.697,-50.7953,28,0.9525,7980,4.0458,40.7377
rg,1625569153520260235,1,-0.1689,-0.5942,0.3774,663,110.8398,4.5166,7.8735,84,0.7434,0.6163,2.5154,-46.6197,28,0.9495,8002,4.0458,40.8197
rg,1625569153520297105,1,-0.1184,-0.5549,0.3635,664,74.646,-57.9224,22.0947,84,0.7454,0.6093,1.8236,-43.9386,28,0.9485,8219,4.0458,43.0818
rg,1625569153520318845,1,-0.0156,-0.6045,0.3967,665,54.0771,-87.0972,21.5454,84,0.7474,0.6073,-0.1399,-42.2288,28,0.9475,8173,4.0458,46.0782
rg,1625569153520337215,1,0.2163,-0.759,0.4658,666,29.0527,-114.2578,21.4844,84,0.7504,0.6043,-3.4724,-41.7938,28,0.9475,8199,4.0458,49.7791
rg,1625569153520355678,1,0.3779,-0.8699,0.4802,667,29.6021,-93.8721,16.1133,84,0.7554,0.6023,-6.5162,-41.5683,28,0.9475,8118,4.0458,52.812
rg,1625569153520373141,1,0.3992,-0.8726,0.4626,668,35.0952,-73.7305,11.6577,84,0.7574,0.6023,-9.0348,-41.2289,28,0.9475,8328,4.0458,55.2192
rg,1625569153520390622,1,0.3499,-0.793,0.4229,669,38.6353,-35.7056,-0.6104,84,0.7584,0.6033,-10.6244,-40.5951,28,0.9485,8174,4.0458,56.2669
rg,1625569153520409048,1,0.2639,-0.7651,0.438,670,28.0151,-14.7095,-6.5308,84,0.7634,0.6023,-11.499,-40.2482,28,0.9495,8283,4.0458,56.5897
rg,1625569153520427344,1,0.2444,-0.7908,0.4583,671,22.1558,-7.6904,-6.897,84,0.7654,0.5993,-11.9172,-40.2973,28,0.9495,8196,4.0458,56.6859
rg,1625569153520444918,1,0.2229,-0.8669,0.501,672,16.2354,-6.1035,-7.9346,82,0.7684,0.5953,-12.3561,-40.3855,28,0.9485,8368,4.0469,56.758
rg,1625569153877343603,1,0.2495,-0.8562,0.5334,673,40.3442,-25.1465,-6.6528,82,0.7764,0.5863,-13.3746,-39.5546,28,0.9525,25041,4.0469,57.3592
rg,1625569153877397898,1,0.302,-0.8289,0.5342,674,41.748,-32.0435,-5.188,82,0.7784,0.5843,-14.6601,-38.7196,28,0.9525,13340,4.0469,58.1842
rg,1625569153877429731,1,0.3208,-0.8645,0.5435,675,42.2363,-34.0576,-5.9204,82,0.7804,0.5843,-16.0075,-37.9424,28,0.9535,7651,4.0469,59.0548
rg,1625569153877459398,1,0.3286,-0.8723,0.5571,676,43.457,-34.5459,-5.3711,82,0.7824,0.5833,-17.3312,-37.1411,28,0.9545,7722,4.0469,59.9612
rg,1625569153877486879,1,0.3381,-0.8628,0.564,677,50.7202,-33.8745,-4.5166,82,0.7834,0.5813,-18.5885,-36.0885,28,0.9545,7626,4.0469,60.8874
rg,1625569153877513638,1,0.3562,-0.843,0.5691,678,57.1899,-33.6914,-2.4414,82,0.7854,0.5813,-19.8036,-34.8155,28,0.9545,7765,4.0469,61.8782
rg,1625569153877571137,1,0.3799,-0.8223,0.5696,679,59.2651,-34.668,0,82,0.7874,0.5813,-21.0051,-33.5086,28,0.9565,9514,4.0469,62.9718
rg,1625569153877600174,1,0.3823,-0.8059,0.5625,680,60.1807,-34.4849,2.1973,82,0.7874,0.5793,-22.1702,-32.2631,28,0.9555,7788,4.0469,64.1582
rg,1625569153877631007,1,0.3196,-0.729,0.5039,681,57.4951,-31.6772,4.3335,82,0.7894,0.5783,-23.12,-31.2099,28,0.9565,12635,4.0469,65.3855
rg,1625569153877659655,1,0.293,-0.7102,0.5127,682,53.7109,-30.9448,6.5918,82,0.7904,0.5793,-23.9235,-30.3522,28,0.9565,7879,4.0469,66.6871
rg,1625569153877686747,1,0.2893,-0.7334,0.5332,683,44.6167,-41.0767,9.9487,82,0.7904,0.5753,-24.9583,-30.0504,28,0.9565,8372,4.0469,68.3633
rg,1625569153877713654,1,0.3179,-0.7825,0.5718,684,38.5742,-57.4951,11.0474,82,0.7914,0.5773,-26.517,-30.2119,28,0.9565,7882,4.0469,70.4819
rg,1625569153877740394,1,0.3394,-0.8027,0.575,685,40.5273,-64.7583,11.2305,82,0.7914,0.5763,-28.292,-30.4592,29,0.9565,7924,4.0469,72.8406
rg,1625569153877766468,1,0.3875,-0.825,0.5752,686,43.7012,-74.5239,7.6294,82,0.7924,0.5763,-30.486,-30.7273,29,0.9565,9158,4.0469,75.3717
rg,1625569153877792912,1,0.4106,-0.823,0.5823,687,48.3398,-75.0122,0.3052,82,0.7934,0.5733,-32.7988,-30.75,29,0.9565,8376,4.0469,77.704
rg,1625569153877819468,1,0.4253,-0.8079,0.5989,688,51.0254,-74.707,-0.1221,82,0.7934,0.5713,-34.9698,-30.5079,29,0.9565,7940,4.0469,80.0134
rg,1625569153877846004,1,0.4536,-0.803,0.624,689,57.1899,-69.0918,0,82,0.7934,0.5723,-36.9849,-30.1818,28,0.9565,7882,4.0469,82.2913
rg,1625569153877871819,1,0.4771,-0.8074,0.627,690,63.8428,-61.0962,0.1831,82,0.7944,0.5683,-38.6986,-29.5594,28,0.9565,7881,4.0469,84.4397
rg,1625569153877897930,1,0.4915,-0.8057,0.6296,691,68.8477,-56.2134,2.0752,82,0.7954,0.5683,-40.2084,-28.7905,28,0.9565,7955,4.0469,86.6018
rg,1625569153877916578,1,0.4946,-0.7693,0.5981,692,77.0264,-38.8184,2.6855,82,0.7954,0.5663,-41.0978,-27.4882,28,0.9565,7922,4.0469,88.3893
rg,1625569153877935429,1,0.4651,-0.7031,0.5547,693,83.374,-21.8506,5.188,82,0.7954,0.5663,-41.36,-25.7719,28,0.9565,10101,4.0469,89.8941
rg,1625569153877973522,1,0.4255,-0.6455,0.54,694,83.6182,-10.376,6.897,82,0.7964,0.5653,-41.1659,-23.9247,28,0.9575,8169,4.0469,91.2075
rg,1625569153877992707,1,0.3921,-0.6238,0.5483,695,83.6182,-4.3335,5.9204,82,0.7964,0.5653,-40.6428,-22.0568,28,0.9575,8191,4.0469,92.3794
rg,1625569153878013484,1,0.3772,-0.626,0.5759,696,82.6416,-1.3428,7.5073,82,0.7964,0.5613,-40.0609,-20.1877,28,0.9565,8013,4.0469,93.5479
rg,1625569153878032891,1,0.3682,-0.6292,0.6331,697,85.3271,-1.709,10.1929,82,0.7974,0.5623,-39.4269,-18.2681,28,0.9575,8300,4.0469,94.827
rg,1625569153878051502,1,0.3782,-0.6028,0.6738,698,91.3696,-6.2256,11.5356,82,0.7984,0.5563,-38.986,-16.1317,28,0.9575,8102,4.0469,96.1946
rg,1625569153878069613,1,0.3933,-0.5815,0.6868,699,93.811,-8.606,15.8691,82,0.7964,0.5533,-38.6649,-14.0551,28,0.9565,8287,4.0469,97.8001
rg,1625569153878087465,1,0.4441,-0.5642,0.7053,700,91.1865,-9.7656,23.1323,82,0.7964,0.5523,-38.4563,-12.2985,28,0.9565,8123,4.0469,99.7579
rg,1625569153878105020,1,0.4954,-0.5928,0.7156,701,86.0596,-9.8267,23.8647,82,0.7984,0.5523,-38.3751,-10.8507,28,0.9565,8360,4.0469,101.7953
rg,1625569153878123038,1,0.5125,-0.606,0.7197,702,82.2754,-9.1553,25.3906,82,0.7984,0.5463,-38.1911,-9.6001,28,0.9575,8183,4.0469,103.7879
rg,1625569153878141909,1,0.5139,-0.6282,0.7368,703,81.0547,-0.2441,20.5078,82,0.7984,0.5433,-37.843,-8.3132,28,0.9565,8329,4.0469,105.6379
rg,1625569153878160408,1,0.4561,-0.624,0.7634,704,80.9937,6.4697,17.5171,82,0.7994,0.5483,-37.1625,-6.9325,28,0.9555,8251,4.0469,107.3036
rg,1625569154230975981,1,0.3508,-0.6047,0.8362,705,84.0454,1.5869,17.2729,82,0.7994,0.5463,-36.6472,-5.3531,28,0.9555,25417,4.0469,108.9455
rg,1625569154231018721,1,0.3809,-0.5635,0.8438,706,93.3838,-17.5781,20.5078,82,0.8004,0.5413,-36.8061,-3.5513,28,0.9565,15219,4.0469,110.8053
rg,1625569154231039924,1,0.4175,-0.5398,0.8386,707,96.6797,-18.3105,24.5972,82,0.8004,0.5383,-37.0965,-1.7505,28,0.9555,7886,4.0469,112.8617
rg,1625569154231082072,1,0.4709,-0.5012,0.8237,708,97.3511,-14.7095,29.0527,82,0.8004,0.5373,-37.3884,-0.0331,28,0.9555,7772,4.0469,115.1113
rg,1625569154231102035,1,0.4976,-0.4707,0.8159,709,94.2383,-4.9438,30.0903,82,0.8004,0.5383,-37.3866,1.5365,28,0.9545,7700,4.0469,117.4032
rg,1625569154231120942,1,0.4976,-0.4629,0.8311,710,91.7969,0.6714,30.9448,82,0.8004,0.5343,-37.1926,2.9558,28,0.9545,7925,4.0469,119.7569
rg,1625569154231139997,1,0.4719,-0.4414,0.8098,711,91.0645,9.0942,28.9917,82,0.8014,0.5303,-36.6582,4.395,28,0.9545,7968,4.0469,122.0321
rg,1625569154231159034,1,0.4451,-0.3994,0.8086,712,91.4917,3.3569,25.4517,82,0.8004,0.5343,-36.3785,5.9827,28,0.9535,7829,4.0469,124.0949
rg,1625569154231176534,1,0.4495,-0.3496,0.7866,713,91.0645,-3.3569,23.7427,82,0.8004,0.5303,-36.4363,7.6743,28,0.9535,7773,4.0469,126
rg,1625569154231195404,1,0.4673,-0.3306,0.791,714,89.7827,-4.3335,21.8506,82,0.8014,0.5313,-36.5894,9.3723,28,0.9525,7866,4.0469,127.8004
rg,1625569154231213367,1,0.4768,-0.333,0.8274,715,75.6836,8.1787,19.5923,82,0.8014,0.5343,-36.2414,10.4792,28,0.9535,7785,4.0469,129.6132
rg,1625569154231231534,1,0.4426,-0.3865,0.886,716,63.4766,30.0903,19.7754,82,0.8024,0.5333,-34.9572,10.865,28,0.9535,7900,4.0469,131.6984
rg,1625569154231251200,1,0.4001,-0.4155,0.9238,717,59.5093,39.4287,18.6768,82,0.8024,0.5353,-33.2465,11.0654,28,0.9535,7893,4.0469,133.8005
rg,1625569154231269218,1,0.3008,-0.4351,0.9561,718,61.5234,38.9404,17.1509,82,0.8034,0.5393,-31.4046,11.3928,28,0.9515,7967,4.0469,135.7929
rg,1625569154231288181,1,0.2351,-0.4124,0.9431,719,70.8618,19.043,14.3433,82,0.8044,0.5413,-30.2672,12.3028,28,0.9545,7901,4.0469,137.4151
rg,1625569154231306940,1,0.2275,-0.3804,0.9299,720,73.9136,5.0049,14.0991,82,0.8034,0.5393,-29.7137,13.4492,28,0.9535,7979,4.0469,138.847
rg,1625569154231324829,1,0.2678,-0.3154,0.8867,721,78.8574,-15.3198,18.6768,82,0.8044,0.5423,-30.1223,14.8829,28,0.9495,7914,4.0469,140.203
rg,1625569154231343144,1,0.3391,-0.2739,0.8721,722,77.2095,-16.8457,21.2402,82,0.8064,0.5413,-30.7639,16.0457,28,0.9535,8030,4.0469,141.7176
rg,1625569154231378773,1,0.3728,-0.2737,0.8748,723,70.6787,-12.3901,24.8413,82,0.8064,0.5393,-31.3554,17.0171,28,0.9525,7972,4.0469,143.3664
rg,1625569154231399754,1,0.3872,-0.2593,0.8618,724,63.1104,-1.0986,25.6958,82,0.8084,0.5433,-31.5633,17.5766,28,0.9505,8062,4.0469,145.2188
rg,1625569154231417846,1,0.3784,-0.2249,0.865,725,58.2275,9.2163,24.9634,82,0.8094,0.5443,-31.3416,17.938,28,0.9535,8208,4.0469,147.1585
rg,1625569154231436365,1,0.3745,-0.2061,0.8711,726,55.2979,13.5498,23.9868,82,0.8114,0.5443,-30.9387,18.2151,28,0.9525,8137,4.0469,149.0914
rg,1625569154231453587,1,0.3721,-0.2009,0.8975,727,45.0439,13.4888,20.2637,82,0.8154,0.5433,-30.4768,18.1939,28,0.9525,8035,4.0469,150.8377
rg,1625569154231472809,1,0.3625,-0.2395,0.9358,728,33.6304,9.7656,15.564,82,0.8194,0.5393,-30.0437,17.7392,28,0.9535,12728,4.0469,152.3692
rg,1625569154231492290,1,0.3474,-0.29,0.9985,729,26.4893,2.7466,13.1226,82,0.8214,0.5413,-29.8155,17.0957,28,0.9535,8127,4.0469,153.6877
rg,1625569154231510068,1,0.3323,-0.3188,1.0308,730,26.6113,-3.7231,10.8032,82,0.8244,0.5433,-29.7621,16.5316,28,0.9535,8293,4.0469,154.8224
rg,1625569154231529605,1,0.3025,-0.3174,1.0491,731,28.8696,-14.0991,7.8125,82,0.8254,0.5433,-29.9985,16.209,28,0.9535,8220,4.0469,155.681
rg,1625569154231547790,1,0.2898,-0.3079,1.0493,732,31.6772,-21.1792,8.8501,82,0.8274,0.5403,-30.4896,16.0653,28,0.9535,8097,4.0469,156.4795
rg,1625569154231566363,1,0.3093,-0.2759,1.04,733,35.4004,-37.4146,8.667,82,0.8284,0.5413,-31.6021,16.2121,28,0.9525,9402,4.0469,157.0541
rg,1625569154231583826,1,0.3323,-0.2485,1.0078,734,35.0952,-48.584,10.498,82,0.8274,0.5413,-33.1792,16.4126,28,0.9535,8226,4.0469,157.5645
rg,1625569154231601493,1,0.3486,-0.2439,0.988,735,31.8604,-52.9175,10.498,82,0.8304,0.5453,-34.912,16.5024,28,0.9555,8241,4.0469,158.0491
rg,1625569154231620067,1,0.3572,-0.252,0.9788,736,32.2266,-53.772,9.6436,82,0.8314,0.5463,-36.6881,16.6676,28,0.9535,8268,4.0469,158.5205
rg,1625569154586557964,1,0.4548,-0.1816,0.939,737,42.6636,-45.0439,15.2588,82,0.8344,0.5453,-38.2701,17.1157,28,0.9555,25229,4.0469,159.3219
rg,1625569154586642074,1,0.5186,-0.1348,0.9854,738,42.1753,-15.5029,20.874,82,0.8364,0.5473,-38.7904,17.215,29,0.9555,12378,4.0469,160.7904
rg,1625569154586674426,1,0.5132,-0.1335,1.0474,739,33.7524,19.043,20.5688,82,0.8364,0.5463,-37.9043,16.6767,29,0.9555,7674,4.0469,162.7644
rg,1625569154586704351,1,0.4292,-0.1379,1.0903,740,27.3438,47.1802,22.3389,82,0.8364,0.5463,-35.8021,15.6558,29,0.9555,7815,4.0469,165.1597
rg,1625569154586733332,1,0.3872,-0.1421,1.0959,741,26.5503,54.2603,21.4844,82,0.8374,0.5463,-33.3883,14.728,29,0.9555,7901,4.0469,167.4617
rg,1625569154586759684,1,0.3145,-0.1472,1.0969,742,26.5503,56.1523,23.3154,82,0.8384,0.5523,-30.8499,13.8866,28,0.9565,8980,4.0469,169.7303
rg,1625569154586785406,1,0.2834,-0.1467,1.1133,743,23.7427,50.415,23.6206,82,0.8384,0.5513,-28.536,13.1141,28,0.9565,8246,4.0469,-188.1913
rg,1625569154586812609,1,0.2747,-0.1594,1.1213,744,21.7285,47.2412,21.4844,82,0.8394,0.5543,-26.3523,12.4036,28,0.9565,7721,4.0469,-186.3315
rg,1625569154586838628,1,0.2561,-0.178,1.1262,745,20.5078,36.8042,20.813,82,0.8394,0.5573,-24.6165,11.7894,28,0.9555,7729,4.0469,-184.6869
rg,1625569154586865183,1,0.2483,-0.1677,1.0994,746,20.3247,26.5503,20.3247,82,0.8404,0.5553,-23.3214,11.3008,29,0.9565,7722,4.0469,-183.2255
rg,1625569154586891201,1,0.2502,-0.1499,1.0854,747,20.4468,21.3013,19.9585,82,0.8404,0.5543,-22.2679,10.9291,29,0.9565,7757,4.0469,-181.8827
rg,1625569154586917590,1,0.2498,-0.1321,1.0635,748,18.7988,10.9253,18.4937,82,0.8424,0.5593,-21.6527,10.6127,29,0.9555,9724,4.0469,-180.7284
rg,1625569154586943478,1,0.2583,-0.134,1.0371,749,15.3809,1.5869,15.4419,82,0.8454,0.5653,-21.4544,10.2315,28,0.9565,7813,4.0469,-179.7841
rg,1625569154586969830,1,0.2749,-0.1489,1.0454,750,12.3291,-6.4697,13.6719,82,0.8474,0.5643,-21.5667,9.783,28,0.9565,7824,4.0469,-178.9791
rg,1625569154586996515,1,0.2883,-0.1858,1.0549,751,9.2163,-11.1694,10.376,82,0.8494,0.5693,-21.858,9.2163,28,0.9565,7818,4.0469,-178.322
rg,1625569154587023089,1,0.2939,-0.2168,1.052,752,7.6904,-12.6953,11.4746,82,0.8514,0.5743,-22.2323,8.5417,28,0.9575,7847,4.0469,-177.6257
rg,1625569154587070977,1,0.3003,-0.2119,1.0349,753,8.7891,-12.146,9.8877,82,0.8544,0.5733,-22.5598,7.9453,28,0.9575,7866,4.0469,-176.9678
rg,1625569154587101680,1,0.3159,-0.2163,1.0234,754,8.3008,-9.0942,10.0708,82,0.8564,0.5743,-22.7874,7.3269,28,0.9575,7859,4.0469,-176.2774
rg,1625569154587128532,1,0.323,-0.2117,0.9983,755,7.6294,-6.6528,9.5825,82,0.8584,0.5743,-22.8985,6.6831,28,0.9575,8659,4.0469,-175.5547
rg,1625569154587156161,1,0.3186,-0.2195,1.0005,756,5.9204,-3.9673,10.0708,82,0.8584,0.5783,-22.9166,5.9875,28,0.9575,8129,4.0469,-174.8374
rg,1625569154587183068,1,0.2861,-0.2356,0.9927,757,3.9673,-0.1831,9.0942,82,0.8614,0.5823,-22.7134,5.2075,28,0.9545,8150,4.0469,-174.1377
rg,1625569154587209735,1,0.2441,-0.2441,0.9846,758,4.5776,1.4648,6.4087,82,0.8634,0.5813,-22.4084,4.5378,28,0.9575,7963,4.0469,-173.554
rg,1625569154587236697,1,0.2383,-0.2336,0.9778,759,6.4087,-2.1362,6.4087,82,0.8624,0.5793,-22.1888,3.954,28,0.9585,8137,4.0469,-173.0022
rg,1625569154587263030,1,0.2292,-0.2156,0.9746,760,7.3853,-13.5498,5.7983,82,0.8644,0.5813,-22.4056,3.4917,28,0.9585,7958,4.0469,-172.5335
rg,1625569154587289104,1,0.2671,-0.2085,0.9614,761,6.897,-20.6909,5.7983,82,0.8654,0.5833,-23.309,3.0858,28,0.9585,8143,4.0469,-172.1178
rg,1625569154587314826,1,0.3127,-0.2114,0.9688,762,7.8125,-33.9355,5.6152,82,0.8664,0.5813,-24.4651,2.6991,28,0.9585,8029,4.0469,-171.6968
rg,1625569154587340733,1,0.384,-0.2251,0.9656,763,8.3618,-37.4756,6.2256,82,0.8684,0.5853,-25.8631,2.308,28,0.9575,8385,4.0469,-171.2277
rg,1625569154587366752,1,0.4229,-0.2407,0.9661,764,9.0332,-31.311,7.5073,82,0.8704,0.5893,-27.0364,1.8858,28,0.9595,8043,4.0469,-170.655
rg,1625569154587395029,1,0.4373,-0.2439,0.9719,765,10.2539,-26.7944,8.667,82,0.8714,0.5953,-28.0048,1.4841,28,0.9585,8244,4.0469,-170.0033
rg,1625569154587421696,1,0.4404,-0.2495,0.9683,766,11.7798,-16.5405,10.9253,82,0.8734,0.5953,-28.5348,1.0784,28,0.9595,8160,4.0469,-169.2167
rg,1625569154587452343,1,0.4048,-0.2339,0.9697,767,12.2681,-8.5449,12.207,82,0.8754,0.5983,-28.6522,0.6983,28,0.9595,9219,4.0469,-168.3747
rg,1625569154587523806,1,0.3691,-0.2134,0.9797,768,14.8926,-3.9673,14.5874,82,0.8774,0.5963,-28.501,0.4296,28,0.9605,10039,4.0469,-167.448
rg,1625569154936378136,1,0.3582,-0.1611,1.0298,769,15.3809,-10.498,22.583,82,0.8824,0.6023,-28.6984,0.04,28,0.9605,25275,4.0469,-166.1783
rg,1625569154936411414,1,0.3845,-0.1624,1.043,770,7.2632,-15.8691,25.2686,82,0.8834,0.6023,-28.9869,-0.6045,28,0.9605,10479,4.0469,-164.8394
rg,1625569154936432228,1,0.3752,-0.1902,1.0432,771,2.8687,-11.1694,24.5972,82,0.8854,0.6063,-29.0456,-1.4524,28,0.9615,7573,4.0469,-163.5049
rg,1625569154936451784,1,0.3145,-0.1926,1.0269,772,2.6855,-8.728,21.4844,82,0.8864,0.6053,-28.8873,-2.2213,28,0.9615,10773,4.0469,-162.3188
rg,1625569154936476339,1,0.2705,-0.1807,1.0186,773,3.1128,-14.8315,21.3013,82,0.8874,0.6043,-28.8831,-2.9214,28,0.9615,7623,4.0469,-161.1524
rg,1625569154936494691,1,0.2698,-0.1829,1.0115,774,3.3569,-21.4233,22.2778,82,0.8894,0.6063,-29.1289,-3.6258,28,0.9615,7676,4.0469,-159.9259
rg,1625569154936512431,1,0.2815,-0.186,0.9873,775,4.3945,-32.4707,22.2778,82,0.8904,0.6083,-29.8284,-4.3095,28,0.9615,8874,4.0469,-158.6526
rg,1625569154936529931,1,0.3054,-0.1765,0.9585,776,7.3853,-35.8276,21.3013,82,0.8914,0.6093,-30.6926,-4.8427,28,0.9615,7668,4.0469,-157.404
rg,1625569154936547005,1,0.3135,-0.1387,0.9333,777,10.9863,-36.1328,23.4985,82,0.8924,0.6113,-31.5544,-5.203,28,0.9625,9684,4.0469,-156.0813
rg,1625569154936564838,1,0.3267,-0.1172,0.9414,778,11.1694,-32.7148,23.4375,82,0.8924,0.6133,-32.2638,-5.4966,28,0.9615,7767,4.0469,-154.7941
rg,1625569154936583060,1,0.3542,-0.124,0.9392,779,9.8267,-27.5879,22.644,82,0.8944,0.6173,-32.7976,-5.8365,28,0.9625,7956,4.0469,-153.5481
rg,1625569154936600338,1,0.3499,-0.1316,0.9421,780,8.1787,-23.3154,23.0713,82,0.8954,0.6183,-32.784,-6.2665,28,0.9635,7854,4.0469,-152.347
rg,1625569154936617430,1,0.3293,-0.1401,0.9585,781,6.5918,-8.5449,24.0479,82,0.8954,0.6193,-32.4568,-6.7288,28,0.9615,8018,4.0469,-151.1182
rg,1625569154936635486,1,0.28,-0.1611,0.99,782,5.4321,1.709,22.522,82,0.8974,0.6243,-31.6154,-7.1767,28,0.9595,7861,4.0469,-150.0145
rg,1625569154936665782,1,0.2566,-0.1841,1.0122,783,6.7749,-0.1831,21.9727,82,0.8984,0.6283,-30.8172,-7.5731,28,0.9635,8019,4.0469,-148.9223
rg,1625569154936685670,1,0.2542,-0.1921,1.0149,784,6.5918,-2.5024,21.1792,82,0.8984,0.6283,-30.1324,-7.9496,28,0.9635,7998,4.0469,-147.8624
rg,1625569154936703374,1,0.2556,-0.1982,1.0103,785,9.6436,-7.3242,19.9585,92,0.8984,0.6283,-29.6707,-8.1806,28,0.9635,10308,4.0436,-146.8336
rg,1625569154936720429,1,0.2605,-0.1953,1.0029,786,11.1694,-8.1787,17.7612,92,0.9004,0.6323,-29.284,-8.2822,28,0.9635,7974,4.0436,-145.9101
rg,1625569154936737559,1,0.26,-0.1885,1.0012,787,11.9019,-11.9019,15.1978,92,0.9004,0.6333,-29.0732,-8.2845,28,0.9645,8049,4.0436,-145.0908
rg,1625569154936754688,1,0.2676,-0.1831,1.001,788,11.9019,-13.7329,15.1367,92,0.9004,0.6323,-28.9587,-8.2754,28,0.9635,8026,4.0436,-144.2703
rg,1625569154936772040,1,0.2668,-0.165,0.9722,789,12.146,-15.2588,13.3667,92,0.9014,0.6343,-28.9351,-8.1898,28,0.9635,8038,4.0436,-143.5362
rg,1625569154936789317,1,0.3003,-0.1533,0.9866,790,9.5215,-15.9912,14.0381,92,0.9004,0.6343,-28.9989,-8.1942,28,0.9635,7998,4.0436,-142.783
rg,1625569154936806336,1,0.3132,-0.1553,1.0044,791,7.0801,-14.7705,13.6108,92,0.9014,0.6363,-29.029,-8.2811,28,0.9635,8201,4.0436,-142.0579
rg,1625569154936823484,1,0.3318,-0.199,1.0256,792,3.479,-15.0146,13.3057,92,0.9044,0.6353,-29.0869,-8.5976,28,0.9625,8124,4.0436,-141.2991
rg,1625569154936840150,1,0.3293,-0.2097,1.0332,793,3.7842,-14.7095,12.207,92,0.9054,0.6363,-29.1238,-8.8867,28,0.9655,8126,4.0436,-140.5847
rg,1625569154936856928,1,0.3162,-0.2024,1.0254,794,4.5776,-14.4043,10.5591,92,0.9054,0.6343,-29.1346,-9.0829,28,0.9645,8163,4.0436,-139.9566
rg,1625569154936873705,1,0.3118,-0.1821,1.0142,795,4.1504,-17.8833,11.9019,92,0.9054,0.6363,-29.2709,-9.2888,28,0.9635,8190,4.0436,-139.2649
rg,1625569154936891057,1,0.3315,-0.1704,1.0015,796,3.7231,-22.583,12.3901,92,0.9074,0.6383,-29.6291,-9.5126,28,0.9645,8167,4.0436,-138.5269
rg,1625569154936907668,1,0.3401,-0.1682,0.991,797,3.3569,-22.8882,11.5967,92,0.9084,0.6403,-30.0383,-9.7485,28,0.9655,8211,4.0436,-137.8127
rg,1625569154936946038,1,0.3582,-0.1643,0.9866,798,3.6011,-21.7285,10.7422,92,0.9084,0.6403,-30.4025,-9.9224,28,0.9635,8221,4.0436,-137.1581
rg,1625569154936965112,1,0.3691,-0.1538,0.978,799,3.2959,-19.3481,12.6953,92,0.9094,0.6423,-30.6729,-10.1198,28,0.9615,8420,4.0436,-136.4436
rg,1625569154936983112,1,0.3635,-0.1616,0.97,800,2.7466,-13.6108,11.1694,92,0.9104,0.6433,-30.7103,-10.2969,28,0.9655,8258,4.0436,-135.8359
rg,1625569155300493020,1,0.3301,-0.1443,0.9749,801,4.2725,-8.4229,13.1836,92,0.9104,0.6463,-30.4685,-10.3813,28,0.9655,25577,4.0436,-135.2075
rg,1625569155300540612,1,0.3552,-0.1553,0.9956,802,2.4414,-9.9487,14.8926,92,0.9124,0.6473,-30.3074,-10.6009,28,0.9645,10682,4.0436,-134.4795
rg,1625569155300561500,1,0.354,-0.1614,0.9866,803,2.6855,-6.8359,14.8315,92,0.9134,0.6473,-30.0318,-10.8022,28,0.9655,8433,4.0436,-133.7767
rg,1625569155300581500,1,0.3271,-0.1436,0.9756,804,3.1738,-3.7231,14.0991,92,0.9144,0.6493,-29.6055,-10.9006,28,0.9645,7752,4.0436,-133.1604
rg,1625569155300600407,1,0.3201,-0.1377,0.9878,805,3.2349,-4.1504,14.8315,92,0.9164,0.6503,-29.1848,-10.986,28,0.9645,7663,4.0436,-132.5208
rg,1625569155300618870,1,0.3193,-0.136,0.99,806,1.77,-4.8218,15.8081,92,0.9194,0.6523,-28.7954,-11.1399,28,0.9645,7713,4.0436,-131.8375
rg,1625569155300636833,1,0.3306,-0.1506,1.0007,807,0.1221,-4.8828,15.1367,92,0.9245,0.6543,-28.4402,-11.3656,28,0.9635,9438,4.0436,-131.1731
rg,1625569155300654574,1,0.3354,-0.1567,1.0068,808,-0.6104,-6.7749,17.2119,92,0.9275,0.6563,-28.1584,-11.6709,28,0.9635,7793,4.0436,-130.399
rg,1625569155300675073,1,0.3228,-0.1667,1.0022,809,-0.061,-5.6152,14.7705,92,0.9315,0.6603,-27.8355,-11.9063,28,0.9615,7732,4.0436,-129.739
rg,1625569155300693610,1,0.2993,-0.1638,0.9929,810,-0.4272,-5.7983,15.0146,92,0.9345,0.6623,-27.4933,-12.1367,28,0.9645,7750,4.0436,-129.0953
rg,1625569155300711943,1,0.3062,-0.1646,1.0027,811,-1.3428,-8.1787,14.7095,92,0.9375,0.6663,-27.2587,-12.3997,28,0.9635,7746,4.0436,-128.4274
rg,1625569155300728814,1,0.3074,-0.1782,0.9915,812,-0.061,-11.2915,14.2822,92,0.9405,0.6703,-27.1624,-12.6412,28,0.9645,7816,4.0436,-127.7353
rg,1625569155300747665,1,0.3118,-0.1792,0.99,813,0.1221,-11.3525,12.7563,92,0.9425,0.6713,-27.0931,-12.8375,28,0.9645,7744,4.0436,-127.1116
rg,1625569155300800683,1,0.3076,-0.1682,0.999,814,0.7935,-13.3057,12.8174,92,0.9435,0.6723,-27.088,-12.9788,28,0.9635,7804,4.0436,-126.482
rg,1625569155300823090,1,0.3125,-0.1741,0.9956,815,2.1362,-13.7329,12.6343,92,0.9455,0.6753,-27.1111,-13.075,28,0.9655,7800,4.0436,-125.8506
rg,1625569155300842461,1,0.3225,-0.1628,0.9937,816,1.709,-13.5498,12.085,92,0.9455,0.6733,-27.1535,-13.1477,28,0.9635,7883,4.0436,-125.2578
rg,1625569155300860405,1,0.3232,-0.1511,0.9778,817,2.8076,-15.1978,12.3291,92,0.9475,0.6783,-27.2694,-13.1656,28,0.9605,8030,4.0436,-124.6479
rg,1625569155300877497,1,0.3301,-0.1436,0.9849,818,3.1128,-15.1978,11.9019,92,0.9495,0.6773,-27.3958,-13.1592,28,0.9645,7854,4.0436,-124.0094
rg,1625569155300895034,1,0.3442,-0.144,0.9846,819,2.1973,-14.2212,12.8174,92,0.9515,0.6793,-27.4988,-13.1907,28,0.9645,13147,4.0436,-123.3961
rg,1625569155300912015,1,0.3472,-0.1394,0.9675,820,1.709,-12.8174,13.0615,92,0.9555,0.6823,-27.5595,-13.2351,28,0.9645,7893,4.0436,-122.7891
rg,1625569155300929349,1,0.3599,-0.1367,0.979,821,0.7935,-12.2681,14.4043,92,0.9585,0.6833,-27.6015,-13.3297,28,0.9645,8174,4.0436,-122.1338
rg,1625569155300946386,1,0.3518,-0.1531,1.0054,822,-0.7324,-7.6294,15.686,92,0.9615,0.6833,-27.4116,-13.5124,28,0.9645,7955,4.0436,-121.4595
rg,1625569155300964367,1,0.322,-0.1794,1.0037,823,-1.4038,-5.6152,15.686,92,0.9635,0.6883,-27.0865,-13.762,28,0.9645,8926,4.0436,-120.7826
rg,1625569155300981959,1,0.3037,-0.176,0.9934,824,0.6104,-6.2256,14.7705,92,0.9665,0.6933,-26.7744,-13.8973,28,0.9645,9731,4.0436,-120.1464
rg,1625569155301000107,1,0.2922,-0.1587,0.9951,825,1.3428,-8.1787,14.5264,92,0.9685,0.6933,-26.6293,-13.9789,28,0.9655,8043,4.0436,-119.4324
rg,1625569155301018107,1,0.3103,-0.1604,0.9944,826,0.9155,-11.8408,15.1367,92,0.9695,0.6993,-26.562,-14.0862,28,0.9645,8036,4.0436,-118.7403
rg,1625569155301036162,1,0.3262,-0.1721,0.9924,827,1.8921,-12.9395,15.686,92,0.9705,0.7013,-26.5644,-14.1952,28,0.9645,8196,4.0436,-118.0004
rg,1625569155301053422,1,0.3247,-0.1726,0.9983,828,1.8921,-11.9629,15.625,92,0.9715,0.7023,-26.4778,-14.2131,28,0.9655,8146,4.0436,-117.3453
rg,1625569155301070162,1,0.3174,-0.1633,0.99,829,2.9907,-12.0239,15.2588,92,0.9715,0.7043,-26.4368,-14.2389,28,0.9645,8328,4.0436,-116.6451
rg,1625569155301104903,1,0.321,-0.1643,0.9895,830,2.9297,-13.1836,15.4419,92,0.9745,0.7063,-26.4475,-14.2779,28,0.9655,8155,4.0436,-115.9233
rg,1625569155301125513,1,0.321,-0.1614,0.9856,831,4.0894,-12.5732,14.4653,92,0.9745,0.7083,-26.4468,-14.242,28,0.9655,8326,4.0436,-115.2534
rg,1625569155301143069,1,0.324,-0.156,0.9971,832,3.418,-12.8174,14.7705,92,0.9745,0.7073,-26.4526,-14.2243,28,0.9655,8211,4.0436,-114.5749
rg,1625569178411384022,3,0.3845,-0.1028,0.9656,833,2.2583,-11.1084,17.334,63,1.0185,0.9475,-30.1083,-13.7801,28,1.0075,19720,4.0645,60.7332
rg,1625569178411417430,3,0.3787,-0.0967,0.9739,834,1.4038,-11.5356,16.2354,63,1.0175,0.9475,-30.0494,-13.804,28,1.0065,8569,4.0645,61.4135
rg,1625569178411437855,3,0.3777,-0.0925,0.9617,835,2.1362,-12.0239,15.1978,63,1.0175,0.9475,-30.03,-13.7697,28,1.0035,9516,4.0645,62.0488
rg,1625569178411456707,3,0.3916,-0.0974,0.9724,836,1.77,-14.1602,16.1743,63,1.0185,0.9475,-30.1295,-13.7582,28,1.0065,7926,4.0645,62.7159
rg,1625569178411474448,3,0.3967,-0.1006,0.9639,837,1.5259,-14.4653,14.4043,63,1.0175,0.9465,-30.2434,-13.7692,28,1.0065,7776,4.0645,63.3547
rg,1625569178411491337,3,0.4019,-0.093,0.9563,838,2.1973,-14.2822,15.8691,63,1.0175,0.9465,-30.3499,-13.7708,28,1.0065,7912,4.0645,64.0494
rg,1625569178411507855,3,0.4026,-0.0933,0.9575,839,1.5259,-13.855,15.9302,63,1.0175,0.9475,-30.3816,-13.7447,28,1.0065,7776,4.0645,64.692
rg,1625569178411525392,3,0.3911,-0.0972,0.9651,840,2.2583,-11.4746,15.2588,63,1.0175,0.9465,-30.3509,-13.7226,28,1.0065,8011,4.0645,65.3315
rg,1625569178411542559,3,0.3838,-0.0891,0.9541,841,0.9766,-10.2539,15.1978,63,1.0165,0.9465,-30.2708,-13.7258,28,1.0065,7810,4.0645,65.9457
rg,1625569178411559688,3,0.3845,-0.0928,0.9519,842,0.4883,-11.5356,15.8081,63,1.0175,0.9455,-30.1943,-13.7192,28,1.0065,7996,4.0645,66.6079
rg,1625569178411576837,3,0.373,-0.0935,0.9717,843,1.0986,-11.0474,15.9302,63,1.0175,0.9465,-30.108,-13.7412,28,1.0055,8293,4.0645,67.2661
rg,1625569178411593244,3,0.3801,-0.0955,0.9851,844,1.5259,-11.9629,15.9912,63,1.0175,0.9475,-30.0632,-13.7526,28,1.0065,7885,4.0645,67.9377
rg,1625569178411610725,3,0.4016,-0.0969,0.957,845,1.1597,-16.7236,15.7471,63,1.0175,0.9455,-30.2701,-13.8146,28,1.0075,33455,4.0645,68.659
rg,1625569178411627373,3,0.4065,-0.0974,0.9617,846,1.6479,-17.2119,15.564,63,1.0175,0.9445,-30.4457,-13.846,28,1.0075,7962,4.0645,69.3703
rg,1625569178411643873,3,0.4138,-0.0942,0.9536,847,1.0986,-14.3433,15.564,63,1.0175,0.9455,-30.5741,-13.8902,28,1.0065,8125,4.0645,70.054
rg,1625569178411660744,3,0.396,-0.0979,0.9604,848,1.77,-11.9629,14.6484,63,1.0175,0.9455,-30.5723,-13.8771,28,1.0075,7961,4.0645,70.6714
rg,1625569178411677392,3,0.4011,-0.0942,0.96,849,0.7935,-10.437,14.7705,63,1.0185,0.9445,-30.5302,-13.8691,28,1.0065,8211,4.0645,71.2578
rg,1625569178411693762,3,0.4038,-0.093,0.9741,850,0.8545,-10.8032,15.3198,63,1.0185,0.9445,-30.4846,-13.8861,28,1.0075,7983,4.0645,71.8848
