name,time,activity,ax,ay,az,batch_val,gx,gy,gz,ibat,index,middle,pitch,roll,temp,thumb,ts,vbat,yaw
lg,1625503323319012302,0,0.0261,-0.0833,1.0708,1,-0.6104,-6.7749,16.0522,71,1.5728,1.5558,-0.8915,-7.9532,29,0.1361,20074,3.9864,48.5656
lg,1625503323319047321,0,0.0581,-0.0884,1.0667,2,-0.1221,-7.9346,17.4561,71,1.5718,1.5558,-1.1964,-7.8422,29,0.1361,8296,3.9864,49.2989
lg,1625503323319067061,0,0.0623,-0.0688,1.0559,3,-0.1831,-7.0801,16.7236,71,1.5728,1.5558,-1.4713,-7.7013,29,0.1351,8487,3.9864,49.9966
lg,1625503323319085858,0,0.0627,-0.0693,1.0806,4,-0.9155,-5.7983,15.8691,71,1.5728,1.5558,-1.6887,-7.5947,29,0.1351,10207,3.9864,50.6527
lg,1625503323319103191,0,0.0591,-0.0608,1.0771,5,-2.0752,-3.9062,14.5264,71,1.5728,1.5558,-1.8305,-7.5366,29,0.1341,8499,3.9864,51.2447
lg,1625503323319120728,0,0.0784,-0.0549,1.0781,6,-3.0518,-0.9766,15.2588,71,1.5728,1.5558,-1.8809,-7.4937,29,0.1341,8403,3.9864,51.8492
lg,1625503323319137821,0,0.0747,-0.0659,1.0723,7,-4.6997,1.5259,15.8081,71,1.5728,1.5558,-1.8206,-7.542,29,0.1341,8198,3.9864,52.4631
lg,1625503323319155395,0,0.0786,-0.041,1.0542,8,-5.249,1.5259,15.0757,62,1.5728,1.5558,-1.8281,-7.5993,29,0.1331,8598,3.9963,53.1073
lg,1625503323319172543,0,0.0823,-0.0212,1.0308,9,-9.0332,-0.3662,15.8691,62,1.5728,1.5548,-1.8661,-7.7249,29,0.1311,8637,3.9963,53.7305
lg,1625503323319189321,0,0.0759,-0.0269,1.0527,10,-15.8691,9.7046,16.9678,62,1.5718,1.5558,-1.4787,-8.1266,29,0.1311,8226,3.9963,54.3413
lg,1625503323319207117,0,0.0674,-0.084,1.073,11,-22.3999,18.4326,17.8223,62,1.5718,1.5558,-0.7297,-8.8847,29,0.1311,8649,3.9963,54.9337
lg,1625503323319224783,0,0.0415,-0.1084,1.1257,12,-18.3105,18.7378,19.4092,62,1.5728,1.5568,0.0774,-9.4822,29,0.1281,33998,3.9963,55.5785
lg,1625503323319241876,0,0.0527,-0.0957,1.1177,13,-17.5171,18.6768,20.2026,62,1.5728,1.5558,0.7801,-9.9494,29,0.1281,8757,3.9963,56.2108
lg,1625503323319258598,0,0.0884,-0.1104,1.1304,14,-16.5405,18.0664,18.4937,62,1.5718,1.5548,1.4129,-10.4222,29,0.1271,7968,3.9963,56.8138
lg,1625503323319275265,0,0.0964,-0.0999,1.1047,15,-15.0757,19.165,13.6108,62,1.5718,1.5548,2.0117,-10.8015,29,0.1261,8011,3.9963,57.2133
lg,1625503323319291987,0,0.1133,-0.0889,1.0808,16,-15.5029,22.0947,13.0005,62,1.5718,1.5558,2.8219,-11.1986,29,0.1241,8804,3.9963,57.4506
lg,1625503323319308413,0,0.1045,-0.0994,1.0637,17,-17.5171,34.5459,10.1318,62,1.5718,1.5528,3.92,-11.6556,29,0.1231,8446,3.9963,57.586
lg,1625503323319324950,0,0.0894,-0.0911,1.0183,18,-22.8882,47.6685,8.7891,62,1.5718,1.5548,5.5002,-12.3108,29,0.1211,8088,3.9963,57.5523
lg,1625503323319341469,0,0.041,-0.0757,1.0081,19,-30.7007,57.9224,6.3477,62,1.5708,1.5548,7.5,-13.2436,29,0.1191,8496,3.9963,57.3175
lg,1625503323319357672,0,0.019,-0.0781,1.0149,20,-36.2549,65.6128,7.8125,62,1.5708,1.5538,9.7777,-14.3817,29,0.1181,8842,3.9963,57.0386
lg,1625503323319373746,0,0.0508,-0.8259,0.7092,21,33.4473,36.6211,-51.6357,186,1.4167,1.5558,10.2476,-14.7822,29,0.1241,15647,3.8742,54.4091
lg,1625503323319390376,0,-0.0413,-0.8989,0.3962,22,29.3579,31.9214,-63.7817,186,1.4137,1.5508,10.6363,-15.9244,29,0.1221,9337,3.8742,51.2423
lg,1625503323319407413,0,-0.0669,-0.8181,0.3833,23,15.564,33.6304,-16.2354,186,1.4127,1.5488,11.6201,-17.2388,29,0.1241,8759,3.8742,49.893
lg,1625503323319424191,0,-0.1079,-0.9019,0.7302,24,-16.9067,66.5894,59.7534,186,1.4167,1.5498,14.703,-18.8583,29,0.1251,8406,3.8742,51.1163
lg,1625503323319440728,0,-0.292,-0.8608,0.7727,25,-13.4277,86.731,69.8853,186,1.4187,1.5498,19.1814,-19.8404,29,0.1241,8808,3.8742,52.6132
lg,1625503323319456821,0,-0.5105,-0.5444,0.7068,26,-17.395,38.6353,74.4019,186,1.4087,1.5508,19.8783,-20.5444,29,0.1241,9387,3.8742,55.7111
lg,1625503323319473321,0,-0.4526,-0.5405,0.7349,27,-43.396,-71.9604,76.9653,186,1.3907,1.5498,18.583,-21.492,29,0.1251,8825,3.8742,59.6483
lg,1625503323319489987,0,-0.0874,-0.6428,0.5547,28,-38.6353,-146.1182,29.4189,186,1.3827,1.5518,13.2258,-23.1716,29,0.1251,8875,3.8742,62.749
lg,1625503323319506450,0,-0.1135,-1.0786,0.8318,29,-47.0581,-102.2339,21.4844,186,1.3777,1.5518,9.5986,-25.6657,29,0.1261,9253,3.8742,65.0222
lg,1625503323319522839,0,-0.0884,-0.8943,0.6008,30,6.1646,-40.1611,9.6436,186,1.3737,1.5518,8.1848,-26.4096,29,0.1261,8957,3.8742,65.8951
lg,1625503323319539080,0,-0.0471,-0.7,0.7092,31,19.4702,1.2817,17.5171,186,1.3737,1.5528,9.249,-25.9342,29,0.1271,9028,3.8742,66.4937
lg,1625503323319555154,0,-0.0537,-0.7903,0.7651,32,22.583,30.2124,31.6162,186,1.3787,1.5528,10.6881,-25.9186,29,0.1271,9930,3.8742,66.8166
lg,1625503323674021728,0,-0.0879,-0.8049,0.7937,33,25.0244,53.772,0.7324,186,1.4217,1.5528,12.4021,-25.8712,29,0.1291,25924,3.8742,65.7383
lg,1625503323674058061,0,-0.0271,-0.7393,0.5925,34,33.4473,42.1143,-20.2637,186,1.4267,1.5518,12.9364,-26.1262,29,0.1271,11273,3.8742,63.865
lg,1625503323674077987,0,-0.0901,-0.8467,0.5496,35,22.0337,51.1475,-25.6958,186,1.4187,1.5508,14.0587,-26.874,29,0.1271,12893,3.8742,61.7112
lg,1625503323674096857,0,-0.229,-0.8621,0.6187,36,0.061,83.6182,14.0991,186,1.4197,1.5508,17.2504,-28.2212,29,0.1301,10409,3.8742,60.36
lg,1625503323674116357,0,-0.4653,-0.7947,0.6653,37,-8.5449,75.1343,59.9976,186,1.4237,1.5518,21.335,-29.1393,29,0.1291,8367,3.8742,60.8111
lg,1625503323674134987,0,-0.4849,-0.6604,0.6843,38,-3.7842,59.3262,72.2046,186,1.4217,1.5528,25.0459,-29.2615,29,0.1291,7656,3.8742,62.0836
lg,1625503323674153802,0,-0.5332,-0.5789,0.6763,39,-15.9302,-6.3477,51.3306,186,1.4137,1.5528,26.0718,-29.3955,29,0.1301,7670,3.8742,64.0281
lg,1625503323674172191,0,-0.4075,-0.7361,0.6311,40,-36.3159,-87.8296,59.6313,186,1.4057,1.5528,24.129,-29.8397,29,0.1301,8081,3.8742,67.8928
lg,1625503323674189857,0,-0.3125,-0.8411,0.4893,41,-27.71,-100.9521,54.4434,186,1.4027,1.5528,21.6679,-30.3805,29,0.1291,9804,3.8742,70.3255
lg,1625503323674207839,0,-0.3958,-0.9294,0.7339,42,-9.7656,-48.584,23.9868,186,1.4047,1.5528,20.4142,-30.9012,29,0.1301,8627,3.8742,71.965
lg,1625503323674224931,0,-0.0935,-0.7317,0.771,43,9.6436,-71.5332,9.2773,186,1.4167,1.5538,17.5669,-30.4189,29,0.1311,9270,3.8742,73.6657
lg,1625503323674242246,0,0.0691,-0.8303,0.7822,44,5.3711,-75.9277,-23.6816,186,1.4327,1.5538,13.6923,-30.653,29,0.1331,8532,3.8742,74.2281
lg,1625503323674259876,0,0.1392,-0.9263,0.6934,45,15.686,-40.9546,-48.9502,186,1.4397,1.5538,10.5299,-31.083,29,0.1321,8529,3.8742,73.1658
lg,1625503323674277376,0,0.1157,-0.8613,0.4885,46,24.231,-29.1138,-60.0586,186,1.4387,1.5528,7.673,-31.4595,29,0.1301,7841,3.8742,71.4991
lg,1625503323674294728,0,0.1228,-0.6475,0.499,47,21.1182,9.3994,-36.499,186,1.4377,1.5518,6.6139,-31.5973,29,0.1301,8633,3.8742,69.9396
lg,1625503323674313524,0,-0.2583,-1.0154,0.8225,48,-22.2168,81.604,42.9688,186,1.4417,1.5518,10.4677,-33.2678,29,0.1331,8613,3.8742,69.5413
lg,1625503323674330950,0,-0.4829,-0.9438,0.7068,49,-21.7285,81.0547,67.1997,186,1.4337,1.5538,15.3629,-34.3295,29,0.1301,8560,3.8742,69.9147
lg,1625503323674347505,0,-0.7271,-0.5381,0.9148,50,-13.855,59.4482,80.9326,186,1.4077,1.5528,19.8756,-34.3175,29,0.1311,8663,3.8742,71.3434
lg,1625503323674364005,0,-0.3799,-0.3108,0.7986,51,-32.959,-106.9946,15.5029,186,1.3887,1.5498,16.8779,-34.1579,29,0.1321,8286,3.8742,74.6001
lg,1625503323674381320,0,-0.2878,-0.9153,0.7998,52,-62.1338,-175.7812,-10.8032,186,1.3777,1.5488,10.6684,-37.2518,29,0.1311,8286,3.8742,78.9424
lg,1625503323674398765,0,-0.1306,-1.0471,0.4539,53,-50.1099,-119.9341,-2.6245,186,1.3707,1.5478,6.7561,-39.9091,29,0.1301,13325,3.8742,81.6865
lg,1625503323674415468,0,0.2371,-1.053,0.709,54,3.479,-53.5889,21.3013,186,1.3687,1.5478,5.0047,-40.175,29,0.1311,8758,3.8742,83.6579
lg,1625503323674432820,0,0.3911,-0.8145,0.6006,55,22.583,39.917,15.9912,186,1.3697,1.5488,5.6363,-39.8096,29,0.1321,8881,3.8742,83.0678
lg,1625503323674450154,0,0.2461,-0.8501,0.6099,56,22.8271,93.811,2.7466,186,1.3757,1.5508,7.8467,-39.7227,29,0.1331,8027,3.8742,80.6735
lg,1625503323674467357,0,-0.0161,-0.9011,0.6387,57,33.3862,140.8691,-13.7329,186,1.3897,1.5518,11.5392,-39.6629,29,0.1331,8045,3.8742,76.5073
lg,1625503323674484320,0,-0.0789,-0.873,0.698,58,44.0063,136.1084,-40.2832,186,1.4097,1.5538,14.3983,-39.4545,29,0.1331,8820,3.8742,71.5767
lg,1625503323674501487,0,-0.0896,-0.8279,0.6497,59,42.2974,127.2583,-54.4434,186,1.4237,1.5548,15.8517,-39.4727,29,0.1321,8656,3.8742,66.1188
lg,1625503323674519191,0,-0.0469,-0.8372,0.6587,60,60.3027,112.4878,-84.1064,186,1.4157,1.5538,16.6715,-39.1552,29,0.1291,8887,3.8742,60.2995
lg,1625503323674536376,0,-0.1604,-0.7947,0.2539,61,71.0449,105.2856,-119.751,186,1.4037,1.5518,16.7486,-39.5002,29,0.1251,9250,3.8742,53.2847
lg,1625503323674553431,0,-0.2498,-0.5171,0.262,62,60.9131,66.8335,-81.604,186,1.4017,1.5488,17.0416,-39.2163,29,0.1251,9870,3.8742,48.6269
lg,1625503323674570561,0,-0.2502,-0.4197,0.5596,63,19.3481,129.8828,39.2456,186,1.4037,1.5468,22.1356,-39.0759,29,0.1271,8937,3.8742,46.4581
lg,1625503323674588376,0,-0.6494,-0.9331,1.011,64,-36.438,114.9902,75.5615,186,1.4097,1.5478,27.6919,-40.9615,29,0.1271,8248,3.8742,45.6826
lg,1625503324061484450,0,-0.8147,-0.5784,0.7942,65,-29.3579,-124.7559,105.5298,186,1.3997,1.5498,26.9826,-38.567,29,0.1251,26864,3.8742,53.0483
lg,1625503324061530190,0,-0.1892,-0.5994,0.9465,66,-92.6514,-292.8467,132.8125,186,1.3787,1.5498,20.3641,-37.0172,29,0.1251,14635,3.8742,65.5417
lg,1625503324061550746,0,0.072,-0.8989,0.2119,67,-74.0356,-331.604,59.8755,186,1.3767,1.5498,10.6514,-38.6786,29,0.1251,8354,3.8742,75.3905
lg,1625503324061571320,0,0.2959,-1.072,0.7156,68,-99.7314,-276.1841,56.9458,186,1.3767,1.5508,2.6598,-42.3654,29,0.1251,7634,3.8742,84.2209
lg,1625503324061589579,0,0.3557,-1.0608,0.4321,69,-33.0811,-154.541,23.1323,186,1.3767,1.5518,1.5192,-43.4448,29,0.1251,10324,3.8742,85.8971
lg,1625503324061607431,0,0.136,-0.9661,0.6228,70,22.3999,25.1465,29.8462,186,1.3787,1.5528,2.7401,-43.0706,29,0.1261,8794,3.8742,86.0579
lg,1625503324061625561,0,0.1802,-0.698,0.6113,71,43.7622,48.4009,23.8037,186,1.3837,1.5538,4.2655,-41.5741,29,0.1261,9179,3.8742,85.434
lg,1625503324061643505,0,0.0127,-0.8193,0.6221,72,30.3345,83.313,1.0376,186,1.3947,1.5538,6.5887,-41.0037,29,0.1261,8792,3.8742,83.2175
lg,1625503324061661042,0,-0.1099,-0.874,0.6919,73,37.3535,80.9326,-16.4795,186,1.4137,1.5538,8.568,-40.2715,29,0.1281,8451,3.8742,80.5344
lg,1625503324061681598,0,-0.0125,-0.6826,0.6545,74,47.2412,71.0449,-25.1465,186,1.4317,1.5538,9.0394,-38.8264,29,0.1281,8141,3.8742,77.8751
lg,1625503324061699357,0,-0.1064,-0.7017,0.54,75,29.0527,44.9219,-41.8701,186,1.4347,1.5528,9.3091,-38.5876,29,0.1291,8264,3.8742,75.3286
lg,1625503324061717098,0,-0.1406,-0.7639,0.6089,76,20.9351,50.5371,-23.5596,186,1.4337,1.5528,10.3692,-38.6336,29,0.1321,8508,3.8742,73.2119
lg,1625503324061734431,0,-0.3257,-0.9641,0.8865,77,-22.2168,64.5142,33.5693,186,1.4337,1.5538,13.3479,-39.9786,29,0.1311,7801,3.8742,72.535
lg,1625503324061753135,0,-0.5498,-0.7761,0.6663,78,-27.5269,50.2319,80.2002,186,1.4217,1.5548,17.5331,-41.0932,29,0.1271,9752,3.8742,73.6193
lg,1625503324061770098,0,-0.5615,-0.5134,0.7722,79,-19.7754,-26.6113,75.5615,186,1.4007,1.5538,19.2445,-40.612,29,0.1291,9357,3.8742,76.847
lg,1625503324061788061,0,-0.3816,-0.5703,0.5103,80,-29.6631,-118.4692,41.9312,186,1.3867,1.5518,17.0471,-40.6366,29,0.1311,9095,3.8742,81.3485
lg,1625503324061806431,0,-0.3044,-0.813,0.7664,81,-56.5186,-125.5493,46.0815,186,1.3817,1.5518,14.4323,-41.796,29,0.1301,8294,3.8742,86.1622
lg,1625503324061823839,0,-0.3137,-1.0261,0.6179,82,-28.0151,-115.1733,25.2686,186,1.3807,1.5528,11.7493,-42.6731,29,0.1311,8674,3.8742,89.9496
lg,1625503324061841116,0,-0.0408,-0.8721,0.7036,83,5.7983,-90.7593,22.522,186,1.3817,1.5538,9.3137,-42.1907,29,0.1311,8354,3.8742,93.0513
lg,1625503324061858635,0,0.1394,-0.7607,0.7061,84,7.6904,-90.8203,19.6533,186,1.3877,1.5548,6.579,-42.0005,29,0.1311,7982,3.8742,95.1107
lg,1625503324061877746,0,0.1895,-0.8689,0.6638,85,3.9673,-42.4805,-9.0332,186,1.4027,1.5528,4.4445,-42.1628,29,0.1301,8713,3.8742,95.9413
lg,1625503324062099727,0,0.0671,-0.9478,0.7188,86,20.2026,17.5781,-37.0483,186,1.4237,1.5568,3.672,-41.8787,29,0.1321,8700,3.8742,94.3335
lg,1625503324062129450,0,0.0405,-0.7825,0.6035,87,48.2788,35.0342,-60.73,186,1.4347,1.5558,2.8864,-40.5132,29,0.1311,8235,3.8742,91.5508
lg,1625503324062151376,0,0.0278,-0.7061,0.4951,88,49.9268,31.5552,-63.2935,186,1.4367,1.5548,1.9534,-39.536,29,0.1291,8823,3.8742,88.914
lg,1625503324062172227,0,0.0208,-0.6946,0.4604,89,35.5225,41.9312,-51.5137,186,1.4347,1.5518,1.8146,-38.8575,29,0.1281,8846,3.8742,86.2327
lg,1625503324062193802,0,-0.0627,-0.8201,0.5706,90,23.6206,89.2334,-4.2725,186,1.4327,1.5538,4.5489,-38.6744,29,0.1301,8491,3.8742,83.8365
lg,1625503324062211357,0,-0.3547,-0.9656,0.8271,91,-12.085,98.938,44.7388,186,1.4337,1.5538,9.1634,-39.6913,29,0.1331,8883,3.8742,82.6721
lg,1625503324062233246,0,-0.5537,-0.718,0.7046,92,-11.3525,81.7261,65.5518,186,1.4337,1.5548,13.4971,-40.0861,29,0.1301,8897,3.8742,83.7334
lg,1625503324062250950,0,-0.554,-0.5803,0.7124,93,-16.2964,9.0942,80.5664,186,1.4227,1.5558,16.5295,-40.095,29,0.1301,8931,3.8742,86.0486
lg,1625503324062271542,0,-0.5085,-0.5457,0.7566,94,-41.9922,-90.271,81.8481,186,1.4067,1.5558,16.3651,-40.1768,29,0.1301,8606,3.8742,91.133
lg,1625503324062291968,0,-0.0605,-0.6306,0.5215,95,-44.6777,-189.0869,44.8608,186,1.3977,1.5538,11.3429,-40.816,29,0.1311,8952,3.8742,97.4829
lg,1625503324062313431,0,-0.0288,-1.0308,0.8215,96,-53.2837,-129.3335,33.8745,186,1.3967,1.5548,8.0095,-42.5922,29,0.1301,9020,3.8742,101.9258
lg,1625503324425499801,0,0.2534,-0.7566,0.7402,97,18.4326,11.8408,38.3301,186,1.4027,1.5568,8.5553,-41.8472,29,0.1311,27347,3.8742,102.7258
lg,1625503324425539783,0,0.1377,-0.9238,0.7983,98,20.2026,56.1523,21.6675,186,1.4157,1.5568,10.2141,-41.4626,29,0.1311,10426,3.8742,101.8184
lg,1625503324425559820,0,0.0405,-0.845,0.8027,99,31.8604,92.2852,4.0283,186,1.4357,1.5568,12.6033,-40.8501,29,0.1331,12166,3.8742,99.4197
lg,1625503324425578987,0,0.0024,-0.708,0.7036,100,37.4146,89.4775,-17.9443,186,1.4417,1.5568,14.3411,-40.2127,29,0.1321,10210,3.8742,96.4219
lg,1625503324425598524,0,-0.166,-0.8447,0.6978,101,25.0854,85.144,-24.6582,186,1.4377,1.5548,16.0645,-40.4192,29,0.1321,8456,3.8742,93.254
lg,1625503324425616746,0,-0.4006,-0.8975,0.6448,102,20.6299,91.98,-14.5264,186,1.4377,1.5548,19.4015,-41.3597,29,0.1331,8054,3.8742,90.7951
lg,1625503324425634727,0,-0.4722,-0.8948,0.7922,103,-13.916,81.9702,45.8984,186,1.4407,1.5558,23.1349,-42.5065,29,0.1361,8076,3.8742,89.8089
lg,1625503324425652616,0,-0.4727,-0.6265,0.6536,104,-29.7852,20.0195,86.5479,186,1.4377,1.5568,26.2318,-42.811,29,0.1331,8113,3.8742,91.9906
lg,1625503324425669912,0,-0.239,-0.4353,0.9448,105,-28.3203,-36.377,75.0122,186,1.4247,1.5568,26.6911,-41.5689,29,0.1351,11632,3.8742,95.9052
lg,1625503324425687727,0,-0.3662,-0.8406,0.6646,106,-54.9316,-92.7124,27.4048,186,1.4127,1.5558,24.3884,-42.5872,29,0.1351,7753,3.8742,99.3855
lg,1625503324425705061,0,-0.197,-0.9419,0.739,107,-56.0303,-118.4692,28.8086,186,1.4087,1.5548,21.1501,-43.4886,29,0.1361,8172,3.8742,103.657
lg,1625503324425725690,0,-0.2817,-0.927,0.5229,108,-25.0854,-72.6318,-3.2959,186,1.4077,1.5558,18.7593,-44.466,29,0.1361,8499,3.8742,105.4639
lg,1625503324425743375,0,-0.27,-0.8352,0.6475,109,10.8643,-36.9873,15.3198,186,1.4067,1.5548,17.9579,-43.8462,29,0.1361,8171,3.8742,106.9159
lg,1625503324425760931,0,0.0476,-0.7024,0.6177,110,9.2773,-64.5752,19.104,186,1.4107,1.5568,15.5197,-43.2711,29,0.1371,8587,3.8742,109.1204
lg,1625503324425778635,0,0.0635,-0.793,0.6172,111,-2.4414,-48.2788,5.127,99,1.4197,1.5568,13.5236,-43.3355,29,0.1371,8600,3.9446,110.5506
lg,1625503324425796061,0,0.0339,-0.9258,0.6172,112,7.019,1.709,-8.1787,99,1.4337,1.5588,12.7601,-43.6351,29,0.1371,8626,3.9446,110.1381
lg,1625503324425813153,0,0.0266,-0.8677,0.7644,113,38.6353,34.729,-28.1372,99,1.4437,1.5588,12.4458,-42.6828,29,0.1371,8253,3.9446,108.2739
lg,1625503324425831079,0,0.1016,-0.7566,0.6516,114,48.2788,38.9404,-60.1196,99,1.4377,1.5568,11.2731,-41.6068,29,0.1331,10844,3.9446,105.3221
lg,1625503324425847931,0,0.0159,-0.7878,0.3643,115,41.0767,44.6167,-72.8149,99,1.4287,1.5558,10.2168,-41.5714,29,0.1291,8669,3.9446,101.7021
lg,1625503324425864987,0,-0.0059,-0.7397,0.3711,116,40.7104,49.1333,-57.312,99,1.4227,1.5518,9.8059,-41.3265,29,0.1281,8674,3.9446,98.4839
lg,1625503324425881968,0,-0.0679,-0.7107,0.5625,117,24.292,109.6802,20.3857,99,1.4227,1.5528,13.4063,-41.2302,29,0.1321,8918,3.9446,96.0771
lg,1625503324425899190,0,-0.5334,-0.9109,0.9177,118,-13.2446,120.4834,73.1201,99,1.4257,1.5548,19.275,-42.1846,29,0.1321,8724,3.9446,94.967
lg,1625503324425916412,0,-0.7219,-0.6372,0.6848,119,-24.1699,35.5225,102.6611,99,1.4147,1.5558,23.787,-42.3409,29,0.1291,12367,3.9446,97.1913
lg,1625503324425933172,0,-0.5818,-0.4087,0.9626,120,-40.9546,-74.4629,109.9243,99,1.3907,1.5558,24.7357,-40.8648,29,0.1311,8798,3.9446,103.266
lg,1625503324425950320,0,-0.2944,-0.6094,0.2783,121,-49.4385,-194.8853,31.6772,99,1.3777,1.5548,19.7616,-41.2751,29,0.1311,8455,3.9446,109.4454
lg,1625503324425967338,0,-0.2241,-1.0339,0.9658,122,-92.5903,-188.7817,26.3062,99,1.3747,1.5538,14.1913,-43.6702,29,0.1301,8091,3.9446,115.4305
lg,1625503324425984209,0,0.0657,-1.0032,0.5625,123,-43.6401,-164.0625,-2.1973,99,1.3727,1.5538,8.8109,-45.1518,29,0.1301,8193,3.9446,119.899
lg,1625503324426001357,0,0.0132,-0.9395,0.6633,124,2.8687,-31.9824,-3.2959,99,1.3697,1.5528,7.4507,-45.2924,29,0.1311,10320,3.9446,120.6669
lg,1625503324426018709,0,-0.0256,-0.7329,0.5923,125,14.7705,21.3623,4.2114,99,1.3667,1.5548,7.936,-44.9883,29,0.1321,8549,3.9446,120.144
lg,1625503324426035709,0,-0.1731,-0.7834,0.6055,126,9.2773,50.2319,4.8828,99,1.3747,1.5548,9.5643,-45.0929,29,0.1331,9059,3.9446,118.8029
lg,1625503324426052320,0,-0.1802,-0.8376,0.6626,127,12.3291,37.7197,1.2207,99,1.3857,1.5558,10.6588,-45.0347,29,0.1341,8952,3.9446,117.7085
lg,1625503324426072801,0,-0.1489,-0.834,0.6284,128,12.146,29.8462,-4.5776,99,1.4007,1.5568,10.9661,-45.1248,29,0.1351,8991,3.9446,116.576
lg,1625503324790618764,0,0.01,-0.8528,0.689,129,22.522,-15.686,-40.2222,99,1.4267,1.5568,8.9383,-44.5771,29,0.1331,26276,3.9446,115.8242
lg,1625503324790653116,0,0.0208,-0.8538,0.2681,130,32.7148,-34.9731,-50.1099,99,1.4237,1.5568,6.1781,-44.3973,29,0.1321,13768,3.9446,115.2081
lg,1625503324790673968,0,0.2031,-0.6719,0.4387,131,39.978,-3.6011,23.6816,99,1.4237,1.5558,5.9447,-43.1872,29,0.1331,9688,3.9446,115.9337
lg,1625503324790693060,0,-0.0669,-0.835,1.0088,132,-21.9727,88.3789,78.6743,99,1.4257,1.5578,10.5356,-43.933,29,0.1371,8049,3.9446,115.7817
lg,1625503324790711894,0,-0.4246,-0.8008,0.7144,133,-26.7944,58.2275,116.333,99,1.4107,1.5578,15.8695,-44.7564,29,0.1351,10769,3.9446,117.4832
lg,1625503324790730357,0,-0.4663,-0.6792,0.8635,134,-24.1699,36.8652,124.4507,99,1.3827,1.5568,20.7455,-44.2821,29,0.1341,8439,3.9446,120.2879
lg,1625503324790747838,0,-0.186,-0.2974,1.3604,135,-16.5405,0.9766,91.8579,99,1.3657,1.5548,22.8925,-42.5918,29,0.1351,8073,3.9446,123.5812
lg,1625503324790766042,0,-0.4541,-0.9287,1.2061,136,-52.8564,-77.7588,33.4473,99,1.3617,1.5538,21.289,-43.2255,29,0.1351,8088,3.9446,127.0136
lg,1625503324790783171,0,-0.2834,-0.9897,0.9192,137,-43.5791,-114.7461,27.1606,99,1.3617,1.5538,18.3495,-43.689,29,0.1341,8138,3.9446,131.159
lg,1625503324790801190,0,0.1584,-0.9551,0.7153,138,-21.7896,-113.7695,4.6387,99,1.3657,1.5558,14.2309,-43.9724,29,0.1341,9082,3.9446,134.4687
lg,1625503324790819246,0,0.3416,-0.9124,0.5422,139,2.9297,-25.4517,-4.6997,99,1.3707,1.5568,12.184,-44.2975,29,0.1341,9086,3.9446,134.9182
lg,1625503324790837227,0,-0.0305,-0.9441,0.6101,140,27.71,118.6523,-32.4707,99,1.3937,1.5578,15.1189,-44.557,29,0.1351,12901,3.9446,129.4303
lg,1625503324790854783,0,-0.3164,-0.8459,0.6345,141,42.7246,135.0098,-43.8232,99,1.4147,1.5588,17.7731,-44.6692,29,0.1361,8600,3.9446,124.0856
lg,1625503324790872079,0,-0.2686,-0.6194,0.4211,142,46.5698,49.6216,-53.5889,99,1.4287,1.5588,17.7692,-44.1698,29,0.1371,8665,3.9446,120.8901
lg,1625503324790889838,0,-0.1848,-0.5977,0.3979,143,21.3623,-13.7939,-48.8281,99,1.4327,1.5588,15.8961,-44.0994,29,0.1371,8231,3.9446,119.6853
lg,1625503324790906968,0,-0.1904,-0.7903,0.5674,144,6.2256,1.0986,-23.1934,99,1.4327,1.5588,15.0955,-44.4431,29,0.1361,8254,3.9446,118.8554
lg,1625503324790924042,0,-0.2275,-1.021,0.6028,145,-16.7847,9.5215,35.7666,99,1.4347,1.5598,16.2204,-45.4925,29,0.1401,8785,3.9446,119.4705
lg,1625503324790941783,0,-0.3555,-0.8826,0.7415,146,-28.5645,3.7842,70.6787,99,1.4357,1.5608,18.385,-46.2178,29,0.1371,8794,3.9446,121.3665
lg,1625503324790958857,0,-0.3594,-0.5452,0.77,147,-27.71,-31.5552,85.2661,99,1.4227,1.5598,20.0682,-45.7412,29,0.1381,8718,3.9446,124.9734
lg,1625503324790976338,0,-0.0935,-0.3589,0.9697,148,-21.4844,-75.9888,66.7114,99,1.4097,1.5568,19.2954,-44.1126,29,0.1401,7969,3.9446,129.6118
lg,1625503324790993616,0,-0.1519,-0.7129,0.7241,149,-58.96,-121.8872,30.2124,99,1.4027,1.5568,16.2649,-45.0952,29,0.1411,9747,3.9446,134.1153
lg,1625503324791013949,0,-0.1694,-0.9529,0.5178,150,-37.7808,-103.4546,29.6021,99,1.3997,1.5538,13.9649,-46.2233,29,0.1411,10303,3.9446,137.8618
lg,1625503324791032060,0,-0.0752,-0.9929,0.739,151,6.3477,-41.5039,37.9639,99,1.3987,1.5568,13.4969,-45.6983,29,0.1421,8906,3.9446,140.1068
lg,1625503324791049801,0,0.1565,-0.697,0.6602,152,16.8457,-16.6016,39.3066,99,1.4017,1.5578,13.2663,-44.6759,29,0.1421,8446,3.9446,141.7129
lg,1625503324791066931,0,0.1614,-0.7205,0.6306,153,8.9722,6.4697,32.959,99,1.4077,1.5598,13.8651,-44.7004,29,0.1431,8480,3.9446,141.5551
lg,1625503324791084560,0,0.094,-0.9287,0.6978,154,10.498,38.4521,13.855,99,1.4197,1.5598,14.6235,-44.7866,29,0.1431,8845,3.9446,140.7595
lg,1625503324791101746,0,0.0383,-0.8994,0.76,155,26.1841,68.4204,-11.9019,99,1.4297,1.5608,15.5789,-44.5482,29,0.1431,8882,3.9446,138.3594
lg,1625503324791119097,0,-0.0325,-0.7764,0.5564,156,46.814,78.125,-43.8232,99,1.4377,1.5598,16.0502,-44.0474,29,0.1421,8561,3.9446,134.6753
lg,1625503324791135912,0,-0.1467,-0.6938,0.3623,157,43.5791,59.3262,-52.5513,99,1.4377,1.5588,15.8242,-43.9344,29,0.1401,8568,3.9446,132.0687
lg,1625503324791152746,0,-0.1472,-0.6965,0.5422,158,30.9448,49.0723,-15.5029,99,1.4377,1.5578,16.557,-43.5454,29,0.1421,8950,3.9446,130.0966
lg,1625503324791170079,0,-0.3811,-0.9993,0.8152,159,-10.1929,81.2378,49.3774,99,1.4387,1.5598,20.2453,-44.5095,29,0.1451,8240,3.9446,129.1237
lg,1625503324791187320,0,-0.5344,-0.7463,0.678,160,-15.1367,25.2075,76.0498,99,1.4247,1.5598,23.3897,-44.6392,29,0.1421,8280,3.9446,130.6494
lg,1625503325159453912,0,-0.1882,-0.7766,0.5435,161,-51.3306,-176.6357,24.7803,99,1.3807,1.5548,18.6389,-44.9217,29,0.1411,27685,3.9446,136.5715
lg,1625503325159503597,0,-0.0308,-1.1147,0.6248,162,-43.6401,-137.3901,20.2637,99,1.3767,1.5548,14.733,-45.9481,29,0.1401,11813,3.9446,141.0572
lg,1625503325159533912,0,0.1724,-1.0068,0.6562,163,7.6904,-47.6074,17.7002,99,1.3747,1.5548,13.0452,-45.6117,29,0.1401,8063,3.9446,142.8591
lg,1625503325159563208,0,0.2117,-0.8113,0.6758,164,27.6489,35.9497,18.7988,99,1.3787,1.5558,13.647,-44.7999,29,0.1421,10283,3.9446,142.3023
lg,1625503325159590505,0,0.0522,-0.8354,0.6492,165,31.25,76.1108,5.6152,99,1.3897,1.5578,15.3175,-44.3542,29,0.1421,8405,3.9446,140.1819
lg,1625503325159617671,0,-0.1418,-0.8223,0.7251,166,40.2832,98.938,-8.5449,99,1.4097,1.5588,17.59,-43.7966,29,0.1421,8486,3.9446,137.0038
lg,1625503325159645023,0,-0.1731,-0.771,0.7737,167,41.748,82.2144,-37.5977,99,1.4247,1.5598,18.5823,-43.263,29,0.1421,8390,3.9446,133.458
lg,1625503325159671912,0,-0.0571,-0.738,0.6245,168,47.3633,48.8281,-74.4019,99,1.4257,1.5598,17.3802,-42.7731,29,0.1391,8188,3.9446,129.6842
lg,1625503325159698356,0,-0.064,-0.9043,0.4773,169,40.7104,39.1846,-102.6001,99,1.4247,1.5588,15.2203,-43.115,29,0.1341,10302,3.9446,125.2147
lg,1625503325159724931,0,-0.0461,-0.8882,0.2515,170,51.6357,23.8647,-86.5479,99,1.4257,1.5568,12.7992,-42.8765,29,0.1331,8574,3.9446,121.6645
lg,1625503325159750931,0,0.1628,-0.5891,0.4783,171,40.7104,41.8091,-14.0381,99,1.4257,1.5558,12.6968,-41.9125,29,0.1361,8529,3.9446,120.0017
lg,1625503325159777931,0,-0.3391,-0.8503,0.856,172,-20.3857,146.0571,42.8467,99,1.4287,1.5568,18.2356,-43.5796,29,0.1371,8147,3.9446,117.1583
lg,1625503325159803653,0,-0.6204,-0.8843,0.8433,173,-23.5596,141.8457,64.5142,99,1.4287,1.5578,23.9231,-44.7412,29,0.1341,8141,3.9446,116.5381
lg,1625503325159829597,0,-0.8701,-0.6472,0.8604,174,-19.8975,29.6021,77.2705,99,1.4127,1.5568,27.5173,-44.5985,29,0.1311,8515,3.9446,118.1608
lg,1625503325159859042,0,-0.6658,-0.3982,0.9309,175,-47.1191,-127.3804,71.7163,99,1.3897,1.5578,26.1191,-42.8538,29,0.1341,8545,3.9446,124.8072
lg,1625503325159886634,0,-0.2119,-0.5081,0.2671,176,-50.5981,-264.7705,29.1748,99,1.3817,1.5578,18.9872,-42.301,29,0.1341,8230,3.9446,133.1529
lg,1625503325159963931,0,-0.0962,-0.7498,0.5686,177,-89.6606,-263.0005,23.7427,99,1.3797,1.5568,11.5165,-44.1411,29,0.1331,8619,3.9446,141.1918
lg,1625503325159997801,0,0.0779,-1.0984,0.6145,178,-59.2041,-175.4761,11.6577,99,1.3807,1.5588,6.3584,-46.303,29,0.1331,8646,3.9446,146.448
lg,1625503325160025579,0,0.0859,-1.095,0.71,179,-15.3809,-66.1621,8.3008,99,1.3807,1.5598,4.3999,-47.1238,29,0.1331,8351,3.9446,148.5707
lg,1625503325160053005,0,0.2366,-0.7498,0.7087,180,21.6064,-1.5259,26.062,99,1.3807,1.5588,4.4387,-46.1725,29,0.1331,8744,3.9446,149.3262
lg,1625503325160079412,0,0.1296,-0.7122,0.6228,181,15.1978,40.8325,18.9209,99,1.3847,1.5588,5.6291,-45.7172,29,0.1341,8682,3.9446,148.6617
lg,1625503325160123893,0,-0.1101,-0.8376,0.5967,182,3.7842,72.998,17.6392,99,1.3947,1.5598,8.1748,-46.0986,29,0.1351,8699,3.9446,147.0045
lg,1625503325160152319,0,-0.1885,-0.9097,0.6282,183,4.9438,50.9033,18.6157,99,1.4127,1.5608,10.1729,-46.4106,29,0.1371,8890,3.9446,145.9804
lg,1625503325160178912,0,-0.1074,-0.8765,0.5825,184,8.9722,12.6953,18.1274,99,1.4267,1.5618,10.877,-46.4156,29,0.1381,8742,3.9446,146.0432
lg,1625503325160204097,0,0.0698,-0.8596,0.6094,185,16.2354,-8.9722,8.9722,99,1.4387,1.5608,10.3161,-45.9934,29,0.1381,12256,3.9446,146.4949
lg,1625503325160230319,0,0.1316,-0.8044,0.3748,186,21.2402,-15.3809,-17.1509,99,1.4417,1.5608,8.6883,-45.8849,29,0.1391,9224,3.9446,146.3271
lg,1625503325160259708,0,0.1833,-0.7612,0.3467,187,9.7656,-20.874,8.728,99,1.4427,1.5618,7.565,-46.1173,29,0.1411,8877,3.9446,147.0662
lg,1625503325160286931,0,0.1172,-0.8159,0.7283,188,-5.4932,4.2725,32.8369,99,1.4467,1.5618,9.5172,-46.6873,29,0.1421,8453,3.9446,146.8918
lg,1625503325160312653,0,-0.0518,-0.8267,0.7083,189,-5.0659,78.3081,47.3022,99,1.4437,1.5618,12.7521,-47.1842,29,0.1421,8497,3.9446,145.8516
lg,1625503325160339838,0,-0.3521,-0.6755,0.6694,190,15.8081,82.8247,48.0957,99,1.4377,1.5618,16.6972,-46.7593,29,0.1421,8911,3.9446,144.7165
lg,1625503325160366893,0,-0.5479,-0.6062,0.7986,191,30.2734,57.7393,22.3999,99,1.4367,1.5618,19.4052,-45.5309,29,0.1431,8943,3.9446,143.7223
lg,1625503325160394912,0,-0.5815,-0.7527,0.9058,192,5.4932,-14.2212,20.9351,99,1.4397,1.5618,19.8692,-44.7259,29,0.1421,9431,3.9446,144.8573
lg,1625503325541603856,0,0.0525,-0.8677,0.8013,193,2.8687,-73.2422,-16.6626,99,1.4487,1.5608,16.6079,-44.4799,29,0.1421,26371,3.9446,145.6176
lg,1625503325541637264,0,0.0012,-0.7661,0.3872,194,16.8457,-34.729,-54.8096,99,1.4477,1.5588,13.4664,-44.7088,29,0.1401,12982,3.9446,144.803
lg,1625503325541657653,0,-0.0664,-0.5615,0.46,195,13.4277,0.4272,-7.5073,99,1.4487,1.5578,12.9426,-44.457,29,0.1441,10723,3.9446,144.5158
lg,1625503325541677541,0,-0.3308,-0.8711,0.9119,196,-42.1753,37.9028,69.0308,99,1.4497,1.5578,16.0265,-45.8729,29,0.1431,7643,3.9446,145.4168
lg,1625503325541696430,0,-0.7039,-0.9282,0.6396,197,-53.833,39.917,100.2808,99,1.4317,1.5588,20.9222,-47.4183,29,0.1371,8359,3.9446,147.8698
lg,1625503325541714782,0,-0.7588,-0.7312,0.7068,198,-43.7012,-11.2305,118.1641,99,1.4067,1.5588,24.713,-47.6161,29,0.1391,8051,3.9446,151.704
lg,1625503325541733153,0,-0.1799,-0.2368,0.4626,199,-30.0293,-173.8892,39.1846,99,1.3877,1.5578,20.9192,-45.4083,29,0.1381,8390,3.9446,158.6981
lg,1625503325541750597,0,0.0269,-1.0034,0.709,200,-118.2251,-256.7139,41.1987,99,1.3857,1.5568,14.2672,-47.7804,29,0.1371,8622,3.9446,167.5724
lg,1625503325541768097,0,0.1455,-1.2327,0.4031,201,-96.0083,-237.0605,30.8228,99,1.3847,1.5578,10.3988,-50.0993,29,0.1361,8516,3.9446,-186.9381
lg,1625503325541785986,0,0.4136,-1.1619,0.5862,202,6.7749,-59.082,47.3633,99,1.3837,1.5578,9.2776,-49.7905,29,0.1371,11306,3.9446,-183.9596
lg,1625503325541829078,0,0.5203,-0.9097,0.575,203,24.5972,-12.6343,54.1382,99,1.3827,1.5578,9.2096,-48.8191,29,0.1381,8527,3.9446,-182.2086
lg,1625503325541848078,0,0.3096,-0.8362,0.4814,204,28.1982,101.1963,36.3159,99,1.3847,1.5588,11.9299,-48.5016,29,0.1381,8148,3.9446,-184.4064
lg,1625503325541865782,0,-0.012,-0.9053,0.5706,205,35.7056,123.8403,25.0854,99,1.3877,1.5588,15.5075,-48.1843,29,0.1401,8183,3.9446,-187.6171
lg,1625503325541883856,0,-0.0991,-0.793,0.6318,206,48.5229,117.4316,18.1274,99,1.3977,1.5598,18.787,-47.2955,29,0.1411,12283,3.9446,169.209
lg,1625503325541900690,0,-0.1138,-0.7073,0.6819,207,43.6401,104.126,5.8594,99,1.4107,1.5598,21.301,-46.5443,29,0.1421,8236,3.9446,166.1493
lg,1625503325541918060,0,-0.1338,-0.7515,0.75,208,40.5273,99.1211,0.9155,99,1.4227,1.5598,23.1945,-45.9419,29,0.1401,8646,3.9446,163.2303
lg,1625503325541935171,0,-0.1023,-0.7202,0.761,209,43.7622,81.2988,-11.1694,99,1.4267,1.5588,24.4446,-45.2429,29,0.1411,8243,3.9446,160.3843
lg,1625503325541951856,0,-0.166,-0.7886,0.7605,210,37.4146,78.4302,-31.6162,99,1.4257,1.5578,25.1181,-45.2147,29,0.1381,8649,3.9446,156.9341
lg,1625503325541968449,0,-0.3037,-0.8804,0.6882,211,38.3911,88.9282,-28.5034,99,1.4227,1.5568,26.3981,-45.5684,29,0.1361,9065,3.9446,153.1097
lg,1625503325541985319,0,-0.3413,-0.678,0.5969,212,31.7993,52.6733,-16.9067,99,1.4207,1.5558,27.1534,-45.4143,29,0.1381,8928,3.9446,150.8388
lg,1625503325542002078,0,-0.4067,-0.6465,0.7026,213,5.3711,25.4517,-6.5308,99,1.4247,1.5548,27.5099,-45.5433,29,0.1411,8760,3.9446,149.8715
lg,1625503325542018856,0,-0.5415,-0.6919,0.6699,214,-30.9448,-28.1982,24.4751,99,1.4287,1.5558,27.4954,-46.0027,29,0.1411,8756,3.9446,151.5528
lg,1625503325542036245,0,-0.5098,-0.6882,0.8423,215,-39.7339,-71.9604,52.9785,99,1.4197,1.5568,26.9215,-45.4804,29,0.1381,8779,3.9446,155.669
lg,1625503325542053412,0,-0.4343,-0.7439,0.8057,216,-49.6216,-113.2812,50.7812,99,1.4027,1.5588,24.9803,-45.0688,29,0.1381,8450,3.9446,160.9005
lg,1625503325542070338,0,-0.2024,-0.7288,0.8623,217,-57.9224,-152.8931,39.2456,99,1.3957,1.5578,20.8411,-44.9115,29,0.1381,9094,3.9446,166.8723
lg,1625503325542087041,0,-0.0066,-0.7834,0.3167,218,-47.4854,-208.8623,-19.165,99,1.3907,1.5558,13.7517,-46.0401,29,0.1381,8839,3.9446,-187.7739
lg,1625503325542103967,0,0.0657,-0.9492,0.5212,219,-49.6826,-111.084,-15.5029,99,1.3887,1.5578,9.6304,-48.025,29,0.1391,8912,3.9446,-185.0118
lg,1625503325542135893,0,-0.1704,-0.9392,0.3286,220,-3.6011,-6.6528,-0.1831,99,1.3897,1.5578,9.4786,-49.0012,29,0.1391,8903,3.9446,-184.9601
lg,1625503325542154541,0,-0.0496,-0.7986,0.5908,221,35.8276,14.6484,47.7295,99,1.3917,1.5588,11.0273,-47.5904,29,0.1381,10910,3.9446,-184.1507
lg,1625503325542171504,0,0.1802,-0.7317,0.6992,222,16.5405,7.5684,49.7437,99,1.4047,1.5608,11.8682,-46.64,29,0.1401,8997,3.9446,-182.9966
lg,1625503325542188578,0,0.3074,-1.0034,0.7048,223,7.0801,-0.8545,24.7192,90,1.4237,1.5618,11.5726,-46.5249,29,0.1421,8968,3.96,-182.3473
lg,1625503325542206597,0,0.3325,-1.01,0.7593,224,15.0146,16.1743,2.0142,90,1.4407,1.5618,11.1929,-45.9421,29,0.1411,9032,3.96,-184.2271
lg,1625503325910279634,0,0.0857,-0.7349,0.4509,225,21.7285,79.0405,-36.9263,90,1.4477,1.5608,14.4333,-46.7062,29,0.1451,26754,3.96,-187.1331
lg,1625503325910336504,0,-0.2693,-0.7913,0.655,226,-8.3008,147.522,58.5938,90,1.4337,1.5608,20.1286,-48.0308,29,0.1411,8364,3.96,169.936
lg,1625503325910357060,0,-0.7976,-0.4895,0.905,227,45.8984,105.0415,39.1846,90,1.4137,1.5598,24.825,-46.3682,29,0.1431,12766,3.96,167.9847
lg,1625503325910376467,0,-0.7363,-0.49,0.8682,228,-39.3066,-92.9565,6.1646,90,1.4007,1.5598,22.9325,-46.0769,29,0.1421,9553,3.96,171.3685
lg,1625503325910465282,0,-0.3923,-0.8398,0.561,229,-64.9414,-183.6548,27.2827,90,1.3967,1.5588,18.6332,-46.751,29,0.1411,10307,3.96,-182.2847
lg,1625503325910488004,0,-0.231,-1.0127,0.5759,230,-55.6641,-165.9546,37.1094,90,1.3957,1.5598,14.9662,-47.7291,29,0.1411,7769,3.96,-176.3105
lg,1625503325910506800,0,0.3528,-1.0437,0.7041,231,-14.5874,-127.0752,63.1714,90,1.3957,1.5598,12.2642,-47.3013,29,0.1401,8511,3.96,-170.7867
lg,1625503325910525689,0,0.7856,-0.968,0.7273,232,9.0942,-19.5312,40.8325,90,1.3997,1.5608,11.3175,-46.7761,29,0.1401,8140,3.96,-169.1189
lg,1625503325910544967,0,0.7893,-0.9978,0.6316,233,18.5547,41.1987,18.3105,90,1.4097,1.5608,11.5065,-46.5949,29,0.1421,8693,3.96,-169.9225
lg,1625503325910563078,0,0.4414,-1.031,0.6394,234,45.9595,178.2837,-39.7339,90,1.4287,1.5628,14.0433,-46.6156,29,0.1431,8377,3.96,-176.4468
lg,1625503325910595004,0,0.01,-1.0015,0.6904,235,77.5146,270.1416,-94.9097,90,1.4347,1.5618,18.0765,-46.9034,29,0.1411,8401,3.96,-187.4053
lg,1625503325910613541,0,-0.0833,-0.9187,0.6194,236,97.29,263.0005,-114.8071,90,1.4277,1.5598,20.3574,-47.1866,29,0.1361,7942,3.96,161.178
lg,1625503325910631800,0,-0.1763,-0.8098,0.3796,237,88.4399,223.7549,-143.3105,90,1.4157,1.5548,21.7568,-48.4119,29,0.1301,9308,3.96,149.7247
lg,1625503325910648967,0,-0.425,-0.7144,0.1853,238,63.0493,194.5801,-135.7422,90,1.4147,1.5438,23.0312,-50.7519,29,0.1281,9749,3.96,139.1595
lg,1625503325910666486,0,-0.6016,-0.3215,0.4265,239,40.0391,182.5562,-34.5459,90,1.4167,1.5368,27.4673,-51.8456,29,0.1281,8256,3.96,132.0524
lg,1625503325910684560,0,-0.7239,-0.405,0.6194,240,0.9766,154.2358,51.6357,90,1.4197,1.5337,33.5104,-53.3438,29,0.1301,7984,3.96,128.0809
lg,1625503325910702689,0,-0.8589,-0.7109,0.99,241,-26.5503,106.3232,56.4575,90,1.4227,1.5347,37.9075,-55.2331,29,0.1311,7991,3.96,125.8235
lg,1625503325910719467,0,-1.0266,-0.9866,0.6941,242,-39.856,-40.4053,80.3223,90,1.4247,1.5368,39.6893,-54.2323,29,0.1311,8029,3.96,129.9164
lg,1625503325910736078,0,-0.8647,-0.781,0.7549,243,-55.1147,-173.3398,91.4917,90,1.4217,1.5408,38.294,-49.8231,29,0.1291,8109,3.96,140.0806
lg,1625503325910785763,0,-0.8491,-0.7056,0.7034,244,-67.749,-206.7871,99.4263,90,1.4067,1.5438,35.7932,-45.6769,29,0.1281,8776,3.96,151.2352
lg,1625503325910807300,0,-0.5586,-0.667,0.6914,245,-99.2432,-327.8198,137.6343,90,1.3867,1.5448,29.8868,-41.163,29,0.1291,8834,3.96,166.7135
lg,1625503325910824375,0,0.2874,-0.5774,0.7075,246,-79.4678,-421.6919,109.375,90,1.3857,1.5468,18.0954,-37.9929,29,0.1301,8405,3.96,-177.9702
lg,1625503325910841986,0,0.5632,-0.9775,0.5496,247,-76.8433,-398.7427,68.3594,90,1.3877,1.5478,8.1302,-41.3893,29,0.1311,8149,3.96,-168.0122
lg,1625503325910859449,0,0.6731,-1.1226,0.5696,248,-104.4312,-262.5732,19.5923,90,1.3897,1.5478,-0.2123,-45.7369,29,0.1311,8842,3.96,-160.2695
lg,1625503325910876523,0,0.584,-1.2935,0.3879,249,-34.1797,-44.5557,-25.3296,90,1.3927,1.5498,-3.0547,-48.0597,29,0.1331,8897,3.96,-159.636
lg,1625503325910893560,0,0.5837,-1.0886,0.5271,250,45.7153,74.8901,-23.9868,90,1.3957,1.5518,-2.6223,-46.6512,29,0.1351,8955,3.96,-162.4787
lg,1625503325910911060,0,-0.0898,-0.7239,0.425,251,71.8384,238.4033,-62.6831,90,1.4017,1.5538,2.5792,-44.2834,30,0.1351,13917,3.96,-170.9893
lg,1625503325910928263,0,-0.2869,-0.7129,0.5098,252,66.7114,237.915,-60.73,90,1.4127,1.5548,8.6875,-42.6744,30,0.1351,8968,3.96,-179.3195
lg,1625503325910945319,0,-0.5032,-0.6965,0.6123,253,57.1899,165.8325,-41.5039,90,1.4287,1.5538,13.227,-41.6888,30,0.1351,8592,3.96,-185.1311
lg,1625503325910961930,0,-0.3809,-0.6731,0.7126,254,54.1992,52.6123,-35.4614,90,1.4407,1.5538,14.1923,-40.1755,30,0.1371,8247,3.96,-187.6619
lg,1625503325910979930,0,-0.1824,-0.6772,0.6335,255,49.0112,8.9722,-34.4238,90,1.4447,1.5528,12.7768,-38.8643,29,0.1371,8296,3.96,-188.2469
lg,1625503325910997060,0,-0.0608,-0.7388,0.6392,256,37.1094,-23.8037,-23.0103,90,1.4417,1.5518,11.4744,-37.9888,29,0.1371,9530,3.96,-188.4838
lg,1625503326265233467,0,-0.2124,-0.7634,0.8093,257,-20.752,13.2446,81.2988,90,1.4447,1.5538,14.4849,-39.1777,29,0.1421,27961,3.96,-185.4716
lg,1625503326265267985,0,-0.4446,-0.8003,0.697,258,-46.9971,-20.6909,112.0605,90,1.4277,1.5548,16.4898,-40.0491,29,0.1391,8452,3.96,-180.2888
lg,1625503326265288171,0,-0.4709,-0.5798,0.9695,259,-50.2319,-97.4121,156.7383,90,1.3957,1.5548,17.7618,-39.4398,29,0.1381,11148,3.96,-172.5444
lg,1625503326265307134,0,-0.0742,-0.4514,1.2798,260,-41.2598,-147.583,137.0239,90,1.3867,1.5528,16.0578,-37.8449,29,0.1361,7753,3.96,-163.9835
lg,1625503326265325504,0,0.1282,-1.1277,1.2927,261,-92.7734,-226.8677,80.0781,90,1.3887,1.5518,10.2452,-39.7577,29,0.1371,10027,3.96,-155.6196
lg,1625503326265344430,0,0.6184,-1.0676,0.4836,262,-64.6362,-243.5913,19.5312,90,1.3927,1.5528,2.102,-42.4497,29,0.1371,7863,3.96,-148.7259
lg,1625503326265362893,0,0.5671,-1.041,0.1177,263,-51.5137,-139.0991,-14.0991,90,1.3957,1.5548,-0.6817,-44.4046,29,0.1381,8106,3.96,-148.9196
lg,1625503326265380615,0,0.4958,-1.073,0.345,264,21.6064,72.4487,-30.3955,90,1.4057,1.5568,-0.3659,-44.4753,29,0.1391,9304,3.96,-151.8091
lg,1625503326265398689,0,0.0964,-0.9153,0.5378,265,74.3408,229.4312,-43.2739,90,1.4217,1.5578,4.8771,-42.3921,29,0.1391,9010,3.96,-159.3736
lg,1625503326265415578,0,-0.2686,-0.7058,0.6697,266,89.8438,258.5449,-55.9692,90,1.4377,1.5588,11.5382,-40.188,29,0.1411,8426,3.96,-167.9516
lg,1625503326265433134,0,-0.4021,-0.4863,0.6313,267,77.5146,178.3447,-60.2417,90,1.4477,1.5588,16.0857,-38.555,29,0.1421,8340,3.96,-174.4948
lg,1625503326265450022,0,-0.4941,-0.5154,0.5281,268,51.2695,124.1455,-64.8804,90,1.4517,1.5538,19.03,-38.3157,29,0.1421,7887,3.96,-179.9157
lg,1625503326265467041,0,-0.5913,-0.6963,0.6108,269,15.8081,47.6074,-34.0576,90,1.4477,1.5548,20.1975,-38.848,29,0.1411,8400,3.96,-182.4286
lg,1625503326265483967,0,-0.6492,-0.875,0.6572,270,-16.6626,-4.5776,24.7803,90,1.4487,1.5568,21.1098,-39.6838,29,0.1451,8682,3.96,-181.6632
lg,1625503326265504189,0,-0.6206,-0.9658,0.8657,271,-42.1753,-49.6826,61.2183,90,1.4517,1.5588,21.3027,-40.5161,29,0.1441,8302,3.96,-178.4175
lg,1625503326265522115,0,-0.2356,-0.6433,0.8987,272,-53.1616,-165.5884,122.9858,90,1.4327,1.5588,19.0497,-39.4758,29,0.1431,13657,3.96,-169.8007
lg,1625503326265539967,0,-0.0093,-0.6602,0.3076,273,-32.8979,-197.3267,61.8896,90,1.4227,1.5568,13.936,-39.7433,29,0.1431,8291,3.96,-162.8997
lg,1625503326265557856,0,0.0608,-0.8689,0.7539,274,-76.2329,-200.9888,47.7905,90,1.4177,1.5568,7.6502,-41.4977,29,0.1421,9080,3.96,-155.9421
lg,1625503326265590726,0,0.4041,-1.0183,0.5894,275,-39.856,-174.4995,22.8882,90,1.4167,1.5578,2.1403,-43.2934,29,0.1421,8471,3.96,-150.6175
lg,1625503326265609985,0,0.2627,-1.0586,0.4866,276,-15.8691,1.2817,-16.5405,90,1.4157,1.5578,1.1414,-44.76,29,0.1431,8080,3.96,-151.1528
lg,1625503326265627559,0,0.2222,-0.9363,0.5352,277,33.9966,69.0308,-0.6104,90,1.4167,1.5588,2.5846,-44.0516,29,0.1451,8603,3.96,-153.1237
lg,1625503326265645022,0,0.1431,-0.8242,0.5173,278,45.7153,104.0649,-3.2349,90,1.4197,1.5598,5.0695,-42.9535,29,0.1461,8506,3.96,-156.1242
lg,1625503326265663726,0,-0.1555,-0.7163,0.614,279,51.3306,181.3965,-11.9629,90,1.4237,1.5608,10.2415,-41.8556,29,0.1451,8130,3.96,-161.4395
lg,1625503326265681208,0,-0.3774,-0.6692,0.6333,280,39.7949,143.3716,-9.2163,90,1.4347,1.5608,14.7304,-41.3373,29,0.1451,8891,3.96,-165.6529
lg,1625503326265718948,0,-0.3806,-0.6858,0.6924,281,30.3955,105.4077,-8.7891,90,1.4427,1.5618,16.8632,-40.9761,29,0.1451,8544,3.96,-167.7469
lg,1625503326265741430,0,-0.2747,-0.7056,0.7598,282,26.5503,31.9214,0.7324,90,1.4517,1.5598,17.7622,-40.2355,29,0.1461,8673,3.96,-168.6167
lg,1625503326265759874,0,-0.0662,-0.7268,0.6477,283,29.48,-9.8877,-4.9438,90,1.4537,1.5598,16.7935,-39.3517,29,0.1451,8205,3.96,-168.6143
lg,1625503326265777597,0,-0.0562,-0.8438,0.6858,284,14.2822,11.1694,-18.7988,90,1.4507,1.5578,16.1256,-39.5013,29,0.1431,8620,3.96,-169.6513
lg,1625503326265795485,0,-0.1929,-0.8135,0.4995,285,16.4795,23.5596,-14.4653,90,1.4487,1.5568,16.5912,-39.8435,29,0.1441,8760,3.96,-170.3656
lg,1625503326265812356,0,-0.1958,-0.783,0.5923,286,-3.7842,15.2588,27.2827,90,1.4497,1.5568,17.5594,-40.3741,29,0.1481,8657,3.96,-170.0544
lg,1625503326265830115,0,-0.3506,-0.7756,0.6777,287,-44.4946,-1.77,79.9561,90,1.4487,1.5598,19.6528,-41.6444,29,0.1491,8305,3.96,-167.5633
lg,1625503326265847671,0,-0.4814,-0.6274,0.5615,288,-49.4995,-47.9126,110.8398,90,1.4327,1.5608,21.5875,-42.1226,29,0.1451,9104,3.96,-162.7535
lg,1625503326622427152,0,-0.2246,-0.7832,1.0056,289,-47.7905,-145.2026,59.6313,90,1.4017,1.5578,18.043,-42.0741,29,0.1461,25676,3.96,-156.7667
lg,1625503326622469504,0,0.2751,-1.0984,0.7351,290,-49.7437,-157.6538,-0.8545,90,1.4067,1.5588,12.3109,-43.4527,29,0.1461,12861,3.96,-152.5131
lg,1625503326622489578,0,0.5659,-1.04,0.5371,291,-12.146,-69.5801,-22.7661,90,1.4157,1.5598,9.944,-43.96,29,0.1481,11785,3.96,-153.8268
lg,1625503326622508726,0,0.4524,-0.9932,0.6069,292,27.3438,93.6279,-59.2651,90,1.4267,1.5618,9.8088,-44.152,29,0.1501,7707,3.96,-158.2937
lg,1625503326622528041,0,-0.0183,-0.8745,0.5908,293,53.0396,213.2568,-90.0879,90,1.4417,1.5618,13.0394,-44.2304,29,0.1511,7838,3.96,-167.0654
lg,1625503326622546319,0,-0.4038,-0.6794,0.4558,294,66.5894,180.8472,-92.9565,90,1.4497,1.5618,16.1428,-44.0041,29,0.1511,11482,3.96,-175.1132
lg,1625503326622563356,0,-0.5547,-0.4685,0.5398,295,53.2227,104.9194,-63.1714,90,1.4527,1.5608,18.2552,-43.228,29,0.1511,8481,3.96,-180.0207
lg,1625503326622582448,0,-0.6099,-0.4563,0.4897,296,31.7383,77.3926,-34.5459,90,1.4517,1.5598,20.4788,-43.043,29,0.1511,8118,3.96,-183.3271
lg,1625503326622600911,0,-0.614,-0.7485,0.741,297,-31.9214,1.4648,36.377,90,1.4507,1.5618,21.9015,-43.9953,29,0.1541,8137,3.96,-182.269
lg,1625503326622658337,0,-0.4241,-0.9033,0.7903,298,-59.8755,-98.1445,86.1816,90,1.4477,1.5618,21.4099,-44.495,29,0.1541,8150,3.96,-176.7338
lg,1625503326622678467,0,-0.2983,-0.8345,0.657,299,-60.9131,-136.5356,87.0361,90,1.4437,1.5628,19.7297,-45.0921,29,0.1521,8343,3.96,-170.1848
lg,1625503326622700763,0,-0.2073,-0.7983,0.4326,300,-50.415,-155.5176,94.8486,90,1.4387,1.5628,17.8194,-45.3445,29,0.1521,7823,3.96,-162.9242
lg,1625503326622739800,0,-0.1365,-0.9441,0.6709,301,-15.9912,-125.8545,88.1348,90,1.4387,1.5618,16.3306,-44.4895,29,0.1521,8319,3.96,-156.7135
lg,1625503326622759244,0,-0.0508,-0.9963,0.6611,302,-6.897,-127.8076,78.9185,90,1.4427,1.5628,13.3347,-43.8704,29,0.1501,8586,3.96,-150.9391
lg,1625503326622776911,0,0.4097,-0.9343,0.6367,303,-8.7891,-149.292,49.3164,90,1.4487,1.5638,9.1713,-43.5541,29,0.1491,7896,3.96,-145.3859
lg,1625503326622796837,0,0.6975,-0.9873,0.6614,304,2.8687,-71.8384,18.8599,90,1.4557,1.5638,6.1798,-43.5225,29,0.1521,7876,3.96,-142.906
lg,1625503326622813522,0,0.7039,-0.9553,0.7075,305,22.0947,10.1929,-4.5776,90,1.4607,1.5638,4.9922,-43.013,29,0.1541,7929,3.96,-143.3663
lg,1625503326622833652,0,0.3804,-0.8389,0.5464,306,49.2554,151.6724,-52.4292,90,1.4607,1.5628,7.0332,-42.1481,29,0.1531,8303,3.96,-149.102
lg,1625503326622852300,0,-0.1277,-0.6216,0.4565,307,54.7485,204.4067,-57.4341,90,1.4587,1.5618,11.6526,-41.5921,29,0.1531,7971,3.96,-156.4151
lg,1625503326623943504,0,-0.3955,-0.6079,0.6074,308,36.6211,237.5488,-28.1982,90,1.4587,1.5618,18.7301,-42.1383,29,0.1531,8734,3.96,-163.8613
lg,1625503326624118356,0,-0.8826,-0.813,0.8518,309,-21.3013,204.1626,44.9219,90,1.4437,1.5618,26.5425,-44.8364,29,0.1461,8706,3.96,-168.5766
lg,1625503326624148856,0,-1.0737,-0.6812,0.7734,310,-29.2358,69.2749,63.7207,90,1.4187,1.5628,31.0375,-45.9819,29,0.1471,10844,3.96,-168.7517
lg,1625503326624199559,0,-0.8237,-0.3281,0.3696,311,-16.3574,-116.5771,17.0898,90,1.4017,1.5618,29.3144,-44.3044,29,0.1471,8140,3.96,-164.2787
lg,1625503326624223374,0,-0.4604,-0.6755,0.6145,312,-90.8813,-266.1133,28.3813,90,1.3937,1.5598,22.43,-44.066,29,0.1471,8045,3.96,-155.1978
lg,1625503326624242911,0,-0.1797,-0.8054,0.4343,313,-92.6514,-310.73,34.1187,90,1.3907,1.5568,14.2027,-45.2516,29,0.1471,8090,3.96,-145.2707
lg,1625503326624263170,0,0.2598,-1.1162,0.4221,314,-82.4585,-256.7139,17.1509,90,1.3907,1.5578,6.726,-47.9751,29,0.1471,8125,3.96,-137.4245
lg,1625503326624283319,0,0.5459,-1.2258,0.333,315,-25.3296,-140.0146,14.8926,90,1.3907,1.5578,2.3933,-49.5405,29,0.1471,8196,3.96,-132.9018
lg,1625503326624306541,0,0.615,-1.1338,0.2493,316,6.7749,-65.6128,17.7002,90,1.3937,1.5588,0.086,-50.0839,29,0.1491,8931,3.96,-130.4713
lg,1625503326624328930,0,0.4233,-0.9121,0.397,317,56.2134,81.604,-1.4038,90,1.3977,1.5588,1.2674,-48.4505,29,0.1511,8563,3.96,-133.0021
lg,1625503326624349485,0,0.1611,-0.7444,0.5955,318,72.6318,142.334,-7.8125,90,1.4087,1.5618,4.457,-45.874,29,0.1521,8958,3.96,-137.4118
lg,1625503326624369633,0,-0.0515,-0.7422,0.7043,319,61.3403,141.1133,-16.9678,90,1.4227,1.5618,7.8884,-43.9238,29,0.1521,8935,3.96,-141.9086
lg,1625503326624388041,0,-0.1299,-0.7493,0.6968,320,53.4668,128.418,-21.2402,90,1.4337,1.5618,10.4842,-42.6946,29,0.1511,8640,3.96,-145.479
lg,1625503326994322022,0,-0.0239,-0.7568,0.771,321,50.5981,71.5332,-31.0669,90,1.4327,1.5568,11.4026,-41.2873,29,0.1461,26023,3.96,-148.3884
lg,1625503326994364281,0,-0.1892,-0.593,0.5774,322,42.8467,68.1152,5.3101,90,1.4287,1.5538,13.6522,-40.1037,29,0.1451,11068,3.96,-150.0806
lg,1625503326994385189,0,-0.3621,-0.5852,0.7861,323,30.4565,79.7119,27.4658,90,1.4277,1.5518,18.0245,-39.8358,29,0.1461,10091,3.96,-150.8998
lg,1625503326994430355,0,-0.5134,-0.7666,0.9768,324,-20.4468,85.8154,78.6743,90,1.4317,1.5528,22.8286,-40.5034,29,0.1461,8439,3.96,-150.6848
lg,1625503326994451522,0,-0.6267,-0.8552,0.7209,325,-53.2837,-22.2778,105.3467,90,1.4257,1.5538,25.1715,-41.2914,29,0.1431,8125,3.96,-146.7006
lg,1625503326994470615,0,-0.6221,-0.6484,0.676,326,-50.9644,-105.5908,104.5532,90,1.4087,1.5558,25.0663,-40.6214,29,0.1421,8393,3.96,-140.1866
lg,1625503326994489559,0,-0.5454,-0.6055,0.7842,327,-52.3071,-123.5352,109.5581,90,1.3897,1.5558,24.2727,-39.5784,29,0.1441,7809,3.96,-132.9414
lg,1625503326994507911,0,-0.1641,-0.6748,0.5046,328,-45.9595,-234.314,56.8848,90,1.3847,1.5568,17.2159,-40.251,29,0.1431,11343,3.96,-124.764
lg,1625503326994525096,0,0.321,-1.0935,0.7798,329,-77.8198,-242.4316,42.9077,90,1.3867,1.5568,9.949,-42.0473,29,0.1441,8089,3.96,-117.0336
lg,1625503326994543615,0,0.5164,-1.0923,0.3735,330,-41.626,-122.6196,-22.0947,90,1.3877,1.5588,4.5616,-44.3552,29,0.1451,8143,3.96,-114.4456
lg,1625503326994561670,0,0.4883,-1.1316,0.3652,331,-12.6343,-22.2778,-32.6538,90,1.3917,1.5598,2.0045,-45.8458,29,0.1461,7825,3.96,-114.8
lg,1625503326994579170,0,0.188,-0.998,0.4839,332,44.4946,148.9258,-32.7148,90,1.4007,1.5598,4.7723,-45.0702,29,0.1461,8553,3.96,-120.004
lg,1625503326994596948,0,-0.199,-0.8083,0.6682,333,71.4111,211.1816,-43.5791,90,1.4087,1.5608,9.8121,-43.3391,29,0.1461,7795,3.96,-127.2075
lg,1625503326994614615,0,-0.2693,-0.6775,0.6626,334,69.458,187.9272,-39.1846,90,1.4207,1.5608,13.5538,-41.9994,29,0.1481,8531,3.96,-132.3139
lg,1625503326994632281,0,-0.3567,-0.5364,0.6553,335,49.0723,102.7222,-36.8042,90,1.4307,1.5608,16.0042,-40.9382,29,0.1491,8599,3.96,-136.241
lg,1625503326994649504,0,-0.394,-0.5173,0.5942,336,31.7383,38.6963,-28.8696,90,1.4357,1.5608,16.835,-40.2206,29,0.1511,8223,3.96,-138.2009
lg,1625503326994666485,0,-0.3933,-0.7114,0.7073,337,13.7939,16.6016,-11.6577,92,1.4387,1.5608,17.3606,-40.5479,29,0.1521,8245,3.96,-137.9498
lg,1625503326994683596,0,-0.3838,-0.8345,0.761,338,-28.6255,-15.1978,35.8887,92,1.4397,1.5598,17.9013,-41.4864,29,0.1541,8266,3.96,-136.4765
lg,1625503326994700633,0,-0.3381,-0.9111,0.7764,339,-36.9263,-40.6494,67.8711,92,1.4407,1.5638,18.425,-42.2513,29,0.1561,8665,3.96,-133.3046
lg,1625503326994734096,0,-0.147,-0.6479,0.6855,340,-16.9678,-65.7959,61.3403,92,1.4387,1.5618,17.2811,-41.6397,29,0.1571,13322,3.96,-129.4756
lg,1625503326994754485,0,-0.1497,-0.7568,0.6038,341,-19.2871,-79.1016,51.7578,92,1.4387,1.5618,15.977,-41.7049,29,0.1571,7976,3.96,-125.7806
lg,1625503326994771559,0,-0.0764,-0.9592,0.7183,342,-12.3291,-50.0488,44.4336,92,1.4417,1.5618,15.2011,-41.9114,29,0.1571,8743,3.96,-123.1459
lg,1625503326994788485,0,0.0188,-0.8738,0.6511,343,6.4087,-40.2222,6.6528,92,1.4457,1.5628,13.5621,-41.783,29,0.1581,8805,3.96,-121.9525
lg,1625503326994806337,0,0.1155,-0.7788,0.6692,344,16.7847,-35.8276,-4.8218,92,1.4497,1.5618,11.6819,-41.1314,30,0.1561,8906,3.96,-121.7505
lg,1625503326994824244,0,0.1257,-0.8125,0.6958,345,18.9819,-12.085,-24.1699,92,1.4527,1.5598,9.972,-40.7753,30,0.1521,8980,3.96,-122.2385
lg,1625503326994841522,0,0.0811,-0.8945,0.5884,346,19.3481,9.0332,-36.7432,92,1.4517,1.5578,8.7359,-40.8449,30,0.1501,9194,3.96,-123.7126
lg,1625503326994858763,0,0.1401,-0.7454,0.3193,347,29.541,-9.3384,-23.1323,92,1.4497,1.5558,7.1134,-40.1567,30,0.1501,11631,3.96,-124.2474
lg,1625503326994890226,0,0.0322,-0.7356,0.6672,348,-3.6011,65.6738,29.7852,92,1.4547,1.5568,9.521,-40.7112,30,0.1521,9224,3.96,-125.0947
lg,1625503326994927263,0,-0.3652,-0.9934,0.7529,349,-35.1562,81.7871,85.6934,92,1.4447,1.5598,14.4968,-42.4884,30,0.1481,9542,3.96,-124.7862
lg,1625503326994946504,0,-0.6567,-0.6902,0.6863,350,-28.0762,32.6538,94.2993,92,1.4187,1.5598,18.7624,-43.1291,30,0.1441,9122,3.96,-122.8578
lg,1625503326994964429,0,-0.2847,-0.2185,1.2378,351,-12.3291,-64.1479,77.6978,92,1.4017,1.5588,18.8157,-40.9633,29,0.1451,8572,3.96,-118.1911
lg,1625503326994982207,0,-0.2661,-0.7371,0.8401,352,-22.4609,-140.8691,31.311,92,1.3907,1.5568,14.1457,-42.2148,29,0.1461,9034,3.96,-112.1752
lg,1625503327352663966,0,0.1716,-1.0903,0.6987,353,-13.855,-94.3604,15.2588,92,1.3867,1.5558,11.9416,-42.0076,29,0.1451,27634,3.96,-110.2765
lg,1625503327352698596,0,0.3516,-0.7229,0.5598,354,15.7471,36.5601,14.2212,92,1.3877,1.5568,12.1741,-41.8745,29,0.1461,13944,3.96,-110.9295
lg,1625503327352719096,0,-0.0093,-0.8738,0.6111,355,16.6016,131.0425,4.2114,92,1.3957,1.5588,15.6949,-42.578,29,0.1481,10792,3.96,-114.5474
lg,1625503327352741448,0,-0.2212,-0.8652,0.6833,356,28.4424,142.0288,-0.5493,92,1.4077,1.5598,19.6527,-43.0394,29,0.1501,8224,3.96,-118.7218
lg,1625503327352760244,0,-0.2791,-0.8167,0.6638,357,25.3906,113.3423,-6.2866,92,1.4217,1.5608,22.5691,-43.6102,29,0.1501,8310,3.96,-122.3651
lg,1625503327352778003,0,-0.2383,-0.8123,0.6641,358,20.2637,85.4492,-8.728,92,1.4347,1.5608,24.3885,-44.2301,29,0.1511,8388,3.96,-125.3413
lg,1625503327352795837,0,-0.0857,-0.8262,0.6638,359,18.9819,42.6025,-14.5264,92,1.4427,1.5608,24.4266,-44.4942,29,0.1511,7694,3.96,-127.2303
lg,1625503327352813059,0,-0.0259,-0.9448,0.5793,360,24.7192,54.3213,-49.0112,92,1.4357,1.5588,23.7013,-45.4032,29,0.1481,13009,3.96,-130.6734
lg,1625503327352830096,0,-0.052,-0.9705,0.5396,361,32.3486,66.2842,-53.894,92,1.4317,1.5568,23.2044,-46.241,29,0.1471,7749,3.96,-134.6451
lg,1625503327352846818,0,-0.0371,-0.8599,0.3445,362,54.3213,75.5615,-43.2129,92,1.4307,1.5538,23.2765,-46.4398,29,0.1451,8246,3.96,-138.6895
lg,1625503327352886966,0,0.0791,-0.4438,0.4089,363,58.8989,66.1621,17.2119,92,1.4297,1.5528,24.4436,-44.7504,29,0.1461,10121,3.96,-140.2699
lg,1625503327352906077,0,-0.1028,-0.5935,0.8862,364,-17.2119,119.6899,85.144,92,1.4327,1.5528,29.4815,-45.4446,29,0.1461,8526,3.96,-141.1854
lg,1625503327352923355,0,-0.3975,-0.9087,1.0186,365,-42.3584,132.019,96.9238,92,1.4307,1.5548,35.3651,-47.6921,29,0.1431,8448,3.96,-142.4925
lg,1625503327352940670,0,-0.8105,-0.9307,0.8186,366,-51.4526,54.9316,117.1875,92,1.4087,1.5568,40.2026,-48.6118,29,0.1391,8486,3.96,-140.6395
lg,1625503327352957633,0,-0.864,-0.5078,0.7678,367,-16.9678,-24.292,117.4316,92,1.3837,1.5568,43.1031,-45.193,29,0.1371,8625,3.96,-135.0032
lg,1625503327352975096,0,-0.3879,-0.2007,1.0952,368,-21.4233,-68.5425,107.1167,92,1.3707,1.5558,40.0273,-39.2533,29,0.1371,8634,3.96,-125.8007
lg,1625503327352992318,0,-0.4302,-0.5679,0.5586,369,-58.1665,-230.2856,39.6118,92,1.3687,1.5548,33.3407,-36.6817,29,0.1351,8689,3.96,-117.3455
lg,1625503327353009114,0,-0.022,-1.1023,0.7627,370,-89.0503,-273.1323,24.5972,92,1.3687,1.5548,24.1066,-37.0284,29,0.1361,8351,3.96,-109.4387
lg,1625503327353025707,0,0.2048,-1.1274,0.4839,371,-56.7627,-167.4194,-12.3901,92,1.3747,1.5558,17.4114,-39.037,29,0.1361,8731,3.96,-105.9047
lg,1625503327353042614,0,0.2861,-0.925,0.2744,372,7.6904,-24.4141,-10.8032,92,1.3767,1.5578,15.2283,-39.9157,29,0.1371,8751,3.96,-105.9807
lg,1625503327353060096,0,0.2065,-0.811,0.4126,373,25.3296,55.603,-13.2446,92,1.3827,1.5578,15.5552,-40.3051,29,0.1371,8689,3.96,-108.126
lg,1625503327353077355,0,-0.2107,-0.7283,0.6604,374,40.0391,163.4521,-28.3203,92,1.3957,1.5598,19.6294,-40.6208,29,0.1391,8705,3.96,-113.5652
lg,1625503327353094318,0,-0.4443,-0.7363,0.6243,375,28.2593,107.0557,-30.3955,92,1.4137,1.5608,22.2533,-41.2595,29,0.1421,8761,3.96,-117.6742
lg,1625503327353111374,0,-0.3872,-0.8142,0.7056,376,17.6392,13.4888,-31.25,92,1.4317,1.5608,21.7353,-41.3831,29,0.1421,8418,3.96,-119.1864
lg,1625503327353128800,0,-0.2383,-0.8315,0.7012,377,23.0103,-29.541,-35.8276,92,1.4437,1.5608,19.5434,-40.9185,29,0.1421,8794,3.96,-119.633
lg,1625503327353145651,0,-0.0146,-0.8577,0.5537,378,17.395,-72.2046,-51.6968,92,1.4417,1.5598,15.3197,-40.778,29,0.1401,8454,3.96,-119.5074
lg,1625503327353162596,0,0.0969,-0.9619,0.4263,379,21.9116,-52.4292,-58.96,92,1.4437,1.5588,11.4574,-40.9868,29,0.1401,8119,3.96,-120.1846
lg,1625503327353179707,0,0.1343,-0.9197,0.2859,380,29.7852,-46.6309,-46.4478,92,1.4427,1.5578,7.9107,-40.8738,29,0.1421,8137,3.96,-120.575
lg,1625503327353196744,0,0.2886,-0.6201,0.4207,381,21.7896,-4.1504,19.6533,92,1.4437,1.5558,7.2079,-40.4548,29,0.1451,8161,3.96,-119.947
lg,1625503327353214114,0,0.0413,-0.7778,0.8306,382,-32.6538,87.8296,75.0732,92,1.4437,1.5598,11.4431,-41.8621,29,0.1431,10572,3.96,-120.018
lg,1625503327353244651,0,-0.4768,-0.8169,0.5925,383,-34.1797,107.4219,93.8721,92,1.4247,1.5608,17.6674,-43.7072,29,0.1391,8996,3.96,-120.2955
lg,1625503327353263892,0,-0.781,-0.6238,0.7751,384,1.9531,61.7065,99.3042,92,1.3967,1.5598,22.9612,-43.0126,29,0.1391,8898,3.96,-118.9763
lg,1625503327730817466,0,-0.3984,-0.9534,0.8259,385,-63.6597,-220.0317,61.7065,92,1.3777,1.5588,15.9511,-43.1525,29,0.1391,27309,3.96,-110.2477
lg,1625503327730855873,0,0.2344,-1.0229,0.7209,386,-62.9272,-265.5029,31.1279,92,1.3817,1.5598,7.7441,-44.3631,29,0.1391,8451,3.96,-101.9523
lg,1625503327730876373,0,0.7703,-1.0283,0.6826,387,-35.8887,-152.5879,26.1841,92,1.3877,1.5608,2.7501,-45.7131,29,0.1411,8363,3.96,-96.9122
lg,1625503327730896466,0,0.5996,-1.0039,0.6262,388,2.8076,39.7949,-23.3765,92,1.3957,1.5618,2.0607,-46.0984,29,0.1431,7994,3.96,-98.7279
lg,1625503327730914651,0,0.0144,-0.9648,0.6208,389,32.1655,176.9409,-50.415,92,1.4147,1.5618,5.4025,-45.6682,29,0.1451,9571,3.96,-105.2415
lg,1625503327730933003,0,-0.1619,-0.897,0.7041,390,39.4287,192.0166,-62.0728,92,1.4337,1.5628,8.8855,-44.8023,29,0.1461,8981,3.96,-112.0344
lg,1625503327732777633,0,-0.3518,-0.7158,0.4185,391,49.0723,134.2163,-71.6553,92,1.4427,1.5628,11.2363,-44.4091,29,0.1481,8550,3.96,-118.0141
lg,1625503327732807003,0,-0.4805,-0.7166,0.4363,392,21.3013,62.5,-60.73,92,1.4447,1.5628,12.0334,-44.7632,30,0.1481,8087,3.96,-121.6675
lg,1625503327732831466,0,-0.5139,-0.7942,0.4612,393,-0.4883,41.687,-27.771,92,1.4457,1.5638,13.215,-46.5897,30,0.1511,8104,3.96,-121.6414
lg,1625503327732854355,0,-0.491,-0.8289,0.5269,394,-55.9082,-33.9355,46.0205,92,1.4427,1.5638,14.1918,-48.6622,30,0.1511,8078,3.96,-119.4318
lg,1625503327732874855,0,-0.489,-0.7798,0.533,395,-47.7295,-74.9512,94.9707,92,1.4337,1.5638,15.6272,-49.5432,30,0.1491,8162,3.96,-114.5809
lg,1625503327732941040,0,-0.405,-0.7202,0.5659,396,-28.1982,-93.0176,92.4683,92,1.4257,1.5618,14.1598,-48.1362,29,0.1521,8143,3.96,-108.4919
lg,1625503327732990151,0,-0.1863,-0.6758,0.4441,397,-16.8457,-176.6968,47.6074,92,1.4187,1.5588,10.8213,-47.6886,29,0.1521,8539,3.96,-101.8928
lg,1625503327733015929,0,0.125,-0.9702,0.6482,398,-43.5791,-190.0635,53.833,92,1.4187,1.5608,6.7291,-48.6614,29,0.1521,7812,3.96,-94.7709
lg,1625503327733041725,0,0.3494,-1.1838,0.6807,399,-22.7051,-136.5356,26.7944,92,1.4217,1.5608,3.1737,-49.5719,29,0.1531,10618,3.96,-89.9665
lg,1625503327733069244,0,0.7419,-1.0283,0.627,400,16.1743,-69.2749,6.2866,92,1.4307,1.5628,0.2764,-49.1535,29,0.1541,8680,3.96,-87.7205
lg,1625503327733094448,0,0.7952,-0.9382,0.5786,401,29.2358,-12.207,-12.207,92,1.4407,1.5618,-1.7463,-48.2719,29,0.1551,7918,3.96,-87.6892
lg,1625503327733118781,0,0.5054,-0.9346,0.6621,402,49.1333,153.5034,-65.3687,92,1.4447,1.5638,-0.3838,-46.415,29,0.1551,8676,3.96,-93.9849
lg,1625503327733229670,0,-0.0022,-0.8506,0.4385,403,69.8853,251.77,-104.3091,92,1.4497,1.5628,3.6826,-44.5555,29,0.1541,8737,3.96,-104.0661
lg,1625503327733252985,0,-0.4287,-0.6494,0.2815,404,75.0732,247.9248,-106.8115,92,1.4467,1.5608,8.2692,-43.1891,29,0.1521,8358,3.96,-112.8845
lg,1625503327733276429,0,-0.5908,-0.4536,0.5569,405,54.6875,181.7017,-6.8359,92,1.4417,1.5578,14.5761,-41.9001,29,0.1521,13115,3.96,-118.0684
lg,1625503327733458448,0,-0.8013,-0.7231,0.7935,406,-1.4038,127.4414,53.9551,92,1.4427,1.5578,20.6229,-42.5385,29,0.1551,8751,3.96,-120.0005
lg,1625503327733505392,0,-0.7798,-0.9062,0.823,407,-26.9775,62.0728,77.4536,92,1.4427,1.5598,23.2817,-42.7019,29,0.1541,8776,3.96,-116.2657
lg,1625503327733531410,0,-0.5911,-0.7129,0.6609,408,-44.4946,-96.1914,108.3374,92,1.4257,1.5608,22.116,-41.7253,29,0.1491,8682,3.96,-108.6415
lg,1625503327733553799,0,-0.2991,-0.4851,0.9407,409,-46.6919,-160.8887,110.1074,92,1.4127,1.5608,19.9303,-40.0934,29,0.1501,8834,3.96,-100.3435
lg,1625503327733584299,0,-0.1897,-0.708,0.5068,410,-54.1382,-212.0361,51.8188,92,1.4017,1.5598,14.5651,-40.6217,29,0.1491,9302,3.96,-93.1361
lg,1625503327733607096,0,0.126,-1.0688,0.6919,411,-65.8569,-240.6006,42.1143,92,1.3977,1.5608,7.7558,-42.3848,29,0.1481,8896,3.96,-85.5153
lg,1625503327733628707,0,0.1812,-1.0693,0.6167,412,-33.9355,-121.0327,-3.7231,92,1.3957,1.5608,3.529,-44.0858,29,0.1481,8948,3.96,-82.3708
lg,1625503327733650022,0,0.0896,-0.9385,0.6208,413,-11.4136,-57.0068,-6.7749,92,1.3967,1.5608,2.6386,-44.2454,29,0.1491,8978,3.96,-81.7768
lg,1625503327733669059,0,0.0896,-0.7983,0.5129,414,15.8081,-4.7607,0.2441,92,1.3987,1.5618,2.1946,-44.1087,29,0.1491,8206,3.96,-81.661
lg,1625503327733687040,0,0.0027,-0.7942,0.637,415,14.8926,50.1099,-0.3662,92,1.4057,1.5618,3.5258,-43.8573,29,0.1511,8916,3.96,-83.0794
lg,1625503327733704873,0,-0.0247,-0.8794,0.6218,416,9.5215,56.2134,1.4038,92,1.4177,1.5638,5.0886,-44.0115,29,0.1531,8606,3.96,-84.6332
lg,1625503328089890392,0,0.0774,-0.8135,0.5962,417,30.1514,41.9922,-5.6152,92,1.4457,1.5618,5.7705,-43.3091,29,0.1541,29036,3.96,-86.0003
lg,1625503328089925058,0,-0.0247,-0.783,0.5684,418,29.9683,80.7495,-27.2217,92,1.4427,1.5608,7.2052,-42.869,29,0.1541,13904,3.96,-89.0673
lg,1625503328089944762,0,-0.1079,-0.8271,0.5828,419,28.4424,89.9658,-25.6958,92,1.4387,1.5588,9.0953,-42.655,29,0.1511,8014,3.96,-92.3599
lg,1625503328089963373,0,-0.1858,-0.8037,0.5911,420,27.0386,87.5244,3.479,92,1.4357,1.5568,11.8159,-42.4175,29,0.1481,8045,3.96,-94.7352
lg,1625503328089981725,0,-0.2134,-0.7971,0.6514,421,23.9868,81.8481,15.3809,92,1.4327,1.5558,14.6248,-42.2227,29,0.1491,8021,3.96,-96.0355
lg,1625503328089999336,0,-0.2451,-0.7849,0.6396,422,13.4888,61.2793,29.1138,92,1.4327,1.5548,17.1731,-42.2411,29,0.1511,8382,3.96,-96.9432
lg,1625503328090016577,0,-0.3191,-0.8638,0.7952,423,-21.5454,15.0757,58.2886,92,1.4357,1.5558,19.1097,-42.8661,30,0.1531,8135,3.96,-95.6277
lg,1625503328090034077,0,-0.3606,-0.7847,0.6746,424,-33.6304,-25.0854,82.5195,92,1.4327,1.5578,20.6374,-43.3326,30,0.1521,8948,3.96,-92.4207
lg,1625503328090051947,0,-0.386,-0.7476,0.6973,425,-46.5088,-41.8701,92.1021,92,1.4187,1.5588,21.9664,-43.8298,30,0.1461,8096,3.96,-88.3685
lg,1625503328090069188,0,0.0981,-0.615,1.3826,426,-54.5654,-88.501,121.2769,92,1.3937,1.5568,20.4326,-42.2556,30,0.1461,8131,3.96,-81.4579
lg,1625503328090086484,0,0.041,-0.6326,0.5725,427,-22.4609,-164.6118,34.4849,92,1.3867,1.5548,15.1968,-43.2208,29,0.1451,8352,3.96,-76.9711
lg,1625503328090103707,0,0.1011,-1.0266,0.9199,428,-65.7349,-129.8218,-9.5825,92,1.3877,1.5548,10.4797,-45.2641,29,0.1451,8172,3.96,-73.5689
lg,1625503328090120577,0,-0.1777,-1.0071,0.2061,429,-33.2642,-39.3066,-55.8472,92,1.3877,1.5548,7.8182,-47.8865,29,0.1461,7912,3.96,-74.1871
lg,1625503328090136910,0,-0.2434,-0.9661,0.1104,430,-14.7095,-10.6201,-51.6968,92,1.3887,1.5568,7.0365,-48.4503,29,0.1471,8320,3.96,-75.091
lg,1625503328090153355,0,-0.0427,-0.8484,0.4631,431,26.3672,15.1978,-15.3809,92,1.3937,1.5578,6.8081,-48.0025,30,0.1481,7938,3.96,-76.0232
lg,1625503328090170540,0,0.0281,-0.7454,0.4016,432,31.7993,31.0059,-1.77,92,1.4037,1.5588,7.2484,-47.3826,30,0.1491,8882,3.96,-77.0634
lg,1625503328090208744,0,-0.0339,-0.8855,0.5522,433,23.3154,59.6313,4.0894,92,1.4167,1.5608,8.768,-47.0966,30,0.1491,8306,3.96,-78.7776
lg,1625503328090227762,0,-0.0039,-0.9612,0.4978,434,22.7661,49.9878,-1.0986,92,1.4297,1.5608,9.1816,-46.7956,29,0.1501,9468,3.96,-79.6675
lg,1625503328090245336,0,0.1448,-0.8828,0.5806,435,33.7524,14.7705,5.8594,92,1.4387,1.5618,9.3068,-45.2464,29,0.1501,9918,3.96,-79.9235
lg,1625503328090262595,0,0.2419,-0.8079,0.5969,436,65.2466,28.0151,7.9956,92,1.4407,1.5608,9.4502,-43.0499,29,0.1521,8685,3.96,-80.5547
lg,1625503328090279503,0,0.1172,-0.6648,0.6882,437,64.209,96.4355,-14.9536,92,1.4367,1.5608,11.2541,-41.072,29,0.1511,8005,3.96,-83.6548
lg,1625503328090296503,0,-0.248,-0.6638,0.7244,438,46.936,148.6206,-13.2446,92,1.4307,1.5608,15.5038,-40.2632,29,0.1521,8776,3.96,-88.0629
lg,1625503328090313725,0,-0.4355,-0.6672,0.7512,439,25.2686,140.2588,0.3662,92,1.4297,1.5618,20.2273,-40.3458,29,0.1541,8484,3.96,-91.8499
lg,1625503328090330558,0,-0.7053,-0.676,0.8171,440,-30.0293,53.5889,31.311,92,1.4247,1.5618,23.1758,-41.6934,29,0.1511,8052,3.96,-92.3462
lg,1625503328090347540,0,-0.8152,-0.635,0.791,441,-39.856,-51.8799,57.4951,92,1.4137,1.5618,23.7727,-41.827,29,0.1471,8109,3.96,-88.9241
lg,1625503328090364095,0,-0.5623,-0.5586,0.9866,442,-35.1562,-85.2051,66.5894,92,1.4007,1.5608,21.4109,-40.1952,29,0.1491,8931,3.96,-83.338
lg,1625503328090391892,0,-0.5283,-0.6179,0.5269,443,-24.353,-189.9414,30.7617,92,1.3937,1.5588,16.8611,-39.4651,29,0.1481,8743,3.96,-77.2946
lg,1625503328090410021,0,-0.1807,-0.825,0.6746,444,-62.1338,-232.2998,29.1748,92,1.3937,1.5598,10.2734,-40.7274,29,0.1471,8559,3.96,-70.352
lg,1625503328090427373,0,0.0444,-1.0029,0.501,445,-64.3921,-198.6694,-2.5635,92,1.3977,1.5608,3.8824,-43.5138,29,0.1471,8776,3.96,-65.2051
lg,1625503328090444910,0,0.4028,-1.136,0.5237,446,-46.7529,-165.7104,0.9766,92,1.4007,1.5618,-0.4342,-45.1058,29,0.1481,8265,3.96,-60.8088
lg,1625503328090461929,0,0.604,-1.0688,0.4653,447,-5.3711,-101.6846,27.771,92,1.4067,1.5598,-3.4959,-46.1724,29,0.1471,8212,3.96,-57.1071
lg,1625503328090562799,0,0.554,-0.95,0.4626,448,31.9214,63.8428,-5.6152,92,1.4157,1.5638,-2.8206,-45.3968,29,0.1491,8710,3.96,-59.072
lg,1625503328490341151,0,-0.1943,-0.7979,0.6646,449,52.8564,133.4229,-18.3716,86,1.4437,1.5628,0.9825,-43.3959,29,0.1501,27467,3.9622,-63.3151
lg,1625503328490377225,0,-0.1536,-0.7512,0.6819,450,36.0107,65.8569,-13.4277,86,1.4427,1.5618,2.841,-42.193,29,0.1481,15356,3.9622,-65.5019
lg,1625503328490397706,0,-0.1936,-0.7688,0.6248,451,29.0527,68.9697,-0.3052,86,1.4417,1.5598,5.6362,-41.7437,29,0.1491,7995,3.9622,-66.6682
lg,1625503328490417114,0,-0.2615,-0.7529,0.6975,452,12.8784,54.5654,33.3252,86,1.4397,1.5608,8.4844,-41.4861,29,0.1531,9343,3.9622,-67.1485
lg,1625503328490434873,0,-0.408,-0.8589,0.9409,453,-39.856,18.4937,73.6694,86,1.4397,1.5618,11.3678,-42.8056,29,0.1491,8389,3.9622,-65.4481
lg,1625503328490475595,0,-0.4082,-0.6455,0.5828,454,-56.3965,-67.1387,103.1494,86,1.4277,1.5628,12.8064,-44.1961,29,0.1471,8065,3.9622,-60.5433
lg,1625503328490494688,0,-0.4136,-0.5942,0.761,455,-48.7061,-87.5854,106.6895,86,1.4147,1.5618,13.9082,-44.303,29,0.1481,8217,3.9622,-54.9624
lg,1625503328490512058,0,-0.23,-0.5615,0.9707,456,-29.3579,-95.0317,90.5151,86,1.4037,1.5568,13.6195,-43.6132,29,0.1501,8135,3.9622,-49.4262
lg,1625503328490529503,0,-0.1636,-0.8943,0.9443,457,-64.0259,-158.02,62.2559,86,1.3987,1.5598,10.5945,-44.8209,29,0.1501,8496,3.9622,-43.0881
lg,1625503328490546947,0,0.1296,-1.0374,0.6492,458,-50.1099,-169.4946,28.3813,86,1.3997,1.5608,6.0562,-46.501,29,0.1491,8513,3.9622,-37.4718
lg,1625503328490565595,0,0.2402,-1.0554,0.5791,459,-44.1895,-145.874,13.1226,86,1.4027,1.5618,1.5675,-48.484,29,0.1501,8493,3.9622,-32.8458
lg,1625503328490583169,0,0.5337,-1.0371,0.5828,460,-8.728,-62.1948,4.5166,86,1.4067,1.5628,-0.906,-49.2475,29,0.1511,8548,3.9622,-30.8577
lg,1625503328490600521,0,0.3848,-0.9468,0.5166,461,21.6064,67.5049,-33.02,86,1.4167,1.5638,-0.8716,-48.7793,29,0.1511,8521,3.9622,-33.7619
lg,1625503328490617854,0,0.1951,-0.9258,0.5596,462,34.1187,123.8403,-48.8281,86,1.4267,1.5638,1.5866,-47.485,29,0.1531,7754,3.9622,-40.1592
lg,1625503328490634558,0,-0.1516,-0.8367,0.5244,463,48.3398,171.3257,-62.9272,86,1.4377,1.5648,4.6865,-46.3216,29,0.1541,8162,3.9622,-46.8968
lg,1625503328490654077,0,-0.2539,-0.7231,0.5554,464,56.1523,137.7563,-69.1528,86,1.4447,1.5638,6.9711,-44.9036,29,0.1531,8599,3.9622,-52.8096
lg,1625503328490671169,0,-0.3096,-0.6541,0.5376,465,50.1709,79.4678,-65.0024,86,1.4467,1.5638,7.9359,-43.6379,29,0.1531,8641,3.9622,-56.9418
lg,1625503328490687966,0,-0.3364,-0.677,0.5608,466,41.4429,65.4907,-45.7764,86,1.4437,1.5598,9.0955,-42.6934,29,0.1521,7902,3.9622,-60.1329
lg,1625503328490704373,0,-0.3684,-0.6875,0.5706,467,25.0854,46.6919,4.6997,86,1.4427,1.5608,11.1157,-42.1643,29,0.1521,8303,3.9622,-61.3151
lg,1625503328490721021,0,-0.4072,-0.8223,0.8,468,9.3994,32.5317,26.3672,86,1.4447,1.5608,13.0473,-42.6626,29,0.1561,7910,3.9622,-60.1482
lg,1625503328490738114,0,-0.3989,-0.8755,0.8992,469,-31.8604,-21.8506,72.8149,86,1.4467,1.5628,14.5737,-43.3134,29,0.1541,8290,3.9622,-57.3564
lg,1625503328490755466,0,-0.2424,-0.7317,0.7056,470,-29.6631,-82.0312,80.0171,86,1.4437,1.5638,14.3486,-43.4122,29,0.1531,8713,3.9622,-52.6526
lg,1625503328490773299,0,-0.2307,-0.7363,0.6499,471,-38.147,-104.126,71.6553,86,1.4327,1.5638,13.2838,-43.9093,29,0.1541,9317,3.9622,-47.6046
lg,1625503328490790540,0,0.0181,-0.7683,0.3083,472,-23.3765,-133.2397,30.7617,86,1.4237,1.5628,9.8296,-44.8382,29,0.1531,15461,3.9622,-43.1142
lg,1625503328490807410,0,0.0654,-0.9297,0.624,473,-39.3066,-92.5903,23.9258,86,1.4217,1.5638,7.7871,-45.9569,29,0.1531,8837,3.9622,-40.6301
lg,1625503328490824966,0,0.0127,-0.884,0.4163,474,-14.6484,-58.96,13.3667,86,1.4217,1.5638,6.2379,-47.0126,29,0.1521,8476,3.9622,-38.6305
lg,1625503328490841725,0,-0.0632,-0.8425,0.5112,475,1.5869,-3.8452,21.2402,86,1.4217,1.5648,6.6583,-47.3239,29,0.1521,8834,3.9622,-37.9865
lg,1625503328490858614,0,0.0122,-0.7866,0.6919,476,12.0239,5.6763,35.8887,86,1.4257,1.5648,7.5707,-46.7851,29,0.1511,8861,3.9622,-37.1785
lg,1625503328490924021,0,0.0886,-0.8716,0.6797,477,5.188,6.3477,30.7007,86,1.4317,1.5658,8.1584,-46.6863,29,0.1531,9066,3.9622,-36.5462
lg,1625503328490986280,0,0.1116,-0.9619,0.6421,478,5.3101,11.1084,28.7476,86,1.4367,1.5648,8.8275,-46.6861,29,0.1531,8915,3.9622,-36.718
lg,1625503328491006206,0,0.0842,-0.9651,0.665,479,15.9912,33.9355,19.4092,86,1.4397,1.5658,9.8122,-46.4605,29,0.1531,8960,3.9622,-37.2345
lg,1625503328491024614,0,-0.0039,-0.8481,0.7073,480,16.9067,50.7202,27.5879,86,1.4387,1.5668,11.6221,-46.0579,29,0.1521,8948,3.9622,-37.9814
lg,1625503328825154280,0,-0.3516,-0.7617,0.6392,481,6.0425,30.3955,15.686,86,1.4237,1.5648,13.2202,-46.0534,29,0.1531,25401,3.9622,-38.4629
lg,1625503328825184688,0,-0.4705,-0.7371,0.7429,482,11.8408,12.0239,14.0991,86,1.4197,1.5648,14.3869,-45.5096,29,0.1531,9231,3.9622,-38.3981
lg,1625503328825204614,0,-0.4514,-0.7151,0.7646,483,10.8032,-4.4556,13.4277,86,1.4197,1.5648,14.9923,-44.8428,29,0.1531,7711,3.9622,-37.8479
lg,1625503328825223225,0,-0.197,-0.7817,0.8311,484,-0.7935,-61.2793,7.6904,86,1.4237,1.5658,13.2638,-44.3105,29,0.1531,7693,3.9622,-35.8258
lg,1625503328825240854,0,0.1572,-0.8972,0.7744,485,-6.6528,-76.0498,-19.3481,86,1.4397,1.5668,9.7553,-44.4403,29,0.1541,12027,3.9622,-34.257
lg,1625503328825258947,0,0.2708,-0.9609,0.7998,486,5.7983,-20.9351,-52.124,86,1.4507,1.5668,6.8536,-44.5562,29,0.1551,10154,3.9622,-35.1995
lg,1625503328825276354,0,0.1331,-0.9368,0.5466,487,26.6113,36.9263,-95.9473,86,1.4557,1.5658,4.6777,-44.459,29,0.1531,7741,3.9622,-39.0571
lg,1625503328825293799,0,0.0503,-0.8989,0.4409,488,31.7383,43.7012,-107.5439,86,1.4547,1.5638,3.2204,-44.0274,29,0.1501,7813,3.9622,-44.0142
lg,1625503328825311002,0,-0.1721,-0.8059,0.3887,489,43.0298,80.6274,-91.1865,86,1.4507,1.5608,3.3324,-43.352,29,0.1471,9035,3.9622,-48.9244
lg,1625503328825327910,0,-0.2336,-0.6807,0.4756,490,32.2876,92.7734,-8.9111,86,1.4487,1.5598,6.2741,-42.7332,29,0.1481,7917,3.9622,-51.7536
lg,1625503328825344539,0,-0.3936,-0.7864,0.5706,491,-18.2495,57.7393,37.7197,86,1.4507,1.5598,9.5975,-43.9369,29,0.1501,8028,3.9622,-52.3021
lg,1625503328825380299,0,-0.4561,-0.8708,0.7224,492,-36.5601,24.8413,58.3496,86,1.4547,1.5618,12.4231,-45.4376,29,0.1511,7871,3.9622,-51.3733
lg,1625503328825398595,0,-0.4172,-0.7698,0.6943,493,-44.7388,-43.2739,111.3892,86,1.4377,1.5638,13.5161,-45.6084,29,0.1461,8294,3.9622,-45.4446
lg,1625503328825416391,0,-0.0195,-0.4851,1.054,494,-30.3345,-156.9824,93.3838,86,1.4257,1.5638,11.2808,-44.4234,29,0.1471,7908,3.9622,-38.0072
lg,1625503328825433317,0,0.0554,-0.5168,0.4705,495,-26.1841,-204.6509,43.457,86,1.4167,1.5618,6.0731,-44.5254,29,0.1481,7974,3.9622,-30.9802
lg,1625503328825450576,0,0.1875,-0.8906,0.7056,496,-73.3643,-195.0073,31.189,86,1.4137,1.5608,0.974,-47.3198,29,0.1481,7983,3.9622,-24.5165
lg,1625503328825467854,0,0.177,-0.9836,0.5994,497,-48.584,-159.0576,14.8315,86,1.4117,1.5608,-1.5261,-49.3341,29,0.1481,7906,3.9622,-21.8307
lg,1625503328825485132,0,0.0415,-1.0374,0.5671,498,-10.8643,-35.0952,6.1035,86,1.4097,1.5608,-1.3319,-48.7597,29,0.1481,9530,3.9622,-21.1218
lg,1625503328825502169,0,0.2278,-0.7983,0.6982,499,35.2783,13.3057,27.9541,86,1.4097,1.5598,-0.5725,-47.3488,29,0.1481,8260,3.9622,-20.7798
lg,1625503328825518595,0,0.1943,-0.6995,0.6299,500,21.9116,63.7207,18.1885,86,1.4127,1.5638,1.2523,-46.4965,29,0.1501,8406,3.9622,-22.1542
lg,1625503328825535225,0,0,-0.8997,0.7161,501,12.2681,93.9331,11.5967,86,1.4177,1.5638,4.1132,-46.306,29,0.1501,8063,3.9622,-24.5684
lg,1625503328825551725,0,-0.064,-0.9285,0.6943,502,16.4795,97.1069,4.2114,86,1.4257,1.5638,6.8671,-46.1698,29,0.1511,8502,3.9622,-27.2944
lg,1625503328825576854,0,-0.1016,-0.865,0.6736,503,25.5127,87.3413,-1.2207,86,1.4377,1.5658,9.1837,-45.7356,29,0.1531,8101,3.9622,-29.8972
lg,1625503328825593632,0,-0.0229,-0.8088,0.7234,504,30.5786,64.3311,-4.3335,86,1.4507,1.5658,10.5418,-44.9435,29,0.1541,8153,3.9622,-31.8996
lg,1625503328825610410,0,0.0398,-0.7878,0.7246,505,33.6914,50.5371,-16.2354,86,1.4587,1.5658,11.0206,-44.0463,29,0.1551,8544,3.9622,-33.8372
lg,1625503328825627391,0,0.0425,-0.8262,0.5688,506,25.8179,55.542,-37.9028,86,1.4567,1.5648,11.0356,-43.9766,29,0.1511,8236,3.9622,-36.6094
lg,1625503328825644114,0,-0.0435,-0.9138,0.5112,507,31.4941,88.2568,-38.3301,86,1.4537,1.5618,12.1675,-44.1103,29,0.1501,11860,3.9622,-40.3702
lg,1625503328825673632,0,-0.082,-0.7764,0.5276,508,41.9312,90.9424,-7.3853,86,1.4517,1.5618,14.2958,-43.5411,29,0.1511,8614,3.9622,-43.282
lg,1625503328825691780,0,-0.1428,-0.5505,0.5095,509,26.001,95.0928,20.874,86,1.4487,1.5598,17.4748,-43.2128,29,0.1511,8621,3.9622,-45.41
lg,1625503328825708614,0,-0.4321,-0.8411,0.8899,510,0.1831,100.1587,37.3535,86,1.4507,1.5608,22.0208,-44.5293,29,0.1531,8494,3.9622,-46.3377
lg,1625503328825738095,0,-0.5825,-0.9316,0.8196,511,-37.9028,69.8242,84.1675,86,1.4487,1.5608,26.4785,-46.019,29,0.1521,8639,3.9622,-45.9867
lg,1625503328825756132,0,-0.6675,-0.8342,0.7126,512,-56.5186,-32.2266,113.5864,86,1.4287,1.5628,29.0473,-46.244,29,0.1481,8341,3.9622,-41.4393
lg,1625503329195119224,0,-0.0327,-0.7029,0.4912,513,-57.4951,-258.1177,49.6216,86,1.3947,1.5598,22.2664,-44.7199,29,0.1461,25382,3.9622,-31.9397
lg,1625503329195168391,0,0.3015,-1.1978,0.7639,514,-97.0459,-255.8594,44.5557,86,1.3997,1.5608,14.7289,-46.0744,29,0.1471,8779,3.9622,-24.3856
lg,1625503329195198743,0,0.2859,-1.1292,0.2817,515,-43.2739,-98.938,-28.6865,86,1.4007,1.5618,10.1994,-48.4318,29,0.1481,9641,3.9622,-22.4671
lg,1625503329195226965,0,0.4275,-0.9878,0.3853,516,16.2964,-18.9819,-20.0806,86,1.4057,1.5628,7.9115,-48.5057,29,0.1481,10099,3.9622,-22.5604
lg,1625503329195254465,0,0.2471,-0.8311,0.5342,517,46.3257,115.6006,-38.9404,86,1.4117,1.5638,8.9776,-47.6525,29,0.1501,8054,3.9622,-27.1472
lg,1625503329195281465,0,0.083,-0.7883,0.6077,518,51.5137,159.4238,-45.2271,86,1.4237,1.5648,12.2796,-46.9847,29,0.1501,8408,3.9622,-33.7939
lg,1625503329195307298,0,-0.2104,-0.782,0.6277,519,49.0112,174.2554,-47.2412,86,1.4357,1.5658,15.6172,-46.7738,30,0.1521,8420,3.9622,-40.401
lg,1625503329195333632,0,-0.3,-0.7961,0.6758,520,46.2646,131.958,-50.9033,86,1.4487,1.5658,17.7479,-46.6013,30,0.1531,8420,3.9622,-45.8987
lg,1625503329195359391,0,-0.2642,-0.7798,0.6284,521,44.9829,85.2051,-55.7861,86,1.4547,1.5658,18.3466,-46.2852,30,0.1531,10094,3.9622,-50.168
lg,1625503329195385298,0,-0.189,-0.7856,0.6589,522,44.9219,63.3545,-50.1709,86,1.4537,1.5658,18.3396,-45.7028,30,0.1521,8483,3.9622,-53.6054
lg,1625503329195410873,0,-0.1628,-0.7959,0.7061,523,45.5933,67.1997,-46.0815,86,1.4477,1.5638,18.522,-45.0558,29,0.1511,8132,3.9622,-57.0235
lg,1625503329195435891,0,-0.1826,-0.7373,0.572,524,40.2832,66.4062,-44.5557,86,1.4417,1.5618,18.9729,-44.7372,29,0.1501,11271,3.9622,-60.4105
lg,1625503329195460410,0,-0.2915,-0.6138,0.5613,525,13.7329,45.2881,-8.0566,86,1.4437,1.5598,20.0338,-44.8235,29,0.1531,8734,3.9622,-62.0432
lg,1625503329195485780,0,-0.4807,-0.7832,0.7764,526,-47.9126,38.8794,63.2935,86,1.4467,1.5638,23.0551,-46.4807,29,0.1531,8632,3.9622,-61.3478
lg,1625503329195511206,0,-0.7251,-0.8171,0.6558,527,-58.0444,-31.0669,91.1865,86,1.4437,1.5638,25.3271,-47.4276,29,0.1501,8599,3.9622,-57.694
lg,1625503329195539484,0,-0.7932,-0.7998,0.666,528,-50.7812,-78.0029,94.9097,86,1.4307,1.5648,26.4956,-47.1481,29,0.1471,8271,3.9622,-52.3092
lg,1625503329195566187,0,-0.4954,-0.6558,0.8457,529,-44.4946,-202.2705,117.3096,86,1.4197,1.5648,24.1761,-44.2476,29,0.1471,8402,3.9622,-42.1142
lg,1625503329195592706,0,0.01,-0.6345,0.2949,530,-45.3491,-333.1909,67.0776,86,1.4157,1.5648,15.5424,-42.8985,29,0.1451,8669,3.9622,-30.6877
lg,1625503329195618595,0,0.4526,-1.0254,0.5029,531,-98.938,-329.3457,60.0586,86,1.4157,1.5638,6.3072,-45.4328,29,0.1451,8315,3.9622,-20.2279
lg,1625503329195644150,0,0.5735,-1.1082,0.2629,532,-69.7632,-272.644,29.2969,86,1.4187,1.5648,-1.4062,-48.874,29,0.1451,8852,3.9622,-11.536
lg,1625503329195669447,0,0.5598,-1.2568,0.3232,533,-16.9067,-71.167,20.4468,86,1.4197,1.5648,-3.4641,-50.5784,29,0.1441,8359,3.9622,-8.7972
lg,1625503329195695206,0,0.6082,-0.9871,0.5789,534,60.2417,45.4102,30.0903,86,1.4217,1.5658,-2.3205,-48.4476,29,0.1441,8774,3.9622,-9.4048
lg,1625503329195720743,0,0.4436,-0.6265,0.6882,535,76.2329,97.168,20.6909,86,1.4237,1.5658,1.3061,-45.2386,29,0.1451,8362,3.9622,-13.6509
lg,1625503329195745650,0,0.2219,-0.6255,0.6553,536,61.5234,200.9277,2.4414,86,1.4317,1.5668,6.5116,-43.0946,29,0.1471,8774,3.9622,-19.2069
lg,1625503329195770650,0,-0.2134,-0.8154,0.7803,537,52.4292,227.7222,-6.8359,86,1.4417,1.5668,13.1462,-42.2257,29,0.1491,8429,3.9622,-25.684
lg,1625503329195796021,0,-0.3857,-0.6392,0.8442,538,60.73,192.627,-13.3667,86,1.4487,1.5658,17.5317,-41.2582,29,0.1511,13484,3.9622,-30.8606
lg,1625503329195821113,0,-0.48,-0.6338,0.7925,539,32.959,130.4321,-30.2734,86,1.4477,1.5648,20.9321,-41.3534,29,0.1511,8868,3.9622,-35.443
lg,1625503329195874039,0,-0.6233,-0.7224,0.8599,540,-26.2451,59.1431,3.7842,86,1.4467,1.5658,23.0913,-42.9393,29,0.1541,8122,3.9622,-37.0221
lg,1625503329195917891,0,-0.6318,-0.7146,0.7197,541,-54.5654,-20.6909,34.8511,86,1.4457,1.5658,23.8016,-44.4887,29,0.1541,8903,3.9622,-35.3276
lg,1625503329195944169,0,-0.5771,-0.7568,0.6604,542,-40.7104,-74.7681,51.1475,86,1.4437,1.5668,23.3574,-44.7119,29,0.1541,8929,3.9622,-31.5065
lg,1625503329196043039,0,-0.4954,-0.8142,0.6692,543,-38.147,-98.5107,47.2412,86,1.4427,1.5658,21.7833,-44.8669,29,0.1541,9073,3.9622,-27.1825
lg,1625503329196072947,0,-0.2192,-0.9089,0.6714,544,-43.1519,-160.6445,52.2461,86,1.4427,1.5658,18.3042,-44.7407,29,0.1551,9074,3.9622,-20.9131
lg,1625503329568058798,0,0.2998,-1.0593,0.4734,545,-2.3804,-60.4858,7.0801,86,1.4577,1.5668,15.6147,-45.0728,29,0.1561,27504,3.9622,-19.173
lg,1625503329568096595,0,0.2891,-0.9114,0.3618,546,35.0952,25.8789,-21.1182,86,1.4667,1.5678,14.5869,-44.9151,29,0.1571,15482,3.9622,-20.7942
lg,1625503329568116835,0,0.26,-0.6848,0.3035,547,45.2881,31.6772,-24.9634,86,1.4667,1.5668,13.5589,-44.3016,29,0.1571,8041,3.9622,-22.6551
lg,1625503329568136261,0,0.2478,-0.564,0.3804,548,38.0249,51.2085,-13.0615,86,1.4667,1.5668,15.3635,-44.4379,29,0.1601,8349,3.9622,-24.9629
lg,1625503329568154039,0,-0.095,-0.8269,0.7344,549,-12.3901,117.3096,36.0718,86,1.4617,1.5668,19.259,-45.8029,29,0.1581,8008,3.9622,-27.4261
lg,1625503329568172724,0,-0.5503,-0.9712,0.7898,550,-23.1934,120.2393,89.4165,86,1.4377,1.5678,25.3048,-47.3402,29,0.1531,9951,3.9622,-28.6239
lg,1625503329568191002,0,-0.3735,-0.4197,1.1753,551,9.1553,46.0205,80.6885,86,1.4187,1.5648,28.6514,-45.3752,29,0.1541,10437,3.9622,-27.1416
lg,1625503329568208669,0,-0.5015,-0.552,1.1357,552,-51.0864,-63.7207,25.5737,86,1.4077,1.5618,27.3737,-45.2557,29,0.1531,8448,3.9622,-23.8788
lg,1625503329568226150,0,-0.2549,-0.866,0.5911,553,-64.6362,-164.978,27.4048,86,1.4037,1.5598,23.0324,-45.6853,29,0.1531,8498,3.9622,-18.0222
lg,1625503329568243817,0,-0.1826,-1.0259,0.6494,554,-58.96,-125.6104,27.832,86,1.4007,1.5568,19.8288,-46.7944,29,0.1531,8088,3.9622,-13.4801
lg,1625503329568261261,0,0.0422,-1.002,0.6975,555,-6.8359,-68.4814,16.7236,86,1.3977,1.5588,17.6098,-46.5735,29,0.1531,8160,3.9622,-11.0062
lg,1625503329568279039,0,0.1465,-0.783,0.5676,556,4.3945,0,14.4043,86,1.3987,1.5598,17.0281,-46.5704,29,0.1541,8532,3.9622,-10.6848
lg,1625503329568296576,0,0.0107,-0.7808,0.5022,557,3.1128,41.4429,4.0894,86,1.4007,1.5568,17.5898,-47.2182,29,0.1551,7768,3.9622,-11.9637
lg,1625503329568313835,0,-0.1538,-0.8467,0.5969,558,7.5073,67.3828,-2.7466,86,1.4087,1.5618,18.9561,-47.9016,29,0.1551,8168,3.9622,-14.232
lg,1625503329568331261,0,-0.0593,-0.8198,0.5461,559,8.4229,48.7061,-20.874,86,1.4307,1.5638,18.402,-48.7599,29,0.1551,14089,3.9622,-16.5105
lg,1625503329568348687,0,-0.0029,-0.915,0.4995,560,1.2817,32.2876,-39.4287,86,1.4427,1.5658,17.036,-49.9018,29,0.1551,8645,3.9622,-18.8826
lg,1625503329568365391,0,0.0046,-0.95,0.5164,561,7.2632,31.1279,-57.8003,87,1.4467,1.5648,15.3818,-50.7826,29,0.1531,8238,3.9611,-21.5478
lg,1625503329568382335,0,0.0151,-0.9946,0.4084,562,39.917,44.9829,-85.5103,87,1.4417,1.5648,13.2551,-50.769,29,0.1481,8650,3.9611,-25.394
lg,1625503329568399076,0,-0.0383,-0.9397,0.2205,563,62.8662,46.875,-107.8491,87,1.4377,1.5618,10.7374,-50.159,29,0.1471,8320,3.9611,-29.9066
lg,1625503329568416446,0,-0.052,-0.855,0.2556,564,78.6743,39.6729,-90.3931,87,1.4367,1.5588,8.7105,-48.1004,29,0.1471,8348,3.9611,-33.6123
lg,1625503329568432891,0,0.0347,-0.4546,0.4458,565,85.9375,80.5664,1.8311,87,1.4347,1.5568,10.4999,-44.9485,29,0.1481,8872,3.9611,-35.9342
lg,1625503329568470020,0,-0.2751,-0.3691,0.844,566,11.6577,145.3857,65.3076,87,1.4367,1.5578,16.709,-44.1975,29,0.1481,8726,3.9611,-38.0769
lg,1625503329568490928,0,-0.7747,-0.9148,0.9297,567,-39.978,87.2803,108.7646,87,1.4387,1.5588,22.7714,-45.5736,29,0.1461,8724,3.9611,-37.4414
lg,1625503329568508428,0,-0.8545,-0.9431,0.8135,568,-46.875,4.7607,122.7417,87,1.4307,1.5588,24.9088,-44.8694,29,0.1421,8769,3.9611,-30.9718
lg,1625503329568525558,0,-0.804,-0.6514,0.7676,569,-44.3115,-117.1875,132.1411,87,1.4147,1.5608,25.7588,-43.1205,29,0.1401,8025,3.9611,-23.0862
lg,1625503329568542928,0,-0.5872,-0.4551,0.9429,570,-53.4668,-187.8662,134.5215,87,1.3987,1.5608,23.9375,-40.4121,29,0.1431,8439,3.9611,-12.8619
lg,1625503329568559780,0,0.0212,-0.748,0.5854,571,-85.3271,-324.7681,81.8481,87,1.3917,1.5608,15.2886,-40.4105,29,0.1441,8851,3.9611,-1.5189
lg,1625503329568576780,0,0.2542,-1.1929,0.96,572,-124.3286,-333.4961,69.1528,87,1.3967,1.5608,6.3625,-43.6837,29,0.1431,8510,3.9611,9.5217
lg,1625503329568665354,0,0.6067,-1.2876,0.5576,573,-83.0688,-244.5679,18.5547,87,1.3987,1.5608,-1.0209,-47.4369,29,0.1441,8912,3.9611,16.9614
lg,1625503329568699372,0,0.5212,-1.2031,0.3496,574,-16.2964,-21.7896,-21.2402,87,1.4017,1.5628,-3.068,-49.0011,29,0.1451,8964,3.9611,17.0745
lg,1625503329568718465,0,0.2769,-0.9272,0.4409,575,33.2642,108.5205,-33.4473,87,1.4067,1.5638,-1.6904,-48.0798,29,0.1461,8960,3.9611,12.9555
lg,1625503329568737261,0,0.0549,-0.8176,0.3809,576,40.9546,160.8887,-41.626,87,1.4137,1.5648,2.466,-46.869,29,0.1471,8225,3.9611,6.1853
lg,1625503329917533705,0,-0.3464,-0.7927,0.416,577,20.813,44.0063,-31.189,87,1.4487,1.5658,2.0072,-46.5228,29,0.1521,27333,3.9611,5.5942
lg,1625503329917579187,0,0.0239,-0.8579,0.5452,578,18.3716,-43.396,-15.8081,87,1.4587,1.5658,0.2276,-46.1976,29,0.1521,13580,3.9611,6.4024
lg,1625503329917600261,0,0.1807,-0.8899,0.6113,579,22.522,-29.0527,-13.6719,87,1.4597,1.5648,-1.352,-45.6553,29,0.1531,9958,3.9611,6.8557
lg,1625503329917619113,0,0.1982,-0.8315,0.6516,580,31.0669,30.2124,-15.3198,87,1.4577,1.5648,-1.3044,-44.6186,29,0.1531,8578,3.9611,5.5669
lg,1625503329917638594,0,0.116,-0.7422,0.668,581,30.1514,78.8574,-1.9531,87,1.4557,1.5638,0.6844,-43.5259,29,0.1531,7740,3.9611,3.3125
lg,1625503329917657205,0,0.0593,-0.7261,0.6987,582,25.1465,102.1118,7.1411,87,1.4547,1.5638,3.8608,-42.6715,29,0.1531,8081,3.9611,0.7221
lg,1625503329917677465,0,-0.105,-0.7976,0.7432,583,17.2119,132.019,18.4937,87,1.4527,1.5638,8.2905,-42.4692,29,0.1531,8112,3.9611,-2.3406
lg,1625503329917720317,0,-0.2529,-0.8035,0.7073,584,14.8315,125.9155,26.062,87,1.4527,1.5638,12.8803,-42.602,29,0.1541,8158,3.9611,-5.0647
lg,1625503329917742261,0,-0.3035,-0.7957,0.7261,585,12.8784,117.4927,28.4424,87,1.4527,1.5638,17.024,-43.0791,29,0.1551,8166,3.9611,-7.2424
lg,1625503329917759965,0,-0.4478,-0.8218,0.6841,586,-6.1035,84.8389,37.1704,87,1.4567,1.5648,20.7157,-44.019,29,0.1571,9087,3.9611,-8.6628
lg,1625503329917777872,0,-0.5352,-0.791,0.5127,587,-38.208,-3.3569,61.7065,87,1.4547,1.5658,22.7137,-45.2757,29,0.1541,7844,3.9611,-6.846
lg,1625503329917795928,0,-0.5737,-0.7637,0.5771,588,-77.4536,-100.647,99.9146,87,1.4307,1.5658,23.1073,-46.2358,29,0.1511,7880,3.9611,-0.7984
lg,1625503329917815039,0,-0.2078,-0.5288,1.0703,589,-77.0264,-144.2261,118.3472,87,1.4197,1.5608,22.0307,-45.3811,29,0.1511,7873,3.9611,7.5739
lg,1625503329917848928,0,-0.1702,-0.5588,0.1294,590,-25.6348,-196.8384,20.6299,87,1.4077,1.5598,17.0237,-45.4065,30,0.1501,8004,3.9611,13.6865
lg,1625503329917868261,0,0.0488,-0.8545,0.6843,591,-93.2617,-177.3071,11.1694,87,1.4027,1.5568,10.3053,-47.1935,30,0.1491,7943,3.9611,19.1035
lg,1625503329917887317,0,-0.1438,-0.9075,0.345,592,-65.4907,-161.1328,-36.6211,87,1.3987,1.5568,4.9299,-50.1214,30,0.1481,8028,3.9611,22.8659
lg,1625503329917905243,0,-0.3899,-1.1736,0.5884,593,-18.9819,-68.9697,-22.7661,87,1.3957,1.5568,2.9503,-51.2597,30,0.1491,7980,3.9611,24.3875
lg,1625503329917924428,0,-0.2441,-1.1174,0.6501,594,4.6997,-84.7778,-6.7749,87,1.3937,1.5568,-0.2244,-50.9909,29,0.1491,8087,3.9611,28.1298
lg,1625503329917942039,0,0.1133,-0.7905,0.3704,595,17.7002,-130.4932,-2.6245,87,1.3927,1.5568,-3.8531,-50.9567,29,0.1501,8062,3.9611,32.1278
lg,1625503329917959946,0,0.3066,-0.7542,0.4219,596,21.7896,-35.7056,18.3716,87,1.3937,1.5578,-4.7976,-50.5613,29,0.1511,10356,3.9611,33.7243
lg,1625503329917977076,0,0.3313,-0.8711,0.6382,597,20.874,28.4424,15.4419,87,1.3977,1.5588,-4.0814,-49.8012,29,0.1521,8054,3.9611,33.2462
lg,1625503329917995372,0,0.3118,-0.9043,0.6313,598,22.8882,49.4385,5.8594,87,1.4037,1.5608,-2.6712,-48.7742,29,0.1531,8081,3.9611,30.8711
lg,1625503329918013483,0,0.1863,-0.8801,0.6155,599,32.5928,101.0742,-15.8691,87,1.4127,1.5618,-0.7489,-47.6035,29,0.1541,8102,3.9611,27.4363
lg,1625503329918038150,0,0.0137,-0.8413,0.6179,600,39.3066,137.8174,-31.3721,87,1.4267,1.5638,2.0736,-46.3214,29,0.1551,8089,3.9611,22.551
lg,1625503329918058483,0,-0.072,-0.8079,0.6858,601,36.2549,148.3154,-36.8652,87,1.4367,1.5628,5.3595,-45.3126,29,0.1561,8205,3.9611,17.2594
lg,1625503329918076705,0,-0.1553,-0.7534,0.6658,602,44.9829,137.3291,-32.2266,87,1.4447,1.5638,8.4637,-44.214,30,0.1541,8180,3.9611,12.4293
lg,1625503329918219391,0,-0.2002,-0.7896,0.6187,603,44.0674,120.1172,-27.6489,87,1.4447,1.5638,11.2562,-43.4657,30,0.1531,8252,3.9611,8.196
lg,1625503329918269076,0,-0.2732,-0.8848,0.6978,604,37.8418,118.1641,-26.5503,87,1.4417,1.5628,14.0061,-43.332,30,0.1511,8279,3.9611,4.1378
lg,1625503329918290465,0,-0.3335,-0.8918,0.6653,605,29.1748,101.6235,-16.1743,87,1.4377,1.5598,16.6089,-43.4408,29,0.1521,8848,3.9611,0.6578
lg,1625503329918310705,0,-0.3843,-0.8254,0.6008,606,22.4609,46.875,17.5171,87,1.4397,1.5588,18.6103,-43.1875,29,0.1521,8892,3.9611,-0.2751
lg,1625503329918333168,0,-0.3484,-0.7458,0.7437,607,-8.8501,6.4087,70.0073,87,1.4427,1.5588,20.6897,-42.9364,29,0.1531,8569,3.9611,1.6855
lg,1625503329918354409,0,-0.408,-0.7522,0.6204,608,-52.7954,-60.791,97.4121,87,1.4497,1.5598,21.6771,-43.5793,29,0.1501,8995,3.9611,6.411
lg,1625503330287563798,0,-0.1753,-0.6599,1.0649,609,-40.9546,-154.8462,123.4131,87,1.4087,1.5618,19.9651,-41.7367,29,0.1481,26108,3.9611,14.9553
lg,1625503330287604242,0,0.1897,-1.0317,0.8816,610,-84.3506,-240.6616,55.3589,87,1.4067,1.5618,13.1548,-43.3836,29,0.1491,15662,3.9611,23.2072
lg,1625503330287624613,0,0.3994,-1.1125,0.5107,611,-52.2461,-184.8145,13.9771,87,1.4067,1.5618,7.1454,-45.2716,29,0.1501,8439,3.9611,28.6906
lg,1625503330287644576,0,0.3147,-1.1196,0.4734,612,-0.6104,-19.7144,0.4883,87,1.4067,1.5628,5.7909,-46.0379,29,0.1501,8063,3.9611,29.1749
lg,1625503330287663168,0,0.2881,-0.8748,0.5188,613,24.1089,42.2363,7.3242,87,1.4087,1.5628,7.2103,-45.2589,29,0.1521,8564,3.9611,26.9781
lg,1625503330287770779,0,0.219,-0.7576,0.4399,614,42.8467,105.957,-5.3711,87,1.4147,1.5648,9.2276,-44.556,29,0.1521,7655,3.9611,23.7188
lg,1625503330287794631,0,-0.0559,-0.7976,0.552,615,36.6211,158.8745,-15.9912,87,1.4257,1.5658,13.0526,-44.4829,29,0.1531,9271,3.9611,18.6394
lg,1625503330287814113,0,-0.2642,-0.8254,0.5554,616,34.1797,140.5029,-19.043,87,1.4347,1.5658,16.572,-44.7526,29,0.1541,8134,3.9611,13.8891
lg,1625503330287832705,0,-0.2791,-0.7957,0.5603,617,36.5601,114.502,-15.8691,87,1.4447,1.5668,18.5419,-44.2388,29,0.1551,8445,3.9611,10.9964
lg,1625503330287851335,0,-0.1467,-0.6938,0.6536,618,40.2832,56.5186,-7.4463,87,1.4517,1.5658,19.5691,-43.3394,29,0.1561,8505,3.9611,9.0764
lg,1625503330287870631,0,-0.0864,-0.7463,0.5925,619,24.292,33.6914,-7.9346,87,1.4567,1.5658,19.7678,-43.1162,29,0.1571,8254,3.9611,7.7336
lg,1625503330287930076,0,-0.1069,-0.8845,0.6208,620,15.8691,41.8701,-3.8452,87,1.4587,1.5658,20.3318,-43.4257,29,0.1581,8509,3.9611,6.2247
lg,1625503330287948724,0,-0.1255,-0.9053,0.6343,621,17.4561,47.7295,-2.5635,87,1.4577,1.5628,21.1026,-43.7283,29,0.1581,7794,3.9611,4.5688
lg,1625503330287968761,0,-0.1379,-0.8333,0.6125,622,22.0337,47.1802,7.4463,87,1.4557,1.5648,22.1409,-43.6894,29,0.1581,8173,3.9611,3.2436
lg,1625503330287988261,0,-0.1958,-0.7891,0.6619,623,18.3105,53.0396,18.6768,87,1.4537,1.5638,23.7333,-43.6062,29,0.1581,8636,3.9611,2.136
lg,1625503330288006798,0,-0.2439,-0.812,0.6704,624,15.2588,57.251,27.4658,87,1.4557,1.5648,25.7164,-43.6388,29,0.1611,8611,3.9611,1.1508
lg,1625503330288025168,0,-0.3359,-0.7915,0.699,625,0.3052,25.8789,47.7905,87,1.4557,1.5648,27.4556,-43.486,29,0.1601,8628,3.9611,1.8098
lg,1625503330288045502,0,-0.4165,-0.7754,0.6111,626,-33.7524,-28.5645,70.9839,87,1.4197,1.5658,28.5977,-43.7402,29,0.1491,8602,3.9611,6.0364
lg,1625503330288066242,0,-0.3843,-0.5913,1.0107,627,-51.5747,-61.5845,108.2153,87,1.4047,1.5638,29.3767,-42.528,29,0.1491,8314,3.9611,11.8479
lg,1625503330288087557,0,-0.4165,-0.4597,0.3818,628,-13.3057,-116.8213,21.7285,87,1.3897,1.5598,26.7226,-41.3199,29,0.1461,7981,3.9611,15.996
lg,1625503330288108150,0,-0.3091,-0.8279,0.7292,629,-63.1104,-185.4858,-0.4883,87,1.3867,1.5568,20.7721,-41.9666,29,0.1421,8715,3.9611,21.2422
lg,1625503330288127446,0,-0.3914,-0.9229,0.5659,630,-68.1152,-178.1006,-4.6387,87,1.3847,1.5558,16.6281,-43.5241,29,0.1391,8661,3.9611,25.3657
lg,1625503330288148020,0,-0.1533,-1.0247,0.6304,631,-25.8179,-132.8125,17.2729,87,1.3837,1.5558,12.4965,-43.8008,29,0.1371,9593,3.9611,29.581
lg,1625503330288165724,0,0.3318,-0.8726,0.6936,632,-21.0571,-120.4834,23.8647,87,1.3867,1.5578,9.335,-44.4713,29,0.1361,9396,3.9611,32.6721
lg,1625503330288185465,0,0.6414,-1.021,0.6035,633,-18.7988,-31.1279,17.0898,87,1.3897,1.5588,7.5629,-45.529,29,0.1371,8797,3.9611,33.9776
lg,1625503330288203390,0,0.5039,-1.0571,0.5056,634,9.3384,101.0132,-21.9116,87,1.3957,1.5608,8.578,-46.3273,29,0.1401,8847,3.9611,30.3416
lg,1625503330288221668,0,0.146,-0.988,0.4695,635,36.377,209.0454,-58.96,87,1.4057,1.5628,11.9513,-46.9818,29,0.1421,8894,3.9611,22.4171
lg,1625503330288240983,0,-0.1824,-0.8936,0.4448,636,47.6074,238.7085,-85.022,87,1.4207,1.5648,15.809,-48.0419,29,0.1431,8859,3.9611,12.6795
lg,1625503330288258335,0,-0.3037,-0.8618,0.4229,637,47.7905,231.9946,-90.271,87,1.4347,1.5648,19.4004,-49.601,29,0.1431,8505,3.9611,2.7352
lg,1625503330288277853,0,-0.4309,-0.8525,0.4197,638,51.8188,171.1426,-95.8252,87,1.4407,1.5628,21.0148,-50.9012,29,0.1441,8904,3.9611,-5.6581
lg,1625503330288296557,0,-0.4971,-0.7661,0.2036,639,56.9458,47.8516,-95.6421,87,1.4397,1.5648,19.7389,-50.9066,29,0.1421,8910,3.9611,-10.1102
lg,1625503330288345187,0,-0.3997,-0.7319,0.3264,640,55.2368,4.2725,-34.4849,87,1.4337,1.5628,19.0768,-49.6073,29,0.1421,8967,3.9611,-11.3645
lg,1625503330649154853,0,-0.2522,-0.6572,0.8801,641,-11.7798,-21.9727,82.3975,87,1.4357,1.5628,21.2857,-49.2253,29,0.1481,26070,3.9611,-7.5231
lg,1625503330649199001,0,-0.4976,-0.886,0.6951,642,-48.3398,-101.1963,107.7271,87,1.4287,1.5638,21.9997,-48.9079,29,0.1451,13605,3.9611,-1.2331
lg,1625503330649219372,0,-0.5945,-0.7354,0.7214,643,-44.7998,-143.8599,126.0376,87,1.4097,1.5638,22.2528,-47.4445,29,0.1421,8367,3.9611,7.0743
lg,1625503330649239205,0,-0.2534,-0.4548,1.1685,644,-32.0435,-198.4253,120.4224,87,1.4007,1.5638,19.8532,-44.1809,29,0.1461,7980,3.9611,17.1516
lg,1625503330649257298,0,-0.2305,-0.4814,0.4805,645,-22.3389,-265.3198,78.8574,87,1.3947,1.5638,14.2677,-42.1629,29,0.1461,8064,3.9611,27.1261
lg,1625503330649275501,0,0.1926,-0.9187,0.7524,646,-93.9941,-323.5474,55.3589,87,1.3967,1.5638,5.5331,-44.4164,29,0.1461,8065,3.9611,37.6569
lg,1625503330649294205,0,0.4136,-1.1543,0.5308,647,-78.5522,-242.6147,17.0288,87,1.4007,1.5638,-1.5386,-48.0399,29,0.1451,8550,3.9611,45.0775
lg,1625503330649311649,0,0.5176,-1.1448,0.4636,648,-15.686,-87.2803,11.6577,87,1.4017,1.5648,-4.2971,-49.5092,29,0.1451,14169,3.9611,48.0454
lg,1625503330649330631,0,0.4749,-0.9004,0.4851,649,22.8271,29.6631,-5.6763,87,1.4027,1.5658,-4.5008,-48.9428,29,0.1451,10260,3.9611,47.02
lg,1625503330649348298,0,0.1187,-0.821,0.522,650,29.9683,128.2959,-13.916,87,1.4067,1.5658,-1.6292,-47.8473,29,0.1461,8493,3.9611,42.8274
lg,1625503330649366742,0,-0.1353,-0.8479,0.4849,651,27.0996,112.3047,-17.4561,87,1.4107,1.5668,1.2435,-47.2243,29,0.1471,7813,3.9611,39.0549
lg,1625503330649384353,0,-0.2583,-0.8042,0.4482,652,25.9399,70.6177,-5.4321,87,1.4147,1.5668,3.5654,-46.7876,29,0.1491,9449,3.9611,36.8276
lg,1625503330649401242,0,-0.2896,-0.813,0.4795,653,28.1372,60.5469,7.5684,87,1.4197,1.5678,5.9723,-46.261,29,0.1501,8743,3.9611,35.2433
lg,1625503330649419594,0,-0.239,-0.7847,0.5518,654,25.6348,19.5923,31.3721,87,1.4237,1.5678,7.7321,-45.5221,29,0.1501,8568,3.9611,35.5218
lg,1625503330649438742,0,-0.1045,-0.7783,0.6223,655,20.0806,-12.085,46.0205,87,1.4287,1.5678,8.6267,-44.7055,29,0.1501,8624,3.9611,37.1472
lg,1625503330649455946,0,0.1575,-0.8616,0.9109,656,23.4985,-23.4375,47.6074,87,1.4367,1.5668,8.6609,-43.3993,29,0.1511,8620,3.9611,39.19
lg,1625503330649472890,0,0.324,-0.8635,0.9319,657,23.2544,-28.5645,33.5693,87,1.4477,1.5668,7.852,-42.1846,29,0.1531,8680,3.9611,40.963
lg,1625503330649490687,0,0.3823,-0.9731,0.8284,658,20.5688,17.5781,-1.8311,87,1.4537,1.5668,7.3834,-41.7083,29,0.1531,7921,3.9611,40.389
lg,1625503330649508205,0,0.1357,-1.0132,0.7378,659,30.5786,108.2153,-21.8506,87,1.4557,1.5648,9.496,-41.4853,29,0.1531,8294,3.9611,36.755
lg,1625503330649583742,0,0.0337,-0.9663,0.7317,660,38.9404,140.3198,-21.0571,87,1.4567,1.5658,12.896,-41.2265,29,0.1531,8753,3.9611,32.2519
lg,1625503330649607612,0,-0.1584,-0.8237,0.7214,661,25.3906,159.6069,1.1597,87,1.4587,1.5648,17.4997,-41.6489,29,0.1571,8772,3.9611,27.8362
lg,1625503330649626409,0,-0.2874,-0.7148,0.6067,662,-5.127,124.939,37.5977,87,1.4527,1.5668,22.1645,-42.9779,29,0.1541,8753,3.9611,25.337
lg,1625503330649645835,0,-0.5903,-0.6577,0.6282,663,-8.9111,131.897,41.3208,87,1.4357,1.5668,27.5083,-44.5857,29,0.1501,8782,3.9611,22.5687
lg,1625503330649663057,0,-0.769,-0.6709,0.7537,664,-2.5635,125.9766,44.1895,87,1.4187,1.5678,31.7039,-45.2514,29,0.1471,8427,3.9611,21.3245
lg,1625503330649680131,0,-0.9028,-0.6409,0.7986,665,-15.8081,10.8643,39.1235,87,1.4097,1.5658,33.4963,-45.1306,29,0.1471,8872,3.9611,22.3934
lg,1625503330649696538,0,-0.6301,-0.6233,0.4502,666,-33.3862,-149.231,6.1646,87,1.4067,1.5658,29.6867,-44.0806,29,0.1471,8136,3.9611,27.3652
lg,1625503330649713649,0,-0.3359,-0.8486,0.5664,667,-56.5186,-201.5991,21.8506,87,1.4077,1.5658,24.0916,-43.6816,29,0.1471,8950,3.9611,34.0925
lg,1625503330649742668,0,-0.0378,-0.9331,0.4155,668,-49.8047,-201.355,14.4043,87,1.4107,1.5658,17.9505,-44.2692,29,0.1471,11053,3.9611,40.1566
lg,1625503330649761390,0,0.3164,-0.908,0.4014,669,-27.0996,-157.6538,26.3672,87,1.4137,1.5668,12.9412,-44.7431,29,0.1471,8920,3.9611,45.2705
lg,1625503330649778835,0,0.4475,-0.8777,0.4268,670,-17.7002,-119.0186,27.5269,87,1.4187,1.5678,8.9149,-45.2956,29,0.1461,8265,3.9611,49.3524
lg,1625503330649796631,0,0.4648,-0.9233,0.5173,671,0.1221,-16.6626,8.667,87,1.4257,1.5678,7.4836,-45.7373,29,0.1481,8626,3.9611,49.9946
lg,1625503330649814483,0,0.2087,-0.9417,0.5469,672,15.2588,66.1621,-4.0894,87,1.4347,1.5678,8.4916,-45.9505,29,0.1491,8534,3.9611,47.8869
lg,1625503331030627297,0,-0.0627,-0.686,0.5913,673,22.522,64.8193,13.4277,87,1.4477,1.5688,10.9766,-45.4907,29,0.1531,26921,3.9677,46.6167
lg,1625503331030668964,0,-0.23,-0.8198,0.7244,674,12.7563,70.3125,30.2124,80,1.4477,1.5688,14.0102,-45.283,29,0.1541,8414,3.9677,45.6319
lg,1625503331030690742,0,-0.3889,-0.8413,0.748,675,20.5688,48.0957,33.2642,80,1.4457,1.5688,16.4989,-44.6845,29,0.1541,7581,3.9677,45.1669
lg,1625503331030710205,0,-0.3909,-0.7051,0.7065,676,19.7754,-8.5449,28.5034,80,1.4447,1.5688,17.2375,-43.5728,29,0.1531,8356,3.9677,46.2724
lg,1625503331030728557,0,-0.3123,-0.709,0.6511,677,7.5684,-50.415,35.4004,80,1.4447,1.5688,16.7679,-42.6735,29,0.1541,8004,3.9677,48.7545
lg,1625503331030748094,0,-0.2451,-0.7505,0.6743,678,2.8076,-65.0024,34.0576,80,1.4437,1.5688,15.1438,-42.1007,29,0.1541,8999,3.9677,51.6714
lg,1625503331030766834,0,-0.0764,-0.7998,0.6665,679,-0.3052,-78.125,29.6631,80,1.4437,1.5688,13.1939,-41.6813,29,0.1531,8561,3.9677,54.6512
lg,1625503331030786020,0,0.0479,-0.8328,0.6267,680,1.2817,-60.9741,21.5454,80,1.4437,1.5698,11.3415,-41.5848,29,0.1521,8027,3.9677,56.8666
lg,1625503331030811020,0,0.0381,-0.8547,0.5798,681,5.6763,-44.0674,17.7612,80,1.4437,1.5688,10.4666,-41.546,29,0.1511,8405,3.9677,57.8462
lg,1625503331030830316,0,0.062,-0.8323,0.585,682,14.4043,-7.9346,10.0098,80,1.4437,1.5688,9.9567,-41.4015,29,0.1511,8083,3.9677,58.267
lg,1625503331030849353,0,0.0325,-0.8027,0.6018,683,18.9819,11.4136,2.6855,80,1.4447,1.5688,9.9107,-41.1416,29,0.1501,8182,3.9677,57.9603
lg,1625503331030867168,0,-0.0007,-0.7959,0.5681,684,19.8364,25.6348,-4.0283,80,1.4477,1.5698,10.1934,-41.0131,29,0.1501,8453,3.9677,57.0592
lg,1625503331030885205,0,-0.0859,-0.8047,0.5459,685,20.5688,40.8325,-5.6152,80,1.4497,1.5698,11.0795,-41.0046,29,0.1491,11008,3.9677,55.69
lg,1625503331030902909,0,-0.1211,-0.8123,0.5903,686,22.2778,45.0439,-3.6621,80,1.4507,1.5678,12.1792,-40.8889,29,0.1491,7826,3.9677,54.2698
lg,1625503331030920723,0,-0.1321,-0.7681,0.5908,687,27.771,36.499,-0.061,80,1.4497,1.5688,13.1112,-40.4461,29,0.1501,8544,3.9677,53.1932
lg,1625503331031032242,0,-0.156,-0.7297,0.5876,688,28.2593,28.5645,2.3804,80,1.4517,1.5678,13.9021,-39.8967,29,0.1491,8563,3.9677,52.4111
lg,1625503331031063834,0,-0.1831,-0.709,0.6045,689,28.0762,27.6489,5.9204,80,1.4527,1.5688,14.8112,-39.2751,29,0.1501,8220,3.9677,51.9215
lg,1625503331031083890,0,-0.1758,-0.7231,0.6189,690,25.8179,22.7051,12.4512,80,1.4507,1.5648,15.6603,-38.6939,29,0.1501,8611,3.9677,51.6243
lg,1625503331031105909,0,-0.1812,-0.7373,0.6479,691,26.8555,16.9067,17.5171,80,1.4517,1.5688,16.4224,-37.9787,29,0.1491,8650,3.9677,51.6488
lg,1625503331031129242,0,-0.1665,-0.7585,0.6799,692,31.7383,14.8315,22.1558,80,1.4517,1.5678,17.1432,-37.0229,29,0.1501,7923,3.9677,51.883
lg,1625503331031147946,0,-0.1687,-0.7434,0.665,693,36.1328,11.1694,20.6299,80,1.4527,1.5678,17.7023,-35.9022,29,0.1511,8800,3.9677,52.1628
lg,1625503331031167871,0,-0.1526,-0.7139,0.6362,694,39.7339,8.4229,18.3716,80,1.4537,1.5678,18.0728,-34.6836,29,0.1521,8346,3.9677,52.4307
lg,1625503331031192742,0,-0.1487,-0.707,0.636,695,41.9312,4.1504,17.0288,80,1.4547,1.5688,18.2448,-33.3935,29,0.1541,8747,3.9677,52.7536
lg,1625503331031219723,0,-0.1499,-0.708,0.6155,696,45.8984,2.8687,16.0522,80,1.4557,1.5688,18.3497,-32.0329,29,0.1551,8764,3.9677,53.0538
lg,1625503331031240094,0,-0.1555,-0.7222,0.6106,697,49.4385,2.0142,14.0381,80,1.4567,1.5678,18.3113,-30.4824,29,0.1561,8872,3.9677,53.2364
lg,1625503331031257686,0,-0.1382,-0.6746,0.5667,698,58.96,-2.7466,11.2915,80,1.4577,1.5698,18.1081,-28.7661,29,0.1561,8972,3.9677,53.4536
lg,1625503331031276279,0,-0.1389,-0.6787,0.5959,699,65.6128,-2.1362,8.1787,80,1.4547,1.5678,17.8574,-26.8429,29,0.1561,8838,3.9677,53.543
lg,1625503331031359501,0,-0.1587,-0.6765,0.6282,700,67.1387,-4.3945,3.1128,80,1.4577,1.5688,17.4764,-24.9146,29,0.1561,8879,3.9677,53.4861
lg,1625503331031382909,0,-0.1543,-0.6694,0.679,701,67.0166,-13.1226,-1.8921,80,1.4587,1.5688,16.6804,-22.9821,29,0.1561,8498,3.9677,53.3949
lg,1625503331031401779,0,-0.1494,-0.6743,0.6868,702,66.7725,-18.6768,-2.3804,80,1.4597,1.5688,15.6899,-21.1142,29,0.1571,8944,3.9677,53.3452
lg,1625503331031730334,0,-0.1643,-0.6731,0.6768,703,66.7725,-27.71,-4.3335,80,1.4577,1.5678,14.4114,-19.3191,29,0.1571,8194,3.9677,53.3189
lg,1625503331031774686,0,-0.1377,-0.6892,0.7139,704,68.9087,-32.7759,-2.5024,80,1.4587,1.5688,12.9352,-17.4549,30,0.1571,10635,3.9677,53.4033
lg,1625503331390202982,0,0.0137,-0.5684,0.6843,705,88.1348,-19.043,13.1836,80,1.4587,1.5678,11.85,-14.6622,29,0.1581,25458,3.9677,53.9273
lg,1625503331390239112,0,0.0549,-0.5566,0.73,706,90.0879,31.7993,20.9961,80,1.4577,1.5678,12.7156,-11.8497,29,0.1581,14942,3.9677,54.265
lg,1625503331390258538,0,0,-0.6174,0.7676,707,90.0269,48.3398,19.9585,80,1.4567,1.5678,14.7343,-9.2347,29,0.1571,7764,3.9677,54.2888
lg,1625503331390278353,0,-0.0496,-0.6599,0.7961,708,91.4917,67.749,15.564,80,1.4567,1.5678,17.1048,-6.7126,29,0.1581,8146,3.9677,54.2225
lg,1625503331390296705,0,-0.1423,-0.6672,0.8042,709,96.3745,69.2139,9.9487,80,1.4557,1.5678,19.6293,-4.1162,29,0.1581,8067,3.9677,53.9749
lg,1625503331390314297,0,-0.2024,-0.6575,0.8088,710,100.3418,57.0068,6.0425,80,1.4547,1.5678,21.7091,-1.4342,29,0.1571,8411,3.9677,53.6464
lg,1625503331390331390,0,-0.2183,-0.6079,0.8562,711,101.1963,44.1284,4.7607,80,1.4537,1.5678,22.5862,1.3422,29,0.1571,10145,3.9677,53.3151
lg,1625503331390348205,0,-0.2234,-0.5955,0.8508,712,101.8677,10.8643,1.8921,80,1.4537,1.5678,22.6959,4.0796,29,0.1571,9349,3.9677,52.8839
lg,1625503331390365686,0,-0.134,-0.5105,0.8428,713,105.1636,-37.6587,0.1831,80,1.4517,1.5668,20.7847,6.815,29,0.1581,13426,3.9677,52.182
lg,1625503331390382482,0,-0.0496,-0.439,0.8816,714,106.4453,-55.542,1.8311,80,1.4507,1.5668,18.0278,9.6476,29,0.1571,8163,3.9677,51.4336
lg,1625503331390399353,0,-0.0283,-0.4143,0.8665,715,103.6987,-54.0161,2.9297,80,1.4487,1.5668,15.3908,12.3226,29,0.1571,8212,3.9677,50.6835
lg,1625503331390416742,0,-0.0325,-0.4192,0.8911,716,92.8955,-35.8276,3.2959,80,1.4467,1.5658,13.5719,14.5439,29,0.1571,8236,3.9677,50.0807
lg,1625503331390434631,0,-0.1138,-0.4939,0.937,717,84.0454,-8.4229,6.0425,80,1.4447,1.5658,13.0318,16.3631,29,0.1571,8633,3.9677,49.8543
lg,1625503331390451205,0,-0.1755,-0.5144,0.9756,718,82.4585,2.6245,8.0566,80,1.4407,1.5648,13.2115,18.1959,29,0.1561,8601,3.9677,49.989
lg,1625503331390467945,0,-0.2612,-0.5342,1.1372,719,84.3506,0.6104,12.8784,80,1.4387,1.5658,13.1496,20.1067,29,0.1551,8806,3.9677,50.1364
lg,1625503331390485482,0,-0.2913,-0.4902,1.2456,720,88.9893,-33.3862,12.7563,80,1.4357,1.5648,11.8216,22.1429,30,0.1551,8609,3.9677,49.7837
lg,1625503331390502297,0,-0.2349,-0.4319,1.2913,721,83.6792,-80.7495,10.7422,80,1.4357,1.5638,8.726,23.8387,30,0.1551,8389,3.9677,48.5932
lg,1625503331390520705,0,-0.1226,-0.4111,1.2893,722,72.7539,-109.7412,11.2915,80,1.4367,1.5638,4.5084,25.0655,30,0.1551,8792,3.9677,46.9411
lg,1625503331390537556,0,-0.0728,-0.3962,1.2495,723,68.4204,-120.7275,12.0239,80,1.4377,1.5638,-0.1449,26.1611,30,0.1571,7996,3.9677,45.1555
lg,1625503331390554279,0,0.0706,-0.3982,1.1741,724,60.3027,-131.3477,11.1694,80,1.4387,1.5638,-5.1444,27.0538,29,0.1571,8016,3.9677,43.1977
lg,1625503331390571168,0,0.1621,-0.386,1.1382,725,57.0068,-102.478,16.4185,80,1.4407,1.5648,-9.2288,27.8649,29,0.1571,8064,3.9677,42.0209
lg,1625503331390587871,0,0.1904,-0.3777,1.095,726,55.1147,-76.8433,20.2026,80,1.4417,1.5638,-12.4475,28.5555,29,0.1571,8075,3.9677,41.528
lg,1625503331390605019,0,0.1785,-0.3311,1.0813,727,49.4385,-15.686,20.1416,80,1.4397,1.5648,-13.3882,28.7857,29,0.1571,8102,3.9677,42.3015
lg,1625503331390621927,0,0.0034,-0.3516,1.1316,728,37.9028,35.7056,7.5073,80,1.4417,1.5638,-11.9225,28.4057,29,0.1571,8137,3.9677,43.6648
lg,1625503331390638260,0,-0.0891,-0.376,1.1619,729,32.5928,43.7012,5.8594,80,1.4417,1.5648,-9.8773,27.8275,29,0.1571,8149,3.9677,45.0627
lg,1625503331390657982,0,-0.2031,-0.436,1.1897,730,26.9775,10.376,3.8452,80,1.4417,1.5648,-8.9686,27.1599,29,0.1561,8183,3.9677,45.6836
lg,1625503331390674297,0,-0.2026,-0.4661,1.1687,731,28.8696,-61.7676,1.1597,80,1.4447,1.5648,-10.5951,26.782,29,0.1571,8930,3.9677,44.8521
lg,1625503331390690742,0,-0.0688,-0.4172,1.0361,732,32.2266,-128.3569,5.4932,80,1.4447,1.5648,-14.8423,26.7963,29,0.1561,8235,3.9677,42.9988
lg,1625503331390707427,0,0.0049,-0.3645,0.9177,733,33.8745,-159.729,6.0425,80,1.4457,1.5648,-20.3957,27.2448,29,0.1561,9035,3.9677,40.6266
lg,1625503331390724075,0,0.1411,-0.2681,0.8442,734,40.4053,-177.6733,8.8501,80,1.4477,1.5618,-26.5926,28.4342,29,0.1561,9004,3.9677,37.9501
lg,1625503331390740501,0,0.3042,-0.1375,0.8621,735,35.5225,-123.4131,36.6821,80,1.4457,1.5648,-31.505,28.9526,29,0.1561,8974,3.9677,37.3784
lg,1625503331390757593,0,0.4077,-0.1462,1.0149,736,3.7231,-39.4287,51.2085,80,1.4477,1.5658,-33.6676,26.8964,29,0.1561,9078,3.9677,39.4444
lg,1625503331752397408,0,0.1584,-0.4512,1.2561,737,15.686,45.6543,13.7939,80,1.4467,1.5638,-31.6185,24.7485,29,0.1551,28454,3.9677,42.061
lg,1625503331752443204,0,0.0723,-0.2812,1.1628,738,16.0522,31.7993,2.8687,80,1.4457,1.5638,-29.6833,23.3852,29,0.1561,16960,3.9677,43.6439
lg,1625503331752464334,0,0.0376,-0.2939,1.104,739,5.8594,29.2358,6.0425,80,1.4457,1.5638,-27.8703,21.6472,29,0.1561,8613,3.9677,45.2014
lg,1625503331752484278,0,0.0234,-0.2898,1.1099,740,6.5918,25.4517,8.2397,80,1.4447,1.5638,-26.2145,20.0607,29,0.1561,8369,3.9677,46.6563
lg,1625503331752503353,0,0.0132,-0.2493,1.0959,741,7.8125,25.6348,12.085,80,1.4447,1.5628,-24.5828,18.6303,29,0.1561,7645,3.9677,48.1371
lg,1625503331752521686,0,0.033,-0.2161,1.052,742,5.127,22.2168,15.2588,80,1.4437,1.5638,-23.1666,17.2064,29,0.1551,8063,3.9677,49.5883
lg,1625503331752539964,0,0.053,-0.2688,1.0247,743,-0.8545,21.3013,17.8223,80,1.4437,1.5638,-21.8893,15.4918,29,0.1551,8610,3.9677,51.0953
lg,1625503331752558593,0,0.0554,-0.2793,1.0146,744,-2.3193,22.0337,17.0288,80,1.4447,1.5638,-20.6229,13.7762,29,0.1541,8408,3.9677,52.5157
lg,1625503331753245353,0,0.0649,-0.3044,0.9949,745,-0.6104,26.8555,15.5029,80,1.4447,1.5638,-19.1576,12.2125,29,0.1521,8502,3.9677,53.8473
lg,1625503331753276278,0,0.041,-0.2878,0.9614,746,3.7842,32.7148,11.9629,80,1.4447,1.5638,-17.406,10.969,29,0.1531,8041,3.9677,54.9947
lg,1625503331753300408,0,0.0393,-0.292,0.9592,747,4.9438,34.6069,11.0474,80,1.4447,1.5638,-15.4624,9.9078,29,0.1531,8084,3.9677,56.0126
lg,1625503331753440649,0,-0.0142,-0.3018,0.9412,748,6.3477,36.2549,8.7891,80,1.4447,1.5638,-13.5231,8.9219,29,0.1521,8112,3.9677,56.9046
lg,1625503331753488482,0,-0.05,-0.3049,0.946,749,7.019,33.7524,6.6528,80,1.4447,1.5638,-11.6444,8.0527,29,0.1521,8121,3.9677,57.6215
lg,1625503331753510815,0,-0.0801,-0.2866,0.9622,750,7.6294,27.832,6.6528,80,1.4437,1.5628,-9.9614,7.274,29,0.1521,8155,3.9677,58.2419
lg,1625503331753531741,0,-0.092,-0.2832,0.9463,751,9.5215,8.1787,4.7607,80,1.4427,1.5618,-9.0943,6.6861,29,0.1521,8493,3.9677,58.6332
lg,1625503331753554630,0,-0.0837,-0.2993,0.9705,752,10.498,-11.2305,7.3242,80,1.4437,1.5628,-9.0586,6.1407,29,0.1521,8264,3.9677,59.0222
lg,1625503331753579501,0,-0.0481,-0.3,1.0125,753,10.9253,-18.1274,11.7798,80,1.4437,1.5618,-9.5811,5.6267,29,0.1521,8226,3.9677,59.5703
lg,1625503331753600964,0,-0.0347,-0.3066,1.0493,754,11.0474,-25.3906,14.0991,80,1.4437,1.5628,-10.2176,5.1254,29,0.1521,8690,3.9677,60.1861
lg,1625503331753623575,0,0.0115,-0.2959,1.0637,755,10.498,-25.4517,13.4277,80,1.4437,1.5618,-10.9177,4.6445,29,0.1511,7959,3.9677,60.7866
lg,1625503331753643927,0,0.0017,-0.3042,1.0723,756,11.1084,-24.5361,12.5122,80,1.4437,1.5618,-11.5291,4.1931,29,0.1521,8309,3.9677,61.3713
lg,1625503331753665315,0,0.0085,-0.282,1.0625,757,10.0708,-23.4375,10.6812,80,1.4447,1.5618,-12.076,3.7616,29,0.1521,10934,3.9677,61.8914
lg,1625503331753684501,0,-0.0127,-0.2935,1.0845,758,8.4229,-24.5361,10.2539,80,1.4447,1.5608,-12.6436,3.2392,29,0.1531,8332,3.9677,62.3891
lg,1625503331753703093,0,0.0088,-0.2998,1.0535,759,5.4321,-29.48,10.3149,80,1.4457,1.5608,-13.3827,2.6112,29,0.1531,8427,3.9677,62.9163
lg,1625503331753722760,0,0.0361,-0.3,1.0237,760,5.6763,-31.8604,10.9253,80,1.4457,1.5608,-14.3897,2.0038,29,0.1521,8075,3.9677,63.4343
lg,1625503331753741723,0,0.0452,-0.3081,1.0564,761,5.0659,-39.856,9.3384,80,1.4467,1.5618,-15.5392,1.3832,29,0.1521,8097,3.9677,63.9541
lg,1625503331753818927,0,0.1077,-0.3091,1.0601,762,5.7373,-46.814,8.4839,80,1.4477,1.5618,-17.0418,0.8105,29,0.1521,8108,3.9677,64.4612
lg,1625503331753843778,0,0.1831,-0.3311,1.041,763,6.958,-48.0347,7.5684,80,1.4477,1.5608,-18.7216,0.3081,29,0.1521,8116,3.9677,64.963
lg,1625503331753863130,0,0.1965,-0.3376,1.0464,764,11.0474,-46.2646,5.4932,80,1.4497,1.5608,-20.3285,-0.0643,29,0.1521,8649,3.9677,65.43
lg,1625503331753882482,0,0.2603,-0.3003,1.0146,765,17.5781,-30.7007,5.0659,80,1.4497,1.5618,-21.3201,-0.1081,29,0.1521,8929,3.9677,65.8827
lg,1625503331753901204,0,0.22,-0.2412,0.9624,766,22.7661,-0.9155,4.3335,80,1.4507,1.5618,-21.028,0.159,29,0.1511,8927,3.9677,66.2799
lg,1625503331753920834,0,0.1587,-0.1587,0.9617,767,14.9536,29.1138,7.0801,80,1.4507,1.5608,-19.4124,0.2544,29,0.1521,8867,3.9677,66.7297
lg,1625503331753975464,0,0.0515,-0.1543,0.9822,768,7.4463,41.5649,6.958,80,1.4517,1.5608,-16.7984,-0.2499,29,0.1521,8521,3.9677,67.2499
lg,1625503332124512797,0,-0.051,-0.2769,1.0503,769,-9.2773,31.6772,17.8833,80,1.4517,1.5608,-14.7843,-1.405,29,0.1521,25538,3.9677,68.1387
lg,1625503332124548500,0,-0.0359,-0.2908,1.0715,770,-0.1831,-3.1128,15.686,80,1.4517,1.5598,-14.2517,-2.1322,29,0.1511,10855,3.9677,68.9302
lg,1625503332124568019,0,0.0156,-0.2708,1.0376,771,4.2114,-19.4092,17.1509,80,1.4527,1.5598,-14.4786,-2.6537,29,0.1531,7640,3.9677,69.795
lg,1625503332124587000,0,0.0669,-0.2686,1.0439,772,5.0659,-24.8413,16.5405,80,1.4527,1.5598,-15.0118,-3.1155,29,0.1521,8505,3.9677,70.6491
lg,1625503332124608463,0,0.1406,-0.2817,1.0386,773,5.5542,-19.7144,15.0146,80,1.4527,1.5598,-15.4709,-3.5562,29,0.1521,8220,3.9677,71.4446
lg,1625503332124626149,0,0.1455,-0.3152,1.0276,774,5.127,-3.2349,13.0005,80,1.4537,1.5598,-15.2707,-4.0399,29,0.1521,10925,3.9677,72.1369
lg,1625503332124643815,0,0.1509,-0.3123,1.0281,775,6.5308,14.5874,11.6577,80,1.4537,1.5598,-14.3796,-4.4071,29,0.1521,8617,3.9677,72.7099
lg,1625503332124661204,0,0.0984,-0.2991,1.0156,776,6.958,29.9072,11.9629,80,1.4547,1.5598,-12.804,-4.704,29,0.1521,8528,3.9677,73.2227
lg,1625503332124678315,0,0.0479,-0.2734,1.0232,777,6.8359,35.4614,11.1694,80,1.4547,1.5588,-10.9605,-4.9112,29,0.1521,8537,3.9677,73.6471
lg,1625503332124694982,0,-0.0098,-0.2517,1.0217,778,5.5542,37.3535,11.4136,80,1.4557,1.5598,-8.9879,-5.1028,29,0.1521,8149,3.9677,74.0438
lg,1625503332124711741,0,-0.0681,-0.2717,1.0225,779,3.7842,27.5879,12.5732,80,1.4547,1.5598,-7.352,-5.3963,29,0.1521,8644,3.9677,74.5073
lg,1625503332124728186,0,-0.0681,-0.2639,1.0308,780,1.8311,13.916,13.2446,80,1.4557,1.5588,-6.3166,-5.7338,29,0.1521,13879,3.9677,75.0284
lg,1625503332124744741,0,-0.0757,-0.2549,1.0308,781,0.9155,0,15.9302,80,1.4557,1.5598,-5.8425,-6.086,29,0.1521,8639,3.9677,75.7004
lg,1625503332124761778,0,-0.0493,-0.2639,1.0547,782,1.5869,-13.4277,17.9443,80,1.4557,1.5588,-5.964,-6.4165,29,0.1521,8217,3.9677,76.5081
lg,1625503332124801241,0,-0.02,-0.272,1.0466,783,1.8921,-21.6064,16.8457,80,1.4567,1.5588,-6.4656,-6.7465,29,0.1531,9282,3.9677,77.3145
lg,1625503332124819926,0,0.0054,-0.2625,1.0356,784,2.3193,-24.4141,14.4653,80,1.4567,1.5598,-7.1186,-7.0317,29,0.1531,8686,3.9677,78.0444
lg,1625503332124836649,0,0.0188,-0.252,1.0137,785,4.0894,-23.7427,14.5874,80,1.4567,1.5598,-7.7448,-7.2335,29,0.1521,9929,3.9677,78.7815
lg,1625503332124853260,0,0.0288,-0.2478,1.0032,786,4.8828,-19.2261,16.2964,80,1.4587,1.5598,-8.179,-7.4057,29,0.1521,8705,3.9677,79.5691
lg,1625503332124869741,0,-0.0029,-0.2422,1.0215,787,2.5635,-18.7378,13.4888,92,1.4577,1.5588,-8.5194,-7.6313,29,0.1531,8016,3.9611,80.2425
lg,1625503332124886760,0,-0.0156,-0.24,1.0156,788,1.4038,-21.1182,14.3433,92,1.4587,1.5588,-9.0339,-7.95,29,0.1531,8827,3.9611,80.9422
lg,1625503332124903445,0,-0.0188,-0.2253,1.03,789,-1.5869,-28.4424,14.7705,92,1.4587,1.5558,-9.6752,-8.3098,29,0.1531,8430,3.9611,81.725
lg,1625503332124921482,0,-0.0195,-0.2407,1.0154,790,-2.6245,-36.7432,17.4561,92,1.4597,1.5598,-10.5956,-8.7763,29,0.1521,8062,3.9611,82.6813
lg,1625503332124938926,0,0.0117,-0.2529,1.0435,791,-3.1128,-40.6494,18.8599,92,1.4607,1.5588,-11.8076,-9.2791,29,0.1531,8089,3.9611,83.7111
lg,1625503332124956334,0,0.0276,-0.2612,1.0381,792,-2.6855,-47.0581,18.1274,92,1.4597,1.5588,-13.165,-9.8143,29,0.1531,9365,3.9611,84.8043
lg,1625503332124973667,0,0.0779,-0.2617,1.0425,793,-1.709,-50.293,16.3574,92,1.4607,1.5588,-14.6825,-10.2857,29,0.1531,10736,3.9611,85.8899
lg,1625503332124990704,0,0.1042,-0.2632,1.0481,794,-0.7324,-50.0488,15.3809,92,1.4607,1.5588,-16.2026,-10.7614,29,0.1531,9020,3.9611,86.9427
lg,1625503332125007630,0,0.1509,-0.2842,1.0813,795,1.77,-45.7764,15.8691,92,1.4617,1.5588,-17.534,-11.1445,29,0.1531,8941,3.9611,88.0028
lg,1625503332125024556,0,0.2114,-0.2991,1.063,796,2.6855,-46.6309,14.2212,92,1.4627,1.5598,-18.9767,-11.526,29,0.1521,8994,3.9611,89.0328
lg,1625503332125041112,0,0.2671,-0.3027,1.0183,797,5.4321,-33.3252,14.6484,92,1.4617,1.5588,-19.9637,-11.8091,29,0.1531,8349,3.9611,89.9944
lg,1625503332125071315,0,0.2986,-0.291,1.0129,798,7.6904,-21.3013,16.2964,92,1.4637,1.5588,-19.9577,-11.893,29,0.1531,9011,3.9611,90.7338
lg,1625503332125089537,0,0.2834,-0.2505,1.0112,799,7.2632,7.2021,14.7095,92,1.4637,1.5568,-19.3636,-11.8667,29,0.1531,8327,3.9611,91.3095
lg,1625503332125107186,0,0.2041,-0.2598,1.0164,800,4.3945,33.1421,12.085,92,1.4647,1.5598,-17.6381,-11.8566,29,0.1531,8668,3.9611,91.553
lg,1625503332490477852,0,-0.0149,-0.2451,1.0151,801,4.3335,53.833,10.6201,92,1.4647,1.5588,-14.9213,-11.75,29,0.1531,27791,3.9611,91.5843
lg,1625503332490533500,0,-0.0522,-0.2212,1.0247,802,4.3335,36.499,12.5122,92,1.4647,1.5588,-12.6997,-11.6396,29,0.1541,8471,3.9611,91.7881
lg,1625503332490553834,0,-0.0674,-0.2383,1.0325,803,3.9673,28.4424,13.2446,92,1.4657,1.5588,-10.8416,-11.5936,29,0.1541,7730,3.9611,92.0955
lg,1625503332490572574,0,-0.0564,-0.2151,1.0327,804,3.418,11.2305,14.2822,92,1.4657,1.5588,-9.7408,-11.5465,29,0.1541,7724,3.9611,92.5737
lg,1625503332490594204,0,-0.0574,-0.2244,1.0225,805,2.6855,4.2114,14.5874,92,1.4657,1.5588,-9.2103,-11.6352,29,0.1541,7719,3.9611,93.2269
lg,1625503332490612408,0,-0.0449,-0.229,1.0396,806,1.8921,-8.2397,14.8926,92,1.4657,1.5588,-8.9519,-11.6922,29,0.1531,8129,3.9611,93.8901
lg,1625503332490631593,0,-0.0171,-0.241,1.0503,807,0.9155,-15.9912,14.8315,92,1.4657,1.5588,-9.0642,-11.8145,29,0.1531,7917,3.9611,94.6176
lg,1625503332490649019,0,-0.0039,-0.2524,1.0386,808,1.0376,-20.3247,16.1133,92,1.4667,1.5588,-9.5884,-11.9978,30,0.1541,7778,3.9611,95.5131
lg,1625503332490666704,0,0.0425,-0.271,1.0547,809,1.0986,-27.8931,18.1885,92,1.4647,1.5588,-10.2301,-12.2127,30,0.1541,9074,3.9611,96.4889
lg,1625503332490684148,0,0.0962,-0.26,1.0208,810,2.3804,-26.7944,16.4185,92,1.4667,1.5588,-10.9331,-12.3603,30,0.1541,10487,3.9611,97.3887
lg,1625503332490701685,0,0.1333,-0.2483,1.0317,811,2.1973,-21.7285,15.9302,92,1.4667,1.5598,-11.4897,-12.4767,30,0.1541,8516,3.9611,98.2225
lg,1625503332490768278,0,0.1194,-0.2327,1.0347,812,1.4038,-10.437,15.0757,92,1.4677,1.5598,-11.5616,-12.5637,29,0.1541,8540,3.9611,98.9169
lg,1625503332490791334,0,0.1067,-0.2568,1.0308,813,1.6479,-4.5166,15.7471,92,1.4677,1.5588,-11.3526,-12.6579,29,0.1541,7816,3.9611,99.5899
lg,1625503332490809630,0,0.0918,-0.2397,1.0168,814,0.9155,3.2349,14.0381,92,1.4667,1.5578,-10.8503,-12.7443,29,0.1541,8646,3.9611,100.1232
lg,1625503332490826704,0,0.0547,-0.2437,1.0415,815,0.7935,5.5542,15.1978,92,1.4677,1.5588,-10.1843,-12.8272,29,0.1531,8576,3.9611,100.6785
lg,1625503332490844852,0,0.033,-0.2368,1.0356,816,0.2441,3.1738,13.7329,92,1.4677,1.5598,-9.6043,-12.9046,29,0.1541,8599,3.9611,101.1931
lg,1625503332490865185,0,0.0295,-0.2334,1.0298,817,0,-0.061,15.1978,92,1.4677,1.5588,-9.1531,-12.9983,29,0.1541,8654,3.9611,101.7933
lg,1625503332490883222,0,0.0342,-0.2539,1.0488,818,0,-6.1646,15.9912,92,1.4667,1.5588,-8.9556,-13.1275,29,0.1541,8612,3.9611,102.4841
lg,1625503332490900371,0,0.0505,-0.2539,1.0486,819,0.061,-12.146,15.686,92,1.4687,1.5588,-9.0335,-13.2551,30,0.1531,8689,3.9611,103.2175
lg,1625503332490917815,0,0.0605,-0.2498,1.0344,820,0.061,-13.855,16.6626,92,1.4677,1.5588,-9.1819,-13.3715,30,0.1541,7940,3.9611,104.0043
lg,1625503332490938500,0,0.0862,-0.2534,1.0347,821,0.7324,-14.2212,16.7236,92,1.4677,1.5588,-9.3952,-13.4824,30,0.1541,8708,3.9611,104.7997
lg,1625503332490956871,0,0.0925,-0.2625,1.0308,822,0.8545,-12.6953,15.8691,92,1.4687,1.5588,-9.561,-13.5997,30,0.1541,8676,3.9611,105.5509
lg,1625503332490975334,0,0.125,-0.26,1.0176,823,1.5259,-8.9722,16.7847,92,1.4687,1.5608,-9.6379,-13.6891,29,0.1541,8763,3.9611,106.303
lg,1625503332490995834,0,0.0979,-0.2427,1.0266,824,1.2817,-5.0659,15.1978,92,1.4687,1.5588,-9.4091,-13.7547,29,0.1541,8415,3.9611,106.9743
lg,1625503332491013982,0,0.0872,-0.2253,1.0195,825,0.3052,2.8687,15.4419,92,1.4687,1.5588,-8.9653,-13.7798,29,0.1541,13898,3.9611,107.5452
lg,1625503332491032074,0,0.0645,-0.2681,1.0303,826,0.1221,4.2114,14.8315,92,1.4687,1.5588,-8.4407,-13.8854,29,0.1541,8824,3.9611,108.0914
lg,1625503332491080185,0,0.0293,-0.2473,1.0374,827,-0.3052,2.6855,14.7095,92,1.4697,1.5588,-7.9218,-13.9532,30,0.1541,8505,3.9611,108.6388
lg,1625503332491106871,0,0.0405,-0.2395,1.0303,828,-0.6104,0.9766,15.5029,92,1.4697,1.5588,-7.4583,-14.0202,30,0.1541,8947,3.9611,109.2312
lg,1625503332491124834,0,0.0347,-0.2725,1.0376,829,-0.7935,-5.0049,16.7236,92,1.4697,1.5588,-7.4446,-14.1474,30,0.1541,8900,3.9611,109.9937
lg,1625503332491143000,0,0.0474,-0.2554,1.0476,830,0.4883,-12.5122,16.6626,92,1.4707,1.5588,-7.568,-14.2076,29,0.1541,9124,3.9611,110.7666
lg,1625503332491162074,0,0.0613,-0.2468,1.0391,831,0.2441,-17.9443,17.395,92,1.4697,1.5598,-7.9185,-14.276,29,0.1541,8922,3.9611,111.621
lg,1625503332491180185,0,0.0896,-0.2463,1.03,832,-0.061,-17.6392,16.2964,92,1.4697,1.5588,-8.3145,-14.3567,29,0.1541,9102,3.9611,112.4306
lg,1625503332866529778,0,0.1223,-0.2393,1.0132,833,0,-4.5166,15.1978,92,1.4707,1.5588,-8.2253,-14.4226,29,0.1541,27376,3.9611,113.0673
lg,1625503332866577685,0,0.0918,-0.248,1.0315,834,0.3662,2.9907,14.3433,92,1.4707,1.5588,-7.8349,-14.4424,29,0.1541,8457,3.9611,113.5924
lg,1625503332866598648,0,0.0735,-0.2527,1.043,835,0.1831,3.9062,14.2212,92,1.4707,1.5588,-7.3852,-14.4668,29,0.1541,7669,3.9611,114.1036
lg,1625503332866618704,0,0.0654,-0.2659,1.033,836,0.5493,3.8452,15.5029,92,1.4707,1.5588,-6.9264,-14.5103,29,0.1541,9962,3.9611,114.6691
lg,1625503332866637815,0,0.0566,-0.25,1.033,837,0.5493,1.5869,15.2588,92,1.4707,1.5588,-6.5571,-14.5164,29,0.1541,8395,3.9611,115.2432
lg,1625503332866655537,0,0.0681,-0.2463,1.0317,838,1.2817,-1.0376,15.1367,92,1.4717,1.5588,-6.3298,-14.4856,29,0.1541,8672,3.9611,115.8382
lg,1625503332866674167,0,0.0698,-0.2544,1.0369,839,1.3428,-2.9907,15.7471,92,1.4707,1.5588,-6.1836,-14.4705,29,0.1541,8964,3.9611,116.4783
lg,1625503332866691963,0,0.0693,-0.25,1.041,840,1.4038,-3.418,15.8691,92,1.4707,1.5598,-6.0574,-14.4418,29,0.1541,8454,3.9611,117.1263
lg,1625503332866738704,0,0.0781,-0.2422,1.0376,841,1.709,-3.8452,16.2964,92,1.4707,1.5578,-5.9682,-14.3886,29,0.1541,8834,3.9611,117.7938
lg,1625503332866758611,0,0.0696,-0.2544,1.0151,842,1.2817,-2.6245,14.7705,92,1.4717,1.5598,-5.8355,-14.3828,29,0.1541,8850,3.9611,118.3937
lg,1625503332866775833,0,0.0801,-0.2261,1.0222,843,1.0986,-2.4414,16.2354,92,1.4717,1.5588,-5.7096,-14.3253,29,0.1541,8126,3.9611,119.0423
lg,1625503332866792963,0,0.0706,-0.2471,1.0366,844,0.6104,-2.0752,15.4419,92,1.4717,1.5588,-5.5593,-14.3218,29,0.1541,7783,3.9611,119.6602
lg,1625503332866809963,0,0.0742,-0.2402,1.0305,845,0.3052,-1.5259,14.7705,92,1.4707,1.5598,-5.4095,-14.3146,29,0.1541,11625,3.9611,120.2455
lg,1625503332866827167,0,0.0581,-0.2612,1.0391,846,0.1831,-1.0376,14.7705,92,1.4707,1.5588,-5.2106,-14.3496,29,0.1541,13302,3.9611,120.8295
lg,1625503332866844611,0,0.0632,-0.249,1.021,847,0.1831,-1.77,16.4795,92,1.4717,1.5588,-5.0361,-14.3592,29,0.1541,8549,3.9611,121.4845
lg,1625503332866861778,0,0.0649,-0.2449,1.0403,848,0.4272,-3.8452,16.8457,92,1.4717,1.5588,-4.9545,-14.3546,29,0.1541,7860,3.9611,122.1738
lg,1625503332866878407,0,0.0635,-0.2576,1.0229,849,0.1831,-4.2114,16.0522,92,1.4717,1.5588,-4.8966,-14.3918,29,0.1541,9005,3.9611,122.839
lg,1625503332866896019,0,0.0698,-0.2419,1.0334,850,0.7324,-4.5776,16.0522,92,1.4717,1.5588,-4.847,-14.3969,29,0.1541,8268,3.9611,123.5067
lg,1625503332866912796,0,0.0649,-0.2478,1.0354,851,0.1831,-3.7842,14.8315,92,1.4717,1.5588,-4.7906,-14.4002,29,0.1541,8792,3.9611,124.1177
lg,1625503332866929778,0,0.0635,-0.2495,1.042,852,0.4883,-2.6855,15.4419,92,1.4737,1.5598,-4.684,-14.3916,29,0.1541,8686,3.9611,124.7414
lg,1625503332866946796,0,0.0618,-0.2664,1.0388,853,0.3052,-3.2959,16.1133,92,1.4727,1.5588,-4.5947,-14.4285,29,0.1531,8665,3.9611,125.4003
lg,1625503332866963741,0,0.0579,-0.2534,1.054,854,0.7935,-5.249,16.6626,92,1.4727,1.5588,-4.5692,-14.4129,29,0.1541,8732,3.9611,126.0972
lg,1625503332866980963,0,0.0728,-0.2463,1.0398,855,0.9155,-6.3477,17.1509,92,1.4717,1.5588,-4.5919,-14.3869,29,0.1541,8739,3.9611,126.8234
lg,1625503332867011315,0,0.0781,-0.2573,1.0388,856,0.9155,-10.1929,16.9067,92,1.4707,1.5588,-4.7997,-14.3899,29,0.1541,8779,3.9611,127.5807
lg,1625503332867031463,0,0.0938,-0.2363,1.0188,857,1.0986,-7.4463,16.6016,92,1.4727,1.5588,-4.9339,-14.3507,29,0.1541,9143,3.9611,128.2959
lg,1625503332867048741,0,0.0938,-0.2336,1.0166,858,0.8545,-1.8311,16.6016,92,1.4717,1.5588,-4.847,-14.3137,29,0.1541,8621,3.9611,128.9545
