name,time,activity,ax,ay,az,batch_val,gx,gy,gz,ibat,index,middle,pitch,roll,temp,thumb,ts,vbat,yaw
lg,1625504649434028558,0,-0.1216,-0.1221,1.0889,1,-33.5083,91.7358,1.4038,76,1.5247,1.5508,25.3315,-11.0321,29,0.2261,20408,4.0018,-18.2162
lg,1625504649434131947,0,-0.1855,-0.1467,1.0984,2,-32.8979,121.2769,0.7935,76,1.5247,1.5508,29.4402,-12.6853,29,0.2251,8372,4.0018,-19.232
lg,1625504649434172465,0,-0.2861,-0.1418,1.1355,3,-31.311,130.0049,1.1597,76,1.5247,1.5518,34.0078,-14.4291,29,0.2241,7714,4.0018,-20.6222
lg,1625504649434204262,0,0.1265,-0.7527,0.2808,4,-9.0332,-217.2241,16.2354,111,1.4507,1.4967,24.821,-15.2775,30,0.2061,14589,3.9556,-18.5216
lg,1625504649434234447,0,0.1047,-0.8687,0.2754,5,-35.0952,-72.7539,17.2119,111,1.4507,1.5007,21.4691,-18.0841,30,0.2061,7966,3.9556,-17.7455
lg,1625504649434269187,0,0.019,-0.9697,0.2583,6,-14.5264,25.5737,40.8325,111,1.4487,1.5007,24.4845,-19.0727,30,0.2061,7784,3.9556,-17.557
lg,1625504649434301150,0,0.0254,-0.9839,0.7854,7,33.9966,96.4966,44.8608,111,1.4477,1.5037,27.8608,-18.8468,30,0.2081,7776,3.9556,-17.6349
lg,1625504649434380502,0,-0.0703,-0.592,0.7085,8,38.9404,109.2529,37.1094,111,1.4487,1.5047,31.6153,-18.2181,30,0.2081,7829,3.9556,-18.0658
lg,1625504649434410743,0,-0.1633,-0.6155,0.7483,9,23.7427,120.1172,32.4097,111,1.4497,1.5047,35.7403,-19.055,30,0.2091,8319,3.9556,-19.0739
lg,1625504649434443539,0,-0.3418,-0.8713,0.854,10,8.7891,93.5059,24.6582,111,1.4527,1.5047,38.9149,-20.1708,29,0.2111,7894,3.9556,-20.2048
lg,1625504649434474595,0,-0.2495,-0.8157,0.8372,11,18.5547,30.8838,14.8315,111,1.4547,1.5027,39.359,-20.4893,29,0.2121,7898,3.9556,-20.7783
lg,1625504649434501428,0,-0.1611,-0.7234,0.5449,12,-1.2207,-47.6074,-0.7935,111,1.4567,1.5007,36.6788,-21.542,29,0.2131,8282,3.9556,-20.9088
lg,1625504649434530465,0,-0.2009,-0.8972,0.5376,13,-27.2827,-41.5039,16.8457,111,1.4557,1.5027,34.6781,-23.3855,29,0.2161,7896,3.9556,-20.3489
lg,1625504649434559743,0,-0.248,-0.9854,0.6453,14,-40.1001,-0.9155,73.5474,111,1.4547,1.5077,35.1544,-24.575,30,0.2181,7968,3.9556,-17.8957
lg,1625504649434588854,0,-0.0696,-0.6067,1.0574,15,-6.5308,23.8647,65.7959,111,1.4527,1.5107,35.897,-23.6529,30,0.2191,7952,3.9556,-15.5811
lg,1625504649434617150,0,-0.2676,-0.5183,0.5508,16,1.5869,14.3433,30.2734,111,1.4507,1.5097,36.329,-23.8299,30,0.2191,8093,3.9556,-15.0164
lg,1625504649434646873,0,-0.3989,-0.8508,0.7756,17,-30.0903,-8.2397,17.8833,111,1.4507,1.5107,35.7502,-25.5134,30,0.2191,8015,3.9556,-14.6674
lg,1625504649434712021,0,-0.53,-0.8459,0.4971,18,-10.1318,-3.6011,6.1035,111,1.4497,1.5117,35.6203,-27.0845,29,0.2201,8066,3.9556,-15.1261
lg,1625504649434742039,0,-0.48,-0.8125,0.668,19,1.2817,-8.3618,7.4463,111,1.4507,1.5127,35.1134,-27.7374,29,0.2211,8053,3.9556,-15.1992
lg,1625504649434769558,0,-0.1238,-0.8044,0.9954,20,7.9346,-59.7534,-8.9111,111,1.4507,1.5127,31.7424,-27.4191,29,0.2211,8084,3.9556,-14.5515
lg,1625504649434801725,0,0.0396,-0.8669,0.7253,21,5.9814,-78.125,-54.0771,111,1.4527,1.5057,26.8085,-28.4219,29,0.2201,8069,3.9556,-15.5755
lg,1625504649434831502,0,0.0637,-0.9153,0.7827,22,15.3809,-41.9922,-80.3223,111,1.4547,1.4937,22.7222,-29.6135,29,0.2141,8064,3.9556,-18.1599
lg,1625504649434861743,0,0.1094,-1.0044,0.8311,23,33.6914,50.1709,-124.8779,111,1.4567,1.4717,20.9156,-31.2543,29,0.2031,8105,3.9556,-24.2103
lg,1625504649434889447,0,-0.3188,-1.0093,0.0317,24,37.1094,61.2793,-169.4946,111,1.4597,1.4417,19.4949,-34.2964,29,0.1901,8161,3.9556,-32.3872
lg,1625504649434917373,0,-0.3967,-0.7415,-0.0872,25,58.2275,9.7656,-131.1646,111,1.4637,1.4287,17.5029,-35.359,29,0.1861,8269,3.9556,-37.7903
lg,1625504649434946780,0,-0.1343,-0.3098,0.375,26,7.4463,83.1909,19.6533,111,1.4647,1.4247,20.5683,-35.6689,29,0.1881,8234,3.9556,-39.2137
lg,1625504649434980150,0,-0.2483,-1.009,0.7986,27,-60.6689,124.939,41.687,111,1.4647,1.4327,25.1567,-39.4664,29,0.1941,8208,3.9556,-41.317
lg,1625504649435007391,0,-0.4641,-1.0825,0.657,28,-47.6074,93.75,28.9307,111,1.4627,1.4477,28.9541,-43.0234,29,0.1991,8298,3.9556,-43.4922
lg,1625504649435034336,0,-0.6357,-0.7759,0.4812,29,-20.3857,17.8833,74.2188,111,1.4627,1.4647,31.7569,-43.4093,29,0.2031,9503,3.9556,-41.8302
lg,1625504649435084706,0,-0.6074,-0.657,0.6003,30,-29.541,-58.96,97.4121,111,1.4587,1.4767,32.7678,-41.9128,30,0.2061,9528,3.9556,-36.6276
lg,1625504649435120632,0,-0.6023,-0.8398,0.6545,31,-58.5327,-154.9072,91.6138,111,1.4527,1.4867,30.4266,-40.4338,30,0.2081,9059,3.9556,-28.8124
lg,1625504649435147262,0,-0.0496,-0.7559,0.9502,32,-30.2124,-259.8877,75.6226,111,1.4527,1.4857,23.1972,-37.0819,30,0.2101,9052,3.9556,-18.8797
lg,1625504649779620558,0,0.2739,-0.9785,0.1831,33,-15.7471,-42.0532,29.6631,111,1.4507,1.4867,21.3924,-38.4743,30,0.2111,28296,3.9556,-17.3674
lg,1625504649779663058,0,0.2529,-1.064,0.6047,34,38.147,92.8955,31.6772,111,1.4507,1.4907,23.8903,-38.3939,30,0.2131,8421,3.9556,-19.1349
lg,1625504649779683410,0,0.1816,-0.8965,0.6099,35,58.3496,115.2954,20.1416,129,1.4507,1.4927,26.781,-37.8512,30,0.2141,7712,3.9248,-21.9023
lg,1625504649779702910,0,-0.0371,-0.5967,0.5889,36,52.9785,170.9595,-2.8076,129,1.4507,1.4957,31.7442,-39.2564,30,0.2161,10576,3.9248,-27.5379
lg,1625504649779722965,0,-0.4141,-0.7532,0.6697,37,24.9023,149.8413,-10.376,129,1.4527,1.4947,35.6417,-41.4502,30,0.2181,12283,3.9248,-32.7968
lg,1625504649779742539,0,-0.4985,-0.7495,0.7253,38,26.8555,115.0513,-7.9346,129,1.4547,1.4937,37.4978,-42.4974,30,0.2181,8188,3.9248,-35.9127
lg,1625504649779761169,0,-0.5322,-0.7542,0.613,39,15.2588,46.4478,-2.6855,129,1.4567,1.4917,38.4305,-43.2947,30,0.2171,8473,3.9248,-37.841
lg,1625504649779779798,0,-0.4365,-0.8879,0.6279,40,-8.4229,-20.813,23.3154,129,1.4577,1.4917,37.837,-43.1674,30,0.2201,8695,3.9248,-36.5763
lg,1625504649779797650,0,-0.2446,-0.8198,0.7219,41,-12.8784,-50.7812,45.8984,129,1.4587,1.4947,36.6225,-41.867,30,0.2221,8573,3.9248,-33.3175
lg,1625504649779816502,0,-0.145,-0.7417,0.6917,42,-9.7046,-43.8843,38.3301,129,1.4597,1.4997,35.2428,-40.8207,30,0.2221,11006,3.9248,-30.6146
lg,1625504649779834039,0,-0.0645,-0.9363,0.7732,43,-13.0005,-46.6919,29.541,129,1.4607,1.5017,33.4063,-40.3468,30,0.2231,8600,3.9248,-28.3202
lg,1625504649779853798,0,-0.0439,-0.9448,0.7458,44,-3.54,-33.8135,15.8081,129,1.4607,1.5027,31.5686,-40.2473,30,0.2241,8633,3.9248,-28.2696
lg,1625504649779871169,0,-0.126,-0.7952,0.5957,45,19.7754,-2.0142,-25.5737,129,1.4617,1.4977,29.9345,-40.4666,30,0.2221,7932,3.9248,-29.4178
lg,1625504649779889354,0,-0.3008,-0.825,0.5842,46,17.5171,28.4424,-45.7764,129,1.4627,1.4977,29.0858,-41.5763,29,0.2211,10107,3.9248,-32.164
lg,1625504649779907521,0,-0.4832,-0.7495,0.4075,47,17.395,-9.8267,-38.8794,129,1.4657,1.4947,27.8244,-42.1228,29,0.2201,8255,3.9248,-33.5501
lg,1625504649779925947,0,-0.4604,-0.7283,0.5549,48,13.5498,-37.2314,-23.1323,129,1.4677,1.4967,26.3556,-42.0055,29,0.2221,8703,3.9248,-32.2293
lg,1625504649779943780,0,-0.509,-0.9963,0.6042,49,-30.2124,-66.4062,25.5127,129,1.4667,1.5047,24.9531,-42.4304,30,0.2221,8923,3.9248,-28.0742
lg,1625504649779961669,0,-0.3677,-0.8308,0.7644,50,-33.7524,-140.1367,87.3413,129,1.4617,1.5087,22.8504,-41.1571,30,0.2241,9231,3.9248,-21.2232
lg,1625504649779979947,0,0.082,-0.542,0.7954,51,1.9531,-217.3462,22.0947,129,1.4587,1.5027,15.7388,-38.6057,30,0.2231,8842,3.9248,-14.5114
lg,1625504649780000706,0,0.1038,-0.6743,0.5149,52,-28.9307,-241.2109,-8.3618,129,1.4567,1.4997,7.0867,-39.2324,30,0.2201,8384,3.9248,-8.7708
lg,1625504649780020539,0,0.2065,-0.9189,0.3989,53,-44.7388,-148.0713,2.0752,129,1.4547,1.4977,1.9592,-41.7134,29,0.2191,8399,3.9248,-4.9602
lg,1625504649780041002,0,0.241,-0.9912,0.3521,54,-17.9443,7.9346,27.0386,129,1.4537,1.4967,2.3486,-43.4635,29,0.2191,8775,3.9248,-4.4095
lg,1625504649780060872,0,0.2307,-1.0037,0.5925,55,29.9683,112.1826,38.0859,129,1.4537,1.4987,6.1123,-43.0179,29,0.2191,10095,3.9248,-6.4162
lg,1625504649780080576,0,0.0796,-0.7332,0.6099,56,37.2925,161.9873,28.6865,129,1.4537,1.5007,11.1948,-42.3482,29,0.2211,8539,3.9248,-10.048
lg,1625504649780099002,0,-0.0393,-0.6519,0.6458,57,23.1934,171.9971,19.7754,129,1.4547,1.5027,16.5967,-42.5391,29,0.2221,8553,3.9248,-14.2593
lg,1625504649780119947,0,-0.1965,-0.7935,0.7261,58,8.1787,138.4888,-1.77,129,1.4547,1.5047,20.3178,-43.6887,29,0.2231,8900,3.9248,-18.3672
lg,1625504649780185076,0,-0.1467,-0.8938,0.7703,59,13.3667,94.1162,-19.4092,129,1.4587,1.5067,21.9413,-44.6072,29,0.2231,8922,3.9248,-21.8565
lg,1625504649780209132,0,-0.0359,-0.8613,0.687,60,27.1606,74.1577,-43.9453,129,1.4607,1.5027,22.0122,-45.1513,29,0.2201,8217,3.9248,-25.5631
lg,1625504649780229650,0,-0.1055,-0.7639,0.3569,61,29.6021,74.7681,-55.1758,129,1.4637,1.4947,21.9235,-46.2528,29,0.2131,8957,3.9248,-29.6473
lg,1625504649780247372,0,-0.1125,-0.7246,0.2446,62,26.6113,55.0537,-31.3721,129,1.4637,1.4897,22.05,-47.2027,29,0.2091,8251,3.9248,-32.6863
lg,1625504649780267354,0,-0.2024,-0.8665,0.3838,63,-17.395,143.1885,28.0762,129,1.4667,1.4927,26.2801,-50.2709,29,0.2151,9060,3.9248,-36.8899
lg,1625504649780287317,0,-0.5193,-1.0413,0.8391,64,-46.2036,185.6079,70.9839,129,1.4677,1.4997,32.8076,-54.4924,29,0.2201,9514,3.9248,-41.6782
lg,1625504650145311224,0,-0.6729,-0.6321,0.9805,65,-39.6729,-62.9272,73.7305,129,1.4547,1.5067,31.8617,-51.5059,29,0.2221,29868,3.9248,-34.5338
lg,1625504650145386983,0,-0.448,-0.8179,0.6035,66,-50.6592,-230.1636,47.4854,129,1.4507,1.5047,27.1531,-48.9114,29,0.2211,13673,3.9248,-25.0546
lg,1625504650145408761,0,-0.3291,-0.9895,0.4243,67,-26.9165,-210.4492,44.2505,129,1.4507,1.5067,22.5283,-47.2564,29,0.2211,7747,3.9248,-17.1866
lg,1625504650145428576,0,-0.0342,-0.9917,0.6531,68,-8.3618,-214.4775,49.6216,129,1.4497,1.5097,16.4839,-44.446,29,0.2211,8073,3.9248,-9.4505
lg,1625504650145448557,0,0.439,-0.8398,0.7686,69,9.0332,-194.8242,24.1089,129,1.4497,1.5117,10.1574,-42.7578,29,0.2221,8088,3.9248,-3.2672
lg,1625504650145467483,0,0.5039,-0.9119,0.593,70,3.8452,-84.1675,-12.6953,129,1.4527,1.5127,6.064,-42.8288,29,0.2251,10586,3.9248,-1.4193
lg,1625504650145486169,0,0.2461,-1.0125,0.5503,71,16.6626,76.5991,-52.2461,129,1.4567,1.5137,6.1708,-43.2565,29,0.2271,8500,3.9248,-5.1335
lg,1625504650145505446,0,-0.082,-0.7808,0.3999,72,48.8892,140.686,-72.937,129,1.4617,1.5107,8.2514,-42.8175,29,0.2251,9414,3.9248,-11.2344
lg,1625504650145524687,0,-0.3628,-0.6331,0.2988,73,44.7388,123.23,-77.0874,129,1.4637,1.5087,10.8562,-43.3146,30,0.2251,8539,3.9248,-16.1934
lg,1625504650145544335,0,-0.4487,-0.8176,0.4365,74,-1.3428,131.0425,-13.855,129,1.4647,1.5117,14.8112,-44.9512,30,0.2291,7867,3.9248,-20.482
lg,1625504650145561539,0,-0.6255,-1.0811,0.6482,75,-38.269,105.6519,53.2227,129,1.4607,1.5157,19.7129,-47.4802,30,0.2301,9037,3.9248,-22.2857
lg,1625504650145579132,0,-0.6946,-0.7327,0.6685,76,-0.3052,31.8604,61.5845,129,1.4577,1.5187,22.9724,-47.1986,30,0.2291,9188,3.9248,-21.5021
lg,1625504650145596780,0,-0.6106,-0.5281,0.811,77,3.1128,-20.4468,53.0396,129,1.4547,1.5187,24.1857,-45.3912,30,0.2301,7868,3.9248,-18.9469
lg,1625504650145613817,0,-0.5457,-0.5676,0.4895,78,-13.0615,-140.9302,17.395,129,1.4527,1.5167,21.1633,-44.1638,30,0.2311,8625,3.9248,-14.1436
lg,1625504650145631483,0,-0.3391,-0.9016,0.5239,79,-38.0249,-199.4629,24.292,129,1.4527,1.5157,16.0557,-44.1798,30,0.2301,8688,3.9248,-7.7599
lg,1625504650145650928,0,-0.082,-0.9475,0.4373,80,-19.7754,-197.4487,33.9355,129,1.4517,1.5167,10.959,-44.2371,30,0.2301,8317,3.9248,-1.3273
lg,1625504650145667928,0,0.158,-0.9792,0.6279,81,-2.9907,-193.4814,39.6729,129,1.4517,1.5187,5.7721,-43.2083,30,0.2311,9270,3.9248,4.7688
lg,1625504650145685391,0,0.5198,-0.8728,0.6704,82,12.207,-145.5078,26.7334,129,1.4527,1.5197,2.0858,-43.1507,30,0.2321,8343,3.9248,7.6931
lg,1625504650145704335,0,0.5203,-0.8406,0.4802,83,7.2021,-25.8789,-3.6011,129,1.4537,1.5167,0.0938,-43.4322,30,0.2321,8782,3.9248,8.2789
lg,1625504650145723520,0,0.2668,-0.948,0.6216,84,10.7422,115.2344,-21.5454,129,1.4557,1.5147,2.3017,-43.5821,30,0.2331,7993,3.9248,4.4741
lg,1625504650145740780,0,0.0605,-0.9216,0.6504,85,30.4565,171.5088,-38.4521,129,1.4597,1.5117,5.9897,-43.2218,30,0.2341,8392,3.9248,-1.3922
lg,1625504650145758372,0,-0.0601,-0.917,0.585,86,41.8701,181.1523,-48.9502,129,1.4617,1.5037,9.8062,-42.9917,30,0.2301,8076,3.9248,-7.8921
lg,1625504650145775946,0,-0.2402,-0.8174,0.364,87,41.3208,141.7236,-46.6309,129,1.4627,1.4967,12.8788,-43.2577,30,0.2241,8095,3.9248,-13.3832
lg,1625504650145793780,0,-0.2935,-0.6531,0.1929,88,36.6821,95.9473,-33.9966,129,1.4637,1.4887,14.9425,-43.4098,30,0.2211,8117,3.9248,-15.4108
lg,1625504650145812317,0,-0.2175,-0.6626,0.2158,89,19.8364,59.021,34.729,129,1.4647,1.4817,17.7557,-43.8718,29,0.2241,8162,3.9248,-16.3464
lg,1625504650145834280,0,-0.2495,-1.0156,0.8625,90,-33.5693,109.0088,79.834,129,1.4667,1.4857,22.7893,-45.7362,29,0.2281,8911,3.9248,-17.2865
lg,1625504650145853594,0,-0.5371,-0.8154,0.6726,91,-12.2681,85.8154,91.3696,129,1.4657,1.4947,27.9395,-46.3683,29,0.2301,9003,3.9248,-17.2978
lg,1625504650145871576,0,-0.6094,-0.5569,0.5352,92,-8.4229,31.311,94.1162,129,1.4587,1.5027,31.5857,-45.1538,30,0.2301,8223,3.9248,-13.8783
lg,1625504650145889798,0,-0.709,-0.459,0.6733,93,-37.9639,-0.1221,112.1826,129,1.4527,1.5037,35.1088,-44.1583,30,0.2301,8296,3.9248,-9.8452
lg,1625504650145907687,0,-0.5325,-0.7703,1.0701,94,-38.6353,-80.6274,72.2656,129,1.4477,1.5007,34.2413,-42.3254,30,0.2271,9039,3.9248,-4.3765
lg,1625504650145925817,0,-0.2139,-0.9741,1.1453,95,-48.3398,-169.1895,32.5317,129,1.4477,1.4997,29.0723,-40.789,30,0.2251,8394,3.9248,2.091
lg,1625504650145943891,0,-0.282,-0.886,0.4553,96,-25.5737,-121.2158,-6.1035,129,1.4467,1.5007,24.8243,-41.1895,30,0.2251,9127,3.9248,5.0181
lg,1625504650517399539,0,0.0127,-0.8882,0.5476,97,-0.9155,40.4053,-16.0522,129,1.4477,1.5087,24.6463,-42.6678,30,0.2281,28322,3.9248,3.0033
lg,1625504650517446576,0,-0.1877,-0.9568,0.5959,98,3.9062,96.3745,-26.9165,129,1.4507,1.5107,26.2708,-44.8053,30,0.2301,14345,3.9248,-1.0852
lg,1625504650517466891,0,-0.3289,-0.9067,0.5422,99,10.437,71.228,-32.8369,129,1.4527,1.5117,26.9773,-46.4594,30,0.2311,9215,3.9248,-4.6541
lg,1625504650517487279,0,-0.2659,-0.8274,0.5396,100,16.3574,17.2729,-23.0713,129,1.4557,1.5127,26.3198,-46.8099,30,0.2311,8399,3.9248,-6.1226
lg,1625504650517506705,0,-0.0803,-0.8062,0.4688,101,16.7847,-26.6113,-13.855,129,1.4577,1.5137,24.3843,-46.5076,30,0.2281,7997,3.9248,-5.9344
lg,1625504650517526705,0,-0.0198,-0.8477,0.4954,102,12.0239,-35.1562,-18.5547,129,1.4587,1.5127,22.0104,-46.3632,30,0.2221,8481,3.9248,-5.6107
lg,1625504650517545687,0,0.0742,-0.9438,0.4355,103,13.4888,-29.9072,-22.1558,129,1.4607,1.5117,19.5924,-46.5012,30,0.2161,10310,3.9248,-5.6259
lg,1625504650517564335,0,0.1936,-0.9004,0.3755,104,29.3579,-10.0098,-10.6812,129,1.4617,1.5097,17.8934,-46.1607,30,0.2131,8028,3.9248,-5.9158
lg,1625504650517582205,0,0.2261,-0.759,0.2661,105,33.5693,36.0107,8.3618,129,1.4627,1.5087,17.9292,-46.0271,29,0.2151,7700,3.9248,-7.063
lg,1625504650517600205,0,0.1711,-0.7163,0.4307,106,9.3384,69.5801,19.3481,129,1.4647,1.5097,19.2931,-46.6679,29,0.2221,8411,3.9248,-8.7875
lg,1625504650517617705,0,-0.2295,-0.7947,0.5586,107,-37.5366,183.8379,70.6787,129,1.4647,1.5127,26.0125,-50.0061,29,0.2241,8438,3.9248,-12.8212
lg,1625504650517637854,0,-0.7395,-0.7432,0.511,108,-42.9688,194.6411,106.3843,129,1.4597,1.5167,34.6188,-53.9764,29,0.2251,8494,3.9248,-17.0116
lg,1625504650517656076,0,-0.8655,-0.7424,0.8252,109,-24.292,177.2461,116.0889,129,1.4547,1.5147,42.2509,-55.8292,29,0.2271,8317,3.9248,-20.1225
lg,1625504650517674576,0,-0.8804,-0.3513,1.1157,110,16.7236,35.1562,52.063,129,1.4527,1.5097,44.7759,-53.5294,29,0.2241,8635,3.9248,-18.9906
lg,1625504650517693113,0,-0.7107,-1.0132,0.9648,111,-47.4243,-167.1753,1.3428,129,1.4507,1.5107,40.0377,-50.2316,29,0.2231,8412,3.9248,-11.565
lg,1625504650517712909,0,-0.3831,-0.8347,0.4426,112,-35.8276,-230.5908,25.0244,129,1.4497,1.5117,34.0423,-46.492,29,0.2231,8688,3.9248,-2.4504
lg,1625504650517730261,0,-0.1663,-0.8335,0.3372,113,-25.3296,-259.4604,28.6865,129,1.4497,1.5127,26.355,-43.7869,29,0.2241,8277,3.9248,6.3808
lg,1625504650517747983,0,0.2332,-0.9543,0.3882,114,-16.4185,-191.2842,42.6025,129,1.4487,1.5147,20.6273,-42.5994,29,0.2261,8624,3.9248,12.9913
lg,1625504650517766057,0,0.3899,-0.9934,0.4126,115,13.0005,27.6489,14.8315,129,1.4517,1.5177,20.4226,-43.1448,29,0.2281,13595,3.9248,12.3154
lg,1625504650517785724,0,0.0742,-0.9119,0.4663,116,23.8647,96.4966,-3.9673,129,1.4537,1.5177,23.2788,-44.5207,30,0.2281,8692,3.9248,7.1568
lg,1625504650517803891,0,-0.2261,-0.905,0.5308,117,35.9497,171.3867,-26.001,129,1.4587,1.5167,26.902,-46.2817,30,0.2291,10478,3.9248,0.5335
lg,1625504650517821335,0,-0.238,-0.8398,0.6321,118,47.6074,151.4282,-24.9023,129,1.4617,1.5117,28.7713,-46.5566,30,0.2241,9649,3.9248,-4.2149
lg,1625504650517838446,0,-0.2371,-0.7612,0.5308,119,37.4756,93.2617,-37.9639,129,1.4617,1.5047,29.6234,-47.5299,30,0.2171,8360,3.9248,-8.7069
lg,1625504650517856391,0,-0.2422,-0.8171,0.3726,120,24.292,28.7476,-34.668,129,1.4627,1.4977,28.8344,-48.3225,29,0.2101,8185,3.9248,-11.1283
lg,1625504650517874261,0,-0.1084,-0.7407,0.3218,121,18.3716,38.4521,13.3057,129,1.4637,1.4937,29.4694,-48.829,29,0.2081,8809,3.9248,-12.4345
lg,1625504650517892057,0,-0.0759,-0.7466,0.345,122,6.8359,63.4766,28.2593,129,1.4637,1.4927,31.0714,-49.9751,29,0.2121,8425,3.9248,-14.1766
lg,1625504650517909428,0,-0.3303,-0.9158,0.812,123,-33.5083,142.6392,38.4521,129,1.4647,1.4957,35.1481,-53.5215,29,0.2191,8881,3.9248,-18.343
lg,1625504650517927520,0,-0.7319,-0.8923,0.5979,124,-37.1094,130.6152,76.6602,129,1.4647,1.5017,40.5575,-57.0832,29,0.2211,8889,3.9248,-21.6527
lg,1625504650517944483,0,-0.8657,-0.7363,0.6443,125,-29.0527,34.9731,91.6748,129,1.4597,1.5087,44.4147,-57.1421,29,0.2211,10300,3.9248,-20.3341
lg,1625504650517962094,0,-0.5159,-0.5115,1.3008,126,-25.7568,-69.0918,75.6836,129,1.4577,1.5117,44.6185,-52.4796,29,0.2241,8911,3.9248,-13.5035
lg,1625504650517979428,0,-0.5691,-0.676,0.4814,127,-40.7104,-183.2886,24.4141,129,1.4557,1.5087,40.3411,-48.4278,30,0.2251,8987,3.9248,-5.0368
lg,1625504650518001798,0,-0.3958,-0.8359,0.7659,128,-63.6597,-194.6411,31.0059,129,1.4547,1.5087,34.9892,-45.9288,30,0.2251,9077,3.9248,2.2416
lg,1625504650895262038,0,0.0344,-1.0427,0.657,129,32.6538,-143.3716,21.4233,129,1.4547,1.5157,29.8761,-42.1968,30,0.2291,27623,3.9248,7.3703
lg,1625504650895296113,0,0.2781,-0.8103,0.4822,130,24.9634,-46.2036,-11.2915,129,1.4577,1.5127,26.6142,-41.4416,30,0.2301,11749,3.9248,8.0179
lg,1625504650895316001,0,0.1357,-0.9189,0.6296,131,25.2686,49.1333,-31.311,129,1.4607,1.5107,26.0054,-42.1468,30,0.2311,7650,3.9248,5.2443
lg,1625504650895335076,0,-0.0593,-0.8186,0.4507,132,37.1704,83.8623,-54.5044,129,1.4637,1.5067,26.1549,-43.374,29,0.2281,8438,3.9248,0.571
lg,1625504650895353520,0,-0.1628,-0.8208,0.4536,133,31.6772,79.2236,-61.2183,129,1.4657,1.5017,26.1143,-44.8019,29,0.2221,8331,3.9248,-4.1723
lg,1625504650895371427,0,-0.3145,-0.7588,0.3325,134,19.8364,62.7441,-27.5269,129,1.4667,1.5017,26.922,-46.1506,29,0.2251,8098,3.9248,-7.4198
lg,1625504650895389390,0,-0.4001,-0.9253,0.6621,135,-31.0059,51.9409,32.8979,129,1.4667,1.5077,28.9914,-48.0544,29,0.2301,8673,3.9248,-8.2854
lg,1625504650895407483,0,-0.6033,-0.7529,0.5359,136,-25.3906,-14.0991,83.7402,129,1.4607,1.5147,31.2599,-47.7546,29,0.2311,12776,3.9248,-5.3249
lg,1625504650895425261,0,-0.5217,-0.6306,0.7058,137,-18.6768,-54.0771,78.4302,129,1.4567,1.5157,31.9785,-45.9464,29,0.2331,8585,3.9248,-0.8182
lg,1625504650895442464,0,-0.4238,-0.6379,0.5383,138,-8.4839,-121.2158,29.2969,129,1.4547,1.5127,29.1929,-43.9149,29,0.2321,8509,3.9248,4.0511
lg,1625504650895459335,0,-0.1702,-0.9871,0.6643,139,-32.1655,-195.8618,30.6396,129,1.4537,1.5117,23.5754,-42.6119,29,0.2321,8480,3.9248,10.7806
lg,1625504650895476890,0,-0.146,-0.947,0.3005,140,-20.6909,-190.4297,12.8784,129,1.4527,1.5127,18.6159,-43.0371,30,0.2321,8568,3.9248,14.8146
lg,1625504650895494464,0,-0.0066,-1.01,0.4348,141,-1.4648,-114.0137,14.8926,129,1.4517,1.5147,14.7168,-42.7224,30,0.2331,9410,3.9248,18.2889
lg,1625504650895511872,0,0.2781,-0.8879,0.5996,142,26.4893,-64.8193,29.3579,129,1.4517,1.5167,12.4955,-41.5454,30,0.2341,8642,3.9248,20.8323
lg,1625504650895529279,0,0.2991,-0.8367,0.5981,143,22.3389,5.0049,1.6479,129,1.4537,1.5177,11.6074,-41.1617,30,0.2351,8673,3.9248,20.6345
lg,1625504650895546298,0,0.1096,-0.9426,0.5859,144,21.6675,43.8232,-7.6294,129,1.4557,1.5167,12.8076,-41.3542,30,0.2371,7908,3.9248,17.887
lg,1625504650895563409,0,0.0317,-0.8884,0.6116,145,34.9731,102.5391,-23.5596,129,1.4587,1.5127,14.6908,-41.3559,30,0.2371,8316,3.9248,14.2377
lg,1625504650895580538,0,-0.0054,-0.646,0.6084,146,50.8423,118.2251,-39.3677,129,1.4607,1.5097,16.6406,-40.7438,30,0.2311,7959,3.9248,9.7168
lg,1625504650895597613,0,-0.2405,-0.6963,0.4197,147,25.4517,101.2573,-46.9971,96,1.4617,1.5027,18.4499,-41.7231,29,0.2231,8710,3.971,5.228
lg,1625504650895615205,0,-0.2644,-0.7532,0.4956,148,17.7002,110.5347,-23.5596,96,1.4627,1.4967,20.9986,-42.9217,29,0.2191,8691,3.971,1.1327
lg,1625504650895632464,0,-0.3997,-0.874,0.6003,149,-6.4697,137.5122,18.7988,96,1.4637,1.4997,25.4454,-45.0822,29,0.2241,8758,3.971,-2.6258
lg,1625504650895651242,0,-0.5637,-0.9243,0.863,150,-25.8179,112.854,57.312,96,1.4647,1.5087,30.1382,-47.0529,29,0.2281,8771,3.971,-4.5445
lg,1625504650895668798,0,-0.6814,-0.7288,0.6282,151,-21.1182,33.4473,64.0869,96,1.4647,1.5127,33.1153,-47.4991,29,0.2301,8802,3.971,-3.701
lg,1625504650895685446,0,-0.698,-0.7288,0.6401,152,-23.4375,-10.7422,57.312,96,1.4617,1.5147,33.6928,-46.8523,29,0.2301,9245,3.971,-0.4367
lg,1625504650895702057,0,-0.625,-0.7629,0.7583,153,-35.4614,-80.3223,55.9082,96,1.4597,1.5167,30.7964,-44.3405,29,0.2331,9608,3.971,5.7274
lg,1625504650895718538,0,-0.3359,-0.7566,0.4792,154,-11.2305,-173.4009,22.9492,96,1.4587,1.5157,26.0429,-42.394,29,0.2331,8898,3.971,11.6229
lg,1625504650895735761,0,-0.1829,-0.8682,0.512,155,-39.3677,-170.5933,12.085,96,1.4587,1.5167,20.7903,-42.517,29,0.2341,8151,3.971,16.7259
lg,1625504650895752835,0,-0.1511,-0.895,0.2349,156,-14.0381,-100.0366,8.1787,96,1.4577,1.5177,17.7658,-43.3142,29,0.2341,9067,3.971,19.4174
lg,1625504650895769687,0,-0.0181,-0.9805,0.6731,157,-4.5776,-61.8896,9.0942,96,1.4577,1.5187,16.1435,-42.6481,29,0.2351,8941,3.971,20.8489
lg,1625504650895786650,0,0.05,-0.897,0.668,158,29.541,-46.3257,5.3711,96,1.4597,1.5177,14.2005,-41.5168,29,0.2361,8947,3.971,22.1756
lg,1625504650895804205,0,0.0889,-0.7827,0.6384,159,19.5312,-23.7427,-9.0942,96,1.4617,1.5127,12.5085,-41.0195,29,0.2371,9237,3.971,22.4455
lg,1625504650895821131,0,0.0691,-0.8547,0.6396,160,16.2964,10.0098,-16.4185,96,1.4647,1.5117,11.7525,-41.0118,29,0.2381,8542,3.971,21.564
lg,1625504651262305742,0,-0.2229,-0.9099,0.5269,161,-25.2686,36.9263,30.2734,96,1.4657,1.5107,13.6811,-42.768,29,0.2401,27636,3.971,21.3224
lg,1625504651262363760,0,-0.3289,-0.8687,0.6804,162,-31.7993,51.5137,76.8433,96,1.4617,1.5187,17.3958,-44.1594,29,0.2411,9081,3.971,22.073
lg,1625504651262394594,0,-0.2673,-0.5957,0.4131,163,11.2305,-13.2446,31.5552,96,1.4597,1.5167,18.0122,-43.7228,29,0.2381,13749,3.971,23.2863
lg,1625504651262424446,0,-0.3735,-0.8782,0.8054,164,-37.7808,-37.9028,16.6626,96,1.4577,1.5127,17.3715,-44.8772,30,0.2351,7661,3.971,24.8577
lg,1625504651262452686,0,-0.3518,-0.9006,0.5144,165,-29.3579,-76.8433,16.0522,96,1.4567,1.5107,15.7531,-45.8482,30,0.2331,8380,3.971,27.4379
lg,1625504651262480094,0,-0.3047,-0.9216,0.5732,166,-21.0571,-62.8052,19.3481,96,1.4557,1.5097,14.5887,-46.5217,30,0.2311,7680,3.971,29.7456
lg,1625504651262583483,0,-0.1948,-0.8738,0.5112,167,2.0142,-60.4858,36.8652,96,1.4547,1.5107,13.8618,-46.251,30,0.2311,8398,3.971,32.4729
lg,1625504651262623149,0,0.0718,-0.8486,0.6372,168,3.1738,-55.9692,40.4663,96,1.4547,1.5127,12.7885,-45.7436,30,0.2311,8882,3.971,35.2151
lg,1625504651262653946,0,0.1494,-0.9009,0.5864,169,-0.1221,-24.7803,24.9634,96,1.4537,1.5147,12.0207,-45.8759,30,0.2341,9518,3.971,36.557
lg,1625504651262683853,0,0.1094,-0.9214,0.5208,170,9.0942,31.25,10.6201,96,1.4547,1.5167,12.5019,-46.2191,30,0.2361,10377,3.971,35.8146
lg,1625504651262712983,0,0.0405,-0.9431,0.5354,171,16.7236,63.3545,4.2725,96,1.4567,1.5167,13.884,-46.4264,30,0.2361,8516,3.971,33.9451
lg,1625504651262741094,0,-0.0664,-0.8423,0.5874,172,31.6772,94.6045,-8.2397,96,1.4547,1.5157,15.8425,-46.2935,30,0.2311,8183,3.971,30.7864
lg,1625504651262769890,0,-0.0076,-0.6863,0.6985,173,41.3208,95.8862,-28.9307,96,1.4557,1.5117,17.0562,-45.6131,30,0.2221,8553,3.971,27.0872
lg,1625504651262797779,0,-0.1863,-0.8694,0.4993,174,29.9072,98.6938,-45.4712,96,1.4557,1.5027,17.9621,-46.6049,30,0.2131,8592,3.971,22.7607
lg,1625504651262828631,0,-0.2244,-0.8767,0.4204,175,22.8882,81.604,-37.0483,96,1.4577,1.4917,18.9176,-47.5269,29,0.2081,8602,3.971,18.9576
lg,1625504651262856298,0,-0.2258,-0.665,0.356,176,21.5454,83.252,0.1221,96,1.4587,1.4857,21.0689,-48.1256,29,0.2081,8638,3.971,16.1453
lg,1625504651262883946,0,-0.353,-0.8755,0.6892,177,-20.813,113.9526,36.6211,96,1.4597,1.4877,24.9918,-50.1526,29,0.2131,8222,3.971,13.3813
lg,1625504651262911575,0,-0.5098,-1.0349,0.8662,178,-35.6445,120.6055,48.7061,96,1.4597,1.4957,29.2832,-52.1584,29,0.2181,8667,3.971,11.7574
lg,1625504651262938983,0,-0.6963,-0.8425,0.6172,179,-23.3765,23.9868,67.8711,96,1.4587,1.5017,32.1767,-52.6052,30,0.2201,8355,3.971,12.7679
lg,1625504651262966557,0,-0.6731,-0.6592,0.5562,180,-22.2168,-57.9834,71.3501,96,1.4537,1.5087,33.2173,-51.0644,30,0.2221,7978,3.971,17.0987
lg,1625504651262992464,0,-0.5024,-0.8081,0.9065,181,-48.1567,-131.958,69.7021,96,1.4517,1.5087,31.562,-48.8626,30,0.2251,13049,3.971,24.2364
lg,1625504651263021260,0,-0.1833,-0.7373,0.3562,182,-10.0098,-238.2202,26.9165,96,1.4507,1.5087,25.252,-45.7443,30,0.2251,8030,3.971,32.6629
lg,1625504651263048279,0,-0.0129,-0.8789,0.4189,183,-39.5508,-210.8154,11.2305,96,1.4497,1.5087,18.8258,-45.5278,29,0.2251,8779,3.971,39.169
lg,1625504651263075946,0,-0.0269,-0.905,0.1477,184,-22.8271,-167.6636,8.2397,96,1.4487,1.5097,15.7824,-46.3842,29,0.2251,8435,3.971,42.272
lg,1625504651263126816,0,0.0891,-1.0674,0.5166,185,2.8076,-58.5938,25.5737,96,1.4487,1.5117,14.1616,-46.3352,29,0.2251,8082,3.971,44.5652
lg,1625504651263160038,0,0.2441,-0.8623,0.5579,186,39.3066,-24.292,29.2969,96,1.4477,1.5147,13.28,-44.8153,30,0.2271,10121,3.971,46.0045
lg,1625504651263187723,0,0.1875,-0.7244,0.5532,187,26.001,52.2461,16.6016,96,1.4487,1.5147,14.2713,-44.3244,30,0.2271,8846,3.971,44.9002
lg,1625504651263214260,0,-0.0105,-0.8435,0.5999,188,14.0991,99.4873,11.7188,96,1.4487,1.5147,16.8844,-44.857,30,0.2291,8429,3.971,42.2385
lg,1625504651263241816,0,-0.1902,-0.8557,0.6465,189,20.3247,101.3794,11.5356,96,1.4497,1.5137,19.7898,-45.2096,30,0.2291,9051,3.971,39.4579
lg,1625504651263268890,0,-0.1934,-0.6782,0.6826,190,23.9868,86.792,18.9819,96,1.4517,1.5137,22.4248,-44.968,29,0.2301,8934,3.971,37.3967
lg,1625504651263295446,0,-0.2197,-0.7036,0.7139,191,11.9629,81.0547,19.3481,96,1.4547,1.5127,24.9147,-45.4534,29,0.2281,8937,3.971,35.3977
lg,1625504651263321464,0,-0.2886,-0.9187,0.7305,192,-1.4648,61.3403,23.3154,96,1.4547,1.5127,26.8414,-46.2975,29,0.2281,8246,3.971,34.0519
lg,1625504651645077001,0,-0.1768,-0.8716,0.6648,193,2.5635,35.2173,22.4609,96,1.4597,1.5127,27.7652,-46.671,29,0.2251,27999,3.971,33.4721
lg,1625504651645117612,0,-0.2649,-0.8621,0.5803,194,9.8877,54.8706,5.249,96,1.4627,1.5117,28.6155,-47.4868,29,0.2231,12687,3.971,31.2901
lg,1625504651645137631,0,-0.2776,-0.8425,0.4905,195,13.6108,48.645,-3.6011,96,1.4647,1.5117,29.1963,-48.2404,29,0.2261,10183,3.971,29.8623
lg,1625504651645157075,0,-0.4043,-0.9541,0.5076,196,-10.3149,16.4795,6.5918,96,1.4667,1.5127,29.7546,-49.7699,29,0.2301,10153,3.971,29.7695
lg,1625504651645175316,0,-0.4922,-0.9094,0.4746,197,-30.1514,16.4185,30.7617,96,1.4647,1.5147,30.9678,-51.3186,29,0.2301,8062,3.971,29.8314
lg,1625504651645193131,0,-0.7351,-0.7146,0.4961,198,-23.8037,-6.2866,47.9736,96,1.4587,1.5177,32.6677,-51.528,29,0.2291,8470,3.971,31.4026
lg,1625504651645210871,0,-0.2742,-0.7036,1.571,199,-23.5596,-81.7871,53.894,96,1.4557,1.5167,31.4506,-48.8037,30,0.2311,8125,3.971,36.6482
lg,1625504651645256501,0,-0.3647,-0.7666,0.5989,200,-28.1372,-208.4961,-54.0771,96,1.4547,1.5117,23.9005,-47.5483,30,0.2281,10065,3.971,41.9804
lg,1625504651645277020,0,-0.1743,-0.7825,0.3264,201,-43.5791,-229.3091,-52.3071,96,1.4527,1.5087,15.8137,-48.1278,30,0.2261,13548,3.971,47.3996
lg,1625504651645294631,0,-0.187,-0.8147,0.0139,202,-32.8369,-135.1318,-33.9966,96,1.4507,1.5087,11.2959,-50.1391,29,0.2251,8176,3.971,50.2907
lg,1625504651645315297,0,0.0205,-0.9817,0.3628,203,11.2305,-12.9395,22.0337,96,1.4497,1.5087,11.1777,-50.2654,29,0.2251,8560,3.971,51.1187
lg,1625504651645333612,0,0.021,-0.9609,0.4924,204,23.6816,29.1138,33.5693,96,1.4487,1.5087,12.4733,-49.8223,29,0.2251,8359,3.971,50.9831
lg,1625504651645351538,0,-0.0632,-0.7446,0.4749,205,34.9121,58.4106,34.5459,96,1.4477,1.5097,14.7026,-48.9398,29,0.2251,9035,3.971,50.0086
lg,1625504651645368834,0,-0.0791,-0.6951,0.6672,206,18.6768,72.0215,38.3911,96,1.4487,1.5117,17.3468,-48.3999,30,0.2261,8724,3.971,48.8339
lg,1625504651645385797,0,-0.1223,-0.8145,0.6326,207,-1.77,38.0249,37.6587,96,1.4477,1.5137,19.0549,-48.6613,30,0.2271,8824,3.971,48.6349
lg,1625504651645402964,0,-0.1243,-0.875,0.6169,208,-4.5776,25.8789,38.8794,96,1.4477,1.5147,20.4112,-49.001,30,0.2281,7940,3.971,48.8092
lg,1625504651645420445,0,-0.0457,-0.9741,0.6165,209,6.897,26.9165,38.147,96,1.4457,1.5167,21.5602,-49.0086,30,0.2301,8698,3.971,48.8792
lg,1625504651645438575,0,0.0437,-0.9043,0.6797,210,21.2402,39.856,26.9775,96,1.4537,1.5167,22.4966,-48.5225,30,0.2301,8703,3.971,48.2811
lg,1625504651645456168,0,-0.0166,-0.8525,0.5537,211,30.5176,64.6973,0.8545,96,1.4567,1.5157,23.3959,-48.4692,30,0.2281,8772,3.971,46.057
lg,1625504651645473834,0,-0.0559,-0.8564,0.5354,212,28.8086,75.0732,-7.6294,96,1.4587,1.5127,24.3599,-48.8061,30,0.2251,8362,3.971,43.2065
lg,1625504651645491427,0,-0.0864,-0.8972,0.5232,213,27.5879,95.5811,-14.7095,96,1.4587,1.5107,25.6407,-49.698,30,0.2191,8825,3.971,39.3916
lg,1625504651645509001,0,-0.1162,-0.7759,0.4451,214,28.4424,88.1348,-1.77,96,1.4607,1.5087,27.1325,-50.3717,30,0.2181,8435,3.971,36.125
lg,1625504651645527871,0,-0.1038,-0.728,0.4917,215,17.2729,88.3179,15.2588,96,1.4607,1.5077,30.0131,-52.3014,30,0.2231,8070,3.971,33.1154
lg,1625504651645546464,0,-0.3286,-0.9004,0.6396,216,-30.5786,130.0049,36.3159,96,1.4627,1.5067,33.6795,-55.6886,30,0.2281,8887,3.971,29.1231
lg,1625504651645565038,0,-0.7393,-0.8296,0.5947,217,-39.856,149.9634,54.0161,96,1.4617,1.5107,38.7376,-60.1006,30,0.2291,8183,3.971,24.2589
lg,1625504651645608427,0,-0.9446,-0.7568,0.75,218,-15.9912,57.373,64.7583,96,1.4587,1.5147,42.2409,-60.7633,29,0.2281,8960,3.971,23.6677
lg,1625504651645634686,0,-1.0093,-0.739,0.7029,219,-29.9683,-68.7256,46.936,96,1.4527,1.5167,42.5951,-58.3484,29,0.2301,8993,3.971,28.5607
lg,1625504651645653575,0,-0.7249,-0.7937,0.9209,220,-32.4707,-148.3765,40.3442,96,1.4537,1.5177,37.8634,-51.6816,29,0.2311,9035,3.971,38.924
lg,1625504651645671871,0,-0.3716,-0.7678,0.4758,221,-20.0806,-255.127,6.7749,96,1.4517,1.5157,30.9014,-47.3344,30,0.2311,9004,3.971,48.3503
lg,1625504651645689890,0,-0.1099,-0.8545,0.4219,222,-40.1001,-278.8086,-3.1128,96,1.4517,1.5167,22.3088,-45.6316,30,0.2311,9046,3.971,56.9119
lg,1625504651645708260,0,-0.0664,-0.9163,0.0479,223,-30.5786,-191.04,-2.9907,96,1.4507,1.5177,16.4518,-46.5114,30,0.2321,10235,3.971,62.0611
lg,1625504651645726353,0,0.178,-1.1045,0.4014,224,14.4653,-83.4961,27.6489,96,1.4507,1.5167,14.0426,-45.9842,30,0.2321,10401,3.971,65.0888
lg,1625504652016573575,0,0.1089,-0.7673,0.5283,225,33.5693,67.9932,12.3291,96,1.4547,1.5207,15.4844,-45.4422,30,0.2351,26442,3.971,63.3285
lg,1625504652016630704,0,0.0588,-0.8928,0.7993,226,35.2783,95.7031,0.9766,96,1.4587,1.5187,17.4785,-44.9332,29,0.2351,8759,3.971,60.486
lg,1625504652016662408,0,-0.0503,-0.8545,0.665,227,38.269,97.8394,-20.3857,96,1.4617,1.5147,19.0809,-44.7985,29,0.2301,12262,3.971,56.8752
lg,1625504652016692112,0,-0.1345,-0.7732,0.5515,228,35.4004,103.6987,-28.3813,96,1.4627,1.5107,20.7678,-45.1329,29,0.2291,10396,3.971,52.7687
lg,1625504652016722112,0,-0.3777,-0.8469,0.5271,229,-7.5684,100.3418,4.9438,96,1.4637,1.5117,23.6841,-47.0663,29,0.2331,8171,3.971,49.604
lg,1625504652016751760,0,-0.6409,-0.8389,0.6646,230,-29.7852,113.1592,29.6631,96,1.4637,1.5147,28.1451,-49.6323,30,0.2361,7661,3.971,47.0105
lg,1625504652016780445,0,-0.7722,-0.7332,0.5659,231,-26.6113,78.2471,50.8423,96,1.4607,1.5177,31.4876,-50.1179,30,0.2351,9633,3.971,47.4691
lg,1625504652016808297,0,-0.854,-0.6428,0.822,232,-17.5171,10.5591,60.9741,96,1.4557,1.5197,33.9381,-49.559,30,0.2361,8534,3.971,49.1891
lg,1625504652016835519,0,-0.5828,-0.7537,1.0186,233,-25.3296,-119.9341,42.2363,96,1.4537,1.5207,31.6804,-46.9652,30,0.2371,9578,3.971,55.1077
lg,1625504652016863038,0,-0.4082,-0.7917,0.4004,234,-36.9263,-230.7739,10.3149,96,1.4537,1.5207,25.3994,-45.3078,29,0.2371,8554,3.971,62.6713
lg,1625504652016900408,0,-0.166,-0.8779,0.2466,235,-23.4375,-206.2988,20.2637,96,1.4527,1.5217,19.7049,-44.74,29,0.2371,8469,3.971,69.1092
lg,1625504652016931390,0,-0.0713,-0.949,0.322,236,-22.2168,-163.269,22.7661,96,1.4517,1.5227,15.2117,-45.0179,29,0.2381,8539,3.971,74.264
lg,1625504652016994797,0,0.2466,-0.9441,0.6357,237,5.6152,-110.1685,35.6445,96,1.4517,1.5227,12.0575,-44.224,29,0.2381,8201,3.971,78.3736
lg,1625504652017028853,0,0.394,-0.8506,0.5823,238,4.2725,-58.3496,14.2822,96,1.4517,1.5217,9.5611,-44.0822,29,0.2391,8202,3.971,80.3565
lg,1625504652017056593,0,0.3386,-0.9153,0.5142,239,5.3711,-10.8032,7.4463,96,1.4527,1.5207,8.551,-44.4914,29,0.2401,8595,3.971,80.7611
lg,1625504652017085427,0,0.1802,-0.9656,0.6001,240,14.7705,74.2798,-3.2349,96,1.4547,1.5197,9.8845,-44.7821,29,0.2411,9475,3.971,78.4695
lg,1625504652017130742,0,-0.0347,-0.8428,0.5239,241,15.9302,94.2993,-10.7422,96,1.4547,1.5207,11.9284,-45.242,30,0.2431,10041,3.971,75.3484
lg,1625504652017160760,0,-0.2271,-0.8884,0.75,242,-20.4468,101.0742,20.3247,96,1.4527,1.5237,15.2652,-46.7976,30,0.2431,8304,3.971,72.8929
lg,1625504652017189779,0,-0.3865,-0.7031,0.4363,243,9.3994,74.7681,3.7842,96,1.4517,1.5227,17.789,-47.4566,30,0.2421,8314,3.971,70.5974
lg,1625504652017216760,0,-0.5439,-0.7703,0.6475,244,-15.3198,83.252,-15.3809,96,1.4507,1.5177,20.0138,-49.1158,30,0.2411,8702,3.971,67.5096
lg,1625504652017242927,0,-0.6389,-0.7537,0.5176,245,-0.1831,9.2163,-11.5356,96,1.4477,1.5147,20.4872,-49.5482,30,0.2391,8344,3.971,66.8177
lg,1625504652017270223,0,-0.7239,-0.7856,0.4604,246,0.9155,-45.4712,4.3945,96,1.4487,1.5147,20.1516,-49.2768,30,0.2391,13930,3.971,68.3067
lg,1625504652017297149,0,-0.5942,-0.7913,0.6023,247,4.0283,-72.7539,25.0854,96,1.4477,1.5157,18.1777,-47.6646,30,0.2401,8745,3.971,72.9526
lg,1625504652017325242,0,-0.2634,-0.7974,0.6228,248,-1.2207,-149.231,32.2876,96,1.4477,1.5177,14.9322,-46.3141,30,0.2411,8442,3.971,78.3766
lg,1625504652017352445,0,0.0376,-0.8745,0.6389,249,-6.7139,-157.3486,30.5176,96,1.4477,1.5197,10.805,-45.6482,30,0.2431,8836,3.971,83.8099
lg,1625504652017380056,0,0.2673,-0.9119,0.5808,250,-3.9673,-105.6519,19.6533,96,1.4477,1.5217,7.4896,-45.6797,30,0.2431,9498,3.971,87.3448
lg,1625504652017408316,0,0.2698,-0.9558,0.5864,251,4.6997,-2.2583,5.0659,96,1.4497,1.5207,6.7635,-45.9491,30,0.2421,9038,3.971,87.4888
lg,1625504652017435038,0,0.2,-0.8992,0.7478,252,10.3149,40.8325,1.0376,96,1.4517,1.5187,7.8701,-45.8405,30,0.2401,8498,3.971,85.1852
lg,1625504652017462186,0,0.1006,-0.8369,0.6416,253,21.1182,91.8579,-21.8506,96,1.4517,1.5147,9.2681,-45.7426,30,0.2341,8876,3.971,81.8645
lg,1625504652017630686,0,-0.0544,-0.7515,0.408,254,20.752,83.252,-45.3491,96,1.4507,1.5107,10.0562,-46.151,30,0.2261,8189,3.971,78.0565
lg,1625504652017663742,0,-0.1875,-0.8174,0.3899,255,9.0942,91.0034,-20.9961,96,1.4527,1.5037,12.0115,-47.1206,30,0.2221,8961,3.971,74.6447
lg,1625504652017735297,0,-0.092,-0.8274,0.4756,256,8.1787,83.0688,6.4087,96,1.4547,1.4997,14.8933,-47.846,29,0.2191,8616,3.971,72.8036
lg,1625504652389321926,0,-0.5544,-0.7549,0.3811,257,-31.9824,78.6743,77.6367,96,1.4537,1.5097,18.8064,-49.0456,29,0.2301,28121,3.9809,74.1286
lg,1625504652389374297,0,-0.6223,-0.5959,0.5276,258,-19.2261,-8.1177,79.5898,85,1.4487,1.5127,21.735,-48.9185,29,0.2321,8580,3.9809,76.6232
lg,1625504652389394482,0,-0.3965,-0.7344,0.7554,259,-20.0195,-116.7603,41.9922,85,1.4447,1.5107,19.8583,-47.7656,29,0.2301,12506,3.9809,81.6285
lg,1625504652389414871,0,-0.1936,-0.9312,0.7097,260,-43.8232,-182.6782,10.6812,85,1.4437,1.5107,14.8926,-47.9188,29,0.2291,9304,3.9809,87.543
lg,1625504652389433908,0,-0.2305,-0.9622,0.3608,261,-23.5596,-137.3901,-2.6245,85,1.4427,1.5127,11.1306,-48.7471,29,0.2291,8125,3.9809,91.4781
lg,1625504652389452019,0,-0.1155,-0.9658,0.3899,262,-6.4697,-132.8125,6.7139,85,1.4427,1.5137,7.6952,-49.0559,29,0.2291,8089,3.9809,95.5756
lg,1625504652389470501,0,0.2126,-0.9087,0.5308,263,26.5503,-84.9609,19.3481,85,1.4417,1.5147,5.2998,-48.052,29,0.2301,8105,3.9809,98.5951
lg,1625504652389498352,0,0.1567,-0.781,0.5471,264,30.0903,21.5454,6.2256,85,1.4427,1.5167,5.4888,-47.1567,29,0.2311,8154,3.9809,98.0924
lg,1625504652389517908,0,-0.0015,-0.8096,0.613,265,26.6113,80.4443,-4.5776,85,1.4437,1.5187,7.3276,-46.5889,29,0.2341,9849,3.9809,95.5763
lg,1625504652389537223,0,-0.1084,-0.8215,0.5906,266,26.4893,92.8345,-11.6577,85,1.4457,1.5187,9.4867,-46.2721,29,0.2351,8182,3.9809,92.4891
lg,1625504652389555408,0,-0.2661,-0.8438,0.6558,267,32.959,82.4585,-16.4795,85,1.4487,1.5167,11.4687,-45.699,29,0.2361,12978,3.9809,89.5723
lg,1625504652389573204,0,-0.2681,-0.8237,0.728,268,35.9497,67.0776,-15.564,85,1.4527,1.5157,12.5029,-44.2466,29,0.2361,8435,3.9809,87.8063
lg,1625504652389590556,0,-0.1372,-0.7488,0.7454,269,45.9595,37.5366,-19.5923,85,1.4557,1.5127,12.8414,-42.7989,29,0.2331,7888,3.9809,86.1543
lg,1625504652389607908,0,-0.1047,-0.8203,0.5337,270,28.6865,26.123,-48.0347,85,1.4567,1.5087,12.0483,-42.6775,29,0.2291,8257,3.9809,83.8591
lg,1625504652389629408,0,-0.1748,-0.8367,0.4021,271,25.5737,17.334,-56.7017,85,1.4567,1.5057,11.2108,-42.9098,29,0.2251,8646,3.9809,82.1161
lg,1625504652389647686,0,-0.1172,-0.7817,0.3965,272,14.4043,17.4561,-11.7798,85,1.4577,1.5057,11.2381,-43.1255,29,0.2291,9181,3.9809,81.1556
lg,1625504652389664871,0,-0.1892,-0.8459,0.6099,273,-33.3252,66.8335,27.71,85,1.4607,1.5067,13.882,-45.1224,29,0.2331,8492,3.9809,79.9736
lg,1625504652389704871,0,-0.4509,-0.8584,0.6721,274,-36.1328,83.1299,56.0913,85,1.4607,1.5097,18.1236,-47.0544,29,0.2351,7982,3.9809,79.0253
lg,1625504652389726260,0,-0.4827,-0.7454,0.738,275,-28.9307,46.936,68.7256,85,1.4597,1.5137,20.8206,-47.2602,29,0.2361,8783,3.9809,80.6481
lg,1625504652389743815,0,-0.5205,-0.7393,0.6926,276,-20.5688,-8.4839,60.1196,85,1.4567,1.5167,21.4866,-47.5235,29,0.2351,9259,3.9809,83.5475
lg,1625504652389760852,0,-0.4712,-0.8181,0.6614,277,-44.0063,-80.3833,56.5186,85,1.4537,1.5177,21.1081,-47.8818,29,0.2361,8791,3.9809,87.6884
lg,1625504652389779130,0,-0.1431,-0.8682,0.8401,278,-42.2363,-125.8545,63.3545,85,1.4537,1.5177,19.0468,-47.4875,29,0.2381,8078,3.9809,93.5
lg,1625504652389797834,0,-0.0896,-0.8977,0.4761,279,-26.5503,-107.4219,26.8555,85,1.4527,1.5167,16.4366,-47.8835,29,0.2381,8110,3.9809,97.4075
lg,1625504652389815167,0,-0.0486,-0.8945,0.5378,280,-30.0903,-81.8481,27.4658,85,1.4527,1.5177,14.5574,-48.6444,29,0.2391,8510,3.9809,100.5811
lg,1625504652389832482,0,-0.0723,-0.9417,0.4626,281,-3.418,-13.3057,20.9351,85,1.4527,1.5197,14.4374,-49.1367,29,0.2391,8569,3.9809,101.4116
lg,1625504652389849908,0,-0.0146,-0.9475,0.761,282,19.5312,18.7988,3.1738,85,1.4547,1.5217,14.4828,-48.5566,29,0.2411,8899,3.9809,100.8887
lg,1625504652389867408,0,0.0017,-0.8386,0.6965,283,23.9258,15.0757,-21.9116,85,1.4577,1.5217,13.6546,-47.9212,29,0.2421,9152,3.9809,99.8041
lg,1625504652389885482,0,-0.0825,-0.8003,0.4368,284,26.062,18.0664,-34.9121,85,1.4597,1.5227,11.7298,-47.7916,29,0.2431,8969,3.9809,98.268
lg,1625504652389903593,0,-0.1836,-0.8428,0.3328,285,5.6152,-12.2681,-52.4292,85,1.4607,1.5247,9.8582,-48.5542,29,0.2451,9020,3.9809,97.0597
lg,1625504652389920760,0,-0.429,-0.9038,0.4666,286,-46.9971,34.2407,18.1274,85,1.4587,1.5267,11.8066,-51.0525,29,0.2461,8975,3.9809,96.369
lg,1625504652389938889,0,-0.373,-0.7151,0.5591,287,18.3716,3.6621,32.7148,85,1.4577,1.5227,13.321,-50.1813,29,0.2451,9022,3.9809,97.1003
lg,1625504652389956704,0,-0.5129,-0.7075,0.9331,288,-14.7705,-21.5454,-13.6719,85,1.4547,1.5187,12.77,-50.2061,29,0.2441,8331,3.9809,97.5385
lg,1625504652740472037,0,-0.1333,-0.9966,0.658,289,-1.2207,-136.7188,42.6636,85,1.4547,1.5197,10.3142,-49.4186,29,0.2431,27526,3.9809,102.8717
lg,1625504652740512482,0,0.2407,-0.8911,0.5461,290,5.7373,-152.0996,32.0435,85,1.4557,1.5227,6.4284,-48.7317,29,0.2451,9281,3.9809,108.2984
lg,1625504652740532797,0,0.4231,-0.9028,0.5261,291,5.249,-74.2188,13.3057,85,1.4567,1.5237,3.8022,-48.6859,29,0.2461,11879,3.9809,110.8458
lg,1625504652740552667,0,0.3516,-0.9688,0.5586,292,9.4604,33.6304,-6.0425,85,1.4577,1.5227,3.6815,-48.8017,29,0.2441,8238,3.9809,109.6417
lg,1625504652740571852,0,0.2002,-0.8918,0.6753,293,23.3154,103.3325,-19.7754,85,1.4587,1.5197,5.2648,-48.3028,29,0.2351,9621,3.9809,105.9917
lg,1625504652740629167,0,-0.001,-0.7776,0.3833,294,22.2778,85.9375,-42.1143,85,1.4577,1.5177,6.0789,-48.3778,29,0.2291,7898,3.9809,102.2287
lg,1625504652740652630,0,-0.085,-0.7659,0.3489,295,17.7612,87.0972,-35.4614,85,1.4577,1.5147,7.3043,-48.745,29,0.2241,7754,3.9809,98.5816
lg,1625504652740671482,0,-0.0842,-0.7952,0.4302,296,8.0566,101.6846,17.8223,85,1.4587,1.5137,10.4172,-49.3275,29,0.2231,7749,3.9809,95.8754
lg,1625504652740689648,0,-0.0715,-0.8499,0.5183,297,-0.9766,106.3232,33.1421,85,1.4597,1.5157,14.4286,-50.7824,29,0.2281,7822,3.9809,93.2508
lg,1625504652740707408,0,-0.2686,-1.0068,0.7861,298,-30.3345,117.9199,50.1099,85,1.4607,1.5177,18.7917,-52.7665,29,0.2331,7791,3.9809,90.6591
lg,1625504652740725371,0,-0.4009,-0.7803,0.4873,299,-24.1699,51.6968,66.3452,85,1.4607,1.5217,22.3266,-53.9507,29,0.2341,8167,3.9809,90.5047
lg,1625504652740742315,0,-0.4453,-0.6545,0.5957,300,-16.6626,30.0293,65.5518,85,1.4577,1.5237,24.9155,-53.9023,29,0.2371,7864,3.9809,91.2762
lg,1625504652740759611,0,-0.3684,-0.6541,0.8188,301,-7.7515,-1.77,50.1709,85,1.4567,1.5227,26.2883,-52.9701,30,0.2371,7889,3.9809,92.9305
lg,1625504652740777019,0,-0.4084,-0.8359,0.6663,302,-35.0952,-72.6318,39.3066,85,1.4557,1.5217,25.5799,-52.7034,30,0.2381,7859,3.9809,96.5977
lg,1625504652740794889,0,-0.303,-0.9583,0.6958,303,-26.062,-84.5947,46.6919,85,1.4547,1.5217,24.7355,-52.3804,30,0.2381,7947,3.9809,100.6329
lg,1625504652740813389,0,-0.3538,-0.9814,0.5466,304,-7.6904,-64.7583,19.2261,85,1.4537,1.5237,23.4824,-51.8978,30,0.2381,7931,3.9809,103.2505
lg,1625504652740831037,0,-0.0107,-0.9343,0.7283,305,22.7051,-85.2051,32.3486,85,1.4547,1.5257,21.4516,-49.5619,30,0.2401,7951,3.9809,106.9763
lg,1625504652740857000,0,0.1301,-0.8354,0.635,306,20.813,-89.4775,23.6206,85,1.4567,1.5247,18.7232,-47.649,30,0.2411,8011,3.9809,110.4375
lg,1625504652740876426,0,0.1865,-0.825,0.5146,307,15.1367,-15.3198,0.7935,85,1.4577,1.5227,17.2243,-47.3051,30,0.2431,8057,3.9809,110.7965
lg,1625504652740894593,0,0.0337,-0.9399,0.6555,308,21.4844,83.9233,-18.2495,85,1.4597,1.5217,18.2059,-47.7091,30,0.2431,8010,3.9809,107.5832
lg,1625504652740912186,0,-0.1003,-0.8677,0.5903,309,30.0903,101.9897,-31.0669,85,1.4617,1.5177,19.5014,-48.1517,30,0.2421,8063,3.9809,103.3975
lg,1625504652740930371,0,-0.2808,-0.6582,0.4673,310,30.6396,71.167,-39.7339,85,1.4627,1.5147,20.1877,-48.3243,30,0.2401,8064,3.9809,99.9297
lg,1625504652740967519,0,-0.373,-0.7861,0.4375,311,3.418,47.2412,-2.4414,85,1.4637,1.5127,21.4544,-49.2308,30,0.2411,8080,3.9809,98.1698
lg,1625504652740989537,0,-0.4929,-0.9705,0.625,312,-21.3623,39.6729,15.8081,85,1.4647,1.5127,23.2335,-50.6421,30,0.2441,8114,3.9809,98.3495
lg,1625504652741007111,0,-0.415,-0.8108,0.6792,313,-9.2773,-29.8462,63.9648,85,1.4637,1.5177,24.3625,-49.8472,30,0.2451,8463,3.9809,101.1524
lg,1625504652741025130,0,-0.3008,-0.7251,0.5723,314,-16.3574,-109.0088,49.3164,85,1.4617,1.5207,22.7705,-48.5598,30,0.2451,8838,3.9809,106.1339
lg,1625504652741042778,0,-0.1462,-0.9297,0.5691,315,-28.1372,-136.2915,53.5278,85,1.4597,1.5217,20.1761,-47.9272,30,0.2461,8878,3.9809,111.8759
lg,1625504652741155760,0,-0.0264,-0.9592,0.5378,316,-17.9443,-135.8643,52.9785,85,1.4587,1.5217,17.3848,-47.3115,29,0.2471,8146,3.9809,117.4406
lg,1625504652741179148,0,0.0398,-0.9277,0.4702,317,-0.7324,-87.5854,39.917,85,1.4587,1.5227,15.4457,-46.8984,29,0.2471,9235,3.9809,121.0564
lg,1625504652741198945,0,0.1702,-0.8818,0.6382,318,10.437,-49.1333,24.9634,85,1.4607,1.5217,13.8932,-46.2104,29,0.2481,9086,3.9809,123.1595
lg,1625504652741219463,0,0.2017,-0.8611,0.5886,319,16.5405,-22.7051,4.1504,85,1.4627,1.5177,12.436,-45.7368,29,0.2491,8951,3.9809,123.8553
lg,1625504652741238315,0,0.1807,-0.8716,0.5513,320,16.9678,3.1738,-6.1035,85,1.4637,1.5127,12.2972,-45.7073,29,0.2481,8244,3.9809,122.3513
lg,1625504653140537500,0,-0.3252,-0.9844,0.6875,321,-8.606,110.9619,29.7852,85,1.4637,1.5107,16.5156,-46.9899,29,0.2471,26523,3.9809,119.8034
lg,1625504653140581796,0,-0.4243,-0.7053,0.6626,322,-3.479,72.6929,67.1997,85,1.4577,1.5147,20.7257,-47.2107,29,0.2461,8420,3.9809,119.4814
lg,1625504653140604259,0,-0.6404,-0.7517,0.8389,323,-22.0337,-2.8687,-11.9019,85,1.4557,1.5137,20.6473,-47.9717,29,0.2431,12854,3.9809,119.3025
lg,1625504653140654056,0,-0.4783,-0.833,0.502,324,-13.9771,-109.5581,-14.7095,85,1.4537,1.5097,17.5238,-47.9367,29,0.2411,10038,3.9809,122.1971
lg,1625504653140675241,0,-0.4316,-0.825,0.4705,325,-25.1465,-114.8071,-22.3999,85,1.4517,1.5067,14.1032,-48.587,30,0.2391,8081,3.9809,125.0103
lg,1625504653140694019,0,-0.2632,-0.7976,0.3599,326,-8.667,-93.811,4.3335,85,1.4517,1.5067,11.8995,-48.9012,30,0.2391,8108,3.9809,127.8695
lg,1625504653140714093,0,-0.0652,-0.8989,0.6284,327,1.0986,-45.0439,20.5688,85,1.4517,1.5067,11.0033,-48.7089,30,0.2381,8112,3.9809,129.7568
lg,1625504653140733204,0,0.0037,-0.8833,0.6311,328,3.0518,-31.9824,18.5547,85,1.4507,1.5087,10.2004,-48.5975,30,0.2391,8142,3.9809,131.1774
lg,1625504653140752778,0,0.0493,-0.8418,0.5425,329,-0.1831,-9.0332,13.4888,85,1.4507,1.5107,9.8596,-48.8268,29,0.2411,8214,3.9809,131.7546
lg,1625504653140772574,0,-0.0161,-0.9209,0.5627,330,-2.1362,33.4473,2.4414,85,1.4527,1.5147,10.4504,-49.4612,29,0.2431,10304,3.9809,130.7245
lg,1625504653140791648,0,-0.0828,-0.9226,0.5754,331,1.2207,44.4946,0.2441,85,1.4547,1.5167,11.3612,-50.0061,29,0.2441,8553,3.9809,129.2845
lg,1625504653140810000,0,-0.0803,-0.967,0.6035,332,7.9956,31.189,1.0376,85,1.4567,1.5177,11.8999,-50.1902,29,0.2451,8525,3.9809,128.2701
lg,1625504653140844685,0,-0.0146,-0.967,0.6179,333,11.3525,22.522,0.2441,85,1.4587,1.5177,12.0418,-50.1634,29,0.2391,7851,3.9809,127.508
lg,1625504653140864019,0,0.1506,-0.8638,0.4639,334,25.9399,10.376,-29.0527,85,1.4577,1.5147,10.621,-49.7915,29,0.2321,14207,3.9809,126.3242
lg,1625504653140882037,0,0.1614,-0.8521,0.3667,335,21.1182,35.0952,-27.71,85,1.4577,1.5107,9.8944,-49.9242,29,0.2251,8250,3.9809,124.3852
lg,1625504653140900370,0,0.1616,-0.8281,0.3694,336,20.874,67.1997,-14.5264,85,1.4577,1.5067,10.4605,-50.2024,29,0.2211,8653,3.9809,121.7923
lg,1625504653140918130,0,0.0625,-0.7756,0.3774,337,10.6812,137.4512,19.8364,85,1.4587,1.5047,13.97,-51.1313,29,0.2221,8704,3.9809,117.851
lg,1625504653140935352,0,-0.2278,-0.9863,0.7981,338,-25.3296,208.313,47.7905,85,1.4617,1.5067,20.3651,-53.8129,29,0.2291,9678,3.9809,112.1532
lg,1625504653140952982,0,-0.6699,-0.8774,0.5193,339,-27.0386,157.6538,70.1294,85,1.4577,1.5107,26.7291,-56.6461,29,0.2311,10068,3.9809,108.155
lg,1625504653140970611,0,-0.8367,-0.6523,0.4954,340,-21.0571,53.1616,80.9937,85,1.4557,1.5157,31.3142,-57.3613,30,0.2321,8754,3.9809,108.1767
lg,1625504653140988408,0,-0.6116,-0.5898,1.2239,341,-16.3574,-34.9121,64.1479,85,1.4537,1.5157,32.5383,-55.104,30,0.2341,8823,3.9809,111.8977
lg,1625504653141005315,0,-0.6111,-0.7512,0.7065,342,-16.6016,-124.7559,28.3813,85,1.4527,1.5137,28.464,-52.8354,30,0.2341,8880,3.9809,119.4978
lg,1625504653141022833,0,-0.2954,-0.9133,0.6506,343,-41.1987,-209.1064,13.2446,85,1.4517,1.5127,23.2332,-51.1875,29,0.2331,8797,3.9809,127.1511
lg,1625504653141040259,0,-0.2854,-0.8765,0.1892,344,-37.1094,-171.6309,-11.1694,85,1.4517,1.5167,18.5021,-51.7475,29,0.2341,8837,3.9809,132.2005
lg,1625504653141058093,0,0.0925,-1.093,0.4912,345,5.188,-140.9912,23.4985,85,1.4507,1.5177,14.8592,-50.6092,29,0.2351,8127,3.9809,137.2156
lg,1625504653141075556,0,0.2473,-1.0835,0.5708,346,22.583,-97.6562,26.9775,85,1.4517,1.5197,13.0145,-49.231,29,0.2371,8939,3.9809,138.7991
lg,1625504653141093019,0,0.2734,-0.8367,0.5579,347,39.856,13.3057,-8.5449,85,1.4527,1.5197,12.1925,-47.9922,29,0.2381,8839,3.9809,138.0981
lg,1625504653141110519,0,0.062,-0.781,0.5337,348,32.8979,97.7783,-34.0576,85,1.4537,1.5187,13.1653,-47.8376,29,0.2391,9177,3.9809,134.1179
lg,1625504653141127815,0,-0.2002,-0.8533,0.5303,349,18.7378,131.5308,-45.5322,85,1.4557,1.5167,15.2122,-48.7903,29,0.2411,8998,3.9809,128.7222
lg,1625504653141145278,0,-0.3052,-0.8933,0.5852,350,35.8887,87.0972,-27.2217,85,1.4587,1.5167,16.7103,-48.6175,29,0.2401,8618,3.9809,125.1685
lg,1625504653141163185,0,-0.2295,-0.7876,0.6042,351,39.856,39.7949,-26.062,85,1.4617,1.5147,16.8406,-47.7401,29,0.2371,9003,3.9809,123.159
lg,1625504653141273500,0,-0.1799,-0.7515,0.4922,352,36.7432,9.7656,-31.4941,85,1.4607,1.5117,15.469,-47.0156,29,0.2311,9029,3.9809,122.4633
lg,1625504653480529518,0,-0.0034,-0.8489,0.6028,353,-5.8594,30.3345,35.5225,85,1.4617,1.5137,16.7325,-47.5296,30,0.2271,26129,3.9809,122.4543
lg,1625504653480597111,0,-0.1321,-1.0352,0.7971,354,-26.5503,66.6504,31.9214,85,1.4637,1.5167,19.0117,-49.146,30,0.2321,8414,3.9809,121.196
lg,1625504653480674222,0,-0.3521,-0.8674,0.502,355,-18.9819,48.8281,42.6636,85,1.4647,1.5187,21.5842,-50.4646,30,0.2341,7748,3.9809,120.6351
lg,1625504653480703648,0,-0.4043,-0.7439,0.4854,356,-9.4604,33.9355,43.9453,85,1.4647,1.5197,24.0996,-50.5806,30,0.2371,9017,3.9809,120.9361
lg,1625504653480726296,0,-0.5471,-0.7615,0.5852,357,-20.752,-13.0005,58.5327,85,1.4637,1.5217,25.7928,-50.587,29,0.2381,12326,3.9809,122.9915
lg,1625504653480745648,0,-0.4502,-0.8567,0.5642,358,-32.2876,-94.7266,78.064,85,1.4617,1.5227,25.6937,-49.7342,29,0.2381,10826,3.9809,128.3416
lg,1625504653480764611,0,-0.228,-0.877,0.5508,359,-31.0059,-144.8975,92.4683,85,1.4587,1.5227,24.1828,-48.1421,29,0.2381,8367,3.9809,135.6854
lg,1625504653480782630,0,-0.0232,-0.834,0.6482,360,-27.832,-156.311,93.8721,85,1.4577,1.5227,21.8367,-46.3835,30,0.2371,8074,3.9809,143.358
lg,1625504653480801241,0,0.1816,-0.8801,0.5059,361,-20.2026,-145.9351,63.2324,85,1.4567,1.5227,18.4406,-45.56,30,0.2361,8404,3.9809,149.4819
lg,1625504653480820426,0,0.3691,-0.9465,0.7285,362,-25.8789,-94.7266,50.5981,85,1.4557,1.5227,15.9296,-45.5774,30,0.2351,8416,3.9809,153.7127
lg,1625504653480841981,0,0.2361,-0.9255,0.5483,363,-12.8174,-58.6548,29.3579,85,1.4547,1.5297,15.0807,-46.1645,30,0.2341,8939,3.9809,154.4375
lg,1625504653480861759,0,0.1343,-0.9224,0.6887,364,-0.8545,42.5415,7.1411,85,1.4547,1.5187,15.8773,-46.6122,30,0.2341,8397,3.9809,153.3273
lg,1625504653480882426,0,-0.2004,-0.8276,0.6399,365,14.7705,132.0801,2.4414,85,1.4537,1.5187,20.0751,-47.682,30,0.2361,10280,3.9809,148.6898
lg,1625504653480901259,0,-0.5391,-0.6826,0.2996,366,25.4517,141.7847,-6.2866,85,1.4527,1.5207,24.2697,-49.0923,30,0.2371,8479,3.9809,143.7001
lg,1625504653480922333,0,-0.6946,-0.6484,0.407,367,32.6538,117.4316,12.7563,85,1.4527,1.5197,28.3909,-49.669,30,0.2391,8478,3.9809,139.9655
lg,1625504653480940204,0,-0.5327,-0.7632,0.9363,368,28.7476,57.9224,26.5503,85,1.4537,1.5197,30.5231,-48.6744,30,0.2391,8546,3.9809,138.9533
lg,1625504653480959518,0,-0.4016,-0.7961,0.9275,369,21.5454,5.4321,18.9209,85,1.4567,1.5157,28.7989,-47.1954,30,0.2381,8661,3.9809,140.6418
lg,1625504653480980130,0,-0.1296,-0.8752,0.8582,370,8.8501,-55.0537,-13.7939,85,1.4587,1.5107,26.0155,-46.1271,30,0.2341,8585,3.9809,142.0561
lg,1625504653481000481,0,-0.0654,-0.9695,0.5862,371,14.2822,-20.874,-63.1104,92,1.4597,1.5057,22.7611,-46.6094,30,0.2311,8615,3.9743,140.5786
lg,1625504653481058815,0,-0.1987,-0.9392,0.3394,372,12.2681,-24.292,-56.3965,92,1.4607,1.5017,20.067,-47.3884,30,0.2281,8617,3.9743,139.3295
lg,1625504653481085815,0,-0.2422,-0.8892,0.3386,373,6.2866,-14.5874,-23.8037,92,1.4627,1.5037,20.3636,-48.7178,30,0.2341,8646,3.9743,139.2307
lg,1625504653481105259,0,-0.3599,-0.9397,0.5515,374,-46.2036,15.564,40.1611,92,1.4627,1.5057,21.9102,-50.7672,30,0.2351,8647,3.9743,139.6821
lg,1625504653481124241,0,-0.4604,-0.7539,0.5166,375,-39.6729,-17.395,73.2422,92,1.4587,1.5137,23.9422,-51.5147,30,0.2351,8681,3.9743,142.1953
lg,1625504653481143537,0,-0.2971,-0.7517,1.116,376,-13.6719,-25.5737,60.8521,92,1.4557,1.5167,24.7698,-50.2586,30,0.2371,8704,3.9743,145.0492
lg,1625504653481162148,0,-0.4597,-0.8525,0.543,377,-8.4839,-81.604,10.8032,92,1.4557,1.5147,20.7162,-50.3497,30,0.2371,8775,3.9743,149.1566
lg,1625504653481180074,0,-0.2781,-0.8689,0.2737,378,-30.3955,-199.9512,-11.7188,92,1.4537,1.5137,15.205,-50.5112,30,0.2371,13883,3.9743,155.0262
lg,1625504653481198759,0,-0.3025,-0.8999,0.0876,379,-25.3296,-134.0332,-4.5166,92,1.4527,1.5147,11.9435,-51.7646,30,0.2371,8999,3.9743,158.8847
lg,1625504653481220296,0,-0.0181,-1.0479,0.5515,380,18.5547,-94.9707,39.4897,92,1.4507,1.5157,10.3797,-50.6536,30,0.2371,8805,3.9743,162.8225
lg,1625504653481264389,0,0.2773,-0.7737,0.6135,381,30.8838,-102.8442,35.6445,92,1.4507,1.5177,7.59,-49.0429,30,0.2381,8889,3.9743,166.4863
lg,1625504653481287000,0,0.3306,-0.7607,0.584,382,15.9912,-79.1016,12.0239,92,1.4507,1.5197,5.5105,-48.9345,30,0.2391,9739,3.9743,168.186
lg,1625504653481306685,0,0.2478,-1.031,0.5361,383,5.8594,38.0859,2.8687,92,1.4517,1.5187,5.9081,-49.3222,30,0.2411,11269,3.9743,167.0518
lg,1625504653481325407,0,0.1804,-1.0024,0.5669,384,16.3574,79.1016,-4.9438,92,1.4537,1.5187,8.0147,-48.8808,30,0.2421,8937,3.9743,163.7841
lg,1625504653869105926,0,-0.1123,-0.7947,0.4868,385,28.6865,137.207,-26.4893,92,1.4617,1.5137,10.8077,-49.1628,29,0.2331,28113,3.9743,158.7657
lg,1625504653869149111,0,-0.2666,-0.8862,0.5186,386,20.1416,156.8604,-16.3574,92,1.4617,1.5107,14.5057,-49.9274,29,0.2281,12958,3.9743,153.3572
lg,1625504653869169777,0,-0.426,-0.7612,0.4507,387,11.1084,130.6763,9.8267,92,1.4627,1.5107,18.5564,-50.9467,29,0.2311,10627,3.9743,149.319
lg,1625504653869189814,0,-0.5369,-0.8752,0.6914,388,-28.1372,104.3701,47.2412,92,1.4647,1.5127,22.8727,-52.8904,29,0.2351,8331,3.9743,147.0308
lg,1625504653869208426,0,-0.7114,-0.8132,0.4788,389,-34.668,87.7686,55.9692,92,1.4637,1.5167,26.6308,-54.5894,29,0.2371,8294,3.9743,147.0975
lg,1625504653869227222,0,-0.7139,-0.7068,0.4207,390,-44.6167,-5.6763,79.7729,92,1.4577,1.5197,29.4811,-54.7584,29,0.2371,8338,3.9743,150.6644
lg,1625504653869244648,0,-0.6899,-0.7239,0.6174,391,-44.9219,-54.0161,101.9897,92,1.4537,1.5197,31.7909,-53.8863,29,0.2391,8337,3.9743,155.5707
lg,1625504653869262629,0,-0.3542,-0.8081,0.6787,392,-18.4326,-167.5415,57.9224,92,1.4507,1.5137,29.0182,-50.498,29,0.2391,8923,3.9743,163.4429
lg,1625504653869280722,0,-0.0027,-0.9636,0.8088,393,-46.2036,-208.0688,34.3628,92,1.4507,1.5137,23.6153,-48.7386,29,0.2401,8404,3.9743,-188.4945
lg,1625504653869299314,0,-0.0552,-0.9502,0.3098,394,-32.5317,-156.189,-19.043,92,1.4507,1.5157,18.2495,-49.3587,29,0.2421,8499,3.9743,-184.3474
lg,1625504653869317463,0,-0.0051,-0.9653,0.2747,395,-26.062,-137.7563,-17.9443,92,1.4517,1.5187,13.534,-50.3055,29,0.2431,8470,3.9743,-180.7477
lg,1625504653869335407,0,0.2732,-1.0569,0.4724,396,17.2729,-80.3223,-0.1831,92,1.4527,1.5207,10.4712,-49.6922,29,0.2431,8494,3.9743,-178.3805
lg,1625504653869354148,0,0.2981,-0.9663,0.6003,397,47.8516,28.8086,-29.8462,92,1.4557,1.5217,9.3596,-48.3912,29,0.2431,8492,3.9743,-180.1295
lg,1625504653869372777,0,0.0977,-0.8044,0.521,398,46.3867,127.1973,-61.5845,92,1.4587,1.5207,10.3127,-47.818,30,0.2451,13005,3.9743,-185.7019
lg,1625504653869391111,0,-0.1626,-0.7891,0.5076,399,50.9033,161.6211,-72.1436,92,1.4607,1.5187,12.4928,-47.508,30,0.2431,8873,3.9743,167.3782
lg,1625504653869434833,0,-0.3748,-0.7083,0.4407,400,37.8418,141.9067,-58.4717,92,1.4617,1.5167,15.0301,-47.7934,30,0.2381,10091,3.9743,161.3538
lg,1625504653869455592,0,-0.4978,-0.7214,0.5283,401,23.8037,117.0654,-30.2124,92,1.4617,1.5157,17.7923,-48.3141,30,0.2371,8611,3.9743,156.8223
lg,1625504653869473407,0,-0.5757,-0.8359,0.5737,402,8.3618,89.7217,-7.3242,92,1.4627,1.5187,19.9649,-49.4391,30,0.2391,8701,3.9743,155.5543
lg,1625504653869492018,0,-0.573,-0.9087,0.6772,403,-24.1089,20.874,30.1514,92,1.4637,1.5217,21.6425,-50.0847,30,0.2431,9630,3.9743,156.5798
lg,1625504653869509852,0,-0.5957,-0.8796,0.7183,404,-18.0054,-22.8271,53.3447,92,1.4627,1.5227,22.9263,-49.9664,30,0.2451,8638,3.9743,158.8111
lg,1625504653869528518,0,-0.4905,-0.7314,0.5815,405,-12.8174,-116.5161,54.1382,92,1.4627,1.5257,21.7256,-48.4893,30,0.2461,8659,3.9743,164.1443
lg,1625504653869546685,0,-0.3079,-0.7219,0.4924,406,-23.0103,-157.2876,69.9463,92,1.4607,1.5257,19.5144,-47.2183,30,0.2451,8686,3.9743,171.0313
lg,1625504653869569907,0,-0.0652,-0.9043,0.6633,407,-30.0903,-154.2969,78.6743,92,1.4587,1.5257,16.9823,-46.4837,30,0.2471,8730,3.9743,-182.0561
lg,1625504653869589463,0,0.0938,-0.9189,0.7327,408,-20.6299,-153.7476,64.0869,92,1.4587,1.5277,13.7599,-45.7905,30,0.2481,8752,3.9743,-175.6797
lg,1625504653869608629,0,0.2476,-0.9128,0.6284,409,-7.2021,-128.7842,30.4565,92,1.4597,1.5257,10.0482,-45.491,30,0.2481,9039,3.9743,-171.1362
lg,1625504653869627629,0,0.384,-0.9653,0.6494,410,-1.8921,-50.7812,13.916,92,1.4617,1.5257,7.9609,-45.6655,30,0.2491,8780,3.9743,-169.3403
lg,1625504653869648203,0,0.2869,-0.9282,0.5378,411,7.2021,25.3906,-13.1226,92,1.4647,1.5237,7.4102,-46.061,30,0.2491,8943,3.9743,-170.5192
lg,1625504653869666592,0,0.0542,-0.8103,0.3945,412,15.9912,79.834,-17.0288,92,1.4657,1.5207,8.6964,-46.513,30,0.2491,8833,3.9743,-173.4194
lg,1625504653869686203,0,-0.0496,-0.771,0.4482,413,12.8174,95.459,-7.2632,92,1.4667,1.5217,11.1586,-46.9681,30,0.2511,8870,3.9743,-176.5175
lg,1625504653869724611,0,-0.3418,-0.9482,0.6196,414,-27.5879,132.2021,27.3438,92,1.4647,1.5247,15.7031,-49.2076,30,0.2501,8888,3.9743,-179.8971
lg,1625504653869746944,0,-0.5374,-0.8318,0.616,415,-21.1792,91.1865,61.8896,92,1.4587,1.5267,20.3833,-50.5904,30,0.2501,9046,3.9743,-181.2103
lg,1625504653869765574,0,-0.5088,-0.6453,0.5747,416,8.7891,26.7944,15.625,92,1.4577,1.5217,21.9358,-50.3095,30,0.2491,8949,3.9743,-181.6378
lg,1625504654236215388,0,-0.2183,-0.9795,0.562,417,-31.6162,-106.5063,19.3481,92,1.4537,1.5117,19.4111,-50.5389,30,0.2461,28347,3.9743,-177.7443
lg,1625504654236246203,0,0.0757,-0.9983,0.4873,418,1.8921,-91.0645,31.0669,92,1.4547,1.5117,17.167,-49.8201,29,0.2471,8751,3.9743,-174.1463
lg,1625504654236266629,0,0.2087,-0.9146,0.4104,419,21.3013,-32.5317,19.104,92,1.4547,1.5147,15.8329,-49.161,29,0.2471,13458,3.9743,-172.7921
lg,1625504654236285648,0,0.1931,-0.8254,0.4963,420,22.8271,54.6875,8.9111,92,1.4557,1.5177,16.4948,-49.0473,29,0.2491,10038,3.9743,-174.385
lg,1625504654236303870,0,0.0059,-0.8684,0.5903,421,17.8223,105.896,-12.6343,92,1.4567,1.5197,18.1941,-49.7115,30,0.2501,8284,3.9743,-178.1786
lg,1625504654236321759,0,-0.1675,-0.8979,0.5674,422,17.4561,107.2998,-16.4795,92,1.4577,1.5217,20.0558,-50.624,30,0.2501,8424,3.9743,-182.2182
lg,1625504654236339685,0,-0.1855,-0.9067,0.5923,423,22.0947,96.7407,-16.6626,92,1.4597,1.5217,21.2275,-50.7905,30,0.2491,8281,3.9743,-185.3926
lg,1625504654236376370,0,-0.1316,-0.8022,0.6311,424,34.3628,67.0776,-15.1978,92,1.4597,1.5217,21.8998,-50.424,30,0.2431,9694,3.9743,-188.0558
lg,1625504654236394611,0,-0.0642,-0.7217,0.5215,425,33.0811,65.2466,-17.395,92,1.4587,1.5177,22.3227,-50.2495,29,0.2381,9016,3.9743,169.234
lg,1625504654236411870,0,-0.2014,-0.823,0.4895,426,15.686,90.8813,-13.7939,92,1.4587,1.5147,23.7697,-51.3366,29,0.2321,8383,3.9743,165.6505
lg,1625504654236428777,0,-0.2991,-0.804,0.4414,427,12.085,80.7495,15.5029,92,1.4587,1.5107,26.0186,-52.2513,29,0.2291,8374,3.9743,163.1068
lg,1625504654236445907,0,-0.3296,-0.7922,0.5417,428,3.6621,88.9282,31.3721,92,1.4587,1.5087,28.8655,-53.3122,29,0.2321,8416,3.9743,160.7035
lg,1625504654236463222,0,-0.5264,-1.0146,0.7698,429,-25.8179,96.1304,53.3447,92,1.4617,1.5097,32.5552,-55.4247,30,0.2361,8444,3.9743,158.5206
lg,1625504654236480018,0,-0.8074,-0.9255,0.6152,430,-29.2969,22.4609,55.8472,92,1.4627,1.5137,35.0269,-56.274,30,0.2371,8560,3.9743,159.1132
lg,1625504654236496370,0,-0.7383,-0.6006,0.4177,431,-29.9072,-43.7622,71.7163,92,1.4597,1.5167,36.0386,-53.6701,30,0.2381,8524,3.9743,165.6686
lg,1625504654236513074,0,-0.6885,-0.5671,0.4722,432,-33.2642,-125.061,94.6045,92,1.4547,1.5187,36.2249,-50.2602,30,0.2391,8583,3.9743,-186.4652
lg,1625504654236530296,0,-0.3103,-0.8228,0.9978,433,-54.0771,-201.2939,85.8154,92,1.4517,1.5197,32.5977,-46.2382,30,0.2401,8597,3.9743,-176.141
lg,1625504654236547148,0,0.0679,-0.926,0.6279,434,-45.7153,-302.3682,40.5273,92,1.4507,1.5187,23.9051,-43.3081,30,0.2401,8589,3.9743,-165.4563
lg,1625504654236564370,0,0.2939,-1.032,0.478,435,-40.9546,-249.8779,20.0806,92,1.4497,1.5177,15.8691,-43.1082,30,0.2401,10713,3.9743,-157.9241
lg,1625504654236581166,0,0.3394,-1.0129,0.1973,436,-19.8975,-106.4453,14.7095,92,1.4497,1.5187,12.0462,-44.3467,29,0.2411,8686,3.9743,-154.7961
lg,1625504654236597759,0,0.344,-0.998,0.3752,437,22.2168,24.1089,12.146,92,1.4507,1.5197,11.9778,-44.4579,29,0.2421,8659,3.9743,-155.3303
lg,1625504654236614574,0,0.2639,-0.895,0.3855,438,33.6914,85.144,7.8125,92,1.4507,1.5217,15.1392,-44.555,29,0.2421,8645,3.9743,-159.3105
lg,1625504654236631296,0,-0.0032,-0.7847,0.488,439,36.0107,167.7856,-0.1221,92,1.4507,1.5197,19.29,-45.1337,29,0.2431,8675,3.9743,-164.4189
lg,1625504654236648166,0,-0.2759,-0.7925,0.5713,440,29.8462,168.396,2.3804,92,1.4517,1.5217,23.897,-46.1848,29,0.2451,8676,3.9743,-169.6558
lg,1625504654236665018,0,-0.4167,-0.8103,0.6272,441,24.231,123.8403,12.207,92,1.4527,1.5207,27.5579,-47.0283,29,0.2451,8726,3.9743,-173.386
lg,1625504654236681388,0,-0.3752,-0.7661,0.6733,442,18.1885,66.1011,23.3154,92,1.4547,1.5217,29.7306,-47.0718,29,0.2451,11612,3.9743,-174.9036
lg,1625504654236697981,0,-0.2656,-0.8005,0.623,443,10.1929,27.3438,29.7241,92,1.4567,1.5217,30.7469,-46.87,29,0.2431,8793,3.9743,-175.0031
lg,1625504654236714611,0,-0.1802,-0.8979,0.6526,444,3.418,19.6533,24.1089,92,1.4577,1.5207,31.1518,-46.9952,29,0.2411,10555,3.9743,-175.0703
lg,1625504654236731462,0,-0.1343,-0.9282,0.6011,445,5.0659,27.71,21.1182,92,1.4597,1.5207,31.5968,-47.3886,29,0.2391,9425,3.9743,-175.5885
lg,1625504654236758259,0,-0.1484,-0.936,0.5759,446,6.958,49.3774,17.8223,92,1.4607,1.5217,32.5332,-48.2211,29,0.2401,8991,3.9743,-177.0138
lg,1625504654236775555,0,-0.2393,-0.95,0.5857,447,-14.3433,53.4668,22.7051,92,1.4607,1.5237,33.8235,-49.9091,29,0.2441,9954,3.9743,-178.4761
lg,1625504654236792222,0,-0.3245,-0.8674,0.4641,448,-20.9961,38.7573,27.5879,92,1.4597,1.5257,35.1896,-51.4697,29,0.2451,8927,3.9743,-179.2989
lg,1625504654624055573,0,-0.4026,-0.7439,0.6116,449,-22.2168,-19.7144,-20.5688,92,1.4587,1.5177,33.563,-52.2231,30,0.2421,27465,3.9743,-179.1241
lg,1625504654624093073,0,-0.833,-0.7896,0.0312,450,-18.0664,-37.1704,-30.5786,92,1.4567,1.5187,32.3556,-53.7288,30,0.2411,13612,3.9743,-179.1857
lg,1625504654624112962,0,-0.7051,-1.0195,0.5134,451,18.9209,-49.8047,41.5039,92,1.4567,1.5217,32.4607,-51.6909,30,0.2411,9429,3.9743,-176.3111
lg,1625504654624186221,0,-0.312,-0.8611,0.6995,452,44.6167,-162.8418,46.1426,92,1.4557,1.5227,28.9472,-46.2379,30,0.2411,8396,3.9743,-169.1908
lg,1625504654624205629,0,-0.0884,-0.6592,0.6658,453,39.978,-206.2378,38.9404,92,1.4557,1.5227,22.7179,-41.2623,30,0.2421,8421,3.9743,-161.6223
lg,1625504654624224351,0,0.3147,-0.7332,0.6389,454,4.6997,-183.7158,28.8696,92,1.4567,1.5217,16.4239,-39.3732,30,0.2441,8333,3.9743,-155.7853
lg,1625504654624243610,0,0.3977,-0.9907,0.5227,455,-9.5215,-88.3179,6.7749,92,1.4567,1.5197,12.6025,-39.9586,30,0.2451,10181,3.9743,-153.4737
lg,1625504654624261888,0,0.2554,-1.0508,0.5337,456,12.4512,49.2554,-8.3618,92,1.4587,1.5167,12.9627,-40.6927,29,0.2451,8412,3.9743,-155.2362
lg,1625504654624279184,0,0.0879,-0.8535,0.6721,457,25.8789,97.3511,-11.5356,92,1.4597,1.5157,15.9913,-40.5256,29,0.2431,8467,3.9743,-159.3494
lg,1625504654624296758,0,0.0264,-0.7283,0.6067,458,49.3164,158.8135,-13.0005,92,1.4607,1.5137,19.7778,-40.4091,29,0.2401,8451,3.9743,-164.2151
lg,1625504654624314203,0,-0.2993,-0.7427,0.5315,459,24.4141,182.8003,-21.1792,92,1.4587,1.5117,24.6262,-42.2221,29,0.2381,8470,3.9743,-170.3105
lg,1625504654624331647,0,-0.5215,-0.8591,0.5732,460,6.2256,161.0107,1.4648,92,1.4617,1.5117,29.4048,-44.7569,29,0.2391,8464,3.9743,-175.4796
lg,1625504654624349314,0,-0.6143,-0.8987,0.615,461,-6.1646,133.606,17.8223,92,1.4627,1.5127,32.9139,-47.2069,29,0.2421,8488,3.9743,-178.056
lg,1625504654624366592,0,-0.6929,-0.8916,0.7075,462,-23.5596,59.7534,38.5132,92,1.4627,1.5127,35.5729,-48.82,29,0.2441,8546,3.9743,-179.0591
lg,1625504654624383907,0,-0.5474,-0.7192,0.5105,463,-26.3672,-72.5098,48.645,92,1.4617,1.5197,34.9551,-47.6468,30,0.2451,13803,3.9743,-174.9489
lg,1625504654624409462,0,-0.4031,-0.801,0.4824,464,-34.1797,-117.1875,54.1992,92,1.4597,1.5217,32.9189,-46.186,30,0.2461,8613,3.9743,-169.311
lg,1625504654624427962,0,-0.2305,-0.8293,0.5759,465,-30.0293,-130.0659,53.1006,92,1.4597,1.5227,30.0104,-44.918,30,0.2471,8653,3.9743,-163.6086
lg,1625504654624445073,0,-0.137,-0.927,0.4792,466,-18.4326,-119.4458,36.5601,92,1.4597,1.5227,26.8284,-44.0468,30,0.2471,8653,3.9743,-159.0043
lg,1625504654624462092,0,-0.0132,-0.9609,0.5439,467,-1.0986,-88.0737,24.9634,92,1.4597,1.5237,24.0235,-43.2939,30,0.2481,8653,3.9743,-155.8331
lg,1625504654624479036,0,0.021,-0.9587,0.6174,468,6.6528,-40.9546,15.4419,92,1.4587,1.5237,22.3176,-42.9415,30,0.2481,8795,3.9743,-154.3668
lg,1625504654624496462,0,0.0322,-0.8508,0.5928,469,13.0005,-11.0474,0.7935,92,1.4597,1.5237,21.1055,-42.8005,30,0.2491,8934,3.9743,-154.2141
lg,1625504654624513666,0,-0.0803,-0.8184,0.5344,470,19.5923,-1.5259,-5.188,92,1.4597,1.5247,20.2996,-42.6381,30,0.2501,10618,3.9743,-154.544
lg,1625504654624531036,0,-0.1196,-0.8101,0.6072,471,14.0991,-0.1831,-1.0376,92,1.4587,1.5257,20.2248,-43.0703,29,0.2501,8796,3.9743,-154.6177
lg,1625504654624548258,0,-0.2117,-0.7656,0.8315,472,-14.5264,-5.188,10.498,92,1.4567,1.5207,19.9783,-43.4561,29,0.2491,8687,3.9743,-154.13
lg,1625504654624565166,0,-0.405,-0.7495,0.5557,473,-16.1133,4.2725,12.3901,92,1.4527,1.5177,20.5868,-44.3855,29,0.2471,8780,3.9743,-154.0069
lg,1625504654624582999,0,-0.5288,-0.8357,0.698,474,-4.7607,5.188,-6.7139,92,1.4507,1.5127,20.7535,-44.9102,30,0.2451,8792,3.9743,-154.4411
lg,1625504654624600018,0,-0.6995,-0.7366,0.3972,475,-1.3428,-27.8931,-21.2402,92,1.4487,1.5107,20.0374,-45.4364,30,0.2441,8800,3.9743,-153.6605
lg,1625504654624616666,0,-0.616,-0.7666,0.4534,476,-3.7842,-54.8706,16.5405,92,1.4477,1.5107,19.5637,-45.3251,30,0.2441,8818,3.9743,-151.6625
lg,1625504654624652777,0,-0.1626,-0.8301,0.7925,477,-1.5869,-109.9854,32.5317,92,1.4467,1.5117,16.9145,-44.0936,30,0.2431,8857,3.9743,-147.4418
lg,1625504654624671129,0,0.1956,-0.9822,0.7612,478,-9.9487,-128.418,16.2354,92,1.4477,1.5147,12.7025,-43.7421,30,0.2451,8879,3.9743,-143.3663
lg,1625504654624688129,0,0.3335,-0.9631,0.4236,479,-2.9297,-80.4443,-11.3525,92,1.4487,1.5167,8.9762,-44.3276,30,0.2471,8916,3.9743,-141.598
lg,1625504654624706092,0,0.2529,-0.9631,0.4829,480,5.7373,-8.667,-22.8882,92,1.4507,1.5197,9.1303,-45.0126,30,0.2471,8946,3.9743,-144.6362
lg,1625504654977790758,0,-0.2258,-0.863,0.4319,481,28.5034,157.1655,-77.1484,87,1.4547,1.5207,10.8537,-44.957,29,0.2381,26385,3.9787,-150.4058
lg,1625504654977820406,0,-0.2466,-0.7317,0.4126,482,47.4854,94.0552,-65.1245,87,1.4517,1.5167,11.9078,-44.5569,29,0.2301,8412,3.9787,-155.1048
lg,1625504654977840610,0,-0.3203,-0.6968,0.4021,483,17.1509,75.0732,-48.2178,87,1.4507,1.5097,13.5277,-45.268,30,0.2231,11226,3.9787,-157.791
lg,1625504654977859703,0,-0.2795,-0.9067,0.532,484,-17.9443,64.1479,27.771,87,1.4517,1.5067,16.1606,-46.8214,30,0.2281,10883,3.9787,-159.0418
lg,1625504654977877647,0,-0.4841,-1.0386,0.7593,485,-36.7432,68.4204,57.251,87,1.4547,1.5087,19.8554,-48.7079,30,0.2301,8263,3.9787,-159.6394
lg,1625504654977895018,0,-0.5591,-0.9382,0.6135,486,-29.0527,25.7568,69.519,87,1.4547,1.5117,21.4646,-48.7697,30,0.2311,9082,3.9787,-156.6003
lg,1625504654977912110,0,-0.6235,-0.7031,0.4519,487,-19.2261,-72.5098,70.1294,87,1.4527,1.5157,22.2529,-48.1944,30,0.2331,8480,3.9787,-152.3551
lg,1625504654977929388,0,-0.4077,-0.6362,0.8794,488,-21.1182,-119.6899,71.8994,87,1.4507,1.5187,21.0816,-46.3611,30,0.2351,8328,3.9787,-146.2794
lg,1625504654977946906,0,-0.2473,-0.8022,0.7109,489,-54.5654,-213.1958,46.0205,87,1.4487,1.5197,16.2292,-46.1057,30,0.2361,8662,3.9787,-138.4673
lg,1625504654977964129,0,-0.0818,-0.9521,0.6917,490,-53.2227,-249.6338,51.7578,87,1.4487,1.5197,10.1177,-46.2383,30,0.2371,8387,3.9787,-129.7729
lg,1625504654977981147,0,0.2085,-1.0122,0.4678,491,-35.5225,-207.5806,41.8091,87,1.4477,1.5187,4.9062,-47.4225,29,0.2371,8534,3.9787,-122.6387
lg,1625504654977998740,0,0.3186,-1.0811,0.5449,492,-0.2441,-89.7827,20.4468,87,1.4477,1.5207,2.3464,-47.813,29,0.2381,8500,3.9787,-119.4754
lg,1625504654978016610,0,0.366,-0.9062,0.5042,493,25.5737,-6.2866,5.3101,87,1.4487,1.5227,1.4932,-47.2575,29,0.2401,8447,3.9787,-119.1722
lg,1625504654978052592,0,0.2937,-0.7935,0.436,494,27.2217,38.9404,-7.6904,87,1.4487,1.5227,3.0019,-47.0712,29,0.2411,8693,3.9787,-122.3515
lg,1625504654978070851,0,-0.0066,-0.8486,0.4739,495,16.0522,132.2021,-23.5596,87,1.4507,1.5227,5.7818,-47.3078,30,0.2421,8472,3.9787,-126.9162
lg,1625504654978088036,0,-0.29,-0.9199,0.5505,496,16.9678,148.9258,-19.3481,87,1.4517,1.5217,9.5805,-47.7358,30,0.2421,8554,3.9787,-131.9254
lg,1625504654978114703,0,-0.3442,-0.8472,0.5723,497,29.4189,89.7827,-5.6763,87,1.4537,1.5207,12.1784,-47.4038,30,0.2431,8545,3.9787,-134.8343
lg,1625504654978132888,0,-0.3137,-0.7812,0.5378,498,39.3066,53.0396,-2.7466,87,1.4557,1.5207,13.6374,-46.3697,30,0.2421,8584,3.9787,-136.537
lg,1625504654978150092,0,-0.1885,-0.6558,0.5354,499,31.4941,-2.0142,-5.7373,87,1.4567,1.5207,13.3729,-45.3012,30,0.2401,8723,3.9787,-136.6808
lg,1625504654978166832,0,-0.2019,-0.792,0.4138,500,2.0752,-19.5312,6.0425,87,1.4577,1.5207,12.9944,-45.7074,30,0.2401,8602,3.9787,-136.0872
lg,1625504654978184036,0,-0.1382,-0.9805,0.6338,501,-18.3716,-5.9204,53.5889,87,1.4587,1.5237,14.1332,-46.488,30,0.2431,8738,3.9787,-134.4865
lg,1625504654978200647,0,-0.1562,-0.9424,0.6387,502,-11.5356,3.1128,59.082,87,1.4587,1.5247,15.7294,-46.5648,30,0.2441,8643,3.9787,-133.2994
lg,1625504654978217962,0,-0.2063,-0.7446,0.5562,503,3.1738,9.1553,49.6216,87,1.4587,1.5227,17.2903,-46.3688,30,0.2461,8785,3.9787,-132.2256
lg,1625504654978235369,0,-0.2451,-0.7756,0.5906,504,-5.7983,4.3335,54.7485,87,1.4577,1.5247,18.8666,-46.3918,30,0.2471,8701,3.9787,-130.8462
lg,1625504654978252258,0,-0.238,-0.9204,0.7908,505,-3.9673,8.667,59.021,87,1.4607,1.5267,20.4987,-46.1653,30,0.2471,9664,3.9787,-129.4214
lg,1625504654978268999,0,-0.1782,-0.8879,0.8235,506,15.3198,-4.3335,20.3857,87,1.4597,1.5257,20.481,-45.3259,29,0.2481,8799,3.9787,-128.6977
lg,1625504654978285906,0,-0.0991,-0.8115,0.6489,507,14.7095,-32.7759,-13.1226,87,1.4607,1.5257,18.6012,-44.7829,29,0.2481,9521,3.9787,-128.192
lg,1625504654978303203,0,-0.085,-0.9097,0.5813,508,13.9771,-12.146,-35.5225,87,1.4617,1.5227,16.7176,-44.9463,29,0.2441,8825,3.9787,-129.0501
lg,1625504654978319943,0,-0.0911,-0.9172,0.5825,509,18.4937,7.0801,-33.3252,87,1.4607,1.5167,15.6722,-45.3014,30,0.2381,8867,3.9787,-130.4572
lg,1625504654978336777,0,-0.1548,-0.7964,0.4006,510,21.9727,-0.061,-25.7568,87,1.4607,1.5087,14.7342,-45.3275,30,0.2371,8854,3.9787,-131.3972
lg,1625504654978353443,0,-0.2561,-0.7976,0.6003,511,-13.7329,18.2495,7.5073,87,1.4617,1.5127,15.4422,-46.2546,30,0.2421,8818,3.9787,-131.7996
lg,1625504654978369795,0,-0.46,-0.8945,0.5469,512,-51.8188,4.5776,59.8755,87,1.4627,1.5177,17.6548,-48.332,30,0.2401,8889,3.9787,-130.3775
lg,1625504655360090925,0,-0.2566,-0.6792,0.5767,513,-26.6724,-150.6348,-5.6152,87,1.4537,1.5157,13.4388,-48.2258,30,0.2411,27515,3.9787,-125.87
lg,1625504655360120277,0,-0.2117,-0.793,0.2361,514,-53.1616,-142.0898,4.5166,87,1.4527,1.5127,9.9731,-50.3746,30,0.2401,13374,3.9787,-121.5674
lg,1625504655360168110,0,-0.2385,-1.1121,0.4607,515,-39.6729,-60.3027,4.6997,87,1.4527,1.5127,8.6848,-52.2824,29,0.2381,8265,3.9787,-119.6515
lg,1625504655360187758,0,0.0142,-1.1531,0.7139,516,22.2778,-74.2188,20.0806,87,1.4527,1.5137,7.1239,-51.2263,29,0.2391,8311,3.9787,-116.8318
lg,1625504655360227240,0,0.0623,-0.8906,0.5129,517,27.8931,-92.8955,9.3384,87,1.4517,1.5147,4.8677,-50.1873,29,0.2391,8516,3.9787,-114.1236
lg,1625504655360246554,0,0.178,-0.7085,0.3928,518,26.7944,-41.9312,17.2119,87,1.4517,1.5167,3.6467,-49.3955,29,0.2401,8323,3.9787,-112.4334
lg,1625504655360264721,0,0.1941,-0.8105,0.6238,519,6.3477,24.0479,7.3242,87,1.4517,1.5187,3.9265,-49.2846,30,0.2421,8801,3.9787,-112.9844
lg,1625504655360282591,0,0.115,-0.9045,0.575,520,5.0659,68.8477,-13.9771,87,1.4527,1.5207,4.886,-49.5867,30,0.2431,8328,3.9787,-115.4721
lg,1625504655360300425,0,0.0298,-0.9543,0.5586,521,8.4229,84.7168,-24.5361,87,1.4537,1.5167,6.2262,-50.0314,30,0.2441,8382,3.9787,-118.752
lg,1625504655360318202,0,-0.1123,-0.9609,0.4829,522,23.9868,105.1636,-26.6724,87,1.4557,1.5217,8.4655,-49.5781,30,0.2431,10674,3.9787,-122.6664
lg,1625504655360336980,0,-0.0977,-0.8335,0.634,523,58.7769,101.3184,-18.9819,87,1.4577,1.5197,10.4238,-47.9384,30,0.2401,11381,3.9787,-126.2857
lg,1625504655360354795,0,-0.1235,-0.7417,0.6216,524,54.5654,93.2617,-27.3438,87,1.4577,1.5177,11.754,-47.0536,30,0.2351,8477,3.9787,-129.8769
lg,1625504655360372758,0,-0.1958,-0.7483,0.5354,525,30.5786,82.0923,-34.729,87,1.4567,1.5147,12.9788,-46.8485,30,0.2291,8679,3.9787,-133.3642
lg,1625504655360391443,0,-0.217,-0.8254,0.4592,526,21.1792,73.5474,-4.5776,87,1.4567,1.5127,14.8493,-47.1104,30,0.2251,8506,3.9787,-135.8363
lg,1625504655360409999,0,-0.2305,-0.8196,0.5464,527,16.1133,82.0312,18.3716,87,1.4577,1.5107,17.5379,-47.3793,30,0.2241,9674,3.9787,-137.925
lg,1625504655360431851,0,-0.3301,-0.8494,0.6448,528,-2.0142,68.1763,25.3906,87,1.4587,1.5127,20.0946,-48.1201,30,0.2291,11563,3.9787,-139.4056
lg,1625504655360450962,0,-0.4719,-1.0215,0.7532,529,-34.9121,45.105,44.4336,87,1.4607,1.5157,22.6183,-49.7951,30,0.2321,8592,3.9787,-139.6926
lg,1625504655360469425,0,-0.6323,-0.759,0.4583,530,-37.5977,-39.3066,48.645,87,1.4607,1.5187,23.6195,-50.5532,30,0.2351,8771,3.9787,-137.1463
lg,1625504655360487128,0,-0.6516,-0.6938,0.5127,531,-31.7383,-68.6035,60.9131,87,1.4567,1.5217,24.419,-49.5743,30,0.2341,9026,3.9787,-131.9963
lg,1625504655360505202,0,-0.5981,-0.7166,0.5779,532,-31.6162,-112.4268,94.8486,87,1.4507,1.5227,23.2206,-48.0042,30,0.2361,9813,3.9787,-124.1288
lg,1625504655360540758,0,-0.2046,-0.7244,0.9492,533,-33.7524,-206.9702,83.1909,87,1.4497,1.5197,19.4968,-45.6476,29,0.2371,9368,3.9787,-115.0396
lg,1625504655360562202,0,0.0894,-0.834,0.6211,534,-44.3726,-257.5684,44.9829,87,1.4477,1.5187,12.666,-45.2458,29,0.2371,8401,3.9787,-106.2089
lg,1625504655360580295,0,0.2473,-1.0156,0.3938,535,-38.9404,-191.4673,39.1235,87,1.4477,1.5197,7.5483,-46.5067,29,0.2371,8056,3.9787,-99.7103
lg,1625504655360598480,0,0.3694,-1.1594,0.5273,536,-28.9917,-129.2725,39.1846,87,1.4477,1.5207,4.3043,-47.8583,29,0.2381,8120,3.9787,-94.91
lg,1625504655360616369,0,0.4521,-1.1206,0.5547,537,19.6533,-28.4424,16.4795,87,1.4487,1.5227,3.1067,-47.5639,30,0.2401,8167,3.9787,-93.6696
lg,1625504655360634369,0,0.4033,-0.8345,0.4104,538,51.7578,62.9883,-3.7842,87,1.4497,1.5247,3.6983,-46.189,30,0.2411,8914,3.9787,-95.6652
lg,1625504655360652351,0,0.1135,-0.7424,0.4509,539,43.2129,173.1567,-26.8555,87,1.4517,1.5257,7.2878,-45.4958,30,0.2421,8886,3.9787,-101.4461
lg,1625504655360670221,0,-0.2363,-0.7859,0.5493,540,34.1187,209.7778,-27.4658,87,1.4527,1.5237,13.0511,-45.8509,30,0.2431,9286,3.9787,-108.5412
lg,1625504655360688406,0,-0.3989,-0.6909,0.6646,541,38.9404,182.5562,-9.5825,87,1.4557,1.5237,18.2013,-45.8345,30,0.2431,8933,3.9787,-114.2604
lg,1625504655360706202,0,-0.4468,-0.6602,0.7153,542,30.3955,153.5034,-6.5308,87,1.4577,1.5237,22.4992,-46.1958,30,0.2421,8977,3.9787,-119.1321
lg,1625504655360724240,0,-0.6089,-0.8052,0.6125,543,-10.1929,81.1768,14.0381,87,1.4577,1.5247,25.4446,-47.7216,30,0.2441,8606,3.9787,-121.4113
lg,1625504655360741702,0,-0.5764,-0.8982,0.7205,544,-22.3389,31.3721,38.0859,87,1.4577,1.5267,27.449,-48.701,30,0.2461,8289,3.9787,-121.3842
lg,1625504655735358017,0,-0.3992,-0.783,0.4751,545,-25.3906,-90.21,22.7051,87,1.4557,1.5297,25.6135,-48.4538,30,0.2501,27970,3.9787,-117.8647
lg,1625504655735400313,0,-0.2529,-0.9248,0.511,546,-39.0625,-97.8394,30.8838,87,1.4557,1.5307,23.3472,-48.2425,30,0.2511,8370,3.9787,-113.5157
lg,1625504655735420239,0,-0.1257,-1.0371,0.5535,547,-11.8408,-87.7686,29.9072,87,1.4567,1.5317,21.2541,-47.8804,30,0.2511,11865,3.9787,-110.0537
lg,1625504655735438906,0,0.0969,-0.9626,0.5234,548,9.3384,-84.8389,22.522,87,1.4577,1.5327,18.649,-46.9362,30,0.2511,9388,3.9787,-106.9564
lg,1625504655735457684,0,0.2173,-0.9119,0.4597,549,8.5449,-47.0581,11.7798,87,1.4587,1.5317,16.58,-46.7024,30,0.2511,10349,3.9787,-105.3882
lg,1625504655735475869,0,0.2383,-0.9363,0.4661,550,9.3994,-16.0522,7.2632,87,1.4597,1.5307,15.8178,-46.8348,30,0.2491,8076,3.9787,-105.9106
lg,1625504655735507147,0,0.2017,-0.9324,0.4851,551,22.644,41.3208,-2.1362,87,1.4607,1.5287,15.8777,-46.9078,30,0.2491,8080,3.9787,-107.3996
lg,1625504655735526128,0,0.074,-0.8643,0.4624,552,31.0059,89.8438,1.4038,87,1.4617,1.5257,17.5892,-47.0486,30,0.2481,8424,3.9787,-110.2758
lg,1625504655735543832,0,-0.0254,-0.7974,0.4563,553,30.3955,106.7505,2.1973,87,1.4627,1.5247,20.6759,-48.1244,30,0.2501,7931,3.9787,-113.9761
lg,1625504655735561869,0,-0.3616,-0.8113,0.5913,554,-9.7046,122.0703,18.6768,87,1.4617,1.5277,25.1437,-50.0825,30,0.2501,10332,3.9787,-116.788
lg,1625504655735579480,0,-0.5972,-0.8081,0.6775,555,-18.1885,103.2715,58.0444,87,1.4577,1.5307,29.6921,-51.6987,30,0.2521,8497,3.9787,-118.7595
lg,1625504655735596739,0,-0.5845,-0.6233,0.645,556,9.9487,40.6494,25.3906,87,1.4557,1.5297,31.6247,-51.3724,30,0.2521,8508,3.9787,-119.3567
lg,1625504655735613813,0,-0.6528,-0.7288,0.7935,557,-28.5034,-43.8232,0.7324,87,1.4537,1.5277,30.5507,-51.31,30,0.2521,11987,3.9787,-117.5403
lg,1625504655735630850,0,-0.5898,-0.793,0.4695,558,-28.1982,-102.417,2.9907,87,1.4537,1.5257,28.1771,-50.8899,30,0.2501,7840,3.9787,-113.9356
lg,1625504655735648110,0,-0.4478,-0.9526,0.6333,559,-17.0288,-101.1353,13.1226,87,1.4527,1.5257,25.756,-50.0239,30,0.2501,8588,3.9787,-110.1565
lg,1625504655735677128,0,-0.334,-0.9541,0.6677,560,-8.0566,-114.563,19.4702,87,1.4527,1.5277,22.9992,-48.7341,30,0.2511,8684,3.9787,-105.8648
lg,1625504655735695369,0,-0.0547,-0.9062,0.7146,561,-1.0376,-127.4414,17.395,87,1.4517,1.5297,19.3382,-47.2458,29,0.2521,8293,3.9787,-101.3557
lg,1625504655735712647,0,0.1577,-0.8992,0.6223,562,-4.0283,-102.417,2.1973,87,1.4537,1.5307,15.5819,-46.7658,29,0.2541,8127,3.9787,-98.2595
lg,1625504655735730443,0,0.2209,-0.9006,0.5608,563,-5.0049,-82.3975,-6.1646,87,1.4537,1.5307,12.1268,-46.8535,29,0.2541,7930,3.9787,-96.0735
lg,1625504655735748221,0,0.2043,-0.9263,0.4426,564,-0.6104,4.8828,-28.8696,87,1.4557,1.5297,10.5279,-47.7401,29,0.2531,8703,3.9787,-97.1554
lg,1625504655735765406,0,0.0491,-0.9307,0.4453,565,7.019,82.0312,-32.959,87,1.4577,1.5267,11.2104,-48.7514,29,0.2521,8674,3.9787,-100.6613
lg,1625504655735782313,0,-0.0613,-0.9092,0.5574,566,22.0337,110.1685,-43.5181,87,1.4587,1.5247,12.4632,-49.1899,29,0.2471,8904,3.9787,-105.3017
lg,1625504655735799536,0,-0.1372,-0.8901,0.4951,567,34.9731,108.0933,-54.0771,87,1.4587,1.5217,13.6035,-49.3699,29,0.2411,8786,3.9787,-110.221
lg,1625504655735816887,0,-0.2449,-0.8582,0.4294,568,44.2505,80.0171,-47.4854,87,1.4587,1.5187,14.285,-49.0534,30,0.2351,8434,3.9787,-114.1247
lg,1625504655735917610,0,-0.1514,-0.7556,0.3877,569,49.0112,23.3154,-10.0098,87,1.4597,1.5167,14.4484,-47.8838,30,0.2311,8839,3.9787,-115.2563
lg,1625504655735939295,0,-0.1465,-0.657,0.3081,570,19.6533,18.3716,9.7046,87,1.4607,1.5127,15.1263,-47.8365,30,0.2301,8464,3.9787,-115.7194
lg,1625504655735958517,0,-0.1846,-0.6941,0.448,571,-4.8218,31.0059,26.9165,87,1.4617,1.5157,16.5871,-48.185,30,0.2371,8894,3.9787,-115.9593
lg,1625504655735976462,0,-0.4797,-0.9807,0.7107,572,-38.3301,51.0864,80.2612,87,1.4637,1.5197,20.5326,-49.741,30,0.2401,11221,3.9787,-115.4373
lg,1625504655735994647,0,-0.5752,-0.8367,0.5574,573,-30.7617,5.9814,77.8198,87,1.4607,1.5227,23.4323,-50.4682,30,0.2411,8191,3.9787,-113.5733
lg,1625504655736013628,0,-0.6213,-0.584,0.5413,574,-23.5596,-38.3301,85.2661,87,1.4537,1.5247,25.6333,-49.7428,30,0.2421,8936,3.9787,-109.8244
lg,1625504655736031610,0,-0.46,-0.6733,0.855,575,-48.9502,-101.1353,94.2383,87,1.4487,1.5227,25.7567,-48.5559,30,0.2431,9055,3.9787,-103.4868
lg,1625504655736085776,0,-0.1084,-0.8286,0.6782,576,-32.6538,-194.3359,55.7251,87,1.4467,1.5197,21.4265,-46.7787,30,0.2431,8948,3.9787,-95.6283
lg,1625504656101913072,0,0.2085,-1.165,0.7422,577,-7.8125,-59.8145,5.3101,87,1.4457,1.5227,18.8271,-46.8281,29,0.2451,30718,3.9787,-93.7736
lg,1625504656101967980,0,0.1707,-0.9189,0.5017,578,23.7427,-12.8174,-31.0059,87,1.4487,1.5267,16.6669,-46.7822,29,0.2481,8982,3.9787,-94.5152
lg,1625504656101998258,0,-0.0198,-0.7761,0.342,579,26.123,60.5469,-49.6826,87,1.4497,1.5277,17.6375,-48.0171,29,0.2491,8662,3.9787,-99.3643
lg,1625504656102027480,0,-0.3748,-0.8728,0.5481,580,15.3809,124.939,-52.2461,87,1.4527,1.5287,19.3748,-49.2238,29,0.2511,8620,3.9787,-104.5765
lg,1625504656102056961,0,-0.4534,-0.8892,0.5244,581,29.541,82.0923,-41.9312,87,1.4557,1.5287,20.398,-49.7259,29,0.2521,8107,3.9787,-108.5204
lg,1625504656102084702,0,-0.3997,-0.7817,0.4976,582,40.1001,-8.606,-30.2124,87,1.4577,1.5287,19.3805,-48.606,29,0.2501,8138,3.9787,-109.1805
lg,1625504656102111461,0,-0.2004,-0.6633,0.4038,583,34.4238,-83.0078,-10.6812,87,1.4597,1.5287,16.6624,-46.9178,29,0.2471,10171,3.9787,-107.0249
lg,1625504656102138850,0,-0.0527,-0.7056,0.4304,584,2.7466,-74.4019,9.7656,87,1.4607,1.5287,14.4204,-46.596,29,0.2441,9073,3.9787,-104.6296
lg,1625504656102200628,0,0.0088,-0.8083,0.5244,585,-8.7891,-57.0679,23.1323,87,1.4617,1.5297,14.0951,-47.1878,29,0.2451,8659,3.9787,-102.7065
lg,1625504656102232332,0,0.0598,-1.0415,0.717,586,-19.6533,-15.5029,48.0347,87,1.4617,1.5307,14.4409,-47.8497,29,0.2471,7830,3.9787,-100.9757
lg,1625504656102276961,0,0.0178,-0.8977,0.6265,587,-1.0986,7.8735,41.0767,87,1.4637,1.5317,15.2673,-47.9482,29,0.2481,8595,3.9787,-100.154
lg,1625504656102306406,0,-0.0125,-0.8401,0.6084,588,3.6011,29.9072,39.5508,87,1.4647,1.5317,16.7825,-47.9773,30,0.2491,7829,3.9787,-100.0414
lg,1625504656102333924,0,-0.1143,-0.8342,0.6729,589,1.9531,61.3403,35.5225,87,1.4637,1.5327,19.041,-48.3017,30,0.2491,7892,3.9787,-101.0071
lg,1625504656102361498,0,-0.197,-0.9102,0.7295,590,4.0283,47.1802,21.5454,87,1.4647,1.5327,20.5524,-48.5555,30,0.2491,8249,3.9787,-101.9424
lg,1625504656102387313,0,-0.1716,-0.9016,0.6653,591,5.4321,26.2451,17.0288,87,1.4657,1.5327,20.7999,-48.6482,30,0.2501,8642,3.9787,-102.0488
lg,1625504656102413035,0,-0.1462,-0.9165,0.5576,592,-1.8921,9.7656,16.4795,97,1.4667,1.5327,21.0453,-49.0782,29,0.2521,8750,3.9732,-102.0469
lg,1625504656102439146,0,-0.3176,-0.8792,0.3889,593,-23.3765,-18.4937,36.8042,97,1.4617,1.5337,22.2154,-50.357,29,0.2501,10827,3.9732,-100.1645
lg,1625504656102466295,0,-0.1765,-0.7776,1.1951,594,-17.395,-9.7046,86.4868,97,1.4577,1.5327,24.0431,-49.2291,29,0.2501,8408,3.9732,-97.1448
lg,1625504656102493924,0,-0.1772,-0.6438,0.7126,595,32.5928,-44.2505,41.8701,97,1.4547,1.5287,23.572,-46.5423,29,0.2471,8513,3.9732,-94.3664
lg,1625504656102520480,0,-0.2827,-0.7151,0.7903,596,-32.5317,-110.6567,-36.9263,97,1.4527,1.5247,19.1376,-46.7833,30,0.2441,8024,3.9732,-91.9095
lg,1625504656102548924,0,-0.2932,-0.7949,0.2061,597,-36.9263,-120.1782,-19.8364,97,1.4507,1.5237,15.4302,-48.3829,30,0.2421,8818,3.9732,-89.0977
lg,1625504656102575165,0,-0.0439,-1.0144,0.4136,598,-19.9585,-81.4819,21.7285,97,1.4497,1.5227,13.4631,-49.1683,30,0.2401,9409,3.9732,-86.1754
lg,1625504656102601721,0,0.1277,-1.0732,0.5134,599,0.4883,-56.8237,34.3628,97,1.4497,1.5237,12.1298,-49.1172,30,0.2401,8660,3.9732,-83.6243
lg,1625504656102637480,0,0.2664,-0.9648,0.5181,600,26.5503,9.2163,36.8042,97,1.4487,1.5217,12.4979,-48.3923,30,0.2391,8886,3.9732,-83.0295
lg,1625504656102668721,0,0.2197,-0.7908,0.4907,601,30.8838,89.9048,21.3623,97,1.4487,1.5247,14.5324,-48.0448,30,0.2411,8173,3.9732,-85.2973
lg,1625504656102695480,0,-0.0242,-0.7356,0.5293,602,17.4561,136.2915,7.0801,97,1.4497,1.5257,17.8284,-48.7215,30,0.2411,8536,3.9732,-89.4135
lg,1625504656102882498,0,-0.1084,-0.761,0.5667,603,11.4746,145.2637,4.0283,97,1.4497,1.5267,21.2614,-49.9721,30,0.2431,8595,3.9732,-94.0405
lg,1625504656102920221,0,-0.2651,-0.8406,0.613,604,5.0049,130.4932,2.6855,97,1.4517,1.5277,24.3407,-51.5961,30,0.2441,8570,3.9732,-98.415
lg,1625504656103001035,0,-0.2527,-0.895,0.6511,605,11.5967,86.6699,2.5024,97,1.4537,1.5267,26.0786,-52.4802,30,0.2461,8225,3.9732,-101.4102
lg,1625504656103035702,0,-0.2034,-0.8806,0.6003,606,14.5264,63.4766,4.3335,97,1.4557,1.5257,27.1386,-52.9888,30,0.2461,8970,3.9732,-103.615
lg,1625504656103066961,0,-0.1353,-0.8967,0.6621,607,19.7144,58.7158,7.8125,97,1.4567,1.5247,27.9979,-53.0975,29,0.2421,8673,3.9732,-105.5338
lg,1625504656103094221,0,-0.0691,-0.8481,0.6245,608,27.71,58.5938,-8.7891,97,1.4567,1.5227,28.1747,-53.1182,29,0.2361,8707,3.9732,-107.9106
lg,1625504656455806165,0,-0.261,-0.7744,0.29,609,22.1558,93.689,-1.8311,97,1.4547,1.5147,29.9173,-54.625,29,0.2231,28148,3.9732,-111.7532
lg,1625504656455845387,0,-0.322,-0.8103,0.5688,610,-21.5454,111.2061,53.4668,97,1.4587,1.5157,33.6819,-57.0183,29,0.2321,9825,3.9732,-114.6765
lg,1625504656455865720,0,-0.8359,-0.8528,0.4683,611,-47.6685,112.3657,70.3735,97,1.4587,1.5177,38.0121,-59.3942,29,0.2361,7992,3.9732,-115.4359
lg,1625504656455885257,0,-0.9275,-0.6694,0.4707,612,-11.7188,-37.4146,105.2856,97,1.4547,1.5217,41.2014,-56.7798,30,0.2361,10560,3.9732,-110.7847
lg,1625504656455904406,0,-0.9744,-0.5083,0.6118,613,-12.207,-59.6313,104.7974,97,1.4497,1.5227,43.1123,-51.9845,30,0.2371,8672,3.9732,-104.0126
lg,1625504656455922387,0,-0.6997,-0.7856,0.9453,614,-40.1611,-207.8857,79.4067,97,1.4467,1.5207,39.5545,-45.673,30,0.2381,9285,3.9732,-92.5108
lg,1625504656455939813,0,-0.0537,-1.1548,1.0562,615,-54.3823,-311.7676,65.0635,97,1.4457,1.5197,30.9228,-40.599,30,0.2371,8062,3.9732,-79.896
lg,1625504656455956998,0,0.2551,-0.9441,0.4731,616,-33.6914,-288.208,21.4844,97,1.4447,1.5197,21.1752,-38.961,30,0.2391,7978,3.9732,-71.4841
lg,1625504656455975109,0,0.3677,-0.9829,0.4214,617,-30.0903,-218.3838,20.6299,97,1.4447,1.5217,13.5801,-39.2694,30,0.2401,7808,3.9732,-65.4218
lg,1625504656455992813,0,0.4629,-1.051,0.3901,618,-8.5449,-65.7349,3.54,97,1.4457,1.5227,10.3882,-40.2977,30,0.2411,7877,3.9732,-63.8327
lg,1625504656456010720,0,0.2473,-0.9441,0.3484,619,20.4468,83.1299,-26.7944,97,1.4477,1.5247,11.3134,-41.149,30,0.2431,8686,3.9732,-67.0667
lg,1625504656456028868,0,-0.1191,-0.8496,0.4448,620,25.6348,146.3013,-35.4004,97,1.4497,1.5277,15.6533,-42.3721,30,0.2431,8108,3.9732,-73.706
lg,1625504656456047387,0,-0.3105,-0.8264,0.4224,621,31.311,206.2988,-44.3726,97,1.4517,1.5277,20.5515,-44.1846,30,0.2441,7940,3.9732,-81.2312
lg,1625504656456083924,0,-0.55,-0.8196,0.5139,622,37.5977,151.3672,-34.6069,97,1.4537,1.5277,24.2173,-45.3413,30,0.2451,7917,3.9732,-87.0893
lg,1625504656456105461,0,-0.6016,-0.7207,0.4871,623,40.2222,91.1255,-27.8931,97,1.4537,1.5277,26.4055,-45.5375,30,0.2451,7920,3.9732,-90.9167
lg,1625504656456123906,0,-0.4983,-0.6299,0.5354,624,12.8784,-13.2446,-4.0283,97,1.4527,1.5287,26.1019,-45.0363,30,0.2451,7997,3.9732,-90.6844
lg,1625504656456142387,0,-0.3906,-0.8057,0.5437,625,-26.4282,-77.7588,23.4375,97,1.4547,1.5297,24.4282,-45.1676,30,0.2451,7962,3.9732,-87.702
lg,1625504656456160109,0,-0.283,-0.886,0.6406,626,-27.8931,-95.459,35.1562,97,1.4547,1.5297,22.3603,-45.0407,30,0.2441,8029,3.9732,-83.8202
lg,1625504656456178072,0,-0.1309,-0.8628,0.5598,627,-17.7612,-106.9946,38.147,97,1.4517,1.5277,19.8429,-44.6563,30,0.2451,8238,3.9732,-79.6121
lg,1625504656456195924,0,-0.0273,-0.8455,0.5862,628,-13.6108,-95.6421,27.6489,97,1.4537,1.5267,17.2051,-44.4651,29,0.2461,8022,3.9732,-76.0955
lg,1625504656456213646,0,-0.0354,-0.9119,0.583,629,-1.4648,-48.9502,13.6719,97,1.4537,1.5267,15.6124,-44.5239,29,0.2471,9473,3.9732,-74.4115
lg,1625504656456231887,0,-0.0708,-0.9453,0.6208,630,-0.3052,-15.9912,5.7373,97,1.4557,1.5287,14.8581,-44.8539,29,0.2471,8602,3.9732,-73.9066
lg,1625504656456251517,0,-0.0449,-0.9009,0.6025,631,12.6343,-36.377,-10.1318,97,1.4567,1.5307,13.0631,-44.6174,29,0.2471,8101,3.9732,-73.2632
lg,1625504656456269794,0,0.0693,-0.854,0.5725,632,26.062,-25.0244,-21.1792,97,1.4577,1.5317,11.1075,-44.0118,30,0.2451,8151,3.9732,-73.2731
lg,1625504656456287980,0,0.0955,-0.8369,0.5374,633,27.0996,-2.5635,-30.6396,97,1.4557,1.5307,9.5487,-43.5968,30,0.2421,8170,3.9732,-74.2021
lg,1625504656456306424,0,-0.0073,-0.792,0.2974,634,29.2358,30.5786,-40.5273,97,1.4577,1.5317,8.9881,-43.752,30,0.2401,8246,3.9732,-76.4116
lg,1625504656456324868,0,-0.1152,-0.7766,0.3506,635,38.9404,53.5889,-16.4185,97,1.4587,1.5297,10.0531,-43.3691,30,0.2411,8280,3.9732,-78.5273
lg,1625504656456342702,0,-0.1667,-0.717,0.4084,636,21.7896,80.6274,6.1035,97,1.4607,1.5297,12.8245,-43.276,30,0.2451,8278,3.9732,-80.6724
lg,1625504656456377368,0,-0.4302,-0.8379,0.6733,637,-29.7852,99.6704,53.5889,97,1.4607,1.5317,17.5104,-45.0934,30,0.2451,8373,3.9732,-82.0391
lg,1625504656456398609,0,-0.6431,-0.8452,0.728,638,-40.9546,50.5981,98.938,97,1.4567,1.5337,22.2269,-46.395,30,0.2481,8295,3.9732,-80.7038
lg,1625504656456415961,0,-0.5144,-0.6687,0.6499,639,22.522,-55.4199,50.1709,97,1.4527,1.5287,22.361,-44.2344,30,0.2461,9473,3.9732,-77.455
lg,1625504656456541276,0,-0.5259,-0.6799,0.9619,640,-24.1699,-76.0498,23.7427,97,1.4497,1.5257,18.9949,-43.7612,30,0.2441,8661,3.9732,-72.9489
lg,1625504656827234331,0,0.019,-1.0081,0.5452,641,-16.4795,-193.5425,26.7334,97,1.4467,1.5217,13.2045,-43.365,30,0.2421,26933,3.9732,-66.8269
lg,1625504656827289850,0,0.2341,-0.9868,0.5464,642,2.7466,-110.8398,15.8081,97,1.4467,1.5227,10.3509,-43.242,29,0.2431,8869,3.9732,-64.6694
lg,1625504656827320979,0,0.2166,-0.8357,0.4485,643,14.8926,28.6865,-0.3662,97,1.4477,1.5257,10.2948,-43.4987,29,0.2461,7820,3.9732,-65.611
lg,1625504656827351035,0,0.0642,-0.8369,0.6052,644,17.4561,100.0366,-19.3481,97,1.4497,1.5277,12.0983,-43.8763,29,0.2481,10405,3.9732,-69.0781
lg,1625504656827378702,0,-0.0498,-0.8413,0.5544,645,14.7705,110.6567,-29.6021,97,1.4507,1.5287,14.0646,-44.7051,30,0.2481,8451,3.9732,-73.2301
lg,1625504656827407220,0,-0.241,-0.9097,0.499,646,8.8501,106.0181,-33.1421,97,1.4537,1.5277,16.0599,-46.0584,30,0.2471,8953,3.9732,-77.4814
lg,1625504656827434609,0,-0.2954,-0.928,0.519,647,16.4795,73.6694,-23.7427,97,1.4557,1.5267,17.3844,-46.8102,30,0.2461,8471,3.9732,-80.5569
lg,1625504656827461387,0,-0.1729,-0.8928,0.6145,648,42.2974,28.0151,-11.4746,97,1.4577,1.5227,17.4976,-45.8206,30,0.2421,8970,3.9732,-81.8469
lg,1625504656827487831,0,-0.0239,-0.8,0.5461,649,43.5181,5.188,-15.8691,97,1.4567,1.5177,16.572,-44.664,30,0.2351,9177,3.9732,-82.5956
lg,1625504656827515961,0,0.0181,-0.78,0.5647,650,38.8794,8.2397,-16.5405,97,1.4577,1.5117,16.0494,-44.0529,30,0.2321,8531,3.9732,-83.7345
lg,1625504656827543998,0,-0.0056,-0.761,0.4106,651,28.9917,30.3345,1.0986,97,1.4577,1.5047,16.3611,-43.8371,30,0.2291,8556,3.9732,-84.7798
lg,1625504656827571387,0,-0.0432,-0.8188,0.5195,652,9.7046,83.0078,38.0249,97,1.4587,1.5017,19.2597,-44.3975,29,0.2311,8217,3.9732,-86.2259
lg,1625504656827598090,0,-0.3459,-1.0059,0.8438,653,-34.4849,128.6011,57.0068,97,1.4607,1.5007,24.2776,-46.8231,29,0.2351,8621,3.9732,-88.549
lg,1625504656827625183,0,-0.5098,-0.9883,0.8064,654,-44.7388,115.8447,72.5098,97,1.4617,1.5057,29.8168,-49.619,29,0.2371,8904,3.9732,-90.3779
lg,1625504656827651776,0,-0.7004,-0.6917,0.5503,655,-23.0103,18.1274,90.4541,97,1.4567,1.5117,33.3621,-49.4854,29,0.2371,8644,3.9732,-88.3065
lg,1625504656827678146,0,-0.7871,-0.55,0.668,656,-26.7334,-30.7617,79.1626,97,1.4517,1.5157,35.2926,-48.1193,30,0.2401,7981,3.9732,-84.4515
lg,1625504656827704165,0,-0.5742,-0.616,1.1042,657,-36.377,-84.8389,71.4722,97,1.4487,1.5167,31.7334,-45.1794,30,0.2401,8009,3.9732,-76.8839
lg,1625504656827730368,0,-0.2527,-0.9478,0.8882,658,-53.833,-217.4072,42.1143,97,1.4467,1.5157,25.9234,-43.39,30,0.2401,8047,3.9732,-68.6236
lg,1625504656827757757,0,0.1042,-0.9502,0.6152,659,-34.3018,-228.8208,20.6909,97,1.4457,1.5157,18.6861,-42.5217,30,0.2411,8010,3.9732,-61.4929
lg,1625504656827784461,0,0.1042,-0.9194,0.3296,660,-35.7666,-151.7944,-8.606,97,1.4457,1.5177,13.178,-43.906,30,0.2411,13463,3.9732,-57.7653
lg,1625504656827810387,0,0.2385,-1.0044,0.4321,661,-8.3008,-54.1992,-5.5542,97,1.4457,1.5197,10.5405,-44.8202,30,0.2431,8756,3.9732,-56.5692
lg,1625504656827838794,0,0.1448,-0.897,0.376,662,15.0757,41.2598,-18.7988,97,1.4467,1.5207,10.4557,-45.3951,30,0.2441,8099,3.9732,-58.4566
lg,1625504656827905461,0,-0.062,-0.8569,0.5063,663,24.0479,118.103,-27.0386,97,1.4477,1.5217,12.7053,-45.8325,30,0.2451,8831,3.9732,-62.7794
lg,1625504656827940053,0,-0.2063,-0.8313,0.5132,664,23.4375,122.1924,-28.8086,97,1.4497,1.5217,15.2173,-46.4565,30,0.2461,8508,3.9732,-67.3451
lg,1625504656827968553,0,-0.3479,-0.8179,0.5583,665,18.1885,81.0547,-16.8457,97,1.4507,1.5207,17.1051,-46.896,30,0.2471,9601,3.9732,-70.3786
lg,1625504656827997516,0,-0.2959,-0.814,0.5479,666,21.7285,6.2866,-1.8311,97,1.4537,1.5197,17.215,-46.4521,30,0.2471,8655,3.9732,-70.7271
lg,1625504656828159720,0,-0.0557,-0.8418,0.5718,667,17.6392,-45.3491,10.6201,97,1.4567,1.5177,15.7231,-45.6491,30,0.2431,10991,3.9732,-69.1717
lg,1625504656828208165,0,0.1016,-0.8892,0.5764,668,22.2778,-41.5039,6.5918,97,1.4587,1.5147,13.937,-44.8521,30,0.2391,8930,3.9732,-67.8887
lg,1625504656828236128,0,0.2136,-0.8816,0.5798,669,25.5737,0.8545,-1.8311,97,1.4587,1.5107,12.9454,-44.3101,30,0.2361,8206,3.9732,-68.0853
lg,1625504656828265979,0,0.1667,-0.8865,0.563,670,27.3438,36.7432,-4.6997,97,1.4597,1.5077,13.1794,-44.127,30,0.2331,8919,3.9732,-69.4251
lg,1625504656828295016,0,0.0413,-0.7766,0.4768,671,31.3721,82.4585,9.2773,97,1.4607,1.5047,15.1897,-43.9573,30,0.2341,8463,3.9732,-71.6546
lg,1625504656828324128,0,-0.1179,-0.7249,0.645,672,-1.77,112.2437,34.79,97,1.4627,1.5087,19.0208,-44.8576,30,0.2391,9179,3.9732,-73.9542
lg,1625526461229917837,0,-0.6147,-0.6624,0.6111,673,-14.6484,58.6548,97.0459,97,1.4557,1.5177,24.0009,-45.0878,30,0.2431,26749,3.9732,-72.8222
lg,1625526461229985652,0,-0.5452,-0.6885,0.9116,674,-16.9067,-20.9351,61.5845,97,1.4517,1.5137,25.115,-44.7265,30,0.2431,8924,3.9732,-70.2697
lg,1625526461230005856,0,-0.3362,-0.9399,0.8979,675,-34.4849,-95.7031,56.3965,97,1.4507,1.5137,23.5562,-44.2142,30,0.2441,7765,3.9732,-65.5822
lg,1625526461230025022,0,-0.1963,-0.936,0.7075,676,-15.1367,-98.3887,23.5596,97,1.4507,1.5157,20.8516,-43.7794,30,0.2451,8185,3.9732,-62.0376
lg,1625526461230042652,0,0.0183,-0.9185,0.7078,677,-1.5259,-104.6753,8.8501,97,1.4517,1.5177,17.2384,-43.1069,30,0.2461,8022,3.9732,-58.8458
lg,1625526461230061782,0,0.1138,-0.8911,0.5769,678,3.2959,-106.6895,-0.7324,97,1.4527,1.5197,13.0676,-42.963,30,0.2461,8390,3.9732,-56.0787
lg,1625526461230080133,0,0.2104,-0.8579,0.3577,679,8.7891,-39.3066,-25.5127,97,1.4547,1.5217,10.2834,-43.4683,30,0.2461,8467,3.9732,-55.9432
lg,1625526461230098245,0,-0.0056,-0.9539,0.4485,680,15.2588,93.6279,-44.7388,97,1.4577,1.5217,11.3538,-44.4349,30,0.2491,9356,3.9732,-60.0509
lg,1625526461230119689,0,-0.3518,-0.7388,0.4866,681,38.3301,135.8032,-49.4995,97,1.4617,1.5207,13.6255,-44.1961,30,0.2471,13441,3.9732,-64.8182
lg,1625526461230138189,0,-0.4036,-0.6802,0.4712,682,34.668,87.3413,-42.1753,97,1.4627,1.5197,14.91,-44.3115,30,0.2451,10020,3.9732,-67.5302
lg,1625526461230155911,0,-0.4141,-0.7358,0.4641,683,5.5542,34.1797,-19.8364,97,1.4627,1.5207,15.7445,-44.9927,30,0.2461,8133,3.9732,-69.2402
lg,1625526461230173133,0,-0.4033,-0.8643,0.5242,684,-21.3013,-2.9907,12.8174,97,1.4637,1.5227,16.276,-46.2278,30,0.2491,8141,3.9732,-68.9211
lg,1625526461230191467,0,-0.3564,-0.9033,0.6372,685,-24.4141,-16.6626,41.626,97,1.4647,1.5257,17.0955,-47.0386,30,0.2511,8539,3.9732,-67.3156
lg,1625526461230208559,0,-0.4036,-0.8923,0.6006,686,-22.3389,-26.4282,46.9971,97,1.4637,1.5277,17.4227,-47.2364,30,0.2521,8752,3.9732,-64.6931
lg,1625526461230225819,0,-0.4448,-0.8752,0.5425,687,-8.3008,-67.5049,43.8232,97,1.4627,1.5257,17.122,-46.9846,30,0.2531,8587,3.9732,-61.4912
lg,1625526461230242782,0,-0.2542,-0.7922,0.6133,688,-1.5259,-124.2065,48.2788,97,1.4607,1.5267,14.9996,-45.8235,30,0.2541,8741,3.9732,-56.4187
lg,1625526461230261782,0,-0.0659,-0.7805,0.4829,689,-14.0381,-155.3955,45.5933,97,1.4597,1.5257,11.5682,-45.5219,30,0.2541,7907,3.9732,-50.669
lg,1625526461230364393,0,0.0476,-0.8372,0.4924,690,-17.4561,-151.001,47.6685,97,1.4597,1.5247,8.1822,-45.7796,30,0.2541,8313,3.9732,-45.0419
lg,1625526461230449133,0,0.1699,-0.9243,0.4331,691,-9.2773,-104.3701,45.3491,97,1.4577,1.5257,5.9357,-46.3503,30,0.2551,8726,3.9732,-40.8459
lg,1625526461230475374,0,0.2095,-0.95,0.5154,692,7.2632,-24.9634,48.8281,97,1.4587,1.5257,6.0098,-46.4205,30,0.2541,8294,3.9732,-38.8277
lg,1625526461230509856,0,0.1697,-0.8484,0.5752,693,14.6484,11.1694,45.7153,97,1.4597,1.5277,7.6495,-46.0482,30,0.2541,8698,3.9732,-38.7791
lg,1625526461230538004,0,0.1509,-0.7803,0.6475,694,20.0195,51.9409,34.5459,97,1.4597,1.5267,9.4484,-45.4871,30,0.2541,8688,3.9732,-39.3417
lg,1625526461230556282,0,0.0745,-0.7576,0.6396,695,17.7612,74.8901,21.6675,97,1.4597,1.5267,11.6169,-45.2252,29,0.2541,8386,3.9732,-40.9262
lg,1625526461230589208,0,-0.0999,-0.8628,0.6462,696,15.0146,111.2671,18.3105,97,1.4607,1.5277,14.9944,-45.5645,29,0.2551,8808,3.9732,-43.7247
lg,1625526461230621541,0,-0.1785,-0.8953,0.6458,697,19.165,121.521,18.3716,97,1.4607,1.5287,18.8308,-45.9206,29,0.2561,8079,3.9732,-46.8929
lg,1625526461230640726,0,-0.3074,-0.8196,0.7949,698,11.4746,120.1782,20.813,97,1.4607,1.5297,22.5801,-46.5448,29,0.2551,8469,3.9732,-49.9936
lg,1625526461230661096,0,-0.4531,-0.7295,0.6477,699,8.8501,85.8154,20.2026,97,1.4587,1.5297,25.5875,-47.1261,30,0.2551,8845,3.9732,-52.1636
lg,1625526461230697170,0,-0.6104,-0.77,0.5476,700,-0.9155,61.0352,13.4888,97,1.4577,1.5267,27.9054,-48.1563,30,0.2551,8871,3.9732,-53.9019
lg,1625526461230716911,0,-0.6782,-0.8047,0.5696,701,6.1646,9.8267,7.4463,97,1.4587,1.5267,28.6475,-48.191,30,0.2551,10731,3.9732,-54.1186
lg,1625526461230735152,0,-0.5427,-0.7849,0.5994,702,9.2773,-46.2036,15.3198,97,1.4587,1.5257,27.8649,-47.0259,30,0.2551,8916,3.9732,-52.174
lg,1625526461230758041,0,-0.4526,-0.7703,0.5574,703,7.6294,-70.4346,18.3716,97,1.4567,1.5247,26.3718,-45.6879,30,0.2551,8590,3.9732,-49.4368
lg,1625526461230782837,0,-0.2812,-0.9199,0.6685,704,7.4463,-84.2285,15.4419,97,1.4577,1.5277,23.9595,-44.4065,30,0.2561,9034,3.9732,-46.4729
lg,1625526461612114115,0,-0.0227,-0.8826,0.5127,705,20.752,-50.6592,-15.625,84,1.4617,1.5307,21.2343,-43.824,29,0.2561,26431,3.9798,-45.6957
lg,1625526461612156096,0,-0.0054,-0.7834,0.4893,706,38.6963,-23.3765,-23.7427,84,1.4627,1.5307,19.1196,-42.884,29,0.2541,15305,3.9798,-45.9657
lg,1625526461612176392,0,0.0078,-0.7039,0.4937,707,37.6587,-33.0811,-28.3203,84,1.4627,1.5307,17.0315,-42.1562,29,0.2501,7726,3.9798,-46.0954
lg,1625526461612226448,0,-0.0227,-0.7603,0.4563,708,22.8882,-6.2866,-12.9395,84,1.4627,1.5287,16.4406,-42.2213,30,0.2451,10279,3.9798,-46.5425
lg,1625526461612247467,0,-0.0273,-0.7908,0.4304,709,10.0098,15.4419,5.4321,84,1.4637,1.5287,16.4951,-42.6672,30,0.2471,8079,3.9798,-47.0302
lg,1625526461612266300,0,-0.1226,-0.9297,0.6746,710,-10.9863,59.7534,44.4946,84,1.4647,1.5307,19.0413,-43.6695,30,0.2521,8579,3.9798,-47.5198
lg,1625526461612284411,0,-0.3057,-0.8687,0.6011,711,-5.6152,68.7866,67.0166,84,1.4647,1.5327,22.7606,-44.3477,30,0.2521,8259,3.9798,-47.6637
lg,1625526461612303578,0,-0.3984,-0.7305,0.5071,712,-0.5493,47.8516,64.9414,84,1.4627,1.5327,25.9964,-44.5542,30,0.2531,8078,3.9798,-47.2714
lg,1625526461612321189,0,-0.4026,-0.6389,0.6821,713,9.3384,7.0801,64.7583,84,1.4607,1.5317,27.88,-43.2621,30,0.2551,8087,3.9798,-45.3735
lg,1625526461612339152,0,-0.3591,-0.6663,0.5337,714,8.3618,-58.6548,40.8325,84,1.4587,1.5277,27.069,-41.796,30,0.2531,8137,3.9798,-42.3787
lg,1625526461612358281,0,-0.3013,-0.7844,0.6394,715,-11.9629,-75.8667,39.6729,84,1.4567,1.5257,25.4502,-41.0643,30,0.2521,8122,3.9798,-38.9809
lg,1625526461612376689,0,-0.1272,-0.8518,0.4878,716,5.4932,-109.436,40.8936,84,1.4547,1.5257,22.547,-39.8251,30,0.2501,8515,3.9798,-34.8584
lg,1625526461612395078,0,0.0613,-0.8254,0.5181,717,23.9868,-93.75,31.25,84,1.4547,1.5237,19.483,-38.3337,30,0.2481,8575,3.9798,-31.584
lg,1625526461612413411,0,0.1208,-0.7761,0.5261,718,33.2031,-33.3252,19.4092,84,1.4557,1.5237,17.9194,-37.2359,30,0.2471,8993,3.9798,-30.3224
lg,1625526461612430948,0,-0.0176,-0.7639,0.5044,719,36.5601,2.2583,13.6108,84,1.4557,1.5237,18.5351,-36.5073,30,0.2471,8594,3.9798,-31.0369
lg,1625526461612449541,0,-0.0959,-0.7571,0.51,720,46.6919,52.8564,7.3242,84,1.4557,1.5237,19.9512,-35.7903,30,0.2451,7906,3.9798,-32.3694
lg,1625526461612468892,0,-0.2148,-0.7407,0.532,721,54.2603,68.7256,10.437,84,1.4557,1.5237,22.1942,-34.8524,30,0.2441,7939,3.9798,-33.9719
lg,1625526461612486633,0,-0.2673,-0.7363,0.5366,722,56.8848,65.3076,11.6577,84,1.4567,1.5247,24.2547,-33.5183,30,0.2441,8296,3.9798,-34.9823
lg,1625526461612504522,0,-0.2725,-0.7141,0.5972,723,58.6548,46.2646,21.9116,84,1.4577,1.5237,25.9973,-31.9825,29,0.2431,8795,3.9798,-35.5639
lg,1625526461612522318,0,-0.2502,-0.7166,0.5999,724,57.9834,31.25,27.9541,84,1.4577,1.5267,27.2515,-30.2701,29,0.2421,8697,3.9798,-35.5592
lg,1625526461612574078,0,-0.2004,-0.7275,0.6184,725,57.0679,25.0244,29.541,84,1.4587,1.5277,28.1527,-28.5403,29,0.2421,8709,3.9798,-35.3449
lg,1625526461612599818,0,-0.1855,-0.7417,0.6396,726,58.5327,24.8413,28.9917,84,1.4597,1.5277,28.9404,-26.7751,30,0.2411,14347,3.9798,-35.1296
lg,1625526461612621837,0,-0.1824,-0.7358,0.6628,727,60.9131,28.0151,26.7944,84,1.4607,1.5287,29.8234,-25.0352,30,0.2411,10004,3.9798,-35.0626
lg,1625526461612639541,0,-0.2217,-0.7563,0.6663,728,65.0024,30.9448,29.9072,84,1.4607,1.5287,30.8483,-23.1282,30,0.2411,8426,3.9798,-34.9098
lg,1625526461612657226,0,-0.2705,-0.7163,0.6882,729,72.2656,24.353,36.1328,84,1.4617,1.5287,31.7665,-20.6565,30,0.2411,8502,3.9798,-34.2962
lg,1625526461612677930,0,-0.2769,-0.7004,0.7058,730,79.1626,8.667,40.2222,84,1.4617,1.5297,32.092,-17.6822,29,0.2421,9038,3.9798,-33.2132
lg,1625526461612697207,0,-0.2322,-0.6155,0.6812,731,81.0547,-7.7515,46.5088,84,1.4627,1.5297,31.7227,-14.3633,29,0.2421,9504,3.9798,-31.5974
lg,1625526461612716300,0,-0.1965,-0.5649,0.6785,732,79.5898,-13.0615,50.7202,84,1.4627,1.5307,31.0384,-11.1377,29,0.2411,9090,3.9798,-29.6946
lg,1625526461612735689,0,-0.1443,-0.572,0.657,733,73.8525,-3.8452,55.0537,84,1.4627,1.5297,30.5828,-8.1924,29,0.2411,8217,3.9798,-27.8311
lg,1625526461612755004,0,-0.1392,-0.6401,0.6445,734,67.749,24.5972,55.1758,84,1.4627,1.5297,31.2117,-5.8195,30,0.2401,8216,3.9798,-26.2324
lg,1625526461612777281,0,-0.2332,-0.7063,0.7017,735,71.106,57.4951,50.354,84,1.4627,1.5307,33.2224,-3.4995,30,0.2401,9084,3.9798,-24.9563
lg,1625526461612796300,0,-0.3059,-0.6694,0.7095,736,80.5054,66.5894,45.6543,84,1.4637,1.5297,35.6071,-0.7962,30,0.2401,9468,3.9798,-23.8033
lg,1625526461975309744,0,-0.4382,-0.5786,0.7693,737,87.3413,20.2637,34.79,84,1.4647,1.5277,36.2006,2.1882,30,0.2391,26490,3.9798,-22.9628
lg,1625526461975359503,0,-0.4294,-0.5657,0.7795,738,88.8672,-8.8501,33.6304,84,1.4647,1.5277,35.5586,5.0966,30,0.2391,8863,3.9798,-22.2824
lg,1625526461975380374,0,-0.4001,-0.5625,0.8252,739,92.2241,-23.0713,35.0952,84,1.4647,1.5277,34.0786,8.0612,29,0.2391,10177,3.9798,-21.7771
lg,1625526461975430596,0,-0.387,-0.519,0.8191,740,94.5435,-29.9683,32.1045,84,1.4637,1.5277,32.5013,10.8886,29,0.2381,8379,3.9798,-21.4305
lg,1625526461975453448,0,-0.363,-0.5046,0.832,741,93.0176,-26.062,33.9966,84,1.4637,1.5277,31.0337,13.5974,29,0.2371,8016,3.9798,-21.0445
lg,1625526461975472800,0,-0.3538,-0.501,0.8616,742,91.8579,-23.9258,36.8652,84,1.4637,1.5277,29.5438,16.1336,29,0.2371,8078,3.9798,-20.5408
lg,1625526461975491263,0,-0.3574,-0.5027,0.9038,743,87.2192,-28.1372,38.5742,84,1.4647,1.5287,27.9264,18.4913,30,0.2371,8047,3.9798,-20.1131
lg,1625526461975509281,0,-0.3479,-0.5037,0.8928,744,83.9844,-35.5225,38.7573,84,1.4637,1.5277,26.0553,20.5458,30,0.2361,10144,3.9798,-19.8575
lg,1625526461975527040,0,-0.3599,-0.499,0.9006,745,81.604,-35.6445,40.2222,84,1.4647,1.5287,24.2162,22.4506,30,0.2361,8480,3.9798,-19.5832
lg,1625526461975545411,0,-0.3574,-0.4851,0.9104,746,80.5054,-34.5459,39.1235,84,1.4637,1.5277,22.3539,24.1437,30,0.2351,13233,3.9798,-19.5198
lg,1625526461975563707,0,-0.3579,-0.5132,0.9675,747,79.4067,-41.8091,35.1562,84,1.4637,1.5277,20.4062,25.7015,30,0.2351,8548,3.9798,-19.6118
lg,1625526461975582800,0,-0.3577,-0.4802,1.0029,748,78.2471,-56.5186,31.5552,84,1.4647,1.5277,18.0147,27.0764,30,0.2351,8701,3.9798,-20.1106
lg,1625526461975599892,0,-0.3528,-0.4565,0.9287,749,77.3315,-94.4214,23.7427,84,1.4647,1.5277,14.5457,28.0974,30,0.2361,8575,3.9798,-21.6209
lg,1625526461975619281,0,-0.3367,-0.4106,0.8877,750,77.3926,-117.3096,20.9351,84,1.4647,1.5267,10.4012,29.111,30,0.2361,8572,3.9798,-23.6135
lg,1625526461975637540,0,-0.259,-0.3247,0.8677,751,79.4678,-140.8691,22.583,84,1.4647,1.5267,5.4319,30.3181,30,0.2361,8202,3.9798,-25.9517
lg,1625526461975657003,0,-0.1748,-0.2566,0.9724,752,74.0967,-119.812,34.9121,84,1.4647,1.5257,0.8636,31.6138,30,0.2361,10512,3.9798,-27.3789
lg,1625526461975673874,0,-0.1326,-0.2625,1.0872,753,64.209,-87.2192,36.9873,84,1.4657,1.5227,-2.6199,32.5795,30,0.2361,10533,3.9798,-28.0086
lg,1625526461975691596,0,-0.2058,-0.3621,1.1558,754,54.0161,-65.0635,34.1797,84,1.4657,1.5247,-5.0923,33.0307,30,0.2361,8665,3.9798,-28.195
lg,1625526461975727614,0,-0.2581,-0.4036,1.2021,755,53.772,-57.1289,35.8276,84,1.4657,1.5247,-7.207,33.4252,30,0.2361,8684,3.9798,-28.0956
lg,1625526461975748022,0,-0.2595,-0.3994,1.2183,756,55.0537,-65.6738,36.377,84,1.4657,1.5247,-9.9431,33.9389,30,0.2361,8691,3.9798,-28.3543
lg,1625526461975765911,0,-0.2139,-0.3694,1.2607,757,54.8706,-85.6323,35.2173,84,1.4657,1.5217,-12.9475,34.5197,30,0.2361,8544,3.9798,-28.8299
lg,1625526461975785152,0,-0.1128,-0.3416,1.2705,758,51.7578,-96.3745,30.5176,84,1.4657,1.5237,-16.276,35.1133,30,0.2361,8788,3.9798,-29.6716
lg,1625526461975803059,0,-0.0325,-0.3113,1.2302,759,47.6074,-90.9424,26.1841,84,1.4657,1.5237,-19.3633,35.6025,30,0.2361,8415,3.9798,-30.4797
lg,1625526461975821652,0,0.0083,-0.3118,1.2122,760,45.4102,-79.7729,25.6348,84,1.4657,1.5237,-22.1,35.9518,30,0.2371,8515,3.9798,-30.9718
lg,1625526461975840170,0,0.0525,-0.2932,1.1628,761,40.1611,-49.1333,23.0103,84,1.4657,1.5197,-23.7651,35.8306,30,0.2371,8922,3.9798,-30.7003
lg,1625526461975857837,0,0.0173,-0.2908,1.116,762,36.7432,-1.4038,18.1885,84,1.4657,1.5227,-23.6753,35.1327,30,0.2371,8887,3.9798,-29.3141
lg,1625526461975876503,0,-0.061,-0.2932,1.1843,763,29.1138,41.3818,11.4136,84,1.4657,1.5227,-21.8682,33.8829,30,0.2371,8183,3.9798,-27.1413
lg,1625526461975894263,0,-0.1042,-0.2913,1.2585,764,23.9258,55.6641,8.3618,84,1.4657,1.5227,-18.9156,32.4405,30,0.2361,8915,3.9798,-24.9191
lg,1625526461975912540,0,-0.2473,-0.3425,1.2742,765,20.1416,61.3403,-4.4556,84,1.4667,1.5227,-15.8566,31.1621,30,0.2361,8927,3.9798,-23.1657
lg,1625526461975930207,0,-0.3352,-0.3464,1.3174,766,16.4795,35.8276,-5.249,84,1.4647,1.5217,-13.5762,30.0362,30,0.2361,8975,3.9798,-22.1545
lg,1625526461975947744,0,-0.3374,-0.3022,1.2239,767,17.334,-18.4937,-6.3477,84,1.4667,1.5217,-13.147,29.302,30,0.2361,8597,3.9798,-22.3953
lg,1625526461975965818,0,-0.2571,-0.2261,1.1282,768,16.7847,-38.0859,-6.3477,84,1.4657,1.5217,-13.9913,28.7309,30,0.2371,8646,3.9798,-23.1151
lg,1625526462345260003,0,-0.1235,-0.1741,0.9937,769,2.2583,-57.6172,12.6343,84,1.4657,1.5217,-15.3937,27.3211,30,0.2371,27821,3.9798,-23.192
lg,1625526462345328577,0,-0.0491,-0.2502,1.0222,770,-10.7422,-20.2026,21.7285,84,1.4657,1.5207,-15.9348,25.2246,30,0.2371,17611,3.9798,-22.3513
lg,1625526462345350485,0,-0.0728,-0.291,1.0601,771,-12.2681,-13.916,22.8882,84,1.4657,1.5207,-16.2065,22.9569,30,0.2371,7755,3.9798,-21.2873
lg,1625526462345369577,0,-0.0818,-0.345,1.0625,772,-9.3994,-10.1318,24.0479,84,1.4657,1.5207,-16.2933,20.8199,30,0.2371,7776,3.9798,-20.0925
lg,1625526462345392040,0,-0.0681,-0.3306,1.0237,773,-2.5635,-16.0522,20.9351,84,1.4657,1.5217,-16.538,19.0717,30,0.2371,7841,3.9798,-19.0925
lg,1625526462345410911,0,-0.0706,-0.3037,1.0176,774,-0.3052,-16.1133,20.813,84,1.4657,1.5217,-16.7332,17.5034,30,0.2371,7790,3.9798,-18.0923
lg,1625526462345429948,0,-0.0579,-0.2737,0.9858,775,1.4648,-11.7798,17.5781,84,1.4647,1.5217,-16.7093,16.1107,30,0.2381,9348,3.9798,-17.1658
lg,1625526462345449040,0,-0.0911,-0.2656,0.9724,776,1.6479,-5.7983,15.7471,84,1.4667,1.5217,-16.3435,14.7869,30,0.2381,8530,3.9798,-16.2498
lg,1625526462345467374,0,-0.0864,-0.2661,0.9551,777,2.3193,-3.3569,14.8926,84,1.4667,1.5217,-15.6963,13.5494,30,0.2381,8260,3.9798,-15.3578
lg,1625526462345485503,0,-0.1277,-0.2329,0.9414,778,3.1128,-1.0986,14.4653,84,1.4657,1.5217,-15.0396,12.4466,29,0.2381,8157,3.9798,-14.4981
lg,1625526462345503170,0,-0.1411,-0.2415,0.9392,779,3.9673,-6.897,13.1836,84,1.4667,1.5217,-14.5784,11.4347,29,0.2381,8536,3.9798,-13.7565
lg,1625526462345520244,0,-0.1611,-0.2495,0.9504,780,3.2959,-9.0942,15.686,84,1.4657,1.5207,-14.2935,10.3436,29,0.2381,7817,3.9798,-12.8456
lg,1625526462345536966,0,-0.1663,-0.2629,0.9849,781,4.3945,-14.3433,18.9209,84,1.4667,1.5217,-14.128,9.3678,29,0.2381,8243,3.9798,-11.9395
lg,1625526462345554244,0,-0.1379,-0.2756,0.9729,782,6.897,-19.4702,19.7754,84,1.4657,1.5207,-14.2194,8.4892,30,0.2381,7868,3.9798,-11.0217
lg,1625526462345571151,0,-0.1174,-0.2749,0.9966,783,7.9346,-21.2402,21.7285,84,1.4667,1.5217,-14.4478,7.7251,30,0.2381,8668,3.9798,-10.0149
lg,1625526462345587985,0,-0.1072,-0.2747,1.0103,784,10.2539,-21.9727,23.8647,84,1.4657,1.5217,-14.6919,7.0077,30,0.2381,7889,3.9798,-8.9291
lg,1625526462345604966,0,-0.0745,-0.2847,1.0144,785,10.6201,-25.0244,21.1792,84,1.4667,1.5207,-15.0921,6.3344,30,0.2381,8733,3.9798,-7.9517
lg,1625526462345622374,0,-0.0615,-0.262,1.0076,786,13.6108,-32.5928,16.9678,84,1.4667,1.5207,-15.7718,5.8897,30,0.2381,8772,3.9798,-7.1781
lg,1625526462345653688,0,-0.0691,-0.2385,0.9485,787,16.5405,-39.6118,14.5874,84,1.4667,1.5217,-16.7334,5.6992,30,0.2381,8496,3.9798,-6.5422
lg,1625526462345673392,0,-0.0208,-0.1519,0.9951,788,18.9819,-42.3584,13.7939,84,1.4667,1.5217,-17.7876,5.747,30,0.2391,8021,3.9798,-5.9729
lg,1625526462345690151,0,0.0369,-0.1775,1.1619,789,8.1177,-17.6392,20.2026,84,1.4667,1.5207,-17.4215,4.9755,30,0.2391,13115,3.9798,-4.9457
lg,1625526462345708707,0,0.0269,-0.2354,1.1792,790,-2.0752,8.667,17.8223,84,1.4657,1.5197,-16.4601,3.951,30,0.2391,9632,3.9798,-3.9634
lg,1625526462345726448,0,-0.1243,-0.2261,1.1335,791,0.3662,32.1655,7.8125,84,1.4657,1.5207,-14.347,3.2436,30,0.2391,13616,3.9798,-3.3854
lg,1625526462345744392,0,-0.2139,-0.2117,1.0405,792,-3.2349,29.3579,11.8408,84,1.4657,1.5207,-12.2307,2.4086,30,0.2391,8785,3.9798,-2.7014
lg,1625526462345761744,0,-0.2512,-0.2444,1.0305,793,-5.3711,19.5923,14.7705,84,1.4657,1.5207,-11.0882,1.2927,30,0.2391,8468,3.9798,-1.8535
lg,1625526462345779596,0,-0.2151,-0.3042,1.0105,794,-5.0049,-10.0098,18.1274,84,1.4657,1.5207,-10.6421,0.2549,30,0.2391,8487,3.9798,-0.9924
lg,1625526462345796651,0,-0.1763,-0.3093,1.0308,795,3.418,-36.438,19.104,84,1.4657,1.5207,-11.3343,-0.4221,30,0.2381,8956,3.9798,-0.0922
lg,1625526462345813762,0,-0.1042,-0.261,1.0063,796,8.1177,-54.0771,16.6626,84,1.4657,1.5217,-12.8273,-0.8085,30,0.2391,9289,3.9798,0.7227
lg,1625526462345830836,0,-0.0295,-0.2285,0.981,797,8.9111,-63.2935,11.2915,84,1.4647,1.5207,-14.7826,-1.0709,30,0.2391,8491,3.9798,1.3408
lg,1625526462345847911,0,-0.0125,-0.2173,1.0266,798,8.9722,-61.1572,10.2539,84,1.4657,1.5217,-16.6822,-1.2627,30,0.2391,8936,3.9798,1.9262
lg,1625526462345864929,0,0.0171,-0.2046,1.0264,799,7.3853,-43.8232,10.7422,84,1.4657,1.5197,-17.8076,-1.527,30,0.2391,8992,3.9798,2.5391
lg,1625526462345883188,0,0.0315,-0.2078,1.0627,800,1.8921,-27.8931,11.3525,84,1.4657,1.5217,-18.2786,-2.0046,29,0.2391,8646,3.9798,3.1722
lg,1625526462708737670,0,0.0435,-0.2339,1.0356,801,2.9297,-11.0474,15.686,84,1.4647,1.5217,-18.078,-2.542,29,0.2391,26061,3.9798,3.9883
lg,1625526462708775281,0,0.0264,-0.262,1.0137,802,0.4272,1.5869,16.6016,84,1.4657,1.5217,-17.342,-3.2268,29,0.2391,15591,3.9798,4.8317
lg,1625526462708795373,0,0.0305,-0.2607,1.0205,803,1.1597,5.5542,17.334,84,1.4657,1.5217,-16.4728,-3.8415,29,0.2391,7588,3.9798,5.6747
lg,1625526462708814929,0,-0.021,-0.2722,1.0315,804,1.6479,13.3667,17.2729,84,1.4647,1.5217,-15.2129,-4.4062,29,0.2391,8349,3.9798,6.4757
lg,1625526462708833577,0,-0.0386,-0.2419,1.0295,805,2.9907,15.4419,16.9678,84,1.4647,1.5217,-13.8732,-4.807,30,0.2391,10241,3.9798,7.2158
lg,1625526462708851688,0,-0.0845,-0.2441,1.0557,806,1.77,11.8408,16.1743,84,1.4647,1.5217,-12.635,-5.2087,30,0.2401,7723,3.9798,7.9131
lg,1625526462708869299,0,-0.1016,-0.2698,1.0583,807,1.4038,8.728,16.2964,84,1.4647,1.5217,-11.5307,-5.6478,30,0.2401,7855,3.9798,8.6207
lg,1625526462708886910,0,-0.0803,-0.2573,1.0674,808,2.3804,1.8311,16.6016,84,1.4657,1.5217,-10.7774,-5.9971,30,0.2391,8421,3.9798,9.3486
lg,1625526462708904336,0,-0.0706,-0.2527,1.0398,809,3.9673,-4.2114,17.0898,84,1.4657,1.5217,-10.3022,-6.274,29,0.2391,7700,3.9798,10.1148
lg,1625526462708921725,0,-0.0693,-0.2266,1.0239,810,3.479,-5.7983,17.0288,84,1.4647,1.5217,-9.9037,-6.5071,29,0.2391,8452,3.9798,10.8724
lg,1625526462708938762,0,-0.051,-0.2295,1.0435,811,2.5024,-6.5308,15.686,84,1.4647,1.5217,-9.5929,-6.7539,29,0.2401,8474,3.9798,11.5753
lg,1625526462708955799,0,-0.0422,-0.2224,1.05,812,3.1128,-9.3384,13.9771,84,1.4657,1.5227,-9.4291,-6.937,29,0.2391,13621,3.9798,12.2177
lg,1625526462708972670,0,-0.0317,-0.2224,1.033,813,3.6621,-11.7798,14.9536,84,1.4657,1.5227,-9.3824,-7.1058,30,0.2401,8544,3.9798,12.9118
lg,1625526462708990503,0,-0.0293,-0.2275,1.0432,814,2.5024,-8.4839,15.9302,84,1.4657,1.5217,-9.2057,-7.3227,30,0.2401,8550,3.9798,13.6291
lg,1625526462709007392,0,-0.0112,-0.2329,1.0437,815,1.3428,-4.0894,16.4185,84,1.4657,1.5227,-8.8948,-7.5847,30,0.2401,10124,3.9798,14.343
lg,1625526462709036966,0,-0.0042,-0.2205,1.0449,816,2.0142,-1.0986,17.334,93,1.4657,1.5227,-8.4846,-7.7815,30,0.2401,8214,3.9743,15.0704
lg,1625526462709055040,0,-0.0027,-0.2341,1.0554,817,4.1504,1.8311,16.4185,93,1.4657,1.5227,-7.9813,-7.8955,30,0.2391,10002,3.9743,15.7453
lg,1625526462709072725,0,0.0056,-0.2146,1.0505,818,4.8218,5.5542,14.8926,93,1.4657,1.5217,-7.3753,-7.9223,30,0.2401,8277,3.9743,16.3299
lg,1625526462709090836,0,-0.0142,-0.1921,1.0247,819,4.3335,12.0239,15.0146,93,1.4657,1.5227,-6.4946,-7.9193,30,0.2391,8304,3.9743,16.8759
lg,1625526462709107855,0,-0.0405,-0.208,1.043,820,1.77,19.4092,14.1602,93,1.4657,1.5227,-5.3063,-8.027,30,0.2391,7953,3.9743,17.346
lg,1625526462709124799,0,-0.0449,-0.218,1.0447,821,0.9155,21.6675,15.0757,93,1.4667,1.5237,-3.9942,-8.1694,30,0.2391,8825,3.9743,17.8349
lg,1625526462709141614,0,-0.0793,-0.2219,1.0488,822,1.0376,17.7612,15.3809,93,1.4647,1.5227,-2.88,-8.3056,30,0.2391,8658,3.9743,18.3526
lg,1625526462709158596,0,-0.0884,-0.2212,1.0425,823,2.0142,12.9395,15.8691,93,1.4657,1.5227,-1.9761,-8.3916,30,0.2391,8758,3.9743,18.9128
lg,1625526462709175244,0,-0.0759,-0.228,1.0288,824,2.0752,10.2539,16.1133,93,1.4667,1.5227,-1.236,-8.4848,30,0.2391,11187,3.9743,19.4956
lg,1625526462709191873,0,-0.0686,-0.2424,1.0349,825,1.6479,9.8877,15.9302,93,1.4667,1.5227,-0.5564,-8.6113,30,0.2391,8435,3.9743,20.0707
lg,1625526462709209040,0,-0.0669,-0.2495,1.0388,826,2.0142,10.1318,15.1367,93,1.4647,1.5217,0.1529,-8.7069,30,0.2391,8424,3.9743,20.6482
lg,1625526462709226262,0,-0.0703,-0.2285,1.0344,827,2.8076,11.7798,16.6626,93,1.4667,1.5227,0.8623,-8.7355,30,0.2401,8844,3.9743,21.235
lg,1625526462709243114,0,-0.0757,-0.2383,1.0396,828,2.9297,14.1602,15.3809,93,1.4667,1.5227,1.6401,-8.7698,30,0.2401,8113,3.9743,21.7542
lg,1625526462709260077,0,-0.0889,-0.2151,1.0037,829,3.418,15.5029,15.9302,93,1.4667,1.5227,2.4784,-8.7431,30,0.2401,8164,3.9743,22.2859
lg,1625526462709276910,0,-0.1135,-0.2214,1.0125,830,2.3804,16.6626,13.4888,93,1.4657,1.5217,3.4053,-8.7652,30,0.2391,8924,3.9743,22.7119
lg,1625526462709305855,0,-0.1516,-0.2073,1.0288,831,0,16.9067,13.3667,93,1.4657,1.5207,4.3427,-8.8372,30,0.2391,8935,3.9743,23.1313
lg,1625526462709324670,0,-0.197,-0.2412,1.0364,832,-2.3193,13.1226,12.7563,93,1.4667,1.5227,5.181,-9.0586,30,0.2401,8942,3.9743,23.5419
lg,1625526463077824669,0,-0.208,-0.2493,1.0344,833,0.7935,-23.0713,12.085,93,1.4667,1.5227,4.2218,-9.0989,30,0.2391,27644,3.9743,24.2494
lg,1625526463077861947,0,-0.1812,-0.2324,1.0291,834,3.2959,-47.7905,12.4512,93,1.4667,1.5227,2.6369,-9.0593,30,0.2401,8545,3.9743,25.035
lg,1625526463077882169,0,-0.1431,-0.2166,1.0327,835,3.54,-53.4058,13.0615,93,1.4667,1.5227,0.817,-8.9993,30,0.2401,7746,3.9743,25.8828
lg,1625526463077901503,0,-0.1055,-0.23,1.0354,836,2.3193,-58.4106,11.8408,93,1.4667,1.5227,-1.2159,-9.0461,30,0.2391,7680,3.9743,26.7161
lg,1625526463077920466,0,-0.053,-0.2144,1.0405,837,0.1221,-62.3779,11.1694,93,1.4667,1.5227,-3.4386,-9.1754,30,0.2401,8212,3.9743,27.5562
lg,1625526463077939095,0,-0.0227,-0.2346,1.0422,838,-0.1831,-62.1338,12.6343,93,1.4677,1.5227,-5.5955,-9.4445,30,0.2401,9441,3.9743,28.5027
lg,1625526463077958021,0,-0.0056,-0.2322,1.0537,839,-2.1973,-61.1572,12.3901,93,1.4677,1.5237,-7.682,-9.7526,30,0.2391,8640,3.9743,29.4175
lg,1625526463077977781,0,0.0447,-0.2737,1.0417,840,-1.2817,-59.6313,15.564,93,1.4677,1.5227,-9.7044,-10.1564,29,0.2401,8195,3.9743,30.482
lg,1625526463077996114,0,0.0876,-0.2524,1.0322,841,1.0376,-50.7812,16.2354,93,1.4687,1.5227,-11.3803,-10.4425,29,0.2391,11076,3.9743,31.5261
lg,1625526463078014188,0,0.1179,-0.2297,1.0244,842,1.2817,-36.1938,17.9443,93,1.4687,1.5237,-12.4674,-10.682,29,0.2391,8414,3.9743,32.5362
lg,1625526463078031873,0,0.125,-0.2314,1.0383,843,0.9766,-27.9541,16.1133,93,1.4677,1.5237,-12.8463,-10.9495,29,0.2391,8314,3.9743,33.3508
lg,1625526463078050021,0,0.1196,-0.2373,1.0332,844,-0.1221,-8.9111,16.7847,93,1.4687,1.5227,-12.8096,-11.1971,30,0.2401,8619,3.9743,34.114
lg,1625526463078067688,0,0.0747,-0.2476,1.0481,845,-0.2441,6.7749,14.5874,93,1.4687,1.5227,-12.0787,-11.4028,30,0.2401,7925,3.9743,34.6632
lg,1625526463078086281,0,0.0356,-0.2454,1.0427,846,0.1831,16.0522,14.7705,93,1.4687,1.5227,-10.9306,-11.5585,30,0.2401,8283,3.9743,35.1379
lg,1625526463078129540,0,0.0137,-0.2427,1.0391,847,-0.4272,18.7988,14.7705,93,1.4697,1.5237,-9.6733,-11.7138,30,0.2391,8737,3.9743,35.5827
lg,1625526463078150577,0,-0.0217,-0.2463,1.0315,848,-1.3428,20.5688,14.8926,93,1.4697,1.5237,-8.3198,-11.8986,30,0.2401,8689,3.9743,36.0127
lg,1625526463078169169,0,-0.0574,-0.2383,1.0488,849,-1.3428,16.4795,14.8315,93,1.4687,1.5237,-7.1047,-12.045,30,0.2401,8752,3.9743,36.4643
lg,1625526463078188688,0,-0.0725,-0.2292,1.0259,850,-0.5493,12.207,14.2212,93,1.4697,1.5237,-6.2508,-12.1491,30,0.2401,8035,3.9743,37.0121
lg,1625526463078207577,0,-0.0676,-0.2314,1.0393,851,-0.4272,3.1738,14.9536,93,1.4697,1.5237,-5.6098,-12.2369,30,0.2401,8785,3.9743,37.5741
lg,1625526463078229188,0,-0.0623,-0.2488,1.0405,852,-0.2441,-4.5776,17.395,93,1.4687,1.5237,-5.2858,-12.3599,30,0.2401,8408,3.9743,38.3005
lg,1625526463078248373,0,-0.0596,-0.2551,1.0371,853,0.1221,-9.2773,17.1509,93,1.4697,1.5237,-5.1636,-12.4783,30,0.2401,8074,3.9743,39.0586
