name,time,activity,ax,ay,az,batch_val,gx,gy,gz,ibat,index,middle,pitch,roll,temp,thumb,ts,vbat,yaw
rg,1625504231983370373,1,-0.2119,-0.1775,1.0659,1,-16.0522,-63.6597,21.0571,62,1.1556,1.3006,9.9503,-9.0428,26,0.8394,19956,4.0777,95.4144
rg,1625504231983480039,1,-0.2415,-0.1899,1.0747,2,-15.9302,-57.9224,11.4136,62,1.1556,1.2996,7.8435,-9.5846,26,0.8384,8705,4.0777,96.2444
rg,1625504231983534280,1,-0.2695,-0.1582,1.073,3,-15.9302,-58.8989,11.2305,62,1.1556,1.2986,5.8467,-10.0695,26,0.8384,8189,4.0777,97.1022
rg,1625504231983582762,1,-0.2729,-0.1975,1.0881,4,-19.8975,-63.5376,10.437,62,1.1556,1.2996,3.7466,-10.7956,26,0.8374,8584,4.0777,97.975
rg,1625504231983631706,1,-0.2434,-0.2292,1.0913,5,-19.104,-68.0542,10.498,62,1.1556,1.2996,1.504,-11.5527,26,0.8374,8665,4.0777,98.9124
rg,1625504231983676780,1,-0.2112,-0.1931,1.0688,6,-18.3105,-68.6035,10.2539,62,1.1556,1.2996,-0.6682,-12.1639,26,0.8374,8617,4.0777,99.7871
rg,1625504231983720576,1,-0.2126,-0.2092,1.0647,7,-16.2354,-68.4814,9.2773,62,1.1566,1.2936,-2.7904,-12.7961,26,0.8354,8239,4.0777,100.7407
rg,1625504231983765002,1,-0.1934,-0.249,1.0779,8,-17.8833,-69.2139,4.1504,62,1.1556,1.2996,-4.9386,-13.5674,26,0.8324,8239,4.0777,101.5346
rg,1625504231983811206,1,-0.1648,-0.2549,1.0806,9,-17.0288,-70.8008,3.8452,62,1.1556,1.3006,-7.1242,-14.2343,26,0.8354,7924,4.0777,102.3063
rg,1625504231983857965,1,-0.167,-0.2549,1.0728,10,-12.8784,-69.6411,2.2583,62,1.1546,1.2996,-9.171,-14.8218,26,0.8364,8312,4.0777,103.0953
rg,1625504231983904965,1,-0.1526,-0.25,1.0625,11,-9.4604,-67.8101,2.4414,62,1.1556,1.3006,-11.0848,-15.2744,26,0.8344,8334,4.0777,103.8959
rg,1625504231983957206,1,-0.2964,-0.6318,0.7605,12,-135.9863,-171.5088,-8.3008,111,0.7884,0.8424,-16.6237,-22.0618,26,0.7814,11326,4.0414,105.9527
rg,1625504231984007132,1,-0.0747,-1.033,1.137,13,-149.5361,-227.6001,6.1646,111,0.7594,0.8094,-23.8956,-30.3936,26,0.7804,8337,4.0414,110.6559
rg,1625504231984054817,1,0.6023,-1.3452,0.76,14,-94.1772,-259.0332,48.1567,111,0.7484,0.6893,-31.222,-39.2532,26,0.7764,8367,4.0414,119.585
rg,1625504231984099965,1,0.9341,-1.1323,0.7139,15,-4.6997,-91.9189,86.6699,111,0.7464,0.6363,-31.8536,-43.2069,26,0.7744,8307,4.0414,125.857
rg,1625504231984144595,1,0.7996,-0.7605,0.5454,16,69.2749,83.1909,95.3369,111,0.7434,0.6003,-27.2049,-41.1481,26,0.7674,8810,4.0414,126.7119
rg,1625504231984190854,1,0.334,-0.2534,0.3188,17,69.7021,127.8076,58.0444,111,0.7424,0.5833,-23.1069,-36.2164,26,0.7664,7963,4.0414,122.8175
rg,1625504231984235002,1,0.1165,-0.1035,0.2942,18,74.0967,145.0195,-36.377,111,0.7434,0.5823,-19.0205,-30.8935,26,0.7634,7996,4.0414,117.8184
rg,1625504231984279039,1,-0.3494,-0.1367,0.3948,19,20.6909,160.8276,-48.8892,111,0.7474,0.5903,-12.4907,-28.3314,26,0.7644,8262,4.0414,112.6764
rg,1625504231984322928,1,-0.6077,-0.772,0.8933,20,-59.4482,64.7583,-6.8359,111,0.7524,0.6043,-8.9417,-30.8447,26,0.7654,8420,4.0414,111.1957
rg,1625504231984366928,1,-0.5769,-1.1545,1.1089,21,-64.5142,-29.3579,-11.1694,111,0.7584,0.6243,-9.0847,-34.0163,26,0.7694,7962,4.0414,111.5134
rg,1625504231984409447,1,-0.1997,-1.126,0.8569,22,-23.9868,-126.8921,-9.9487,111,0.7664,0.6543,-12.7902,-36.1983,26,0.7754,8505,4.0414,114.2662
rg,1625504231984454410,1,0.1255,-0.9233,0.9683,23,3.3569,-112.5488,22.0337,111,0.7764,0.6803,-15.5613,-37.2152,26,0.7814,8430,4.0414,117.8389
rg,1625504231984498447,1,0.2231,-0.8767,0.9731,24,6.2256,-80.5054,34.0576,111,0.7894,0.7063,-17.1481,-38.3394,26,0.7884,8131,4.0414,121.1487
rg,1625504231984540780,1,0.2515,-0.9668,0.6938,25,24.5972,-22.644,29.4189,111,0.8134,0.7334,-16.9387,-38.4443,26,0.7924,8454,4.0414,122.8898
rg,1625504231984583410,1,0.2202,-1.1108,0.6638,26,47.6685,1.77,15.625,111,0.8434,0.7534,-16.2514,-37.4931,26,0.7954,8197,4.0414,123.5999
rg,1625504231984628354,1,-0.0618,-0.8232,0.4487,27,75.5005,51.9409,7.0801,111,0.8614,0.7734,-13.6983,-35.1599,26,0.7974,8509,4.0414,122.8411
rg,1625504231984704039,1,-0.2065,-0.6555,0.5439,28,60.5469,62.0728,7.9956,111,0.8554,0.7934,-10.4511,-33.0893,26,0.7974,8600,4.0414,121.8434
rg,1625504231984754576,1,-0.2546,-0.4099,0.666,29,-39.856,-22.2778,3.479,111,0.8094,0.8074,-10.027,-34.7228,26,0.7924,8894,4.0414,122.4416
rg,1625504231984800225,1,-0.1143,-0.7366,0.7808,30,-118.103,-113.5254,-0.7935,111,0.7684,0.8084,-12.9961,-40.3188,26,0.7904,9006,4.0414,125.2711
rg,1625504231984843651,1,0.2888,-1.2417,0.7983,31,-111.6333,-166.748,45.7764,111,0.7534,0.7174,-16.4623,-46.9931,26,0.7884,8172,4.0414,131.5436
rg,1625504231984889262,1,0.5559,-1.2717,0.8884,32,-81.9092,-163.8794,54.8096,111,0.7484,0.6573,-19.3457,-52.6803,26,0.7914,8608,4.0414,138.4056
rg,1625504232339766021,1,0.3806,-0.4932,0.2666,33,74.4629,171.6919,28.8086,111,0.7424,0.6003,-14.7199,-48.5886,26,0.7834,26334,4.0414,133.6825
rg,1625504232339851558,1,-0.6013,-0.1833,0.416,34,38.5132,201.8433,-69.7021,111,0.7494,0.6093,-9.4232,-46.3474,26,0.7834,16265,4.0414,126.773
rg,1625504232339904502,1,-0.8035,-0.8479,0.6663,35,-74.2188,23.4985,-27.0996,111,0.7544,0.6303,-7.962,-49.2488,26,0.7854,8568,4.0414,125.3226
rg,1625504232340069928,1,-0.7468,-1.2122,0.9976,36,-92.1021,-75.6226,-36.1328,111,0.7624,0.6543,-9.7177,-53.1803,26,0.7894,8596,4.0414,126.7645
rg,1625504232340134261,1,-0.218,-1.1855,0.8184,37,-36.9873,-204.0405,-32.3486,111,0.7704,0.6813,-14.7456,-56.0137,26,0.7944,8101,4.0414,132.8071
rg,1625504232340183410,1,0.1765,-0.9526,0.9778,38,-6.5308,-196.167,0.3662,111,0.7864,0.7033,-18.7036,-57.7607,26,0.8014,7977,4.0414,139.5522
rg,1625504232340231428,1,0.3701,-0.8464,0.6653,39,16.1133,-99.1821,31.25,111,0.8054,0.7204,-19.7388,-58.2729,26,0.8054,7785,4.0414,143.74
rg,1625504232340278706,1,0.4138,-0.9739,0.5752,40,23.7427,-64.8804,41.626,111,0.8324,0.7384,-19.6928,-58.6186,26,0.8084,7991,4.0414,147.0786
rg,1625504232340323428,1,0.4158,-1.0774,0.4824,41,41.1377,-27.1606,19.104,111,0.8544,0.7544,-19.6034,-57.7246,26,0.8094,7878,4.0414,148.5798
rg,1625504232340366298,1,0.1523,-0.7517,0.3367,42,69.519,31.0669,9.5825,111,0.8664,0.7724,-18.2486,-54.9916,26,0.8094,8424,4.0414,147.8259
rg,1625504232340411428,1,-0.0872,-0.5103,0.6667,43,6.958,48.8281,17.2119,111,0.8374,0.7954,-15.6588,-53.6308,26,0.8014,10941,4.0414,146.3673
rg,1625504232340475576,1,-0.2361,-0.7266,0.7493,44,-85.4492,-27.5879,5.0049,111,0.7884,0.8054,-15.0469,-56.9219,26,0.7954,8502,4.0414,147.2915
rg,1625504232340521410,1,-0.1582,-0.9087,0.6914,45,-90.6982,-65.979,22.8882,111,0.7604,0.7584,-14.7274,-61.0787,26,0.7924,8248,4.0414,150.0421
rg,1625504232340567595,1,0.2993,-1.2236,0.7065,46,-84.1064,-124.0845,71.6553,111,0.7504,0.6573,-14.2518,-65.8587,26,0.7914,8485,4.0414,155.9248
rg,1625504232340615873,1,0.6523,-1.1479,0.6663,47,15.1367,-46.3867,87.2803,111,0.7464,0.6223,-12.2958,-65.7598,26,0.7874,8674,4.0414,159.0656
rg,1625504232340703780,1,0.6963,-0.8689,0.416,48,59.3262,18.2495,107.1167,111,0.7444,0.5993,-8.0301,-63.2928,26,0.7884,8190,4.0414,157.4263
rg,1625504232340755650,1,0.4792,-0.6128,0.3225,49,62.9883,156.311,49.0112,111,0.7424,0.5803,-4.3928,-60.2286,26,0.7854,8728,4.0414,152.7732
rg,1625504232340801298,1,-0.1208,-0.1628,0.3406,50,87.0972,208.1909,-63.2324,111,0.7444,0.5723,-1.2814,-55.1066,26,0.7844,7796,4.0414,144.3365
rg,1625504232340848502,1,-0.667,-0.0935,0.4114,51,61.7065,182.6782,-70.9229,111,0.7474,0.5793,2.6909,-51.9119,26,0.7834,8000,4.0414,136.8282
rg,1625504232340926187,1,-0.7986,-0.1919,0.3669,52,19.4702,113.3423,-42.8467,111,0.7524,0.5953,4.1553,-53.7209,26,0.7844,8229,4.0414,135.3726
rg,1625504232340975317,1,-0.8091,-0.9285,0.8503,53,-106.9336,-77.8809,-25.0244,111,0.7584,0.6163,2.1218,-57.5927,26,0.7884,9324,4.0414,137.3928
rg,1625504232341026484,1,-0.2288,-1.3916,1.0649,54,-59.8145,-256.6528,-30.3955,111,0.7674,0.6443,-3.9821,-59.914,26,0.7934,8258,4.0414,145.5353
rg,1625504232341073780,1,0.3386,-1.0476,0.9673,55,7.3242,-236.8164,10.8032,111,0.7794,0.6683,-8.6794,-60.056,26,0.7994,8154,4.0414,153.9602
rg,1625504232341128095,1,0.5972,-0.8743,0.9119,56,24.4751,-171.9971,49.3774,111,0.7954,0.6843,-11.3254,-59.9116,26,0.8044,7976,4.0414,160.9452
rg,1625504232341173724,1,0.7109,-0.8723,0.5544,57,47.7295,-29.7852,52.2461,111,0.8234,0.7043,-11.0325,-58.3255,26,0.8064,8898,4.0414,163.044
rg,1625504232341221539,1,0.5166,-1.0591,0.5737,58,52.3682,49.1333,5.7983,111,0.8524,0.7274,-10.2589,-56.0525,26,0.8074,8370,4.0414,161.4971
rg,1625504232341266687,1,0.0535,-0.854,0.4263,59,85.8154,118.4082,2.8076,111,0.8784,0.7444,-7.1433,-52.3339,26,0.8084,8246,4.0414,157.7344
rg,1625504232341315002,1,-0.1599,-0.728,0.4995,60,87.3413,143.9209,8.4229,111,0.8894,0.7634,-2.5684,-48.606,26,0.8094,8428,4.0414,153.5285
rg,1625504232341366317,1,-0.4421,-0.48,0.6946,61,31.1279,77.5757,7.6904,111,0.8614,0.7784,0.872,-46.8373,26,0.8024,8997,4.0414,151.4332
rg,1625504232341411743,1,-0.3289,-0.5022,0.7236,62,-96.1304,-65.979,7.1411,111,0.8034,0.7924,0.111,-50.1987,26,0.7934,8107,4.0414,153.5887
rg,1625504232341627317,1,-0.0229,-1.0344,0.7722,63,-128.2349,-151.5503,36.1328,111,0.7684,0.7654,-2.3338,-55.5373,26,0.7924,8460,4.0414,159.2881
rg,1625504232341700002,1,0.2537,-1.2529,0.8057,64,-117.0654,-186.9507,55.6641,111,0.7534,0.6533,-4.6499,-60.7278,26,0.7924,8593,4.0414,166.8301
rg,1625504232700808595,1,0.5996,-0.6558,0.3582,65,38.3301,87.2192,69.0308,111,0.7424,0.5663,-1.8027,-59.1061,26,0.7924,26798,4.0414,165.1606
rg,1625504232700933465,1,-0.1338,-0.2146,0.3247,66,45.9595,129.9438,-44.7388,143,0.7454,0.5523,0.2421,-56.2575,26,0.7924,10833,4.0304,159.806
rg,1625504232700988891,1,-0.3997,-0.3176,0.3542,67,-1.9531,94.9097,-13.0005,143,0.7494,0.5613,3.3619,-56.0022,26,0.7934,7965,4.0304,156.3692
rg,1625504232701038780,1,-0.3809,-0.5581,0.4893,68,-40.7715,46.3257,4.7607,143,0.7554,0.5763,5.4451,-57.4752,26,0.7954,7583,4.0304,154.9234
rg,1625504232701085039,1,-0.2617,-1.2869,1.1594,69,-71.2891,-93.2617,-12.0239,143,0.7624,0.5913,3.2352,-59.7137,26,0.7984,7736,4.0304,157.9048
rg,1625504232701134002,1,0.1001,-1.1851,0.8721,70,-40.2222,-122.4976,-15.4419,143,0.7714,0.6143,0.6756,-59.8015,26,0.8044,7990,4.0304,161.3598
rg,1625504232701182891,1,0.2383,-0.9363,0.8777,71,13.3667,-13.0615,25.8789,143,0.7814,0.6493,0.8592,-58.7413,26,0.8094,9618,4.0304,162.3368
rg,1625504232701230909,1,0.1462,-0.9036,0.7854,72,14.8926,22.1558,27.4048,143,0.7954,0.6703,1.9438,-57.7564,26,0.8144,7672,4.0304,162.1584
rg,1625504232701276428,1,0.0029,-0.9827,0.7202,73,27.2827,29.9683,11.1694,143,0.8174,0.6953,2.8811,-56.528,26,0.8184,8399,4.0304,161.395
rg,1625504232701322280,1,-0.1011,-0.897,0.5098,74,59.082,15.9912,19.6533,143,0.8394,0.7153,3.9948,-54.314,26,0.8204,7857,4.0304,161.3069
rg,1625504232701461428,1,-0.1301,-0.7534,0.4114,75,65.4907,19.5312,24.6582,143,0.8494,0.7324,5.4315,-51.9669,26,0.8204,8093,4.0304,161.2557
rg,1625504232701520761,1,-0.25,-0.6404,0.5073,76,20.6299,13.4277,12.8174,143,0.8344,0.7474,6.6185,-51.1284,26,0.8174,8481,4.0304,161.1584
rg,1625504232701725891,1,-0.1484,-0.7271,0.7617,77,-82.7026,-88.2568,-1.2817,143,0.7964,0.7574,4.5016,-53.8533,26,0.8104,7733,4.0304,163.979
rg,1625504232701778409,1,-0.0791,-0.8599,0.7334,78,-98.1445,-110.9619,-1.8311,143,0.7674,0.7274,1.6909,-57.6732,26,0.8044,8282,4.0304,167.6156
rg,1625504232701822446,1,0.2124,-1.1624,0.6941,79,-89.5386,-116.9434,38.0859,143,0.7584,0.6423,0.2248,-61.2121,26,0.8064,7828,4.0304,-187.5732
rg,1625504232701869576,1,0.5103,-1.2014,0.7354,80,-9.3994,-66.1621,65.2466,143,0.7524,0.6143,0.4708,-61.4533,26,0.8074,8381,4.0304,-184.0036
rg,1625504232701917520,1,0.665,-1.1787,0.4985,81,27.2827,-19.6533,94.1162,143,0.7494,0.5973,2.2059,-60.5007,26,0.8054,7879,4.0304,-181.5133
rg,1625504232701960780,1,0.4846,-0.8606,0.3628,82,52.9785,119.0796,62.8052,143,0.7474,0.5783,5.6322,-58.804,26,0.8044,8283,4.0304,-184.4011
rg,1625504232702004372,1,-0.0249,-0.3035,0.2568,83,111.3892,152.8931,-34.79,143,0.7484,0.5723,7.7162,-54.6787,26,0.8034,8047,4.0304,169.72
rg,1625504232702053669,1,-0.1987,-0.0708,0.2769,84,113.9526,150.6348,-55.9082,143,0.7554,0.5823,11.2813,-50.0173,26,0.8034,7931,4.0304,163.7361
rg,1625504232702098576,1,-0.5806,-0.1731,0.3008,85,-25.8179,102.8442,-8.1787,143,0.7614,0.6013,15.3077,-51.4304,26,0.8054,13575,4.0304,160.3122
rg,1625504232702146502,1,-0.6406,-1.1714,1.1387,86,-165.8936,-66.6504,-14.7705,143,0.7684,0.6253,13.5342,-57.3543,26,0.8094,7968,4.0304,162.2458
rg,1625504232702190132,1,-0.4829,-1.7974,1.5889,87,-135.7422,-167.0532,-29.1138,143,0.7774,0.6543,8.72,-61.8169,26,0.8144,8616,4.0304,167.52
rg,1625504232702240187,1,0.2322,-1.3188,0.803,88,15.4419,-178.894,-5.3101,143,0.7914,0.6773,4.4305,-60.349,26,0.8194,8439,4.0304,-186.2676
rg,1625504232702287557,1,0.5249,-0.9421,0.9541,89,72.8149,-48.0347,52.9785,143,0.8164,0.6973,4.254,-56.6472,26,0.8224,8256,4.0304,-183.5075
rg,1625504232702337650,1,0.4165,-0.8372,0.3726,90,99.1211,27.5269,44.8608,143,0.8454,0.7174,5.2609,-53.0097,26,0.8234,10131,4.0304,-183.4417
rg,1625504232702382724,1,0.127,-0.7168,0.3384,91,81.9702,63.7207,5.5542,143,0.8674,0.7324,6.4456,-50.3769,26,0.8244,8635,4.0304,-185.3734
rg,1625504232702426372,1,-0.0625,-0.6387,0.4548,92,71.2891,90.7593,0.6714,143,0.8704,0.7484,9.2344,-48.8893,26,0.8234,8089,4.0304,-188.0811
rg,1625504232702673317,1,-0.3083,-0.4873,0.6758,93,-14.4043,51.0254,2.9907,143,0.8344,0.7634,11.0968,-49.2252,26,0.8144,8251,4.0304,170.5096
rg,1625504232702754113,1,-0.2949,-0.647,0.6118,94,-102.7832,-67.1997,-6.0425,143,0.7894,0.7734,9.5159,-52.8626,26,0.8074,8541,4.0304,-187.5034
rg,1625504232702807076,1,0.0959,-1.1782,0.7129,95,-118.1641,-136.6577,38.5132,143,0.7624,0.7023,7.1299,-57.0176,26,0.8024,8721,4.0304,-182.1108
rg,1625504232702859854,1,0.3276,-1.3386,0.7456,96,-106.2012,-151.1841,51.3916,143,0.7544,0.6233,4.742,-60.7002,26,0.8044,8323,4.0304,-175.8271
rg,1625504233057004391,1,0.3052,-0.6094,0.4038,97,70.6787,80.3223,36.8652,143,0.7464,0.5793,6.5888,-57.9105,26,0.8024,26124,4.0304,-177.8692
rg,1625504233057081539,1,-0.2141,-0.054,0.283,98,88.0737,109.2529,-44.6167,143,0.7524,0.5683,8.7485,-53.6559,26,0.8004,16780,4.0304,-182.3186
rg,1625504233057133854,1,-0.4954,-0.1343,0.3853,99,-12.3901,111.3892,-18.6157,143,0.7564,0.5813,12.3045,-54.0639,26,0.8014,7995,4.0304,-186.3008
rg,1625504233057184428,1,-0.6401,-0.9744,0.9678,100,-148.9868,-36.1938,-22.522,143,0.7634,0.5973,11.2706,-59.5259,26,0.8034,8024,4.0304,-185.5147
rg,1625504233057233076,1,-0.5381,-1.5557,1.4731,101,-153.8086,-129.3335,-34.3018,143,0.7714,0.6173,7.7865,-64.4931,26,0.8084,7615,4.0304,-181.4363
rg,1625504233057280242,1,0.1887,-1.3997,0.8286,102,-7.1411,-167.1143,-14.4043,143,0.7814,0.6453,3.8274,-63.9729,26,0.8134,8121,4.0304,-175.6097
rg,1625504233057372502,1,0.4758,-0.927,0.8735,103,52.6733,-59.5093,37.4756,143,0.7964,0.6713,3.1366,-61.0538,26,0.8184,8855,4.0304,-172.7863
rg,1625504233057424280,1,0.4758,-0.8103,0.7468,104,69.7632,-12.085,46.3257,143,0.8194,0.6923,3.4739,-57.6844,26,0.8234,8350,4.0304,-171.4335
rg,1625504233057497613,1,0.2456,-0.8025,0.4609,105,71.5942,27.0996,23.0713,143,0.8414,0.7093,4.1229,-54.9352,26,0.8244,8055,4.0304,-171.8524
rg,1625504233057545613,1,-0.0627,-0.7407,0.4944,106,54.8096,59.2041,12.4512,143,0.8494,0.7344,6.164,-53.872,26,0.8234,12866,4.0304,-173.4349
rg,1625504233057591668,1,-0.2542,-0.6753,0.7229,107,-30.1514,14.8926,12.0239,143,0.8124,0.7524,7.228,-54.6714,26,0.8164,9273,4.0304,-173.5962
rg,1625504233057640891,1,-0.1069,-0.8325,0.7087,108,-102.0508,-84.8999,-2.9907,143,0.7804,0.7524,5.2028,-58.2282,26,0.8104,8233,4.0304,-170.7836
rg,1625504233057687428,1,0.1604,-1.1243,0.6731,109,-91.1865,-96.4966,37.1704,143,0.7614,0.6753,4.0879,-61.5559,26,0.8054,8517,4.0304,-166.6765
rg,1625504233057733298,1,0.3577,-1.1892,0.7341,110,-75.5615,-97.9614,56.7627,143,0.7554,0.6243,3.4171,-63.802,26,0.8074,7924,4.0304,-162.0985
rg,1625504233057776817,1,0.5164,-1.217,0.6951,111,6.897,-7.5073,75.5615,143,0.7494,0.6063,5.0741,-63.2624,26,0.8034,8696,4.0304,-160.4847
rg,1625504233057822576,1,0.3499,-1,0.4712,112,38.8794,63.7817,50.354,143,0.7474,0.5903,7.1474,-61.899,26,0.8014,8442,4.0304,-161.8553
rg,1625504233057867946,1,-0.1021,-0.4495,0.2236,113,104.4312,105.7129,-32.4707,143,0.7474,0.5763,8.2807,-58.3656,26,0.7984,8253,4.0304,-166.207
rg,1625504233057913909,1,-0.2244,-0.1726,0.2034,114,115.4175,113.6475,-45.0439,143,0.7514,0.5763,10.4983,-53.9882,26,0.7964,7957,4.0304,-170.9154
rg,1625504233057959817,1,-0.4529,-0.0046,0.1626,115,80.5664,110.7178,-19.7754,143,0.7544,0.5943,14.5535,-51.0218,26,0.7954,8276,4.0304,-174.8343
rg,1625504233058004817,1,-0.5566,-0.2534,0.2573,116,-72.5098,21.7285,2.0142,143,0.7584,0.6123,16.6736,-53.9519,26,0.7964,8003,4.0304,-175.499
rg,1625504233058050002,1,-0.5913,-0.5654,0.5454,117,-155.0293,-53.6499,-1.0376,143,0.7654,0.6333,16.2603,-59.3503,26,0.8004,8271,4.0304,-173.6101
rg,1625504233058096076,1,-0.1091,-1.8684,1.593,118,-150.5127,-227.5391,-18.9819,143,0.7754,0.6573,10.7413,-63.1266,26,0.8044,8458,4.0304,-165.662
rg,1625504233058359854,1,0.4744,-1.3828,0.6624,119,32.2876,-150.1465,1.77,143,0.7914,0.6763,6.9508,-61.032,26,0.8094,8085,4.0304,-160.286
rg,1625504233058466205,1,0.5256,-1.0569,0.7769,120,74.4019,-57.0679,32.8369,143,0.8084,0.6953,5.7364,-57.3702,26,0.8144,8168,4.0304,-157.6306
rg,1625504233058518798,1,0.3518,-0.709,0.6064,121,102.9663,49.9268,36.377,143,0.8324,0.7123,7.0518,-53.0508,26,0.8154,8842,4.0304,-158.462
rg,1625504233058572094,1,0.042,-0.7021,0.4319,122,77.0264,50.7202,11.1694,143,0.8524,0.7274,8.2581,-50.3566,26,0.8124,8146,4.0304,-159.8283
rg,1625504233058622650,1,-0.2109,-0.6797,0.5112,123,47.3022,52.1851,11.7188,143,0.8614,0.7424,10.182,-48.7702,26,0.8154,8480,4.0304,-161.1439
rg,1625504233058693076,1,-0.3245,-0.6614,0.5952,124,16.2964,28.7476,10.8643,143,0.8394,0.7594,11.6791,-48.079,26,0.8104,8762,4.0304,-161.6987
rg,1625504233058740817,1,-0.2227,-0.6897,0.6782,125,-74.4629,-96.6187,4.5776,143,0.7994,0.7724,9.36,-50.3704,26,0.8054,8542,4.0304,-158.5737
rg,1625504233058792131,1,0.1028,-0.9487,0.7021,126,-93.689,-142.7002,24.353,143,0.7644,0.7244,6.0712,-53.5294,26,0.8024,8983,4.0304,-153.4367
rg,1625504233059044354,1,0.5122,-1.209,0.7556,127,-89.0503,-127.5024,65.7349,143,0.7524,0.6213,4.342,-56.7175,26,0.8034,10177,4.0304,-147.7231
rg,1625504233059133742,1,0.5593,-1.2571,0.6892,128,6.4697,6.5918,77.0264,143,0.7464,0.5943,6.0715,-56.4813,26,0.8034,8745,4.0304,-146.2658
rg,1625504233444354168,1,-0.1567,-0.1616,0.259,129,123.9624,89.8438,-61.9507,143,0.7444,0.5383,7.0092,-51.1785,26,0.7994,28147,4.0304,-150.5184
rg,1625504233444479113,1,-0.5212,0.0186,0.2036,130,33.2642,82.6416,-10.8643,143,0.7494,0.5633,10.8074,-49.5848,26,0.7984,15534,4.0304,-153.2581
rg,1625504233444530057,1,-0.5317,-0.3896,0.3386,131,-48.4619,16.7847,6.7139,143,0.7544,0.5753,10.6064,-54.632,26,0.8014,8141,4.0304,-151.3742
rg,1625504233444581946,1,-0.511,-0.7371,0.7495,132,-212.7686,-149.1699,-5.4321,143,0.7614,0.5963,7.9261,-61.945,26,0.8054,8099,4.0304,-146.3221
rg,1625504233444658168,1,0.3301,-1.9917,1.5427,133,-169.3726,-262.207,-17.8833,143,0.7714,0.6273,2.2608,-67.5007,26,0.8114,8025,4.0304,-137.0562
rg,1625504233444709242,1,0.5901,-1.5828,0.6792,134,32.5317,-117.1875,9.2163,143,0.7854,0.6523,-0.0527,-66.0553,26,0.8174,9542,4.0304,-132.6123
rg,1625504233444757224,1,0.4592,-0.915,0.8027,135,90.3931,43.0908,40.8936,143,0.8014,0.6663,1.3643,-61.8111,26,0.8214,7932,4.0304,-133.4808
rg,1625504233444803853,1,0.2764,-0.7981,0.6973,136,98.877,61.0962,24.0479,143,0.8264,0.6833,2.7928,-57.418,26,0.8254,7999,4.0304,-135.1218
rg,1625504233444852372,1,0.0872,-0.8088,0.4683,137,88.0127,58.2886,21.9116,143,0.8504,0.6983,4.4966,-54.0841,26,0.8234,7834,4.0304,-136.5782
rg,1625504233444907779,1,-0.1265,-0.7964,0.354,138,81.2378,64.1479,25.3296,143,0.8714,0.7123,7.2138,-51.6545,26,0.8244,8034,4.0304,-138.3011
rg,1625504233444951187,1,-0.2195,-0.7454,0.4062,139,69.5801,70.1904,25.2075,143,0.8844,0.7284,10.0528,-49.4741,26,0.8244,8249,4.0304,-139.8924
rg,1625504233445004650,1,-0.2764,-0.6211,0.6113,140,15.3198,-12.0239,14.5264,143,0.8744,0.7444,10.4742,-48.5612,26,0.8244,7906,4.0304,-139.104
rg,1625504233445062724,1,0.0139,-0.5835,0.6851,141,-91.98,-87.0361,16.4185,143,0.8224,0.7564,8.3095,-51.3805,26,0.8154,8330,4.0304,-135.8998
rg,1625504233445116557,1,0.0867,-0.7451,0.6953,142,-123.9624,-86.3647,14.1602,143,0.7804,0.7584,6.2127,-55.7393,26,0.8114,7866,4.0304,-132.7127
rg,1625504233445180705,1,0.3655,-1.2764,0.6721,143,-123.1689,-94.0552,52.6123,143,0.7554,0.6913,5.2327,-60.4572,26,0.8094,9670,4.0304,-128.3862
rg,1625504233445228020,1,0.7148,-1.3398,1.0176,144,-72.0825,-8.667,72.6929,143,0.7494,0.6133,6.5498,-62.8661,26,0.8134,10150,4.0304,-126.6531
rg,1625504233445276187,1,0.3779,-1.1968,0.4697,145,75.6226,74.0356,76.416,143,0.7454,0.5853,9.7452,-60.2204,26,0.8114,8114,4.0304,-127.8707
rg,1625504233445323483,1,0.2996,-0.9185,0.4805,146,86.792,65.2466,47.6685,143,0.7434,0.5583,10.339,-56.573,26,0.8104,7933,4.0304,-130.835
rg,1625504233445370779,1,-0.1025,-0.323,0.2944,147,119.812,103.1494,-62.9883,143,0.7434,0.5403,10.7868,-52.3304,26,0.8104,8058,4.0304,-135.6637
rg,1625504233445426390,1,-0.5952,-0.0376,0.1956,148,134.8877,137.7563,-81.7871,143,0.7454,0.5453,13.7968,-47.8244,26,0.8094,7926,4.0304,-141.9453
rg,1625504233445470631,1,-0.752,-0.0286,0.1118,149,109.314,105.5298,-46.0815,143,0.7504,0.5613,16.4687,-45.6743,26,0.8094,8145,4.0304,-142.631
rg,1625504233446151205,1,-0.5657,-0.1016,0.0422,150,-14.3433,-69.2749,17.5171,143,0.7564,0.5763,17.0653,-45.6637,26,0.8104,7975,4.0304,-140.0872
rg,1625504233446245150,1,-0.3198,-0.5137,0.5491,151,-208.1909,-218.0176,32.8979,143,0.7624,0.5973,12.5964,-51.9047,26,0.8164,8498,4.0304,-132.4069
rg,1625504233446301798,1,0.7935,-2.0474,1.9275,152,-198.6694,-289.7339,18.1885,143,0.7744,0.6413,5.5336,-58.0389,26,0.8214,12730,4.0304,-122.3235
rg,1625504233446349520,1,0.6455,-1.7864,0.4736,153,26.7944,-96.2524,4.0283,143,0.7864,0.6653,2.681,-57.3253,26,0.8264,9598,4.0304,-119.0404
rg,1625504233446470464,1,0.5562,-0.9272,0.8259,154,119.5679,88.8672,46.5698,143,0.8094,0.6803,5.2082,-52.3475,26,0.8304,8853,4.0304,-120.9172
rg,1625504233446520705,1,0.1448,-0.6343,0.5464,155,117.4316,117.2485,1.9531,143,0.8364,0.6983,7.663,-47.9332,26,0.8314,8257,4.0304,-124.5051
rg,1625504233446563501,1,-0.0471,-0.6372,0.498,156,98.2056,114.624,2.3804,143,0.8614,0.7153,11.0617,-44.9177,26,0.8314,8121,4.0304,-127.8532
rg,1625504233446614520,1,-0.321,-0.6807,0.4607,157,63.9038,126.5869,19.165,143,0.8714,0.7354,14.7484,-44.0754,26,0.8314,9218,4.0304,-130.1873
rg,1625504233446662835,1,-0.4612,-0.5835,0.603,158,-4.7607,24.0479,4.4556,143,0.8444,0.7464,16.1047,-44.4046,26,0.8264,8546,4.0304,-130.7506
rg,1625504233446706983,1,-0.2483,-0.6079,0.6411,159,-118.042,-101.1963,-6.6528,143,0.7904,0.7604,13.1207,-48.3477,26,0.8174,8325,4.0304,-127.8936
rg,1625504233446754353,1,0.0886,-1.0637,0.6699,160,-153.4424,-162.3535,16.3574,143,0.7594,0.7204,8.9166,-53.7704,26,0.8104,8604,4.0304,-122.3885
rg,1625504233781046501,1,0.7241,-1.1765,0.3806,161,67.5049,16.1133,92.7124,143,0.7414,0.5713,10.8232,-51.3877,26,0.8114,28399,4.0304,-120.7603
rg,1625504233781083168,1,0.2422,-0.5317,0.3013,162,114.1968,111.8774,4.3335,143,0.7394,0.5413,12.6224,-47.8542,26,0.8084,12885,4.0304,-124.236
rg,1625504233781102724,1,-0.1377,0.012,0.2644,163,126.709,148.3154,-42.2974,143,0.7424,0.5443,16.2955,-42.583,26,0.8074,9345,4.0304,-129.4177
rg,1625504233781121779,1,-0.4219,-0.0159,0.1929,164,46.814,147.4609,-8.1787,143,0.7454,0.5573,22.1901,-41.5501,26,0.8064,8010,4.0304,-133.6679
rg,1625504233781140020,1,-0.6521,-0.4949,0.4595,165,-34.6069,106.7505,11.9629,143,0.7504,0.5713,24.4648,-46.9264,26,0.8084,8107,4.0304,-134.6434
rg,1625504233781158131,1,-0.7078,-0.9084,0.9666,166,-188.2324,-55.2368,1.0986,143,0.7574,0.5873,23.2416,-53.5171,26,0.8124,7976,4.0304,-132.6992
rg,1625504233781175686,1,-0.1189,-1.8494,1.1189,167,-104.248,-205.8105,-19.8364,143,0.7644,0.6183,17.088,-55.5924,26,0.8174,7728,4.0304,-126.1165
rg,1625504233781193575,1,0.177,-1.5559,0.6516,168,-7.9346,-186.2183,-11.6577,143,0.7754,0.6413,13.4284,-52.8743,26,0.8224,8224,4.0304,-121.4697
rg,1625504233781232279,1,0.4739,-0.9768,0.8181,169,59.1431,-64.3311,35.2783,143,0.7874,0.6583,11.6666,-49.7599,26,0.8254,8831,4.0304,-118.5192
rg,1625504233781250946,1,0.2739,-0.7979,0.6365,170,61.8896,17.0898,10.3149,143,0.8104,0.6753,11.4034,-47.3979,26,0.8284,8076,4.0304,-118.801
rg,1625504233781268224,1,0.0837,-0.9719,0.6174,171,60.73,30.2734,7.6904,143,0.8374,0.6953,11.8519,-45.5117,26,0.8304,8614,4.0304,-119.5743
rg,1625504233781284835,1,-0.0334,-0.9392,0.4763,172,72.0825,41.8701,17.395,143,0.8564,0.7103,13.1523,-43.4806,26,0.8314,7709,4.0304,-120.4236
rg,1625504233781301372,1,-0.2207,-0.6067,0.594,173,75.1343,48.7061,23.1323,143,0.8644,0.7304,14.0921,-41.6116,26,0.8294,7954,4.0304,-120.3436
rg,1625504233781317705,1,-0.1279,-0.4453,0.6604,174,-4.8828,-34.1797,7.2021,143,0.8294,0.7434,11.3429,-43.5707,26,0.8204,8618,4.0304,-118.2959
rg,1625504233781336557,1,0.0337,-0.6072,0.6536,175,-109.0698,-85.3271,-7.9956,143,0.7884,0.7524,8.2092,-47.4986,26,0.8124,8299,4.0304,-116.0226
rg,1625504233781354427,1,0.1926,-1.0779,0.6558,176,-118.4082,-80.0171,24.5361,143,0.7664,0.7324,6.2551,-52.2546,26,0.8064,7819,4.0304,-112.9543
rg,1625504233781371279,1,0.541,-1.301,0.8369,177,-94.2383,-84.7778,43.335,143,0.7594,0.6493,5.4729,-54.8968,26,0.8104,8394,4.0304,-109.9339
rg,1625504233781387853,1,0.4856,-1.3047,0.9075,178,-12.146,5.4932,49.1333,143,0.7524,0.6153,6.3392,-55.2828,26,0.8124,8021,4.0304,-108.9885
rg,1625504233781404353,1,0.3127,-1.1599,0.5137,179,63.7817,46.4478,53.7109,143,0.7484,0.5903,8.3785,-53.1774,26,0.8124,8239,4.0304,-109.3119
rg,1625504233781421464,1,-0.0574,-0.6577,0.3511,180,109.314,82.7026,-18.0054,85,0.7484,0.5743,9.711,-49.6358,26,0.8114,9073,4.0568,-112.441
rg,1625504233781438798,1,-0.3342,-0.1133,0.1594,181,133.4229,99.2432,-39.2456,85,0.7504,0.5713,13.2333,-44.414,26,0.8104,8100,4.0568,-116.7034
rg,1625504233781455279,1,-0.4329,0,0.1255,182,141.1743,97.3511,-26.4893,85,0.7554,0.5843,17.4171,-39.2256,26,0.8104,7945,4.0568,-120.006
rg,1625504233781472001,1,-0.4351,0.0098,0.0972,183,29.0527,1.9531,1.77,85,0.7604,0.6033,19.5246,-37.6775,26,0.8104,8140,4.0568,-119.8532
rg,1625504233781489020,1,-0.457,-0.436,0.5408,184,-175.5981,-114.6851,2.7466,85,0.7674,0.6343,16.6805,-43.714,26,0.8134,8385,4.0568,-116.6568
rg,1625504233781506168,1,-0.3801,-1.0256,1.4487,185,-237.3657,-191.3452,6.2866,85,0.7774,0.6613,11.5816,-51.3695,26,0.8184,8220,4.0568,-110.5642
rg,1625504233781522835,1,0.551,-2.033,1.0132,186,-100.708,-217.041,-1.8921,85,0.7914,0.6803,5.388,-54.8081,26,0.8244,8436,4.0568,-103.6673
rg,1625504233781539761,1,0.6721,-1.4556,0.7698,187,107.8491,-53.772,34.2407,85,0.8134,0.6973,4.13,-50.5447,26,0.8294,8683,4.0568,-101.1856
rg,1625504233781556631,1,0.4875,-0.7866,0.5635,188,169.0063,74.585,45.105,85,0.8444,0.7133,6.2984,-44.0287,26,0.8294,8868,4.0568,-102.2434
rg,1625504233781573446,1,0.2566,-0.5925,0.3796,189,158.7524,90.4541,27.9541,85,0.8674,0.7244,8.7406,-38.3958,26,0.8304,8653,4.0568,-103.9107
rg,1625504233781674612,1,-0.1072,-0.428,0.3923,190,91.4307,116.8213,17.6392,85,0.8764,0.7374,12.9471,-35.5289,26,0.8284,8519,4.0568,-106.2553
rg,1625504233781697316,1,-0.4253,-0.417,0.709,191,-18.6768,75.5005,14.6484,85,0.8554,0.7534,16.285,-36.4213,26,0.8244,8702,4.0568,-107.5642
rg,1625504233781739020,1,-0.3093,-0.6394,0.5771,192,-138.3667,-95.459,-0.3052,85,0.8004,0.7624,13.4732,-41.733,26,0.8154,8545,4.0568,-105.2092
rg,1625504234144255297,1,0.7861,-1.439,1.0708,193,-120.7886,-132.6294,77.8198,85,0.7444,0.6033,13.516,-42.8495,26,0.8114,26162,4.0568,-101.6704
rg,1625504234144351612,1,0.707,-1.2849,0.4614,194,68.6646,41.8091,89.4165,85,0.7384,0.5533,15.8227,-40.6464,26,0.8074,15228,4.0568,-100.322
rg,1625504234144372223,1,0.1475,-0.6572,0.3633,195,127.2583,115.4785,-31.4941,85,0.7374,0.5243,17.6065,-37.5512,26,0.8054,9034,4.0568,-104.6376
rg,1625504234144392297,1,-0.2764,-0.0793,0.2603,196,157.4707,143.6768,-87.4634,85,0.7384,0.5183,21.3378,-32.847,26,0.8034,7744,4.0568,-110.9388
rg,1625504234144410705,1,-0.5828,0.0637,0.1707,197,112.5488,145.6299,-36.1938,85,0.7414,0.5323,27.3895,-29.6655,26,0.8024,9828,4.0568,-115.3346
rg,1625504234144429464,1,-0.6028,0.0457,0.0879,198,45.9595,104.5532,0.7324,85,0.7464,0.5463,30.7513,-31.5945,26,0.8044,7763,4.0568,-115.7718
rg,1625504234144447575,1,-0.5852,-0.314,0.259,199,-136.4136,-39.3066,7.6904,85,0.7514,0.5623,30.5872,-36.859,26,0.8074,7715,4.0568,-114.7431
rg,1625504234144465520,1,-0.4895,-1.1091,1.3689,200,-257.6904,-197.998,2.1362,85,0.7594,0.5873,24.1196,-44.4943,26,0.8124,8614,4.0568,-108.8728
rg,1625504234144483520,1,0.3679,-1.9426,0.7554,201,-93.811,-239.563,5.249,85,0.7704,0.6213,16.4051,-46.6116,26,0.8174,8534,4.0568,-101.8129
rg,1625504234144502427,1,0.5745,-1.7358,0.562,202,-15.625,-176.2695,4.6997,85,0.7834,0.6383,10.5328,-46.9109,26,0.8224,8122,4.0568,-96.666
rg,1625504234144537612,1,0.5991,-1.0391,0.833,203,91.5527,-25.0854,20.3247,85,0.7994,0.6543,9.1098,-43.1917,26,0.8254,8300,4.0568,-95.4364
rg,1625504234144668538,1,0.3484,-0.7339,0.5447,204,105.7739,41.3818,9.8267,85,0.8294,0.6713,9.4784,-39.482,26,0.8264,8244,4.0568,-96.3474
rg,1625504234144699075,1,0.2974,-0.7761,0.4895,205,93.8721,47.1191,8.4839,85,0.8604,0.6913,10.1388,-36.5757,26,0.8254,7922,4.0568,-97.3992
rg,1625504234144724594,1,0.0447,-0.8464,0.395,206,77.3315,75.5005,5.3711,85,0.8844,0.7043,12.2454,-34.8995,26,0.8244,7819,4.0568,-99.2261
rg,1625504234144742964,1,-0.2991,-0.689,0.4165,207,84.4116,107.9712,5.5542,85,0.9054,0.7163,16.2916,-32.9802,26,0.8224,8379,4.0568,-101.7115
rg,1625504234145037594,1,-0.4661,-0.6123,0.5073,208,76.2939,85.022,7.3242,85,0.9054,0.7354,19.8901,-31.0501,26,0.8214,7848,4.0568,-103.5128
rg,1625504234145058168,1,-0.4705,-0.334,0.5564,209,-18.1885,-48.9502,18.5547,85,0.8504,0.7524,19.2269,-31.1795,26,0.8154,8418,4.0568,-101.7577
rg,1625504234145077723,1,-0.0078,-0.6406,0.8428,210,-163.6963,-193.7866,27.6489,85,0.7934,0.7574,12.7191,-36.4441,26,0.8084,7910,4.0568,-96.3703
rg,1625504234145096686,1,0.2493,-0.9832,0.9604,211,-180.8472,-218.5669,28.5034,85,0.7584,0.7384,5.8891,-42.943,26,0.8074,8123,4.0568,-89.8723
rg,1625504234145116001,1,0.7842,-1.4031,0.5718,212,-120.8496,-181.3354,68.7256,85,0.7484,0.6273,1.5732,-48.1322,26,0.8084,7948,4.0568,-82.8041
rg,1625504234145133890,1,0.8127,-1.3457,0.6501,213,-2.0752,46.7529,80.6885,85,0.7424,0.5763,4.0807,-48.7139,26,0.8104,8529,4.0568,-82.0813
rg,1625504234145151649,1,0.7412,-1.238,0.5139,214,49.1333,90.9424,97.5952,85,0.7394,0.5543,8.6269,-47.1745,26,0.8084,8412,4.0568,-83.3762
rg,1625504234145169149,1,0.3972,-0.9077,0.46,215,69.3359,153.8696,36.7432,85,0.7384,0.5313,12.7833,-45.6451,26,0.8064,8566,4.0568,-86.9976
rg,1625504234145187779,1,-0.177,-0.4456,0.3218,216,113.0981,172.2412,-57.6782,85,0.7384,0.5343,16.2679,-43.1333,26,0.8034,8047,4.0568,-93.7406
rg,1625504234145467408,1,-0.6421,-0.1531,0.2686,217,123.7183,188.1714,-43.396,85,0.7394,0.5433,22.3905,-40.1489,26,0.8064,11123,4.0568,-100.2855
rg,1625504234145497742,1,-0.6587,-0.146,0.1658,218,36.8042,77.0874,25.8789,85,0.7464,0.5563,27.1123,-39.2172,26,0.8074,8093,4.0568,-101.5695
rg,1625504234145712520,1,-0.6069,-0.2639,0.2559,219,-37.5366,-5.3101,29.2969,85,0.7524,0.5753,25.6197,-42.7374,26,0.8104,8288,4.0568,-98.5172
rg,1625504234145742316,1,-0.5098,-0.8562,1.0242,220,-180.7251,-157.1045,19.4702,85,0.7604,0.6133,20.921,-47.7526,26,0.8164,9208,4.0568,-93.0166
rg,1625504234145883057,1,0.3716,-1.9443,1.3503,221,-110.3516,-232.1167,8.3618,85,0.7694,0.6333,14.0015,-50.1727,26,0.8224,8378,4.0568,-85.5401
rg,1625504234145908408,1,0.5356,-1.4775,0.6672,222,65.0635,-99.2432,32.4097,85,0.7804,0.6503,11.1782,-47.2951,26,0.8264,8599,4.0568,-81.7803
rg,1625504234145928890,1,0.4287,-0.8455,0.7141,223,117.3096,45.7764,42.6636,85,0.8044,0.6623,12.4554,-42.7308,26,0.8304,8798,4.0568,-81.9463
rg,1625504234145950705,1,0.2881,-0.7441,0.6326,224,119.9951,62.3169,15.0757,85,0.8344,0.6763,13.8897,-38.6031,26,0.8314,8259,4.0568,-83.2643
rg,1625504234498423279,1,-0.582,-0.6477,0.5149,225,82.8857,99.7925,8.9722,85,0.8874,0.7224,18.087,-36.3292,26,0.8314,26415,4.0568,-85.5828
rg,1625504234498458834,1,-0.3074,-0.2065,0.5063,226,-77.2705,-140.7471,11.7188,85,0.8054,0.7454,14.3616,-37.8037,26,0.8194,13366,4.0568,-81.4984
rg,1625504234498479593,1,0.207,-0.6567,0.8799,227,-199.0356,-253.418,16.8457,85,0.7674,0.7464,6.2791,-44.3859,26,0.8154,8028,4.0568,-74.1717
rg,1625504234498498464,1,1.0415,-1.5361,0.7168,228,-165.8325,-228.1494,70.6177,85,0.7564,0.6913,0.8978,-51.1209,26,0.8174,7506,4.0568,-65.53
rg,1625504234498516260,1,1.2734,-1.5977,0.8474,229,-100.0366,-120.4224,70.6177,85,0.7504,0.6253,-1.0369,-55.4479,26,0.8224,8519,4.0568,-59.9453
rg,1625504234498533575,1,0.8628,-1.3728,0.4729,230,51.6357,106.6895,78.3691,85,0.7464,0.5963,2.8399,-53.924,26,0.8224,7622,4.0568,-61.6371
rg,1625504234498564186,1,0.3206,-0.6997,0.5071,231,98.3887,228.5156,26.6724,85,0.7434,0.5743,8.3353,-50.6456,26,0.8224,8247,4.0568,-68.273
rg,1625504234498583371,1,0.0374,-0.4009,0.3696,232,115.2954,241.4551,-12.3291,85,0.7434,0.5683,15.0479,-46.9869,26,0.8214,8285,4.0568,-75.8917
rg,1625504234498601649,1,-0.4771,-0.1333,0.2815,233,114.7461,271.6064,-56.2744,85,0.7474,0.5813,22.4475,-45.1017,26,0.8214,8557,4.0568,-85.6102
rg,1625504234498619223,1,-0.9438,-0.2134,0.1775,234,55.542,202.7588,-13.3057,85,0.7524,0.6063,29.4652,-45.9404,26,0.8224,10981,4.0568,-92.494
rg,1625504234498641427,1,-1.0474,-0.4888,0.4084,235,-85.022,-5.5542,0.7324,85,0.7584,0.6353,30.4328,-49.3241,26,0.8244,8203,4.0568,-92.3614
rg,1625504234498659649,1,-0.75,-1.0725,1.1316,236,-186.0352,-209.1064,20.5078,85,0.7664,0.6563,25.6835,-52.7577,26,0.8294,7761,4.0568,-84.2826
rg,1625504234498677649,1,-0.1782,-1.6172,1.3044,237,-159.3628,-289.5508,25.5127,85,0.7754,0.6723,18.932,-54.95,26,0.8334,8120,4.0568,-73.5094
rg,1625504234498695445,1,0.4561,-1.6106,0.8086,238,-1.8921,-264.5264,-3.1738,85,0.7864,0.6853,11.4208,-53.0409,26,0.8364,8341,4.0568,-64.8627
rg,1625504234498713408,1,0.635,-1.0608,0.6138,239,104.3091,-83.252,46.1426,85,0.8094,0.6953,9.3326,-48.4269,26,0.8404,8521,4.0568,-61.1651
rg,1625504234498731760,1,0.6123,-0.8696,0.5701,240,119.873,-21.7285,39.3677,85,0.8404,0.7083,8.882,-44.0106,26,0.8414,8419,4.0568,-61.1539
rg,1625504234498749038,1,0.1113,-0.6953,0.2981,241,101.0132,58.8379,3.9673,85,0.8764,0.7224,10.0687,-41.1023,26,0.8394,11384,4.0568,-62.8067
rg,1625504234498766519,1,-0.0503,-0.6519,0.3367,242,90.9424,93.8721,8.3618,85,0.8884,0.7344,13.369,-38.3255,26,0.8394,8349,4.0568,-65.0654
rg,1625504234498784075,1,-0.3525,-0.5305,0.5933,243,38.3911,74.2798,16.4185,85,0.8784,0.7474,16.5177,-37.2615,26,0.8384,7846,4.0568,-66.4419
rg,1625504234498801260,1,-0.3289,-0.4043,0.5752,244,-76.8433,-54.1382,6.0425,85,0.8134,0.7624,15.3176,-39.7993,26,0.8314,9851,4.0568,-64.8206
rg,1625504234498819408,1,-0.0117,-0.7266,0.6609,245,-153.1372,-157.2876,11.0474,85,0.7714,0.7664,10.4401,-45.1668,26,0.8254,8243,4.0568,-60.1866
rg,1625504234498836056,1,0.6887,-1.3713,0.949,246,-160.0342,-177.124,34.3628,85,0.7574,0.6943,6.6506,-50.2887,26,0.8274,8874,4.0568,-53.8308
rg,1625504234498853705,1,0.8872,-1.4424,1.103,247,-96.7407,-68.3594,62.8662,85,0.7484,0.6143,5.7336,-53.8082,26,0.8284,8509,4.0568,-50.0841
rg,1625504234498870945,1,0.7063,-1.3809,0.53,248,19.2871,66.2231,83.4961,85,0.7434,0.5813,8.8069,-53.5901,26,0.8264,8582,4.0568,-50.3136
rg,1625504234498887964,1,0.3093,-0.7769,0.3333,249,104.0039,149.5361,16.1743,85,0.7404,0.5553,11.8702,-50.7193,26,0.8244,8020,4.0568,-54.8229
rg,1625504234498905723,1,0.1313,-0.3906,0.218,250,137.6953,159.3018,-28.0762,85,0.7424,0.5463,14.1272,-46.8993,26,0.8234,8275,4.0568,-60.6204
rg,1625504234498922982,1,-0.3401,-0.0002,0.2908,251,128.1128,237.854,-91.1255,85,0.7454,0.5563,19.6218,-43.4857,26,0.8224,8423,4.0568,-70.0017
rg,1625504234498940816,1,-0.9373,-0.1541,0.2947,252,18.6768,218.9941,-40.7104,85,0.7514,0.5693,26.4427,-45.626,26,0.8234,8226,4.0568,-77.8889
rg,1625504234498972964,1,-1.21,-0.7083,0.5845,253,-131.8359,3.8452,-15.0757,85,0.7584,0.5913,27.0869,-51.2771,26,0.8274,9056,4.0568,-78.5722
rg,1625504234498993186,1,-0.6765,-1.5098,1.2136,254,-171.0205,-236.145,11.1084,85,0.7664,0.6253,21.4944,-54.5686,26,0.8314,10409,4.0568,-70.0088
rg,1625504234499010056,1,-0.1946,-1.6614,1.0879,255,-104.187,-315.979,0.061,85,0.7754,0.6473,13.6974,-55.5241,26,0.8344,8180,4.0568,-59.2026
rg,1625504234499027612,1,0.4746,-1.2556,0.8345,256,25.9399,-276.7334,15.3198,85,0.7924,0.6623,6.5877,-52.8378,26,0.8394,8706,4.0568,-49.7797
rg,1625504234855287371,1,0.3501,-0.8665,0.3445,257,83.9844,72.6318,0.7935,85,0.8784,0.7033,7.377,-50.3124,26,0.8414,26102,4.0568,-52.1468
rg,1625504234855326056,1,-0.3696,-0.6638,0.5627,258,80.9937,148.4375,10.1318,85,0.9044,0.7244,12.1552,-47.7719,26,0.8404,14959,4.0568,-56.4115
rg,1625504234855346834,1,-0.5859,-0.4473,0.5518,259,31.1279,16.6016,2.5635,85,0.8934,0.7334,13.7244,-46.338,26,0.8374,7961,4.0568,-56.7637
rg,1625504234855392630,1,-0.4543,-0.3276,0.5586,260,-33.3252,-56.9458,10.6812,85,0.8364,0.7464,13.3151,-46.6645,26,0.8284,8121,4.0568,-54.6309
rg,1625504234855413593,1,-0.0928,-0.6765,0.6997,261,-152.1606,-184.021,11.8408,85,0.7794,0.7524,8.5804,-51.4841,26,0.8204,9649,4.0568,-48.6167
rg,1625504234855431556,1,0.5469,-1.2891,0.7874,262,-151.3062,-233.0933,46.6309,85,0.7504,0.6693,3.364,-57.1406,26,0.8154,7796,4.0568,-39.9537
rg,1625504234855449723,1,1.0779,-1.4731,0.8923,263,-80.3833,-73.6694,79.3457,85,0.7444,0.5883,3.231,-60.1364,26,0.8204,8419,4.0568,-35.7568
rg,1625504234855467260,1,0.6465,-1.3735,0.5061,264,71.8994,108.1543,69.458,85,0.7404,0.5553,6.7872,-57.805,26,0.8184,8649,4.0568,-38.0953
rg,1625504234855484519,1,0.2517,-0.7668,0.3547,265,125.5493,132.0801,-2.7466,85,0.7384,0.5313,8.7478,-53.6747,26,0.8174,7700,4.0568,-42.6339
rg,1625504234855502427,1,0,-0.4646,0.1973,266,149.5972,153.2593,-51.1475,85,0.7384,0.5173,10.6065,-49.2679,26,0.8174,7848,4.0568,-48.878
rg,1625504234855519501,1,-0.3013,-0.0125,0.2139,267,166.9922,167.1143,-82.4585,85,0.7404,0.5233,14.4532,-43.2051,26,0.8154,8130,4.0568,-55.8649
rg,1625504234855536723,1,-0.6921,0.0544,0.1528,268,91.4307,185.3027,-36.6821,85,0.7464,0.5363,21.0066,-40.9924,26,0.8164,8133,4.0568,-62.0488
rg,1625504234855553964,1,-0.7986,-0.0347,0.1807,269,7.6904,133.4229,-5.188,85,0.7514,0.5583,24.1525,-44.754,26,0.8184,8162,4.0568,-63.4386
rg,1625504234855571019,1,-0.8347,-0.8608,1.0127,270,-219.9097,-150.1465,11.5967,85,0.7594,0.5963,20.8406,-51.3839,26,0.8244,11779,4.0568,-58.2222
rg,1625504234855590038,1,-0.5442,-1.3665,1.4465,271,-214.7827,-241.333,21.6064,85,0.7664,0.6213,15.2236,-57.3102,26,0.8304,7850,4.0568,-49.4675
rg,1625504234855607130,1,0.3147,-1.7607,0.8413,272,-53.2227,-266.0522,32.0435,85,0.7734,0.6373,9.6829,-57.5667,26,0.8354,7897,4.0568,-39.6706
rg,1625504234855624371,1,0.6838,-1.2197,0.7964,273,61.8896,-150.7568,21.3013,85,0.7894,0.6503,5.7378,-54.3106,26,0.8414,8412,4.0568,-34.1834
rg,1625504234855641278,1,0.6531,-0.9336,0.7493,274,98.3887,-73.2422,13.6108,85,0.8134,0.6643,4.4214,-50.0124,26,0.8444,8287,4.0568,-33.3713
rg,1625504234855657871,1,0.5103,-0.7617,0.5315,275,86.0596,27.4658,7.019,85,0.8454,0.6803,4.113,-46.7959,26,0.8444,8072,4.0568,-34.0619
rg,1625504234855674741,1,0.1506,-0.8501,0.5261,276,51.6968,90.0879,-6.5918,85,0.8724,0.6923,5.9112,-45.4142,26,0.8434,7924,4.0568,-36.8954
rg,1625504234855691556,1,-0.0442,-0.877,0.554,277,52.002,111.3281,-5.3711,85,0.8904,0.7043,9.1885,-44.035,26,0.8434,8145,4.0568,-40.1624
rg,1625504234855708315,1,-0.356,-0.7644,0.5371,278,59.082,82.1533,0.9766,85,0.8994,0.7174,12.0567,-42.4904,26,0.8434,7962,4.0568,-42.486
rg,1625504234855725501,1,-0.3589,-0.4485,0.5791,279,20.5078,-13.3667,17.8833,85,0.8704,0.7294,12.6866,-41.2933,26,0.8384,8486,4.0568,-41.5299
rg,1625504234855743001,1,-0.1035,-0.4836,0.7874,280,-121.3989,-105.6519,22.583,85,0.8044,0.7394,9.9995,-45.0211,26,0.8284,8391,4.0568,-37.8121
rg,1625504234855759501,1,0.0464,-0.7341,0.7441,281,-165.5273,-150.2686,19.6533,85,0.7654,0.7414,6.0965,-50.8899,26,0.8214,8196,4.0568,-32.7486
rg,1625504234855776297,1,0.5422,-1.3523,0.7236,282,-141.6626,-177.124,54.4434,85,0.7534,0.6743,2.7053,-56.398,26,0.8224,8053,4.0568,-25.7438
rg,1625504234855792982,1,0.7629,-1.5605,0.8345,283,-23.7427,0.7935,78.8574,85,0.7474,0.6053,4.3645,-57.4202,26,0.8264,8696,4.0568,-24.0554
rg,1625504234855809186,1,0.7104,-1.5522,0.5693,284,40.9546,52.002,94.0552,85,0.7444,0.5733,8.0065,-54.8484,26,0.8254,8497,4.0568,-24.602
rg,1625504234855840612,1,0.4158,-1.136,0.4766,285,110.5347,112.915,50.8423,85,0.7414,0.5553,11.3112,-51.3072,26,0.8244,8317,4.0568,-27.1337
rg,1625504234855858964,1,-0.0066,-0.4092,0.1624,286,182.373,123.9014,-32.3486,85,0.7434,0.5463,13.2154,-45.7075,26,0.8254,8580,4.0568,-31.9585
rg,1625504234855886334,1,-0.314,0.0701,0.1841,287,186.2793,163.3301,-59.4482,85,0.7444,0.5543,18.1545,-38.8402,26,0.8234,8776,4.0568,-37.9528
rg,1625504234855903260,1,-0.5947,0.1189,0.0242,288,159.9731,187.6221,-37.0483,85,0.7504,0.5743,25.8157,-36.1716,26,0.8244,8985,4.0568,-42.3063
rg,1625504235222456112,1,-0.8564,-0.9832,1.3879,289,-280.8838,-154.2969,2.3193,85,0.7754,0.6503,17.7569,-43.5188,26,0.8364,27209,4.0568,-35.0366
rg,1625504235222534926,1,0.2637,-1.8711,0.7019,290,-32.2876,-251.5259,38.4521,85,0.7894,0.6653,10.6743,-43.7584,26,0.8434,8824,4.0568,-27.0486
rg,1625504235222564815,1,0.6775,-1.321,0.8799,291,94.3604,-128.1738,37.7197,85,0.8094,0.6763,6.6234,-39.7521,26,0.8444,7556,4.0568,-22.5884
rg,1625504235222593167,1,0.6709,-1.0461,0.8047,292,140.8081,-67.9932,22.7661,86,0.8414,0.6913,4.9171,-34.3161,26,0.8444,8113,4.059,-21.7823
rg,1625504235222620075,1,0.3943,-0.6384,0.2683,293,130.3101,23.4375,0.5493,86,0.8694,0.7063,4.4625,-30.2313,26,0.8444,8304,4.059,-22.407
rg,1625504235222646612,1,0.0051,-0.4939,0.3499,294,71.4111,108.5815,-12.207,86,0.8834,0.7174,7.8086,-28.5957,26,0.8454,9574,4.059,-25.0607
rg,1625504235222672334,1,-0.3789,-0.4841,0.7346,295,-8.4229,87.9517,-7.1411,86,0.8684,0.7294,11.3364,-29.4315,26,0.8434,8175,4.059,-27.0751
rg,1625504235222699371,1,-0.4443,-0.4919,0.6541,296,-60.3638,28.3813,-8.2397,86,0.8164,0.7414,12.8057,-32.2867,26,0.8334,7742,4.059,-28.0288
rg,1625504235222726519,1,-0.3586,-0.6621,0.5015,297,-142.334,-96.2524,-12.0239,86,0.7764,0.7474,9.8397,-38.3354,26,0.8254,7962,4.059,-26.3439
rg,1625504235222753556,1,0.2773,-1.1262,0.8411,298,-144.2871,-192.9932,41.5039,86,0.7564,0.6953,4.3504,-43.8705,26,0.8234,8169,4.059,-20.042
rg,1625504235222780315,1,0.6709,-1.333,0.9961,299,-123.5962,-171.0815,65.7349,86,0.7514,0.6143,0.5541,-48.8395,26,0.8284,8053,4.059,-13.2651
rg,1625504235222805630,1,0.6206,-1.4534,0.4651,300,16.6626,11.1084,61.8896,86,0.7454,0.5783,1.8343,-48.9676,26,0.8284,8246,4.059,-11.9871
rg,1625504235222831037,1,0.3923,-1.0842,0.5762,301,74.0967,81.9092,36.6211,86,0.7424,0.5513,4.3482,-46.5677,26,0.8294,8504,4.059,-13.4714
rg,1625504235222856778,1,-0.052,-0.5122,0.2971,302,101.8677,106.6895,0.6104,86,0.7414,0.5343,6.8452,-42.4529,26,0.8274,8703,4.059,-17.5612
rg,1625504235222882334,1,-0.1641,-0.2375,0.2009,303,142.7612,113.8306,-40.6494,86,0.7444,0.5343,10.0762,-37.6277,26,0.8264,8099,4.059,-21.7719
rg,1625504235222912389,1,-0.3916,0.001,0.1953,304,118.042,121.521,-23.0713,86,0.7474,0.5493,15.3314,-33.068,26,0.8254,8157,4.059,-25.232
rg,1625504235222940537,1,-0.5161,-0.0964,0.2632,305,-20.6299,67.0166,13.6719,86,0.7524,0.5683,19.495,-33.9533,26,0.8284,8314,4.059,-26.2512
rg,1625504235222968278,1,-0.5652,-0.3333,0.4468,306,-111.4502,-1.9531,13.855,86,0.7614,0.5993,20.742,-38.3025,26,0.8314,8179,4.059,-25.7894
rg,1625504235222994093,1,-0.3872,-1.2708,1.5564,307,-216.7358,-175.415,15.5029,86,0.7704,0.6273,15.5838,-45.2821,26,0.8374,9237,4.059,-20.3782
rg,1625504235223021852,1,0.3508,-1.8762,0.8484,308,-58.96,-182.0068,37.0483,86,0.7944,0.6553,11.9876,-44.1209,26,0.8454,9859,4.059,-15.3463
rg,1625504235223047482,1,0.5542,-0.9985,0.7898,309,123.291,1.6479,29.7852,86,0.8234,0.6693,11.5158,-39.3106,26,0.8474,8967,4.059,-14.6015
rg,1625504235223074463,1,0.302,-0.6685,0.448,310,133.9111,37.2925,29.541,86,0.8534,0.6853,12.8253,-35.3707,26,0.8464,7931,4.059,-15.4776
rg,1625504235223107575,1,0.1426,-0.6182,0.4219,311,92.1631,83.4351,14.4043,86,0.8754,0.6983,15.021,-32.8354,26,0.8454,8220,4.059,-17.1181
rg,1625504235223139297,1,-0.3118,-0.6135,0.6243,312,41.0156,112.6099,0.6104,86,0.8824,0.7083,18.9975,-32.3798,26,0.8464,7934,4.059,-19.7563
rg,1625504235223226241,1,-0.572,-0.4954,0.5596,313,9.0332,80.9326,-6.897,86,0.8564,0.7174,20.0546,-34.3703,26,0.8434,8202,4.059,-20.5175
rg,1625504235223562556,1,-0.5281,-0.4778,0.49,314,-98.1445,-56.0303,-8.4839,86,0.8024,0.7264,18.7442,-38.239,26,0.8314,8510,4.059,-19.5304
rg,1625504235223594852,1,-0.2329,-0.7644,0.5393,315,-165.5273,-191.5894,1.709,86,0.7694,0.7264,12.8955,-44.04,26,0.8224,8172,4.059,-14.4413
rg,1625504235223622908,1,0.7139,-1.2837,0.9482,316,-127.9907,-256.4697,63.5986,86,0.7594,0.6703,6.2861,-47.9368,26,0.8254,8816,4.059,-5.2302
rg,1625504235223683112,1,0.929,-1.3247,0.467,317,-79.5288,-180.1758,68.7256,86,0.7514,0.6263,4.959,-48.3808,26,0.8274,8685,4.059,-1.4427
rg,1625504235224165982,1,0.9246,-1.2285,0.3596,318,34.9731,-0.6714,79.9561,86,0.7474,0.5983,5.8475,-47.5638,26,0.8274,8156,4.059,0.6394
rg,1625504235224284260,1,0.4746,-0.9111,0.4673,319,58.2886,183.5327,31.8604,86,0.7434,0.5893,10.5987,-46.4299,26,0.8264,9014,4.059,-3.9852
rg,1625504235224321704,1,-0.2344,-0.5286,0.5283,320,80.6274,249.2676,-39.3677,86,0.7474,0.5863,16.6448,-45.1556,26,0.8244,8911,4.059,-12.4395
rg,1625504235585474611,1,-0.9434,-0.3132,0.3198,321,54.3213,112.9761,0.3662,86,0.7594,0.6113,19.0138,-45.6536,26,0.8274,25014,4.059,-13.2521
rg,1625504235585510593,1,-0.4622,-1.054,1.0059,322,-132.019,-161.9263,10.1318,86,0.7704,0.6373,13.0631,-49.6077,26,0.8324,15520,4.059,-5.1
rg,1625504235585531371,1,0.0769,-1.5847,1.2263,323,-135.6201,-303.1616,15.8081,86,0.7814,0.6473,5.4845,-53.5034,26,0.8374,7975,4.059,4.879
rg,1625504235585550648,1,0.5894,-1.4656,0.7549,324,12.085,-231.3232,-5.127,86,0.7954,0.6573,-1.1341,-53.0646,26,0.8434,8696,4.059,12.1329
rg,1625504235585568574,1,0.7302,-0.9839,0.5945,325,97.4121,-53.4668,40.2832,86,0.8184,0.6663,-2.3867,-49.4336,26,0.8464,8001,4.059,14.772
rg,1625504235585586093,1,0.6819,-0.8743,0.5747,326,103.8818,11.3525,30.5786,86,0.8534,0.6783,-2.1017,-45.6223,26,0.8454,7757,4.059,15.24
rg,1625504235585604334,1,0.2454,-0.8335,0.4641,327,91.5527,79.0405,-2.9907,86,0.8804,0.6933,-0.4127,-42.4878,26,0.8434,9538,4.059,12.9577
rg,1625504235585622222,1,-0.1755,-0.7861,0.4753,328,89.2944,136.4136,2.8687,86,0.8994,0.7043,4.1915,-39.659,26,0.8434,8223,4.059,9.4695
rg,1625504235585640019,1,-0.5117,-0.6162,0.5452,329,75.5615,92.5293,14.6484,86,0.9094,0.7113,8.4919,-37.136,26,0.8434,8083,4.059,7.6179
rg,1625504235585657685,1,-0.4622,-0.2717,0.5122,330,-20.9351,-46.0205,15.686,86,0.8554,0.7274,8.5525,-37.435,26,0.8374,12033,4.059,9.2957
rg,1625504235585674871,1,-0.1929,-0.4326,0.4771,331,-157.7148,-158.8135,3.2959,86,0.7964,0.7364,4.1552,-43.4296,26,0.8294,8080,4.059,13.4988
rg,1625504235585716334,1,0.0015,-0.7803,0.6692,332,-192.2607,-200.0732,13.7329,86,0.7624,0.7334,-1.5276,-51.226,26,0.8254,8285,4.059,19.7666
rg,1625504235585735371,1,0.8,-1.5266,0.9023,333,-144.5312,-213.4399,67.5659,86,0.7554,0.6573,-5.1253,-57.7731,26,0.8294,8119,4.059,28.3318
rg,1625504235585753037,1,0.8145,-1.5454,0.5645,334,-2.3804,19.5312,66.8335,86,0.7474,0.6023,-3.2747,-58.3303,26,0.8324,9379,4.059,29.1178
rg,1625504235585770093,1,0.5579,-1.2495,0.6094,335,55.0537,132.6904,60.1196,86,0.7434,0.5673,0.865,-56.2614,26,0.8324,8622,4.059,25.9357
rg,1625504235585787185,1,-0.0786,-0.6797,0.3906,336,87.8296,167.8467,13.0005,86,0.7414,0.5483,4.0766,-51.7152,26,0.8314,8972,4.059,19.2876
rg,1625504235585804630,1,-0.3181,-0.384,0.2661,337,156.1279,185.6079,-63.9038,86,0.7434,0.5463,8.1188,-46.3728,26,0.8294,7908,4.059,12.0298
rg,1625504235585821963,1,-0.6694,-0.031,0.1753,338,161.9873,165.8325,-44.5557,86,0.7464,0.5583,13.7628,-40.6727,26,0.8284,8046,4.059,6.237
rg,1625504235585839297,1,-0.7432,0.0298,0.1055,339,41.748,40.1611,1.2817,86,0.7514,0.5723,17.152,-38.9737,26,0.8294,8320,4.059,5.3143
rg,1625504235585856463,1,-0.6951,-0.0818,0.198,340,-52.7344,-50.0488,5.6152,86,0.7574,0.5973,17.6446,-40.4244,26,0.8314,8857,4.059,6.8785
rg,1625504235585873408,1,-0.5728,-0.6707,0.8191,341,-228.2104,-201.1719,13.0005,86,0.7654,0.6213,12.708,-47.8646,26,0.8364,8339,4.059,13.0439
rg,1625504235585890130,1,0.2446,-1.9675,1.7195,342,-173.645,-303.2837,21.7896,86,0.7754,0.6383,5.0415,-53.274,26,0.8384,8887,4.059,23.0648
rg,1625504235585907297,1,0.6616,-1.6812,0.6074,343,29.9072,-192.9932,23.9868,86,0.7874,0.6513,0.205,-52.3609,26,0.8484,9198,4.059,29.7344
rg,1625504235585924389,1,0.7317,-0.928,0.7412,344,135.0098,-10.8032,44.8608,86,0.8154,0.6663,0.0961,-46.9247,26,0.8504,9950,4.059,31.1611
rg,1625504235585941667,1,0.6348,-0.7502,0.5933,345,142.1509,43.6401,35.5835,86,0.8484,0.6783,1.1195,-41.6437,26,0.8504,8066,4.059,30.8964
rg,1625504235585958741,1,0.2871,-0.614,0.2952,346,100.5859,93.2007,7.5684,86,0.8764,0.6913,3.2329,-38.5136,26,0.8474,8077,4.059,28.678
rg,1625504235585975648,1,-0.1936,-0.6272,0.5217,347,64.3311,179.8096,7.6294,86,0.9014,0.7023,9.4764,-36.8533,26,0.8454,8307,4.059,24.4752
rg,1625504235585992500,1,-0.6826,-0.655,0.6135,348,54.3823,181.3354,9.8877,86,0.9164,0.7103,14.7194,-35.7357,26,0.8454,8494,4.059,21.8061
rg,1625504235586009204,1,-0.6929,-0.55,0.4263,349,38.6963,24.1699,15.9302,86,0.9114,0.7174,17.0249,-34.6662,26,0.8444,8333,4.059,21.6594
rg,1625504235586038778,1,-0.2346,-0.3474,0.6079,350,-94.9707,-137.5122,34.668,86,0.8434,0.7324,13.4635,-37.068,26,0.8384,8915,4.059,26.2247
rg,1625504235586057630,1,0.2686,-0.9753,1.0276,351,-207.1533,-244.751,13.3057,86,0.7894,0.7364,5.5384,-44.4353,26,0.8284,8724,4.059,33.0868
rg,1625504235586074278,1,0.689,-1.3892,0.4878,352,-177.6123,-227.0508,19.7754,86,0.7634,0.7334,0.5622,-49.6368,26,0.8244,8261,4.059,39.957
rg,1625504235954612389,1,0.3452,-1.0779,0.7258,353,-7.7515,171.9971,35.6445,86,0.7464,0.5773,5.6866,-50.632,26,0.8254,26345,4.059,34.9013
rg,1625504235954709926,1,-0.5105,-1.1548,0.4424,354,59.6924,145.4468,-60.0586,86,0.7444,0.5553,8.2125,-49.6372,26,0.8244,13442,4.059,28.796
rg,1625504235954743056,1,-0.7817,-0.5625,0.064,355,170.105,71.7773,-67.5049,86,0.7464,0.5563,9.8505,-44.2137,26,0.8234,7650,4.059,24.7896
rg,1625504235954780778,1,-0.6514,-0.1428,0.1025,356,184.5093,9.1553,-33.6304,86,0.7504,0.5683,11.3014,-37.1744,26,0.8244,7734,4.059,23.6293
rg,1625504235954810667,1,-0.3052,0.1619,0.1587,357,95.0317,-100.9521,22.3999,86,0.7554,0.5863,10.2224,-31.4281,26,0.8254,7651,4.059,27.064
rg,1625504235954838481,1,0.0391,-0.0554,0.1206,358,2.6855,-144.9585,33.6914,86,0.7604,0.6113,4.1863,-34.526,26,0.8304,7723,4.059,32.2217
rg,1625504235954867722,1,0.1123,-0.3196,0.219,359,-199.9512,-187.6221,31.7993,86,0.7674,0.6313,-1.5939,-43.1399,26,0.8344,8862,4.059,37.9017
rg,1625504235954896222,1,0.738,-1.9194,2.1123,360,-217.7734,-114.0137,26.6113,86,0.7754,0.6473,-4.3659,-51.9815,26,0.8424,8029,4.059,42.0188
rg,1625504235954922481,1,0.5417,-1.8528,0.3752,361,-2.0142,-9.4604,24.9634,86,0.7874,0.6603,-4.2751,-53.0914,26,0.8464,8584,4.059,43.0054
rg,1625504235954949185,1,0.4163,-1.4663,0.7407,362,65.979,43.8232,7.9346,86,0.8064,0.6703,-1.8463,-48.1915,26,0.8494,8102,4.059,40.3556
rg,1625504235954976056,1,0.1985,-0.7717,0.7361,363,143.3716,103.7598,18.9819,86,0.8324,0.6833,1.2487,-42.3802,26,0.8524,8296,4.059,37.9154
rg,1625504235955003722,1,-0.0549,-0.5603,0.3313,364,115.3564,101.7456,17.8833,86,0.8574,0.6953,4.9328,-38.5445,26,0.8524,7932,4.059,35.8011
rg,1625504235955030222,1,-0.1897,-0.5872,0.3789,365,86.1816,105.835,17.5171,86,0.8744,0.7053,9.1549,-36.7769,26,0.8514,7791,4.059,34.0073
rg,1625504235955057537,1,-0.4395,-0.6609,0.5571,366,38.4521,65.979,17.0288,86,0.8774,0.7153,12.3718,-35.8925,26,0.8534,8670,4.059,32.9027
rg,1625504235955083574,1,-0.4722,-0.6042,0.5073,367,-38.3911,-45.4102,15.3809,86,0.8354,0.7234,12.0204,-37.5615,26,0.8484,8195,4.059,34.4081
rg,1625504235955181667,1,-0.1794,-0.7075,0.5752,368,-139.9536,-141.3574,19.3481,86,0.7864,0.7284,8.2027,-42.8983,26,0.8354,8268,4.059,38.6102
rg,1625504235955218407,1,0.0452,-0.9004,0.7605,369,-150.2075,-176.2695,30.8228,86,0.7654,0.6993,3.7882,-48.5325,26,0.8274,8231,4.059,44.5237
rg,1625504235955249370,1,0.8083,-1.332,1.1318,370,-106.0181,-152.9541,78.9795,86,0.7574,0.6323,1.2727,-52.4901,26,0.8314,7963,4.059,51.2836
rg,1625504235955276630,1,0.9155,-1.4517,0.5002,371,18.7378,-17.2729,91.5527,86,0.7514,0.5993,2.5458,-52.2557,26,0.8284,8296,4.059,54.0416
rg,1625504235955303593,1,0.8184,-1.2878,0.45,372,41.687,58.4717,81.2988,86,0.7494,0.5783,5.2862,-51.1896,26,0.8264,8033,4.059,54.1674
rg,1625504235955329889,1,0.1567,-0.7534,0.4431,373,91.8579,192.9932,-20.813,86,0.7494,0.5673,8.9828,-48.652,26,0.8244,7987,4.059,47.6314
rg,1625504235955356222,1,-0.5032,-0.2383,0.4011,374,143.3105,228.3936,-85.6934,86,0.7514,0.5693,14.1585,-44.2829,26,0.8214,8400,4.059,38.6272
rg,1625504235955383574,1,-0.7964,-0.1658,0.3398,375,132.5684,217.1021,-74.8291,86,0.7544,0.5783,20.2223,-41.1572,26,0.8204,7984,4.059,30.3149
rg,1625504235955410426,1,-1.0737,-0.2444,0.1516,376,37.8418,48.9502,-27.5269,86,0.7614,0.5923,19.1747,-42.5276,26,0.8224,8507,4.059,31.5598
rg,1625504235955439056,1,-0.9045,-0.5569,0.4807,377,-115.5396,-187.7441,-9.6436,86,0.7684,0.6113,14.7481,-45.8012,26,0.8264,8066,4.059,36.6575
rg,1625504235955466685,1,-0.1116,-1.3442,1.3896,378,-179.5044,-385.2539,34.729,86,0.7784,0.6293,5.1765,-50.7254,26,0.8314,8144,4.059,49.2164
rg,1625504235955492037,1,0.9204,-1.8718,0.8369,379,-114.9292,-408.5083,42.9688,86,0.7914,0.6433,-2.6622,-51.3863,26,0.8354,8115,4.059,60.5557
rg,1625504235955517685,1,1.0254,-1.7454,0.4443,380,82.6416,-232.8491,49.9878,86,0.8054,0.6553,-8.0394,-49.6751,26,0.8384,8412,4.059,69.0574
rg,1625504235955543407,1,0.9417,-0.9819,0.4473,381,175.2319,-27.5269,16.6626,86,0.8354,0.6643,-9.554,-43.3272,26,0.8374,8401,4.059,70.3205
rg,1625504235955570000,1,0.4536,-0.4434,0.1667,382,177.4902,97.229,-8.667,86,0.8724,0.6813,-8.117,-36.5325,26,0.8354,8525,4.059,67.563
rg,1625504235955596648,1,0.0481,-0.2458,0.1721,383,146.3013,160.7666,-5.249,86,0.8954,0.6953,-0.8942,-32.9474,26,0.8334,8492,4.059,62.7444
rg,1625504235955622296,1,-0.1914,-0.3083,0.4631,384,41.748,249.3896,12.146,86,0.9084,0.7053,8.7473,-31.4771,26,0.8344,8991,4.059,57.845
rg,1625504236292052500,1,-0.2483,-0.718,0.5176,385,-159.4849,-139.7095,8.8501,86,0.7944,0.7294,4.6835,-38.2622,26,0.8214,24493,4.059,61.2063
rg,1625504236292111518,1,0.4082,-1.092,0.9868,386,-152.4048,-203.4302,40.4663,86,0.7664,0.7204,-1.09,-44.491,26,0.8184,8806,4.059,67.799
rg,1625504236292132555,1,0.7314,-1.2683,0.7551,387,-119.2627,-160.6445,69.458,86,0.7574,0.6463,-1.9705,-48.5487,26,0.8234,8463,4.059,72.2288
rg,1625504236292152389,1,0.647,-1.2234,0.5361,388,17.5781,100.0366,52.9175,86,0.7494,0.5963,1.3257,-48.4527,26,0.8304,13824,4.059,70.6425
rg,1625504236292171518,1,0.1619,-0.8884,0.5742,389,37.1094,153.8086,-10.7422,86,0.7474,0.5773,4.7015,-47.5558,26,0.8314,9404,4.059,65.7598
rg,1625504236292189722,1,-0.4014,-0.4858,0.4243,390,76.9653,202.2705,-69.9463,86,0.7484,0.5733,9.241,-45.4772,26,0.8314,8181,4.059,57.9367
rg,1625504236292207889,1,-0.6616,-0.3738,0.3918,391,89.4775,209.5947,-64.5142,86,0.7514,0.5803,14.8764,-43.4983,26,0.8304,7718,4.059,50.0996
rg,1625504236292265870,1,-0.958,-0.3057,0.2178,392,55.1147,108.5205,-20.0806,86,0.7564,0.5903,19.3101,-42.5377,26,0.8314,7863,4.059,46.3622
rg,1625504236292285759,1,-0.8367,-0.385,0.2788,393,-55.9692,-108.5205,-7.5684,86,0.7624,0.6073,17.4566,-44.0886,26,0.8324,9377,4.059,49.1817
rg,1625504236292304092,1,-0.676,-0.5515,0.4785,394,-118.5913,-197.3877,1.6479,86,0.7694,0.6263,10.4648,-48.5769,26,0.8354,8102,4.059,58.0602
rg,1625504236292322185,1,0.0264,-1.3533,1.3896,395,-163.6963,-348.0835,31.4331,86,0.7794,0.6503,2.3347,-53.6297,26,0.8394,8099,4.059,69.7411
rg,1625504236292339926,1,0.8892,-1.7334,0.8086,396,-22.7051,-282.5928,12.8174,86,0.7944,0.6653,-4.8234,-55.1258,26,0.8454,8152,4.059,79.1993
rg,1625504236292357555,1,0.9485,-1.2251,0.5085,397,122.2534,-74.4629,44.3115,86,0.8164,0.6803,-6.348,-50.9507,26,0.8484,9102,4.059,82.6458
rg,1625504236292375111,1,0.5361,-0.6841,0.2568,398,147.0337,25.2075,41.4429,86,0.8554,0.6963,-4.2566,-45.2678,26,0.8504,8158,4.059,80.6936
rg,1625504236292392907,1,0.0669,-0.4873,0.3325,399,98.3887,182.9224,8.728,86,0.8824,0.7113,1.1695,-41.614,26,0.8504,9708,4.059,75.9384
rg,1625504236292410333,1,-0.501,-0.5342,0.645,400,60.9131,202.6978,5.5542,86,0.8914,0.7194,7.5414,-40.4927,26,0.8514,8049,4.059,71.5806
rg,1625504236292428444,1,-0.624,-0.5623,0.4834,401,14.2822,91.6748,7.9956,86,0.8864,0.7304,11.7397,-40.5457,26,0.8514,7896,4.059,69.3728
rg,1625504236292445611,1,-0.3354,-0.5469,0.4792,402,-87.0972,-96.3135,15.2588,86,0.8384,0.7414,9.8198,-43.7337,26,0.8444,8068,4.059,72.3951
rg,1625504236292463518,1,-0.1191,-0.6968,0.7244,403,-148.0713,-176.3916,5.6152,86,0.7914,0.7454,3.23,-49.8517,26,0.8344,7940,4.059,78.9846
rg,1625504236292480963,1,0.3984,-1.1711,0.8013,404,-150.8179,-214.7827,12.5122,86,0.7654,0.7194,-2.2403,-56.0129,26,0.8284,8646,4.059,86.1514
rg,1625504236292498092,1,0.8081,-1.2737,0.4358,405,-74.646,-114.7461,43.1519,86,0.7574,0.6313,-4.2922,-59.7539,26,0.8294,8617,4.059,91.014
rg,1625504236292515315,1,0.678,-1.1445,0.6567,406,2.1973,107.5439,45.8984,107,0.7504,0.5873,-1.4381,-59.5288,26,0.8304,8586,4.0414,88.2127
rg,1625504236292536370,1,0.5569,-1.0503,0.5486,407,10.9863,157.8369,52.9785,107,0.7474,0.5643,3.1171,-59.7681,26,0.8304,8069,4.0414,82.3179
rg,1625504236292555907,1,0.0674,-1.0815,0.6843,408,1.4648,218.811,0.061,107,0.7464,0.5483,7.8226,-60.5715,26,0.8294,9711,4.0414,74.6877
rg,1625504236292574111,1,-0.5522,-0.8772,0.3433,409,85.4492,209.8389,-65.6128,107,0.7484,0.5493,10.6337,-58.8211,26,0.8284,8493,4.0414,65.9994
rg,1625504236292592296,1,-0.8435,-0.4143,0.2129,410,141.6016,117.9199,-50.293,107,0.7544,0.5643,13.2809,-54.2908,26,0.8284,8479,4.0414,60.9129
rg,1625504236292610222,1,-0.7739,-0.1335,0.2646,411,66.4673,-36.1328,-13.6108,107,0.7614,0.5853,13.8688,-51.0314,26,0.8294,8277,4.0414,61.9103
rg,1625504236292628611,1,-0.6414,-0.2119,0.3455,412,-10.1929,-119.9341,0.2441,107,0.7684,0.6183,12.4364,-50.1421,26,0.8334,8502,4.0414,65.8494
rg,1625504236292646704,1,-0.2288,-0.8452,0.7202,413,-124.8779,-277.832,24.1089,107,0.7794,0.6413,6.3542,-53.5599,26,0.8374,8639,4.0414,75.2939
rg,1625504236292664426,1,0.6809,-1.6458,1.2327,414,-54.1382,-285.1562,34.1797,107,0.7924,0.6593,-0.0833,-55.144,26,0.8434,8558,4.0414,85.3584
rg,1625504236292681481,1,0.7561,-1.3062,0.2505,415,118.7744,-124.3286,40.5884,107,0.8184,0.6763,-2.8582,-51.3091,26,0.8474,9329,4.0414,90.2733
rg,1625504236292698296,1,0.6848,-0.9146,0.2959,416,145.874,-48.4619,24.231,107,0.8434,0.6923,-3.0751,-45.6525,26,0.8484,8676,4.0414,89.7912
rg,1625504236740294296,1,-0.2244,-0.4563,0.6355,417,-40.7104,75.1953,18.4326,107,0.8024,0.7284,-2.0702,-49.637,26,0.8444,27606,4.0414,89.9218
rg,1625504236740393166,1,0.0583,-1.001,0.7261,418,-166.3818,-104.9805,3.7842,107,0.7724,0.7304,-4.471,-56.6337,26,0.8374,8360,4.0414,93.3837
rg,1625504236740413500,1,0.5261,-1.2578,0.5879,419,-114.3799,-96.9238,49.6826,107,0.7604,0.6743,-5.3663,-61.8683,26,0.8354,8351,4.0414,97.7933
rg,1625504236740432481,1,0.7874,-1.1838,0.7922,420,-19.2871,27.71,58.4717,107,0.7534,0.6153,-3.6963,-62.4391,26,0.8374,9874,4.0414,97.8804
rg,1625504236740452296,1,0.5137,-1.0891,0.5232,421,2.3193,111.2061,42.8467,107,0.7504,0.5893,-0.8872,-62.2769,26,0.8354,8430,4.0414,94.7238
rg,1625504236740471148,1,0.2434,-1.1006,0.5498,422,13.1226,149.9634,13.7939,107,0.7484,0.5723,2.4629,-61.7899,26,0.8344,8147,4.0414,89.6797
rg,1625504236740490296,1,-0.2581,-0.8674,0.4561,423,51.8188,186.6455,-34.79,107,0.7484,0.5643,5.3174,-60.2193,26,0.8344,8060,4.0414,82.4721
rg,1625504236740508611,1,-0.6819,-0.4763,0.1614,424,130.7983,182.251,-49.2554,107,0.7524,0.5693,9.1489,-56.1673,26,0.8334,8618,4.0414,75.2364
rg,1625504236740592462,1,-0.8677,-0.1548,0.137,425,132.5684,140.5029,-30.2124,107,0.7564,0.5823,12.413,-52.3807,26,0.8324,8105,4.0414,72.6919
rg,1625504236740615666,1,-0.8511,-0.1321,0.197,426,40.5273,-23.0103,-0.3662,107,0.7634,0.6063,13.8404,-50.3845,26,0.8344,8493,4.0414,73.5083
rg,1625504236740635314,1,-0.5798,-0.5103,0.4548,427,-121.9482,-204.3457,23.3154,107,0.7724,0.6303,10.5945,-53.6656,26,0.8374,8124,4.0414,80.674
rg,1625504236740652981,1,0.1594,-1.4622,1.4824,428,-161.9873,-340.0269,44.2505,107,0.7834,0.6513,3.9324,-58.2156,26,0.8414,8073,4.0414,93.0531
rg,1625504236740670944,1,0.7075,-1.8105,1.3545,429,-85.9375,-316.4673,46.1426,107,0.7994,0.6693,-1.6355,-61.202,26,0.8464,7953,4.0414,104.9008
rg,1625504236740689296,1,0.9233,-1.5156,0.4724,430,94.2383,-142.2729,22.9492,107,0.8184,0.6813,-4.782,-58.0995,26,0.8504,7740,4.0414,110.2603
rg,1625504236740708129,1,0.6743,-0.7803,0.3479,431,151.3062,-45.7764,20.0806,107,0.8474,0.6923,-4.395,-51.5377,26,0.8504,7959,4.0414,109.3504
rg,1625504236740727166,1,0.4382,-0.5334,0.2153,432,157.1045,105.1636,13.7329,107,0.8704,0.7043,-2.4586,-45.6057,26,0.8494,7974,4.0414,106.5223
rg,1625504236740748111,1,-0.0051,-0.376,0.3733,433,79.4678,178.5278,3.2959,107,0.8834,0.7143,2.8535,-42.4278,26,0.8504,8363,4.0414,101.6553
rg,1625504236740765851,1,-0.4807,-0.5479,0.6018,434,-13.0005,122.2534,2.6855,107,0.8724,0.7294,7.5453,-43.2272,26,0.8484,8211,4.0414,98.3872
rg,1625504236740784370,1,-0.5098,-0.6462,0.459,435,-59.6924,35.2173,7.3242,107,0.8214,0.7404,7.0192,-48.1567,26,0.8404,8495,4.0414,100.0396
rg,1625504236740801425,1,-0.2012,-0.8147,0.5354,436,-159.9121,-125.1831,8.606,107,0.7824,0.7444,4.3655,-54.446,26,0.8314,8075,4.0414,104.1319
rg,1625504236740819296,1,0.4609,-1.3049,0.8135,437,-143.9209,-187.2559,36.9263,107,0.7574,0.6943,0.7719,-59.9981,26,0.8244,8491,4.0414,111.2498
rg,1625504236740836111,1,1.0498,-1.4331,1.1292,438,-68.5425,-56.0913,69.8853,107,0.7504,0.6163,0.9853,-62.3812,26,0.8264,8517,4.0414,114.5827
rg,1625504236740854222,1,0.8857,-1.4812,0.6616,439,-4.8828,59.9976,71.0449,107,0.7454,0.5823,3.4749,-62.7202,26,0.8224,8294,4.0414,113.7496
rg,1625504236740871148,1,0.5022,-1.4011,0.7087,440,33.7524,171.875,50.1099,107,0.7434,0.5523,7.5894,-61.8772,26,0.8224,8452,4.0414,108.5535
rg,1625504236740889000,1,-0.2522,-1.0754,0.6206,441,103.0273,243.5913,-39.4287,107,0.7434,0.5313,11.1206,-59.2163,26,0.8214,8769,4.0414,99.2044
rg,1625504236740906629,1,-0.8154,-0.5984,0.1423,442,198.9136,230.5908,-81.9092,107,0.7434,0.5233,14.9593,-53.8864,26,0.8204,8441,4.0414,89.4888
rg,1625504236740924407,1,-0.8828,-0.2952,0.0547,443,220.2759,140.8691,-72.1436,107,0.7454,0.5233,18.1878,-47.2319,26,0.8204,8472,4.0414,83.0928
rg,1625504236740941592,1,-0.9546,0.2024,-0.0103,444,159.6069,-27.771,-45.2881,107,0.7494,0.5343,18.3425,-40.6734,26,0.8214,8836,4.0414,82.7763
rg,1625504236740958962,1,-0.6567,0.1846,0.0564,445,-24.8413,-179.6875,31.4941,107,0.7544,0.5483,15.8198,-39.323,26,0.8244,10414,4.0414,88.8517
rg,1625504236740976611,1,-0.2268,-0.3635,0.1997,446,-203.8574,-304.5044,71.2891,107,0.7604,0.5683,9.3924,-45.9133,26,0.8264,8174,4.0414,99.1595
rg,1625504236741011814,1,0.9753,-1.6208,2.1755,447,-238.0371,-392.4561,66.04,107,0.7674,0.5973,0.3024,-53.8997,26,0.8344,8718,4.0414,112.9145
rg,1625504236741031259,1,0.7476,-1.8184,0.3137,448,-113.7085,-269.2261,55.1758,107,0.7764,0.6253,-2.0927,-54.5623,26,0.8394,8990,4.0414,119.128
rg,1625504237082440092,1,0.5291,-0.5132,0.7104,449,71.167,90.5762,-14.7095,107,0.8194,0.6583,-1.4876,-50.9828,26,0.8514,26156,4.0414,115.8224
rg,1625504237082481018,1,0.2654,-0.7551,0.4028,450,15.7471,144.104,2.0752,107,0.8484,0.6763,1.5728,-50.7583,26,0.8504,8679,4.0414,111.4051
rg,1625504237082501314,1,-0.0005,-1.0999,0.6714,451,-3.54,158.8745,-13.3057,107,0.8734,0.6893,5.058,-51.5041,26,0.8484,8642,4.0414,106.1031
rg,1625504237082520999,1,-0.3086,-0.9219,0.4377,452,22.0947,143.7988,-14.3433,107,0.8884,0.6993,8.0239,-50.4319,26,0.8484,8339,4.0414,102.0025
rg,1625504237082539147,1,-0.3789,-0.7852,0.3528,453,62.1948,78.2471,-9.6436,107,0.8894,0.7113,10.3668,-48.9232,26,0.8484,8172,4.0414,99.262
rg,1625504237082557610,1,-0.3335,-0.3723,0.4517,454,-15.7471,-11.6577,0.7935,107,0.8454,0.7234,10.84,-49.1424,26,0.8404,8387,4.0414,99.7042
rg,1625504237082575759,1,-0.0837,-0.5784,0.572,455,-152.0996,-118.3472,5.9204,107,0.7974,0.7274,7.9256,-54.4054,26,0.8284,7900,4.0414,103.6615
rg,1625504237082593147,1,0.0842,-0.853,0.6304,456,-179.4434,-159.1797,7.1411,107,0.7674,0.7224,4.3051,-60.9252,26,0.8214,7900,4.0414,109.2503
rg,1625504237082610147,1,0.6228,-1.4553,0.7886,457,-116.8823,-148.0713,49.0723,107,0.7544,0.6443,2.4381,-65.2312,26,0.8224,8526,4.0414,115.4541
rg,1625504237082627092,1,0.7036,-1.4021,0.6235,458,30.5786,64.3921,82.8857,107,0.7434,0.5703,5.4857,-64.0867,26,0.8254,15989,4.0414,114.5169
rg,1625504237082665610,1,0.2844,-1.2998,0.6045,459,64.0259,157.3486,44.0674,107,0.7414,0.5453,9.2166,-62.1786,26,0.8254,7870,4.0414,109.6365
rg,1625504237082684018,1,-0.0701,-1.2104,0.551,460,95.0928,173.2178,0.1221,107,0.7414,0.5303,12.3112,-59.6596,26,0.8264,7958,4.0414,103.4496
rg,1625504237082700907,1,-0.6333,-0.8076,0.3979,461,159.6069,143.5547,-40.7715,107,0.7424,0.5203,14.9026,-54.7947,26,0.8264,7900,4.0414,97.5967
rg,1625504237082717592,1,-0.5391,-0.1807,0.0813,462,204.1016,17.334,-18.9819,107,0.7444,0.5203,16.6014,-47.0586,26,0.8264,7953,4.0414,96.6403
rg,1625504237082734185,1,-0.4807,0.0598,0.0977,463,194.8853,-35.7666,-16.4795,107,0.7464,0.5273,17.1749,-38.5599,26,0.8264,8397,4.0414,97.4754
rg,1625504237082753388,1,-0.3835,0.2351,0.1323,464,60.6689,-89.4775,16.7236,107,0.7514,0.5383,16.5164,-33.9615,26,0.8284,8025,4.0414,100.7371
rg,1625504237082770962,1,-0.1863,-0.1355,0.1482,465,-126.709,-142.334,40.9546,107,0.7554,0.5543,13.9034,-37.9996,26,0.8324,8073,4.0414,105.4715
rg,1625504237082788351,1,0.0728,-0.9963,1.3542,466,-281.0669,-221.0083,37.0483,107,0.7624,0.5823,7.8668,-47.7552,26,0.8384,9985,4.0414,112.7344
rg,1625504237082804944,1,0.6069,-1.8386,2.2917,467,-244.6899,-217.7124,28.6865,107,0.7684,0.6083,2.7919,-57.4582,26,0.8454,8392,4.0414,120.3124
rg,1625504237082835610,1,0.415,-1.8687,0.3389,468,-20.6299,-80.3833,38.5132,107,0.7754,0.6293,1.8312,-58.9455,26,0.8504,8014,4.0414,123.8247
rg,1625504237082853481,1,0.5449,-1.1431,0.8708,469,51.5747,1.0376,7.2632,107,0.7874,0.6413,1.227,-56.6406,26,0.8544,8480,4.0414,123.9314
rg,1625504237082870036,1,0.2314,-0.7012,0.6306,470,72.5098,31.0059,-11.7188,107,0.8074,0.6523,1.3233,-53.0056,26,0.8574,8334,4.0414,122.2592
rg,1625504237082887129,1,0.1665,-0.6694,0.4478,471,69.2139,53.894,1.8921,107,0.8304,0.6693,2.199,-50.4073,26,0.8584,8389,4.0414,120.5946
rg,1625504237082903962,1,-0.0183,-0.7783,0.4094,472,37.4146,64.6362,5.3101,107,0.8494,0.6803,3.976,-49.469,26,0.8594,8344,4.0414,118.7275
rg,1625504237082920796,1,-0.2463,-0.7368,0.4131,473,39.6118,45.5322,5.9204,107,0.8564,0.6963,5.828,-48.4083,26,0.8614,8831,4.0414,117.4788
rg,1625504237082937333,1,-0.2361,-0.5432,0.4365,474,-20.2026,-34.79,15.0146,107,0.8324,0.7123,5.8732,-49.1616,26,0.8604,9303,4.0414,118.9182
rg,1625504237082954147,1,-0.0723,-0.4644,0.5374,475,-88.3179,-81.9092,22.0337,107,0.7814,0.7204,4.4884,-52.0646,26,0.8504,8323,4.0414,122.0591
rg,1625504237082971536,1,0.2527,-0.7959,0.6357,476,-173.7671,-138.855,15.7471,107,0.7654,0.6653,1.1644,-58.7167,26,0.8474,8200,4.0414,127.0302
rg,1625504237082988444,1,0.6987,-1.4211,0.9753,477,-100.0366,-70.9229,38.6353,107,0.7574,0.5973,0.2334,-62.5351,26,0.8534,8344,4.0414,130.2881
rg,1625504237083005536,1,0.7949,-1.4717,0.6113,478,-38.8794,-58.5327,57.9224,107,0.7504,0.5643,1.4695,-62.922,26,0.8544,8282,4.0414,132.7639
rg,1625504237083023277,1,0.7334,-1.1841,0.3967,479,31.25,82.2144,80.4443,107,0.7464,0.5373,4.623,-62.0314,26,0.8534,9265,4.0414,131.2998
rg,1625504237083041592,1,0.1143,-0.9915,0.7358,480,29.1138,217.6514,28.2593,107,0.7454,0.5243,9.3142,-61.3927,26,0.8534,8804,4.0414,124.1416
rg,1625504237426106481,1,-0.8372,-0.4524,0.1025,481,103.7598,-3.3569,-17.334,107,0.7524,0.5323,10.4362,-57.5738,26,0.8534,25120,4.0414,123.9211
rg,1625504237426150888,1,-0.5078,-0.2488,0.3013,482,71.5332,-83.1909,0.5493,107,0.7594,0.5473,8.9314,-55.4603,26,0.8554,8914,4.0414,129.9825
rg,1625504237428512814,1,-0.3103,-0.397,0.3999,483,-45.0439,-235.2295,30.7007,107,0.7644,0.5663,5.4507,-55.8139,26,0.8564,7720,4.0414,138.5615
rg,1625504237428543832,1,0.3311,-1.2021,1.2112,484,-110.1074,-316.2231,37.1704,107,0.7704,0.5943,-0.6605,-59.3059,26,0.8594,8009,4.0414,150.0563
rg,1625504237428570462,1,0.6821,-1.6553,0.5496,485,14.5264,-178.5889,44.1284,107,0.7774,0.6203,-3.5603,-59.4079,26,0.8614,8596,4.0414,157.1053
rg,1625504237428593925,1,0.6499,-1.4912,0.3064,486,81.1157,-105.4077,36.6821,107,0.7944,0.6373,-5.2781,-57.1724,26,0.8614,7744,4.0414,161.5002
rg,1625504237428617981,1,0.6028,-0.8428,0.6084,487,138.7329,10.9253,4.8828,107,0.8204,0.6533,-5.8166,-51.4955,26,0.8624,8674,4.0414,161.1961
rg,1625504237428641610,1,0.334,-0.5505,0.3298,488,126.2817,100.769,10.1318,107,0.8534,0.6663,-3.7242,-46.4791,26,0.8604,9091,4.0414,158.3936
rg,1625504237428661888,1,-0.2231,-0.5554,0.5317,489,42.0532,207.8247,16.8457,107,0.8834,0.6893,3.3004,-44.7666,26,0.8604,15320,4.0414,152.9355
rg,1625504237428681721,1,-0.5132,-0.5667,0.5547,490,8.1787,101.8066,17.9443,107,0.8824,0.7003,7.8,-44.683,26,0.8624,7689,4.0414,150.565
rg,1625504237428747203,1,-0.4019,-0.4631,0.3879,491,-19.4092,16.4185,19.7754,107,0.8384,0.7163,7.1944,-47.7357,26,0.8564,8289,4.0414,152.9163
rg,1625504237428772073,1,-0.0037,-0.5779,0.7544,492,-172.9126,-131.4087,14.3433,107,0.7864,0.7214,4.0716,-53.7774,26,0.8434,8119,4.0414,157.4346
rg,1625504237428795536,1,0.4858,-1.063,0.687,493,-188.9648,-175.354,12.9395,107,0.7604,0.6693,-0.1827,-61.2195,26,0.8354,8311,4.0414,163.6685
rg,1625504237428817703,1,0.9431,-1.4031,0.9944,494,-97.168,-36.377,55.7861,107,0.7544,0.5893,0.0639,-64.8509,26,0.8394,7972,4.0414,166.0028
rg,1625504237428836981,1,0.7454,-1.4331,0.8574,495,-24.1089,61.4014,55.481,107,0.7484,0.5593,2.2126,-65.7647,26,0.8404,8578,4.0414,164.6935
rg,1625504237428858277,1,0.408,-1.2292,0.7183,496,18.3716,127.5024,47.3633,107,0.7454,0.5373,5.323,-65.0402,26,0.8404,8157,4.0414,160.8303
rg,1625504237428876388,1,-0.2273,-1.2576,0.7534,497,35.8887,174.1943,-18.8599,107,0.7454,0.5193,7.7423,-64.1179,26,0.8404,8990,4.0414,154.197
rg,1625504237428895351,1,-0.7273,-1.0176,0.4868,498,95.0928,137.4512,-37.4756,107,0.7454,0.5173,9.8748,-61.1798,26,0.8404,8261,4.0414,148.5909
rg,1625504237428945055,1,-0.772,-0.7632,0.2449,499,129.8218,83.4961,-21.4233,107,0.7484,0.5143,12.4167,-56.9235,26,0.8404,8706,4.0414,145.2389
rg,1625504237428969332,1,-0.468,-0.1665,0.1377,500,134.5215,-45.7764,4.8218,107,0.7534,0.5263,13.3073,-51.0535,26,0.8404,8436,4.0414,147.0014
rg,1625504237428989277,1,-0.3262,0.0264,0.2561,501,31.7383,-119.0796,0.3662,107,0.7604,0.5423,11.7863,-47.7553,26,0.8424,8425,4.0414,151.0541
rg,1625504237429009332,1,-0.2061,-0.4553,0.4199,502,-114.1357,-165.2832,20.0195,107,0.7684,0.5693,8.3939,-51.2962,26,0.8464,8554,4.0414,156.6877
rg,1625504237429028795,1,-0.0208,-0.9023,0.9211,503,-159.668,-196.7773,24.1089,107,0.7774,0.6043,3.8987,-56.7001,26,0.8514,8206,4.0414,163.7122
rg,1625504237429047944,1,0.4595,-1.7061,0.9976,504,-75.0122,-144.043,30.2734,107,0.7904,0.6253,1.2429,-59.5392,26,0.8574,8421,4.0414,169.2554
rg,1625504237429066925,1,0.4814,-1.3887,0.4177,505,73.1201,-47.7905,31.25,107,0.8084,0.6413,0.5488,-57.0833,26,0.8604,8638,4.0414,-188.4916
rg,1625504237429084610,1,0.4336,-0.801,0.4741,506,135.6812,18.8599,6.1646,107,0.8364,0.6533,0.2079,-51.7448,26,0.8594,8606,4.0414,170.9879
rg,1625504237429103869,1,0.334,-0.5825,0.3254,507,136.2915,59.2041,7.2021,107,0.8634,0.6693,0.9411,-46.6345,26,0.8584,8114,4.0414,169.3312
rg,1625504237429123610,1,0.052,-0.3887,0.2039,508,79.3457,135.498,14.4653,107,0.8814,0.6843,4.8286,-44.2432,26,0.8574,8114,4.0414,165.8478
rg,1625504237429143277,1,-0.2747,-0.5283,0.5984,509,7.6294,128.1128,13.7329,107,0.8934,0.6943,9.4135,-44.2203,26,0.8574,8132,4.0414,162.6468
rg,1625504237429163684,1,-0.4075,-0.6162,0.6282,510,-16.7847,67.3828,7.8735,107,0.8944,0.7053,9.8064,-45.751,26,0.8574,9073,4.0414,163.2071
rg,1625504237429183314,1,0.1011,-0.8281,0.8477,511,-72.998,-81.7261,15.625,107,0.8344,0.7174,6.3234,-50.2735,26,0.8504,8593,4.0414,167.887
rg,1625504237429204592,1,0.3833,-0.9539,0.9019,512,-169.7388,-163.208,19.5923,107,0.7804,0.7194,2.2211,-56.4672,26,0.8404,8510,4.0414,-186.338
rg,1625504237778075851,1,0.4133,-1.2378,0.8035,513,3.418,148.4985,53.894,107,0.7464,0.5763,6.5674,-56.6216,26,0.8354,24219,4.0414,169.8723
rg,1625504237778113203,1,0.2554,-1.2666,0.6008,514,24.1699,125.1831,71.8384,107,0.7444,0.5513,10.05,-56.0078,26,0.8344,8704,4.0414,166.9816
rg,1625504237778133369,1,0.0525,-1.2993,0.5635,515,58.1055,124.0845,9.7656,107,0.7444,0.5443,12.6905,-54.8796,26,0.8334,8129,4.0414,162.9532
rg,1625504237778173110,1,-0.3132,-0.9158,0.2881,516,128.6621,146.3623,-26.6113,107,0.7444,0.5433,15.544,-51.7515,26,0.8324,8182,4.0414,157.3183
rg,1625504237778193258,1,-0.3708,-0.2686,0.0913,517,200.5615,95.7642,-34.1187,107,0.7474,0.5543,18.4266,-45.3619,26,0.8304,8321,4.0414,153.3349
rg,1625504237778212092,1,-0.4236,-0.0261,0.1428,518,195.7397,76.2329,-37.7808,107,0.7504,0.5673,21.6607,-37.9464,26,0.8304,8046,4.0414,150.3544
rg,1625504237778229888,1,-0.678,0.1213,0.1104,519,105.3467,69.1528,-16.1743,158,0.7604,0.6093,25.4637,-34.3604,26,0.8344,9079,4.0128,148.1817
rg,1625504237778247814,1,-0.7029,-0.531,0.5095,520,-169.7998,-119.751,29.2969,158,0.7684,0.6283,23.0859,-39.7795,26,0.8384,8010,4.0128,152.1831
rg,1625504237778265388,1,-0.1675,-1.3994,1.5281,521,-206.7261,-289.3066,33.7524,158,0.7774,0.6393,14.8214,-45.1056,26,0.8434,7742,4.0128,161.4423
rg,1625504237778282777,1,0.2546,-1.7053,1.3445,522,-123.0469,-297.9126,33.5083,158,0.7864,0.6503,6.8615,-48.4241,26,0.8484,7989,4.0128,171.1346
rg,1625504237778300295,1,0.498,-1.4607,0.4988,523,42.1753,-192.5659,53.9551,158,0.7964,0.6593,2.3719,-46.9766,26,0.8544,7761,4.0128,-181.8122
rg,1625504237778318073,1,0.6829,-0.8557,0.5984,524,80.8105,-164.978,39.3677,158,0.8114,0.6703,-2.3015,-43.4827,26,0.8584,7970,4.0128,-177.8501
rg,1625504237778336092,1,0.6606,-0.678,0.5913,525,87.0361,-87.8906,-6.4697,158,0.8344,0.6823,-6.3418,-40.335,26,0.8574,8054,4.0128,-175.7158
rg,1625504237778365703,1,0.5154,-0.6602,0.3376,526,43.5181,9.6436,-4.2725,158,0.8594,0.6943,-7.2532,-39.2658,26,0.8554,8565,4.0128,-176.0304
rg,1625504237778383388,1,0.3391,-0.8606,0.4316,527,4.3335,78.9795,-8.5449,158,0.8804,0.7033,-5.5438,-39.7089,26,0.8554,8037,4.0128,-178.21
rg,1625504237778403517,1,0.0151,-0.8833,0.5732,528,12.207,106.5063,-7.5073,158,0.8934,0.7133,-2.2971,-39.6871,26,0.8554,8716,4.0128,-181.1086
rg,1625504237778421536,1,-0.1514,-0.8259,0.5601,529,25.9399,98.877,-1.8311,158,0.8964,0.7234,1.1196,-39.2411,26,0.8564,8175,4.0128,-183.6565
rg,1625504237778439203,1,-0.3179,-0.6047,0.4878,530,9.0942,33.7524,14.8926,158,0.8594,0.7354,3.3538,-39.3169,26,0.8484,8326,4.0128,-184.0605
rg,1625504237778456554,1,-0.0593,-0.4758,0.5845,531,-108.0933,-73.9746,33.5693,158,0.8034,0.7414,2.0786,-43.4705,26,0.8374,8305,4.0128,-181.0938
rg,1625504237778473758,1,0.1299,-0.5796,0.5618,532,-154.0527,-119.6289,31.7383,158,0.7664,0.7344,-1.2865,-50.6135,26,0.8314,8423,4.0128,-176.2691
rg,1625504237778491332,1,0.5659,-1.0564,0.6182,533,-156.0059,-105.0415,48.0957,158,0.7514,0.6273,-3.0887,-57.3211,26,0.8334,8271,4.0128,-171.6862
rg,1625504237778508388,1,0.5073,-1.5938,0.988,534,-66.2842,69.8853,57.373,158,0.7444,0.5823,-0.1632,-59.9513,26,0.8324,8815,4.0128,-172.8774
rg,1625504237778525332,1,0.387,-1.4849,0.7161,535,19.4702,101.1963,77.0264,158,0.7444,0.5533,4.0043,-59.3922,26,0.8334,9265,4.0128,-174.8325
rg,1625504237778542740,1,-0.0557,-1.3315,0.5957,536,77.0264,146.9116,-7.9956,158,0.7454,0.5383,6.7299,-57.0482,26,0.8324,10088,4.0128,-180.0398
rg,1625504237778559666,1,-0.6516,-0.9939,0.5835,537,142.7612,152.2217,-68.3594,158,0.7454,0.5253,8.87,-52.3276,26,0.8314,8349,4.0128,-186.6078
rg,1625504237778576443,1,-0.8796,-0.6731,0.1843,538,199.0967,62.8052,-26.062,158,0.7464,0.5233,11.2805,-45.3685,26,0.8304,8140,4.0128,170.7952
rg,1625504237778593388,1,-0.7195,-0.4014,0.0479,539,203.2471,-39.7949,-6.1035,158,0.7494,0.5243,11.7028,-37.7566,26,0.8294,8302,4.0128,-188.3237
rg,1625504237778610166,1,-0.4629,0.0256,0.0132,540,171.7529,-181.9458,-9.5215,158,0.7504,0.5203,7.7064,-30.1093,26,0.8274,8645,4.0128,-184.3369
rg,1625504237778627277,1,-0.196,0.0933,0.0166,541,67.9932,-222.3511,37.5366,158,0.7534,0.5163,2.6633,-25.9614,26,0.8264,8699,4.0128,-178.6056
rg,1625504237778644480,1,0.1235,-0.0862,0.0312,542,-90.1489,-250.7324,71.7163,158,0.7554,0.5183,-6.6031,-30.7515,26,0.8284,8430,4.0128,-171.3104
rg,1625504237778661999,1,0.2947,-0.24,0.1201,543,-174.5605,-264.0991,70.6787,158,0.7584,0.5193,-14.3733,-39.3992,26,0.8304,8992,4.0128,-162.7458
rg,1625504237778679129,1,1.1191,-1.5229,2.0247,544,-206.4209,-173.7061,41.3818,158,0.7624,0.5223,-18.5153,-49.304,26,0.8324,8559,4.0128,-156.4548
rg,1625504238287398332,1,0.0654,-0.6526,0.8669,545,45.7153,116.5161,-31.9214,158,0.7694,0.5243,-15.7381,-45.6293,26,0.8364,25697,4.0128,-161.0995
rg,1625504238287462739,1,-0.1755,-0.4902,0.4114,546,19.165,87.7686,-27.2827,158,0.7714,0.5233,-12.866,-44.2008,26,0.8374,9019,4.0128,-164.3961
rg,1625504238287484517,1,-0.2358,-0.5857,0.3584,547,-14.6484,53.1006,-27.8931,158,0.7734,0.5243,-10.9571,-44.8361,26,0.8384,7987,4.0128,-166.6167
rg,1625504238287504239,1,-0.2354,-0.946,0.697,548,-49.3774,-42.6636,-26.062,158,0.7754,0.5273,-12.0251,-47.242,26,0.8394,8435,4.0128,-166.0487
rg,1625504238287523517,1,0.0264,-1.05,0.6406,549,-12.207,-102.1729,-18.3716,158,0.7784,0.5273,-14.8668,-48.7862,26,0.8404,8448,4.0128,-163.3334
rg,1625504238287543110,1,0.26,-0.9148,0.554,550,25.8179,-100.2808,-6.0425,158,0.7824,0.5293,-17.6255,-48.9796,26,0.8424,8984,4.0128,-160.2438
rg,1625504238287561480,1,0.3582,-0.8411,0.5715,551,33.7524,-67.9932,-13.6108,158,0.7854,0.5353,-19.473,-48.195,26,0.8424,10939,4.0128,-159.1075
rg,1625504238287580795,1,0.2847,-0.8164,0.5581,552,34.79,-30.6396,-16.7847,158,0.7864,0.5373,-20.6549,-47.2631,26,0.8434,7604,4.0128,-158.5201
rg,1625504238287599369,1,0.178,-0.8369,0.5483,553,39.917,-18.9209,-15.3198,158,0.7904,0.5413,-21.2071,-46.1057,26,0.8444,7920,4.0128,-158.2361
rg,1625504238287617332,1,0.1292,-0.7588,0.4839,554,49.8047,-26.9775,-14.2212,158,0.7914,0.5433,-21.8646,-44.7326,26,0.8454,8050,4.0128,-157.6583
rg,1625504238287634813,1,0.1199,-0.6907,0.457,555,53.5889,-34.3628,-11.2305,158,0.7924,0.5453,-22.6384,-43.3409,26,0.8464,10419,4.0128,-156.7813
rg,1625504238287652610,1,0.1238,-0.6726,0.4861,556,52.9175,-37.1094,-10.1318,158,0.7934,0.5463,-23.4419,-41.9911,26,0.8464,8200,4.0128,-155.8224
rg,1625504238287670425,1,0.1509,-0.7126,0.5383,557,53.4058,-43.6401,-2.3804,158,0.7944,0.5483,-24.2748,-40.7974,26,0.8464,7934,4.0128,-154.4447
rg,1625504238287690091,1,0.272,-0.7305,0.5823,558,53.772,-47.4854,3.6621,158,0.7934,0.5493,-25.3148,-39.706,26,0.8474,7825,4.0128,-152.7821
rg,1625504238287708684,1,0.3145,-0.7427,0.5891,559,55.8472,-44.1284,5.5542,158,0.7944,0.5503,-26.2756,-38.5842,26,0.8464,8013,4.0128,-151.1381
rg,1625504238287727332,1,0.323,-0.7559,0.5947,560,60.2417,-25.8789,5.9814,158,0.7954,0.5503,-26.6583,-37.1341,26,0.8454,9011,4.0128,-149.9696
rg,1625504238287769869,1,0.2397,-0.7366,0.5747,561,63.2935,-13.2446,4.3945,158,0.7944,0.5503,-26.5276,-35.4642,26,0.8464,8308,4.0128,-149.1694
rg,1625504238287793554,1,0.1821,-0.7224,0.5803,562,64.6362,-14.4043,3.1738,158,0.7954,0.5493,-26.6033,-33.7217,26,0.8454,8117,4.0128,-148.357
rg,1625504238287812073,1,0.1658,-0.7078,0.5806,563,67.1387,-27.832,-3.0518,158,0.7944,0.5493,-27.0019,-32.0234,26,0.8444,8611,4.0128,-147.4559
rg,1625504238287831276,1,0.1599,-0.7004,0.5735,564,70.3735,-44.4946,-11.4136,158,0.7954,0.5483,-28.141,-30.2996,26,0.8444,8752,4.0128,-146.4756
rg,1625504238287849610,1,0.1958,-0.7136,0.6438,565,73.3032,-55.1147,-11.4136,158,0.7954,0.5483,-29.6736,-28.5231,26,0.8444,8446,4.0128,-145.3139
rg,1625504238287867795,1,0.1973,-0.7417,0.6914,566,79.4067,-53.2227,-11.2915,158,0.7964,0.5473,-31.0893,-26.5192,26,0.8454,8842,4.0128,-144.2129
rg,1625504238287885925,1,0.1746,-0.7312,0.6807,567,83.1299,-51.2695,-10.8643,158,0.7964,0.5463,-32.3416,-24.4084,26,0.8444,8168,4.0128,-143.1511
rg,1625504238287903887,1,0.1531,-0.6687,0.655,568,87.4023,-50.2319,-5.9814,158,0.7964,0.5453,-33.4644,-22.267,26,0.8444,8398,4.0128,-141.9239
rg,1625504238287921795,1,0.2412,-0.6338,0.6367,569,82.5195,-54.9927,0.9155,158,0.7974,0.5473,-34.8613,-20.5675,26,0.8444,8602,4.0128,-140.3312
rg,1625504238287940091,1,0.3064,-0.6792,0.6514,570,75.8057,-51.8799,-1.4038,158,0.7974,0.5473,-36.2843,-19.1609,26,0.8434,8443,4.0128,-138.8571
rg,1625504238287959184,1,0.3193,-0.6941,0.6685,571,76.5991,-48.2788,-3.1128,158,0.7984,0.5463,-37.419,-17.5008,26,0.8434,9334,4.0128,-137.7394
rg,1625504238287978350,1,0.2969,-0.698,0.6863,572,80.7495,-39.4287,-8.4229,158,0.7974,0.5463,-38.3773,-15.6793,26,0.8434,8680,4.0128,-136.7715
rg,1625504238287996591,1,0.2632,-0.667,0.7126,573,88.0127,-39.6729,-11.6577,158,0.7984,0.5473,-39.2817,-13.4354,26,0.8444,8385,4.0128,-136.0075
rg,1625504238288015925,1,0.2522,-0.6196,0.7705,574,96.7407,-45.9595,-12.5732,158,0.7994,0.5473,-40.3564,-10.7342,26,0.8424,9108,4.0128,-135.3362
rg,1625504238288035443,1,0.2734,-0.5452,0.8088,575,100.1587,-47.9736,-7.0801,158,0.7984,0.5463,-41.457,-7.9305,26,0.8434,8817,4.0128,-134.5199
rg,1625504238288079925,1,0.3582,-0.5205,0.8086,576,98.877,-46.2646,1.2817,158,0.7984,0.5453,-42.5974,-5.4499,26,0.8434,8745,4.0128,-133.335
rg,1625504238463573165,1,0.5002,-0.4819,0.8,577,87.0361,-13.0005,8.9111,158,0.7984,0.5423,-41.9592,-3.6305,26,0.8424,26716,4.0128,-132.0565
rg,1625504238463668461,1,0.3926,-0.4968,0.8267,578,80.8105,15.2588,6.2866,158,0.8004,0.5423,-40.7305,-1.9048,26,0.8424,8875,4.0128,-130.878
rg,1625504238463702776,1,0.2632,-0.512,0.8372,579,77.5146,20.813,2.2583,158,0.8004,0.5433,-39.1056,-0.2994,26,0.8424,8087,4.0128,-129.837
rg,1625504238463734461,1,0.2454,-0.5049,0.864,580,79.4067,5.7373,0.8545,158,0.8004,0.5443,-38.0968,1.4129,26,0.8424,8267,4.0128,-128.8757
rg,1625504238463766017,1,0.282,-0.5076,0.9148,581,79.5898,-5.4932,1.5869,158,0.8004,0.5423,-37.712,3.0762,26,0.8434,13522,4.0128,-127.8191
rg,1625504238463796832,1,0.3069,-0.5391,0.9539,582,81.4819,-7.3853,5.9204,158,0.8004,0.5423,-37.3816,4.6626,26,0.8434,7678,4.0128,-126.6166
rg,1625504238463823073,1,0.3049,-0.4915,0.9495,583,86.9141,-4.6997,10.5591,158,0.7994,0.5403,-36.9829,6.3555,26,0.8424,7878,4.0128,-125.2062
rg,1625504238463851702,1,0.2961,-0.4609,0.9436,584,87.5244,-3.0518,13.1226,158,0.7994,0.5383,-36.5545,7.9923,26,0.8414,7746,4.0128,-123.6733
rg,1625504238463877184,1,0.3,-0.4072,0.9385,585,84.2896,-3.418,17.2119,158,0.7994,0.5353,-36.2013,9.4423,26,0.8424,7935,4.0128,-121.9919
rg,1625504238463944591,1,0.3887,-0.3782,0.936,586,76.2329,-12.5732,22.644,158,0.7994,0.5333,-36.4401,10.5079,26,0.8414,9174,4.0128,-120.1664
rg,1625504238463976147,1,0.4355,-0.3765,0.9216,587,66.3452,-10.2539,19.043,158,0.7994,0.5323,-36.6737,11.2469,26,0.8414,8204,4.0128,-118.4855
rg,1625504238464004554,1,0.416,-0.3877,0.9666,588,63.3545,-6.2866,16.7236,158,0.7994,0.5313,-36.5664,11.8448,26,0.8404,8630,4.0128,-116.8386
rg,1625504238464034999,1,0.3184,-0.4106,1.0745,589,61.1572,0.6104,13.4888,158,0.7994,0.5323,-36.0438,12.4146,26,0.8404,8599,4.0128,-115.2869
rg,1625504238464061313,1,0.2891,-0.4375,1.1687,590,56.1523,-1.2817,16.4795,158,0.7984,0.5313,-35.5556,12.7086,26,0.8404,8088,4.0128,-113.6217
rg,1625504238464090110,1,0.3127,-0.4539,1.2207,591,54.5654,-4.0283,18.6157,158,0.7994,0.5323,-35.2287,12.9086,26,0.8414,8456,4.0128,-111.9022
rg,1625504238464117369,1,0.332,-0.4756,1.196,592,52.9785,-3.7231,19.5923,158,0.7984,0.5323,-34.9629,12.9769,26,0.8404,8149,4.0128,-110.1177
rg,1625504238464168684,1,0.3359,-0.4609,1.1404,593,51.3306,-0.8545,22.2778,158,0.7984,0.5313,-34.6514,12.8913,26,0.8404,8271,4.0128,-108.182
rg,1625504238464194165,1,0.3286,-0.3838,1.0864,594,50.1099,-1.9531,18.4326,158,0.7984,0.5313,-34.3503,12.9844,26,0.8404,8107,4.0128,-106.5141
rg,1625504238464219869,1,0.2542,-0.3191,1.0364,595,43.7012,-4.3945,14.8315,158,0.7984,0.5313,-33.9967,13.0152,26,0.8404,8832,4.0128,-105.0964
rg,1625504238464245461,1,0.2261,-0.2297,0.9543,596,27.8931,-18.5547,15.3809,158,0.8004,0.5293,-34.1618,12.6364,26,0.8414,16520,4.0128,-103.8983
rg,1625504238464272202,1,0.2585,-0.2354,0.9722,597,23.9258,-27.771,17.0898,158,0.7984,0.5293,-34.8217,12.0447,26,0.8414,8063,4.0128,-102.6708
rg,1625504238464297036,1,0.3367,-0.2993,0.9802,598,14.5874,-38.3301,17.0898,158,0.8004,0.5283,-35.9454,11.083,26,0.8404,8304,4.0128,-101.4896
rg,1625504238464322813,1,0.3879,-0.3621,1.0144,599,13.1836,-39.1846,11.9629,158,0.7994,0.5263,-37.0983,10.1142,26,0.8404,9972,4.0128,-100.4617
rg,1625504238464358369,1,0.3743,-0.3809,1.0488,600,17.0898,-25.9399,11.0474,158,0.7994,0.5273,-37.6302,9.2382,26,0.8404,10828,4.0128,-99.3099
rg,1625504238464388536,1,0.3416,-0.3784,1.0657,601,22.2778,-14.8926,16.6626,158,0.7994,0.5253,-37.663,8.3662,26,0.8404,8340,4.0128,-97.7816
rg,1625504238464414869,1,0.3701,-0.3679,1.0503,602,25.6958,-7.8125,22.644,158,0.7994,0.5253,-37.485,7.4703,26,0.8394,8297,4.0128,-95.9274
rg,1625504238464441350,1,0.3777,-0.3618,1.0286,603,26.4893,-3.3569,23.5596,158,0.8004,0.5223,-36.8719,6.6058,26,0.8394,8269,4.0128,-94.0542
rg,1625504238464468684,1,0.3271,-0.3411,1.0244,604,24.5361,8.3008,22.9492,158,0.7994,0.5213,-35.9759,5.7415,26,0.8404,8338,4.0128,-92.1858
rg,1625504238464495702,1,0.248,-0.3176,0.9988,605,24.1089,11.2915,22.0337,158,0.8004,0.5203,-34.8321,4.9731,26,0.8394,8701,4.0128,-90.4221
rg,1625504238464521628,1,0.1995,-0.3083,0.9836,606,20.6299,6.5918,19.165,158,0.8004,0.5193,-33.7991,4.2328,26,0.8404,8571,4.0128,-88.8826
rg,1625504238464589573,1,0.186,-0.2681,0.946,607,18.3716,-2.9907,16.4795,158,0.8004,0.5193,-33.1404,3.6206,26,0.8404,8590,4.0128,-87.5929
rg,1625504238464621461,1,0.1948,-0.2278,0.9153,608,17.2119,-8.0566,15.9302,158,0.8004,0.5163,-32.7495,3.1657,26,0.8414,8957,4.0128,-86.4504
rg,1625504238818346887,1,0.3691,-0.3201,1.0276,609,-2.9297,-26.9165,10.9253,158,0.8014,0.5153,-33.3584,1.9021,26,0.8404,23627,4.0128,-85.5021
rg,1625504238818386739,1,0.3118,-0.3018,0.9971,610,0.7935,-17.5171,8.9722,158,0.8014,0.5143,-33.4643,0.8734,26,0.8394,16975,4.0128,-84.6329
rg,1625504238818406924,1,0.2917,-0.2817,0.9673,611,1.1597,-18.3716,9.0942,158,0.8014,0.5133,-33.6648,-0.1137,26,0.8404,7524,4.0128,-83.7768
rg,1625504238818425813,1,0.3047,-0.2856,0.9509,612,-0.5493,-24.6582,9.2773,158,0.8014,0.5133,-34.0331,-1.1352,26,0.8394,8406,4.0128,-82.9045
rg,1625504238818444572,1,0.3428,-0.3057,0.9402,613,-1.8921,-24.292,9.0942,158,0.8014,0.5133,-34.4452,-2.2273,26,0.8394,8345,4.0128,-82.0097
rg,1625504238818462128,1,0.3433,-0.3252,0.9424,614,-2.0752,-23.1934,10.8032,158,0.8024,0.5123,-34.6028,-3.3383,26,0.8394,7609,4.0128,-80.9604
rg,1625504238818480054,1,0.3271,-0.3262,0.9404,615,2.0752,-15.0757,12.9395,158,0.8014,0.5123,-34.5608,-4.3484,26,0.8404,8696,4.0128,-79.8807
rg,1625504238818498054,1,0.2986,-0.334,0.9409,616,5.7373,-11.7798,14.7095,158,0.8014,0.5143,-34.3137,-5.2359,26,0.8394,7714,4.0128,-78.7314
rg,1625504238818514998,1,0.312,-0.3325,0.9282,617,9.3384,-10.2539,15.0757,158,0.8014,0.5143,-34.0358,-5.9486,26,0.8394,8491,4.0128,-77.5893
rg,1625504238818532758,1,0.3074,-0.322,0.928,618,10.376,-9.0332,14.4653,158,0.8034,0.5143,-33.6987,-6.5557,26,0.8394,8196,4.0128,-76.507
rg,1625504238818549387,1,0.3086,-0.3425,0.9453,619,11.7188,-6.897,14.7095,158,0.8024,0.5153,-33.2749,-7.0951,26,0.8394,8071,4.0128,-75.4333
rg,1625504238818567998,1,0.3125,-0.3477,0.9548,620,12.9395,-6.1646,14.4653,158,0.8034,0.5173,-32.8332,-7.549,26,0.8394,8570,4.0128,-74.3931
rg,1625504238818584609,1,0.2837,-0.3669,0.9287,621,17.2729,-6.4697,9.9487,158,0.8044,0.5183,-32.4,-7.7603,26,0.8394,8287,4.0128,-73.5417
rg,1625504238818648406,1,0.2642,-0.3286,0.9163,622,26.7334,-5.0659,11.9019,158,0.8034,0.5193,-31.8838,-7.5436,26,0.8394,8811,4.0128,-72.661
rg,1625504238818672109,1,0.2717,-0.2749,0.9502,623,26.6113,-4.5776,15.686,158,0.8034,0.5193,-31.3444,-7.2639,26,0.8394,8718,4.0128,-71.696
rg,1625504238818690017,1,0.2859,-0.25,0.9536,624,26.4893,-7.2021,16.4795,158,0.8034,0.5193,-30.9561,-6.9537,26,0.8394,8209,4.0128,-70.715
rg,1625504238818706850,1,0.3357,-0.2117,0.968,625,22.8271,-10.0708,20.6299,158,0.8034,0.5193,-30.7715,-6.7962,26,0.8404,8702,4.0128,-69.5812
rg,1625504238818726276,1,0.3735,-0.1958,0.946,626,16.9678,-9.0332,22.2778,158,0.8044,0.5183,-30.6389,-6.8794,26,0.8404,10874,4.0128,-68.3933
rg,1625504238818743202,1,0.3723,-0.1851,0.9209,627,7.8735,-5.5542,21.1182,158,0.8034,0.5183,-30.3942,-7.2648,26,0.8404,8106,4.0128,-67.2912
rg,1625504238818760276,1,0.3452,-0.2161,0.9397,628,-2.1973,-2.9297,20.2026,158,0.8044,0.5173,-29.978,-8.0685,26,0.8404,8277,4.0128,-66.2249
rg,1625504238818777295,1,0.3323,-0.2485,0.9531,629,-5.9204,-2.0142,19.4092,158,0.8034,0.5173,-29.4943,-9.028,26,0.8404,8444,4.0128,-65.1888
rg,1625504238818793813,1,0.3118,-0.2788,0.9434,630,-5.127,2.0142,18.5547,158,0.8054,0.5173,-28.8252,-9.9495,26,0.8404,7902,4.0128,-64.2111
rg,1625504238818811850,1,0.2769,-0.2942,0.9465,631,-2.8687,7.019,17.7612,158,0.8044,0.5173,-27.9046,-10.7256,26,0.8394,9356,4.0128,-63.3249
rg,1625504238818829054,1,0.2644,-0.2903,0.9534,632,-1.77,7.8735,18.4326,179,0.8044,0.5173,-26.9419,-11.403,26,0.8394,8683,3.9952,-62.4558
rg,1625504238818846202,1,0.2507,-0.293,0.9519,633,-1.4648,5.9814,17.7612,179,0.8044,0.5163,-26.0688,-12.0435,26,0.8394,8402,3.9952,-61.6161
rg,1625504238818876813,1,0.2573,-0.2913,0.9556,634,1.0376,0.3662,19.4702,179,0.8054,0.5163,-25.4281,-12.572,26,0.8394,8434,3.9952,-60.6853
rg,1625504238818895202,1,0.2766,-0.2781,0.9617,635,3.1128,-1.1597,19.4092,179,0.8054,0.5163,-24.9036,-12.9543,26,0.8404,8720,3.9952,-59.7747
rg,1625504238818912739,1,0.2849,-0.2722,0.9585,636,2.0752,-0.061,18.6768,179,0.8054,0.5163,-24.3781,-13.323,26,0.8394,8286,3.9952,-58.9243
rg,1625504238818947887,1,0.2759,-0.2659,0.9614,637,0.8545,0.1221,17.5171,179,0.8054,0.5163,-23.8049,-13.7142,26,0.8404,9098,3.9952,-58.1809
rg,1625504238818966221,1,0.2449,-0.283,0.9683,638,-0.4883,-0.7935,16.2964,179,0.8054,0.5163,-23.2734,-14.1163,26,0.8394,8691,3.9952,-57.4409
rg,1625504238818985906,1,0.2451,-0.2976,0.9622,639,1.5259,-5.188,16.1133,179,0.8064,0.5173,-22.9316,-14.4679,26,0.8404,8825,3.9952,-56.6571
rg,1625504238819003832,1,0.2527,-0.2913,0.9666,640,1.8921,-6.3477,14.6484,179,0.8064,0.5173,-22.6732,-14.7493,26,0.8404,8922,3.9952,-55.9366
rg,1625504239177160461,1,0.252,-0.282,0.9592,641,2.3804,-5.7373,13.4888,179,0.8074,0.5153,-22.3959,-14.9679,26,0.8404,30165,3.9952,-55.2723
rg,1625504239177215091,1,0.2581,-0.2681,0.9626,642,0.9155,-9.5825,13.916,179,0.8084,0.5153,-22.3015,-15.2135,26,0.8414,12470,3.9952,-54.5753
rg,1625504239177245554,1,0.2693,-0.2659,0.9658,643,0.1221,-9.2773,13.5498,179,0.8074,0.5153,-22.2223,-15.4657,26,0.8404,7587,3.9952,-53.9032
rg,1625504239177274480,1,0.2695,-0.2732,0.9563,644,-0.061,-9.6436,13.9771,179,0.8084,0.5163,-22.1575,-15.7452,26,0.8404,7530,3.9952,-53.2037
rg,1625504239177302683,1,0.2593,-0.2832,0.9663,645,-0.1221,-9.7656,13.6108,179,0.8084,0.5143,-22.114,-16.0304,26,0.8414,7585,3.9952,-52.4722
rg,1625504239177329998,1,0.251,-0.2852,0.9639,646,0.9155,-8.9722,12.3291,179,0.8094,0.5133,-21.9952,-16.2402,26,0.8404,7594,3.9952,-51.8479
rg,1625504239177356998,1,0.262,-0.2837,0.9617,647,0.6714,-9.8267,13.855,179,0.8084,0.5133,-21.9188,-16.4758,26,0.8404,7606,3.9952,-51.1537
rg,1625504239177384220,1,0.2617,-0.2832,0.967,648,1.4648,-10.3149,13.6108,179,0.8084,0.5133,-21.8805,-16.6932,26,0.8404,8806,3.9952,-50.4143
rg,1625504239177410998,1,0.2729,-0.2827,0.9634,649,2.0752,-10.9253,15.2588,179,0.8084,0.5123,-21.8517,-16.8769,26,0.8394,8345,3.9952,-49.6553
rg,1625504239177437091,1,0.2671,-0.2852,0.9678,650,3.0518,-11.2915,14.8926,179,0.8094,0.5123,-21.8254,-17.0127,26,0.8404,8137,3.9952,-48.9079
rg,1625504239177463591,1,0.26,-0.2778,0.9563,651,2.1973,-8.9111,12.5732,179,0.8094,0.5112,-21.7277,-17.1206,26,0.8404,8701,3.9952,-48.2914
rg,1625504239177523443,1,0.2563,-0.2776,0.958,652,1.77,-9.1553,13.4888,179,0.8104,0.5123,-21.6138,-17.2432,26,0.8404,8383,3.9952,-47.5876
rg,1625504239177551776,1,0.2546,-0.2607,0.9663,653,0.4883,-8.9111,13.5498,179,0.8094,0.5102,-21.4968,-17.3767,26,0.8414,7988,3.9952,-46.9515
rg,1625504239177578220,1,0.2661,-0.2739,0.9661,654,-0.6104,-12.207,17.6392,179,0.8104,0.5123,-21.4802,-17.6551,26,0.8404,8509,3.9952,-46.0955
rg,1625504239177605868,1,0.2737,-0.2827,0.9609,655,-0.6104,-12.4512,17.6392,179,0.8104,0.5112,-21.4865,-17.9469,26,0.8404,8418,3.9952,-45.2307
rg,1625504239177633220,1,0.2729,-0.2791,0.9614,656,0.4883,-10.8032,15.8081,179,0.8104,0.5112,-21.4484,-18.1391,26,0.8414,8299,3.9952,-44.469
rg,1625504239177659961,1,0.2593,-0.2827,0.9607,657,0.1221,-10.3149,14.2212,179,0.8104,0.5102,-21.3818,-18.3199,26,0.8414,7868,3.9952,-43.7779
rg,1625504239177686776,1,0.251,-0.2935,0.9622,658,-0.061,-11.5967,16.0522,179,0.8104,0.5102,-21.3207,-18.5565,26,0.8414,8275,3.9952,-42.9886
rg,1625504239177713554,1,0.2644,-0.291,0.9624,659,-0.5493,-10.8032,15.1978,179,0.8104,0.5092,-21.2686,-18.7803,26,0.8404,7930,3.9952,-42.2498
rg,1625504239177740554,1,0.2717,-0.2981,0.959,660,0.4272,-9.2163,14.1602,179,0.8104,0.5082,-21.1856,-18.9504,26,0.8414,8281,3.9952,-41.5712
rg,1625504239177767017,1,0.269,-0.2891,0.967,661,-0.061,-7.6904,13.5498,179,0.8114,0.5092,-21.0465,-19.0894,26,0.8404,7929,3.9952,-40.9505
rg,1625504239177792646,1,0.2539,-0.2898,0.9663,662,1.1597,-8.1787,13.916,179,0.8114,0.5102,-20.8939,-19.182,26,0.8414,8317,3.9952,-40.3096
rg,1625504239177818757,1,0.25,-0.2869,0.9751,663,1.0376,-8.728,13.3057,179,0.8114,0.5092,-20.7632,-19.2554,26,0.8414,7949,3.9952,-39.6916
rg,1625504239177844980,1,0.2629,-0.2776,0.9617,664,2.9297,-9.2773,13.4888,179,0.8114,0.5092,-20.6913,-19.2433,26,0.8414,9027,3.9952,-39.0636
rg,1625504239177870813,1,0.2676,-0.2849,0.9619,665,3.7231,-9.7656,14.4043,179,0.8114,0.5072,-20.6022,-19.2628,26,0.8414,8394,3.9952,-38.3988
rg,1625504239177897498,1,0.2642,-0.2825,0.9683,666,2.5635,-8.3008,13.7939,179,0.8114,0.5062,-20.4939,-19.2689,26,0.8414,8223,3.9952,-37.7704
rg,1625504239177923517,1,0.259,-0.2771,0.9651,667,2.8687,-8.667,14.0991,179,0.8114,0.5052,-20.3916,-19.2575,26,0.8414,9413,3.9952,-37.1283
rg,1625504239177949017,1,0.2629,-0.2708,0.959,668,1.9531,-7.9956,14.8926,179,0.8124,0.5042,-20.2702,-19.2793,26,0.8414,8320,3.9952,-36.4674
rg,1625504239177974776,1,0.2566,-0.2837,0.9663,669,1.0986,-7.9956,16.0522,179,0.8114,0.5032,-20.118,-19.3726,26,0.8414,8488,3.9952,-35.7522
rg,1625504239178000480,1,0.2563,-0.2852,0.967,670,1.4038,-7.6904,14.8315,179,0.8124,0.5032,-19.9745,-19.4326,26,0.8414,8696,3.9952,-35.0909
rg,1625504239178067683,1,0.2585,-0.2932,0.9651,671,2.9907,-8.1787,16.0522,179,0.8124,0.5032,-19.8423,-19.4634,26,0.8424,8522,3.9952,-34.368
rg,1625504239178108683,1,0.2515,-0.2876,0.9683,672,2.7466,-7.5073,15.1367,179,0.8114,0.5042,-19.6867,-19.4704,26,0.8414,8473,3.9952,-33.6972
rg,1625504239533370590,1,0.2617,-0.2869,0.9534,673,4.5166,-7.9346,15.9302,179,0.8124,0.5042,-19.5763,-19.418,26,0.8424,24314,3.9952,-32.9887
rg,1625504239533410109,1,0.2488,-0.2781,0.9661,674,4.0894,-6.3477,16.4185,179,0.8124,0.5042,-19.3687,-19.3616,26,0.8424,10512,3.9952,-32.2897
rg,1625504239533438442,1,0.2385,-0.2727,0.9724,675,4.8218,-5.7983,15.5029,179,0.8124,0.5042,-19.1381,-19.2446,26,0.8424,7930,3.9952,-31.6401
rg,1625504239533461405,1,0.2202,-0.2632,0.9719,676,4.1504,-6.2866,16.9678,179,0.8124,0.5032,-18.927,-19.1753,26,0.8424,8122,3.9952,-30.9024
rg,1625504239533485479,1,0.2339,-0.2634,0.9771,677,1.4038,-9.0332,16.9067,179,0.8134,0.5032,-18.8079,-19.2064,26,0.8424,7522,3.9952,-30.1576
rg,1625504239533507942,1,0.2568,-0.2874,0.9707,678,0.4272,-12.8784,16.6016,179,0.8134,0.5022,-18.8882,-19.346,26,0.8414,8454,3.9952,-29.3526
rg,1625504239533530127,1,0.2502,-0.2854,0.9675,679,2.2583,-10.5591,15.1367,179,0.8124,0.5022,-18.8844,-19.3758,26,0.8424,8094,3.9952,-28.6406
rg,1625504239533558350,1,0.241,-0.2842,0.9729,680,1.5259,-11.5967,15.9302,179,0.8124,0.5022,-18.8905,-19.4782,26,0.8424,8370,3.9952,-27.8729
rg,1625504239533585683,1,0.2395,-0.2905,0.9727,681,3.479,-11.5967,15.8691,179,0.8134,0.5022,-18.8885,-19.4759,26,0.8414,8084,3.9952,-27.1158
rg,1625504239533604424,1,0.248,-0.2993,0.9717,682,2.6855,-12.207,16.2354,179,0.8134,0.5022,-18.9211,-19.5332,26,0.8424,8198,3.9952,-26.3288
rg,1625504239533622276,1,0.2546,-0.2925,0.9673,683,2.5024,-11.3525,16.0522,179,0.8134,0.5012,-18.9236,-19.5244,26,0.8424,8099,3.9952,-25.5595
rg,1625504239533639627,1,0.261,-0.2825,0.9707,684,3.479,-10.3149,16.0522,179,0.8134,0.5022,-18.9169,-19.5014,26,0.8424,8058,3.9952,-24.8189
rg,1625504239533673350,1,0.2551,-0.281,0.9692,685,2.6855,-9.5825,16.1743,179,0.8134,0.5022,-18.8701,-19.5063,26,0.8424,8272,3.9952,-24.0844
rg,1625504239533691720,1,0.2673,-0.2776,0.9709,686,1.0986,-10.1929,16.4795,179,0.8134,0.5022,-18.8473,-19.6035,26,0.8424,7769,3.9952,-23.3218
rg,1625504239533709127,1,0.2634,-0.2856,0.9734,687,4.1504,-7.3853,15.1978,179,0.8134,0.5022,-18.7475,-19.5299,26,0.8414,8305,3.9952,-22.6562
rg,1625504239533727072,1,0.2476,-0.2883,0.9673,688,3.7231,-6.1035,16.1133,179,0.8134,0.5022,-18.5612,-19.4898,26,0.8434,8158,3.9952,-21.9687
rg,1625504239533744202,1,0.2478,-0.2971,0.98,689,4.2725,-9.5825,17.1509,179,0.8134,0.5022,-18.4923,-19.4673,26,0.8424,10392,3.9952,-21.1871
rg,1625504239533761109,1,0.3171,-0.25,0.959,690,3.9673,-10.1318,18.9819,179,0.8134,0.5022,-18.5884,-19.3962,26,0.8424,8451,3.9952,-20.3526
rg,1625504239533779368,1,0.3149,-0.2434,0.9639,691,3.479,-4.5166,19.4702,179,0.8134,0.5012,-18.3985,-19.3479,26,0.8424,8779,3.9952,-19.5709
rg,1625504239533797053,1,0.2607,-0.2827,0.9775,692,1.8311,1.709,18.2495,179,0.8144,0.5012,-17.9295,-19.3583,26,0.8424,8521,3.9952,-18.9129
rg,1625504239533814609,1,0.2144,-0.2852,0.9724,693,3.7231,2.2583,15.625,179,0.8134,0.5012,-17.3978,-19.2605,26,0.8414,8375,3.9952,-18.3647
rg,1625504239533832590,1,0.2234,-0.2732,0.9758,694,4.5776,0.4883,16.5405,179,0.8134,0.5012,-17.0318,-19.127,26,0.8424,8089,3.9952,-17.7156
rg,1625504239533850720,1,0.2334,-0.2766,0.98,695,3.8452,-3.7842,18.3716,179,0.8134,0.5002,-16.7676,-19.0589,26,0.8424,8393,3.9952,-16.9794
rg,1625504239533867683,1,0.2505,-0.2871,0.9724,696,4.0894,-4.1504,18.1885,179,0.8134,0.5012,-16.5686,-19.0081,26,0.8424,8570,3.9952,-16.2367
rg,1625504239533885053,1,0.2385,-0.2849,0.9785,697,6.0425,-1.5869,16.0522,179,0.8144,0.5012,-16.2823,-18.8358,26,0.8424,10150,3.9952,-15.6152
rg,1625504239533902202,1,0.217,-0.2776,0.9756,698,4.6387,-2.6245,15.1978,179,0.8154,0.5012,-16.016,-18.7032,26,0.8434,8427,3.9952,-15.0156
rg,1625504239533919220,1,0.2156,-0.2817,0.9695,699,4.8828,-4.8828,16.2964,179,0.8154,0.5022,-15.8296,-18.5844,26,0.8424,8231,3.9952,-14.3408
rg,1625504239533949850,1,0.2124,-0.2603,0.9746,700,5.249,-7.1411,15.8691,179,0.8154,0.5012,-15.7393,-18.4198,26,0.8434,8752,3.9952,-13.6621
rg,1625504239533969387,1,0.2295,-0.2559,0.9885,701,1.5869,-7.6294,16.8457,179,0.8144,0.5012,-15.6907,-18.4018,26,0.8424,8688,3.9952,-12.9417
rg,1625504239533987646,1,0.2253,-0.2795,0.9766,702,0.6714,-8.4229,15.7471,179,0.8154,0.5012,-15.6805,-18.4702,26,0.8424,8320,3.9952,-12.238
rg,1625504239534005887,1,0.2036,-0.2939,0.9807,703,1.0376,-8.1787,14.7705,179,0.8154,0.5012,-15.6229,-18.5379,26,0.8424,9143,3.9952,-11.5689
rg,1625504239534023072,1,0.2039,-0.2908,0.9841,704,1.8921,-10.5591,15.5029,179,0.8154,0.5012,-15.6654,-18.5666,26,0.8424,8385,3.9952,-10.845
rg,1625504239919778794,1,0.2239,-0.2834,0.969,705,2.6855,-12.6953,15.3809,179,0.8164,0.5032,-15.8293,-18.5515,27,0.8434,28134,3.9952,-10.1192
rg,1625504239919808331,1,0.2358,-0.2822,0.98,706,3.479,-12.7563,15.0146,179,0.8154,0.5032,-16.0056,-18.5167,27,0.8424,8496,3.9952,-9.3866
rg,1625504239919827998,1,0.2393,-0.2805,0.9766,707,3.1738,-12.146,15.0757,179,0.8154,0.5042,-16.1605,-18.4946,27,0.8434,9552,3.9952,-8.6595
rg,1625504239919846905,1,0.2324,-0.2859,0.9626,708,2.3804,-11.9629,14.7095,179,0.8164,0.5032,-16.2981,-18.5229,27,0.8434,8011,3.9952,-7.9431
rg,1625504239919864331,1,0.2383,-0.2822,0.9729,709,3.3569,-10.8032,13.855,179,0.8164,0.5042,-16.4028,-18.4674,26,0.8434,7684,3.9952,-7.2848
rg,1625504239919881387,1,0.2424,-0.2688,0.9863,710,4.2114,-11.8408,15.9912,179,0.8164,0.5042,-16.5269,-18.3938,26,0.8434,9982,3.9952,-6.5321
rg,1625504239919898090,1,0.2485,-0.2683,0.978,711,2.9907,-10.0708,15.0146,179,0.8154,0.5042,-16.6059,-18.3544,26,0.8434,7751,3.9952,-5.841
rg,1625504239919914516,1,0.2266,-0.2825,0.9839,712,3.2349,-10.0708,15.8081,179,0.8164,0.5032,-16.6207,-18.3431,26,0.8434,7803,3.9952,-5.1104
rg,1625504239919930775,1,0.2231,-0.2783,0.9846,713,2.1362,-9.7656,16.2964,179,0.8164,0.5042,-16.6103,-18.371,26,0.8424,8594,3.9952,-4.3671
rg,1625504239919947924,1,0.2214,-0.2749,0.9792,714,2.5024,-8.606,14.5874,179,0.8164,0.5042,-16.5771,-18.355,26,0.8434,8189,3.9952,-3.7083
rg,1625504239919964924,1,0.2341,-0.2812,0.9856,715,2.3193,-9.2773,13.916,179,0.8164,0.5042,-16.6022,-18.3519,26,0.8434,9038,3.9952,-3.0642
rg,1625504239920145164,1,0.2263,-0.2891,0.9795,716,3.1128,-10.9863,16.1133,179,0.8174,0.5042,-16.6482,-18.3698,26,0.8434,8406,3.9952,-2.3044
rg,1625504239920165387,1,0.2266,-0.2759,0.9834,717,4.3945,-10.1929,15.3198,179,0.8164,0.5042,-16.6735,-18.2932,26,0.8434,12611,3.9952,-1.5956
rg,1625504239920182553,1,0.2324,-0.281,0.969,718,3.9062,-10.9863,16.1133,179,0.8174,0.5042,-16.7367,-18.2721,26,0.8444,8231,3.9952,-0.8383
rg,1625504239920200461,1,0.2319,-0.2866,0.978,719,3.6011,-10.6812,15.9302,179,0.8174,0.5052,-16.7822,-18.268,26,0.8444,7894,3.9952,-0.0901
rg,1625504239920217812,1,0.2324,-0.2793,0.9751,720,4.6997,-9.4604,15.625,179,0.8174,0.5052,-16.7874,-18.1984,26,0.8444,8295,3.9952,0.626
rg,1625504239920235757,1,0.2319,-0.2646,0.9756,721,4.3945,-8.8501,15.1978,179,0.8174,0.5052,-16.7768,-18.104,26,0.8434,7836,3.9952,1.3082
rg,1625504239920253109,1,0.2278,-0.2764,0.9878,722,3.1738,-9.0332,16.4795,179,0.8164,0.5062,-16.7558,-18.0968,26,0.8434,9457,3.9952,2.0465
rg,1625504239920270257,1,0.2307,-0.283,0.9812,723,3.1738,-8.4229,15.3198,179,0.8174,0.5062,-16.7213,-18.0909,26,0.8444,8548,3.9952,2.7395
rg,1625504239920287590,1,0.2227,-0.2764,0.98,724,2.9907,-7.6904,16.2354,179,0.8174,0.5072,-16.6337,-18.0858,27,0.8434,8287,3.9952,3.4552
rg,1625504239920304812,1,0.2363,-0.2627,0.9741,725,2.8687,-8.8501,16.6626,179,0.8174,0.5082,-16.6222,-18.0681,27,0.8434,8862,3.9952,4.1954
rg,1625504239920322035,1,0.2292,-0.2676,0.9702,726,3.1128,-8.4839,15.9912,179,0.8184,0.5072,-16.574,-18.0595,27,0.8454,8442,3.9952,4.9073
rg,1625504239920339849,1,0.22,-0.2729,0.9822,727,2.9907,-7.5684,16.3574,179,0.8184,0.5082,-16.4804,-18.0457,27,0.8444,8395,3.9952,5.6238
rg,1625504239920357461,1,0.2107,-0.281,0.9817,728,2.7466,-8.3618,15.0757,179,0.8184,0.5072,-16.4158,-18.0474,26,0.8444,8453,3.9952,6.3047
rg,1625504239920374479,1,0.2251,-0.2832,0.9797,729,3.54,-8.4229,15.5029,179,0.8194,0.5082,-16.382,-18.028,26,0.8454,8609,3.9952,7.0051
rg,1625504239920391072,1,0.2341,-0.2817,0.9817,730,3.9673,-9.2773,16.2354,179,0.8194,0.5092,-16.3041,-18.0103,26,0.8454,8192,3.9952,7.7057
rg,1625504239920434442,1,0.2327,-0.28,0.9827,731,4.0283,-6.1646,16.2964,179,0.8184,0.5092,-16.1951,-17.9631,26,0.8444,8491,3.9952,8.4058
rg,1625504239920453479,1,0.2197,-0.2686,0.9678,732,4.5776,-4.7607,15.9912,179,0.8194,0.5092,-16.0227,-17.8697,26,0.8434,8566,3.9952,9.0715
rg,1625504239920470146,1,0.2195,-0.2686,0.9785,733,5.9204,-5.0659,17.0288,179,0.8194,0.5092,-15.8521,-17.7302,26,0.8454,8131,3.9952,9.7813
rg,1625504239920487072,1,0.2192,-0.2666,0.98,734,4.7607,-5.4932,17.2119,179,0.8204,0.5092,-15.7028,-17.6389,26,0.8454,8266,3.9952,10.5035
rg,1625504239920504757,1,0.2151,-0.2686,0.9888,735,3.1738,-4.8218,17.334,179,0.8204,0.5112,-15.5202,-17.6102,26,0.8454,8203,3.9952,11.2224
rg,1625504239920522349,1,0.2058,-0.2673,0.9888,736,3.3569,-5.7373,18.4937,179,0.8204,0.5112,-15.3466,-17.5856,26,0.8454,9579,3.9952,11.998
rg,1625504240323283386,1,0.2058,-0.2715,0.9824,737,3.2349,-7.3242,16.7847,179,0.8204,0.5112,-15.2716,-17.57,26,0.8454,25346,3.9952,12.6475
rg,1625504240323403979,1,0.198,-0.2681,0.9905,738,3.2959,-8.0566,14.1602,179,0.8194,0.5112,-15.2315,-17.5099,26,0.8454,8551,3.9952,13.2813
rg,1625504240323428997,1,0.21,-0.2842,0.9946,739,3.418,-9.5215,14.5264,179,0.8214,0.5123,-15.2662,-17.4882,26,0.8454,8731,3.9952,13.9569
rg,1625504240323448997,1,0.218,-0.2742,0.9773,740,3.1128,-9.0942,13.7939,179,0.8214,0.5123,-15.3181,-17.4602,26,0.8464,13882,3.9952,14.5956
rg,1625504240323469164,1,0.2129,-0.2666,0.9858,741,3.1128,-9.6436,15.2588,179,0.8214,0.5133,-15.358,-17.4293,26,0.8464,7627,3.9952,15.2937
rg,1625504240323487664,1,0.2124,-0.272,0.9827,742,3.418,-9.6436,15.3809,179,0.8214,0.5143,-15.3948,-17.4028,26,0.8454,8107,3.9952,16.0004
rg,1625504240323506368,1,0.2117,-0.2673,0.988,743,3.6011,-8.606,14.7095,179,0.8224,0.5143,-15.396,-17.3464,26,0.8464,8004,3.9952,16.6644
rg,1625504240323527016,1,0.2097,-0.2651,0.9897,744,4.0283,-8.9722,15.0146,179,0.8224,0.5133,-15.4036,-17.274,26,0.8464,8144,4.0106,17.3438
rg,1625504240323545497,1,0.2004,-0.2725,0.9961,745,1.77,-9.5215,16.3574,154,0.8214,0.5133,-15.3929,-17.3223,26,0.8464,8693,4.0106,18.0871
rg,1625504240323599090,1,0.2102,-0.2761,0.991,746,2.1973,-9.8877,15.3809,154,0.8214,0.5133,-15.4298,-17.3538,26,0.8464,7944,4.0106,18.7988
rg,1625504240323621368,1,0.2012,-0.2671,0.9805,747,2.1362,-9.8267,15.2588,154,0.8214,0.5133,-15.4167,-17.3463,26,0.8464,8504,4.0106,19.4945
rg,1625504240323640423,1,0.2,-0.2693,0.9998,748,2.3804,-10.6812,15.625,154,0.8214,0.5133,-15.4556,-17.355,26,0.8464,8702,4.0106,20.2203
rg,1625504240323658201,1,0.2097,-0.2722,0.991,749,2.5635,-10.8032,14.4653,154,0.8214,0.5133,-15.535,-17.3567,26,0.8474,8082,4.0106,20.9048
rg,1625504240323676312,1,0.2092,-0.2734,0.9934,750,2.0142,-10.2539,13.9771,154,0.8224,0.5133,-15.5939,-17.3751,26,0.8474,8585,4.0106,21.5636
rg,1625504240323693757,1,0.2117,-0.2722,0.9905,751,2.0142,-10.8643,13.855,154,0.8224,0.5133,-15.6885,-17.3932,26,0.8464,8362,4.0106,22.2249
rg,1625504240323711183,1,0.2195,-0.2761,0.9915,752,2.9297,-9.8877,13.9771,154,0.8224,0.5143,-15.7492,-17.3814,26,0.8464,8247,4.0106,22.881
rg,1625504240323728757,1,0.2168,-0.2737,0.9819,753,3.7231,-7.8125,14.0381,154,0.8234,0.5143,-15.727,-17.3329,26,0.8474,9075,4.0106,23.514
rg,1625504240323745775,1,0.2183,-0.2712,0.9854,754,3.6011,-9.2163,15.3809,154,0.8234,0.5143,-15.7454,-17.3029,26,0.8454,10111,4.0106,24.2161
rg,1625504240323763146,1,0.2178,-0.2727,0.9836,755,2.6245,-9.5215,15.7471,154,0.8234,0.5143,-15.7699,-17.3225,26,0.8474,8003,4.0106,24.938
rg,1625504240323780590,1,0.2043,-0.2683,0.9946,756,2.3193,-6.7139,14.4653,154,0.8234,0.5143,-15.6695,-17.3135,26,0.8474,11341,4.0106,25.5693
rg,1625504240323797571,1,0.199,-0.2698,0.9912,757,3.9673,-7.9956,16.3574,154,0.8234,0.5153,-15.6073,-17.2803,26,0.8474,7994,4.0106,26.2569
rg,1625504240323816590,1,0.2019,-0.2678,0.9956,758,3.7842,-7.9346,15.4419,154,0.8224,0.5143,-15.5434,-17.2257,26,0.8474,8543,4.0106,26.9419
rg,1625504240323836386,1,0.2078,-0.2656,0.9866,759,3.1128,-8.0566,15.4419,154,0.8224,0.5143,-15.5035,-17.2005,26,0.8464,8282,4.0106,27.629
rg,1625504240323854590,1,0.2021,-0.262,0.9922,760,2.9907,-7.9956,14.7095,154,0.8224,0.5163,-15.4581,-17.1613,27,0.8474,8972,4.0106,28.2833
rg,1625504240323907534,1,0.2,-0.2695,0.9956,761,3.1738,-9.2163,15.625,154,0.8224,0.5173,-15.4436,-17.144,27,0.8474,9003,4.0106,28.9932
rg,1625504240323930109,1,0.199,-0.2698,0.9934,762,2.9907,-10.6812,16.1743,154,0.8234,0.5173,-15.4514,-17.147,27,0.8484,9170,4.0106,29.6606
rg,1625504240323949275,1,0.2024,-0.272,0.9873,763,3.2349,-8.8501,14.4653,154,0.8234,0.5183,-15.4452,-17.1246,26,0.8484,8580,4.0106,30.3228
rg,1625504240323966423,1,0.2065,-0.2695,0.9902,764,2.9297,-8.728,14.4653,154,0.8234,0.5183,-15.4427,-17.1079,26,0.8484,8310,4.0106,30.9818
rg,1625504240323983034,1,0.21,-0.27,0.9878,765,3.0518,-9.1553,13.6108,154,0.8234,0.5173,-15.4751,-17.0821,26,0.8484,8584,4.0106,31.613
rg,1625504240324001590,1,0.2112,-0.2686,0.9863,766,2.9907,-8.9111,13.916,154,0.8234,0.5173,-15.4987,-17.0626,26,0.8484,8378,4.0106,32.2986
rg,1625504240324020460,1,0.2024,-0.2693,0.9929,767,3.0518,-9.2163,14.1602,154,0.8244,0.5183,-15.5072,-17.0404,26,0.8474,8625,4.0106,32.9515
rg,1625504240324038757,1,0.2031,-0.271,0.9873,768,1.8921,-8.5449,14.2212,154,0.8234,0.5173,-15.4926,-17.0708,26,0.8484,8363,4.0106,33.6007
rg,1625504240606646849,1,0.207,-0.2505,0.9814,769,2.5635,-9.2773,14.5874,154,0.8234,0.5183,-15.5157,-17.0381,26,0.8474,25756,4.0106,34.2619
rg,1625504240606676016,1,0.2112,-0.2605,0.9944,770,1.4038,-9.4604,14.6484,154,0.8234,0.5193,-15.513,-17.0744,26,0.8484,8587,4.0106,34.8959
rg,1625504240606695534,1,0.2019,-0.2749,0.9905,771,0.7935,-7.9956,14.2822,154,0.8234,0.5193,-15.4715,-17.1525,26,0.8484,8493,4.0106,35.5422
rg,1625504240606713571,1,0.1987,-0.2729,0.9866,772,2.3193,-7.6904,15.0146,154,0.8244,0.5193,-15.406,-17.1709,26,0.8484,8087,4.0106,36.2126
rg,1625504240606733405,1,0.1973,-0.259,0.9941,773,3.3569,-8.3618,15.2588,154,0.8244,0.5193,-15.3616,-17.1165,26,0.8484,8079,4.0106,36.8913
rg,1625504240606750849,1,0.2041,-0.2568,0.9919,774,3.6011,-8.3618,14.6484,154,0.8244,0.5213,-15.3426,-17.0444,26,0.8474,8548,4.0106,37.5453
rg,1625504240606767905,1,0.1948,-0.2683,0.9895,775,1.9531,-8.606,15.5029,154,0.8254,0.5203,-15.3036,-17.0765,26,0.8494,7968,4.0106,38.2437
rg,1625504240606804108,1,0.1929,-0.2627,0.9924,776,2.9907,-8.606,14.4653,154,0.8254,0.5213,-15.2737,-17.0407,26,0.8494,15213,4.0106,38.897
rg,1625504240606822071,1,0.1875,-0.2703,0.9895,777,3.0518,-8.606,13.855,154,0.8254,0.5213,-15.2339,-17.0318,26,0.8494,7751,4.0106,39.5429
rg,1625504240606838997,1,0.1953,-0.2656,0.9949,778,3.0518,-10.498,15.1978,154,0.8254,0.5213,-15.276,-17.0155,26,0.8494,10215,4.0106,40.2107
rg,1625504240606856349,1,0.1968,-0.2666,0.9973,779,2.5024,-9.6436,13.0005,154,0.8254,0.5223,-15.3104,-16.9953,26,0.8494,7737,4.0106,40.8205
rg,1625504240606872979,1,0.1973,-0.2686,0.9956,780,2.6855,-10.8032,13.7939,154,0.8254,0.5223,-15.38,-16.9865,26,0.8494,8017,4.0106,41.4776
rg,1625504240606890016,1,0.1973,-0.2639,0.9907,781,2.3804,-10.0708,13.4888,154,0.8264,0.5223,-15.4222,-16.9722,26,0.8504,7785,4.0106,42.1103
rg,1625504240606906738,1,0.2009,-0.2593,0.9968,782,1.6479,-9.4604,13.3667,154,0.8264,0.5223,-15.4497,-16.9772,26,0.8494,7970,4.0106,42.7288
rg,1625504240606923405,1,0.1997,-0.2649,0.9951,783,1.77,-9.5215,14.9536,154,0.8254,0.5233,-15.4572,-17.0074,26,0.8494,8292,4.0106,43.4145
rg,1625504240606940405,1,0.199,-0.2654,0.989,784,1.8921,-10.0708,15.3198,154,0.8264,0.5223,-15.4866,-17.0578,27,0.8494,8227,4.0106,44.0999
rg,1625504240606957312,1,0.2014,-0.2747,0.9944,785,2.1362,-9.2773,15.3809,154,0.8254,0.5233,-15.48,-17.0959,27,0.8504,8171,4.0106,44.8048
rg,1625504240606973775,1,0.1968,-0.2593,0.99,786,2.4414,-7.6904,15.3198,154,0.8254,0.5223,-15.4076,-17.0831,27,0.8504,8388,4.0106,45.4792
rg,1625504240606990201,1,0.1875,-0.2705,0.9885,787,2.5635,-8.1177,14.5874,154,0.8264,0.5223,-15.3424,-17.084,27,0.8494,8185,4.0106,46.1365
rg,1625504240607006256,1,0.1909,-0.2664,0.9946,788,2.1362,-7.3853,14.2822,154,0.8264,0.5223,-15.2609,-17.0829,26,0.8504,8427,4.0106,46.7693
rg,1625504240607022627,1,0.1921,-0.2634,0.9976,789,2.9907,-7.6294,14.1602,154,0.8254,0.5223,-15.1955,-17.0385,26,0.8504,8029,4.0106,47.398
rg,1625504240607039034,1,0.196,-0.2659,0.9873,790,3.1738,-8.728,14.4653,154,0.8234,0.5223,-15.1834,-17.0061,26,0.8494,8164,4.0106,48.0556
rg,1625504240607066312,1,0.1877,-0.2644,0.9846,791,2.8076,-9.7046,14.8926,154,0.8264,0.5223,-15.1876,-16.9953,26,0.8504,10241,4.0106,48.7417
rg,1625504240607083349,1,0.1897,-0.2615,0.9998,792,2.0142,-9.0332,14.0381,154,0.8264,0.5223,-15.1927,-17.0094,26,0.8504,8197,4.0106,49.3869
rg,1625504240607099738,1,0.1899,-0.259,0.9946,793,2.9907,-9.8267,14.4653,154,0.8264,0.5223,-15.208,-16.9698,26,0.8504,8152,4.0106,50.053
rg,1625504240607116071,1,0.1914,-0.2625,0.99,794,3.2349,-9.2773,13.7329,154,0.8274,0.5223,-15.2151,-16.923,26,0.8514,8276,4.0106,50.6863
rg,1625504240607132423,1,0.1843,-0.2583,0.9875,795,2.5635,-9.1553,13.3667,154,0.8274,0.5223,-15.2618,-16.9138,26,0.8514,8142,4.0106,51.3343
rg,1625504240607148497,1,0.1831,-0.2566,1.0044,796,2.4414,-10.8032,14.5874,154,0.8274,0.5223,-15.2933,-16.8943,26,0.8504,8298,4.0106,52.015
rg,1625504240607164738,1,0.1851,-0.2688,0.9976,797,1.5259,-11.5967,13.7329,154,0.8274,0.5223,-15.3687,-16.9367,26,0.8464,8206,4.0106,52.6797
rg,1625504240607181108,1,0.189,-0.2607,0.9912,798,1.4038,-12.3291,13.916,154,0.8274,0.5223,-15.4781,-16.9739,26,0.8514,8212,4.0106,53.3568
rg,1625504240607197127,1,0.1897,-0.2698,0.9941,799,0.9766,-11.5967,13.3057,154,0.8274,0.5223,-15.5612,-17.0369,26,0.8504,8377,4.0106,54.0056
rg,1625504240607213497,1,0.1882,-0.2708,0.9912,800,1.2207,-10.9863,14.1602,154,0.8274,0.5233,-15.6049,-17.0994,26,0.8514,8247,4.0106,54.6816
rg,1625504240991574441,1,0.1978,-0.2676,0.9902,801,1.5869,-11.5967,13.2446,154,0.8274,0.5223,-15.6826,-17.1121,27,0.8504,28103,4.0106,55.3333
rg,1625504240991604108,1,0.2004,-0.2615,0.9988,802,2.9297,-11.9629,14.3433,154,0.8274,0.5223,-15.7803,-17.0862,27,0.8514,8681,4.0106,56.0217
rg,1625504240991623719,1,0.2034,-0.2644,0.9956,803,2.0142,-11.9629,14.2212,154,0.8284,0.5233,-15.8826,-17.1059,27,0.8514,8006,4.0106,56.7079
rg,1625504240991641997,1,0.2012,-0.261,0.9937,804,1.77,-11.5356,14.2212,154,0.8274,0.5223,-15.9609,-17.128,27,0.8514,7913,4.0106,57.3871
rg,1625504240991659293,1,0.1924,-0.2725,0.9907,805,2.5635,-10.9863,14.1602,154,0.8274,0.5223,-15.9967,-17.1423,26,0.8514,8387,4.0106,58.0644
rg,1625504240991695367,1,0.189,-0.2649,0.9978,806,2.5635,-9.6436,13.6719,154,0.8274,0.5223,-15.9769,-17.1256,26,0.8504,8776,4.0106,58.7
rg,1625504240991713812,1,0.188,-0.2573,0.9954,807,2.3804,-10.9253,14.4653,154,0.8274,0.5223,-15.9938,-17.1271,26,0.8504,7921,4.0106,59.3822
rg,1625504240991730627,1,0.1838,-0.2607,1.0044,808,2.9297,-9.2163,12.5122,154,0.8274,0.5223,-15.9591,-17.0692,26,0.8514,8413,4.0106,59.9629
rg,1625504240991747719,1,0.1851,-0.2649,0.9983,809,2.1362,-11.0474,14.8926,154,0.8274,0.5223,-15.972,-17.09,26,0.8514,8399,4.0106,60.6646
rg,1625504240991764478,1,0.1873,-0.2571,0.9958,810,1.9531,-10.8643,13.7939,154,0.8274,0.5223,-15.9966,-17.0892,26,0.8514,8649,4.0106,61.316
rg,1625504240991780849,1,0.1921,-0.2622,0.9941,811,2.0142,-11.2915,13.7939,154,0.8274,0.5223,-16.0469,-17.1001,26,0.8514,8331,4.0106,61.9761
rg,1625504240991797256,1,0.1934,-0.2622,1.0012,812,1.8311,-10.9863,14.4653,154,0.8284,0.5213,-16.0754,-17.1207,26,0.8514,7930,4.0106,62.658
rg,1625504240991813571,1,0.1975,-0.2576,1.001,813,2.3193,-11.5967,13.6719,154,0.8284,0.5223,-16.1448,-17.105,26,0.8514,8292,4.0106,63.313
rg,1625504240991829812,1,0.197,-0.2612,0.9946,814,2.5024,-11.7188,13.0005,154,0.8284,0.5223,-16.2311,-17.1001,26,0.8514,8115,4.0106,63.9497
rg,1625504240991846108,1,0.2009,-0.2651,0.9963,815,1.77,-11.4136,13.7939,154,0.8284,0.5223,-16.2939,-17.1289,26,0.8514,8309,4.0106,64.6131
rg,1625504240991862238,1,0.1982,-0.2686,0.9949,816,2.1973,-9.8267,13.1836,154,0.8284,0.5223,-16.2952,-17.1358,26,0.8514,8287,4.0106,65.2348
rg,1625504240991878904,1,0.2,-0.2629,1.0002,817,1.9531,-10.0098,13.6719,154,0.8284,0.5223,-16.2814,-17.1145,26,0.8514,8572,4.0106,65.9024
rg,1625504240991895497,1,0.1938,-0.2588,1.0002,818,2.0142,-9.8877,14.2212,154,0.8284,0.5223,-16.2634,-17.1165,26,0.8514,8801,4.0106,66.5594
rg,1625504240991912127,1,0.1875,-0.2646,0.9922,819,1.6479,-8.606,14.7095,154,0.8284,0.5223,-16.1802,-17.1507,26,0.8514,8652,4.0106,67.2247
rg,1625504240991928664,1,0.1785,-0.262,0.9971,820,1.3428,-8.1787,14.4653,154,0.8284,0.5213,-16.066,-17.1816,26,0.8514,7897,4.0106,67.8721
rg,1625504240991955904,1,0.1741,-0.2654,0.9993,821,1.77,-8.2397,14.4653,154,0.8284,0.5213,-16.0404,-17.1935,26,0.8524,8409,4.0106,68.5169
rg,1625504240991972553,1,0.1807,-0.2639,1.0051,822,1.9531,-11.5967,15.2588,154,0.8284,0.5213,-16.0535,-17.2174,26,0.8524,7886,4.0106,69.2376
rg,1625504240991988793,1,0.1931,-0.272,1.0015,823,2.3804,-10.9863,13.2446,154,0.8284,0.5223,-16.0931,-17.2191,26,0.8524,8490,4.0106,69.876
rg,1625504240992004886,1,0.189,-0.2676,0.9946,824,1.5259,-11.3525,14.0991,154,0.8284,0.5223,-16.1291,-17.2604,26,0.8524,10531,4.0106,70.5515
rg,1625504240992020923,1,0.1846,-0.2659,0.999,825,1.5869,-11.3525,14.4653,154,0.8284,0.5223,-16.1482,-17.2957,26,0.8524,8352,4.0106,71.2395
rg,1625504240992036812,1,0.1973,-0.2625,0.9939,826,3.1128,-11.5356,15.0146,154,0.8284,0.5213,-16.1916,-17.2701,26,0.8524,8936,4.0106,71.9499
rg,1625504240992052886,1,0.1985,-0.262,0.9956,827,2.0752,-11.2305,15.564,154,0.8284,0.5213,-16.2216,-17.2918,26,0.8524,8511,4.0106,72.6783
rg,1625504240992068904,1,0.1982,-0.2659,0.9934,828,2.0752,-10.7422,14.2822,154,0.8284,0.5213,-16.2468,-17.3069,26,0.8524,8243,4.0106,73.3524
rg,1625504240992084904,1,0.1914,-0.2639,0.9966,829,2.5635,-11.4746,14.0991,154,0.8284,0.5213,-16.2855,-17.2967,26,0.8514,8511,4.0106,74.0266
rg,1625504240992100960,1,0.1907,-0.2686,0.9993,830,3.3569,-10.5591,14.1602,154,0.8294,0.5213,-16.2766,-17.317,26,0.8524,9051,4.0106,74.7273
rg,1625504240992116960,1,0.1865,-0.2654,0.9985,831,2.7466,-9.5825,13.4888,154,0.8284,0.5213,-16.2382,-17.2875,26,0.8524,9198,4.0106,75.3541
rg,1625504240992133404,1,0.1868,-0.2617,0.9956,832,2.0752,-9.5215,13.4277,154,0.8284,0.5223,-16.202,-17.2784,26,0.8524,8713,4.0106,75.976
rg,1625504241338138941,1,0.1855,-0.2639,0.988,833,1.77,-11.1694,15.686,154,0.8284,0.5213,-16.1683,-17.2796,26,0.8514,24400,4.0106,76.6223
rg,1625504241338185238,1,0.1899,-0.2551,0.9934,834,1.9531,-10.6812,14.8926,154,0.8284,0.5223,-16.17,-17.2822,26,0.8514,8655,4.0106,77.3132
rg,1625504241338205960,1,0.1887,-0.2607,0.9983,835,1.4648,-10.0708,15.0146,154,0.8284,0.5223,-16.1416,-17.3127,26,0.8514,8094,4.0106,78.004
rg,1625504241338257108,1,0.1938,-0.2637,0.9912,836,2.0142,-9.5215,13.9771,154,0.8294,0.5223,-16.1188,-17.317,26,0.8524,14594,4.0106,78.6494
rg,1625504241338279219,1,0.1865,-0.259,0.9983,837,2.0142,-9.9487,13.9771,154,0.8294,0.5213,-16.0955,-17.308,26,0.8524,7601,4.0106,79.296
rg,1625504241338298200,1,0.198,-0.2598,0.9954,838,2.6245,-11.4136,14.6484,154,0.8294,0.5223,-16.1463,-17.2911,26,0.8524,7823,4.0106,79.9887
rg,1625504241338316571,1,0.1936,-0.261,0.9937,839,1.8921,-10.1318,14.2212,154,0.8294,0.5223,-16.1427,-17.2988,26,0.8514,7611,4.0106,80.6495
rg,1625504241338335163,1,0.186,-0.2629,0.999,840,2.1973,-9.8877,14.0991,154,0.8294,0.5213,-16.1131,-17.2926,26,0.8524,7831,4.0106,81.3027
rg,1625504241338354108,1,0.1885,-0.2678,0.9944,841,2.5635,-9.0942,12.7563,154,0.8284,0.5213,-16.0769,-17.2676,26,0.8514,8781,4.0106,81.8963
rg,1625504241338371960,1,0.1821,-0.2659,0.9951,842,2.5024,-9.7656,13.2446,154,0.8284,0.5223,-16.0486,-17.2485,26,0.8514,8489,4.0106,82.5166
rg,1625504241338401275,1,0.1838,-0.2634,0.9963,843,2.5635,-10.0708,13.5498,154,0.8294,0.5213,-16.0731,-17.2411,26,0.8524,8488,4.0106,83.1504
rg,1625504241338420275,1,0.1887,-0.2622,1.0044,844,2.3804,-8.9722,12.8174,154,0.8294,0.5213,-16.0312,-17.2072,26,0.8514,8173,4.0106,83.7403
rg,1625504241338437515,1,0.1804,-0.2632,0.9915,845,2.0142,-9.3994,13.3667,154,0.8294,0.5213,-15.9879,-17.2057,26,0.8524,8124,4.0106,84.3602
rg,1625504241338454200,1,0.1814,-0.2703,0.9963,846,1.8921,-9.8267,13.3057,154,0.8284,0.5223,-15.9627,-17.2221,26,0.8524,10323,4.0106,84.9864
rg,1625504241338472089,1,0.1858,-0.2629,0.9895,847,1.4038,-10.6201,13.0005,154,0.8284,0.5223,-15.9847,-17.2449,26,0.8524,8413,4.0106,85.6069
rg,1625504241338489719,1,0.1846,-0.2642,0.999,848,2.7466,-11.5967,14.2212,154,0.8284,0.5213,-16.0212,-17.2273,26,0.8514,8314,4.0106,86.2871
rg,1625504241338507608,1,0.1829,-0.2585,1.009,849,2.5635,-10.6812,13.9771,154,0.8284,0.5213,-16.0193,-17.1942,26,0.8514,8400,4.0106,86.9413
rg,1625504241338524404,1,0.1873,-0.2656,0.9983,850,1.9531,-11.0474,14.0991,154,0.8294,0.5223,-16.0423,-17.211,26,0.8524,8032,4.0106,87.6113
rg,1625504241338559830,1,0.1899,-0.2634,0.9907,851,2.3193,-10.1318,13.6719,154,0.8294,0.5223,-16.0724,-17.1938,26,0.8524,8455,4.0106,88.2834
