name,time,activity,ax,ay,az,batch_val,gx,gy,gz,ibat,index,middle,pitch,roll,temp,thumb,ts,vbat,yaw
rg,1625526469374760814,1,0.0149,-0.0977,1.0159,1,10.498,-10.7422,9.3384,66,1.1646,1.2906,-0.3578,-5.5127,27,0.9405,19475,4.0854,-61.6838
rg,1625526469374801462,1,-0.0156,-0.0786,1.0273,2,9.1553,-12.207,7.0801,66,1.1636,1.2896,-0.7675,-5.1044,27,0.9385,8469,4.0854,-61.3566
rg,1625526469374837147,1,0.0193,-0.0273,1.0474,3,4.3945,-18.8599,9.8267,66,1.1646,1.2916,-1.4938,-4.7941,27,0.9415,7860,4.0854,-60.9016
rg,1625526469374857869,1,0.0457,-0.0071,1.0557,4,0.5493,-19.043,9.8877,66,1.1656,1.2936,-2.2559,-4.8482,27,0.9425,7922,4.0854,-60.3376
rg,1625526469374876443,1,0.0803,-0.0557,1.1089,5,-7.9346,-12.207,12.8174,66,1.1656,1.2936,-2.7701,-5.1095,27,0.9435,7876,4.0854,-59.7868
rg,1625526469374894795,1,0.0315,-0.1096,1.1382,6,-10.1929,-3.2959,10.0708,66,1.1646,1.2936,-2.8156,-5.5502,27,0.9415,7925,4.0854,-59.3724
rg,1625526469374912221,1,0.0024,-0.1189,1.1389,7,-9.7656,-4.0283,10.8643,66,1.1646,1.2936,-2.7707,-6.0008,27,0.9415,7953,4.0854,-58.9219
rg,1625526469374929777,1,-0.0542,-0.1362,1.1411,8,-8.9111,-10.498,9.5215,66,1.1586,1.2946,-2.9286,-6.4074,27,0.9405,8001,4.0854,-58.4965
rg,1625526469374947814,1,-0.0581,-0.145,1.1167,9,-6.1035,-25.6958,11.8408,66,1.1646,1.2956,-3.6588,-6.7221,27,0.9415,7995,4.0854,-57.9057
rg,1625526469374966462,1,-0.0374,-0.1482,1.0903,10,-3.6621,-36.1328,14.1602,66,1.1646,1.2956,-4.8757,-6.9562,27,0.9415,8043,4.0854,-57.1668
rg,1625526469374985980,1,0.0447,-0.1426,1.0649,11,-2.3804,-47.3022,14.8315,66,1.1616,1.2956,-6.5739,-7.1582,27,0.9435,8049,4.0854,-56.3387
rg,1625526469375004369,1,0.0869,-0.134,1.063,12,-2.3804,-45.0439,13.3057,66,1.1646,1.2966,-8.2093,-7.3503,27,0.9415,8089,4.0854,-55.5764
rg,1625526469375021499,1,0.0837,-0.1211,1.0674,13,-2.1362,-41.2598,11.6577,66,1.1646,1.2976,-9.6125,-7.4937,27,0.9405,8093,4.0854,-54.8989
rg,1625526469375038758,1,0.0725,-0.1035,1.0767,14,-1.0986,-38.3911,13.2446,66,1.1636,1.2976,-10.7647,-7.6286,27,0.9405,10670,4.0854,-54.1789
rg,1625526469375056184,1,0.0955,-0.1155,1.0828,15,-2.1973,-36.1328,16.4795,66,1.1626,1.2996,-11.873,-7.8217,27,0.9445,8153,4.0854,-53.3263
rg,1625526469375072999,1,0.1272,-0.1206,1.0723,16,-0.1831,-34.79,18.4326,66,1.1646,1.2986,-12.9385,-7.973,27,0.9405,8173,4.0854,-52.3945
rg,1625526469375090277,1,0.1497,-0.0906,1.0535,17,-0.3052,-32.3486,19.9585,66,1.1646,1.2996,-13.9078,-8.0915,27,0.9425,8254,4.0854,-51.4236
rg,1625526469375123869,1,0.1582,-0.0881,1.0496,18,-0.9766,-28.3813,19.7144,66,1.1646,1.2996,-14.7005,-8.2353,27,0.9415,8192,4.0854,-50.484
rg,1625526469375143277,1,0.1294,-0.0903,1.0505,19,-3.0518,-16.9678,15.564,66,1.1646,1.3006,-14.9726,-8.4089,27,0.9435,8185,4.0854,-49.7802
rg,1625526469375159832,1,0.0798,-0.0762,1.0725,20,-4.3945,-11.1694,17.1509,66,1.1646,1.2996,-14.887,-8.6026,27,0.9425,8251,4.0854,-49.0567
rg,1625526469375176999,1,0.0693,-0.0793,1.0732,21,-5.5542,-11.6577,17.2729,66,1.1646,1.3016,-14.7987,-8.8425,27,0.9415,8261,4.0854,-48.3244
rg,1625526469375194147,1,0.0955,-0.074,1.0789,22,-7.3853,-13.0615,21.4844,66,1.1656,1.3006,-14.7923,-9.1795,27,0.9435,8390,4.0854,-47.4149
rg,1625526469375211758,1,0.1001,-0.0928,1.0759,23,-8.2397,-9.0332,20.1416,66,1.1636,1.3006,-14.6399,-9.5562,27,0.9415,8350,4.0854,-46.5783
rg,1625526469375229499,1,0.0762,-0.0864,1.0754,24,-9.3384,-5.5542,18.8599,66,1.1646,1.3016,-14.2382,-9.9171,27,0.9415,8307,4.0854,-45.9327
rg,1625526469375247925,1,0.0493,-0.0947,1.0989,25,-10.5591,-4.4556,17.4561,66,1.1646,1.2986,-13.8299,-10.3114,27,0.9445,8351,4.0854,-45.2442
rg,1625526469375265573,1,0.0361,-0.0955,1.1096,26,-10.1929,-10.2539,16.1743,66,1.1636,1.3016,-13.6424,-10.6689,27,0.9415,8391,4.0854,-44.5671
rg,1625526469375285314,1,0.0474,-0.0845,1.123,27,-9.8877,-16.6016,16.1133,66,1.1646,1.3016,-13.7292,-10.9857,27,0.9425,8433,4.0854,-43.8499
rg,1625526469375302684,1,0.0525,-0.0837,1.1104,28,-9.3994,-20.2637,14.8926,66,1.1646,1.3026,-13.975,-11.2521,26,0.9425,8412,4.0854,-43.1568
rg,1625526469375320240,1,0.0488,-0.0776,1.116,29,-10.3149,-24.8413,14.2822,66,1.1666,1.3026,-14.3822,-11.5552,26,0.9405,8443,4.0854,-42.4496
rg,1625526469375339055,1,0.0422,-0.0828,1.1152,30,-11.2915,-28.1372,12.3291,66,1.1636,1.3036,-14.9009,-11.8895,26,0.9375,8468,4.0854,-41.7901
rg,1625526469375357962,1,0.0342,-0.0811,1.1079,31,-12.9395,-32.4707,10.8643,66,1.1636,1.3036,-15.5614,-12.2763,26,0.9405,8523,4.0854,-41.151
rg,1625526469375375573,1,0.0229,-0.0906,1.095,32,-14.6484,-36.5601,11.6577,66,1.1636,1.3046,-16.327,-12.7983,27,0.9405,8507,4.0854,-40.4249
rg,1625526471109436202,1,-0.0737,-0.8821,0.7551,33,-127.2583,-117.1265,1.2207,116,0.8204,0.6903,-20.1129,-19.7175,27,0.8574,25209,4.037,-38.6323
rg,1625526471109471165,1,0.2632,-1.3213,0.9568,34,-111.145,-179.0771,-0.8545,116,0.7874,0.6563,-26.3419,-26.704,27,0.8534,8671,4.037,-35.1374
rg,1625526471109490776,1,0.3728,-1.3132,0.8525,35,-76.5991,-176.4526,19.4702,116,0.7644,0.5833,-31.6154,-33.3379,27,0.8484,7869,4.037,-29.7829
rg,1625526471109509924,1,0.595,-1.083,0.6897,36,-20.752,-177.002,47.2412,116,0.7714,0.5443,-35.9781,-38.989,27,0.8484,7808,4.037,-22.3861
rg,1625526471109529294,1,0.6482,-0.9165,0.4409,37,90.1489,-103.5156,45.5322,116,0.7714,0.5263,-37.9699,-39.4467,27,0.8474,7988,4.037,-16.7298
rg,1625526471109547146,1,0.5803,-0.4358,0.1467,38,101.8677,-31.5552,31.6162,116,0.7704,0.5012,-38.8236,-37.731,27,0.8464,9322,4.037,-13.8885
rg,1625526471109564720,1,0.4146,-0.2332,0.0623,39,110.6567,9.0332,1.9531,116,0.7714,0.5002,-39.447,-34.0591,27,0.8464,7959,4.037,-13.5633
rg,1625526471109582405,1,0.2234,0.0027,0.0723,40,57.251,74.2188,-5.9204,116,0.7714,0.5082,-38.358,-29.7672,27,0.8404,7792,4.037,-16.2598
rg,1625526471109599553,1,0.1831,-0.1426,0.4033,41,-74.585,125.3662,25.5737,116,0.7724,0.5183,-32.9694,-31.0751,27,0.8434,8212,4.037,-18.6138
rg,1625526471109616868,1,0.2769,-0.4646,0.8347,42,-138.4888,134.0942,33.7524,116,0.7724,0.5313,-27.1251,-35.4368,27,0.8444,7873,4.037,-20.7984
rg,1625526471109633831,1,0.2039,-1.2883,0.9485,43,-132.5073,130.127,11.9019,116,0.7724,0.5393,-22.017,-40.1798,27,0.8464,8103,4.037,-23.5802
rg,1625526471109690998,1,0.0007,-1.4553,0.8088,44,-45.9595,81.4819,-9.2773,116,0.7754,0.5513,-19.0136,-41.9479,27,0.8504,7946,4.037,-25.8606
rg,1625526471109712202,1,-0.0581,-1.3103,0.9265,45,-3.1128,76.1108,-4.2114,116,0.7824,0.5683,-16.0734,-41.9052,27,0.8554,8129,4.037,-27.959
rg,1625526471109729739,1,-0.0901,-0.8425,0.9258,46,49.3164,36.499,19.043,116,0.7974,0.5813,-13.6927,-39.8471,27,0.8604,7930,4.037,-28.3373
rg,1625526471109746498,1,0.1047,-0.8711,0.6323,47,52.002,-33.5693,13.6719,116,0.8184,0.5983,-14.0742,-38.6494,27,0.8704,8072,4.037,-26.8865
rg,1625526471109773887,1,0.2317,-0.9211,0.6042,48,53.3447,-45.4102,14.2822,116,0.8364,0.6193,-15.0802,-37.6342,27,0.8734,7950,4.037,-25.0873
rg,1625526471109791702,1,0.2556,-0.7319,0.4182,49,56.8848,-28.0762,17.0288,116,0.8464,0.6353,-15.6731,-36.559,27,0.8754,8153,4.037,-23.5962
rg,1625526471109808109,1,0.1165,-0.5786,0.5691,50,-21.9116,-16.7236,12.5732,116,0.8334,0.6443,-15.6043,-38.0096,27,0.8734,7982,4.037,-22.6666
rg,1625526471109825368,1,0.1526,-0.7644,0.6821,51,-67.0166,-40.4053,4.9438,116,0.8004,0.6483,-16.435,-41.4264,27,0.8684,8221,4.037,-21.3294
rg,1625526471109842257,1,0.2063,-1.1326,0.7449,52,-90.6372,-74.585,-3.1738,116,0.7704,0.6103,-18.3643,-46.2644,27,0.8624,8045,4.037,-19.094
rg,1625526471109859442,1,0.311,-1.1943,0.8164,53,-66.4673,-97.1069,19.4702,116,0.7614,0.5513,-20.0999,-50.4795,27,0.8604,8230,4.037,-15.3577
rg,1625526471109876146,1,0.4749,-1.1729,0.9778,54,-28.0151,-104.187,27.771,116,0.7664,0.5283,-21.6714,-53.0859,27,0.8594,8062,4.037,-11.1236
rg,1625526471109894035,1,0.5525,-1.2432,0.5398,55,74.2188,-83.4961,64.0259,116,0.7674,0.5123,-21.6833,-52.3133,27,0.8584,8261,4.037,-6.4046
rg,1625526471109911165,1,0.4375,-0.7627,0.2424,56,132.2021,-23.5596,28.8086,116,0.7664,0.4912,-21.7188,-48.3419,27,0.8524,8283,4.037,-4.5768
rg,1625526471109929035,1,0.2375,-0.417,0.124,57,160.5835,4.0283,-0.1221,116,0.7664,0.4872,-21.9973,-41.1274,27,0.8514,8341,4.037,-5.5315
rg,1625526471109946591,1,0.0852,0.1167,0.1331,58,157.5317,32.4097,-1.2817,116,0.7674,0.4912,-20.9543,-33.725,27,0.8504,10664,4.037,-7.1875
rg,1625526471109964165,1,0.1023,0.0994,0.1177,59,56.0303,54.1382,27.2217,116,0.7684,0.5002,-19.5077,-29.4624,27,0.8504,8151,4.037,-8.153
rg,1625526471109982165,1,0.0977,-0.168,0.2273,60,-122.1313,50.415,23.4375,116,0.7684,0.5193,-17.2908,-34.5058,27,0.8524,8295,4.037,-8.3556
rg,1625526471109999535,1,0.4766,-1.2185,1.614,61,-214.4165,90.6372,9.7046,116,0.7684,0.5283,-14.0764,-42.5902,27,0.8544,8154,4.037,-10.3715
rg,1625526471110105183,1,0.1851,-1.5906,1.1396,62,-141.8457,134.4604,4.0283,116,0.7684,0.5343,-9.7124,-48.4029,27,0.8584,8449,4.037,-13.9686
rg,1625526471110127905,1,-0.0984,-1.5518,0.6992,63,-11.6577,72.5708,-16.8457,116,0.7744,0.5513,-7.8198,-49.1308,27,0.8624,8267,4.037,-16.5173
rg,1625526471110147109,1,-0.1765,-0.8523,1.2083,64,62.0728,55.603,-12.4512,116,0.7904,0.5643,-6.1264,-45.8563,27,0.8694,8480,4.037,-18.5687
rg,1625526471462644683,1,0.2451,-0.8818,0.5437,65,61.8286,-73.8525,13.1836,116,0.8594,0.6203,-7.7133,-43.7834,27,0.8794,25658,4.037,-16.4804
rg,1625526471462687294,1,0.2417,-0.5139,0.425,66,53.772,0.1831,9.9487,116,0.8814,0.6453,-7.9181,-41.9147,27,0.8804,11063,4.037,-16.1685
rg,1625526471462707535,1,0.1836,-0.8589,0.7378,67,-97.0459,-31.5552,10.376,116,0.8284,0.6593,-8.5811,-46.2383,27,0.8724,12551,4.037,-14.9382
rg,1625526471462727535,1,0.2188,-1.1257,0.8237,68,-98.7549,-47.6074,-3.9062,116,0.7924,0.6503,-9.964,-50.682,27,0.8654,7870,4.037,-13.5525
rg,1625526471462745720,1,0.2827,-1.166,0.7996,69,-60.2417,-52.7344,21.1792,116,0.7634,0.5863,-10.6318,-53.6647,27,0.8584,8158,4.037,-11.2972
rg,1625526471462763535,1,0.334,-1.1108,0.769,70,-52.3071,-70.8618,27.0996,116,0.7584,0.5343,-11.4839,-56.381,27,0.8574,7771,4.0392,-8.2841
rg,1625526471462781572,1,0.3721,-0.9617,0.865,71,20.874,-59.9365,18.3716,123,0.7634,0.5123,-12.3863,-55.7182,27,0.8574,7960,4.0392,-5.8991
rg,1625526471462799590,1,0.3813,-0.853,0.4773,72,68.3594,-50.354,51.0254,123,0.7644,0.4882,-12.2279,-53.7832,27,0.8544,7885,4.0392,-2.9808
rg,1625526471462816831,1,0.2954,-0.6948,0.3882,73,70.6177,-22.9492,26.4282,123,0.7654,0.4752,-12.2644,-51.5156,27,0.8534,8109,4.0392,-1.532
rg,1625526471462834887,1,-0.0076,-0.2795,0.2283,74,106.0791,-10.498,-21.9116,123,0.7654,0.4742,-12.6688,-47.19,27,0.8514,7884,4.0392,-1.7748
rg,1625526471462853276,1,-0.0813,-0.0188,0.2085,75,76.4771,-15.2588,-4.0283,123,0.7674,0.4862,-12.0534,-42.7605,27,0.8514,10590,4.0392,-1.7226
rg,1625526471462870924,1,0.0286,-0.0867,0.3379,76,-46.6309,-62.561,29.6631,123,0.7674,0.5022,-12.8121,-44.0789,27,0.8514,7897,4.0392,0.6874
rg,1625526471462888238,1,0.2019,-0.415,0.6089,77,-117.1875,-89.8438,30.5786,123,0.7684,0.5112,-14.6434,-49.4177,27,0.8534,8009,4.0392,4.217
rg,1625526471462905701,1,0.5525,-1.5452,0.9119,78,-77.4536,-9.0942,15.3809,123,0.7694,0.5313,-14.4904,-53.0625,27,0.8584,11775,4.0392,5.0069
rg,1625526471462922479,1,0.5156,-1.479,0.7166,79,-25.9399,-1.5869,11.5967,123,0.7764,0.5483,-14.2731,-54.3861,27,0.8644,8156,4.0392,5.3947
rg,1625526471462939683,1,0.3945,-1.0408,0.8821,80,45.6543,66.5283,-4.4556,123,0.7934,0.5643,-12.901,-51.8267,27,0.8724,7992,4.0392,3.0409
rg,1625526471462982072,1,0.1531,-0.656,0.6682,81,65.4297,92.1631,8.9722,123,0.8164,0.5843,-10.135,-48.3814,27,0.8784,8145,4.0392,0.32
rg,1625526471463002109,1,0.1084,-0.7356,0.5315,82,56.4575,75.6836,5.7983,123,0.8454,0.6053,-7.8152,-46.1865,26,0.8824,8034,4.0392,-1.7069
rg,1625526471463018794,1,0.0881,-0.9189,0.5203,83,42.2363,51.9409,-3.54,123,0.8724,0.6283,-6.3572,-44.8574,26,0.8844,8901,4.0392,-3.2264
rg,1625526471463035813,1,-0.0508,-0.7034,0.5759,84,38.269,48.7061,1.3428,123,0.8854,0.6443,-4.5532,-43.4257,26,0.8854,8547,4.0392,-4.5235
rg,1625526471463052405,1,-0.1545,-0.6985,0.6616,85,-41.8091,-7.2021,9.8877,123,0.8694,0.6563,-3.9451,-45.2415,26,0.8854,8263,4.0392,-4.0365
rg,1625526471463069627,1,-0.0144,-0.9121,0.7461,86,-85.7544,-71.167,4.9438,123,0.8224,0.6623,-5.5393,-49.0528,27,0.8774,8105,4.0392,-1.796
rg,1625526471463086868,1,0.1758,-1.1506,0.698,87,-79.4067,-131.958,-4.2725,123,0.7814,0.6203,-9.0389,-53.1044,27,0.8744,8272,4.0392,2.2784
rg,1625526471463104461,1,0.3386,-1.0874,0.6934,88,-53.7109,-130.5542,27.71,123,0.7554,0.5363,-11.3529,-56.2901,27,0.8644,8157,4.0392,7.2916
rg,1625526471463121720,1,0.4329,-1.011,0.687,89,-37.4146,-132.2021,41.0767,123,0.7624,0.4932,-12.8617,-56.8863,27,0.8684,8398,4.0392,12.1157
rg,1625526471463140294,1,0.4971,-1.0061,0.6167,90,66.2842,-72.5708,48.4619,123,0.7644,0.4702,-13.2589,-55.0973,27,0.8644,8233,4.0392,15.7008
rg,1625526471463157331,1,0.572,-0.7261,0.2834,91,85.8154,-44.7388,46.2036,123,0.7644,0.4542,-13.7115,-52.7069,27,0.8584,8432,4.0392,18.3831
rg,1625526471463174609,1,0.189,-0.2285,0.0808,92,131.1035,2.9297,-27.771,123,0.7644,0.4512,-15.4412,-47.8134,27,0.8594,8208,4.0392,17.6469
rg,1625526471463191831,1,0.1165,-0.0178,0.123,93,120.3613,19.4092,-25.8789,123,0.7654,0.4472,-16.7532,-41.5198,27,0.8564,8440,4.0392,15.9492
rg,1625526471463208998,1,0.0925,0.103,0.23,94,24.353,60.4858,20.6299,123,0.7674,0.4612,-14.8583,-38.2602,27,0.8564,9439,4.0392,14.3852
rg,1625526471463226127,1,0.2759,-0.3223,0.6648,95,-144.104,44.0063,38.147,123,0.7684,0.4702,-12.7761,-43.5287,27,0.8574,10366,4.0392,14.2677
rg,1625526471463243368,1,0.4541,-1.3108,1.165,96,-164.3677,78.8574,11.6577,123,0.7704,0.4832,-10.3573,-49.857,27,0.8594,8836,4.0392,12.2921
rg,1625526471829935664,1,-0.1033,-0.7935,0.9629,97,38.5742,47.9126,3.3569,123,0.7954,0.5303,-8.4144,-47.6704,27,0.8774,26287,4.0392,10.8539
rg,1625526471830157738,1,0.1848,-0.9355,0.5837,98,37.9639,-43.457,17.6392,123,0.8364,0.5783,-9.1169,-46.8233,27,0.8874,13307,4.0392,12.6896
rg,1625526471830250831,1,0.3291,-0.8896,0.4861,99,53.4058,-35.6445,18.3716,123,0.8624,0.6033,-9.9289,-45.4887,27,0.8894,10596,4.0392,14.3304
rg,1625526471830275738,1,0.2595,-0.666,0.5076,100,36.438,-14.4043,2.9907,123,0.8694,0.6253,-10.5389,-44.3885,27,0.8914,11167,4.0392,14.8734
rg,1625526471830298257,1,0.1689,-0.7781,0.6775,101,0.4883,-7.9956,5.188,123,0.8444,0.6373,-10.7224,-46.604,27,0.8864,7934,4.0392,15.6532
rg,1625526471830317979,1,0.2195,-0.9888,0.7402,102,-81.1768,-35.8887,4.3335,123,0.8034,0.6413,-11.9142,-50.6889,27,0.8794,7755,4.0392,17.0112
rg,1625526471830336331,1,0.1985,-1.1943,0.6934,103,-70.4346,-50.9033,-1.4648,123,0.7724,0.5913,-13.0454,-54.2038,27,0.8734,7736,4.0392,18.7007
rg,1625526471830354868,1,0.2393,-1.1274,0.7246,104,-49.3774,-63.0493,18.4937,123,0.7564,0.5163,-13.7338,-56.8799,27,0.8684,8003,4.0392,21.293
rg,1625526471830372109,1,0.29,-0.9753,0.8174,105,38.147,-45.6543,23.7427,123,0.7654,0.4852,-13.9177,-55.5764,27,0.8714,9107,4.0392,23.333
rg,1625526471830390720,1,0.2776,-0.9492,0.5085,106,84.5947,-47.1191,46.3867,123,0.7664,0.4542,-13.5263,-53.0725,27,0.8674,7991,4.0392,26.0768
rg,1625526471830408442,1,0.2712,-0.6768,0.3413,107,90.8203,-25.6958,24.7192,123,0.7654,0.4412,-13.6363,-50.166,27,0.8624,7863,4.0392,27.6178
rg,1625526471830428442,1,-0.0117,-0.24,0.2197,108,108.7646,-9.3994,-6.4087,123,0.7664,0.4362,-13.7505,-45.0531,27,0.8664,8002,4.0392,27.3109
rg,1625526471830472312,1,-0.0718,-0.0725,0.2036,109,123.1689,-10.9253,-11.7188,123,0.7664,0.4412,-13.2183,-39.1834,27,0.8654,7949,4.0392,27.0904
rg,1625526471830492516,1,0.0122,0.0596,0.1665,110,62.1948,-53.2837,29.1138,123,0.7694,0.4492,-14.0711,-35.2425,27,0.8624,8296,4.0392,28.9152
rg,1625526471830509460,1,0.2935,-0.1516,0.3918,111,-95.459,-100.8301,50.5371,123,0.7704,0.4682,-16.8468,-39.7023,27,0.8624,8473,4.0392,33.0409
rg,1625526471830527257,1,0.8945,-1.2185,1.4443,112,-172.4854,-34.668,29.2358,123,0.7704,0.4882,-17.3745,-47.1444,27,0.8684,8140,4.0392,34.9484
rg,1625526471830544498,1,0.7031,-1.5137,1.0266,113,-110.7788,34.0576,17.7002,123,0.7704,0.5002,-16.1021,-51.7143,27,0.8724,8015,4.0392,34.4481
rg,1625526471830562590,1,0.4827,-1.425,0.7104,114,-14.7705,65.2466,-6.897,123,0.7774,0.5173,-14.7597,-52.1375,27,0.8794,8411,4.0392,32.2615
rg,1625526471830580460,1,0.2524,-0.8567,0.9346,115,53.894,140.564,4.2725,123,0.7924,0.5383,-10.9332,-48.6294,27,0.8844,8067,4.0392,27.8288
rg,1625526471830600257,1,0.1113,-0.6128,0.7703,116,62.3169,145.9961,14.8926,123,0.8144,0.5633,-6.361,-45.1448,27,0.8904,8180,4.0392,23.8499
rg,1625526471830617775,1,-0.0168,-0.6814,0.4353,117,34.79,87.4634,9.5825,123,0.8384,0.5843,-3.3228,-44.0454,27,0.8934,8046,4.0392,21.7096
rg,1625526471830637423,1,0.0352,-0.9243,0.594,118,12.3291,45.2881,6.4087,123,0.8594,0.6023,-1.7935,-44.0154,27,0.8964,8243,4.0392,20.6603
rg,1625526471830655460,1,-0.002,-0.9241,0.5613,119,18.4326,34.729,4.8828,123,0.8684,0.6183,-0.5376,-43.6504,27,0.8974,8115,4.0392,19.8493
rg,1625526471830672831,1,-0.0522,-0.8018,0.6804,120,-12.2681,-6.6528,5.3711,123,0.8624,0.6293,-0.4448,-44.3707,27,0.8954,8206,4.0392,20.1904
rg,1625526471830728201,1,0.1125,-1.0508,0.7668,121,-70.1294,-75.1343,3.6621,123,0.8264,0.6393,-2.5926,-47.5915,27,0.8864,8160,4.0392,22.4649
rg,1625526471830749960,1,0.1274,-1.1108,0.7219,122,-62.3779,-92.4683,-1.77,123,0.7954,0.6173,-5.3127,-49.9285,27,0.8804,8185,4.0392,25.6152
rg,1625526471830768868,1,0.2488,-1.0759,0.6511,123,-28.3203,-105.5298,18.1274,123,0.7644,0.5363,-7.6293,-51.8177,27,0.8754,8386,4.0392,29.4091
rg,1625526471830787794,1,0.3223,-0.9438,0.5933,124,-10.1318,-109.1919,36.1938,123,0.7614,0.4912,-9.4606,-53.0964,27,0.8754,8803,4.0392,33.8372
rg,1625526471831576720,1,0.304,-0.8936,0.6643,125,67.8711,-50.5371,28.9917,123,0.7664,0.4662,-10.0139,-50.7815,27,0.8784,8415,4.0392,36.172
rg,1625526471831643368,1,0.356,-0.8359,0.4924,126,88.6841,-46.3257,52.3071,123,0.7674,0.4472,-9.8828,-48.2624,27,0.8764,8257,4.0392,38.6549
rg,1625526471831676627,1,0.2285,-0.4924,0.314,127,90.6372,-12.2681,18.5547,123,0.7674,0.4352,-10.133,-45.1297,27,0.8764,8416,4.0392,39.5773
rg,1625526471831747794,1,-0.0017,-0.1133,0.1697,128,117.5537,-18.1274,-12.085,123,0.7674,0.4362,-10.5753,-40.004,27,0.8704,8308,4.0392,39.6531
rg,1625526472232319868,1,0.575,-0.5916,1.0354,129,-180.9692,-40.1611,45.0439,123,0.7714,0.4822,-11.0879,-47.3057,27,0.8774,26241,4.0392,42.0721
rg,1625526472232360034,1,0.4624,-1.5808,0.7415,130,-85.022,76.416,-5.7983,123,0.7784,0.5173,-9.4372,-50.9142,27,0.8844,15139,4.0392,39.6999
rg,1625526472232380534,1,0.2153,-1.385,1.0261,131,-1.8921,136.7188,-16.3574,123,0.7944,0.5393,-6.4072,-50.4318,27,0.8904,8028,4.0392,35.0216
rg,1625526472232399682,1,0.0605,-1.0879,1.0627,132,41.626,150.8179,-4.2725,123,0.8194,0.5613,-2.4079,-47.3087,27,0.8964,7992,4.0392,31.2051
rg,1625526472232417923,1,-0.1787,-0.7661,0.5752,133,70.3125,81.9092,8.4839,123,0.8434,0.5833,0.6059,-44.6843,27,0.8994,7943,4.0392,29.1014
rg,1625526472232435831,1,-0.0349,-0.7507,0.4922,134,44.3115,-8.5449,11.1084,123,0.8604,0.6023,0.7347,-43.374,27,0.9014,7743,4.0392,29.6542
rg,1625526472232453868,1,0.0469,-0.7803,0.5906,135,20.4468,-26.062,12.8784,123,0.8634,0.6153,-0.2191,-44.2694,27,0.9004,9071,4.0392,31.1218
rg,1625526472232471608,1,0.1277,-0.9072,0.6877,136,-57.8003,-72.6318,10.8032,123,0.8334,0.6243,-2.1747,-46.9509,27,0.8924,7945,4.0392,33.51
rg,1625526472232489479,1,0.2151,-1.1687,0.7502,137,-69.7021,-116.8213,-11.3525,123,0.8004,0.6173,-5.8427,-50.3506,27,0.8824,8417,4.0392,36.753
rg,1625526472232507127,1,0.2263,-1.0789,0.5603,138,-28.2593,-121.7651,15.1978,123,0.7734,0.5423,-8.5735,-52.473,27,0.8774,8277,4.0392,41.0268
rg,1625526472232524349,1,0.3154,-1.0044,0.5293,139,-7.1411,-127.6245,30.3345,123,0.7644,0.4862,-11.104,-53.7589,27,0.8764,8482,4.0392,45.9411
rg,1625526472232542368,1,0.5078,-0.8765,0.8208,140,39.978,-91.4307,42.9077,123,0.7704,0.4642,-12.3686,-52.7173,27,0.8784,8839,4.0392,49.9257
rg,1625526472232559905,1,0.5149,-0.834,0.4141,141,82.8247,-52.063,68.8477,123,0.7714,0.4412,-12.1514,-50.509,27,0.8784,8186,4.0392,53.4078
rg,1625526472232601831,1,0.2839,-0.478,0.1899,142,106.3232,-7.019,8.1177,123,0.7704,0.4292,-12.766,-46.9689,27,0.8774,8611,4.0392,53.9497
rg,1625526472232623071,1,0.1343,-0.2458,0.1331,143,119.1406,8.0566,-13.1226,123,0.7714,0.4332,-12.7345,-41.5258,27,0.8764,8822,4.0392,52.9039
rg,1625526472232641219,1,0.0295,0.0127,0.1553,144,93.75,28.1372,3.6011,123,0.7734,0.4442,-11.8259,-36.0063,27,0.8774,8619,4.0392,51.9255
rg,1625526472232659442,1,0.3298,-0.2681,0.6211,145,-113.1592,11.6577,44.4336,123,0.7744,0.4662,-10.9305,-40.2816,27,0.8794,12428,4.0392,52.9782
rg,1625526472232677257,1,0.5393,-0.7756,1.0598,146,-167.1143,32.6538,32.5317,123,0.7744,0.4812,-8.4437,-46.5759,27,0.8824,8458,4.0392,51.2376
rg,1625526472232694257,1,0.3359,-1.4316,0.8811,147,-112.6099,116.4551,2.6245,123,0.7774,0.4922,-5.4367,-51.0963,27,0.8864,7960,4.0392,47.8422
rg,1625526472232711571,1,0.0542,-1.2935,0.8333,148,-30.0903,121.3989,-22.644,123,0.7854,0.5133,-3.0186,-52.2042,27,0.8904,8125,4.0392,43.4783
rg,1625526472232729275,1,-0.2363,-0.8064,0.9817,149,-4.2114,126.1597,-21.9116,123,0.7994,0.5293,-0.2259,-51.217,27,0.8944,8219,4.0392,39.6363
rg,1625526472232751812,1,-0.2922,-0.8298,0.7393,150,15.2588,65.0635,-5.9204,123,0.8164,0.5523,1.8082,-50.5146,27,0.8994,8012,4.0392,37.4694
rg,1625526472232770312,1,-0.0627,-0.9734,0.675,151,20.3247,-27.5269,4.8218,123,0.8394,0.5713,1.304,-49.8529,27,0.9024,8145,4.0392,38.4353
rg,1625526472232805312,1,0.1262,-0.906,0.4917,152,43.5791,-59.5703,12.3291,123,0.8554,0.5883,-0.1964,-48.5375,27,0.9054,8559,4.0392,40.5489
rg,1625526472232823682,1,0.1909,-0.6829,0.5071,153,44.3115,-64.27,10.0098,123,0.8584,0.6013,-2.2139,-48.1255,27,0.9054,8729,4.0392,42.6648
rg,1625526472232840664,1,0.2263,-0.7708,0.6082,154,-35.5835,-70.3125,4.6387,123,0.8314,0.6113,-4.3318,-49.8021,27,0.8974,8358,4.0392,44.9254
rg,1625526472232857979,1,0.3247,-1.1382,0.74,155,-89.4775,-95.2759,-9.0332,123,0.7934,0.6053,-7.3099,-53.922,27,0.8864,8742,4.0392,47.7506
rg,1625526472232882997,1,0.2646,-1.1663,0.6045,156,-53.4058,-93.75,-4.0283,123,0.7694,0.5213,-9.7181,-56.8307,27,0.8804,8572,4.0392,50.8286
rg,1625526472232900757,1,0.468,-1.0229,0.8635,157,24.4141,-92.9565,28.9917,123,0.7734,0.4782,-11.163,-56.2672,27,0.8854,8745,4.0392,54.5845
rg,1625526472232917831,1,0.5442,-0.9602,0.4504,158,94.6655,-64.7583,73.1201,123,0.7714,0.4562,-10.881,-53.523,27,0.8834,10722,4.0392,58.4923
rg,1625526472232934905,1,0.5261,-0.7974,0.3386,159,104.187,-40.1611,58.4717,123,0.7704,0.4392,-11.0123,-48.9852,27,0.8814,8427,4.0392,59.2319
rg,1625526472232970757,1,0.175,-0.2744,0.1709,160,144.5312,24.5361,1.3428,123,0.7704,0.4362,-10.9821,-43.3957,27,0.8794,8275,4.0392,58.5711
rg,1625526472540148682,1,0.1077,-0.1597,0.449,161,-109.4971,9.6436,38.269,123,0.7724,0.4812,-9.7362,-46.9933,27,0.8774,26604,4.0392,59.2126
rg,1625526472540265534,1,0.5933,-1.325,1.5327,162,-202.6978,13.4277,15.564,123,0.7724,0.4962,-9.1817,-54.8246,27,0.8784,8757,4.0392,59.1612
rg,1625526472540296053,1,0.2405,-1.6519,0.7725,163,-57.312,67.9321,5.127,123,0.7744,0.5123,-7.4404,-57.1846,27,0.8814,8666,4.0392,57.0576
rg,1625526472540319164,1,0.1584,-1.4138,0.6987,164,-3.7842,55.542,-7.9346,123,0.7834,0.5363,-6.4477,-57.3324,27,0.8834,8387,4.0392,55.0317
rg,1625526472540339312,1,-0.0344,-0.6973,1.071,165,38.9404,67.4438,-12.7563,123,0.7994,0.5513,-5.075,-54.5741,27,0.8904,8525,4.0392,52.3966
rg,1625526472540357479,1,-0.0618,-0.7317,0.5056,166,27.71,5.4932,-1.2207,123,0.8254,0.5753,-4.6282,-53.4694,27,0.8974,9255,4.0392,52.1953
rg,1625526472540377090,1,0.2117,-0.9314,0.4539,167,36.8652,-31.4331,9.0332,123,0.8604,0.6023,-5.3675,-52.5021,27,0.8984,15414,4.0392,53.4518
rg,1625526472540394812,1,0.1519,-0.6719,0.4504,168,44.2505,-27.0996,4.0894,123,0.8674,0.6143,-6.2415,-51.6405,27,0.9004,7876,4.0392,54.2014
rg,1625526472540413238,1,0.1084,-0.6401,0.5623,169,-13.6108,-31.7383,-0.4272,123,0.8574,0.6243,-7.0719,-52.171,27,0.8964,7976,4.0392,55.1848
rg,1625526472540431090,1,0.1978,-1.0459,0.6768,170,-86.9751,-73.6694,-3.3569,123,0.8194,0.6343,-8.9679,-56.1499,27,0.8844,7927,4.0392,57.5464
rg,1625526472540450886,1,0.1765,-1.1279,0.6682,171,-77.3926,-82.0312,-5.9814,123,0.7854,0.6043,-10.5729,-59.1526,27,0.8774,7944,4.0392,60.6807
rg,1625526472540469590,1,0.2756,-1.1367,0.6541,172,-50.6592,-93.9941,26.5503,123,0.7624,0.5082,-11.5776,-61.0727,27,0.8744,9663,4.0392,65.1536
rg,1625526472540488553,1,0.4629,-0.9531,0.8079,173,16.5405,-96.5576,39.6729,123,0.7684,0.4732,-12.4021,-60.8518,27,0.8794,8230,4.0392,69.3022
rg,1625526472540506016,1,0.5195,-0.9092,0.4368,174,93.9941,-59.3872,71.8994,123,0.7674,0.4412,-11.7108,-57.9596,27,0.8814,8372,4.0392,72.8912
rg,1625526472540530867,1,0.3809,-0.6328,0.2913,175,100.0977,-3.7842,16.4795,123,0.7694,0.4302,-11.9114,-54.3106,27,0.8804,8382,4.0392,73.4202
rg,1625526472540551275,1,0.1687,-0.4006,0.2341,176,113.0981,20.5688,-15.8691,123,0.7684,0.4232,-12.2272,-49.7656,27,0.8814,8426,4.0392,72.3844
rg,1625526472540569386,1,-0.0386,-0.0354,0.2295,177,110.1074,47.2412,-14.0381,123,0.7714,0.4302,-10.6091,-43.5204,27,0.8784,8641,4.0392,70.3105
rg,1625526472540588256,1,0.0017,0.095,0.2954,178,37.2925,29.6631,25.0854,123,0.7754,0.4522,-8.8628,-40.0022,27,0.8804,8602,4.0392,69.8952
rg,1625526472540605812,1,0.1326,-0.2954,0.5703,179,-127.6245,-14.9536,30.4565,123,0.7754,0.4732,-8.6018,-44.7917,27,0.8804,8235,4.0392,71.1385
rg,1625526472540623775,1,0.3953,-0.811,1.1257,180,-184.8755,-28.8086,24.0479,123,0.7764,0.4882,-8.9362,-52.0387,27,0.8834,8250,4.0392,72.6182
rg,1625526472540641719,1,0.3455,-1.5417,1.0032,181,-101.6846,47.0581,6.5918,123,0.7804,0.5052,-7.6925,-56.0763,27,0.8874,8189,4.0392,71.2623
rg,1625526472540659442,1,0.1641,-1.3169,0.7808,182,-0.6714,39.7339,-12.8174,123,0.7904,0.5353,-7.1726,-56.0104,27,0.8934,8139,4.0392,69.6587
rg,1625526472540711238,1,0.0776,-0.9907,1.0352,183,21.4233,52.2461,-18.4937,123,0.8104,0.5593,-6.0822,-53.7524,27,0.8984,8321,4.0392,67.8948
rg,1625526472540735664,1,-0.0273,-0.7061,0.7019,184,43.5791,16.9067,3.6621,117,0.8344,0.5773,-5.2577,-51.6162,27,0.9034,8626,4.0458,67.411
rg,1625526472540754090,1,0.167,-0.8215,0.4768,185,33.8135,-30.0293,11.5356,117,0.8574,0.5973,-5.8346,-50.6962,27,0.9054,8213,4.0458,68.6694
rg,1625526472540771812,1,0.2493,-0.8018,0.4866,186,19.7144,-12.6953,13.0615,117,0.8714,0.6133,-6.1106,-50.2823,27,0.9064,8395,4.0458,69.4255
rg,1625526472540842367,1,0.208,-0.78,0.5779,187,-3.1128,-7.9956,7.6904,117,0.8704,0.6223,-6.3115,-50.5671,27,0.9074,8346,4.0458,69.8826
rg,1625526472540870386,1,0.1594,-1.0242,0.75,188,-84.8389,-46.4478,1.8311,117,0.8314,0.6353,-7.4106,-54.2505,27,0.8974,8391,4.0458,71.4262
rg,1625526472540888942,1,0.1436,-1.1826,0.6748,189,-76.6602,-81.9092,-5.0659,117,0.7944,0.6043,-9.3354,-57.9217,27,0.8884,8342,4.0458,74.0922
rg,1625526472540907664,1,0.2124,-1.0608,0.7302,190,-36.0107,-93.689,27.9541,117,0.7704,0.5203,-10.2982,-59.9048,27,0.8864,8534,4.0458,77.9185
rg,1625526472540924942,1,0.4941,-1.0222,0.8701,191,36.7432,-88.3789,62.8662,117,0.7714,0.4822,-10.3191,-58.8231,27,0.8894,11406,4.0458,82.2322
rg,1625526472540943830,1,0.6726,-0.9951,0.4568,192,64.0259,-72.2656,76.2939,117,0.7734,0.4502,-10.0761,-57.2088,27,0.8884,8567,4.0458,86.3844
rg,1625526472977462960,1,0.0195,-0.0906,0.1372,193,124.3896,20.2026,-25.6958,117,0.7744,0.4362,-10.3306,-51.0864,27,0.8834,23808,4.0458,84.9509
rg,1625526472977496052,1,0.1121,0.0491,0.1641,194,-9.7656,2.0142,42.9077,117,0.7774,0.4622,-10.0467,-49.8683,27,0.8834,15430,4.0458,85.6554
rg,1625526472977516052,1,0.4714,-0.5554,0.8384,195,-180.7251,-30.5786,39.4287,117,0.7794,0.4752,-10.1165,-56.8237,27,0.8844,7831,4.0458,87.5344
rg,1625526472977535423,1,0.7122,-1.145,1.3877,196,-196.8384,8.1787,24.7192,117,0.7784,0.4942,-9.572,-64.0659,27,0.8874,7833,4.0458,87.6513
rg,1625526472977553978,1,0.29,-1.5461,0.5847,197,-72.6318,77.0264,10.498,117,0.7784,0.5062,-7.9363,-66.7522,27,0.8894,7723,4.0458,85.0222
rg,1625526472977571886,1,0.1602,-1.4241,0.5342,198,-23.2544,69.7021,-5.3101,117,0.7854,0.5303,-6.9098,-65.5965,27,0.8924,7949,4.0458,81.7004
rg,1625526472977589071,1,-0.0269,-0.8687,0.959,199,37.8418,91.1255,-4.8828,117,0.7984,0.5483,-5.2142,-62.8062,27,0.8954,8457,4.0458,78.2092
rg,1625526472977606349,1,-0.1951,-0.6448,0.5955,200,38.147,38.4521,15.1367,117,0.8164,0.5683,-3.273,-60.5956,27,0.8994,8008,4.0458,77.0953
rg,1625526472977623126,1,0.1082,-1.0024,0.6711,201,25.1465,-47.0581,15.8691,117,0.8424,0.5883,-3.7283,-59.5234,27,0.9034,8864,4.0458,79.036
rg,1625526472977659423,1,0.2688,-1.1201,0.6892,202,37.0483,-53.4668,21.7896,117,0.8674,0.6073,-4.4956,-58.4754,27,0.9054,8360,4.0458,81.337
rg,1625526472977679330,1,0.2473,-0.8477,0.2761,203,83.252,-29.3579,14.6484,117,0.8894,0.6203,-5.0752,-55.7609,27,0.9054,8179,4.0458,82.6736
rg,1625526472977696052,1,0.1311,-0.4514,0.4968,204,51.0864,14.7095,10.8643,117,0.9004,0.6283,-4.6224,-53.1671,27,0.9064,8362,4.0458,82.3908
rg,1625526472977713071,1,0.0649,-0.45,0.6052,205,9.8267,18.1885,16.8457,117,0.8984,0.6383,-4.0006,-54.44,27,0.9064,7987,4.0458,83.0787
rg,1625526472977730312,1,0.2153,-0.9746,0.7578,206,-78.8574,-33.7524,26.3062,117,0.8514,0.6483,-4.1104,-57.6064,27,0.8954,8397,4.0458,84.7882
rg,1625526472977747589,1,0.2952,-1.2322,0.7256,207,-75.3784,-51.9409,9.3994,117,0.8064,0.6273,-5.1393,-60.8376,27,0.8834,7831,4.0458,86.7852
rg,1625526472977764219,1,0.2842,-1.0945,0.7014,208,-37.6587,-46.875,18.8599,117,0.7724,0.5273,-5.6441,-62.3824,27,0.8744,8461,4.0458,88.7923
rg,1625526472977781145,1,0.3167,-0.929,0.6675,209,-15.625,-50.1709,31.9214,117,0.7624,0.4492,-5.8143,-62.9216,27,0.8774,8279,4.0458,91.1411
rg,1625526472977797645,1,0.3633,-0.7175,0.7441,210,51.6968,-25.1465,36.499,117,0.7654,0.4222,-5.5479,-60.2994,27,0.8804,8415,4.0458,92.638
rg,1625526472977814219,1,0.4233,-0.6973,0.4456,211,52.3682,-29.2358,47.1191,117,0.7674,0.4102,-5.3559,-58.2806,27,0.8804,8307,4.0458,94.583
rg,1625526472977830775,1,0.1206,-0.5344,0.2961,212,62.1338,4.6387,-17.8833,117,0.7664,0.4072,-6.0839,-55.8386,27,0.8784,9870,4.0458,94.0403
rg,1625526472977847534,1,-0.0469,-0.2026,0.2527,213,72.2046,25.2686,-4.2114,117,0.7684,0.4172,-5.0774,-52.1927,27,0.8774,11154,4.0458,93.0654
rg,1625526472977864089,1,0.0312,-0.0669,0.5349,214,-3.2349,18.4937,34.9121,117,0.7694,0.4292,-3.516,-50.7234,27,0.8784,8671,4.0458,93.2093
rg,1625526472977880608,1,0.1455,-0.281,0.7263,215,-68.1763,-1.3428,40.1611,117,0.7704,0.4492,-3.2475,-54.9613,27,0.8794,8787,4.0458,94.487
rg,1625526472977897256,1,0.4199,-1.1873,1.084,216,-129.2114,-12.146,24.0479,117,0.7714,0.4712,-3.1467,-59.876,27,0.8804,8387,4.0458,95.4148
rg,1625526472977914497,1,0.2593,-1.5166,0.8464,217,-50.354,37.5366,10.6201,117,0.7764,0.4962,-2.2627,-61.8591,27,0.8844,8473,4.0458,94.3102
rg,1625526472977940904,1,0.0598,-1.1245,0.8491,218,29.9072,45.2271,-3.479,117,0.7934,0.5293,-1.5235,-60.2442,27,0.8934,9374,4.0458,92.6423
rg,1625526472977958386,1,-0.0676,-0.7068,0.6831,219,55.542,14.6484,-2.8076,117,0.8174,0.5553,-1.1044,-57.4424,27,0.8984,8590,4.0458,92.0728
rg,1625526472977975108,1,-0.031,-0.7449,0.5271,220,53.772,-18.5547,0.061,117,0.8444,0.5763,-1.3897,-55.1882,28,0.9014,8672,4.0458,92.6933
rg,1625526472977991367,1,0.1477,-0.8894,0.4631,221,35.8887,-39.0015,7.2632,117,0.8704,0.5973,-2.371,-54.0941,28,0.9044,8558,4.0458,94.1392
rg,1625526472978008052,1,0.1262,-0.7581,0.512,222,24.1699,-26.2451,4.9438,117,0.8764,0.6123,-3.0462,-53.236,28,0.9044,8206,4.0458,95.1047
rg,1625526472978024515,1,0.0952,-0.8345,0.717,223,-58.0444,-51.5747,10.437,117,0.8384,0.6273,-3.9754,-55.5038,27,0.8944,9838,4.0458,97.0224
rg,1625526472978041201,1,0.2078,-1.1445,0.6985,224,-90.21,-113.5864,-3.2349,117,0.7944,0.6053,-6.6923,-59.5658,27,0.8794,8957,4.0458,100.8197
rg,1625526473318703071,1,0.6831,-0.9402,0.6394,225,4.9438,-118.103,59.5093,117,0.7674,0.4692,-7.2918,-57.8113,27,0.8784,25468,4.0458,104.6776
rg,1625526473318732645,1,0.7603,-0.9685,0.437,226,69.8853,-59.9976,62.439,117,0.7684,0.4382,-7.742,-55.8252,27,0.8784,9109,4.0458,108.0994
rg,1625526473318752589,1,0.5269,-0.6165,0.1465,227,87.7075,14.2212,-6.897,117,0.7684,0.4212,-8.8537,-52.8457,27,0.8764,8357,4.0458,107.5178
rg,1625526473318772219,1,0.0752,-0.1233,0.0916,228,107.1777,95.7642,-45.3491,117,0.7694,0.4252,-8.4941,-47.9465,27,0.8754,8096,4.0458,103.3346
rg,1625526473318809997,1,-0.0513,0.0449,0.1807,229,50.415,152.8931,7.3242,117,0.7704,0.4452,-3.2914,-43.5664,27,0.8734,8662,4.0458,98.8753
rg,1625526473318828997,1,-0.0322,0.0447,0.3225,230,-26.1841,141.6626,37.0483,117,0.7714,0.4662,1.9865,-43.4459,27,0.8734,8091,4.0458,95.9759
rg,1625526473318846978,1,0.0815,-0.5837,0.9011,231,-182.6172,65.979,24.7803,117,0.7704,0.4832,4.2494,-50.3697,27,0.8744,8235,4.0458,94.7496
rg,1625526473318864534,1,0.1174,-1.6399,1.1975,232,-149.1699,60.3638,-6.6528,117,0.7694,0.5032,5.1614,-56.6156,27,0.8774,8243,4.0458,92.6495
rg,1625526473318881460,1,-0.1255,-1.2148,0.8706,233,-11.2915,29.4189,-0.8545,117,0.7854,0.5393,5.1584,-55.1198,27,0.8844,13788,4.0458,92.2058
rg,1625526473318898293,1,-0.1296,-0.604,0.7166,234,63.5986,-41.8701,2.5024,117,0.8064,0.5553,4.3618,-51.8673,27,0.8904,10459,4.0458,93.6758
rg,1625526473318919941,1,-0.0259,-0.6433,0.4812,235,57.1289,-76.4771,7.9346,117,0.8294,0.5733,1.5801,-50.2516,27,0.8954,7796,4.0458,97.2733
rg,1625526473318937756,1,0.3489,-0.8889,0.479,236,36.3159,-109.2529,16.4185,117,0.8534,0.5923,-1.5246,-49.2151,27,0.8984,8031,4.0458,101.0146
rg,1625526473318955219,1,0.3933,-0.8091,0.3301,237,46.875,-51.2695,11.6577,117,0.8664,0.6053,-3.3996,-48.0742,27,0.8994,7905,4.0458,102.8722
rg,1625526473318982515,1,0.3601,-0.6978,0.4404,238,28.6865,-17.8833,6.897,117,0.8664,0.6183,-4.2149,-46.9501,27,0.8974,8096,4.0458,103.58
rg,1625526473319000293,1,0.2395,-0.8357,0.707,239,-62.9272,-2.8687,8.1177,117,0.8264,0.6313,-4.3688,-49.5825,27,0.8864,9041,4.0458,103.896
rg,1625526473319016978,1,0.179,-1.1414,0.6946,240,-85.6323,-22.4609,-4.1504,117,0.7884,0.6183,-5.1829,-53.3952,27,0.8774,8859,4.0458,104.5298
rg,1625526473319033682,1,0.2136,-1.1362,0.7078,241,-32.2876,-28.6865,26.1841,117,0.7644,0.5423,-5.1542,-54.9959,27,0.8714,8297,4.0458,106.0961
rg,1625526473319050330,1,0.4434,-0.9436,0.8411,242,18.6768,-44.3115,43.2739,117,0.7674,0.4962,-5.3202,-54.2108,27,0.8774,8856,4.0458,108.5231
rg,1625526473319067386,1,0.3765,-0.9209,0.6436,243,61.2793,-23.3765,40.1611,117,0.7664,0.4722,-5.3567,-52.1667,27,0.8774,8676,4.0458,110.2462
rg,1625526473319084163,1,0.4275,-0.7312,0.3472,244,80.3833,-23.5596,35.0952,117,0.7674,0.4552,-5.7328,-49.5381,27,0.8754,8475,4.0458,111.8863
rg,1625526473319100848,1,0.123,-0.2949,0.1289,245,113.3423,20.2637,-21.5454,117,0.7664,0.4442,-6.4273,-45.4961,27,0.8744,8790,4.0458,110.7389
rg,1625526473319117589,1,-0.0547,-0.0146,0.1572,246,90.7593,81.543,-11.7798,117,0.7684,0.4612,-3.4467,-40.2636,27,0.8724,8697,4.0458,108.0509
rg,1625526473319134311,1,-0.0659,0.0576,0.2664,247,39.4897,92.4683,11.6577,117,0.7704,0.4852,-0.0283,-40.409,27,0.8744,8363,4.0458,107.0765
rg,1625526473319151348,1,-0.0181,-0.2896,0.5642,248,-123.9014,27.9541,30.0293,117,0.7714,0.5012,1.6668,-44.8194,27,0.8754,9165,4.0458,107.1969
rg,1625526473319168404,1,0.3477,-1.3853,1.3049,249,-175.293,-6.7139,8.7891,117,0.7714,0.5293,1.2808,-51.8583,27,0.8784,8357,4.0458,107.6565
rg,1625526473319184960,1,0.1472,-1.634,0.7456,250,-37.4756,17.1509,8.5449,117,0.7774,0.5473,1.7289,-53.8844,27,0.8824,8432,4.0458,107.3057
rg,1625526473319201774,1,0.1399,-1.0876,0.9287,251,14.7705,3.7842,-0.9766,117,0.7944,0.5613,1.3055,-51.6893,27,0.8894,8287,4.0458,106.9524
rg,1625526473319218774,1,0.0979,-0.7419,0.9099,252,73.8525,-1.709,-2.9297,117,0.8174,0.5773,0.933,-48.2414,27,0.8954,8366,4.0458,106.9333
rg,1625526473319235682,1,0.1665,-0.6501,0.3613,253,73.1812,-38.3301,13.855,117,0.8424,0.5943,-0.2312,-45.7881,27,0.8994,8262,4.0458,108.4133
rg,1625526473319252460,1,0.3115,-0.7441,0.4062,254,34.1187,-16.7236,14.5264,117,0.8604,0.6103,-1.0597,-44.9996,27,0.9004,8278,4.0458,109.2928
rg,1625526473319268608,1,0.2776,-0.7378,0.5178,255,11.1694,9.2163,8.9111,117,0.8674,0.6203,-0.869,-44.7463,27,0.9024,8491,4.0458,109.2861
rg,1625526473319285071,1,0.0647,-0.9102,0.7349,256,-51.4526,0.4272,4.6387,117,0.8404,0.6313,-0.8149,-47.0405,27,0.8944,8489,4.0458,109.4079
rg,1625526473666383237,1,0.3203,-0.9163,0.6414,257,0.2441,-82.3364,31.7993,117,0.7704,0.5223,-2.6987,-47.4236,28,0.8764,24866,4.0458,112.6975
rg,1625526473666457385,1,0.5183,-0.8772,0.7534,258,16.4795,-83.9233,44.0063,117,0.7724,0.4952,-3.7552,-46.2396,28,0.8794,8789,4.0458,115.6256
rg,1625526473666481830,1,0.5369,-0.8943,0.5327,259,43.5791,-40.5884,51.9409,117,0.7714,0.4822,-4.3063,-45.1288,28,0.8794,8323,4.0458,118.262
rg,1625526473666501219,1,0.3918,-0.6511,0.1814,260,70.9229,-18.2495,4.0894,117,0.7704,0.4612,-5.7177,-43.3084,28,0.8774,8331,4.0458,118.9454
rg,1625526473666519885,1,0.1211,-0.1912,0.1055,261,89.9048,38.6353,-26.4893,117,0.7724,0.4612,-6.1808,-40.1303,27,0.8764,7983,4.0458,117.1488
rg,1625526473666537608,1,0.0425,-0.031,0.2212,262,64.8804,82.8247,-14.0381,117,0.7734,0.4802,-3.7125,-35.597,27,0.8744,8430,4.0458,114.4814
rg,1625526473666555682,1,-0.0183,-0.0999,0.5325,263,-55.7861,102.356,29.1138,117,0.7734,0.4932,0.4701,-36.814,27,0.8744,8233,4.0458,112.9303
rg,1625526473666575404,1,0.1821,-1.4446,1.1194,264,-143.1274,39.7339,3.1738,117,0.7754,0.5143,1.5187,-43.1256,27,0.8754,14364,4.0458,112.0132
rg,1625526473666592867,1,0.0078,-1.4985,0.8523,265,-18.9819,30.5786,2.8687,117,0.7824,0.5413,2.4068,-44.573,27,0.8784,8085,4.0458,111.229
rg,1625526473666611015,1,-0.0115,-0.8901,0.9246,266,24.9634,10.6812,0.5493,117,0.7974,0.5593,2.1423,-42.5215,27,0.8844,9619,4.0458,111.3698
rg,1625526473666630422,1,0.0034,-0.7429,0.7576,267,59.5703,-24.9634,6.2256,117,0.8184,0.5783,1.4687,-40.1841,27,0.8914,7853,4.0458,112.2133
rg,1625526473666649737,1,0.25,-0.8945,0.5522,268,48.0347,-56.0303,16.3574,117,0.8434,0.5973,-0.4128,-38.9285,27,0.8944,7895,4.0458,114.1222
rg,1625526473666670422,1,0.3511,-0.8965,0.437,269,52.1851,-35.6445,10.2539,117,0.8594,0.6133,-2.0105,-37.7722,27,0.8964,8316,4.0458,115.3279
rg,1625526473666689070,1,0.2466,-0.7322,0.46,270,42.6636,-12.4512,3.3569,117,0.8604,0.6243,-2.5138,-36.4805,27,0.8944,8542,4.0458,115.7479
rg,1625526473666717811,1,0.0322,-0.7195,0.6252,271,-53.2837,-11.4746,8.4839,117,0.8204,0.6383,-2.6452,-39.114,27,0.8794,8388,4.0458,116.319
rg,1625526473666737885,1,0.0427,-1.0286,0.6643,272,-87.9517,-71.9604,-8.0566,117,0.7864,0.6093,-4.9852,-43.4256,27,0.8714,8805,4.0458,118.0143
rg,1625526473666757848,1,0.1826,-1.0024,0.7024,273,-34.729,-91.98,37.0483,117,0.7654,0.5303,-6.6951,-45.6254,27,0.8674,8830,4.0458,121.7127
rg,1625526473666776015,1,0.624,-1.0208,0.9995,274,-16.2964,-114.0137,63.0493,117,0.7724,0.5032,-8.3921,-45.8128,27,0.8734,8347,4.0458,126.6886
rg,1625526473666794922,1,0.6453,-1.1172,0.7087,275,46.4478,-87.2192,70.0684,117,0.7734,0.4842,-9.5213,-45.0732,27,0.8734,8583,4.0458,131.2489
rg,1625526473666848033,1,0.6453,-1.0337,0.3428,276,62.7441,-46.9971,39.2456,117,0.7734,0.4522,-10.6065,-43.8791,27,0.8714,8729,4.0458,133.8596
rg,1625526473666870978,1,0.1565,-0.4451,0.1565,277,112.3047,34.79,-29.9683,117,0.7724,0.4372,-10.7289,-40.0307,27,0.8714,8708,4.0458,132.1745
rg,1625526473666890645,1,-0.0808,0.022,0.1489,278,138.5498,75.5005,-6.8359,117,0.7744,0.4432,-7.1624,-32.6931,27,0.8684,8637,4.0458,129.9426
rg,1625526473666909700,1,-0.021,0.1562,0.3,279,22.3999,62.2559,54.6875,117,0.7774,0.4662,-3.6241,-29.8761,27,0.8684,11042,4.0458,130.2742
rg,1625526473666929182,1,0.0647,-0.4353,0.5227,280,-167.4805,-14.8315,40.9546,117,0.7774,0.4802,-3.2861,-37.0326,27,0.8694,8484,4.0458,131.9957
rg,1625526473666949126,1,0.3765,-1.0142,1.2539,281,-215.7593,-31.9214,29.6631,117,0.7764,0.4952,-2.8158,-44.3598,27,0.8714,8485,4.0458,132.3244
rg,1625526473666968885,1,0.1479,-1.6477,0.7642,282,-81.543,38.147,19.7144,117,0.7754,0.5253,-1.2781,-48.3846,27,0.8744,8357,4.0458,131.8019
rg,1625526473666986959,1,0.0437,-1.249,0.6646,283,23.4985,10.437,-4.6997,117,0.7814,0.5413,-1.162,-47.9609,27,0.8784,8596,4.0458,131.3766
rg,1625526473667005496,1,-0.0667,-0.6023,0.9351,284,43.6401,8.9111,6.6528,117,0.7984,0.5543,-0.5451,-45.6134,27,0.8864,8890,4.0458,131.2898
rg,1625526473667023145,1,0.1204,-0.8472,0.5383,285,35.4614,-22.644,17.0898,117,0.8274,0.5703,-1.7491,-44.9498,27,0.8934,8655,4.0458,133.3916
rg,1625526473667042182,1,0.302,-1.0022,0.6343,286,24.9634,-55.7251,25.6958,117,0.8534,0.5883,-3.2524,-44.6531,27,0.8944,9071,4.0458,135.7104
rg,1625526473667059274,1,0.3748,-0.9937,0.396,287,51.5137,-12.8174,18.2495,117,0.8784,0.6043,-3.749,-43.5024,27,0.8924,9006,4.0458,136.6334
rg,1625526473667077774,1,0.1277,-0.6519,0.5146,288,38.208,28.7476,-4.1504,117,0.8944,0.6143,-3.2218,-42.233,27,0.8934,8731,4.0458,135.744
rg,1625526474016367515,1,0.1331,-1.0598,0.7458,289,-107.7881,-65.2466,5.9204,117,0.8054,0.6283,-5.0036,-47.1603,27,0.8754,25547,4.0458,137.7868
rg,1625526474016425218,1,0.2693,-1.0447,0.72,290,-45.5933,-90.7593,16.1743,117,0.7714,0.6183,-7.191,-49.6264,27,0.8704,9136,4.0458,140.9844
rg,1625526474016446922,1,0.446,-1.0518,0.5959,291,-23.5596,-108.7646,35.0952,117,0.7664,0.5523,-9.4556,-51.5639,27,0.8744,8692,4.0458,145.2104
rg,1625526474016466904,1,0.6433,-0.9956,0.8618,292,-3.418,-67.4438,22.644,117,0.7674,0.5193,-11.0465,-52.0862,28,0.8774,8211,4.0458,147.9214
rg,1625526474016485830,1,0.5728,-1.0396,0.4641,293,41.8701,-16.1133,34.1187,117,0.7714,0.4812,-10.9971,-51.1613,28,0.8784,8739,4.0458,149.3841
rg,1625526474016503959,1,0.0027,-0.605,0.2866,294,87.6465,70.0073,-34.2407,117,0.7724,0.4382,-9.8145,-47.6385,28,0.8764,14586,4.0458,146.4309
rg,1625526474016521478,1,-0.1885,-0.3616,0.2664,295,110.2905,79.7119,-33.8135,155,0.7734,0.4362,-6.8375,-42.3923,27,0.8754,7881,4.0128,143.2029
rg,1625526474016539385,1,-0.1812,-0.0015,0.3071,296,112.5488,8.667,24.353,155,0.7754,0.4542,-4.631,-36.6423,27,0.8764,7913,4.0128,143.6448
rg,1625526474016556904,1,0.0786,-0.0217,0.293,297,-2.9907,-71.7773,62.3779,155,0.7764,0.4722,-5.8921,-35.9165,27,0.8764,7845,4.0128,147.2707
rg,1625526474016573959,1,0.238,-0.3037,0.4275,298,-85.9375,-90.332,59.021,155,0.7764,0.4872,-8.0001,-39.8163,27,0.8784,7986,4.0128,151.4019
rg,1625526474016591089,1,0.696,-1.2649,1.3157,299,-143.7988,-18.7988,31.6772,155,0.7754,0.5112,-8.1891,-45.899,28,0.8824,9416,4.0128,152.8999
rg,1625526474016608311,1,0.3086,-1.4475,0.6318,300,-41.5649,62.3169,14.8926,155,0.7794,0.5413,-6.007,-48.0682,28,0.8864,8707,4.0128,151.5658
rg,1625526474016625533,1,0.0564,-1.0676,0.8865,301,17.334,84.4116,-11.2915,155,0.7924,0.5473,-3.9328,-47.2099,28,0.8934,8506,4.0128,148.7616
rg,1625526474016642089,1,-0.1328,-0.7173,0.7212,302,32.3486,41.0767,4.3335,155,0.8124,0.5603,-2.2346,-45.7574,28,0.8984,8384,4.0128,147.6847
rg,1625526474016659311,1,0.1262,-0.9475,0.6157,303,36.377,-39.6118,7.3853,155,0.8394,0.5773,-3.2984,-44.7995,27,0.9034,8853,4.0128,149.037
rg,1625526474016676404,1,0.2349,-0.9988,0.5496,304,43.8843,-41.3208,13.916,155,0.8644,0.5923,-4.0095,-43.553,27,0.9044,8498,4.0128,150.2782
rg,1625526474016703830,1,0.1775,-0.7571,0.3335,305,55.542,-8.0566,11.1694,155,0.8764,0.6033,-4.2717,-42.2243,27,0.9044,8730,4.0128,150.8813
rg,1625526474016721867,1,-0.0283,-0.5176,0.6033,306,0.9766,7.6904,7.5684,155,0.8724,0.6103,-3.5918,-42.1129,27,0.9014,8731,4.0128,150.8935
rg,1625526474016739107,1,-0.0198,-0.908,0.7009,307,-96.4966,-49.6216,15.1978,155,0.8304,0.6213,-4.3989,-46.4819,27,0.8924,8471,4.0128,152.7385
rg,1625526474016756293,1,0.0942,-1.166,0.8374,308,-84.1064,-97.168,8.1787,155,0.7934,0.6223,-6.6884,-50.4401,27,0.8834,8567,4.0128,155.9047
rg,1625526474016773404,1,0.2271,-1.1797,0.7627,309,-46.1426,-112.6099,29.541,155,0.7694,0.5713,-8.8595,-53.1634,27,0.8784,8932,4.0128,160.2586
rg,1625526474016790330,1,0.4941,-1.0308,0.7383,310,-16.8457,-123.8403,53.1006,155,0.7714,0.5153,-10.5237,-54.7694,27,0.8844,8220,4.0128,165.6004
rg,1625526474016810533,1,0.5771,-1.0198,0.5481,311,59.021,-82.8857,50.7202,155,0.7704,0.4862,-11.4384,-53.4044,27,0.8844,9984,4.0128,169.5816
rg,1625526474016829459,1,0.4587,-0.7031,0.1782,312,74.4629,-31.3721,14.5264,155,0.7714,0.4602,-12.5748,-51.4531,27,0.8834,8338,4.0128,171.0916
rg,1625526474016847033,1,0.1155,-0.199,0.0129,313,116.8823,9.5825,-30.9448,155,0.7714,0.4422,-14.0323,-47.6694,27,0.8824,8406,4.0128,170.1924
rg,1625526474016864218,1,0.0481,0.0425,0.1372,314,57.6782,74.2188,10.9863,155,0.7724,0.4652,-12.1031,-42.9403,27,0.8814,9937,4.0128,167.8275
rg,1625526474016985478,1,0.0867,0.0488,0.2976,315,-20.0195,89.2944,40.1001,155,0.7744,0.4872,-8.491,-46.3669,27,0.8814,9209,4.0128,166.619
rg,1625526474017007941,1,0.3049,-0.7168,1.0383,316,-180.9082,72.6318,37.1094,155,0.7734,0.5022,-5.7084,-52.9628,27,0.8824,8621,4.0128,165.293
rg,1625526474017121107,1,0.1479,-1.6038,0.8933,317,-122.8638,80.3833,4.0283,155,0.7774,0.5273,-3.7243,-57.9527,27,0.8864,9161,4.0128,162.7535
rg,1625526474017145015,1,-0.0164,-1.512,0.7139,318,-3.479,48.584,-2.1362,155,0.7874,0.5493,-2.6088,-58.2534,27,0.8914,8963,4.0128,161.07
rg,1625526474017163200,1,-0.0283,-0.8711,0.9204,319,74.707,29.4189,7.6294,155,0.8094,0.5613,-1.5583,-54.648,27,0.8984,8981,4.0128,160.2333
rg,1625526474017181348,1,-0.0105,-0.6228,0.3948,320,72.6318,-38.5132,7.3242,155,0.8324,0.5773,-2.1443,-51.9006,27,0.9044,8763,4.0128,161.6508
rg,1625526474358586626,1,0.1323,-0.8254,0.5305,321,-43.335,-37.4146,7.4463,155,0.8194,0.6133,-2.9587,-53.7599,27,0.8894,26424,4.0128,163.0308
rg,1625526474358620774,1,0.0986,-1.0005,0.7971,322,-72.3877,-69.0308,-18.2495,155,0.7914,0.6163,-5.1769,-56.6773,27,0.8804,8895,4.0128,164.8879
rg,1625526474358640811,1,0.2939,-1.0432,0.6377,323,-22.4609,-93.6279,28.0762,155,0.7734,0.5853,-6.5654,-58.0219,27,0.8754,8253,4.0128,168.6768
rg,1625526474358660385,1,0.6921,-1.0786,0.8135,324,39.1846,-78.9185,39.3066,155,0.7764,0.5313,-7.7286,-56.7051,27,0.8804,14769,4.0128,-187.8234
rg,1625526474358678663,1,0.6917,-1.0273,0.4617,325,52.124,-45.7153,51.2695,155,0.7774,0.5102,-7.2884,-54.7695,27,0.8804,7881,4.0128,-186.7543
rg,1625526474358696533,1,0.5212,-0.9297,0.3796,326,71.8384,41.0156,16.4185,155,0.7774,0.4872,-6.5806,-52.2334,27,0.8804,7906,4.0128,-187.6561
rg,1625526474358714496,1,0.071,-0.4365,0.2678,327,96.8628,111.084,-21.6064,155,0.7774,0.4762,-4.4743,-48.2174,27,0.8794,7789,4.0128,168.3808
rg,1625526474358732052,1,-0.1145,-0.2178,0.1814,328,121.6431,119.3848,-20.2637,155,0.7784,0.4802,-0.0649,-42.1621,27,0.8794,7965,4.0128,165.3003
rg,1625526474358749663,1,-0.1238,0.0896,0.2754,329,96.1304,89.0503,21.7896,155,0.7804,0.4932,4.1116,-36.5693,27,0.8784,8480,4.0128,163.7536
rg,1625526474358766996,1,-0.116,-0.1143,0.2776,330,-62.2559,44.7998,38.7573,155,0.7824,0.5092,7.1355,-38.5096,27,0.8794,8056,4.0128,163.9149
rg,1625526474358784200,1,0.1655,-0.897,1.1006,331,-201.6602,-13.0615,27.771,155,0.7814,0.5243,6.961,-46.4133,27,0.8814,8753,4.0128,165.1268
rg,1625526474358801366,1,0.356,-1.4795,1.4534,332,-180.603,10.9253,26.4282,155,0.7824,0.5443,7.6199,-54.1083,27,0.8834,8324,4.0128,165.4272
rg,1625526474358818311,1,0.0417,-1.5515,0.6196,333,-23.6206,43.2129,19.5923,155,0.7884,0.5633,8.8952,-55.7362,27,0.8894,8060,4.0128,164.3794
rg,1625526474358835496,1,-0.063,-0.959,1.0562,334,31.189,25.3296,-13.6719,155,0.8034,0.5703,8.7813,-54.1206,27,0.8954,8721,4.0128,163.3032
rg,1625526474358852311,1,-0.1267,-0.8325,0.6404,335,36.5601,10.437,-7.5073,155,0.8254,0.5853,8.2494,-52.1964,27,0.8994,8368,4.0128,164.0076
rg,1625526474358869459,1,0.0305,-0.9565,0.5396,336,46.7529,-48.7061,7.2632,155,0.8494,0.5973,6.8806,-50.4269,27,0.9014,8174,4.0128,165.6736
rg,1625526474358886811,1,0.2283,-0.9734,0.4768,337,55.1147,-45.9595,12.7563,155,0.8634,0.6123,5.3578,-48.5534,27,0.9014,8726,4.0128,167.3389
rg,1625526474358903533,1,0.0422,-0.6653,0.4106,338,20.9351,-27.0386,-1.8921,155,0.8564,0.6213,4.255,-48.0287,27,0.8994,8543,4.0128,168.063
rg,1625526474358920218,1,-0.0012,-0.7917,0.6794,339,-78.186,-66.5283,-13.6108,155,0.8214,0.6293,1.9606,-51.0988,27,0.8884,8779,4.0128,169.7432
rg,1625526474358937496,1,-0.0085,-0.8767,0.7502,340,-82.2754,-86.5479,-19.8975,155,0.7884,0.6273,-0.815,-54.2819,27,0.8794,8237,4.0128,-187.9759
rg,1625526474358954089,1,0.2192,-0.9902,0.6001,341,-39.6729,-110.1074,42.3584,155,0.7684,0.5953,-2.3094,-56.1539,27,0.8734,8181,4.0128,-183.3829
rg,1625526474358970977,1,0.6519,-0.9963,0.9004,342,-10.8032,-121.7651,63.1104,155,0.7714,0.5643,-3.7968,-56.5708,27,0.8754,8012,4.0128,-177.9362
rg,1625526474358988052,1,0.7153,-1.1069,0.8347,343,29.4189,-93.4448,57.5562,155,0.7714,0.5413,-4.8629,-55.5898,27,0.8754,8214,4.0128,-173.5589
rg,1625526474359004996,1,0.7019,-1.031,0.3586,344,49.8047,-37.7808,32.959,155,0.7714,0.5273,-5.713,-54.2786,27,0.8744,8135,4.0128,-171.5301
rg,1625526474359021644,1,0.209,-0.625,0.2131,345,84.0454,55.6641,-44.2505,155,0.7734,0.5203,-6.2577,-51.2458,27,0.8714,8288,4.0128,-174.3397
rg,1625526474359055107,1,-0.1216,-0.1533,0.1633,346,113.9526,89.2334,-26.4893,155,0.7734,0.5213,-3.4218,-46.1283,27,0.8704,10457,4.0128,-177.7016
rg,1625526474359074459,1,-0.1072,0.0581,0.2351,347,57.0068,66.8335,26.123,155,0.7764,0.5333,0.1931,-42.0202,27,0.8704,8627,4.0128,-178.8866
rg,1625526474359091811,1,-0.0847,0.051,0.2852,348,-7.9346,34.0576,36.9263,155,0.7784,0.5433,2.8164,-40.6045,27,0.8704,8368,4.0128,-178.6658
rg,1625526474359108903,1,0.1135,-0.5447,0.7083,349,-170.166,-65.4907,24.231,155,0.7784,0.5523,1.2171,-47.1691,27,0.8734,8826,4.0128,-176.1234
rg,1625526474359126200,1,0.4683,-1.4907,1.2756,350,-146.1792,-27.3438,13.4277,155,0.7784,0.5633,0.3601,-53.0573,27,0.8784,8983,4.0128,-174.914
rg,1625526474359143385,1,0.2986,-1.4207,0.5862,351,-30.3955,-3.6621,3.7231,155,0.7854,0.5793,-0.0514,-54.8176,27,0.8844,8768,4.0128,-174.7058
rg,1625526474359248774,1,0.1807,-0.949,0.9375,352,-1.1597,15.564,-15.564,155,0.8004,0.5843,0.1431,-53.5223,27,0.8914,8793,4.0128,-176.2005
rg,1625526474711852718,1,0.1138,-0.9539,0.5325,353,13.7939,-9.1553,-0.1221,155,0.8574,0.6173,-0.3186,-53.2476,27,0.9034,25467,4.0128,-175.9108
rg,1625526474711890866,1,0.105,-0.9001,0.437,354,25.5127,-10.8643,-0.4883,155,0.8674,0.6323,-0.8185,-52.646,27,0.9034,9982,4.0128,-175.5745
rg,1625526474711911607,1,0.0837,-0.8464,0.6482,355,-63.7817,-57.6782,16.8457,155,0.8184,0.6493,-1.7682,-55.227,27,0.8914,16459,4.0128,-173.3083
rg,1625526474711933607,1,0.157,-1.0706,0.6936,356,-86.731,-86.3037,3.479,155,0.7834,0.6383,-3.72,-58.8912,27,0.8824,7724,4.0128,-170.3216
rg,1625526474711952551,1,0.269,-0.9993,0.6003,357,-52.3682,-84.8999,14.5264,155,0.7614,0.5753,-4.4504,-60.3256,27,0.8754,7950,4.0128,-166.6308
rg,1625526474711970940,1,0.4675,-0.9727,0.7336,358,-24.1089,-98.0835,60.0586,155,0.7694,0.5303,-4.8971,-61.38,27,0.8794,7718,4.0128,-162.04
rg,1625526474711989125,1,0.7114,-1.167,0.5991,359,43.0298,-72.876,75.9277,155,0.7694,0.5042,-4.574,-60.0333,27,0.8784,8219,4.0128,-158.0138
rg,1625526474712007199,1,0.749,-1.0959,0.2581,360,66.7114,-25.6348,36.5601,155,0.7704,0.4702,-4.9539,-58.0396,27,0.8784,8085,4.0128,-156.3587
rg,1625526474712024625,1,0.4897,-0.9028,0.2107,361,81.8481,31.7383,-17.8833,155,0.7714,0.4372,-5.346,-54.2925,27,0.8764,8635,4.0128,-160.3464
rg,1625526474712042662,1,-0.074,-0.2593,0.1362,362,122.1313,120.3613,-57.312,155,0.7724,0.4292,-3.435,-49.319,27,0.8754,8098,4.0128,-165.495
rg,1625526474712060903,1,-0.1985,0.0352,0.2278,363,106.3232,135.2539,4.8828,155,0.7724,0.4442,1.9362,-43.5718,27,0.8744,8266,4.0128,-169.2878
rg,1625526474712078848,1,-0.186,-0.0283,0.3127,364,49.6826,111.084,36.0718,155,0.7754,0.4662,6.0792,-43.8584,27,0.8744,8180,4.0128,-169.7644
rg,1625526474712096311,1,-0.1724,-0.3218,0.3354,365,-125.3052,-1.5259,32.0435,155,0.7744,0.4802,7.5183,-48.7353,27,0.8754,8411,4.0128,-168.8526
rg,1625526474712128737,1,0.3433,-1.3247,1.5347,366,-217.2241,-69.6411,14.7705,155,0.7714,0.4952,5.6568,-56.7726,27,0.8774,8570,4.0128,-166.177
rg,1625526474712147977,1,0.0547,-1.686,0.6328,367,-54.9316,-5.4932,18.0664,155,0.7714,0.5203,5.8639,-59.3904,27,0.8814,9684,4.0128,-165.6497
rg,1625526474712165885,1,0.1355,-1.2446,0.7488,368,34.4849,-23.2544,-6.2256,155,0.7794,0.5373,4.7298,-57.9225,27,0.8864,8367,4.0128,-164.9839
rg,1625526474712183644,1,0.0691,-0.6448,0.8164,369,55.6641,-10.5591,-6.5308,155,0.8014,0.5583,4.019,-54.7622,27,0.8944,8912,4.0128,-164.1394
rg,1625526474712200959,1,0.0813,-0.6677,0.4922,370,50.5371,-44.3115,6.4087,155,0.8294,0.5753,2.0271,-53.3691,27,0.8994,9264,4.0128,-161.9616
rg,1625526474712218829,1,0.3655,-1.0239,0.5071,371,30.7007,-61.6455,8.8501,155,0.8564,0.5893,0.0667,-52.4787,27,0.9004,8429,4.0128,-159.7994
rg,1625526474712236385,1,0.333,-0.957,0.3057,372,53.5889,-10.3149,3.1128,155,0.8774,0.6033,-0.8061,-51.0629,27,0.8994,8189,4.0128,-159.4095
rg,1625526474712264366,1,0.1089,-0.6401,0.5281,373,33.3862,28.4424,3.8452,155,0.8864,0.6113,-0.2302,-49.6885,27,0.9004,8201,4.0128,-160.1943
rg,1625526474712282607,1,0.0002,-0.5913,0.5874,374,2.6855,25.3906,13.1226,155,0.8714,0.6193,0.832,-49.3938,27,0.8974,8334,4.0128,-160.6298
rg,1625526474712299570,1,-0.0127,-0.8403,0.6206,375,-65.1855,-21.7896,21.9727,155,0.8244,0.6283,0.9586,-52.129,27,0.8874,9052,4.0128,-159.4015
rg,1625526474712317237,1,0.0791,-1.0464,0.7205,376,-76.4771,-67.5049,24.7192,155,0.7824,0.6243,-0.0112,-55.2774,27,0.8794,8847,4.0128,-156.6369
rg,1625526474712334385,1,0.3875,-1.0852,0.6917,377,-35.7056,-110.3516,46.0205,155,0.7644,0.5663,-1.5859,-56.8401,27,0.8784,8544,4.0128,-151.9404
rg,1625526474712351774,1,0.593,-1.0603,0.8376,378,-26.1841,-108.8867,49.6826,155,0.7694,0.5253,-2.5939,-56.3239,27,0.8844,8883,4.0128,-148.0966
rg,1625526474712368570,1,0.6355,-1.0833,0.5383,379,44.8608,-72.6929,63.5986,155,0.7704,0.4822,-3.2352,-55.1311,27,0.8854,8943,4.0128,-144.2557
rg,1625526474712386033,1,0.5686,-0.937,0.2898,380,62.3169,-18.6157,18.6768,155,0.7724,0.4342,-4.0935,-53.2974,27,0.8854,8871,4.0128,-143.1994
rg,1625526474712402922,1,0.1021,-0.5215,0.2327,381,80.8105,59.3872,-45.166,155,0.7744,0.4142,-4.2956,-50.3323,27,0.8844,8793,4.0128,-146.1626
rg,1625526474712505866,1,-0.2192,-0.1687,0.2261,382,98.1445,89.5386,-23.7427,155,0.7754,0.4162,-1.1062,-45.8332,27,0.8844,8898,4.0128,-149.434
rg,1625526474712558959,1,-0.1414,-0.0464,0.2246,383,56.3965,22.3999,39.5508,155,0.7784,0.4382,1.8544,-42.4862,27,0.8844,9090,4.0128,-148.9102
rg,1625526474712583385,1,0.063,-0.262,0.4736,384,-9.6436,-22.9492,54.8706,155,0.7784,0.4612,1.2207,-45.5212,27,0.8854,8767,4.0128,-145.6907
rg,1625526475069523922,1,0.3008,-1.5188,0.624,385,-62.0117,17.2119,25.1465,155,0.7834,0.5203,1.9693,-48.8217,27,0.8964,24924,4.0128,-145.5207
rg,1625526475069559496,1,0.1331,-1.0459,0.8457,386,45.105,51.3916,0.2441,155,0.8024,0.5423,3.0425,-47.1647,27,0.9034,10361,4.0128,-147.054
rg,1625526475069580033,1,0.0259,-0.6965,0.5869,387,64.9414,26.123,4.5166,155,0.8244,0.5593,3.7091,-44.7073,27,0.9074,7766,4.0128,-147.6919
rg,1625526475069599051,1,0.1082,-0.7261,0.3318,388,58.96,-1.5259,5.7373,155,0.8504,0.5773,3.2732,-43.5324,27,0.9094,7706,4.0128,-146.9913
rg,1625526475069617440,1,0.134,-0.7407,0.3423,389,35.2783,-0.7935,17.2119,155,0.8644,0.5893,3.2351,-42.9135,27,0.9114,8051,4.0128,-146.5189
rg,1625526475069636199,1,0.0334,-0.7319,0.6272,390,-4.3335,16.1133,15.1367,155,0.8664,0.6023,3.9101,-43.3329,27,0.9104,7843,4.0128,-146.5334
rg,1625526475069654329,1,0.1042,-1.0325,0.7864,391,-84.4727,-46.875,18.4326,155,0.8324,0.6103,2.7832,-46.9521,27,0.9034,8457,4.0128,-144.6951
rg,1625526475069672496,1,0.1599,-1.1619,0.7832,392,-90.6982,-74.5239,4.7607,155,0.7944,0.6053,0.648,-50.9622,27,0.8924,8032,4.0128,-142.3301
rg,1625526475069690088,1,0.1372,-1.0906,0.6494,393,-54.1992,-87.0972,11.0474,155,0.7644,0.5453,-1.3919,-53.4577,27,0.8834,8324,4.0128,-139.3016
rg,1625526475069707607,1,0.4048,-0.9385,0.675,394,1.2207,-116.6992,45.8374,155,0.7634,0.4922,-3.3704,-53.6293,27,0.8874,8542,4.0128,-134.4539
rg,1625526475069725514,1,0.646,-1.0781,0.5886,395,29.4189,-100.647,56.2134,155,0.7624,0.4812,-4.0024,-52.1727,27,0.8874,8113,4.0128,-130.4225
rg,1625526475069742755,1,0.7319,-1.0947,0.4702,396,44.4946,-55.603,60.73,155,0.7644,0.4562,-4.5251,-51.1173,27,0.8864,8080,4.0128,-127.1434
rg,1625526475069781403,1,0.3525,-0.845,0.2012,397,77.0874,19.8364,-24.7803,155,0.7654,0.4272,-5.4777,-48.8303,27,0.8854,8443,4.0128,-128.3367
rg,1625526475069799866,1,-0.0881,-0.2378,0.1179,398,128.54,78.4302,-42.9077,155,0.7654,0.4282,-3.661,-43.972,27,0.8834,8227,4.0128,-131.708
rg,1625526475069817181,1,-0.1355,-0.0669,0.1477,399,128.6011,95.7031,-15.3198,155,0.7674,0.4442,0.8868,-38.8525,27,0.8824,8445,4.0128,-133.6249
rg,1625526475069833959,1,-0.0588,0.0703,0.3335,400,18.5547,78.0029,49.3774,155,0.7684,0.4652,4.9113,-36.3889,27,0.8834,8738,4.0128,-133.937
rg,1625526475069850718,1,0.0295,-0.5251,0.7134,401,-153.4424,14.3433,33.0811,155,0.7684,0.4772,5.9199,-42.4305,27,0.8844,9594,4.0128,-133.265
rg,1625526475069867866,1,0.2041,-1.5271,1.2341,402,-156.4941,20.3857,9.9487,155,0.7664,0.4862,6.304,-49.0283,27,0.8874,8230,4.0128,-133.5827
rg,1625526475069884884,1,-0.0122,-1.5483,0.5596,403,-84.2896,25.1465,11.5967,155,0.7674,0.5112,6.2528,-50.6266,27,0.8894,8036,4.0128,-133.5156
rg,1625526475069901644,1,-0.0281,-1.3069,0.6655,404,23.4985,-9.7656,-9.0942,155,0.7744,0.5313,5.526,-50.16,27,0.8924,8219,4.0128,-133.4986
rg,1625526475069918977,1,-0.0198,-0.7271,0.8955,405,53.9551,-19.4092,0.3662,155,0.7934,0.5433,4.8516,-47.5029,27,0.8984,8881,4.0128,-132.8618
rg,1625526475069956662,1,0.136,-0.8147,0.5649,406,39.978,-76.6602,2.4414,155,0.8194,0.5613,2.3399,-46.0562,27,0.9044,8390,4.0128,-130.5844
rg,1625526475069990681,1,0.4373,-1.0608,0.4849,407,48.584,-69.519,14.8315,155,0.8484,0.5753,-0.0555,-44.7654,27,0.9054,8710,4.0128,-128.2251
rg,1625526475070009866,1,0.4224,-0.9573,0.2959,408,63.3545,-35.5225,12.9395,174,0.8714,0.5893,-1.5834,-43.214,28,0.9054,8839,4.0029,-126.8775
rg,1625526475070026440,1,0.2261,-0.5579,0.4185,409,54.3213,39.1846,2.2583,174,0.8804,0.6013,-1.0101,-41.3861,28,0.9064,8378,4.0029,-127.8701
rg,1625526475070043459,1,0.0239,-0.5337,0.6409,410,-44.4336,36.499,16.4795,174,0.8594,0.6133,0.4825,-43.0832,28,0.9014,8800,4.0029,-128.3678
rg,1625526475070066347,1,0.1052,-0.9797,0.6538,411,-114.9902,-38.6963,0.4272,174,0.8134,0.6183,-0.8005,-48.1777,28,0.8884,8482,4.0029,-127.2429
rg,1625526475070161033,1,0.0828,-1.0354,0.7246,412,-98.6938,-46.9971,-3.8452,174,0.7814,0.6023,-2.2477,-50.8444,27,0.8804,8470,4.0029,-124.9622
rg,1625526475070179977,1,0.3391,-1.0183,0.6375,413,-32.4097,-86.2427,45.4102,174,0.7654,0.5443,-3.4764,-52.5895,27,0.8774,9040,4.0029,-121.1073
rg,1625526475070199644,1,0.7075,-0.9546,0.863,414,-0.1831,-93.2007,50.4761,174,0.7664,0.5112,-5.0893,-52.736,27,0.8834,9015,4.0029,-116.9194
rg,1625526475070218347,1,0.6975,-1.0747,0.4641,415,36.8652,-31.7383,50.1709,174,0.7674,0.4832,-5.2618,-51.9267,27,0.8844,8495,4.0029,-114.6501
rg,1625526475070302903,1,0.4021,-1.0308,0.418,416,43.457,57.1899,-3.2349,174,0.7694,0.4522,-4.5205,-50.6116,27,0.8844,9139,4.0029,-116.4804
rg,1625526475562247458,1,-0.3176,-0.2778,0.2126,417,113.9526,92.6514,-4.0894,174,0.7734,0.4382,-0.5444,-45.9905,27,0.8834,24312,4.0029,-119.2853
rg,1625526475562284143,1,-0.155,-0.0916,0.2419,418,-5.249,-30.8228,42.9688,174,0.7744,0.4652,0.2445,-46.3395,27,0.8844,11908,4.0029,-117.2058
rg,1625526475562304699,1,0.1289,-0.6714,0.7178,419,-146.4844,-97.5342,35.8276,174,0.7744,0.4792,-1.506,-52.0861,27,0.8874,7888,4.0029,-113.3034
rg,1625526475562339218,1,0.4089,-1.5659,1.2542,420,-112.1826,-11.6577,23.4375,174,0.7754,0.5052,-1.4099,-56.5434,27,0.8894,7696,4.0029,-112.3662
rg,1625526475562359162,1,0.2261,-1.627,0.762,421,-47.1802,23.6816,21.2402,174,0.7834,0.5293,-0.4188,-58.7373,27,0.8944,7927,4.0029,-112.7036
rg,1625526475562377736,1,0.1968,-1.3977,0.9453,422,26.001,23.3154,-12.5122,174,0.8044,0.5413,-0.6014,-57.566,27,0.9004,8985,4.0029,-113.7642
rg,1625526475562396866,1,0.0232,-0.8069,0.6558,423,89.1724,22.0947,-10.437,174,0.8294,0.5653,-0.4773,-53.7211,27,0.9054,8168,4.0029,-114.7332
rg,1625526475562414810,1,-0.0496,-0.54,0.2446,424,76.5381,11.4746,7.1411,174,0.8484,0.5773,0.234,-51.1212,27,0.9084,8518,4.0029,-114.9149
rg,1625526475562433903,1,-0.0603,-0.5044,0.3442,425,36.499,14.1602,13.7939,174,0.8484,0.5863,1.2308,-49.8336,27,0.9104,8118,4.0029,-115.0005
rg,1625526475562452495,1,-0.0322,-0.8252,0.6184,426,-93.9331,-49.5605,10.8032,174,0.8134,0.5983,0.3732,-53.6756,27,0.8974,8242,4.0029,-113.178
rg,1625526475562470792,1,0.1028,-1.0586,0.7573,427,-108.4595,-123.4131,-14.5874,174,0.7824,0.5863,-3.0463,-58.1084,27,0.8874,8280,4.0029,-109.4066
rg,1625526475562488866,1,0.1699,-1.0632,0.7007,428,-72.8149,-128.0518,1.6479,174,0.7774,0.5253,-5.1854,-60.2054,27,0.8914,8181,4.0029,-103.8087
rg,1625526475562507125,1,0.5806,-1.0566,0.7922,429,-3.54,-152.8931,57.9834,174,0.7744,0.5112,-6.8806,-60.7611,27,0.8954,8417,4.0029,-97.3356
rg,1625526475562524829,1,0.9683,-1.1577,0.4409,430,39.2456,-142.2119,68.5425,174,0.7744,0.4942,-8.4461,-60.2946,27,0.8964,8473,4.0029,-90.9612
rg,1625526475562542477,1,0.6631,-0.9014,0.1897,431,65.6128,6.1035,-10.3149,174,0.7744,0.4712,-9.7305,-58.1655,27,0.8974,9057,4.0029,-91.3268
rg,1625526475562560347,1,0.3613,-0.6157,0.1699,432,71.9604,71.2891,-36.9873,174,0.7734,0.4622,-9.5837,-55.1291,27,0.8964,7935,4.0029,-94.508
rg,1625526475562591940,1,-0.0474,-0.2048,0.1526,433,81.4819,143.5547,-21.6064,174,0.7734,0.4642,-6.0726,-51.0948,28,0.8954,8191,4.0029,-99.6514
rg,1625526475562612884,1,-0.1003,-0.2158,0.4873,434,17.7612,130.127,32.6538,174,0.7744,0.4812,-1.5777,-51.6277,28,0.8954,12473,4.0029,-102.0908
rg,1625526475562631162,1,-0.042,-0.5488,0.7163,435,-107.1777,64.6362,35.0342,174,0.7734,0.4902,1.2385,-55.3335,28,0.8954,8250,4.0029,-103.3615
rg,1625526475562648810,1,0.1233,-1.3481,1.0869,436,-126.77,19.8364,14.1602,174,0.7734,0.4982,1.9261,-60.223,27,0.8964,8135,4.0029,-103.7209
rg,1625526475562667032,1,-0.063,-1.3672,0.6206,437,-22.3389,6.2256,7.5073,174,0.7734,0.5133,2.327,-61.317,27,0.8964,8669,4.0029,-103.7996
rg,1625526475562684310,1,-0.0837,-1.1602,0.6519,438,17.9443,-7.0801,-1.0986,174,0.7794,0.5353,2.2236,-59.9958,27,0.8964,8177,4.0029,-103.5482
rg,1625526475562702736,1,-0.1021,-0.6448,0.7986,439,38.6353,-39.6729,-2.9907,174,0.7924,0.5453,1.4477,-57.5847,27,0.9004,8740,4.0029,-102.2142
rg,1625526475562721032,1,0.1355,-0.8625,0.5996,440,12.9395,-101.0132,1.8921,174,0.8164,0.5583,-1.0039,-56.9476,27,0.9044,8443,4.0029,-98.7705
rg,1625526475562739680,1,0.4714,-1.1675,0.6494,441,43.0298,-100.8911,11.4746,174,0.8434,0.5743,-3.5667,-55.5098,27,0.9064,9027,4.0029,-95.1637
rg,1625526475562788069,1,0.4993,-1.0117,0.2917,442,70.7397,-73.0591,10.437,174,0.8714,0.5843,-5.3287,-52.7339,27,0.9044,8710,4.0029,-93.8024
rg,1625526475562810606,1,0.4265,-0.8096,0.2671,443,93.3838,-6.1646,-8.5449,174,0.8894,0.5993,-6.4673,-49.2577,27,0.9024,8787,4.0029,-93.8251
rg,1625526475562828403,1,0.1628,-0.4202,0.4155,444,59.2651,73.1201,0.7935,174,0.9014,0.6063,-4.8462,-46.5164,27,0.9024,8567,4.0029,-96.0159
rg,1625526475562847143,1,-0.0225,-0.5066,0.6128,445,-20.0195,76.1719,28.9307,174,0.8994,0.6143,-1.6747,-46.9486,27,0.8974,8854,4.0029,-97.4749
rg,1625526475562864958,1,-0.0002,-0.9951,0.7065,446,-107.1777,21.0571,27.6489,174,0.8444,0.6243,-0.226,-51.5172,27,0.8854,8875,4.0029,-97.3882
rg,1625526475562883606,1,0.0872,-1.1604,0.8567,447,-69.1528,-36.1328,17.5781,174,0.7964,0.6233,-0.6584,-54.3584,27,0.8754,10778,4.0029,-95.8077
rg,1625526475562901310,1,0.4304,-1.0813,0.6348,448,-20.6299,-85.8765,53.894,174,0.7674,0.5773,-1.5697,-55.4448,27,0.8694,8444,4.0029,-91.7514
rg,1625526475833563680,1,0.3708,-1.0144,0.4795,449,33.4473,11.4136,37.3535,174,0.7754,0.4502,-0.8758,-54.6895,27,0.8814,26901,4.0029,-92.6169
rg,1625526475833616032,1,0.1528,-0.999,0.4148,450,37.2925,60.4858,-23.9868,174,0.7764,0.4152,0.0037,-53.6738,27,0.8814,8938,4.0029,-95.131
rg,1625526475833689717,1,-0.2947,-0.6064,0.3608,451,84.2896,99.0601,-52.1851,174,0.7764,0.4112,1.6476,-50.5651,27,0.8794,8593,4.0029,-99.5122
rg,1625526475833710236,1,-0.406,-0.1643,0.3037,452,130.249,41.8701,-7.2021,174,0.7774,0.4212,4.2377,-44.8774,27,0.8794,8158,4.0029,-100.8421
rg,1625526475833729199,1,-0.1902,0.0435,0.3413,453,99.5483,-15.564,24.1699,174,0.7794,0.4432,4.4256,-41.709,27,0.8814,8136,4.0029,-97.7515
rg,1625526475833747088,1,-0.0828,-0.1748,0.2222,454,-46.3867,-107.666,39.6729,174,0.7804,0.4602,2.8015,-43.1586,27,0.8824,8581,4.0029,-93.6577
rg,1625526475833765328,1,0.365,-0.8369,0.9292,455,-177.6733,-154.48,31.7383,174,0.7804,0.4732,-1.225,-50.1196,27,0.8844,8527,4.0029,-88.2565
rg,1625526475833783458,1,0.4011,-1.5425,0.9712,456,-102.7832,-32.1655,20.2637,174,0.7784,0.4892,-1.805,-54.5394,27,0.8874,8428,4.0029,-86.7209
rg,1625526475833801495,1,0.334,-1.418,0.5459,457,-4.5776,-32.1045,2.2583,174,0.7794,0.5193,-2.8823,-55.308,27,0.8914,8374,4.0029,-85.5965
rg,1625526475833818828,1,0.3103,-1.2205,0.7839,458,24.5972,-11.5967,-10.1318,174,0.7904,0.5313,-3.8403,-54.3988,27,0.8964,7902,4.0029,-85.4493
rg,1625526475833836921,1,0.21,-0.7705,0.6675,459,73.6694,0.5493,-1.4648,174,0.8144,0.5443,-4.181,-51.2358,27,0.9034,8521,4.0029,-85.5264
rg,1625526475833854088,1,0.2397,-0.657,0.4304,460,67.5049,-25.1465,1.8921,174,0.8414,0.5633,-5.267,-48.8072,27,0.9074,8336,4.0029,-84.7004
rg,1625526475833870773,1,0.2722,-0.752,0.2556,461,43.0908,-5.4932,10.437,174,0.8774,0.5863,-4.6987,-48.1001,27,0.9094,9673,4.0029,-85.1542
rg,1625526475833887328,1,0.1108,-0.7031,0.5195,462,16.6626,43.5181,9.0942,174,0.8844,0.5983,-3.1722,-47.3548,27,0.9094,8289,4.0029,-86.2034
rg,1625526475833904051,1,-0.0024,-0.8384,0.7266,463,-28.6255,12.4512,20.1416,174,0.8744,0.6063,-2.1118,-48.5625,27,0.9064,8055,4.0029,-86.0338
rg,1625526475833971106,1,0.2073,-1.1267,0.8577,464,-72.1436,-56.5796,27.71,174,0.8224,0.6173,-2.9485,-51.7014,27,0.8944,9723,4.0029,-83.5718
rg,1625526475833993643,1,0.252,-1.124,0.7603,465,-49.9268,-69.8853,26.001,174,0.7834,0.6103,-4.0947,-54.0235,27,0.8844,8142,4.0029,-80.6957
rg,1625526475834011643,1,0.4016,-1.0107,0.6069,466,-29.1748,-78.7964,36.7432,174,0.7574,0.5543,-5.0533,-55.5154,27,0.8764,8645,4.0029,-76.8945
rg,1625526475834029180,1,0.5249,-0.9167,0.7007,467,-14.8315,-80.0171,48.0347,174,0.7654,0.5062,-5.9964,-56.3518,27,0.8814,8188,4.0029,-73.1571
rg,1625526475834046162,1,0.5264,-0.9858,0.5439,468,41.9312,-16.1133,47.2412,174,0.7644,0.4852,-5.5394,-54.9982,27,0.8814,8617,4.0029,-71.5489
rg,1625526475834064032,1,0.3755,-0.9326,0.3447,469,46.5088,22.3999,6.3477,174,0.7654,0.4602,-5.4143,-53.6166,27,0.8824,8333,4.0029,-72.0904
rg,1625526475834081495,1,0.1396,-0.7678,0.2358,470,69.3359,44.5557,-28.8086,174,0.7664,0.4372,-4.7281,-51.3812,27,0.8814,8165,4.0029,-74.134
rg,1625526475834099384,1,-0.2053,-0.3052,0.1653,471,116.6992,71.8384,-34.2407,174,0.7664,0.4462,-2.5881,-46.8685,27,0.8794,8363,4.0029,-77.1249
rg,1625526475834135069,1,-0.1675,-0.0222,0.3201,472,78.4302,48.2178,22.7661,174,0.7684,0.4692,0.5303,-42.3514,27,0.8794,8444,4.0029,-77.8508
rg,1625526475834155143,1,-0.0464,-0.1978,0.5261,473,11.1084,19.2261,41.4429,174,0.7694,0.4812,1.4792,-44.3371,27,0.8804,8261,4.0029,-76.1703
rg,1625526475834172254,1,0.0674,-0.6072,0.7039,474,-137.8174,-44.9219,34.0576,174,0.7704,0.5012,0.8092,-49.8024,27,0.8834,9227,4.0029,-73.9086
rg,1625526475834190254,1,0.2925,-1.3994,1.1445,475,-132.7515,-17.7002,19.5312,174,0.7714,0.5213,0.6054,-55.1091,27,0.8854,8360,4.0029,-72.8558
rg,1625526475834206995,1,0.0952,-1.3967,0.6184,476,-18.3105,-12.7563,6.958,174,0.7734,0.5363,0.3846,-56.256,27,0.8844,8427,4.0029,-72.2806
rg,1625526475834224254,1,0.1411,-1.0496,0.9355,477,33.6304,-17.2729,-5.9204,174,0.7804,0.5433,-0.4412,-54.5873,27,0.8924,8335,4.0029,-71.8465
rg,1625526475834241828,1,0.1377,-0.8457,0.8872,478,47.6074,-28.8696,5.4321,174,0.8014,0.5553,-1.186,-52.2606,27,0.8994,8357,4.0029,-70.7974
rg,1625526475834274828,1,0.302,-0.9189,0.3826,479,72.4487,-67.5659,8.3618,174,0.8374,0.5793,-3.2253,-50.0148,27,0.9054,12445,4.0029,-68.4809
rg,1625526475834293069,1,0.3369,-0.7039,0.2571,480,85.022,-47.9736,18.7988,174,0.8554,0.5923,-3.6881,-47.544,27,0.9054,8533,4.0029,-67.4911
rg,1625526476204722180,1,0.1489,-0.928,0.6804,481,-90.1489,-13.7329,9.4604,174,0.8084,0.6163,-3.9006,-51.4177,27,0.8904,23625,4.0029,-66.8067
rg,1625526476204756273,1,0.1211,-1.0139,0.6943,482,-49.9268,-37.4756,23.3154,174,0.7774,0.6133,-4.134,-53.6872,27,0.8814,8726,4.0029,-65.0336
rg,1625526476204776180,1,0.2969,-1.0105,0.6294,483,-35.7666,-53.5889,51.6968,174,0.7644,0.5663,-4.0724,-55.4841,27,0.8774,7865,4.0029,-62.0664
rg,1625526476204794939,1,0.5823,-0.9316,0.8518,484,-3.3569,-61.5845,42.9077,174,0.7674,0.5343,-4.8468,-55.5554,28,0.8824,7915,4.0029,-59.0788
rg,1625526476204813643,1,0.5891,-0.9084,0.4075,485,30.2124,29.7241,32.959,174,0.7684,0.5052,-4.0809,-54.6707,28,0.8834,16091,4.0029,-59.2872
rg,1625526476204832162,1,0.1238,-0.6011,0.2483,486,48.8892,105.4688,-34.9731,174,0.7674,0.4832,-3.003,-52.9429,28,0.8824,7805,4.0029,-63.4973
rg,1625526476204849847,1,-0.0664,-0.4062,0.2429,487,56.6406,134.3384,-43.9453,174,0.7684,0.4842,-0.6544,-50.7428,28,0.8814,8082,4.0029,-68.7891
rg,1625526476204867717,1,-0.301,-0.126,0.4792,488,39.917,152.771,-13.7329,174,0.7704,0.4982,4.0689,-48.1499,27,0.8814,7979,4.0029,-73.7746
rg,1625526476204884828,1,-0.4219,-0.4075,0.4927,489,-70.6177,60.3638,11.3525,174,0.7724,0.5092,7.0833,-50.8265,27,0.8824,7828,4.0029,-75.3291
rg,1625526476204902662,1,-0.394,-0.7407,0.4944,490,-113.0981,-18.1885,8.2397,174,0.7744,0.5263,6.9575,-55.2365,27,0.8844,9013,4.0029,-74.5447
rg,1625526476204919976,1,0.0896,-1.3689,1.2795,491,-126.4648,-121.9482,10.7422,174,0.7764,0.5413,4.3331,-59.5107,27,0.8874,7911,4.0029,-70.1291
rg,1625526476204937532,1,0.2061,-1.3721,0.6392,492,3.479,-105.1025,30.8228,174,0.7784,0.5573,2.7959,-59.3102,27,0.8894,8116,4.0029,-65.8913
rg,1625526476204955384,1,0.3333,-1.2126,0.5303,493,35.7666,-110.8398,28.6865,174,0.7904,0.5633,0.6168,-57.6789,27,0.8964,8098,4.0029,-61.5203
rg,1625526476204973810,1,0.4404,-0.8542,0.7432,494,53.2227,-69.2139,0.4883,174,0.8104,0.5753,-1.7291,-55.2444,27,0.9014,8138,4.0029,-59.2157
rg,1625526476204990865,1,0.3499,-0.707,0.4197,495,54.5044,-29.0527,-0.2441,174,0.8334,0.5903,-3.2364,-53.2455,27,0.9064,7940,4.0029,-58.2884
rg,1625526476205008087,1,0.3289,-0.7432,0.3342,496,43.457,-8.1177,1.9531,174,0.8534,0.6033,-3.9969,-51.9721,27,0.9084,7951,4.0029,-57.9656
rg,1625526476205025125,1,0.2268,-0.7878,0.4534,497,16.2964,44.5557,2.5635,174,0.8664,0.6113,-3.2163,-51.5372,27,0.9084,7968,4.0029,-59.2891
rg,1625526476205042699,1,0.0081,-0.8523,0.6316,498,-27.6489,33.1421,2.0142,174,0.8634,0.6193,-2.2332,-52.6576,27,0.9054,8131,4.0029,-60.2862
rg,1625526476205059421,1,0.0112,-0.9153,0.6663,499,-56.9458,-4.2725,5.5542,174,0.8234,0.6293,-2.1876,-55.0342,27,0.8934,8038,4.0029,-60.0129
rg,1625526476205076513,1,0.1023,-1.0088,0.7048,500,-75.6836,-52.8564,-1.77,174,0.7874,0.6303,-3.5026,-58.1295,28,0.8814,8223,4.0029,-58.2804
rg,1625526476205094625,1,0.2678,-0.9412,0.5747,501,-24.353,-81.8481,24.292,174,0.7724,0.5943,-4.7579,-59.3459,28,0.8784,8174,4.0029,-54.9642
rg,1625526476205112328,1,0.6179,-0.9993,0.8535,502,4.5776,-82.7026,47.7905,174,0.7734,0.5453,-5.5897,-59.1436,28,0.8804,10252,4.0029,-51.1638
rg,1625526476205129810,1,0.7913,-1.1777,0.5359,503,43.1519,-34.2407,59.9976,174,0.7724,0.5233,-5.2467,-57.8547,27,0.8824,8477,4.0029,-48.7296
rg,1625526476205171884,1,0.6624,-1.1401,0.3633,504,57.1289,18.3716,29.0527,174,0.7744,0.4922,-4.795,-56.0617,27,0.8834,8630,4.0029,-48.688
rg,1625526476205193217,1,0.1628,-0.7854,0.3357,505,77.6978,117.9199,-37.5366,174,0.7744,0.4752,-3.5405,-53.0227,27,0.8824,8759,4.0029,-53.3865
rg,1625526476205210976,1,-0.2856,-0.3181,0.2866,506,121.0938,153.9917,-40.7104,174,0.7754,0.4742,0.4703,-47.8672,27,0.8824,8923,4.0029,-59.1128
rg,1625526476205228162,1,-0.3262,0.0825,0.4524,507,99.4873,82.2144,10.6201,174,0.7784,0.4832,4.3751,-42.3999,27,0.8824,8348,4.0029,-61.0693
rg,1625526476205245069,1,-0.323,0.0532,0.356,508,42.0532,39.1235,25.6348,174,0.7804,0.4952,7.7775,-40.7586,27,0.8834,8249,4.0029,-61.3212
rg,1625526476205264087,1,-0.2478,-0.4153,0.271,509,-115.0513,-62.8662,25.9399,174,0.7814,0.5143,7.3992,-45.5796,27,0.8844,8458,4.0029,-58.9284
rg,1625526476205303125,1,0.2949,-1.1609,1.4619,510,-200.1953,-128.418,21.6675,174,0.7824,0.5293,4.0926,-52.8231,27,0.8874,8285,4.0029,-54.3818
rg,1625526476205323347,1,0.1553,-1.5261,0.6194,511,-52.002,-61.5845,19.6533,174,0.7834,0.5503,2.923,-55.3188,28,0.8914,8987,4.0029,-51.9545
rg,1625526476205342050,1,0.3376,-1.2166,0.7483,512,-6.1646,-77.8809,15.4419,174,0.7924,0.5643,0.3322,-54.599,28,0.8954,8755,4.0029,-49.534
rg,1625526476589533458,1,0.3567,-0.8035,0.4055,513,55.1758,-63.1104,6.4087,174,0.8524,0.5973,-1.7938,-52.7291,27,0.9074,24986,4.0029,-47.3638
rg,1625526476589575809,1,0.4395,-0.8281,0.3352,514,42.4805,-12.085,14.2212,174,0.8734,0.6123,-2.5784,-51.5861,27,0.9054,8929,4.0029,-46.6285
rg,1625526476589595828,1,0.2681,-0.7036,0.5276,515,32.7759,22.2778,10.6812,174,0.8814,0.6193,-1.7497,-51.0953,27,0.9054,7934,4.0029,-47.975
rg,1625526476589615402,1,0.1406,-0.6953,0.645,516,-20.3247,50.0488,10.3149,174,0.8664,0.6283,-0.4511,-51.7149,27,0.9014,8128,4.0029,-49.291
rg,1625526476589634013,1,0.1079,-1.0095,0.7053,517,-96.6187,0.7324,23.6206,174,0.8114,0.6363,0.1462,-55.6916,27,0.8884,8969,4.0029,-48.751
rg,1625526476589651828,1,0.1423,-1.0713,0.6929,518,-72.3267,-47.4243,6.4087,174,0.7744,0.6133,-0.9162,-58.6336,27,0.8754,10494,4.0029,-47.0107
rg,1625526476589670106,1,0.5437,-0.9192,0.708,519,3.8452,-78.9795,57.1899,174,0.7694,0.5413,-1.5373,-58.3277,27,0.8794,12541,4.0029,-43.1323
rg,1625526476589687550,1,0.6584,-1.0005,0.7659,520,25.7568,-59.3262,53.0396,149,0.7674,0.5243,-1.9994,-57.1818,27,0.8794,7783,4.0161,-40.013
rg,1625526476589704902,1,0.6733,-1.1606,0.4944,521,41.626,0.4272,35.2173,149,0.7704,0.5012,-1.8164,-55.8736,27,0.8814,8097,4.0161,-39.2561
rg,1625526476589722235,1,0.2451,-1.0105,0.377,522,62.8052,85.022,-34.5459,149,0.7714,0.4792,-1.4343,-53.7768,27,0.8814,7883,4.0161,-42.8269
rg,1625526476589739717,1,-0.2559,-0.502,0.3169,523,82.4585,121.0327,-50.415,149,0.7724,0.4472,1.2579,-49.412,27,0.8804,8120,4.0161,-48.3361
rg,1625526476589757643,1,-0.3245,-0.0342,0.3765,524,138.9771,117.6758,-32.7148,149,0.7734,0.4562,4.8298,-42.7868,27,0.8814,8093,4.0161,-50.5467
rg,1625526476589775050,1,-0.293,0.1406,0.4282,525,100.9521,36.0718,22.2168,149,0.7754,0.4802,7.6425,-37.1014,27,0.8814,8637,4.0161,-50.5937
rg,1625526476589808569,1,-0.1702,-0.2065,0.1633,526,-53.7109,-61.0352,31.7993,149,0.7764,0.4922,7.4928,-39.3878,27,0.8834,8677,4.0161,-48.1413
rg,1625526476589829087,1,0.2097,-0.7778,1.0242,527,-195.4956,-144.2261,29.7241,149,0.7754,0.5092,3.4659,-46.6254,27,0.8864,8468,4.0161,-43.2712
rg,1625526476589848643,1,0.3916,-1.5803,1.0583,528,-99.1211,-58.3496,23.0713,149,0.7774,0.5363,2.0386,-50.8166,27,0.8904,8398,4.0161,-40.9072
rg,1625526476589866328,1,0.3152,-1.5317,0.4646,529,-28.1982,-51.5747,27.5269,149,0.7864,0.5503,0.9486,-52.5412,27,0.8954,8873,4.0161,-38.6199
rg,1625526476589883717,1,0.4543,-1.1963,0.8928,530,30.0293,-24.7803,-7.8125,149,0.8064,0.5643,-0.6002,-51.3566,27,0.9014,8336,4.0161,-38.0391
rg,1625526476589901680,1,0.3391,-0.7656,0.6785,531,83.1299,-4.5166,1.0376,149,0.8304,0.5793,-1.3761,-47.9213,27,0.9054,8088,4.0161,-37.8984
rg,1625526476589919735,1,0.2986,-0.6792,0.428,532,79.2847,-13.9771,5.127,149,0.8534,0.5923,-2.3104,-45.9943,27,0.9074,8032,4.0161,-37.3886
rg,1625526476589937791,1,0.283,-0.7036,0.3044,533,44.2505,11.5967,10.1929,149,0.8644,0.6023,-2.4005,-44.9666,27,0.9074,8247,4.0161,-37.413
rg,1625526476589955865,1,0.1218,-0.7366,0.5659,534,-30.1514,50.415,20.3247,149,0.8544,0.6113,-0.6201,-46.43,27,0.9054,8619,4.0161,-38.2793
rg,1625526476589974143,1,0.0278,-0.9714,0.6448,535,-95.2759,0.4272,11.5967,149,0.8104,0.6203,-0.2916,-50.6161,28,0.8914,8629,4.0161,-37.9807
rg,1625526476589992087,1,0.0315,-0.9861,0.6436,536,-82.6416,-23.3765,6.4697,149,0.7744,0.5943,-0.6615,-53.1855,28,0.8804,8885,4.0161,-35.9146
rg,1625526476590009458,1,0.2012,-0.9426,0.7209,537,-45.3491,-70.7397,52.6733,149,0.7764,0.5373,-0.9579,-55.0102,28,0.8864,8476,4.0161,-32.3841
rg,1625526476590027087,1,0.6147,-1.1169,0.822,538,26.062,-94.6655,74.0356,149,0.7734,0.5203,-1.6166,-54.0166,28,0.8874,8992,4.0161,-27.5954
rg,1625526476590046643,1,0.814,-1.1926,0.446,539,42.7246,-46.5698,67.5659,149,0.7734,0.4962,-1.7189,-52.9022,27,0.8884,8575,4.0161,-24.4926
rg,1625526476590064791,1,0.4302,-0.9741,0.3384,540,63.2935,68.5425,-12.4512,149,0.7754,0.4732,-1.2452,-50.9476,27,0.8884,8940,4.0161,-26.9585
rg,1625526476590082384,1,0.1394,-0.6978,0.3308,541,72.998,114.9902,-38.3911,149,0.7764,0.4492,1.6091,-47.2359,27,0.8884,8773,4.0161,-32.3461
rg,1625526476590100717,1,-0.25,-0.2656,0.2539,542,119.3237,135.0708,-27.5269,149,0.7764,0.4562,5.848,-42.7344,27,0.8874,8577,4.0161,-36.8991
rg,1625526476590119402,1,-0.2595,-0.0188,0.3364,543,78.3081,90.8813,25.5737,149,0.7784,0.4702,10.4794,-38.6695,27,0.8874,8334,4.0161,-38.3493
rg,1625526476590137161,1,-0.2087,-0.2407,0.3313,544,-65.0024,-8.4229,36.3159,149,0.7794,0.4832,11.7945,-40.8973,27,0.8884,8544,4.0161,-36.9858
rg,1625526476881096457,1,0.1331,-1.4609,0.8972,545,-85.022,-40.7104,24.9023,149,0.7774,0.5213,10.6621,-44.6053,28,0.8934,24729,4.0161,-35.2353
rg,1625526476881151550,1,0.1711,-1.2334,0.5623,546,7.1411,-50.7812,10.437,149,0.7774,0.5403,8.8496,-44.8286,28,0.8944,8720,4.0161,-33.6319
rg,1625526476881172532,1,0.1646,-0.853,0.9055,547,26.7334,-33.3862,0.4272,149,0.7854,0.5523,7.2683,-43.5577,28,0.8974,8209,4.0161,-32.6748
rg,1625526476881192346,1,0.1514,-0.7622,0.7461,548,23.7427,-47.6074,3.8452,149,0.8054,0.5573,5.2458,-42.7863,28,0.9034,8044,4.0161,-31.2975
rg,1625526476881211495,1,0.3071,-0.9607,0.6262,549,26.6113,-69.7632,1.2817,149,0.8304,0.5733,2.4537,-42.1216,27,0.9064,8233,4.0161,-29.4227
rg,1625526476881229106,1,0.4465,-1.0381,0.4109,550,57.8003,-42.7856,15.7471,149,0.8554,0.5873,0.6712,-40.6971,27,0.9044,7953,4.0161,-27.8697
rg,1625526476881247772,1,0.4475,-0.959,0.3125,551,70.0073,-18.1885,11.3525,149,0.8774,0.5963,-0.5185,-38.8945,27,0.9024,7830,4.0161,-27.0831
rg,1625526476881267513,1,0.2566,-0.6301,0.3376,552,67.3828,40.1611,-2.8076,149,0.8914,0.6053,-0.0753,-37.0242,28,0.9004,7776,4.0161,-28.1685
rg,1625526476881286069,1,-0.0063,-0.5698,0.6311,553,-18.6157,49.8657,26.3062,149,0.8984,0.6153,2.159,-37.9644,28,0.9004,14748,4.0161,-28.5521
rg,1625526476881304513,1,0.0083,-0.7673,0.6499,554,-65.979,12.5122,33.4473,149,0.8484,0.6253,2.076,-42.7538,28,0.8894,7982,4.0161,-27.1622
rg,1625526476881322809,1,0.1182,-1.1013,0.7532,555,-108.8257,-34.729,16.9678,149,0.7994,0.6303,1.3026,-47.5442,28,0.8774,8358,4.0161,-25.7052
rg,1625526476881342291,1,0.2578,-1.1072,0.7314,556,-42.9077,-70.8008,33.6304,149,0.7644,0.5873,-0.0358,-49.5611,27,0.8714,9588,4.0161,-22.6914
rg,1625526476881359995,1,0.5652,-0.9695,0.6917,557,-32.6538,-95.0317,53.833,149,0.7644,0.5213,-1.7621,-51.0978,27,0.8754,8215,4.0161,-18.3805
rg,1625526476881378439,1,0.5881,-1.1445,0.7261,558,40.8936,-29.9072,37.5977,149,0.7654,0.4852,-2.2003,-49.7561,27,0.8764,9295,4.0161,-16.5057
rg,1625526476881397717,1,0.689,-1.1973,0.6362,559,39.2456,-15.625,52.2461,149,0.7684,0.4412,-1.8164,-48.5656,28,0.8804,8329,4.0161,-16.6467
rg,1625526476881418735,1,0.2844,-1.0825,0.3943,560,68.3594,57.9224,-24.8413,149,0.7704,0.4222,-1.4737,-46.5642,28,0.8794,8148,4.0161,-19.0138
rg,1625526476881439328,1,-0.2239,-0.5562,0.3459,561,112.854,115.3564,-53.2837,149,0.7714,0.4202,1.0902,-42.4667,28,0.8794,8603,4.0161,-23.7248
rg,1625526476881458217,1,-0.3674,-0.0862,0.3376,562,158.02,71.6553,-6.4087,149,0.7734,0.4282,4.7523,-35.5269,28,0.8784,8230,4.0161,-25.6132
rg,1625526476881476717,1,-0.2844,0.1189,0.396,563,133.1177,15.9912,26.123,149,0.7754,0.4382,6.9145,-28.5151,28,0.8794,8543,4.0161,-24.8606
rg,1625526476881494976,1,-0.1367,-0.0522,0.2014,564,-11.4136,-80.0781,45.9595,149,0.7764,0.4532,5.9913,-28.1473,28,0.8804,8433,4.0161,-21.6383
rg,1625526476881561735,1,0.1401,-0.5134,0.4824,565,-168.7622,-159.5459,40.4663,149,0.7774,0.4692,0.7873,-35.2975,28,0.8824,8695,4.0161,-16.9408
rg,1625526476881587883,1,0.6196,-1.4214,1.4399,566,-158.0811,-57.312,23.4375,149,0.7774,0.4832,-1.1007,-41.9414,28,0.8874,8102,4.0161,-14.7449
rg,1625526476881606328,1,0.2458,-1.3716,0.3357,567,-78.7964,-3.7231,28.1372,149,0.7774,0.5032,-1.3407,-44.6067,27,0.8924,8130,4.0161,-13.8759
rg,1625526476881625754,1,0.2625,-1.1987,0.5735,568,-15.3198,-6.6528,-6.0425,149,0.7804,0.5203,-2.0883,-45.9646,27,0.8954,8345,4.0161,-13.8347
rg,1625526476881661254,1,0.0938,-0.7019,0.6643,569,17.2729,23.5596,-1.5259,149,0.7944,0.5403,-1.9408,-45.4556,27,0.9014,11776,4.0161,-13.8618
rg,1625526476881682513,1,0.1128,-0.7605,0.55,570,2.3193,-24.9023,2.6245,149,0.8184,0.5493,-2.7536,-45.7246,27,0.9074,8834,4.0161,-13.0634
rg,1625526476881701254,1,0.3406,-0.9968,0.5574,571,12.7563,-41.0767,13.2446,149,0.8364,0.5663,-4.059,-45.8639,27,0.9124,9105,4.0161,-11.4855
rg,1625526476881718995,1,0.396,-0.9817,0.4106,572,28.6865,0.3052,21.0571,149,0.8464,0.5753,-4.0972,-45.5309,27,0.9144,8712,4.0161,-10.8545
rg,1625526476881735920,1,0.2319,-0.8499,0.6121,573,-12.3291,26.8555,6.7139,149,0.8424,0.5853,-3.4937,-46.3102,27,0.9134,8595,4.0161,-11.4179
rg,1625526476881753550,1,0.1028,-0.9292,0.6997,574,-38.6353,20.6299,4.3335,149,0.8184,0.5943,-3.1186,-48.398,28,0.9024,8763,4.0161,-11.7389
rg,1625526476881771439,1,0.0852,-0.9187,0.6941,575,-37.5977,6.1035,7.5073,149,0.7984,0.5863,-2.7767,-50.0668,28,0.8944,8538,4.0161,-11.719
rg,1625526476881788865,1,0.1587,-0.9204,0.6411,576,-23.3154,-16.1743,30.3955,149,0.7884,0.5373,-2.4536,-51.2432,28,0.8944,8815,4.0161,-10.4373
rg,1625526477242651531,1,0.3643,-0.9089,0.5227,577,26.3672,11.1084,15.1367,149,0.7814,0.4832,-2.3595,-50.5118,27,0.9004,25789,4.0161,-10.394
rg,1625526477242686105,1,-0.1069,-0.6775,0.4045,578,50.1099,52.063,-25.0244,149,0.7834,0.4742,-1.3854,-48.7656,27,0.8994,14867,4.0161,-12.6105
rg,1625526477242707142,1,-0.2024,-0.5046,0.3418,579,71.4722,41.5649,-19.2871,149,0.7844,0.4782,0.157,-45.6151,27,0.8994,7723,4.0161,-14.3321
rg,1625526477242727198,1,-0.188,-0.1409,0.396,580,57.1289,0.1221,10.9253,149,0.7844,0.4932,1.3849,-42.412,27,0.8994,7835,4.0161,-13.9914
rg,1625526477242745661,1,-0.0366,-0.3918,0.4458,581,-53.3447,-67.0166,26.123,149,0.7844,0.5042,0.2516,-44.4493,27,0.8994,7727,4.0161,-11.3876
rg,1625526477242764272,1,0.1663,-0.7405,0.7798,582,-108.6426,-95.459,24.5972,149,0.7854,0.5193,-1.9958,-48.7883,27,0.9004,8126,4.0161,-7.9227
rg,1625526477242782346,1,0.4871,-1.4531,1.1648,583,-81.2988,-56.3354,22.3389,149,0.7904,0.5393,-3.2268,-52.2229,27,0.9034,8367,4.0161,-5.5959
rg,1625526477242800883,1,0.3809,-1.3394,0.6033,584,15.1978,-32.6538,12.0239,149,0.8044,0.5533,-4.0896,-52.2052,27,0.9064,8109,4.0161,-4.2379
rg,1625526477242819198,1,0.3269,-0.9048,0.6174,585,48.8281,-18.4326,-2.1362,149,0.8214,0.5693,-4.6854,-49.2909,27,0.9104,8501,4.0161,-4.2967
rg,1625526477242835939,1,0.2561,-0.6582,0.5325,586,87.9517,11.1084,1.709,149,0.8354,0.5833,-4.8135,-45.812,27,0.9104,8274,4.0161,-4.5915
rg,1625526477242854272,1,0.0862,-0.5103,0.3933,587,40.9546,28.1982,7.019,149,0.8414,0.5943,-3.9346,-44.3787,28,0.9124,8087,4.0161,-5.1771
rg,1625526477242872476,1,-0.0339,-0.8225,0.5879,588,-64.6973,2.8076,15.8691,149,0.8244,0.6033,-3.1714,-47.3686,28,0.9094,8373,4.0161,-4.7952
rg,1625526477242892679,1,-0.0122,-1.0083,0.6843,589,-93.0176,-27.5879,13.7329,149,0.7924,0.6043,-3.3197,-51.4705,28,0.8974,7865,4.0161,-3.5848
rg,1625526477242909920,1,0.0925,-1.04,0.7197,590,-72.4487,-82.6416,16.1133,149,0.7734,0.5383,-4.8091,-54.7177,28,0.8874,8067,4.0161,-0.5358
rg,1625526477242928439,1,0.4128,-0.9033,0.9199,591,-7.5684,-109.5581,49.4385,149,0.7784,0.5042,-6.2056,-55.0772,27,0.8914,9625,4.0161,4.1748
rg,1625526477242946457,1,0.7913,-1.0969,0.614,592,28.5034,-127.6245,93.2617,149,0.7774,0.4802,-7.0585,-54.8554,27,0.8924,9727,4.0161,10.547
rg,1625526477242964309,1,0.8613,-1.0981,0.3936,593,35.5835,-97.7783,68.8477,149,0.7794,0.4552,-8.475,-53.8814,27,0.8924,8043,4.0161,12.4133
rg,1625526477242981828,1,0.5017,-0.9226,0.2871,594,51.7578,21.9727,-20.9351,149,0.7794,0.4472,-9.3727,-52.2726,27,0.8904,8229,4.0161,11.2768
rg,1625526477242999624,1,0.0291,-0.4194,0.2507,595,81.8481,106.0181,-30.2734,149,0.7804,0.4432,-7.3913,-48.6726,27,0.8894,8045,4.0161,7.2411
rg,1625526477243017976,1,-0.1111,-0.1272,0.2441,596,73.7305,109.4971,8.606,149,0.7804,0.4492,-3.0606,-44.6925,27,0.8884,8814,4.0161,4.2156
rg,1625526477243036698,1,-0.1409,-0.0564,0.3987,597,29.9683,102.0508,25.9399,149,0.7834,0.4612,1.4376,-42.1821,27,0.8894,8234,4.0161,2.1073
rg,1625526477243054679,1,-0.1487,-0.4746,0.5625,598,-96.1304,29.2969,35.3394,149,0.7844,0.4792,3.6483,-45.9194,27,0.8904,9042,4.0161,2.2944
rg,1625526477243072124,1,0.1841,-1.2783,1.2019,599,-138.4888,-32.959,25.3296,149,0.7824,0.4862,3.1624,-51.3647,27,0.8924,8760,4.0161,3.9705
rg,1625526477243096846,1,0.0623,-1.446,0.6772,600,-28.8696,-31.311,23.2544,149,0.7824,0.4992,2.9221,-52.9544,27,0.8954,8665,4.0161,5.5057
rg,1625526477243116828,1,0.1584,-1.1287,0.7974,601,39.3677,-45.7764,4.0894,149,0.7924,0.5263,1.5621,-51.3816,27,0.8994,10349,4.0161,7.0465
rg,1625526477243135365,1,0.1902,-0.7759,0.7244,602,63.2935,-49.8047,12.146,149,0.8144,0.5483,0.2008,-48.6435,27,0.9034,10423,4.0161,8.8796
rg,1625526477243154717,1,0.3123,-0.8916,0.5049,603,50.7812,-67.4438,0.4272,149,0.8364,0.5633,-2.2541,-47.0881,27,0.9074,8240,4.0161,10.8832
rg,1625526477243173939,1,0.3892,-0.9377,0.4365,604,57.373,-61.8896,6.0425,149,0.8614,0.5793,-4.4976,-45.5601,27,0.9074,8483,4.0161,12.8612
rg,1625526477243251383,1,0.3711,-0.7581,0.2773,605,64.209,3.3569,8.9111,149,0.8804,0.5903,-4.95,-43.8548,27,0.9054,8302,4.0161,13.0726
rg,1625526477243272309,1,0.1643,-0.5088,0.4026,606,23.7427,58.8379,4.8828,149,0.8954,0.6013,-3.4831,-43.0869,27,0.9054,8436,4.0161,11.6089
rg,1625526477243289642,1,0.0093,-0.563,0.5164,607,-10.0098,57.8613,11.2305,149,0.8904,0.6123,-1.7031,-45.2171,27,0.9024,8381,4.0161,11.009
rg,1625526477243308309,1,0.0173,-0.7612,0.5693,608,-98.3887,14.4653,25.5737,149,0.8404,0.6213,-0.5366,-49.4517,27,0.8904,8543,4.0161,11.282
rg,1625526477597919809,1,0.4885,-1.0127,0.5571,609,-33.9966,-72.876,43.0908,149,0.7664,0.5313,-1.9209,-51.2953,27,0.8754,26353,4.0161,14.6427
rg,1625526477597969976,1,0.5854,-0.9829,0.5977,610,25.7568,38.3301,38.5742,149,0.7684,0.4912,-0.6547,-50.648,27,0.8824,16814,4.0161,14.4232
rg,1625526477598001290,1,0.4124,-1.1238,0.5852,611,5.4932,103.4546,9.6436,149,0.7704,0.4782,1.5658,-50.8844,27,0.8824,7734,4.0161,11.4599
rg,1625526477598030198,1,-0.1707,-1.019,0.4976,612,48.3398,159.3628,-37.4146,149,0.7714,0.4572,4.7346,-49.776,27,0.8834,9453,4.0161,5.5789
rg,1625526477598058827,1,-0.5339,-0.5413,0.3948,613,121.3379,115.5396,-25.3906,149,0.7724,0.4512,8.3368,-45.5198,27,0.8824,8041,4.0161,1.4944
rg,1625526477598087087,1,-0.5122,-0.2295,0.4001,614,134.1553,57.0679,-4.3945,149,0.7754,0.4612,11.3295,-40.0244,27,0.8834,7769,4.0161,-0.0743
rg,1625526477598114105,1,-0.3984,-0.0559,0.2136,615,67.688,-66.8335,26.7944,149,0.7784,0.4702,11.6466,-36.319,27,0.8844,7840,4.0161,2.6318
rg,1625526477598141346,1,-0.262,-0.1748,0.1025,616,2.5024,-129.0894,36.8652,149,0.7804,0.4892,7.4163,-39.0493,27,0.8864,7811,4.0161,8.2049
rg,1625526477598168272,1,0.1191,-0.5569,0.636,617,-128.1128,-219.9097,46.7529,149,0.7804,0.5012,1.4899,-43.6764,27,0.8884,7999,4.0161,15.4416
rg,1625526477598195846,1,0.6958,-1.4844,1.3489,618,-102.7832,-147.1558,32.7148,149,0.7804,0.5183,-2.4477,-47.9551,27,0.8924,8093,4.0161,20.5967
rg,1625526477598222790,1,0.4917,-1.3997,0.3926,619,-29.9072,-91.7969,32.1655,149,0.7824,0.5403,-4.7001,-48.7,28,0.8964,8281,4.0161,23.6396
rg,1625526477598249364,1,0.5396,-1.2368,0.7234,620,29.1748,-48.4009,-0.6714,149,0.7934,0.5553,-6.6225,-48.0728,28,0.9004,8290,4.0161,25.1069
rg,1625526477598275901,1,0.377,-0.8682,0.696,621,69.0918,13.6108,-0.4883,149,0.8134,0.5673,-6.7401,-45.3766,28,0.9054,8104,4.0161,24.6938
rg,1625526477598302124,1,0.2644,-0.7012,0.4812,622,70.9839,18.2495,1.2207,149,0.8364,0.5813,-6.6033,-42.8629,28,0.9094,8078,4.0161,24.2503
rg,1625526477598368735,1,0.2473,-0.7048,0.3923,623,61.6455,23.9258,7.6904,149,0.8634,0.5923,-6.1128,-41.023,27,0.9084,8064,4.0161,23.9042
rg,1625526477598402976,1,0.1753,-0.7161,0.396,624,36.9263,62.8662,12.5122,149,0.8834,0.6053,-4.138,-40.1904,27,0.9074,9030,4.0161,22.7163
rg,1625526477598431050,1,-0.0254,-0.6914,0.5671,625,10.376,74.2188,12.3901,149,0.8934,0.6133,-1.3356,-40.1053,27,0.9074,7851,4.0161,21.2041
rg,1625526477598462198,1,-0.0981,-0.7039,0.6462,626,-9.5825,53.1616,17.2119,149,0.8854,0.6203,-0.0352,-42.1252,27,0.9054,8514,4.0161,21.6708
rg,1625526477598939550,1,0.0129,-0.8972,0.7686,627,-79.895,-38.3301,25.7568,149,0.8414,0.6293,-0.4444,-45.5976,27,0.8974,7962,4.0161,23.4768
rg,1625526477598977105,1,0.2058,-1.1311,0.854,628,-92.3462,-90.6982,6.4697,149,0.8014,0.6343,-2.9905,-49.6441,27,0.8864,7971,4.0161,26.3475
rg,1625526477599006772,1,0.3755,-1.0515,0.5776,629,-24.7803,-109.8022,32.8979,149,0.7724,0.6013,-5.3156,-51.3656,27,0.8804,9226,4.0161,30.6158
rg,1625526477599036142,1,0.4856,-0.9509,0.5183,630,-23.2544,-107.666,44.6777,149,0.7604,0.5383,-7.3854,-52.798,27,0.8774,8712,4.0161,34.9028
rg,1625526477599063864,1,0.71,-0.8628,0.7473,631,6.2256,-65.7349,29.1138,149,0.7644,0.5072,-8.9771,-52.8156,27,0.8834,8175,4.0161,37.7112
rg,1625526477599092772,1,0.6667,-1.053,0.5916,632,21.3623,30.5176,34.4849,149,0.7664,0.4922,-7.9212,-52.2067,27,0.8844,8840,4.0161,37.6108
rg,1625526477599119624,1,0.3142,-1.1243,0.468,633,28.2593,106.6284,-19.165,149,0.7684,0.4782,-6.164,-51.1743,27,0.8844,8828,4.0161,33.8318
rg,1625526477599147124,1,-0.1594,-0.7976,0.3467,634,50.5371,131.6528,-40.4053,148,0.7684,0.4702,-3.3709,-48.2167,27,0.8844,8593,4.015,28.4211
rg,1625526477599174290,1,-0.3247,-0.5208,0.3301,635,109.436,129.8218,-41.9312,148,0.7694,0.4722,0.1673,-44.0353,27,0.8834,8622,4.015,23.5808
rg,1625526477599222513,1,-0.3281,-0.0481,0.3411,636,136.1694,54.9316,-0.9155,148,0.7714,0.4862,3.3492,-37.6782,27,0.8834,8524,4.015,22.2078
rg,1625526477599251050,1,-0.2656,0.0256,0.2673,637,28.8086,-23.5596,32.1655,148,0.7734,0.4982,4.8805,-35.2998,27,0.8854,8466,4.015,23.9067
rg,1625526477599278864,1,-0.1313,-0.3916,0.2969,638,-129.4556,-113.8306,31.25,148,0.7744,0.5092,2.4899,-40.8707,27,0.8874,8841,4.015,27.6309
rg,1625526477599305476,1,0.1184,-0.7012,0.9221,639,-184.9976,-148.1323,32.4707,148,0.7734,0.5283,-1.445,-48.0776,27,0.8904,8626,4.015,32.7451
rg,1625526477599331568,1,0.3994,-1.5918,1.2639,640,-111.6943,-72.5098,34.4849,148,0.7764,0.5463,-2.599,-52.7608,27,0.8964,8459,4.015,35.8778
rg,1625526478080397031,1,0.3718,-0.8376,0.6418,641,65.0635,-40.8325,-10.0098,148,0.8214,0.5803,-4.1421,-49.0972,27,0.9124,24216,4.015,36.6981
rg,1625526478080456864,1,0.3357,-0.624,0.3926,642,74.3408,-20.813,1.0376,148,0.8584,0.6013,-5.4384,-46.6527,27,0.9144,14199,4.015,37.3624
rg,1625526478080480290,1,0.2905,-0.6594,0.3491,643,32.959,15.625,-1.8311,148,0.8774,0.6103,-5.6866,-45.8437,27,0.9144,7753,4.015,36.904
rg,1625526478080499753,1,0.1157,-0.7256,0.5195,644,-0.1221,49.3164,-0.9155,148,0.8874,0.6183,-4.4178,-46.0464,27,0.9144,7805,4.015,35.4845
rg,1625526478080534086,1,0.0146,-0.7605,0.5969,645,-19.165,42.6636,5.8594,148,0.8794,0.6283,-2.9399,-46.9615,27,0.9124,7752,4.015,34.4188
rg,1625526478080553160,1,0.0303,-0.9324,0.6809,646,-81.1768,-32.3486,21.8506,148,0.8354,0.6393,-3.074,-50.5435,27,0.9024,7719,4.015,35.9816
rg,1625526478080571883,1,0.1543,-0.9692,0.6975,647,-70.0073,-83.9844,9.8267,148,0.7954,0.6393,-4.9814,-53.6759,28,0.8894,8780,4.015,38.8956
rg,1625526478080591272,1,0.2349,-0.9048,0.6702,648,-37.7197,-90.8813,24.4751,148,0.7744,0.6183,-6.5428,-55.5185,28,0.8844,7887,4.015,42.4476
rg,1625526478080610290,1,0.5723,-0.8918,0.5449,649,-28.3203,-105.4077,61.1572,148,0.7644,0.5723,-7.6754,-57.3537,28,0.8814,8510,4.015,47.3711
rg,1625526478080629160,1,0.7571,-0.896,0.6201,650,8.9111,-54.0771,34.6069,148,0.7674,0.5443,-8.7037,-57.2894,28,0.8834,8283,4.015,49.9512
rg,1625526478080647383,1,0.7002,-0.9272,0.4128,651,26.4282,-6.8359,35.4004,148,0.7684,0.5243,-7.8001,-56.7471,28,0.8844,8291,4.015,49.5534
rg,1625526478080664975,1,0.542,-0.9211,0.4043,652,16.6626,89.0503,11.5967,148,0.7694,0.5062,-6.2571,-56.0695,28,0.8834,8517,4.015,46.8533
rg,1625526478080683142,1,0.1113,-0.8958,0.4578,653,21.3013,169.1895,-20.4468,148,0.7714,0.4942,-3.1319,-54.9801,28,0.8834,8170,4.015,40.8182
rg,1625526478080700531,1,-0.314,-0.8333,0.5549,654,46.2036,162.1704,-14.4043,148,0.7724,0.4882,0.981,-53.0712,28,0.8824,8268,4.015,35.2465
rg,1625526478080718938,1,-0.4475,-0.7732,0.5471,655,63.2935,112.5488,-2.8687,148,0.7744,0.4852,4.7263,-50.8145,28,0.8824,8486,4.015,31.646
rg,1625526478080738327,1,-0.3267,-0.5374,0.3489,656,73.9746,-31.0059,21.4233,148,0.7764,0.4852,4.9712,-47.7977,28,0.8824,8176,4.015,33.1567
rg,1625526478080756568,1,-0.0037,-0.4968,0.4756,657,32.4097,-121.0327,26.6724,148,0.7744,0.4862,2.2823,-46.1608,28,0.8824,8085,4.015,37.4388
rg,1625526478080774809,1,0.2466,-0.6804,0.5791,658,5.0049,-121.0938,26.6113,148,0.7814,0.4882,-0.9808,-46.0336,27,0.8844,7959,4.015,41.6625
rg,1625526478080832031,1,0.3027,-0.8271,0.5063,659,4.3945,-73.9746,16.8457,148,0.7834,0.4902,-3.1691,-46.4116,27,0.8864,13352,4.015,44.2783
rg,1625526478080853772,1,0.2437,-0.7568,0.5083,660,12.4512,-33.7524,2.7466,148,0.7844,0.4912,-4.4804,-46.3452,27,0.8864,8042,4.015,45.3544
rg,1625526478080890383,1,0.1467,-0.6853,0.5522,661,4.3335,-13.855,-6.958,148,0.7864,0.4902,-5.2586,-46.367,27,0.8874,8260,4.015,45.5791
rg,1625526478080909994,1,0.1033,-0.6802,0.5615,662,-2.8687,-14.5264,-7.9956,148,0.7874,0.4932,-5.9434,-46.6519,27,0.8874,8051,4.015,45.797
rg,1625526478080928068,1,0.1089,-0.7402,0.5652,663,-16.6016,-30.8228,-9.0942,148,0.7894,0.4912,-7.0717,-47.6151,27,0.8874,8367,4.015,46.4839
rg,1625526478080946642,1,0.1677,-0.8042,0.5344,664,-17.5171,-48.7061,-8.667,148,0.7904,0.4902,-8.7309,-48.8172,27,0.8884,8523,4.015,47.7634
rg,1625526478080964846,1,0.2402,-0.7976,0.4932,665,-10.3149,-57.4951,-10.3149,148,0.7924,0.4892,-10.757,-49.8378,27,0.8894,8555,4.015,49.3208
rg,1625526478080982586,1,0.2739,-0.7812,0.4829,666,-7.019,-56.4575,-12.6953,148,0.7944,0.4912,-12.8129,-50.728,27,0.8904,8463,4.015,50.8291
rg,1625526478081001012,1,0.3071,-0.7695,0.5034,667,-4.9438,-45.5322,-15.1978,148,0.7954,0.4922,-14.6445,-51.4014,27,0.8904,8802,4.015,51.9493
rg,1625526478081018623,1,0.292,-0.8281,0.533,668,-3.2349,-31.8604,-16.7847,148,0.7964,0.4912,-16.0286,-51.908,27,0.8924,8527,4.015,52.6132
rg,1625526478081035938,1,0.2395,-0.8848,0.5813,669,3.9673,-25.3296,-18.7378,148,0.8004,0.4912,-17.1062,-52.0305,27,0.8924,8689,4.015,53.0181
rg,1625526478081053716,1,0.1997,-0.9033,0.5942,670,11.5356,-27.0996,-16.9678,148,0.8014,0.4932,-18.1188,-51.636,28,0.8934,8429,4.015,53.7306
rg,1625526478081070772,1,0.1382,-0.8958,0.5889,671,26.8555,-44.0063,-17.0898,148,0.8024,0.4952,-19.3174,-51.0836,28,0.8944,9094,4.015,54.8016
rg,1625526478081088031,1,0.137,-0.8418,0.5352,672,40.2222,-71.4722,-16.9067,148,0.8044,0.4972,-21.1848,-50.3972,28,0.8954,8309,4.015,56.8021
rg,1625526478427311382,1,0.2271,-0.6724,0.3972,673,47.1802,-116.5161,-19.9585,148,0.8074,0.4942,-24.6653,-50.1896,27,0.8954,23601,4.015,60.2878
rg,1625526478427347123,1,0.2913,-0.6631,0.4058,674,43.457,-127.0142,-20.9961,148,0.8084,0.4952,-28.3675,-50.4741,27,0.8944,8588,4.015,64.2112
rg,1625526478427367049,1,0.3708,-0.7253,0.4482,675,40.1611,-126.5869,-19.104,148,0.8094,0.4902,-31.9388,-51.1897,27,0.8954,7766,4.015,68.357
rg,1625526478427386271,1,0.4141,-0.7876,0.4756,676,35.9497,-123.7793,-17.8223,148,0.8094,0.4872,-35.1669,-52.2409,28,0.8954,7937,4.015,72.3949
rg,1625526478427426957,1,0.5129,-0.9229,0.5652,677,36.0107,-109.5581,-18.7378,148,0.8114,0.4822,-37.9986,-53.3264,28,0.8944,7843,4.015,76.3447
rg,1625526478427446160,1,0.5403,-0.9761,0.644,678,51.9409,-75.8667,-21.2402,148,0.8124,0.4812,-39.9543,-52.948,28,0.8954,8821,4.015,78.9148
rg,1625526478427464327,1,0.4663,-0.8345,0.5913,679,72.0215,-41.748,-22.522,148,0.8114,0.4782,-41.0694,-50.8013,28,0.8954,8441,4.015,79.9802
rg,1625526478427484049,1,0.4282,-0.7441,0.5798,680,75.3784,-33.6914,-21.4233,148,0.8134,0.4762,-41.7417,-48.0138,27,0.8954,8244,4.015,80.4229
rg,1625526478427520049,1,0.3577,-0.6311,0.5593,681,72.876,-26.7334,-20.3857,148,0.8124,0.4742,-42.3214,-45.3285,27,0.8934,8622,4.015,80.7521
rg,1625526478427541642,1,0.2964,-0.5725,0.5129,682,62.7441,-37.9028,-22.0337,148,0.8124,0.4732,-43.1829,-43.3668,27,0.8934,8370,4.015,81.4528
rg,1625526478427558216,1,0.2737,-0.5457,0.4995,683,53.1616,-63.7817,-30.0903,148,0.8134,0.4732,-44.9667,-42.285,27,0.8944,8356,4.015,82.8049
rg,1625526478427575401,1,0.3093,-0.5483,0.5249,684,49.6216,-80.3833,-36.0718,148,0.8134,0.4722,-48.0082,-42.2363,27,0.8944,8516,4.015,85.15
rg,1625526478427591771,1,0.333,-0.5642,0.5574,685,43.6401,-110.0464,-42.1143,148,0.8144,0.4722,-51.3772,-42.7024,27,0.8944,8157,4.015,87.9734
rg,1625526478427608568,1,0.4106,-0.6292,0.5903,686,41.5649,-135.7422,-47.7905,148,0.8154,0.4682,-55.5711,-44.4608,27,0.8934,15628,4.015,92.1483
rg,1625526478427625290,1,0.4939,-0.6309,0.5635,687,46.5698,-153.3203,-44.8608,148,0.8164,0.4672,-60.0583,-47.8798,27,0.8934,8100,4.015,98.3453
rg,1625526478427643290,1,0.5969,-0.6047,0.5161,688,50.5981,-160.0952,-42.4194,148,0.8184,0.4652,-64.4601,-53.6076,27,0.8934,8122,4.015,107.3533
rg,1625526478427660086,1,0.6533,-0.5754,0.4875,689,58.8379,-164.4287,-38.6963,148,0.8194,0.4642,-68.2653,-61.8017,27,0.8934,8101,4.015,118.9919
rg,1625526478427677531,1,0.7515,-0.5234,0.4136,690,64.5142,-149.6582,-36.6821,148,0.8204,0.4612,-71.1102,-71.9003,28,0.8924,8200,4.015,132.687
rg,1625526478427696753,1,0.8218,-0.5073,0.4436,691,58.6548,-109.314,-39.978,148,0.8194,0.4602,-72.961,-79.7616,28,0.8924,8776,4.015,143.6647
rg,1625526478427737123,1,0.8186,-0.5525,0.5452,692,52.6123,-84.9609,-41.2598,148,0.8214,0.4622,-74.2899,-81.7705,28,0.8924,8404,4.015,148.0948
rg,1625526478427755568,1,0.7664,-0.5942,0.6079,693,45.5933,-41.5649,-47.9126,148,0.8214,0.4622,-75.4538,-81.0684,28,0.8914,8458,4.015,149.6016
rg,1625526478427772345,1,0.6443,-0.6396,0.6577,694,52.002,-27.5879,-49.9878,148,0.8224,0.4632,-76.3949,-77.2334,28,0.8924,8662,4.015,148.1344
rg,1625526478427789290,1,0.5486,-0.5933,0.6572,695,66.1011,-37.6587,-47.2412,148,0.8224,0.4592,-77.2274,-74.0187,28,0.8924,8360,4.015,147.864
rg,1625526478427806494,1,0.5708,-0.4719,0.6274,696,75.0732,-63.5986,-39.3677,148,0.8224,0.4602,-78.1712,-75.3852,28,0.8914,9016,4.015,152.6546
rg,1625526478427823142,1,0.7051,-0.4136,0.5811,697,76.6602,-75.1343,-33.2642,148,0.8224,0.4562,-78.8633,-83.3139,28,0.8914,8554,4.015,164.0534
rg,1625526478427840845,1,0.8013,-0.4097,0.5708,698,72.3267,-88.623,-21.0571,148,0.8234,0.4522,-79.1303,-93.6652,28,0.8924,8559,4.015,-182.2591
rg,1625526478427858457,1,0.936,-0.4607,0.5557,699,69.397,-71.3501,-14.2822,148,0.8244,0.4532,-78.9011,-100.7198,28,0.8914,8679,4.015,-172.1261
rg,1625526478427875975,1,1.022,-0.4565,0.5549,700,68.2983,-29.541,-11.1084,148,0.8254,0.4532,-78.8319,-98.3377,28,0.8914,8773,4.015,-171.5631
rg,1625526478427893827,1,1.0122,-0.4497,0.5964,701,62.3779,20.9961,-11.3525,148,0.8264,0.4522,-78.8845,-84.5942,28,0.8914,8739,4.015,-182.7576
rg,1625526478427911808,1,0.9509,-0.449,0.6313,702,60.1807,42.7856,-12.3291,148,0.8274,0.4512,-77.9814,-63.9315,28,0.8914,8484,4.015,158.5716
rg,1625526478427929975,1,0.7268,-0.4622,0.6924,703,54.5654,67.4438,-9.5825,148,0.8264,0.4522,-75.681,-47.3629,28,0.8904,8406,4.015,143.7273
rg,1625526478427948623,1,0.6519,-0.4419,0.7263,704,54.4434,47.6074,-5.9814,148,0.8264,0.4522,-73.1789,-38.1663,27,0.8914,14036,4.015,136.4116
rg,1625526478779980679,1,0.7029,-0.4119,0.7046,705,51.0254,-17.395,-6.0425,148,0.8264,0.4522,-72.6618,-36.1272,27,0.8904,23604,4.015,136.4544
rg,1625526478780017197,1,0.7083,-0.4153,0.7192,706,49.3774,-20.813,-6.1646,148,0.8264,0.4522,-72.2631,-34.4834,27,0.8914,8484,4.015,136.8369
rg,1625526478780038123,1,0.7029,-0.4182,0.7551,707,46.3257,-25.5737,-5.9814,148,0.8264,0.4512,-71.9889,-33.284,28,0.8904,8059,4.015,137.5622
rg,1625526478780057438,1,0.7234,-0.4294,0.7773,708,47.1191,-28.9307,-2.3193,148,0.8284,0.4492,-71.7583,-32.7035,28,0.8894,7849,4.015,138.9679
rg,1625526478780075642,1,0.7422,-0.4148,0.7764,709,47.4243,-31.0059,-0.1831,148,0.8274,0.4522,-71.6263,-32.4347,28,0.8904,8025,4.015,140.7194
rg,1625526478780093234,1,0.7776,-0.4041,0.749,710,48.645,-31.4331,4.6997,148,0.8294,0.4512,-71.4522,-32.6545,28,0.8894,8410,4.015,143.0379
rg,1625526478780111160,1,0.8044,-0.3823,0.7146,711,50.1709,-26.3062,8.3008,148,0.8284,0.4512,-71.12,-32.7998,28,0.8904,8210,4.015,145.3443
rg,1625526478780128827,1,0.8169,-0.354,0.6833,712,46.936,-13.0615,8.1177,148,0.8294,0.4512,-70.4428,-32.1028,28,0.8894,8241,4.015,146.6255
rg,1625526478780145919,1,0.791,-0.3359,0.6838,713,44.9829,-4.3335,6.7749,148,0.8294,0.4532,-69.4966,-30.6877,28,0.8894,8493,4.015,147.0733
rg,1625526478780163679,1,0.7261,-0.323,0.6948,714,40.0391,10.0708,4.8218,148,0.8294,0.4522,-68.0695,-28.5804,28,0.8904,8364,4.015,146.5604
rg,1625526478780180753,1,0.6748,-0.3438,0.7297,715,36.8652,11.7798,6.4087,148,0.8294,0.4522,-66.4735,-26.8897,28,0.8894,8511,4.015,146.3407
rg,1625526478780197642,1,0.6489,-0.3665,0.7947,716,38.4521,8.2397,7.1411,148,0.8304,0.4532,-64.9928,-25.6665,28,0.8904,12326,4.015,146.7174
rg,1625526478780214697,1,0.6775,-0.3552,0.8276,717,40.8936,1.1597,12.146,148,0.8294,0.4532,-63.799,-25.0796,28,0.8904,8241,4.015,147.9572
rg,1625526478780231845,1,0.7188,-0.3403,0.834,718,42.7856,-5.127,15.4419,148,0.8304,0.4532,-62.7531,-24.4743,27,0.8894,8005,4.015,149.2278
rg,1625526478780249827,1,0.7705,-0.3159,0.8127,719,41.748,-4.3335,19.6533,148,0.8304,0.4522,-61.7562,-24.1111,27,0.8894,8327,4.015,150.7438
rg,1625526478780267549,1,0.7939,-0.3062,0.7778,720,36.1938,8.5449,19.7144,148,0.8304,0.4532,-60.4117,-23.5734,27,0.8894,8054,4.015,151.8129
rg,1625526478780284512,1,0.7551,-0.3013,0.7646,721,30.5786,28.6255,19.2261,148,0.8314,0.4532,-58.3668,-22.6746,28,0.8894,8129,4.015,152.2106
rg,1625526478780301271,1,0.7288,-0.3088,0.7747,722,28.9917,37.0483,18.1274,148,0.8304,0.4532,-56.0553,-21.6446,28,0.8894,8084,4.015,152.3693
rg,1625526478780318271,1,0.6616,-0.3293,0.7788,723,26.6113,44.9219,17.5781,148,0.8314,0.4542,-53.4321,-20.6651,28,0.8894,8164,4.015,152.4349
rg,1625526478780335419,1,0.6177,-0.2998,0.7676,724,29.2969,43.5181,16.1133,148,0.8304,0.4552,-50.9338,-19.5429,28,0.8894,8141,4.015,152.4719
rg,1625526478780352419,1,0.5835,-0.2668,0.7478,725,31.6772,35.4614,16.5405,148,0.8314,0.4552,-48.8056,-18.4801,28,0.8904,8589,4.015,152.7284
rg,1625526478780369697,1,0.5659,-0.229,0.7209,726,32.7759,25.0244,16.6016,148,0.8324,0.4562,-47.1728,-17.4912,28,0.8894,10515,4.015,153.1793
rg,1625526478780386567,1,0.6648,-0.248,0.7959,727,30.0903,17.8223,16.7236,148,0.8324,0.4572,-46.1316,-16.8701,28,0.8904,8767,4.015,153.8275
rg,1625526478780403327,1,0.7119,-0.311,0.8582,728,23.7427,9.3384,18.3105,148,0.8334,0.4572,-45.2327,-16.665,28,0.8894,8454,4.015,154.7747
rg,1625526478780420216,1,0.8623,-0.4661,1.0781,729,15.0146,5.7373,30.5786,148,0.8334,0.4572,-44.2998,-17.4559,28,0.8904,8883,4.015,156.5394
rg,1625526478780436882,1,0.9104,-0.4097,0.9468,730,28.3203,15.1978,42.4805,148,0.8334,0.4562,-43.0889,-17.9382,28,0.8894,8712,4.015,158.6935
rg,1625526478780453604,1,0.7273,-0.1956,0.6938,731,34.9121,37.4756,34.3018,148,0.8344,0.4582,-41.3297,-17.2351,28,0.8904,8645,4.015,159.7851
rg,1625526478780470160,1,0.6089,-0.1113,0.7087,732,15.9302,49.3774,31.0059,148,0.8344,0.4602,-39.0509,-16.7816,28,0.8904,8519,4.015,160.3569
rg,1625526478780487271,1,0.5815,-0.1416,0.7231,733,1.1597,42.9077,28.1372,148,0.8354,0.4642,-37.0567,-16.9585,28,0.8904,8334,4.015,160.9435
rg,1625526478780504660,1,0.5227,-0.3228,0.7324,734,-15.625,31.4941,20.2026,148,0.8354,0.4712,-35.461,-18.1412,28,0.8914,8536,4.015,161.5916
rg,1625526478780522345,1,0.4622,-0.408,0.7219,735,-7.8125,32.959,16.2964,148,0.8364,0.4732,-33.7719,-19.0553,28,0.8914,8425,4.015,162.1014
rg,1625526478780540938,1,0.4207,-0.387,0.7893,736,9.6436,29.4189,17.5171,148,0.8374,0.4742,-32.1133,-19.1444,28,0.8904,9280,4.015,162.5947
rg,1625526479122953252,1,0.5859,-0.4055,0.8511,737,26.4893,-5.3101,31.0669,148,0.8374,0.4772,-31.8936,-19.1119,28,0.8904,24885,4.015,164.1944
rg,1625526479123069475,1,0.6816,-0.3779,0.8301,738,34.8511,-6.2866,32.2876,148,0.8384,0.4772,-31.9005,-18.7291,27,0.8914,8860,4.015,165.8339
rg,1625526479123109401,1,0.7075,-0.2983,0.8159,739,36.6821,10.1929,32.1655,148,0.8394,0.4782,-31.3889,-17.9835,27,0.8914,8176,4.015,167.1386
rg,1625526479123139771,1,0.6865,-0.2461,0.7856,740,29.2358,26.123,31.311,148,0.8384,0.4762,-30.3429,-17.3153,27,0.8914,8061,4.015,168.1428
rg,1625526479123167660,1,0.6465,-0.2358,0.7798,741,25.2075,32.959,27.71,148,0.8394,0.4762,-29.0755,-16.6724,27,0.8914,8352,4.015,168.9044
rg,1625526479123195178,1,0.5662,-0.2783,0.7803,742,16.6626,45.4102,23.4375,148,0.8384,0.4782,-27.2777,-16.318,27,0.8924,8225,4.015,169.3875
rg,1625526479123225252,1,0.5107,-0.3035,0.811,743,15.5029,50.0488,25.5737,148,0.8394,0.4812,-25.2027,-16.0637,27,0.8914,8198,4.015,169.9293
rg,1625526479123252123,1,0.4868,-0.3115,0.8286,744,14.9536,48.0347,24.8413,148,0.8404,0.4832,-23.3438,-15.7939,27,0.8924,8298,4.015,170.5339
rg,1625526479123278049,1,0.4824,-0.3262,0.8428,745,17.1509,38.6963,27.9541,148,0.8404,0.4862,-21.7429,-15.5814,27,0.8924,8383,4.0062,171.3234
rg,1625526479123304567,1,0.4917,-0.3357,0.8342,746,18.9819,30.8838,27.2827,168,0.8394,0.4882,-20.5386,-15.3353,28,0.8934,8240,4.0062,-187.8174
rg,1625526479123330975,1,0.519,-0.3118,0.835,747,18.4937,27.2827,27.0996,168,0.8414,0.4922,-19.5843,-15.0582,28,0.8934,18124,4.0062,-186.9459
rg,1625526479123358604,1,0.5183,-0.2903,0.8347,748,15.8081,28.9917,26.4893,168,0.8414,0.4932,-18.6169,-14.8233,28,0.8934,7985,4.0062,-186.1323
rg,1625526479123385678,1,0.5166,-0.2878,0.8572,749,11.7188,31.9214,27.0386,168,0.8414,0.4932,-17.5455,-14.7224,28,0.8944,8085,4.0062,-185.3344
rg,1625526479123411901,1,0.5156,-0.2937,0.8589,750,11.8408,32.3486,27.8931,168,0.8424,0.4952,-16.4867,-14.6258,28,0.8934,8240,4.0062,-184.5061
rg,1625526479123438975,1,0.4922,-0.3098,0.8696,751,10.7422,38.147,26.4893,168,0.8424,0.4952,-15.2019,-14.5563,28,0.8944,8113,4.0062,-183.7913
rg,1625526479123464956,1,0.4673,-0.3025,0.8684,752,11.2305,42.7856,27.4658,168,0.8414,0.4952,-13.7354,-14.4378,28,0.8924,8724,4.0062,-183.0939
rg,1625526479123492160,1,0.4548,-0.2839,0.875,753,11.1694,44.3115,26.9775,168,0.8424,0.4962,-12.202,-14.2477,28,0.8934,8367,4.0062,-182.4497
rg,1625526479123519123,1,0.4248,-0.2764,0.8916,754,11.5967,43.9453,25.8179,168,0.8414,0.4962,-10.7309,-14.0068,28,0.8944,9011,4.0062,-181.8462
rg,1625526479123546030,1,0.4043,-0.2651,0.9036,755,10.7422,36.1938,25.6958,168,0.8414,0.4962,-9.5725,-13.7778,28,0.8934,8634,4.0062,-181.1728
rg,1625526479123573419,1,0.3987,-0.2573,0.9067,756,7.9956,27.9541,23.7427,168,0.8414,0.4972,-8.7865,-13.6379,27,0.8944,8447,4.0062,-180.4965
rg,1625526479123602660,1,0.3914,-0.2742,0.9131,757,3.8452,20.6299,22.1558,168,0.8414,0.4972,-8.307,-13.695,27,0.8944,8938,4.0062,-179.8068
rg,1625526479123630882,1,0.3779,-0.282,0.9224,758,3.9062,19.165,21.7285,168,0.8424,0.4982,-7.9808,-13.763,27,0.8944,8780,4.0062,-179.1294
rg,1625526479123660882,1,0.3787,-0.2932,0.9243,759,4.3945,14.0381,19.8364,168,0.8424,0.4972,-7.7706,-13.8151,27,0.8944,8725,4.0062,-178.4678
rg,1625526479123689623,1,0.3728,-0.2913,0.9209,760,4.5776,8.2397,19.4702,168,0.8424,0.4992,-7.7871,-13.8607,28,0.8944,9107,4.0062,-177.7663
rg,1625526479123787086,1,0.3762,-0.2913,0.918,761,4.9438,3.2349,18.3105,168,0.8424,0.4992,-8.0162,-13.8936,28,0.8944,8739,4.0062,-177.0616
rg,1625526479123832382,1,0.3835,-0.2961,0.9265,762,5.4321,0.9155,19.104,168,0.8434,0.4992,-8.3254,-13.9212,28,0.8944,8948,4.0062,-176.3021
rg,1625526479123860715,1,0.3865,-0.2869,0.9233,763,5.249,0.9155,17.8223,168,0.8434,0.4992,-8.7596,-13.9166,28,0.8944,8462,4.0062,-175.539
rg,1625526479123889364,1,0.3916,-0.283,0.9219,764,4.1504,-3.0518,18.1885,168,0.8444,0.5002,-9.2239,-13.9807,27,0.8944,8389,4.0062,-174.7771
rg,1625526479123916104,1,0.3914,-0.281,0.9131,765,2.6855,-6.8359,17.7612,168,0.8434,0.4992,-9.8259,-14.1129,27,0.8944,10199,4.0062,-173.9924
rg,1625526479123944715,1,0.3992,-0.2866,0.9072,766,1.8311,-7.9956,17.334,168,0.8454,0.5002,-10.4703,-14.2975,27,0.8944,8556,4.0062,-173.208
rg,1625526479123977789,1,0.4106,-0.2993,0.9092,767,1.0986,-7.9956,17.395,168,0.8454,0.5002,-11.1043,-14.539,27,0.8954,8571,4.0062,-172.4141
rg,1625526479124006512,1,0.415,-0.3057,0.9131,768,1.6479,-9.3994,18.8599,168,0.8454,0.5012,-11.7458,-14.7652,27,0.8954,8553,4.0062,-171.5969
rg,1625526479465729919,1,0.4282,-0.3091,0.9016,769,3.54,-3.1738,16.6626,168,0.8454,0.5012,-12.1842,-14.9171,28,0.8944,26848,4.0062,-170.874
rg,1625526479465767030,1,0.4363,-0.2959,0.9106,770,4.6997,-0.4883,17.8833,168,0.8444,0.5022,-12.4996,-14.9919,28,0.8944,8991,4.0062,-170.1381
rg,1625526479465814808,1,0.4326,-0.2852,0.8938,771,6.0425,2.1973,17.7612,168,0.8444,0.5012,-12.7098,-14.995,28,0.8934,8257,4.0062,-169.4379
rg,1625526479465835289,1,0.4302,-0.2668,0.9089,772,4.2114,5.249,18.5547,168,0.8454,0.5022,-12.7729,-15.0234,28,0.8944,8120,4.0062,-168.7488
rg,1625526479465856678,1,0.4268,-0.2632,0.916,773,2.5024,6.6528,18.9209,168,0.8454,0.5022,-12.7632,-15.107,28,0.8954,7946,4.0062,-168.0633
rg,1625526479465875252,1,0.4126,-0.2766,0.9238,774,0.6104,8.4839,18.7378,168,0.8454,0.5022,-12.6469,-15.2801,28,0.8954,8623,4.0062,-167.401
rg,1625526479465893845,1,0.3955,-0.2817,0.9241,775,0.9766,12.085,20.0195,168,0.8454,0.5032,-12.3462,-15.4428,28,0.8954,8197,4.0062,-166.7286
rg,1625526479465912697,1,0.3809,-0.2849,0.9321,776,0.1831,12.9395,20.6909,168,0.8464,0.5042,-11.9347,-15.6098,28,0.8954,8344,4.0062,-166.0616
rg,1625526479465942697,1,0.3494,-0.3008,0.948,777,0.9766,15.625,20.9351,168,0.8464,0.5032,-11.3989,-15.7744,28,0.8964,14305,4.0062,-165.3966
rg,1625526479465961586,1,0.3303,-0.311,0.9438,778,1.3428,15.4419,19.7144,168,0.8464,0.5042,-10.8649,-15.9272,28,0.8964,8018,4.0062,-164.778
rg,1625526479465979752,1,0.325,-0.3076,0.9487,779,2.1973,11.8408,21.1182,168,0.8464,0.5042,-10.5581,-16.0158,28,0.8954,7905,4.0062,-164.0961
rg,1625526479465997271,1,0.3218,-0.2986,0.9443,780,3.479,6.5308,19.104,168,0.8464,0.5042,-10.388,-16.0538,28,0.8964,8145,4.0062,-163.4131
rg,1625526479466014900,1,0.3123,-0.2996,0.9492,781,5.249,-1.5259,18.5547,168,0.8474,0.5042,-10.5164,-16.0311,28,0.8964,7975,4.0062,-162.6616
rg,1625526479466032030,1,0.334,-0.2832,0.9438,782,4.5166,-7.3853,17.334,168,0.8454,0.5042,-10.9289,-16.014,28,0.8954,8826,4.0062,-161.8966
rg,1625526479466048900,1,0.3447,-0.2783,0.9375,783,3.1738,-9.0942,17.395,168,0.8474,0.5052,-11.4169,-16.055,28,0.8964,8144,4.0062,-161.1095
rg,1625526479466065789,1,0.3584,-0.2708,0.949,784,2.5024,-10.376,16.8457,168,0.8464,0.5052,-11.9616,-16.1038,27,0.8964,8888,4.0062,-160.3326
rg,1625526479466083808,1,0.3596,-0.2817,0.9353,785,0.9155,-11.2305,16.0522,168,0.8474,0.5042,-12.5349,-16.2492,27,0.8964,8509,4.0062,-159.5687
rg,1625526479466102067,1,0.3472,-0.3013,0.9438,786,-0.3662,-11.0474,15.625,168,0.8454,0.5052,-13.0456,-16.4797,27,0.8964,8378,4.0062,-158.8141
rg,1625526479466120678,1,0.3447,-0.3003,0.9407,787,-0.4272,-10.5591,14.7095,168,0.8464,0.5052,-13.5385,-16.6928,27,0.8954,8568,4.0062,-158.0881
rg,1625526479466139271,1,0.3501,-0.3037,0.9417,788,0.9155,-11.5967,14.5264,168,0.8464,0.5072,-14.0448,-16.8668,27,0.8964,8452,4.0062,-157.3671
rg,1625526479466157419,1,0.3594,-0.3074,0.9341,789,1.5869,-13.6719,15.9912,168,0.8474,0.5062,-14.614,-17.0479,27,0.8964,8285,4.0062,-156.5588
rg,1625526479466174993,1,0.366,-0.3047,0.9309,790,2.2583,-13.6719,16.6016,168,0.8474,0.5062,-15.1674,-17.2062,27,0.8964,8683,4.0062,-155.7255
rg,1625526479466192049,1,0.3701,-0.2949,0.9312,791,3.6011,-12.6343,16.1133,168,0.8464,0.5072,-15.659,-17.2743,27,0.8964,8755,4.0062,-154.9468
rg,1625526479466209363,1,0.3772,-0.2954,0.9355,792,3.3569,-10.8643,15.3809,168,0.8474,0.5062,-16.0974,-17.3493,28,0.8974,8425,4.0062,-154.1999
rg,1625526479466226752,1,0.3774,-0.2942,0.9312,793,3.418,-10.2539,16.4795,168,0.8474,0.5062,-16.4573,-17.4151,28,0.8974,9869,4.0062,-153.3824
rg,1625526479466244215,1,0.377,-0.2937,0.9294,794,3.2959,-7.9346,16.6016,168,0.8474,0.5062,-16.7406,-17.5009,28,0.8974,8326,4.0062,-152.6218
rg,1625526479466261530,1,0.3672,-0.2986,0.938,795,2.0752,-5.7373,16.6626,168,0.8474,0.5072,-16.9,-17.6326,28,0.8974,8503,4.0062,-151.885
rg,1625526479466278752,1,0.3657,-0.2991,0.9324,796,1.9531,-4.5776,17.8833,168,0.8474,0.5072,-16.9934,-17.7805,28,0.8974,8358,4.0062,-151.1139
rg,1625526479466295956,1,0.3562,-0.2859,0.939,797,1.5259,-3.9062,17.9443,168,0.8474,0.5082,-17.0225,-17.8608,28,0.8964,8574,4.0062,-150.3133
rg,1625526479466313067,1,0.3523,-0.2844,0.938,798,2.0142,-2.6245,17.7612,168,0.8474,0.5082,-16.9822,-17.9481,28,0.8974,9324,4.0062,-149.5871
rg,1625526479466330067,1,0.3491,-0.2881,0.9458,799,1.709,-3.8452,19.3481,168,0.8474,0.5082,-16.9819,-18.0751,28,0.8964,8962,4.0062,-148.7807
rg,1625526479466348789,1,0.3433,-0.2969,0.9368,800,1.8921,-3.9673,17.7002,168,0.8474,0.5082,-16.9973,-18.1962,28,0.8964,8781,4.0062,-148.0325
rg,1625526479812241400,1,0.3433,-0.2939,0.9351,801,2.6855,-6.958,18.6768,168,0.8474,0.5092,-17.1134,-18.2995,28,0.8974,25597,4.0062,-147.209
rg,1625526479812289993,1,0.3506,-0.2893,0.947,802,1.8921,-7.5073,18.3105,168,0.8484,0.5082,-17.2567,-18.4121,28,0.8974,9299,4.0062,-146.3988
rg,1625526479812341141,1,0.3518,-0.292,0.9456,803,1.77,-7.2021,17.7612,168,0.8474,0.5092,-17.391,-18.5263,28,0.8974,7963,4.0062,-145.6132
rg,1625526479812363104,1,0.3457,-0.2891,0.9465,804,2.3193,-6.4087,17.334,168,0.8474,0.5092,-17.4818,-18.6003,28,0.8974,8368,4.0062,-144.8583
rg,1625526479812381141,1,0.3469,-0.2964,0.9431,805,2.8687,-5.4321,15.9912,168,0.8474,0.5092,-17.5516,-18.6489,28,0.8974,8306,4.0062,-144.165
rg,1625526479812398937,1,0.3381,-0.2935,0.9468,806,2.7466,-5.4932,16.2354,168,0.8474,0.5092,-17.6358,-18.686,28,0.8974,8209,4.0062,-143.3992
rg,1625526479812417345,1,0.3472,-0.2932,0.9517,807,3.2959,-6.4697,17.5171,168,0.8484,0.5082,-17.7315,-18.7133,28,0.8984,8680,4.0062,-142.6395
rg,1625526479812435030,1,0.3657,-0.293,0.9319,808,2.8687,-5.3711,16.8457,168,0.8484,0.5102,-17.8238,-18.7715,28,0.8974,8005,4.0062,-141.9135
rg,1625526479812452511,1,0.3528,-0.2888,0.9424,809,1.5869,-1.709,16.4185,168,0.8494,0.5102,-17.7462,-18.8418,28,0.8984,9107,4.0062,-141.26
rg,1625526479812469308,1,0.344,-0.2883,0.9478,810,2.6855,-1.1597,16.1743,168,0.8494,0.5092,-17.5525,-18.8647,28,0.8984,7866,4.0062,-140.645
rg,1625526479812487011,1,0.3269,-0.2954,0.9558,811,2.0142,-0.3662,17.6392,168,0.8494,0.5112,-17.3551,-18.9239,28,0.8984,8041,4.0062,-139.9622
rg,1625526479812504641,1,0.3328,-0.3071,0.9541,812,4.3945,-0.9766,17.7612,168,0.8494,0.5123,-17.1972,-18.914,27,0.8974,9141,4.0062,-139.2596
rg,1625526479812522474,1,0.3347,-0.2935,0.9478,813,5.6763,-1.2207,17.6392,168,0.8494,0.5133,-17.068,-18.8261,27,0.8984,8292,4.0062,-138.5661
rg,1625526479812540067,1,0.3389,-0.2852,0.9529,814,5.8594,-1.0376,18.0054,168,0.8484,0.5123,-16.9406,-18.715,27,0.8974,10841,4.0062,-137.8659
rg,1625526479812557993,1,0.3362,-0.2861,0.9497,815,4.6387,0.7935,17.0288,168,0.8504,0.5123,-16.759,-18.641,28,0.8984,8650,4.0062,-137.2265
rg,1625526479812577882,1,0.3335,-0.2949,0.9521,816,4.2725,0.3662,17.1509,168,0.8504,0.5112,-16.5909,-18.6028,28,0.8984,8104,4.0062,-136.5707
rg,1625526479812595659,1,0.3245,-0.2883,0.949,817,4.6387,2.1362,16.8457,168,0.8504,0.5112,-16.352,-18.5268,28,0.8994,8682,4.0062,-135.954
rg,1625526479812613271,1,0.3181,-0.2937,0.9548,818,3.2349,1.4648,18.4937,168,0.8504,0.5123,-16.1094,-18.5354,28,0.8994,8493,4.0062,-135.2605
rg,1625526479812655252,1,0.3145,-0.2844,0.9512,819,5.0659,0.9766,18.0664,168,0.8494,0.5143,-15.8975,-18.4473,28,0.8994,8550,4.0062,-134.5828
rg,1625526479812681678,1,0.312,-0.283,0.9563,820,3.3569,0.4883,18.8599,168,0.8504,0.5133,-15.6951,-18.432,28,0.8984,8295,4.0062,-133.8684
rg,1625526479812701659,1,0.3018,-0.2786,0.9546,821,4.6387,1.0986,18.7378,168,0.8514,0.5143,-15.4604,-18.3514,28,0.8994,8326,4.0062,-133.1693
rg,1625526479812719456,1,0.3044,-0.2778,0.9634,822,3.479,-0.1831,18.8599,168,0.8524,0.5153,-15.2831,-18.3163,28,0.9004,8424,4.0062,-132.4497
rg,1625526479812737456,1,0.2979,-0.2866,0.9622,823,2.4414,-1.709,19.3481,168,0.8524,0.5153,-15.1497,-18.3517,28,0.8994,9413,4.0062,-131.6855
rg,1625526479812755252,1,0.3015,-0.2871,0.9717,824,2.6855,-1.709,18.6768,168,0.8524,0.5163,-15.0247,-18.3683,28,0.9004,8108,4.0062,-130.9483
rg,1625526479812772363,1,0.2886,-0.2849,0.9663,825,3.54,-1.3428,17.7002,168,0.8524,0.5173,-14.887,-18.3297,28,0.9004,8328,4.0062,-130.2567
rg,1625526479812789345,1,0.2905,-0.2849,0.9714,826,3.2349,-3.6621,18.3105,168,0.8524,0.5183,-14.8363,-18.3144,28,0.9014,8158,4.0062,-129.5112
rg,1625526479812807030,1,0.2886,-0.2866,0.9648,827,2.8076,-4.8828,18.6157,168,0.8524,0.5183,-14.8807,-18.3651,28,0.9004,8321,4.0062,-128.7284
rg,1625526479812825400,1,0.2925,-0.2693,0.9683,828,0.9155,-6.2256,16.7236,168,0.8524,0.5173,-14.9552,-18.4026,28,0.8994,9167,4.0062,-128.0201
rg,1625526479812858382,1,0.2932,-0.28,0.9683,829,0.8545,-7.9346,16.7236,168,0.8524,0.5173,-15.0902,-18.4714,28,0.9014,9051,4.0062,-127.2835
rg,1625526479812887067,1,0.2925,-0.2998,0.9614,830,0.9155,-9.3994,15.8081,168,0.8524,0.5183,-15.2843,-18.5797,28,0.9014,8481,4.0062,-126.5514
rg,1625526479812906882,1,0.2854,-0.2922,0.9692,831,0.9766,-8.9111,15.2588,168,0.8524,0.5183,-15.4405,-18.6547,28,0.9014,8924,4.0062,-125.8535
rg,1625526479812926400,1,0.2883,-0.2871,0.9609,832,1.0376,-9.8267,16.7236,168,0.8534,0.5163,-15.617,-18.7396,28,0.9014,8805,4.0062,-125.0875
rg,1625526480139219715,1,0.2971,-0.2896,0.9578,833,0.9766,-11.5967,16.6016,168,0.8544,0.5183,-15.8733,-18.8393,28,0.9014,24968,4.0062,-124.3006
rg,1625526480139274104,1,0.2996,-0.2861,0.9609,834,0.7935,-11.0474,15.8691,168,0.8534,0.5193,-16.1108,-18.9266,28,0.9014,8892,4.0062,-123.5527
rg,1625526480139312344,1,0.2937,-0.2871,0.9592,835,0.9766,-10.6201,15.3809,168,0.8534,0.5193,-16.3167,-19.0023,28,0.9014,8266,4.0062,-122.829
rg,1625526480139334122,1,0.2935,-0.2844,0.9661,836,1.0986,-10.5591,15.686,168,0.8544,0.5203,-16.4904,-19.0189,28,0.9024,8913,4.0062,-122.1508
rg,1625526480139352548,1,0.2925,-0.2842,0.9702,837,0.9766,-10.376,15.8081,168,0.8534,0.5203,-16.6571,-19.0861,28,0.9024,8535,4.0062,-121.4175
rg,1625526480139370918,1,0.301,-0.2898,0.9546,838,0.9766,-10.6812,15.9302,168,0.8544,0.5213,-16.8517,-19.1783,28,0.9024,14066,4.0062,-120.6688
rg,1625526480139389548,1,0.2954,-0.2861,0.9604,839,2.3193,-9.9487,15.3809,168,0.8544,0.5223,-17.0033,-19.1945,28,0.9034,7854,4.0062,-119.9559
rg,1625526480139421807,1,0.2979,-0.2852,0.9644,840,2.3804,-9.7656,15.1978,168,0.8544,0.5223,-17.1471,-19.2021,28,0.9024,7970,4.0062,-119.254
rg,1625526480139444474,1,0.303,-0.2776,0.9646,841,1.9531,-10.0708,17.5781,168,0.8544,0.5223,-17.2771,-19.2409,28,0.9024,7959,4.0062,-118.4584
rg,1625526480139462418,1,0.2925,-0.291,0.9719,842,1.0376,-8.9722,16.6016,168,0.8544,0.5223,-17.3441,-19.324,28,0.9034,7882,4.0062,-117.7097
rg,1625526480139480918,1,0.2881,-0.2883,0.9668,843,1.1597,-9.8267,17.6392,168,0.8534,0.5233,-17.4233,-19.4275,28,0.9014,9403,4.0062,-116.9271
rg,1625526480139498641,1,0.2837,-0.2788,0.9729,844,1.0986,-8.9722,16.6016,168,0.8544,0.5233,-17.4661,-19.4754,28,0.9024,8215,4.0062,-116.1882
rg,1625526480139516067,1,0.2876,-0.2795,0.9678,845,0.8545,-10.6201,18.5547,168,0.8544,0.5233,-17.5529,-19.5672,28,0.9024,8320,4.0062,-115.3477
rg,1625526480139533770,1,0.2964,-0.2805,0.9607,846,0.9766,-10.437,18.2495,168,0.8544,0.5243,-17.6543,-19.6546,28,0.9034,8141,4.0062,-114.5203
rg,1625526480139551789,1,0.2864,-0.2869,0.9695,847,0.9766,-9.7656,17.2119,168,0.8544,0.5243,-17.7123,-19.7321,28,0.9024,8161,4.0062,-113.7419
rg,1625526480139569381,1,0.2869,-0.2798,0.9771,848,1.5869,-10.0098,18.0664,168,0.8544,0.5243,-17.7631,-19.7742,28,0.9034,8432,4.0062,-112.933
rg,1625526480139587437,1,0.2886,-0.2888,0.9648,849,1.77,-10.8032,16.5405,168,0.8544,0.5253,-17.8701,-19.821,28,0.9034,8533,4.0062,-112.1648
rg,1625526480139605418,1,0.2927,-0.2817,0.9666,850,0.8545,-11.9629,17.4561,168,0.8554,0.5233,-18.0122,-19.9042,28,0.9034,8520,4.0062,-111.349
rg,1625526480139623067,1,0.3003,-0.2798,0.9626,851,0.9155,-11.8408,17.8833,168,0.8534,0.5253,-18.167,-19.9873,28,0.9034,8715,4.0062,-110.5128
